octave,ioi,event,.thisRepN,.thisTrialN,.thisN,.thisIndex,tap_types,tap_times,release_times,tone_times,subject,handedness,experiment,version
,,SPR,0,-1,-1,0,"[b'P', b'P', b'P', b'P', b'P', b'P', b'P', b'P', b'P', b'P', b'P', b'P', b'P', b'P', b'P', b'P', b'P', b'P', b'P', b'P', b'P', b'P', b'P', b'P', b'P', b'P', b'P', b'P', b'P', b'P']","[1230.344833175663, 1231.0083220168203, 1231.655426953722, 1232.318919687972, 1232.9578533769218, 1233.6008726898476, 1234.2603042204312, 1234.9606493254155, 1235.6405411823748, 1236.283558725713, 1236.963432532878, 1237.6187561426811, 1238.3355067408902, 1239.0030776668482, 1239.642004631365, 1240.2523573561937, 1240.8625455093704, 1241.5055708388943, 1242.1690589722164, 1242.8038921726536, 1243.3732085136985, 1244.0244111077725, 1244.65514488145, 1245.2776840486183, 1245.8715527105305, 1245.9698663996712, 1246.473628719983, 1246.5719388699483, 1247.0552751938849, 1247.7187148405053]","[1230.4635852482927, 1231.1107082349886, 1231.7578078631273, 1232.4376908721483, 1232.9579199134175, 1233.7073951421987, 1234.370845406345, 1235.0712393519486, 1235.7511117434437, 1236.3900284443519, 1236.9675259430398, 1237.7252240917326, 1238.33561857883, 1239.0932002886552, 1239.7321184052335, 1240.342372387071, 1240.969008149659, 1241.6202086202277, 1242.2591522188682, 1242.9103650765505, 1243.5043041680515, 1244.1349763600786, 1244.7575296839482, 1245.400551828214, 1245.8756401040941, 1246.0067127538075, 1246.4777178831343, 1246.6005860166476, 1247.2067377403853, 1247.8374676209698]",,7,R,ITM,1.05
4,500,practice,0,0,0,0,"['S', 'S', 'S', 'S', 'S', 'S', 'C', 'C', 'C', 'C', 'C', 'C', 'C', 'C', 'C', 'C', 'C', 'C', 'C', 'C', 'C', 'C']","[1306.9341699235927, 1307.4051594805483, 1307.9007378118765, 1308.3881264915412, 1308.8919107547397, 1309.3793096980128, 1309.9240089512823, 1310.3868283220381, 1310.8578391140454, 1311.3370324793657, 1311.812115446483, 1312.274933047651, 1312.7705241200106, 1313.2333441986016, 1313.6838571489748, 1314.171235565031, 1314.6627314576413, 1315.1214499859673, 1315.5924526378712, 1316.0757390594358, 1316.5385414421503, 1317.0218342342305]","[1307.0201510024538, 1307.4952668839012, 1307.9867493276452, 1308.4905095244517, 1308.982000816134, 1309.473468749259, 1310.01003922468, 1310.4728256811054, 1310.943834703525, 1311.4353199786092, 1311.9022182489082, 1312.3732184233895, 1312.860675763055, 1313.3316539946495, 1313.7780685800155, 1314.2572424798718, 1314.7405342101995, 1315.211547833547, 1315.6825469462756, 1316.1535375649837, 1316.6286523846786, 1317.1078574292776]","[1305.9676084058244, 1306.4672514799947, 1306.9669168509693, 1307.4707127934464, 1307.9703540980288, 1308.470043889313, 1308.9697244787415, 1309.4693983437367, 1309.9526847653015, 1310.4154931646137, 1310.8824080690365, 1311.3656987376116, 1311.836690418072, 1312.2994942164567, 1312.795075733043, 1313.2579127996753, 1313.7084314127292, 1314.1958080591976, 1314.6873124458284, 1315.145998059824, 1315.61699186379, 1316.100301997829, 1316.5631157059045, 1317.0464003578813]",7,R,ITM,1.05
6,500,practice,0,1,1,1,"['S', 'S', 'S', 'S', 'S', 'S', 'C', 'C', 'C', 'C', 'C', 'C', 'C', 'C', 'C', 'C', 'C', 'C', 'C', 'C', 'C', 'C']","[1323.3783555363495, 1323.8657520022, 1324.3859038894475, 1324.8937628051788, 1325.3975658260063, 1325.9217654680542, 1326.409174321018, 1326.900640130638, 1327.4330839276492, 1327.9614325449113, 1328.4406319268296, 1328.9075457694998, 1329.411314460327, 1329.8905258754417, 1330.390185937653, 1330.889837505844, 1331.3813408307224, 1331.8686990734793, 1332.3765884261181, 1332.8680563592434, 1333.3349762185114, 1333.863309263402]","[1323.4643458170665, 1323.9640126037111, 1324.4677922659819, 1324.9920403947312, 1325.4917270007577, 1326.0036959607746, 1326.4992615510719, 1326.998938601325, 1327.5272783706487, 1328.047434150989, 1328.522509685838, 1328.9935296797012, 1329.497288814755, 1329.9723908934188, 1330.4843524211676, 1330.97174428609, 1331.4673268644287, 1331.9628906851383, 1332.4543883473361, 1332.9458559265438, 1333.4168805213346, 1333.9452142740604]","[1322.4199925181833, 1322.919623913075, 1323.419298131988, 1323.918975182241, 1324.4186837311543, 1324.9183260974894, 1325.417974126505, 1325.9177134662434, 1326.4337415064217, 1326.929307804554, 1327.4576486356302, 1327.9859894667065, 1328.469268456003, 1328.9320708387172, 1329.4358727977924, 1329.9191574497693, 1330.4188451175485, 1330.9185122581107, 1331.409998948865, 1331.897365331725, 1332.4052355728172, 1332.8926228368118, 1333.3595214610282, 1333.891954286596]",7,R,ITM,1.05
3,500,practice,0,2,2,2,"['S', 'S', 'S', 'S', 'S', 'S', 'C', 'C', 'C', 'C', 'C', 'C', 'C', 'C', 'C', 'C', 'C', 'C', 'C', 'C', 'C', 'C']","[1340.5229800422364, 1340.9980081521364, 1341.4935925000627, 1341.9850501695796, 1342.4765694207467, 1342.968028859851, 1343.4595289994716, 1343.9469013989299, 1344.434295741275, 1344.921683359187, 1345.4459159155651, 1345.9005413876469, 1346.3838228543661, 1346.8917051286544, 1347.3831904037386, 1347.8583480474547, 1348.3538708137307, 1348.8330422361641, 1349.3409383132362, 1349.8528768363453, 1350.3198395196348, 1350.8113155928631]","[1340.5802368203765, 1341.0717040456666, 1341.583666635168, 1342.0669587194132, 1342.5625409438344, 1343.0540389599496, 1343.5455306055494, 1344.0287862362889, 1344.5120914154825, 1344.9912794720399, 1345.519651447859, 1345.974234449837, 1346.4657437913133, 1346.9613348636728, 1347.4650663931593, 1347.9443344350786, 1348.4398798520767, 1348.9231308818883, 1349.4187456667223, 1349.9388851668562, 1350.4098743698942, 1350.897295963889]","[1339.5235760393584, 1340.0232251301265, 1340.5229092587304, 1341.0225732140348, 1341.5222265518134, 1342.0219071412419, 1342.521577467062, 1343.021267258346, 1343.484076719411, 1343.9755453603711, 1344.4588289505955, 1344.9462186920127, 1345.4704869940617, 1345.9251078652155, 1346.4124813264264, 1346.9162514329237, 1347.4077267983168, 1347.8869307811633, 1348.3784376452168, 1348.8617343303897, 1349.3654807244125, 1349.8815480494366, 1350.348448089323, 1350.835834291565]",7,R,ITM,1.05
5,500,practice,0,3,3,3,"['S', 'S', 'S', 'S', 'C', 'C', 'C', 'C', 'C', 'C', 'C', 'C', 'C', 'C', 'C', 'C', 'C', 'C', 'C', 'C']","[1358.2654409794739, 1358.74051262123, 1359.2647756145159, 1359.7562538112495, 1360.2559340467603, 1360.7515070693257, 1361.2306823848521, 1361.7222080065346, 1362.205467530367, 1362.713333524449, 1363.217108939709, 1363.7004296912742, 1364.1755048722057, 1364.703844287612, 1365.166643838986, 1365.637645783055, 1366.1332234065483, 1366.6329004568013, 1367.1121571733597, 1367.5994994898278]","[1358.3473261707504, 1358.8429144117697, 1359.354875585601, 1359.8545409565754, 1360.3337509560197, 1360.8211219398079, 1361.3167045181465, 1361.8040878890483, 1362.2955699788747, 1362.7952473830453, 1363.294921601958, 1363.7863923664236, 1364.257387939977, 1364.7898289056482, 1365.2608524386865, 1365.7236665006794, 1366.2315402809468, 1366.7271532961931, 1367.2022277692897, 1367.6936861466415]","[1356.2873006957664, 1356.7827827615265, 1357.2865411887453, 1357.786248675906, 1358.285891042241, 1358.7855702159993, 1359.2852274468707, 1359.7849030814539, 1360.2805001704112, 1360.7760717773067, 1361.2593670468095, 1361.7467521872989, 1362.2300318844304, 1362.7378971706771, 1363.2416846191334, 1363.7249650241, 1364.2000649792587, 1364.728407226005, 1365.1953108050668, 1365.662214030211, 1366.1578019173128, 1366.657479675401, 1367.1366790573195, 1367.624073045747]",7,R,ITM,1.05
2,500,practice,0,4,4,4,"['S', 'S', 'S', 'S', 'C', 'C', 'C', 'C', 'C', 'C', 'C', 'C', 'C', 'C', 'C', 'C', 'C', 'C', 'C', 'C']","[1374.8939089731189, 1375.393584607702, 1375.8809807196346, 1376.3724571467806, 1376.884409118756, 1377.3759032417784, 1377.8755601187322, 1378.3834406234328, 1378.8790554082668, 1379.370490073144, 1379.8620394073014, 1380.3411697753013, 1380.8408507186473, 1381.3446385210211, 1381.8524662920095, 1382.348055240864, 1382.8067666908391, 1383.2900775327134, 1383.8143224762052, 1384.2894334028074]","[1374.984016376472, 1375.487778342866, 1375.9710952013384, 1376.4789208488216, 1376.970401522978, 1377.4741910949394, 1377.965652657549, 1378.4653817336791, 1378.9691306051247, 1379.448295303125, 1379.9480303958533, 1380.4148950439867, 1380.9309294546804, 1381.4265067242561, 1381.9343819201938, 1382.4258763971336, 1382.9010071431176, 1383.3801746724582, 1383.900312756922, 1384.3672336779427]","[1372.923916932724, 1373.423548327616, 1373.9232310405494, 1374.4229162309057, 1374.922576647035, 1375.422278471515, 1375.9260680434766, 1376.4257029775436, 1376.9130959042186, 1377.404553219818, 1377.9001411069196, 1378.4121022807508, 1378.9076777807388, 1379.3950611516407, 1379.8865280230132, 1380.3657358989524, 1380.8695527225636, 1381.373287437308, 1381.8811428138638, 1382.376720437357, 1382.831354757377, 1383.3187554702379, 1383.838881875423, 1384.3180614379598]",7,R,ITM,1.05
7,500,practice,0,5,5,5,"['S', 'S', 'S', 'S', 'C', 'C', 'C', 'C', 'C', 'C', 'C', 'C', 'C', 'C', 'C', 'C', 'C', 'C', 'C', 'C']","[1391.7190015137053, 1392.2063703739882, 1392.7060481320764, 1393.2180245243615, 1393.7340716760862, 1394.1927785251337, 1394.6679513873037, 1395.138940944259, 1395.6467676534949, 1396.109571805797, 1396.6092523952254, 1397.1130352427538, 1397.5962951205036, 1398.0632139180193, 1398.5465035248417, 1399.037966857039, 1399.521281592006, 1400.0086674403303, 1400.4919584628228, 1400.9752381599544]","[1391.7927112100192, 1392.2801034288593, 1392.7839156515427, 1393.3040123276555, 1393.811908758645, 1394.2829099948788, 1394.7457077766653, 1395.2166976875383, 1395.7163874788225, 1396.2037789898272, 1396.6952391367668, 1397.1785230809087, 1397.6740982269794, 1398.1328631185017, 1398.6242999068843, 1399.1117140686113, 1399.5990963777601, 1400.1028431257005, 1400.5656851471783, 1401.0530419742652]","[1389.73262344555, 1390.232260503122, 1390.731942862138, 1391.2315972616693, 1391.7312516612003, 1392.2309439299074, 1392.730625935006, 1393.230310417527, 1393.7586360301495, 1394.2214476147196, 1394.696547215961, 1395.167545974772, 1395.6713362545686, 1396.1341411147057, 1396.6379030811, 1397.1416809737827, 1397.6250006635953, 1398.091862126471, 1398.571114596019, 1399.0666426710582, 1399.5499280308702, 1400.033205250579, 1400.5165196316284, 1400.9998343665957]",7,R,ITM,1.05
6,600,trial,0,6,6,6,"['S', 'S', 'S', 'S', 'C', 'C', 'C', 'C', 'C', 'C', 'C', 'C', 'C', 'C', 'C', 'C', 'C', 'C', 'C', 'C']","[1469.9711999609276, 1470.5732504883176, 1471.1794107060762, 1471.7650868849842, 1472.3262121586952, 1472.940591049355, 1473.509898188544, 1474.0587046547587, 1474.6484767212514, 1475.238265421868, 1475.8116493370949, 1476.3481904373607, 1476.9297923176537, 1477.5236277113179, 1478.097066483762, 1478.6827348764846, 1479.2356563418305, 1479.8090328247893, 1480.3947235143162, 1480.9845001817366]","[1470.0490023595682, 1470.6469821275186, 1471.2531833997107, 1471.834735377632, 1472.416303281842, 1473.00200812807, 1473.5876970480092, 1474.1406280691285, 1474.7262801816446, 1475.332456325692, 1475.8976364325538, 1476.4382996103013, 1477.0116930813015, 1477.60965019853, 1478.166664012285, 1478.7401123405027, 1479.3053104971586, 1479.8868369930176, 1480.4602442668015, 1481.0582229729994]","[1467.562996789614, 1468.160906835811, 1468.758909608401, 1469.3609537652756, 1469.9630014613256, 1470.5610208680393, 1471.1630487447076, 1471.7609959522451, 1472.3548869109618, 1472.9651674366144, 1473.5344161794108, 1474.0873634807365, 1474.6771497039304, 1475.2669023049586, 1475.8402961298764, 1476.37683899973, 1476.9584472505385, 1477.5481927732164, 1478.1257033668528, 1478.70729462962, 1479.2602419309458, 1479.8377160710766, 1480.4233766776133, 1481.0090914335324]",7,R,ITM,1.05
4,400,trial,0,7,7,7,"['C', 'C', 'C', 'C', 'C', 'C', 'C', 'C', 'C', 'C', 'C', 'C', 'C', 'C', 'C', 'C']","[1489.614145659007, 1489.9868240042442, 1490.3677213763003, 1490.756823618474, 1491.154085783239, 1491.535008991275, 1491.9199969421525, 1492.3295559715266, 1492.6858730632305, 1493.0913585018245, 1493.4599958166948, 1493.8695732497804, 1494.2586556725726, 1494.6640823608564, 1495.03270056418, 1495.4176991325835]","[1489.6960067838913, 1490.048247453475, 1490.4414469989033, 1490.826443797719, 1491.2359978722477, 1491.6005251428323, 1491.9895930550056, 1492.3786998981072, 1492.7595855908849, 1493.15277841188, 1493.5418742835382, 1493.9432408299083, 1494.3241502351605, 1494.741969345787, 1495.1023437480644, 1495.4791356767628]","[1486.505528014873, 1486.9027792081945, 1487.3041549564205, 1487.70551584011, 1488.1069053911197, 1488.5042142729985, 1488.9055581686466, 1489.3069409952232, 1489.6386643577086, 1490.0114230422255, 1490.3922913930442, 1490.7813745236713, 1491.1827573502478, 1491.5636579075617, 1491.9445386454938, 1492.3541266961056, 1492.7145495850848, 1493.1200035250185, 1493.4845442444691, 1493.8941153070393, 1494.2831864044704, 1494.6927581748755, 1495.0614000906737, 1495.4463823788708]",7,R,ITM,1.05
6,400,trial,0,8,8,8,"['S', 'S', 'S', 'S', 'C', 'C', 'C', 'C', 'C', 'C', 'C', 'C', 'C', 'C', 'C', 'C', 'C', 'C', 'C', 'C']","[1502.5114278201122, 1502.8964207258352, 1503.3100961700106, 1503.6991785928026, 1504.1210603227657, 1504.4937570717148, 1504.8746505506779, 1505.2678794712613, 1505.6774020471298, 1506.0705764644133, 1506.4555867120955, 1506.8487894427817, 1507.2624394048948, 1507.610560828337, 1508.0037437396413, 1508.3928470435676, 1508.7819305281123, 1509.1710256919353, 1509.5765171471273, 1509.9573936380493]","[1502.5728983403744, 1502.974230556744, 1503.3797213041012, 1503.7687927554498, 1504.1824512115836, 1504.5592735771895, 1504.9401543151218, 1505.3415474053068, 1505.7470257655502, 1506.1320147781805, 1506.5211219751995, 1506.9142917915553, 1507.3156583379255, 1507.6842850352696, 1508.0569991261775, 1508.4583663803828, 1508.8351703422773, 1509.2365361808122, 1509.6256405464912, 1510.0311068735386]","[1500.9550970671917, 1501.3523578162863, 1501.7537558613167, 1502.1551142675835, 1502.552398021318, 1502.9537567815023, 1503.3551512873573, 1503.7524138060398, 1504.1496897735883, 1504.5183104543346, 1504.903312915831, 1505.2965039672386, 1505.706077861149, 1506.0951772719825, 1506.480187873582, 1506.87332583736, 1507.2910840741713, 1507.6351379234313, 1508.0324181379904, 1508.417412813301, 1508.810596786358, 1509.1996661142014, 1509.6051795122803, 1509.9860581267073]",7,R,ITM,1.05
7,400,trial,0,9,9,9,"['S', 'S', 'S', 'S', 'C', 'C', 'C', 'C', 'C', 'C', 'C', 'C', 'C', 'C', 'C', 'C', 'C', 'C', 'C', 'C']","[1517.0552960750192, 1517.4483944000337, 1517.8374909795268, 1518.2224909636006, 1518.640263357113, 1519.0170605945743, 1519.4061377086034, 1519.819837927006, 1520.1884196768237, 1520.6021018454321, 1520.9625130551328, 1521.359790084434, 1521.7857255857955, 1522.1584683440235, 1522.555716352087, 1522.9612152395473, 1523.3912597234419, 1523.7885519711967, 1524.2349768201714, 1524.5830886878402]","[1517.1084672291831, 1517.4811703486478, 1517.907117883205, 1518.2961985364095, 1518.7057887105263, 1519.0908131149097, 1519.4880469662721, 1519.897620506265, 1520.270331411915, 1520.6594042789338, 1521.0485206778087, 1521.429397522648, 1521.8635488655705, 1522.2321610522959, 1522.621260817047, 1523.0267292675994, 1523.4772574364267, 1523.8540497190427, 1524.3004752758522, 1524.6608999344191]","[1515.4579416793458, 1515.8551769463784, 1516.2565778227488, 1516.6579333976756, 1517.0552447569771, 1517.4565879447903, 1517.8579587381707, 1518.255243907575, 1518.6648446992178, 1519.0457452565317, 1519.4307480719458, 1519.8484709170039, 1520.2129900474852, 1520.6307489921314, 1520.9911757742034, 1521.3843431131365, 1521.8144003380621, 1522.1871059349492, 1522.5802838914083, 1522.985755173301, 1523.4158131060617, 1523.817187792535, 1524.2595252479457, 1524.6076856023162]",7,R,ITM,1.05
4,600,trial,0,10,10,10,"['S', 'S', 'S', 'S', 'C', 'C', 'C', 'C', 'C', 'C', 'C', 'C', 'C', 'C', 'C', 'C', 'C', 'C', 'C', 'C']","[1532.5696819378543, 1533.2004716305016, 1533.802523573562, 1534.408640967299, 1534.998415157297, 1535.6004872736564, 1536.1861740700906, 1536.7882511412956, 1537.3493725219137, 1537.9227603302334, 1538.4797472462562, 1539.098228395016, 1539.7002679509626, 1540.2573051232748, 1540.8143143361021, 1541.395886133405, 1541.969305440385, 1542.5222177038752, 1543.1447328046513, 1543.7550310261804]","[1532.643445429633, 1533.2823150595095, 1533.8598171591252, 1534.4823577419636, 1535.0721492739206, 1535.6782910879672, 1536.2598919065076, 1536.866046815503, 1537.4353589095376, 1538.0046472910976, 1538.578078985191, 1539.176021237883, 1539.7781025560985, 1540.3351022131526, 1540.8962264251109, 1541.4819149911325, 1542.0593894851809, 1542.624600382868, 1543.2348724144997, 1543.8369222340548]","[1530.2187709364339, 1530.8208257108345, 1531.4187930916714, 1532.02088254999, 1532.6229359087204, 1533.2208976268769, 1533.822941429834, 1534.420940309331, 1535.0270966339965, 1535.62505304339, 1536.210738424154, 1536.8169184612939, 1537.3780168372725, 1537.9513982750768, 1538.5043208021752, 1539.122786024646, 1539.7248315971908, 1540.2859667805926, 1540.842954758368, 1541.4204444708703, 1541.9938860746547, 1542.5467565758763, 1543.1693237025295, 1543.7795624659134]",7,R,ITM,1.05
2,600,trial,0,11,11,11,"['S', 'S', 'S', 'S', 'C', 'C', 'C', 'C', 'C', 'C', 'C', 'C', 'C', 'C', 'C', 'C', 'C', 'C', 'C', 'C']","[1551.7948803705658, 1552.3641553032596, 1552.9334344829635, 1553.5355126159213, 1554.145801281677, 1554.7519257537647, 1555.3581128692554, 1555.9437763071326, 1556.5254036694878, 1557.1234067959952, 1557.7049230282457, 1558.282420880851, 1558.8476586762706, 1559.4251204292877, 1560.0271844055442, 1560.6251521402985, 1561.1780757291497, 1561.7596326619164, 1562.3535314068185, 1562.9719644227941]","[1551.864471882491, 1552.4501363821205, 1553.0235330383784, 1553.6174498330747, 1554.2154472969019, 1554.8338353653508, 1555.4359053582052, 1556.021577290103, 1556.6113978432973, 1557.1847445971835, 1557.7745456849136, 1558.3602112462959, 1558.9336079025538, 1559.507036765307, 1560.1049924668653, 1560.6988529886744, 1561.2599910034164, 1561.8456622274791, 1562.435421199023, 1563.0497799163834]","[1549.3948130554516, 1549.992724163401, 1550.5948005267708, 1551.1927679076077, 1551.7948389622147, 1552.3928017421238, 1552.9948706732255, 1553.5928507950935, 1554.1744540910565, 1554.7805905963405, 1555.3826588196073, 1555.9683944566605, 1556.5499280308702, 1557.147908152738, 1557.7336236164922, 1558.3110567021893, 1558.8762930819387, 1559.4538050912452, 1560.0517508831126, 1560.653798225245, 1561.2026085845528, 1561.7883516538743, 1562.3821781996003, 1563.0006331584627]",7,R,ITM,1.05
5,600,trial,0,12,12,12,"['C', 'C', 'C', 'C', 'C', 'C', 'C', 'C', 'C', 'C', 'C', 'C', 'C', 'C', 'C', 'C']","[1573.1456675008503, 1573.7149519893173, 1574.2596799099067, 1574.8535797165616, 1575.4474611195049, 1576.0044958143944, 1576.5819600448342, 1577.1962833704415, 1577.7737837004697, 1578.3144097168765, 1578.9164768783908, 1579.4857836636622, 1580.0427882755616, 1580.6080228857231, 1581.1977839807723, 1581.7589018222152]","[1573.2029957703317, 1573.7886730109924, 1574.3415994311838, 1574.931389901388, 1575.5334581246548, 1576.0904917577916, 1576.6761169725753, 1577.2782000603784, 1577.8434038797147, 1578.4127226981823, 1578.9942845857943, 1579.571790578503, 1580.1329094816983, 1580.6817159479133, 1581.2837898338605, 1581.848992945362]","[1568.3783314699576, 1568.9762910646086, 1569.5783164638542, 1570.1762778280931, 1570.7783527757929, 1571.3804404645239, 1571.9784092610307, 1572.5763692095995, 1573.1702491968726, 1573.7436196632334, 1574.2842516962382, 1574.8781309756764, 1575.472010609032, 1576.0290219453643, 1576.6065169666294, 1577.2208678978043, 1577.7983565485538, 1578.3389836267133, 1578.94104901864, 1579.5144414278873, 1580.0714577190652, 1580.6325578646315, 1581.2223486887533, 1581.7834414020513]",7,R,ITM,1.05
7,600,trial,0,13,13,13,"['C', 'C', 'C', 'C', 'C', 'C', 'C', 'C', 'C', 'C', 'C', 'C', 'C', 'C', 'C', 'C']","[1592.1660786326893, 1592.8172929060415, 1593.4070798370706, 1593.9640564894848, 1594.545627578953, 1595.1190437006749, 1595.696514655548, 1596.2740355127928, 1596.8720340383725, 1597.4535810614482, 1598.0679086340658, 1598.6577061826208, 1599.2433982878179, 1599.8208628721752, 1600.3819991173298, 1600.9389878029401]","[1592.2520720986638, 1592.8745670261408, 1593.4807371535899, 1594.045937433751, 1594.6357165785944, 1595.2132140772821, 1595.7866054247772, 1596.3764433199306, 1596.9538916240815, 1597.5436739541826, 1598.1375436778474, 1598.7232325977866, 1599.3334702994177, 1599.9109883253225, 1600.480271752037, 1601.0331864929499]","[1587.4109754073324, 1588.0130609725584, 1588.611008180096, 1589.2131248900644, 1589.8110122855392, 1590.4130936037545, 1591.011084697066, 1591.613108326724, 1592.1946864945423, 1592.8459085540806, 1593.4356834519133, 1593.992696203916, 1594.5743055164771, 1595.1435846961813, 1595.7251572013192, 1596.2985761543816, 1596.900651455999, 1597.4822657234056, 1598.0965798471573, 1598.6878500465577, 1599.2679927248712, 1599.8495524889781, 1600.4106498032043, 1600.9676749423204]",7,R,ITM,1.05
7,600,trial,0,14,14,14,"['S', 'S', 'S', 'S', 'S', 'S', 'C', 'C', 'C', 'C', 'C', 'C', 'C', 'C', 'C', 'C', 'C', 'C', 'C', 'C', 'C', 'C']","[1607.5002978216023, 1608.0614312354164, 1608.6921391731141, 1609.2819225649678, 1609.8512389060127, 1610.4328092876453, 1611.0512660160955, 1611.628736617051, 1612.2062224364604, 1612.7796537766362, 1613.3571102208905, 1613.9550963593565, 1614.5161961510053, 1615.0773270873967, 1615.6261402780447, 1616.232301911473, 1616.8179848148145, 1617.3954872683478, 1617.9606811779934, 1618.4890110376261, 1619.0746939409673, 1619.6440014340737]","[1607.5862905797417, 1608.0615122825309, 1608.7699302463939, 1609.3433491994563, 1609.9249156879962, 1610.5270008993045, 1611.1536147190054, 1611.7065581272384, 1612.2881561144386, 1612.8492597991801, 1613.434913681284, 1614.0369829663032, 1614.5940077515017, 1615.175582380145, 1615.7080244075687, 1616.3305706530875, 1616.9121757186383, 1617.4774000651917, 1618.0630454532745, 1618.6078179674728, 1619.1811725075447, 1619.750489202507]","[1606.3576244630628, 1606.9555568060641, 1607.5535351583444, 1608.1555909944977, 1608.757660987352, 1609.3556322612817, 1609.9576852660946, 1610.5556544165192, 1611.0799089157842, 1611.6533023867844, 1612.234899312232, 1612.8082910136445, 1613.3816742210363, 1613.9837594323446, 1614.5448567465705, 1615.1018723299135, 1615.6507110026237, 1616.2609483503372, 1616.8425520002181, 1617.42003888138, 1617.9893265551048, 1618.5176978230886, 1619.0992561715254, 1619.6726666305672]",7,R,ITM,1.05
7,400,trial,0,15,15,15,"['S', 'S', 'S', 'S', 'C', 'C', 'C', 'C', 'C', 'C', 'C', 'C', 'C', 'C', 'C', 'C', 'C', 'C', 'C', 'C']","[1626.9015684563215, 1627.2824516716764, 1627.6920315821849, 1628.0647375329895, 1628.4824929384604, 1628.8675035400602, 1629.2647795076086, 1629.6743502162612, 1630.0593257800253, 1630.4443455834808, 1630.82524967997, 1631.2430093324513, 1631.6525637608975, 1632.0007050037214, 1632.3815846799012, 1632.7993457480525, 1633.1843411311984, 1633.5898233845346, 1633.933840780289, 1634.3352508585153]","[1626.9875481195122, 1627.3561751707741, 1627.7657342001482, 1628.1507798395833, 1628.5562348412698, 1628.9452953211749, 1629.3507786362638, 1629.7357634018836, 1630.1330528182984, 1630.5262290051696, 1630.9153291238383, 1631.3453905957742, 1631.730381377992, 1632.0294038223801, 1632.4634942914872, 1632.873085173439, 1633.2580444569967, 1633.6676671915263, 1634.0403278408871, 1634.429429375226]","[1625.3493208499542, 1625.7506781944685, 1626.1520394320755, 1626.549329202408, 1626.9507368032116, 1627.3520757440142, 1627.7493580820785, 1628.1507267519537, 1628.5111648593868, 1628.896164489543, 1629.2893435077544, 1629.7030101039916, 1630.0880221212612, 1630.4729955615203, 1630.849769086507, 1631.2716978875017, 1631.6812176320298, 1632.0293468416576, 1632.4061769934494, 1632.8280201464015, 1633.2089107940246, 1633.6185009681415, 1633.9625116394627, 1634.3597957471145]",7,R,ITM,1.05
5,600,trial,0,16,16,16,"['S', 'S', 'S', 'S', 'C', 'C', 'C', 'C', 'C', 'C', 'C', 'C', 'C', 'C', 'C', 'C', 'C', 'C', 'C', 'C']","[1642.4569974273734, 1642.9894114953122, 1643.5873774604788, 1644.1977075345858, 1644.7915864601061, 1645.3239690293847, 1645.909657949324, 1646.4953171401905, 1647.0891882795254, 1647.678971671379, 1648.2810498043366, 1648.8380671572672, 1649.362307499831, 1649.9316323348967, 1650.496819520109, 1651.0661447090922, 1651.6190576804174, 1652.2047285505625, 1652.8231700605588, 1653.3679174466124]","[1642.5225075623327, 1643.0713313705066, 1643.6693681191796, 1644.2795796309135, 1644.8734383831347, 1645.4017802759636, 1645.9383213762296, 1646.5690579812474, 1647.150637564736, 1647.7404283888577, 1648.3711490675867, 1648.9199753531832, 1649.4523911907095, 1650.0012376496054, 1650.586924799957, 1651.1439389676295, 1651.7173175740936, 1652.2620900882919, 1652.896886481306, 1653.4456947171084]","[1640.0692124662496, 1640.6671805549215, 1641.2692501938584, 1641.8671931543856, 1642.4692486366212, 1643.0672234497263, 1643.6692955660858, 1644.2672661321803, 1644.8160715366428, 1645.3526352876306, 1645.9382930628271, 1646.5199027293058, 1647.1137696216304, 1647.7035512438963, 1648.3056169897402, 1648.8667075795333, 1649.3909737580768, 1649.9561818244235, 1650.521386351595, 1651.094783007853, 1651.6436114169549, 1652.2333693267462, 1652.8518426893202, 1653.3965493748578]",7,R,ITM,1.05
4,400,trial,0,17,17,17,"['S', 'S', 'S', 'S', 'C', 'C', 'C', 'C', 'C', 'C', 'C', 'C', 'C', 'C', 'C', 'C', 'C', 'C', 'C', 'C']","[1660.7196456436113, 1661.1087432848572, 1661.5101335437018, 1661.8869123774516, 1662.312854603246, 1662.6855789577623, 1663.0910449308924, 1663.4842458919907, 1663.9101863481976, 1664.2788226013151, 1664.6801887937677, 1665.0897308351002, 1665.4829314422811, 1665.8556756161793, 1666.236534057307, 1666.63790449677, 1666.9860627276353, 1667.3710598803689, 1667.7806337742793, 1668.1655990744348]","[1660.7851809067154, 1661.1784653923512, 1661.579725763462, 1661.956547421233, 1662.390671866423, 1662.767493524194, 1663.1688696263375, 1663.5620504141366, 1663.9798086509477, 1664.3566207529454, 1664.7252233838976, 1665.1634628282186, 1665.5689302170188, 1665.9416414765865, 1666.3266329666394, 1666.728022517649, 1667.0884454066281, 1667.3956751985565, 1667.805220425147, 1668.227032079439]","[1659.151022273092, 1659.5524709283293, 1659.9537567815023, 1660.3510486753398, 1660.75247538769, 1661.1537853072552, 1661.5551872453784, 1661.9524748922056, 1662.3374288670002, 1662.7101383569802, 1663.1197150822309, 1663.5088261723429, 1663.9347563649414, 1664.3033894328012, 1664.704749254738, 1665.1143001440091, 1665.5075216323244, 1665.880209533335, 1666.2652109330788, 1666.662472036091, 1667.0147112900047, 1667.3956320206178, 1667.8051949430846, 1668.1901641363334]",7,R,ITM,1.05
3,400,trial,0,18,18,18,"['S', 'S', 'S', 'S', 'S', 'S', 'C', 'C', 'C', 'C', 'C', 'C', 'C', 'C', 'C', 'C', 'C', 'C', 'C', 'C', 'C', 'C']","[1680.772135860446, 1681.1735048842388, 1681.566714339358, 1681.9844849632827, 1682.41042825083, 1682.8199603824717, 1683.2172611242474, 1683.6186425351536, 1684.0077214187704, 1684.4172999136088, 1684.830966509846, 1685.2282378764664, 1685.6664985558396, 1686.0514882763048, 1686.4610604006275, 1686.8502281175445, 1687.2556165827352, 1687.66925911258, 1688.0624820165654, 1688.4843156137442, 1688.8857189675375, 1689.2829857332304]","[1680.8499492305302, 1681.2472301529242, 1681.6485867896035, 1682.074571131584, 1682.4800381664666, 1682.8855197119678, 1683.2868784721522, 1683.684219914444, 1684.0814417326103, 1684.4869165536784, 1684.9046666503864, 1685.3142490383175, 1685.7320023202833, 1686.1415786916164, 1686.5388631531857, 1686.9361900848587, 1687.3170598513475, 1687.7061709414595, 1688.1279726860607, 1688.5375550739918, 1688.96351110257, 1689.3566918903691]","[1680.0308679792051, 1680.4280905052067, 1680.829478640546, 1681.2308345693903, 1681.6281197387948, 1682.029517783825, 1682.4308751283393, 1682.8322445060496, 1683.2418088441868, 1683.6432097205573, 1684.0322868345863, 1684.4459750197927, 1684.855509982775, 1685.2569016572895, 1685.69106043248, 1686.0760508607805, 1686.4856120136599, 1686.8788133286757, 1687.2801912004068, 1687.6938199274682, 1688.0870442471237, 1688.5088746590447, 1688.9102875686112, 1689.3075479637885]",7,R,ITM,1.05
6,600,trial,0,19,19,19,"['S', 'S', 'S', 'S', 'S', 'S', 'S', 'C', 'C', 'C', 'C', 'C', 'C', 'C', 'C', 'C', 'C', 'C', 'C', 'C', 'C', 'C', 'C']","[1694.9186410840919, 1695.7459813549167, 1696.3808131396838, 1697.027894364111, 1697.6422615754923, 1698.2157838724736, 1698.7808719607774, 1699.391130543543, 1700.02595949697, 1700.6321197147283, 1701.217824207039, 1701.766638813357, 1702.376891733442, 1702.9461992265485, 1703.5523530737914, 1704.146213949518, 1704.6991601890911, 1705.3012015146255, 1705.8991855295862, 1706.4480082760076, 1707.0418680899813, 1707.6152608531465, 1708.1641133286405]","[1695.0169257519951, 1695.8934106572356, 1696.4913780380723, 1697.1303035869187, 1697.7200859170198, 1698.3221782066787, 1698.8791718471346, 1699.489432907323, 1700.1242392100278, 1700.7550533229848, 1701.3365907902871, 1701.889486065736, 1702.4956395590611, 1703.0731391812542, 1703.6465655665847, 1704.2445435649477, 1704.8015467611767, 1705.4158870748256, 1706.0138470233942, 1706.562680033424, 1707.1565522345113, 1707.7381463286188, 1708.2787702215205]","[1694.61558858078, 1695.217618934871, 1695.815603657667, 1696.417648168459, 1697.0156293520797, 1697.6177042997795, 1698.215696808761, 1698.817726455017, 1699.4198021105517, 1700.0546080593392, 1700.6566791139462, 1701.24646392147, 1701.7953114421184, 1702.4055335713783, 1702.9748449575777, 1703.581038443584, 1704.170786089767, 1704.7278034426975, 1705.3257690539465, 1705.9278358615431, 1706.472631380381, 1707.0705520441038, 1707.6439918783005, 1708.1927371167826]",7,R,ITM,1.05
2,600,trial,0,20,20,20,"['S', 'S', 'S', 'S', 'C', 'C', 'C', 'C', 'C', 'C', 'C', 'C', 'C', 'C', 'C', 'C', 'C', 'C', 'C', 'C']","[1716.1998413033791, 1716.7527535668694, 1717.387595615245, 1717.9937413223845, 1718.5630590790995, 1719.1364369777284, 1719.7344170995964, 1720.3200957559272, 1720.9467371811954, 1721.5283411849937, 1722.1140177178195, 1722.687444810985, 1723.2526171316613, 1723.8341967151498, 1724.4362617531588, 1725.021950673098, 1725.6199208852752, 1726.1933324060694, 1726.7462361755388, 1727.3155150013254]","[1716.2776500725354, 1716.851049206216, 1717.461277352074, 1718.0674878261218, 1718.6654077820094, 1719.2388985803307, 1719.8204010097975, 1720.414285244081, 1721.0204387374063, 1721.6143392518961, 1722.2000122455465, 1722.765211463955, 1723.322245097092, 1723.91199345111, 1724.5181741960853, 1725.1038546220036, 1725.7182147550343, 1726.291598670261, 1726.844544201999, 1727.3974394774477]","[1713.8202605045378, 1714.4181992180545, 1715.0162104846652, 1715.6182394230862, 1716.2203023375898, 1716.8182693645092, 1717.4162346218409, 1718.0183092156233, 1718.591697731778, 1719.1650940341183, 1719.7630872509349, 1720.3487641376782, 1720.9753906984101, 1721.5570077971572, 1722.142662387096, 1722.7119766046355, 1723.2771892719102, 1723.8587561143677, 1724.4608321238202, 1725.0506194087666, 1725.644495502947, 1726.2178691545653, 1726.7748911084236, 1727.3400981130178]",7,R,ITM,1.05
5,400,trial,0,21,21,21,"['S', 'S', 'S', 'S', 'C', 'C', 'C', 'C', 'C', 'C', 'C', 'C', 'C', 'C', 'C', 'C', 'C', 'C', 'C', 'C']","[1734.6795931505633, 1735.1179072714833, 1735.4987504941573, 1735.9247256342821, 1736.32603944694, 1736.7151208079795, 1737.1042212805658, 1737.5097254767888, 1737.9233747310668, 1738.3001496717238, 1738.7138198071361, 1739.1111534632423, 1739.5411905148685, 1739.9056990278239, 1740.3029555299083, 1740.7125294238188, 1741.1138998632816, 1741.5317278218465, 1741.9084638315749, 1742.3344095965447]","[1734.7819726442983, 1735.1915543243945, 1735.5929403362288, 1735.941038401114, 1736.4079317165672, 1736.8216103460004, 1737.1861305382342, 1737.5752437518515, 1738.0093589951857, 1738.3984523894212, 1738.8080110648777, 1739.213481285018, 1739.6271850425958, 1740.0121659151228, 1740.4094528541148, 1740.8108109064642, 1741.2203883395498, 1741.6299459532538, 1742.0149576166061, 1742.424502489279]","[1733.1150603588653, 1733.5164184112145, 1733.9136756211342, 1734.3150559702879, 1734.7164232244932, 1735.1178364879772, 1735.5150940518142, 1735.9164712157103, 1736.35062291255, 1736.7438022846793, 1737.1328815222134, 1737.5383729774055, 1737.9520229395187, 1738.3247295981585, 1738.7383799141892, 1739.1357153398828, 1739.5657870754274, 1739.9302456860107, 1740.3275230692295, 1740.7371015640676, 1741.1384617399224, 1741.5562458127133, 1741.9330349100712, 1742.3589781976184]",7,R,ITM,1.05
3,400,trial,0,22,22,22,"['S', 'S', 'S', 'S', 'C', 'C', 'C', 'C', 'C', 'C', 'C', 'C', 'C', 'C', 'C', 'C', 'C', 'C', 'C', 'C']","[1749.6083714944912, 1750.030193766309, 1750.3947497042134, 1750.8124874138077, 1751.2057124412984, 1751.5906968530007, 1751.9797658269265, 1752.3852551586135, 1752.798898750211, 1753.1757122678787, 1753.618038044011, 1754.011227325831, 1754.4208107755146, 1754.8221592720906, 1755.2194394866497, 1755.6085505767617, 1756.005805663176, 1756.4481363941536, 1756.8126700352536, 1757.222242513494]","[1749.702607699759, 1750.1244069669374, 1750.5135053160184, 1750.918947930591, 1751.3121648179786, 1751.7012387467498, 1752.0985777116189, 1752.4958168717442, 1752.8889969517084, 1753.2862792897724, 1753.7040407118413, 1754.1218049652507, 1754.5313643485422, 1754.9204389851486, 1755.3300217269973, 1755.7191221995834, 1756.1164045376474, 1756.5341825938403, 1756.9273435622579, 1757.3205261196447]","[1748.0274321478157, 1748.4288043568663, 1748.826103682972, 1749.227463504909, 1749.6288374835472, 1750.0261017718174, 1750.4274697338576, 1750.8288468977537, 1751.2302431731962, 1751.615249173868, 1752.0043107155257, 1752.4098177430892, 1752.823463458192, 1753.200286531633, 1753.6425939040537, 1754.039876949953, 1754.4453708825677, 1754.8467593718246, 1755.2480940656171, 1755.6330929879382, 1756.0303760338375, 1756.4727212754337, 1756.83723828241, 1757.2468281026092]",7,R,ITM,1.05
3,600,trial,0,23,23,23,"['S', 'S', 'S', 'S', 'C', 'C', 'C', 'C', 'C', 'C', 'C', 'C', 'C', 'C', 'C', 'C', 'C', 'C', 'C', 'C']","[1765.2375073305168, 1765.8641434470223, 1766.4498539559308, 1767.0806103803304, 1767.649861954467, 1768.2150572797827, 1768.8130370477331, 1769.4068993391297, 1769.9803151069343, 1770.5537046848417, 1771.1516812675345, 1771.7374108879897, 1772.3394249618743, 1772.9374004828144, 1773.4944231445077, 1774.0555048863623, 1774.6493795648726, 1775.2145809067863, 1775.828945286827, 1776.3900602969297]","[1765.3685629921888, 1765.9665268338501, 1766.548097215483, 1767.154293178912, 1767.7358458646684, 1768.3174516380543, 1768.8867644399238, 1769.4314937761833, 1770.0540141857225, 1770.623314954396, 1771.2089996273248, 1771.806965946409, 1772.4049375742563, 1773.0111154878912, 1773.5968012225728, 1774.1210281162705, 1774.7354031138373, 1775.2924027708912, 1775.890387493687, 1776.4555909591058]","[1762.8784119861957, 1763.4804727771943, 1764.0784744880318, 1764.6805005951123, 1765.2784534653304, 1765.8805011613804, 1766.482579294338, 1767.0805597701235, 1767.6744425887368, 1768.2396265886916, 1768.8376286534465, 1769.431467586286, 1770.0048752139874, 1770.5782750555031, 1771.1762335884016, 1771.7619235700936, 1772.3639889620201, 1772.961955635022, 1773.5230614432687, 1774.084181054299, 1774.6739396719256, 1775.2391452608497, 1775.8535078713028, 1776.4146012924361]",7,R,ITM,1.05
3,600,trial,0,24,24,24,"['S', 'S', 'S', 'S', 'C', 'C', 'C', 'C', 'C', 'C', 'C', 'C', 'C', 'C', 'C', 'C', 'C', 'C', 'C', 'C']","[1784.2128332620189, 1784.827176407008, 1785.4046685969329, 1785.9985390284326, 1786.5801302911998, 1787.116656173012, 1787.7023404920233, 1788.3044476462185, 1788.861464999149, 1789.4757925717665, 1790.0737581830158, 1790.6553328116588, 1791.212363967373, 1791.7898550955454, 1792.4082994368819, 1792.9735273226104, 1793.5142043031417, 1794.0957615898258, 1794.677295517953, 1795.2793750665808]","[1784.3192941327197, 1784.9377409514789, 1785.5111308833038, 1786.1091212687802, 1786.6825207563784, 1787.2272511543906, 1787.8252450790421, 1788.4067896246952, 1788.9719955675369, 1789.5617775437204, 1790.167937407561, 1790.7331302554542, 1791.3024497817566, 1791.8881280841701, 1792.5065692402488, 1793.0676987609702, 1793.6247189452408, 1794.1939952936048, 1794.7756003591555, 1795.3489878135576]","[1781.8373465811744, 1782.435295912217, 1783.0373513944528, 1783.6353293928155, 1784.237387352474, 1784.8394605305862, 1785.4374250800827, 1786.039488348504, 1786.6047126950573, 1787.141258396251, 1787.7310032110938, 1788.333083113639, 1788.8900693218268, 1789.5003360446956, 1790.098328553677, 1790.6799038901554, 1791.2369177039104, 1791.818491978636, 1792.432860959605, 1792.9980626554361, 1793.5387389281325, 1794.1202884286308, 1794.7018598720163, 1795.3039394206442]",7,R,ITM,1.05
2,400,trial,0,25,25,25,"['S', 'S', 'S', 'S', 'C', 'C', 'C', 'C', 'C', 'C', 'C', 'C', 'C', 'C', 'C', 'C', 'C', 'C', 'C', 'C']","[1802.381318533918, 1802.811320193791, 1803.2168169577462, 1803.609998099463, 1804.0482336506911, 1804.4332608864147, 1804.8141210971303, 1805.2032590849744, 1805.6168701161594, 1806.0305515769326, 1806.4155469600785, 1806.8005430510593, 1807.2387846188856, 1807.6074123779824, 1808.0087467178573, 1808.4224632164662, 1808.8360919435274, 1809.229276270502, 1809.655236900008, 1810.08117806405]","[1802.4836948423952, 1802.9055241925637, 1803.3232856146326, 1803.7082831212836, 1804.1342479978, 1804.5233159099732, 1804.9124323088483, 1805.2892355629076, 1805.7069693794092, 1806.112463312024, 1806.513829150559, 1806.9029278535575, 1807.3206991853172, 1807.7097798385216, 1808.1152419185587, 1808.5248179359742, 1808.9343985543176, 1809.3234983190687, 1809.7576241799288, 1810.1548994396423]","[1800.8331583211143, 1801.2345046941853, 1801.6358832737512, 1802.033182599857, 1802.4345194171544, 1802.835891626205, 1803.2372804693796, 1803.6345652848665, 1804.0728004821772, 1804.461880781464, 1804.8428029277475, 1805.231880395694, 1805.645546991931, 1806.0551024821298, 1806.4442068478088, 1806.825098911102, 1807.2633854264548, 1807.6360687265376, 1808.037421470124, 1808.4510855889382, 1808.860657005426, 1809.2579588089543, 1809.6797973609785, 1810.109848569306]",7,R,ITM,1.05
4,600,trial,0,26,26,26,"['S', 'S', 'S', 'S', 'C', 'C', 'C', 'C', 'C', 'C', 'C', 'C', 'C', 'C', 'C', 'C', 'C', 'C', 'C', 'C']","[1818.043202005155, 1818.6699361568167, 1819.21456604225, 1819.8575867708457, 1820.4514759599747, 1821.004388223465, 1821.594153211607, 1822.1962246201315, 1822.8064860342372, 1823.3757906960036, 1823.9860556492847, 1824.5594321322435, 1825.112359968105, 1825.7021419442883, 1826.2960017582623, 1826.8817221768618, 1827.475568895887, 1828.0325759852092, 1828.6387415117304, 1829.2409201572668]","[1818.1496780943098, 1818.7640449517735, 1819.3292402770892, 1819.9435993483671, 1820.5538289098952, 1821.1067542683338, 1821.708838063972, 1822.3109236291978, 1822.9089168460143, 1823.4822508588693, 1824.0843396093528, 1824.6823048666845, 1825.243406427921, 1825.8290755284786, 1826.414778605119, 1826.996357126855, 1827.5820605574131, 1828.1513740671176, 1828.7411256063936, 1829.3391411200146]","[1815.6717981169463, 1816.2698015973715, 1816.8677583606823, 1817.4698216291035, 1818.0719018855664, 1818.6698933327955, 1819.2719891616296, 1819.8698606308155, 1820.4801213370863, 1821.0289352355692, 1821.6187122569074, 1822.22492343879, 1822.8351512307306, 1823.4044442132183, 1824.0106104475747, 1824.5840117047605, 1825.1369544051583, 1825.7307784734617, 1826.3205760220164, 1826.9063151982452, 1827.5001357273732, 1828.0571566194787, 1828.6633235616703, 1829.2694922734495]",7,R,ITM,1.05
6,400,trial,0,27,27,27,"['S', 'S', 'S', 'S', 'C', 'C', 'C', 'C', 'C', 'C', 'C', 'C', 'C', 'C', 'C', 'C', 'C', 'C', 'C', 'C']","[1836.2608000588918, 1836.674478688325, 1837.071804912163, 1837.4690660151753, 1837.895001870454, 1838.2635928221277, 1838.6772817151693, 1839.0540637341767, 1839.4759366162016, 1839.856843544031, 1840.2582065512258, 1840.6472783564918, 1841.0610160901526, 1841.4377457293656, 1841.8350447015537, 1842.2323380110613, 1842.6296118551047, 1843.0309840641553, 1843.3995927117055, 1843.8378480823155]","[1836.3550125516851, 1836.7686897654482, 1837.1618659523194, 1837.5755137909275, 1837.9768824608027, 1838.3701007638601, 1838.771456338787, 1839.1482652555267, 1839.5619477780526, 1839.955124672759, 1840.348354655095, 1840.7578952807576, 1841.1592451930037, 1841.5401358406266, 1841.9251393638758, 1842.3428908762537, 1842.7360975000327, 1843.112887305226, 1843.506095344675, 1843.9279402672148]","[1834.7044763843219, 1835.1058425767744, 1835.5031277461787, 1835.9044907533737, 1836.3058491596405, 1836.7031545023442, 1837.1045199869616, 1837.5058975047752, 1837.919561977507, 1838.2922725292399, 1838.7018765061403, 1839.0786316274155, 1839.500494953667, 1839.8814018814965, 1840.2827769218873, 1840.6759509852534, 1841.085533019267, 1841.466429683488, 1841.8637410427898, 1842.261030813122, 1842.6582621870616, 1843.0596432440504, 1843.4241701607175, 1843.8665118631386]",7,R,ITM,1.05
5,400,trial,0,28,28,28,"['S', 'S', 'S', 'S', 'S', 'C', 'C', 'C', 'C', 'C', 'C', 'C', 'C', 'C', 'C', 'C', 'C', 'C', 'C', 'C', 'C']","[1850.6407775992855, 1851.0626773790425, 1851.4926694831424, 1851.8899581917221, 1852.2790423841018, 1852.6886491923426, 1853.0572206785519, 1853.4422224322134, 1853.8395589196596, 1854.257271147192, 1854.6259042150516, 1855.0026802174611, 1855.38768232504, 1855.7767477597904, 1856.1699511983118, 1856.563146142812, 1856.931735324898, 1857.312631281284, 1857.714029680232, 1858.0908853140859, 1858.4758293791897]","[1850.7308676606795, 1851.1690950718046, 1851.574659434008, 1851.9841515729688, 1852.3610659571327, 1852.7582470747832, 1853.143243165764, 1853.5282343018994, 1853.9050248149276, 1854.3310020785577, 1854.7036740532794, 1855.0886697903427, 1855.469641131163, 1855.8750554323333, 1856.2600543546544, 1856.661421962777, 1857.034123312654, 1857.4109439086724, 1857.7959350448077, 1858.1809279505308, 1858.5700425798182]","[1849.5595347683275, 1849.9608807874806, 1850.3581928546173, 1850.7595463060388, 1851.1609266551927, 1851.5582100550093, 1851.9595730622043, 1852.3609817247604, 1852.7172683795568, 1853.0817991893166, 1853.4667885558642, 1853.8640804497018, 1854.2859374054376, 1854.6504402557125, 1855.0313553236451, 1855.416323455141, 1855.8013163608641, 1856.1945219228905, 1856.5877172213086, 1856.9563078190647, 1857.3413134658188, 1857.7386042979037, 1858.119487867176, 1858.5004047046966]",7,R,ITM,1.05
2,400,trial,0,29,29,29,"['S', 'S', 'S', 'S', 'S', 'S', 'C', 'C', 'C', 'C', 'C', 'C', 'C', 'C', 'C', 'C', 'C', 'C', 'C', 'C', 'C', 'C']","[1864.8773764235004, 1865.2951512944358, 1865.7006091274623, 1866.1019976167192, 1866.4870075104839, 1866.9047607924497, 1867.3470968321903, 1867.7238887608887, 1868.1252737109703, 1868.5430284086062, 1868.923920825817, 1869.3007272651341, 1869.7143715645668, 1870.1199115064605, 1870.5130678739501, 1870.9185076571828, 1871.270737355323, 1871.6721286759202, 1872.0857828850437, 1872.4953723513254, 1872.8967442064586, 1873.3022158422689]","[1864.9592906360147, 1865.3852417097473, 1865.7907087446297, 1866.1756966955074, 1866.5729836344995, 1866.9785175597954, 1867.412610506325, 1867.809898153152, 1868.190785969435, 1868.6126507113565, 1868.9976499875952, 1869.3745105762946, 1869.7881085125307, 1870.189482491169, 1870.58265726237, 1870.9922279710227, 1871.3772307864367, 1871.7663475392292, 1872.171802186998, 1872.577264267035, 1872.9909170604883, 1873.3882086004085]","[1864.1402037220091, 1864.5374506683202, 1864.9388207538657, 1865.340190839411, 1865.74157331207, 1866.138825567144, 1866.5402282131022, 1866.9416174101943, 1867.3757450406422, 1867.7525624514028, 1868.1539113018962, 1868.571675909223, 1868.9485007522517, 1869.3253238256927, 1869.738940519558, 1870.1444854162974, 1870.5417093579688, 1870.9430755504213, 1871.2994648413016, 1871.7008034281869, 1872.1103606879733, 1872.5240064030759, 1872.9254770012, 1873.330868297731]",7,R,ITM,1.05
2,400,trial,0,30,30,30,"['S', 'S', 'S', 'S', 'S', 'C', 'C', 'C', 'C', 'C', 'C', 'C', 'C', 'C', 'C', 'C', 'C', 'C', 'C', 'C', 'C']","[1889.275389601266, 1889.6849585403309, 1890.057673339074, 1890.4713264864447, 1890.8645161221823, 1891.2823143516744, 1891.6754862915352, 1892.0604661023099, 1892.4536479518615, 1892.855030070603, 1893.2564295313034, 1893.6414305771298, 1894.0345798662688, 1894.4277691480886, 1894.8537184522338, 1895.2387371939365, 1895.6360089144748, 1896.0332816967655, 1896.3936914907963, 1896.7868662619974, 1897.2087295882488]","[1889.3696028018944, 1889.7586661131397, 1890.1437241396884, 1890.5532969718463, 1890.9464144084075, 1891.364177600064, 1891.7533099252278, 1892.1382734557958, 1892.5314524740074, 1892.936926941158, 1893.3506115871892, 1893.7437849427201, 1894.128780325866, 1894.5219727929436, 1894.9315374849982, 1895.3247695908394, 1895.717892690081, 1896.119267730472, 1896.4919998711741, 1896.872906445086, 1897.2865514523537]","[1888.1450180621812, 1888.5423216352972, 1888.9436609300174, 1889.345014381439, 1889.7422988430083, 1890.143690517523, 1890.5450591873982, 1890.942341171545, 1891.3109367241464, 1891.7041274216365, 1892.0891128950914, 1892.4782721179877, 1892.8795830993054, 1893.2809687572221, 1893.6659676795432, 1894.0632560342053, 1894.4564768146856, 1894.8823825869742, 1895.2673963738318, 1895.6646748188032, 1896.061944415836, 1896.4223793380115, 1896.811440171834, 1897.2374128345361]",7,R,ITM,1.05
7,400,trial,0,31,31,31,"['S', 'S', 'S', 'S', 'S', 'S', 'S', 'C', 'C', 'C', 'C', 'C', 'C', 'C', 'C', 'C', 'C', 'C', 'C', 'C', 'C', 'C', 'C']","[1902.869010874824, 1903.274472954861, 1903.6922067713626, 1904.0813029969383, 1904.4867912668726, 1904.8758708583243, 1905.3018237016447, 1905.7236799495456, 1906.0922864735905, 1906.4772907046745, 1906.8458791789255, 1907.2431760276083, 1907.6486561574395, 1908.0049693560507, 1908.3899739410522, 1908.7667559600598, 1909.1476862464463, 1909.5367633604753, 1909.913564137112, 1910.290347217872, 1910.7040290325629, 1911.0562643933836, 1911.4453358447322]","[1902.8690600693608, 1903.3686454549734, 1903.778220764554, 1904.1795777551506, 1904.5686732728914, 1904.9782616774205, 1905.305922774487, 1905.797390707612, 1906.186495073291, 1906.55919465358, 1906.9401387427504, 1907.3291730327583, 1907.7305562132524, 1908.1032671189025, 1908.4759659913566, 1908.881433734074, 1909.2501336923474, 1909.6432398035474, 1910.044609889093, 1910.405112055599, 1910.798248603707, 1911.1791491610209, 1911.5600458252418]","[1902.545452389775, 1902.942710661447, 1903.3440687137966, 1903.7413489283554, 1904.1427434342104, 1904.5441542202718, 1904.9413923186446, 1905.3427871784172, 1905.748221652887, 1906.1209714894655, 1906.5059265260127, 1906.8745514537693, 1907.2718412241015, 1907.6773206460978, 1908.0295503442378, 1908.4145467891362, 1908.7913277463913, 1909.1763295000526, 1909.565427495216, 1909.9422303953577, 1910.3149165267807, 1910.7285997571419, 1911.0849157870932, 1911.4740144900916]",7,R,ITM,1.05
7,400,trial,0,32,32,32,"['S', 'S', 'S', 'S', 'S', 'S', 'S', 'C', 'C', 'C', 'C', 'C', 'C', 'C', 'C', 'C', 'C', 'C', 'C', 'C', 'C', 'C', 'C']","[1917.1219737839128, 1917.5192603689873, 1917.9370320546648, 1918.313827876456, 1918.7274835012495, 1919.1370619960878, 1919.5343567212656, 1919.931618532113, 1920.316596219382, 1920.6975165960778, 1921.0948031811524, 1921.4715908628402, 1921.840218621937, 1922.2538940661125, 1922.6225147468588, 1923.027998415865, 1923.3883880365966, 1923.7569892518784, 1924.174745719102, 1924.5229074891427, 1924.9324477608877, 1925.3051533577748, 1925.6737899648099]","[1917.2530421866159, 1917.6625877671236, 1918.0680728518003, 1918.4776386056074, 1918.8503413711544, 1919.2394404280703, 1919.6367280748975, 1920.0299113401193, 1920.4231027454446, 1920.8162700843775, 1921.2094540574344, 1921.606758692303, 1921.975365924183, 1922.3685548520855, 1922.749434528265, 1923.1385410174491, 1923.5235165812132, 1923.8921404472173, 1924.2771319372703, 1924.6621290900036, 1925.0512058501151, 1925.4157398451327, 1925.8089804449946]","[1916.7820919145063, 1917.179306654322, 1917.580695143579, 1917.982064875207, 1918.3793461515186, 1918.780706327373, 1919.1821036645683, 1919.5793913113955, 1919.9602808972659, 1920.341178269322, 1920.7261669280347, 1921.1234549287794, 1921.5002702160348, 1921.8688583363682, 1922.27844780265, 1922.6470380464884, 1923.0566285745228, 1923.4170369528833, 1923.7856349829076, 1924.1993153819283, 1924.5474417602159, 1924.9570223785595, 1925.3297378851375, 1925.6983330838216]",7,R,ITM,1.05
2,600,trial,0,33,33,33,"['S', 'S', 'S', 'S', 'S', 'S', 'C', 'C', 'C', 'C', 'C', 'C', 'C', 'C', 'C', 'C', 'C', 'C', 'C', 'C', 'C', 'C']","[1932.3661390110199, 1932.9559068305023, 1933.578453076021, 1934.1764293047963, 1934.803068960477, 1935.3846428812851, 1935.9867167672323, 1936.52324901956, 1937.113059309146, 1937.702866413474, 1938.2925811453267, 1938.882343656046, 1939.4393910919666, 1939.9882110070475, 1940.573890725131, 1941.16774983127, 1941.7657702997362, 1942.3350293061412, 1944.161721553967, 1944.7146101049825, 1945.308499648029, 1945.8695994396778]","[1932.525901985371, 1933.1115261384023, 1933.7340798161895, 1934.307479657705, 1934.9095549593226, 1935.5115998240321, 1936.097283081291, 1936.6338613428975, 1937.2605063073413, 1937.8461478023314, 1938.435923761917, 1939.0175139629314, 1939.574542641223, 1940.1438342080405, 1940.700823601486, 1941.2988217731481, 1941.9090842490064, 1942.474278158652, 1944.280479997112, 1944.870263035048, 1945.4723103771805, 1946.0293305614512]","[1931.2275576469722, 1931.829625870239, 1932.4275490113844, 1933.0296115719707, 1933.627595940849, 1934.2296408055588, 1934.8317277864546, 1935.4296898585285, 1936.011286076141, 1936.551894042754, 1937.1416841590406, 1937.7273766181552, 1938.3171486846477, 1938.9069083640268, 1939.4680527492844, 1940.0128291565757, 1940.6025368100775, 1941.1964206904436, 1941.7943880712803, 1942.3637574999548, 1944.190367992831, 1944.743284149414, 1945.3330654177626, 1945.8982717145216]",7,R,ITM,1.05
4,400,trial,0,34,34,34,"['S', 'S', 'S', 'S', 'S', 'S', 'C', 'C', 'C', 'C', 'C', 'C', 'C', 'C', 'C', 'C', 'C', 'C', 'C', 'C', 'C', 'C']","[1952.2547827530325, 1952.6315753895658, 1953.01657962065, 1953.417940150422, 1953.823424881181, 1954.2617099808638, 1954.6630429050683, 1955.056228647713, 1955.43303508703, 1955.8303418454038, 1956.2071511160611, 1956.6126231057892, 1956.9689203781113, 1957.3744178499014, 1957.7593912901602, 1958.1689768633491, 1958.5662464603822, 1958.930746479317, 1959.307564243995, 1959.6966516216323, 1960.0939410380472, 1960.4584403491467]","[1952.353179612793, 1952.7339789496932, 1953.1394488159158, 1953.5531876113291, 1953.9381051326181, 1954.3722646156439, 1954.7941113077713, 1955.1586046022728, 1955.5436063559341, 1955.9327252322319, 1956.3095175148478, 1956.7067775561075, 1957.0794827990771, 1957.4767807095127, 1957.874053137886, 1958.2672381726954, 1958.6481316516588, 1959.041335798015, 1959.4222328161536, 1959.8072320923923, 1960.2208799310001, 1960.5854068476672]","[1951.5544560517596, 1951.9517482995147, 1952.3530773306265, 1952.7503402032264, 1953.151735062999, 1953.5531267375138, 1953.9544890368736, 1954.351786239474, 1954.6876136296473, 1955.0808036193023, 1955.457600502846, 1955.8589766049895, 1956.2316839714642, 1956.6371492367591, 1956.9934985349585, 1957.3989507053045, 1957.7839549363887, 1958.1935316616393, 1958.594893960999, 1958.959409552305, 1959.3321381538317, 1959.7211982798192, 1960.1184855727288, 1960.4830050571277]",7,R,ITM,1.05
6,400,trial,0,35,35,35,"['S', 'S', 'S', 'S', 'S', 'S', 'C', 'C', 'C', 'C', 'C', 'C', 'C', 'C', 'C', 'C', 'C', 'C', 'C', 'C', 'C', 'C']","[1966.5323570872163, 1966.9378326161195, 1967.351482224315, 1967.7528696518195, 1968.158337394537, 1968.5719997437636, 1968.9856543068047, 1969.333801212309, 1969.698320696708, 1970.0955867545656, 1970.4765726060045, 1970.8860643910477, 1971.2342042182015, 1971.6232806243954, 1972.0492458548295, 1972.4260515863114, 1972.7905537287513, 1973.163264988319, 1973.5564432986955, 1973.9209709231975, 1974.3141456943986, 1974.7401201266882]","[1966.6593221700666, 1967.0770857156408, 1967.4784402288149, 1967.8921025780414, 1968.2852985842944, 1968.6661977259382, 1969.08809396652, 1969.4525561162789, 1969.8211902458913, 1970.2184655056049, 1970.5911852591933, 1970.9884389299375, 1971.3529626613465, 1971.7461434491458, 1972.1516437522762, 1972.5366083445967, 1972.9093496871546, 1973.2779473632613, 1973.6793071851982, 1974.052013843838, 1974.4370078113138, 1974.8465877218223]","[1965.8238279932486, 1966.225179321165, 1966.6265932924841, 1967.0238345761147, 1967.4252106782583, 1967.8265793481335, 1968.22386133228, 1968.6252590233928, 1969.0102144138577, 1969.3583822004964, 1969.7269639503143, 1970.124257259822, 1970.5010534355306, 1970.914724278778, 1971.2587752966979, 1971.6519514835693, 1972.077897956374, 1972.4506039071787, 1972.819218571327, 1973.1919369092452, 1973.5851222979725, 1973.949621609072, 1974.3387217277404, 1974.7646639535349]",7,R,ITM,1.05
6,600,trial,0,36,36,36,"['S', 'S', 'S', 'S', 'S', 'S', 'C', 'C', 'C', 'C', 'C', 'C', 'C', 'C', 'C', 'C', 'C', 'C', 'C', 'C', 'C', 'C']","[1981.6986912483626, 1982.296653674354, 1982.9028099990196, 1983.5171803956587, 1984.0987564399718, 1984.7008182927232, 1985.3028889934126, 1985.8517191721019, 1986.4414923003471, 1987.068118153244, 1987.6415452464098, 1988.2231064261869, 1988.7842309920627, 1989.3576276483207, 1989.9228304059045, 1990.4716421808823, 1991.049144280498, 1991.6184362012332, 1992.191826840893, 1992.7488583505249, 1993.3509311747196, 1993.8956329054117]","[1981.8829669048177, 1982.46871988383, 1983.0338798173927, 1983.6728064279919, 1984.242098348727, 1984.8564393702109, 1985.4503243123295, 1985.9991442274104, 1986.576638894758, 1987.1991847863594, 1987.7766663587583, 1988.3541681044567, 1988.9152742666208, 1989.484582113645, 1990.0333935347053, 1990.6272763533186, 1991.1760948527296, 1991.761780587411, 1992.3269921929332, 1992.8839932656572, 1993.4614907643452, 1994.014417538454]","[1980.5478328390875, 1981.1498504521473, 1981.7478065076232, 1982.3498917189315, 1982.9478463587373, 1983.5458293119455, 1984.1478865637687, 1984.74997849951, 1985.3315485272253, 1985.8804052497296, 1986.4701387392113, 1987.0967960907685, 1987.6701803599128, 1988.2476672410749, 1988.8129227323707, 1989.3821831544458, 1989.9514761369335, 1990.5003686051084, 1991.073702971881, 1991.6430313461217, 1992.2204754032625, 1992.7734000538662, 1993.3754640301227, 1993.9243377406683]",7,R,ITM,1.05
3,600,trial,0,37,37,37,"['S', 'S', 'S', 'S', 'C', 'C', 'C', 'C', 'C', 'C', 'C', 'C', 'C', 'C', 'C', 'C', 'C', 'C', 'C', 'C']","[2002.009267330545, 2002.5785072254034, 2003.1764802689206, 2003.7908304922603, 2004.3929171192387, 2004.9540027541861, 2005.5233052924473, 2006.0844139320343, 2006.6700869256847, 2007.2598837664045, 2007.8373787876696, 2008.382072732176, 2008.967778640157, 2009.5657396504782, 2010.118664301082, 2010.6756851931877, 2011.2490684005795, 2011.8020174714927, 2012.3671986401073, 2012.9282860446424]","[2002.1320781294185, 2002.7054680612432, 2003.3034311950698, 2003.8972906551262, 2004.5239419900854, 2005.101430640835, 2005.6666687901718, 2006.2892221140414, 2006.833902255764, 2007.3704628214944, 2007.9438499219789, 2008.496748736603, 2009.0742561449815, 2009.6763119811349, 2010.2742853785696, 2010.802617715625, 2011.3760327755947, 2011.933026062133, 2012.498237667655, 2013.0839212788314]","[1999.6255318938092, 2000.2275732193436, 2000.8255434315206, 2001.4235401875126, 2002.0256013324288, 2002.6276415962104, 2003.2256418913778, 2003.8276800316544, 2004.4174379414458, 2004.9785770179403, 2005.5519655340952, 2006.108991027129, 2006.6987864521784, 2007.2844559066536, 2007.8619367712174, 2008.40664416459, 2008.9923451177253, 2009.5903227621707, 2010.1432045887532, 2010.7002244191062, 2011.2777176707839, 2011.8265581130815, 2012.3958422476312, 2012.9528631397368]",7,R,ITM,1.05
7,600,trial,0,38,38,38,"['S', 'S', 'S', 'S', 'S', 'S', 'C', 'C', 'C', 'C', 'C', 'C', 'C', 'C', 'C', 'C', 'C', 'C', 'C', 'C', 'C', 'C']","[2019.563329472093, 2020.169477302738, 2020.7592511388182, 2021.3572181657375, 2021.9551851926567, 2022.5490796905488, 2023.1552264594409, 2023.7286436429156, 2024.3061117664483, 2024.9000586441348, 2025.4692840283742, 2026.026309521408, 2026.595616660597, 2027.181298148268, 2027.7751576083244, 2028.3731564878215, 2028.9383344711782, 2029.4707789760246, 2030.0155104357893, 2030.5848292542569, 2031.1623033943877, 2031.723404247789]","[2019.7844914753655, 2020.3947341318421, 2020.9845019513243, 2021.5619895403213, 2022.0985447972885, 2022.6760617614405, 2023.2658214408195, 2023.843295934868, 2024.4207721985038, 2025.0064558096801, 2025.5798761784126, 2026.1819323684833, 2026.7635307096011, 2027.3328382027078, 2027.9144018599075, 2028.508299543057, 2029.1349264577066, 2029.7574932304424, 2030.273533657734, 2030.8182566234782, 2031.3506869716232, 2031.9568602843303]","[2018.4042591143498, 2019.006305748647, 2019.6042529561846, 2020.2022065342378, 2020.804291745546, 2021.4022633733932, 2022.0043273496497, 2022.606415392298, 2023.1838923637692, 2023.7572854808518, 2024.3348042145915, 2024.9245391197435, 2025.4938561686233, 2026.0550355917164, 2026.6201841999182, 2027.2099332617713, 2027.8038238665702, 2028.401806465861, 2028.9628913929735, 2029.4953380213249, 2030.0441809410454, 2030.609380159454, 2031.190986640675, 2031.752057411086]",7,R,ITM,1.05
4,400,trial,0,39,39,39,"['S', 'S', 'S', 'S', 'S', 'S', 'C', 'C', 'C', 'C', 'C', 'C', 'C', 'C', 'C', 'C', 'C', 'C', 'C', 'C', 'C', 'C']","[2038.0717143092752, 2038.4894842253648, 2038.89908607876, 2039.3004582878107, 2039.7059249687757, 2040.0990845215229, 2040.5045681905294, 2040.9223494319801, 2041.3196080575697, 2041.7168974739843, 2042.1182611890142, 2042.5237261003915, 2042.9251163592362, 2043.3019061644293, 2043.7278834280594, 2044.1046852664485, 2044.4814920596832, 2044.8951600715905, 2045.2801430676227, 2045.6774133724907, 2046.1116100168572, 2046.5088505926526]","[2038.2069157609033, 2038.6287352013808, 2039.0341955118301, 2039.4396699789809, 2039.8369781530248, 2040.2342350090266, 2040.6478913416554, 2041.036996769087, 2041.4342876011717, 2041.8151658616812, 2042.2370447603041, 2042.6343224974403, 2043.0275312447245, 2043.4165881854542, 2043.826161725447, 2044.2070452947196, 2044.5961485986459, 2044.9893279707749, 2045.3989206223143, 2045.7839184828829, 2046.2098454902236, 2046.5989438393044]","[2037.3591041922593, 2037.756349015065, 2038.1577321955592, 2038.5550308138297, 2038.9563878044266, 2039.3577504577038, 2039.7550434132938, 2040.1564262398704, 2040.5291321906752, 2040.950971096617, 2041.348252726846, 2041.7414597045426, 2042.1428942030786, 2042.5482954093004, 2042.9496824828873, 2043.3265182973594, 2043.7524690171745, 2044.1292520979346, 2044.5060411952927, 2044.919690449571, 2045.308854273395, 2045.7019819735644, 2046.1402001828337, 2046.5333933577465]",7,R,ITM,1.05
3,600,trial,0,40,40,40,"['S', 'S', 'S', 'S', 'S', 'S', 'C', 'C', 'C', 'C', 'C', 'C', 'C', 'C', 'C', 'C', 'C', 'C', 'C', 'C', 'C', 'C']","[2053.0619727292387, 2053.647629088765, 2054.2825263482755, 2054.8845195410254, 2055.44152627643, 2056.031317808387, 2056.6128952683703, 2057.1822024075595, 2057.7760884114305, 2058.3781594660377, 2058.9187635395574, 2059.471733845523, 2060.020517307098, 2060.585722896022, 2061.167310619614, 2061.7407115228825, 2062.334585847475, 2062.9243901204627, 2063.4936954900645, 2064.0506901922727, 2064.574921332981, 2065.119680398313]","[2053.2093882287736, 2053.74182848661, 2054.3766411598303, 2054.986901158266, 2055.5725989261437, 2056.1828437061254, 2056.752166063768, 2057.3173451088774, 2057.91124526945, 2058.4887293192714, 2059.033442021407, 2059.5740683917315, 2060.151553503306, 2060.696311506885, 2061.294255529165, 2061.859471735615, 2062.4246861724773, 2062.989863447999, 2063.5837618389837, 2064.1489691974957, 2064.681404500486, 2065.230220522474]","[2051.8824087768717, 2052.480355630492, 2053.0824104048925, 2053.6803859258325, 2054.282459457862, 2054.8804321474618, 2055.48251452743, 2056.080464566308, 2056.6374493588255, 2057.2067766713135, 2057.804745113903, 2058.40681475284, 2058.943327893621, 2059.4962539598946, 2060.0450805994087, 2060.6103272427667, 2061.195967676004, 2061.765273399523, 2062.359145246693, 2062.948930408134, 2063.5182333003127, 2064.0752265868514, 2064.5995147082817, 2065.1442228094893]",7,R,ITM,1.05
3,400,trial,0,41,41,41,"['S', 'S', 'S', 'S', 'S', 'S', 'S', 'C', 'C', 'C', 'C', 'C', 'C', 'C', 'C', 'C', 'C', 'C', 'C', 'C', 'C', 'C', 'C']","[2070.8699912263846, 2071.2181161890016, 2071.615401712324, 2072.012698207089, 2072.4058913820018, 2072.827737720212, 2073.2127097448006, 2073.610016857092, 2073.999103880812, 2074.3718084159464, 2074.781374877589, 2075.1868433281415, 2075.559586086369, 2075.956845065876, 2076.3459359826893, 2076.7186242376174, 2077.115894188568, 2077.4763209706402, 2077.8818187963475, 2078.270882107593, 2078.6436071699445, 2079.020410070086, 2079.417695593408]","[2070.9928565285572, 2071.3287217879065, 2071.7218877111695, 2072.1273611165675, 2072.5287382804636, 2072.9342099162736, 2073.319192912306, 2073.7164809130504, 2074.0973701450034, 2074.4864692019196, 2074.8632742255663, 2075.281044495574, 2075.661943991135, 2076.0592217282715, 2076.460593937322, 2076.829224527759, 2077.2223954058672, 2077.595106665435, 2077.9719141665046, 2078.3569088418153, 2078.741885113415, 2079.110539062409, 2079.5036986151563]","[2070.4686621952724, 2070.8658864908616, 2071.2672912603252, 2071.668658868448, 2072.0659157244495, 2072.467307045047, 2072.868684208943, 2073.265965839172, 2073.6345914747635, 2074.023673897556, 2074.3963678151645, 2074.8100199007827, 2075.2114115752975, 2075.584129559298, 2075.9854861959775, 2076.3704890113913, 2076.7472933272034, 2077.140462789642, 2077.5008920491364, 2077.9063587301016, 2078.2954503547494, 2078.6681800180286, 2079.0449609752836, 2079.442262424894]",7,R,ITM,1.05
5,600,trial,0,42,42,42,"['S', 'S', 'S', 'S', 'S', 'S', 'S', 'C', 'C', 'C', 'C', 'C', 'C', 'C', 'C', 'C', 'C', 'C', 'C', 'C', 'C', 'C', 'C']","[2090.3204425951076, 2091.090440085832, 2091.749824545384, 2092.3682642857925, 2092.9744287505614, 2093.5478314234174, 2094.1621657204682, 2094.76426615023, 2095.3376330774154, 2095.9274281485477, 2096.492626659121, 2097.0414345410063, 2097.618938056292, 2098.208711184537, 2098.782117042651, 2099.3391584619735, 2099.8838538221503, 2100.4408524174514, 2100.9937813150655, 2101.550790527893, 2102.1078100043283, 2102.664831958187, 2103.2177431599243]","[2090.4310103248363, 2091.2255636756036, 2091.839898680489, 2092.4747432062877, 2093.0726939530005, 2093.6624808840293, 2094.285041640167, 2094.878949586925, 2095.464574447791, 2096.0461657105584, 2096.5990843445643, 2097.1684042247844, 2097.7294983537527, 2098.3110952792003, 2098.876369882043, 2099.433363876416, 2099.986243225576, 2100.5759951187692, 2101.1002503258696, 2101.6573391701413, 2102.218378441892, 2102.791763064954, 2103.3365054961623]","[2090.0009304491887, 2090.598907031881, 2091.20096923855, 2091.8030420627447, 2092.4010161680144, 2093.0030702345803, 2093.6010627435617, 2094.2031157483743, 2094.7887890959423, 2095.36628376329, 2095.9519871938483, 2096.517188181844, 2097.066023315379, 2097.647573169795, 2098.237370010515, 2098.806669717436, 2099.3677755256826, 2099.9083983568316, 2100.4654266812054, 2101.0183258497473, 2101.57944227552, 2102.13235170767, 2102.693473088288, 2103.242345029246]",7,R,ITM,1.05
7,600,trial,0,43,43,43,"['S', 'S', 'S', 'S', 'S', 'S', 'C', 'C', 'C', 'C', 'C', 'C', 'C', 'C', 'C', 'C', 'C', 'C', 'C', 'C', 'C', 'C']","[2110.009062412295, 2110.5531285071015, 2111.159284831767, 2111.7531382752254, 2112.3593197280356, 2112.9532379384023, 2113.5388497043195, 2114.1040598941718, 2114.6897459827705, 2115.2836298631364, 2115.836556991163, 2116.393568681413, 2116.9956167313803, 2117.5608247977275, 2118.175205104057, 2118.6912363294928, 2119.2359589413195, 2119.7807006646926, 2120.3336200065332, 2120.9152052527024, 2121.459933173292, 2121.9759902347073]","[2110.1722665267985, 2110.753802224513, 2111.3026051515526, 2111.912864796071, 2112.498545575907, 2113.0801410856843, 2113.674008685844, 2114.296564133219, 2114.853575823469, 2115.3942043172983, 2115.9799049165163, 2116.5287262472675, 2117.098047897075, 2117.671415886013, 2118.285753722239, 2118.8304887211793, 2119.3916033773644, 2119.928167836187, 2120.5015280389393, 2121.0380878968344, 2121.6114693346385, 2122.127523564714]","[2108.7960822745003, 2109.398135633231, 2109.996653355828, 2110.598162743314, 2111.196106765594, 2111.7982351548408, 2112.3961423696974, 2112.9982328897686, 2113.5675308271016, 2114.12862778741, 2114.7143113985867, 2115.3082012955506, 2115.865195997759, 2116.4222193672877, 2117.0201849785367, 2117.5894945951486, 2118.1997553014194, 2118.7199004642334, 2119.2605519627027, 2119.8093478113915, 2120.358188607607, 2120.9438662021853, 2121.4844883254996, 2122.004642336252]",7,R,ITM,1.05
4,600,trial,0,44,44,44,"['S', 'S', 'S', 'S', 'S', 'S', 'S', 'S', 'C', 'C', 'C', 'C', 'C', 'C', 'C', 'C', 'C', 'C', 'C', 'C', 'C', 'C', 'C', 'C']","[2127.922933395906, 2128.02530297995, 2128.6028047256486, 2129.196661708282, 2129.8315349014, 2130.425406040735, 2131.027465769981, 2131.6295336393305, 2132.2111089758087, 2132.8008976764254, 2133.4193331698234, 2133.9845320343143, 2134.541562836111, 2135.123134633414, 2135.7252000253407, 2136.3068284494484, 2136.9047696403877, 2137.4331154263095, 2138.010609385822, 2138.5921875536405, 2139.2147256590565, 2139.784045893194, 2140.349234847994, 2140.9349719007178]","[2127.9269984926655, 2128.1686618767467, 2128.844456076534, 2129.475184895366, 2130.040395793053, 2130.6178908143183, 2131.26089632446, 2131.86296985649, 2132.4855352135555, 2133.001577410435, 2133.6036428023613, 2134.2016123067037, 2134.7872916708693, 2135.37302199916, 2135.9381833483926, 2136.4992771234433, 2137.0522180542534, 2137.6747522665764, 2138.280918147015, 2138.8338286409175, 2139.4031177303127, 2140.0011095314594, 2140.5908731039312, 2141.1069832529765]","[2127.4601271200986, 2128.0580891921727, 2128.6601375960577, 2129.2581021455544, 2129.8601774471717, 2130.4622523948715, 2131.060217652203, 2131.662257562067, 2132.2397525833326, 2132.825465215746, 2133.4438946925466, 2134.0091077137386, 2134.5702043201295, 2135.1518292050623, 2135.749761901981, 2136.335455068931, 2136.933417494922, 2137.461755494658, 2138.039259009944, 2138.6208424865254, 2139.239290367037, 2139.8086024610716, 2140.37787243892, 2140.9594874141617]",7,R,ITM,1.05
5,400,trial,0,45,45,45,"['S', 'S', 'S', 'S', 'S', 'S', 'S', 'C', 'C', 'C', 'C', 'C', 'C', 'C', 'C', 'C', 'C', 'C', 'C', 'C', 'C', 'C', 'C']","[2146.7385154646036, 2147.053929245515, 2147.4143047095454, 2147.8197763453554, 2148.2252391332277, 2148.630721386564, 2149.028013634319, 2149.425283231352, 2149.826646946382, 2150.2035248770403, 2150.60075625098, 2151.018514487791, 2151.423978691333, 2151.804877125142, 2152.193974766388, 2152.599446756116, 2152.9721435050647, 2153.3530408771207, 2153.7339386030944, 2154.110768754886, 2154.4998412679874, 2154.8602666343895, 2155.2329743547816]","[2146.853179435834, 2147.1726434489688, 2147.5453540007015, 2147.9508192659964, 2148.3522151875213, 2148.761762537617, 2149.163155627802, 2149.572725274702, 2149.945432641177, 2150.3427277202723, 2150.7440730315902, 2151.145459397342, 2151.5345800432274, 2151.9195563148264, 2152.312718698914, 2152.714118159615, 2153.090907256973, 2153.4881899489546, 2153.8690798887424, 2154.2499818617266, 2154.6145066548884, 2154.999493190096, 2155.359923157426]","[2146.2634739058376, 2146.664791611588, 2147.0661730224947, 2147.4634465126205, 2147.8648123511557, 2148.2661842062885, 2148.6634782236315, 2149.0648829930947, 2149.4498889937663, 2149.851218024878, 2150.228014908422, 2150.6253223746307, 2151.047154910057, 2151.4526272537028, 2151.8294496193084, 2152.218513638389, 2152.6239948299726, 2153.0008518794966, 2153.3817096127896, 2153.7584990640653, 2154.1353175365784, 2154.5243776625657, 2154.8848288649474, 2155.2575383549274]",7,R,ITM,1.05
5,600,trial,0,46,46,46,"['S', 'S', 'S', 'S', 'S', 'S', 'C', 'C', 'C', 'C', 'C', 'C', 'C', 'C', 'C', 'C', 'C', 'C', 'C', 'C', 'C', 'C']","[2161.9499334104166, 2162.5724290457288, 2163.1703971344004, 2163.7683666387425, 2164.349984091407, 2164.9602419663374, 2165.5663759941986, 2166.1520857952723, 2166.7173320847123, 2167.2907269713824, 2167.888660022219, 2168.5194121996083, 2169.084597261315, 2169.653890597721, 2170.2313544742433, 2170.8007051452882, 2171.3699860945803, 2171.910608217894, 2172.475815576406, 2173.020545974418, 2173.618508754327, 2174.19190470275]","[2162.1956360552776, 2162.7813115263507, 2163.3792881090435, 2163.9485888777167, 2164.5588371968743, 2165.169079853351, 2165.767077671095, 2166.3568461984123, 2166.9671391111788, 2167.528225453961, 2168.089341171899, 2168.6668259295557, 2169.2893728829094, 2169.8218057084773, 2170.378800410686, 2170.976802121523, 2171.5501832054097, 2172.1809364445517, 2172.7461384943003, 2173.286748230501, 2173.8560617402054, 2174.380285802563]","[2160.8031344352203, 2161.4051775303424, 2162.003135355406, 2162.605180574033, 2163.2031458313645, 2163.805226441745, 2164.4073031590324, 2165.005268770282, 2165.5950468533724, 2166.1766214820154, 2166.741829548362, 2167.3152194801874, 2167.91729973665, 2168.5439468245986, 2169.113232020901, 2169.6784680467326, 2170.2559467877913, 2170.829348752812, 2171.394556111324, 2171.9351743415455, 2172.5003732060363, 2173.045080245491, 2173.643075585813, 2174.216466225473]",7,R,ITM,1.05
2,600,trial,0,47,47,47,"['S', 'S', 'S', 'S', 'S', 'S', 'S', 'C', 'C', 'C', 'C', 'C', 'C', 'C', 'C', 'C', 'C', 'C', 'C', 'C', 'C', 'C', 'C']","[2181.0972303475787, 2181.666596944913, 2181.7648256938464, 2182.27271150731, 2182.82972319756, 2183.444070943477, 2184.0747781733394, 2184.7014372944845, 2185.266635805058, 2185.840058651213, 2186.3970522916693, 2187.0032440080877, 2187.5889085077174, 2188.182765490351, 2188.735692972295, 2189.296830987037, 2189.8947796102448, 2190.4886503956623, 2191.0538559845863, 2191.6272275126994, 2192.200637971741, 2192.806813054036, 2193.4129488514845]","[2181.314300002442, 2181.6706135549707, 2181.83445472103, 2182.416057309158, 2182.9648584666097, 2183.554655661247, 2184.156693093689, 2184.7997541688833, 2185.3731143716354, 2185.966991527568, 2186.548596593119, 2187.1096988621907, 2187.699536757344, 2188.2851545398594, 2188.846253623673, 2189.427848071698, 2190.0135380533898, 2190.623799113578, 2191.2094982971257, 2191.7746755726475, 2192.343988374517, 2192.9255598179025, 2193.511236350728]","[2179.9176787823253, 2180.5197406350767, 2181.117696336635, 2181.719778716603, 2182.3177425582644, 2182.9198090119435, 2183.517783471131, 2184.1198580649134, 2184.7259988172077, 2185.2953225905208, 2185.868714999768, 2186.4216187692377, 2187.031885138189, 2187.6135309042556, 2188.2073259513213, 2188.7643549835307, 2189.325507154974, 2189.923445514573, 2190.513245894468, 2191.078460685248, 2191.6518070852167, 2192.2292967977187, 2192.831372099336, 2193.4375723097755]",7,R,ITM,1.05
3,400,trial,0,48,48,48,"['S', 'S', 'S', 'S', 'S', 'S', 'C', 'C', 'C', 'C', 'C', 'C', 'C', 'C', 'C', 'C', 'C', 'C', 'C', 'C', 'C', 'C']","[2199.5728710887247, 2199.961988549352, 2200.4002212692403, 2200.797500068129, 2201.1865693959726, 2201.5674628749357, 2201.985243762469, 2202.358003862656, 2202.7552359444308, 2203.1524966935253, 2203.5374956158466, 2203.9143045325864, 2204.303416684451, 2204.696590747817, 2205.077477856265, 2205.466556385964, 2205.8474806557524, 2206.2406536573662, 2206.629758023045, 2207.0311181988995, 2207.4529847104086, 2207.829769914674]","[2199.675275356687, 2200.0930190828794, 2200.518998116097, 2200.916271606223, 2201.317638860428, 2201.698544726505, 2202.1122088453194, 2202.4767046172433, 2202.8658167691083, 2203.2548846812815, 2203.648089181555, 2204.0125923857477, 2204.3935134702783, 2204.7866907189023, 2205.1839712873784, 2205.5730484014075, 2205.9498718287664, 2206.334856594386, 2206.736217831993, 2207.121231264933, 2207.543082911906, 2207.9444462730185]","[2198.835681045274, 2199.2370398054586, 2199.6384488219323, 2200.0356876281403, 2200.437074701727, 2200.8384430176848, 2201.2357182773985, 2201.6370795150056, 2202.0098113017903, 2202.386602168736, 2202.78388733814, 2203.1770660024345, 2203.566168244608, 2203.9388773806704, 2204.3279506016065, 2204.7211650115714, 2205.1020613218748, 2205.4952357391585, 2205.8761745195657, 2206.2652204888523, 2206.6543538757687, 2207.0556949400766, 2207.4775547271524, 2207.854339223583]",7,R,ITM,1.05
6,600,trial,0,49,49,49,"['S', 'S', 'S', 'S', 'S', 'S', 'C', 'C', 'C', 'C', 'C', 'C', 'C', 'C', 'C', 'C', 'C', 'C', 'C', 'C', 'C', 'C']","[2214.4853023358205, 2215.0996249535924, 2215.7057759694953, 2216.311958484058, 2216.8648764102286, 2217.4751289763963, 2218.0689990539786, 2218.650593148086, 2219.228092062444, 2219.7768981747413, 2220.3789901104824, 2220.944241354768, 2221.501230394296, 2222.086901264441, 2222.643924987887, 2223.2009140274154, 2223.7743195316116, 2224.3313121103147, 2224.8883276936576, 2225.4699267426104, 2226.0064522705047, 2226.5266062812575]","[2214.6818607001833, 2215.2347871203747, 2215.845042163965, 2216.42666811065, 2216.979552768573, 2217.585700599218, 2218.1673056647687, 2218.777557523101, 2219.3468409498155, 2219.903861134086, 2220.5059371435386, 2221.079326013611, 2221.628224498384, 2222.1974466973656, 2222.770840168366, 2223.340210304875, 2223.9217552044456, 2224.462376266007, 2225.039869871602, 2225.572309421603, 2226.1170107983776, 2226.6617574765964]","[2213.3262567523043, 2213.9241798934495, 2214.526284570222, 2215.1241956781714, 2215.726257177005, 2216.324269859286, 2216.9263126004903, 2217.5242527296773, 2218.093558807114, 2218.6792399408673, 2219.2567448718237, 2219.8014738541656, 2220.4076365493465, 2220.9728601880647, 2221.5298938212018, 2222.1155254065006, 2222.672542405514, 2223.2295640054544, 2223.7988573418597, 2224.359995356602, 2224.917003153759, 2225.498568226629, 2226.03100777663, 2226.55115930996]",7,R,ITM,1.05
5,400,trial,0,50,50,50,"['S', 'S', 'S', 'S', 'S', 'C', 'C', 'C', 'C', 'C', 'C', 'C', 'C', 'C', 'C', 'C', 'C', 'C', 'C', 'C', 'C']","[2233.0141729814404, 2233.431929094746, 2233.8251187304836, 2234.246971439209, 2234.6319717772003, 2235.0620127219195, 2235.4593155872003, 2235.8402076504935, 2236.24159047707, 2236.6429449902444, 2237.0484173338896, 2237.4375202838983, 2237.8429901501213, 2238.2484653251067, 2238.6457508484286, 2239.0348208841074, 2239.4280759945877, 2239.8498749078485, 2240.243064543586, 2240.6444413535646, 2241.08267018036]","[2233.1124463239826, 2233.5424964705576, 2233.935714773615, 2234.3452546914423, 2234.7261527713335, 2235.1561926543, 2235.557581851392, 2235.9548762226523, 2236.34394059565, 2236.737133062728, 2237.1467016478755, 2237.5480975694004, 2237.9453816770524, 2238.3467496390926, 2238.748137774432, 2239.149494057194, 2239.5386001924603, 2239.948149666061, 2240.361881383124, 2240.7509287680805, 2241.160475410341]","[2231.8796921059047, 2232.2810490965016, 2232.6824181202946, 2233.0796824085646, 2233.48111124442, 2233.8824692967696, 2234.283828056954, 2234.6810958843994, 2235.0865905248493, 2235.4838438416755, 2235.864768819299, 2236.270236208099, 2236.667518192246, 2237.0729873506334, 2237.4620665881675, 2237.867531499545, 2238.2730654248408, 2238.6703006918733, 2239.059390900851, 2239.4525660259696, 2239.874441739335, 2240.2676214653816, 2240.6730856689237, 2241.11135307273]",7,R,ITM,1.05
2,400,trial,0,51,51,51,"['S', 'S', 'S', 'S', 'S', 'S', 'C', 'C', 'C', 'C', 'C', 'C', 'C', 'C', 'C', 'C', 'C', 'C', 'C', 'C', 'C', 'C']","[2247.3982170342633, 2247.807801899617, 2248.2173630524962, 2248.606441936113, 2248.99555373406, 2249.3846411116974, 2249.802408196447, 2250.1914966358368, 2250.5723777276867, 2250.9860567110372, 2251.358765139265, 2251.7437562754003, 2252.149231096468, 2252.5505937497455, 2252.960175783759, 2253.328775583371, 2253.74653558977, 2254.127447826362, 2254.512454534869, 2254.921995514449, 2255.3275216535594, 2255.708382218192]","[2247.5333859254783, 2247.9388405732475, 2248.336149809044, 2248.7293390908635, 2249.1061320813146, 2249.5115853134134, 2249.9047632698725, 2250.2897721018844, 2250.678866203955, 2251.080239474758, 2251.4693300376534, 2251.8461478023314, 2252.2516141293786, 2252.64478890058, 2253.0707424517354, 2253.4393925076365, 2253.8530276052134, 2254.156146645021, 2254.5411448595073, 2255.0121156588334, 2255.4175880024786, 2255.7330325742155]","[2246.665129956748, 2247.066467127963, 2247.4678435840237, 2247.8651322926034, 2248.266494945881, 2248.6678827273026, 2249.065207889388, 2249.4665333813246, 2249.8310680841773, 2250.2202050102687, 2250.6010507103656, 2251.014700318561, 2251.3874154712216, 2251.772423595399, 2252.177929207292, 2252.57927168727, 2252.984734475142, 2253.357451043473, 2253.775206095026, 2254.1560967426494, 2254.5410903562074, 2254.950668497128, 2255.3561447338666, 2255.732960021122]",7,R,ITM,1.05
6,400,trial,0,52,52,52,"['S', 'S', 'S', 'S', 'S', 'S', 'S', 'C', 'C', 'C', 'C', 'C', 'C', 'C', 'C', 'C', 'C', 'C', 'C', 'C', 'C', 'C', 'C']","[2261.6184570823675, 2262.019849818635, 2262.4293985844006, 2262.8389749557336, 2263.228042160072, 2263.6089363468705, 2264.0062388582337, 2264.411721819405, 2264.7680371415213, 2265.1694178445928, 2265.56668107111, 2265.9639927843295, 2266.3612503481663, 2266.7749162365685, 2267.143531254634, 2267.5326437604162, 2267.925796942648, 2268.339481588679, 2268.7121740906177, 2269.0931111014374, 2269.461699929606, 2269.8794592281697, 2270.252208356913]","[2261.7413103513445, 2262.12220206072, 2262.535858393349, 2262.949536314947, 2263.3304531524673, 2263.7236657928443, 2264.108642418361, 2264.50181754348, 2264.8786338924874, 2265.267705343836, 2265.664988743653, 2266.058166700112, 2266.4554646105476, 2266.8527968509834, 2267.254115972404, 2267.6350211306462, 2268.0241085082835, 2268.4336728464204, 2268.818666459979, 2269.1872786467043, 2269.572267305417, 2269.9654537558968, 2270.3586727667894]","[2261.3031105457867, 2261.7044463013317, 2262.1017399647567, 2262.503122437416, 2262.9044854446106, 2263.3018721883464, 2263.7031431769833, 2264.104527065312, 2264.436284757798, 2264.7967090624475, 2265.1939910465944, 2265.595356885129, 2265.992640284946, 2266.389910235897, 2266.8035860339896, 2267.1722293654575, 2267.561289491445, 2267.9544656783164, 2268.3640823962483, 2268.7367756060216, 2269.1176354628196, 2269.4862671150095, 2269.9081821132204, 2270.280839577323]",7,R,ITM,1.05
4,600,trial,0,53,53,53,"['S', 'S', 'S', 'S', 'S', 'S', 'S', 'C', 'C', 'C', 'C', 'C', 'C', 'C', 'C', 'C', 'C', 'C', 'C', 'C', 'C', 'C', 'C']","[2277.1165496438352, 2277.214827587305, 2277.694024491801, 2278.3207186507816, 2278.9186973569795, 2279.516615189362, 2280.0982128226447, 2280.68796011491, 2281.261387561993, 2281.8061147747476, 2282.3508175671923, 2282.9037553127446, 2283.4894159192813, 2284.0546554842886, 2284.623928647394, 2285.189136359824, 2285.750249246421, 2286.294960178969, 2286.8274039759804, 2287.364013736247, 2287.9250558393383, 2288.445216928442, 2289.002232157867]","[2277.1165878669285, 2277.29270395471, 2277.8783362478443, 2278.4762997355883, 2279.070176891521, 2279.6599762096635, 2280.225146760752, 2280.8108597470837, 2281.3719510447113, 2281.937157695388, 2282.490074559806, 2283.038878902516, 2283.6246378981264, 2284.206158377387, 2284.7672857746034, 2285.3283883975923, 2285.8813045541756, 2286.434220356841, 2286.9666655695223, 2287.5031847269015, 2288.019254529348, 2288.5639622766384, 2289.116920903325]","[2275.986149791348, 2276.584126727958, 2277.18614115576, 2277.7841120757726, 2278.386196225328, 2278.9841522808038, 2279.5862544801535, 2280.1842052268667, 2280.716657163981, 2281.2859501464686, 2281.830671342625, 2282.3753854604306, 2282.9283002013435, 2283.5180864245376, 2284.083287766451, 2284.6484908779526, 2285.2137017756395, 2285.774801921206, 2286.3195298417954, 2286.851979301487, 2287.3885200478353, 2287.949623024742, 2288.4697795129173, 2289.026798989353]",7,R,ITM,1.05
5,600,trial,0,54,54,54,"['S', 'S', 'S', 'S', 'S', 'S', 'S', 'S', 'C', 'C', 'C', 'C', 'C', 'C', 'C', 'C', 'C', 'C', 'C', 'C', 'C', 'C', 'C', 'C']","[2302.964473758254, 2303.259298740726, 2303.9310136870527, 2304.53305890568, 2305.131060616517, 2305.7290230425087, 2306.3146896656435, 2306.871699586306, 2307.4287233097516, 2308.018521212224, 2308.5755311328867, 2309.153028985492, 2309.705909750322, 2310.2629373668606, 2310.8281602977436, 2311.4097420047374, 2311.9749762609817, 2312.5360753447953, 2313.125818743968, 2313.6541790405086, 2314.2234720229962, 2314.7763832247338, 2315.341594830256, 2315.8658277405516]","[2303.0627446233734, 2303.5992605954943, 2304.2299741958727, 2304.778822778274, 2305.3194452555053, 2305.8805524794225, 2306.474438129376, 2307.0396238989183, 2307.641686813422, 2308.1905237165447, 2308.780295783037, 2309.3741690458774, 2309.9230204596183, 2310.4759040557888, 2311.0779708633854, 2311.6104266935927, 2312.1510381993808, 2312.753124826359, 2313.2650729052416, 2313.8589401514837, 2314.436450391203, 2315.018037053042, 2315.603712524115]","[2302.767869738529, 2303.3658049128708, 2303.967854024591, 2304.565835562129, 2305.167879719004, 2305.7658559477786, 2306.3679284180557, 2306.9700143371992, 2307.4532929725783, 2308.0430756565966, 2308.6001000878778, 2309.177557239967, 2309.73047481222, 2310.287494288656, 2310.852704478508, 2311.4342968030273, 2312.003589431598, 2312.5605954591674, 2313.15039760865, 2313.67872640653, 2314.252118815778, 2314.805030371433, 2315.370281969636, 2315.894493290962]",7,R,ITM,1.05
6,400,trial,0,55,55,55,"['S', 'S', 'S', 'S', 'S', 'S', 'C', 'C', 'C', 'C', 'C', 'C', 'C', 'C', 'C', 'C', 'C', 'C', 'C', 'C', 'C', 'C']","[2321.935675488769, 2322.3697921477733, 2322.7793603790033, 2323.1766621825313, 2323.5780181113755, 2323.9712760531966, 2324.380783410611, 2324.7739581818123, 2325.1794503448396, 2325.576706846924, 2325.9985715888456, 2326.3999459214015, 2326.784953337743, 2327.1986149791346, 2327.5918184176558, 2327.9931562967063, 2328.3863353149177, 2328.775425523895, 2329.1850185293524, 2329.5741161705982, 2329.9959674636534, 2330.372760100187]","[2322.046289227777, 2322.500837545837, 2322.906302457214, 2323.319977547472, 2323.729547902207, 2324.1022704871357, 2324.5118135902208, 2324.9173234491245, 2325.31459127657, 2325.703671575857, 2326.1296261887646, 2326.5228512162553, 2326.8955238988124, 2327.3132849669637, 2327.6982654855733, 2328.103751632002, 2328.501045649345, 2328.8737346121084, 2329.2874008544277, 2329.6969988147303, 2330.1065206827634, 2330.4997474798415]","[2321.2107140038443, 2321.6120819658845, 2322.0093604108556, 2322.410720940628, 2322.812110845555, 2323.20940309331, 2323.610772117103, 2324.012158836772, 2324.405334669726, 2324.8026286870686, 2325.2080847505076, 2325.6012832341835, 2326.027243155854, 2326.4245099215473, 2326.809497518507, 2327.227267434597, 2327.6163735698633, 2328.021846621344, 2328.410924443208, 2328.8041091241003, 2329.2095842990857, 2329.60276296338, 2330.020525447201, 2330.3973333021886]",7,R,ITM,1.05
3,600,trial,0,56,56,56,"['S', 'S', 'S', 'S', 'S', 'S', 'S', 'C', 'C', 'C', 'C', 'C', 'C', 'C', 'C', 'C', 'C', 'C', 'C', 'C', 'C', 'C', 'C']","[2336.929971046007, 2337.03232930469, 2337.5565933597286, 2338.1258997910827, 2338.727993850329, 2339.3177340642437, 2339.9198015796755, 2340.521918997479, 2341.0788938803057, 2341.664610051895, 2342.2421075505827, 2342.8236758087105, 2343.413445043863, 2343.9950954108576, 2344.5725306200598, 2345.137736916819, 2345.711104197922, 2346.3090591916452, 2346.886595267344, 2347.4518358941036, 2347.9924233334996, 2348.6108906794757, 2349.184253005733]","[2336.934058085653, 2337.2166499086716, 2337.802332104178, 2338.4085078943076, 2338.965513921877, 2339.583955431873, 2340.177843913167, 2340.759468444182, 2341.3532967594956, 2341.922614162293, 2342.5041848978435, 2343.098087181921, 2343.6673918436873, 2344.2735425056726, 2344.8551072246246, 2345.420308212621, 2346.0551552158418, 2346.595807422146, 2347.156896242351, 2347.7958564751157, 2348.3487262685026, 2348.9016420711678, 2349.4217886496526]","[2335.7750082551265, 2336.372946260808, 2336.9750102370645, 2337.572973370891, 2338.175055750859, 2338.7730227777784, 2339.375124269293, 2339.9730445790983, 2340.5465038787593, 2341.103474160658, 2341.693235963542, 2342.2666174013466, 2342.8482245904024, 2343.438012583184, 2344.0195935823426, 2344.5970843565974, 2345.1622839289234, 2345.73976868658, 2346.33363628674, 2346.911138032438, 2347.476361671156, 2348.017046437873, 2348.6354281358067, 2349.2088361174256]",7,R,ITM,1.05
3,600,trial,0,57,57,57,"['S', 'S', 'S', 'S', 'S', 'S', 'C', 'C', 'C', 'C', 'C', 'C', 'C', 'C', 'C', 'C', 'C', 'C', 'C', 'C', 'C', 'C']","[2355.688234754914, 2356.3107608271334, 2356.9005279387807, 2357.49849071869, 2358.112852621308, 2358.6985539283605, 2359.2924381626444, 2359.8904129757493, 2360.484247307661, 2361.037166295584, 2361.651551202842, 2362.2249198996146, 2362.7983388526773, 2363.4044877450747, 2363.973798423439, 2364.5226406353245, 2365.1123978372807, 2365.693966449326, 2366.3001408237856, 2366.885868674653, 2367.430554832974, 2368.0080296809397]","[2355.9626068432785, 2356.5933696381935, 2357.1667517838328, 2357.7770170910317, 2358.3626826524137, 2358.927940267215, 2359.529984778007, 2360.1033832038524, 2360.6972869036003, 2361.2952065055706, 2361.8563062972194, 2362.4256201608414, 2362.978576664023, 2363.5929014053004, 2364.1909052396427, 2364.7765237299936, 2365.3663372048372, 2365.935608952273, 2366.5212992878824, 2367.029157141861, 2367.655872889811, 2368.253813018998]","[2354.5332521446517, 2355.1312159863132, 2355.7332509413322, 2356.3312406189734, 2356.933289376776, 2357.5313045364796, 2358.133372051911, 2358.7353992207445, 2359.316962877944, 2359.919034640386, 2360.5088240488376, 2361.0658389243454, 2361.6760978610287, 2362.249514690586, 2362.826982460201, 2363.4290524530556, 2363.9983687941003, 2364.547175614233, 2365.1369738706226, 2365.7226443868503, 2366.324711902282, 2366.910378879334, 2367.45512166446, 2368.032594035003]",7,R,ITM,1.05
7,600,trial,0,58,58,58,"['S', 'S', 'S', 'S', 'S', 'S', 'C', 'C', 'C', 'C', 'C', 'C', 'C', 'C', 'C', 'C', 'C', 'C', 'C', 'C', 'C', 'C']","[2374.7044887714355, 2375.322978414216, 2375.892244498971, 2376.4820307221653, 2377.075891243974, 2377.682055000908, 2378.3046150492105, 2378.89438180694, 2379.459573239163, 2380.0288966585586, 2380.6309351527525, 2381.2371077576245, 2381.818740074825, 2382.3757344231162, 2382.9491194000957, 2383.518400703305, 2384.0795684471195, 2384.644715639651, 2385.2099208746577, 2385.8038581965707, 2386.3771915015905, 2386.9546936012066]","[2374.991201256266, 2375.5522890147186, 2376.1297886369116, 2376.7564120123857, 2377.2929644380124, 2377.8417694885575, 2378.521677625723, 2379.123766730124, 2379.7339980612396, 2380.3319700430047, 2380.9094923159196, 2381.441892227157, 2381.986640321046, 2382.621497587875, 2383.223529357636, 2383.764142633012, 2384.3948852546278, 2384.976459529353, 2385.517091208441, 2386.086419936599, 2386.643424194581, 2387.2045236323124]","[2373.5209159951964, 2374.122898570421, 2374.720844008371, 2375.322936651947, 2375.9208983701037, 2376.522960576772, 2377.1209300811142, 2377.7229905181953, 2378.333287677972, 2378.9189429757457, 2379.488269580399, 2380.0534603047868, 2380.655519680115, 2381.265757735664, 2381.8432531108465, 2382.4002715255297, 2382.9777704398875, 2383.5470800564995, 2384.10817383155, 2384.669278931962, 2385.238599520017, 2385.83245083997, 2386.4058669616925, 2386.9833340234727]",7,R,ITM,1.05
5,400,trial,0,59,59,59,"['S', 'S', 'S', 'S', 'S', 'S', 'C', 'C', 'C', 'C', 'C', 'C', 'C', 'C', 'C', 'C', 'C', 'C', 'C', 'C', 'C', 'C']","[2393.2948157806163, 2393.708462203554, 2394.1180452993203, 2394.5071670069583, 2394.916693122002, 2395.3221934251324, 2395.7358501116787, 2396.149497950287, 2396.530399569353, 2396.923600884369, 2397.3249755708425, 2397.709956089452, 2398.1113488257192, 2398.512704400646, 2398.8936474280636, 2399.2908894195293, 2399.6881731732633, 2400.0936571961875, 2400.4745666014396, 2400.8841178446282, 2401.2855565901746, 2401.6951099568682]","[2393.4340639252923, 2393.8518281787015, 2394.253189062391, 2394.6546171904115, 2395.0477664795503, 2395.461414672076, 2395.8587065659135, 2396.272384841429, 2396.6655985435586, 2397.066925805083, 2397.4560273394213, 2397.841026969578, 2398.250612188849, 2398.6355679332314, 2399.016494326525, 2399.405564716121, 2399.8028491776904, 2400.2042539471536, 2400.5769666223914, 2400.986553257333, 2401.404252035999, 2401.776951262371]","[2392.5576434330424, 2392.954874099147, 2393.3562512630433, 2393.757619579001, 2394.154899085725, 2394.55627058694, 2394.9576658006304, 2395.3590422566913, 2395.7604052638862, 2396.174086370742, 2396.559059811001, 2396.9522490928207, 2397.3495710696484, 2397.734579547743, 2398.140000927264, 2398.5413777372423, 2398.9181795756317, 2399.3154544814274, 2399.716859250891, 2400.118230398189, 2400.4991298937503, 2400.90869387797, 2401.3100834289794, 2401.7237252509894]",7,R,ITM,1.05
2,600,trial,0,60,60,60,"['S', 'S', 'S', 'S', 'S', 'S', 'S', 'C', 'C', 'C', 'C', 'C', 'C', 'C', 'C', 'C', 'C', 'C', 'C', 'C', 'C', 'C', 'C']","[2407.732124067914, 2408.485735530878, 2409.1165737102274, 2409.6898450796793, 2410.29602936383, 2410.885846377849, 2411.5001438674763, 2412.106302315647, 2412.7247717851283, 2413.310442655273, 2413.8715428008395, 2414.469506642501, 2415.0838678372843, 2415.6777697674443, 2416.2757060035383, 2416.869595546585, 2417.48805015153, 2418.114689453293, 2418.6962931031735, 2419.2410004965463, 2419.8225949445714, 2420.412398509724, 2421.002137661886]","[2408.1089145809424, 2408.809281274896, 2409.419539857661, 2409.956072817824, 2410.5458788603996, 2411.1479116919136, 2411.770466431453, 2412.3602459302138, 2412.941804632568, 2413.5807528321366, 2414.1787269374063, 2414.73982743689, 2415.2722627398807, 2415.8415787270083, 2416.423169635858, 2417.053900932113, 2417.631400908223, 2418.2334503738607, 2418.8519170120016, 2419.429378057184, 2420.0150843190822, 2420.658119204379, 2421.2233683251598]","[2407.3185406422967, 2407.916419189833, 2408.514367105206, 2409.1164930170303, 2409.718529387719, 2410.3164957068034, 2410.9185419871833, 2411.516502643587, 2412.1349816688416, 2412.7534398129615, 2413.3390883863026, 2413.900211890426, 2414.4981831643554, 2415.1125291406847, 2415.706414436721, 2416.3002742506947, 2416.8941673329164, 2417.516709331425, 2418.143391103292, 2418.7249459125533, 2419.265566974115, 2419.847176286676, 2420.441032915392, 2421.030810644565]",7,R,ITM,1.05
4,400,trial,0,61,61,61,"['S', 'S', 'S', 'S', 'S', 'S', 'C', 'C', 'C', 'C', 'C', 'C', 'C', 'C', 'C', 'C', 'C', 'C', 'C', 'C', 'C', 'C']","[2427.3340765601483, 2427.7559473186675, 2428.165489713918, 2428.570983292615, 2428.9887390520034, 2429.3737390360775, 2429.758759547368, 2430.1478076401595, 2430.5574126788124, 2430.9341777097784, 2431.3355661990354, 2431.7369525647873, 2432.1178559534414, 2432.523325819664, 2432.932909269348, 2433.321986383377, 2433.7274435085687, 2434.1001402575175, 2434.4974286121796, 2434.878314658875, 2435.271531192345, 2435.652419362545]","[2427.4978830422892, 2427.9115683961554, 2428.3252141112584, 2428.706134487954, 2429.107503511747, 2429.500698456247, 2429.9143597437214, 2430.2665795321705, 2430.676154133916, 2431.0447691519817, 2431.4502683933597, 2431.85161051942, 2432.2284403172944, 2432.6216016396293, 2433.043466381551, 2433.424361984019, 2433.81343025011, 2434.2025310766135, 2434.6039517723657, 2434.9889581269554, 2435.3862344484214, 2435.779386922818]","[2426.6132686513656, 2427.0105435571613, 2427.4118832057993, 2427.8133085024792, 2428.214640011014, 2428.6119244725833, 2429.0132945581286, 2429.4146897718188, 2429.783280723492, 2430.1723819039134, 2430.5819844651437, 2430.9587632988937, 2431.3601305530988, 2431.7614988690566, 2432.1465016844704, 2432.5478894658922, 2432.957469022483, 2433.3465443669247, 2433.756105519804, 2434.1247109820965, 2434.521996859336, 2434.9028921078866, 2435.2960937768203, 2435.6769847783607]",7,R,ITM,1.05
3,400,trial,0,62,62,62,"['S', 'S', 'S', 'S', 'S', 'S', 'S', 'C', 'C', 'C', 'C', 'C', 'C', 'C', 'C', 'C', 'C', 'C', 'C', 'C', 'C', 'C', 'C']","[2441.4683641967117, 2441.84917238155, 2442.242392454195, 2442.635568287149, 2443.061530332325, 2443.458829304513, 2443.8437931889985, 2444.257448459875, 2444.6793114322086, 2445.0806949666203, 2445.4861743886163, 2445.87935305291, 2446.2725310093692, 2446.6616410377287, 2447.06298882647, 2447.4275412251986, 2447.857571552392, 2448.2302792727846, 2448.6193737287726, 2449.0125888465723, 2449.397565472089, 2449.7989171539225, 2450.2084892782455]","[2441.6198362989853, 2441.996649108818, 2442.373427234733, 2442.7748143083195, 2443.1803330151615, 2443.57757748405, 2443.9748332782992, 2444.392626199028, 2444.806284301245, 2445.1953773415626, 2445.5967350399947, 2445.9899168895463, 2446.387217631322, 2446.776321289166, 2447.1613064087032, 2447.55448613475, 2447.959954231385, 2448.35314422104, 2448.742238677028, 2449.139496240865, 2449.5327145439223, 2449.929985202708, 2450.3313743998]","[2441.071048944317, 2441.4682937671228, 2441.869665622256, 2442.26694796032, 2442.668316276278, 2443.0696891931634, 2443.46699701329, 2443.8683706380107, 2444.2820230775465, 2444.7038754323544, 2445.1093757354847, 2445.5148187039754, 2445.903921653984, 2446.297126154258, 2446.690289600098, 2447.0875613206363, 2447.4561685525164, 2447.8821461700636, 2448.254842919013, 2448.643916139949, 2449.0371064835213, 2449.422108237183, 2449.8234878785015, 2450.237149519893]",7,R,ITM,1.05
6,600,trial,0,63,63,63,"['S', 'S', 'S', 'S', 'C', 'C', 'C', 'C', 'C', 'C', 'C', 'C', 'C', 'C', 'C', 'C', 'C', 'C', 'C', 'C']","[2458.219659623354, 2458.8053446502004, 2459.403306722274, 2460.001272687441, 2460.5910666968202, 2461.1480868810913, 2461.713276897644, 2462.2703211483067, 2462.843697985183, 2463.4007142763608, 2463.986400718877, 2464.559783926269, 2465.137278947534, 2465.6943001935574, 2466.234956646872, 2466.7591552271674, 2467.299808495224, 2467.864997450024, 2468.446590482379, 2469.024082672304]","[2458.432627727952, 2458.9855460080403, 2459.5917140119845, 2460.1814715678584, 2460.738517942026, 2461.3241919974294, 2461.901670738488, 2462.450516843466, 2463.0157061521836, 2463.5645285446876, 2464.1952761211487, 2464.6908218920644, 2465.264244384302, 2465.83763962489, 2466.3823937353764, 2466.9762333760514, 2467.537354756669, 2468.1107461041643, 2468.622691705624, 2469.1797104742245]","[2455.8605409204756, 2456.4625981722993, 2457.0605928047858, 2457.6626405008356, 2458.2606004494046, 2458.862671150094, 2459.4606385309307, 2460.062714894301, 2460.6197297698086, 2461.1726434489688, 2461.7419888112513, 2462.2989863447997, 2462.8682810968753, 2463.429359653472, 2464.015041495061, 2464.5843475724973, 2465.161861705309, 2465.7229487559266, 2466.2594930414502, 2466.7837263056635, 2467.3284570575934, 2467.88956145017, 2468.471157313865, 2469.0527255719926]",7,R,ITM,1.05
7,600,trial,0,64,64,64,"['S', 'S', 'S', 'S', 'S', 'S', 'C', 'C', 'C', 'C', 'C', 'C', 'C', 'C', 'C', 'C', 'C', 'C', 'C', 'C', 'C', 'C']","[2475.56900029269, 2476.179251797105, 2476.769038374216, 2477.358858573493, 2477.9568432962888, 2478.554754758156, 2479.2141491273987, 2479.7834622831856, 2480.2954284118623, 2480.880180866015, 2481.4749913024766, 2482.0156378461, 2482.625848649999, 2483.223822047434, 2483.8054267590674, 2484.423871100404, 2484.993178947428, 2485.5706654746723, 2486.189109816009, 2486.770762306509, 2487.3359257792467, 2487.929784531468]","[2475.835208211453, 2476.4209095185056, 2477.0188595573836, 2477.690548313813, 2478.272120111116, 2478.8578330974474, 2479.394361456682, 2479.939118398509, 2480.5042839947523, 2481.061308426033, 2481.6265186158853, 2482.2163020077387, 2482.8388323269687, 2483.3835517535376, 2483.9528677406647, 2484.5713343788057, 2485.116030446817, 2485.7058195013515, 2486.3283689321283, 2486.9427609177365, 2487.593935198408, 2488.0690337378965]","[2474.409934181957, 2475.0119850632645, 2475.609940056988, 2476.2120128811825, 2476.8099784924316, 2477.412047777451, 2478.010016573958, 2478.6120628543376, 2479.2387159588848, 2479.808056720239, 2480.319985687575, 2480.9056958425663, 2481.4995432694263, 2482.044271190016, 2482.6504190206606, 2483.2483966651057, 2483.830001730657, 2484.4484354544675, 2485.017772322729, 2485.5993292554954, 2486.217756254873, 2486.7993942347543, 2487.3604855323824, 2487.9584472505385]",7,R,ITM,1.05
4,400,trial,0,65,65,65,"['S', 'S', 'S', 'S', 'S', 'S', 'S', 'S', 'S', 'C', 'C', 'C', 'C', 'C', 'C', 'C', 'C', 'C', 'C', 'C', 'C', 'C', 'C', 'C', 'C']","[2493.5531557587515, 2493.6514531676858, 2493.88491309732, 2494.163413633682, 2494.519799031469, 2494.917024388811, 2495.3143074347104, 2495.71567114974, 2496.108879189189, 2496.518434679388, 2496.9239027760227, 2497.3457710571197, 2497.743045962916, 2498.1485257388294, 2498.5212331053044, 2498.918511196358, 2499.3403518718874, 2499.7499374450763, 2500.1390258844663, 2500.540395970012, 2500.909020543851, 2501.3062777537702, 2501.711751159168, 2502.11316194523, 2502.514542294384]","[2493.557226872109, 2493.6555571953736, 2493.884962645774, 2494.265814362469, 2494.630306595218, 2495.043988055991, 2495.4371737986357, 2495.8467784833715, 2496.2604011938347, 2496.6576899024144, 2497.04265661824, 2497.4645171131515, 2497.874134538918, 2498.263171660266, 2498.656376868375, 2499.0495537630813, 2499.4591421676105, 2499.852311983966, 2500.2577836197765, 2500.659184496147, 2501.052357851678, 2501.441448768491, 2501.8428291176447, 2502.236003888846, 2502.6291910471605]","[2493.356607657997, 2493.753844694617, 2494.1552261055235, 2494.5566014998317, 2494.953885253566, 2495.355258524369, 2495.756668248678, 2496.153898206948, 2496.543005757884, 2496.948466776169, 2497.3703449669565, 2497.7676545566705, 2498.173095047738, 2498.545773039058, 2498.9471686066654, 2499.3649247199714, 2499.774493305119, 2500.163626338118, 2500.564991468818, 2500.9336284297706, 2501.330861573298, 2501.736310912304, 2502.141818293785, 2502.539148764633]",7,R,ITM,1.05
4,600,trial,0,66,66,66,"['S', 'S', 'S', 'S', 'S', 'S', 'C', 'C', 'C', 'C', 'C', 'C', 'C', 'C', 'C', 'C', 'C', 'C', 'C', 'C', 'C', 'C']","[2509.3502431590396, 2509.9768629953387, 2510.578926971595, 2511.185091082446, 2511.7953369241804, 2512.3728503491575, 2512.950339707742, 2513.511519130835, 2514.088926026635, 2514.674657416678, 2515.248020096853, 2515.837797826026, 2516.4357708695434, 2517.017370980249, 2517.594860692751, 2518.1887102431165, 2518.758017028388, 2519.3355124035706, 2519.929462466515, 2520.519161979914, 2521.0884769052886, 2521.6495766969374]","[2509.6492075609526, 2510.2840389918024, 2510.8861280962033, 2511.4881881793667, 2512.012444094302, 2512.618619530514, 2513.2083753168004, 2513.76951226979, 2514.375699031363, 2514.9449516672526, 2515.5347580637454, 2516.1121950425354, 2516.640564540932, 2517.287660275978, 2517.893880305799, 2518.459061828331, 2519.011964536048, 2519.609957045029, 2520.1546520512884, 2520.7690005050404, 2521.375169570737]","[2508.2280311886284, 2508.8259840588466, 2509.4239517936007, 2510.026004798414, 2510.628085408794, 2511.2260556209712, 2511.8280994239285, 2512.42609476425, 2512.9749068931455, 2513.536018010155, 2514.1134978129667, 2514.6991725762045, 2515.2766881246866, 2515.8623720897804, 2516.4644845527387, 2517.041914453178, 2517.619471410011, 2518.213269288417, 2518.7825898764722, 2519.360081358562, 2519.9580459080585, 2520.5478303616646, 2521.113046568115, 2521.6741325569797]",7,R,ITM,1.05
