octave,ioi,event,.thisRepN,.thisTrialN,.thisN,.thisIndex,event,tap_types,tap_times,release_times,tone_times,subject,handedness,experiment,version,
,,SPR,0,-1,-1,0,SPR,"['P', 'P', 'P', 'P', 'P', 'P', 'P', 'P', 'P', 'P', 'P', 'P', 'P', 'P', 'P', 'P', 'P', 'P', 'P', 'P', 'P', 'P', 'P', 'P', 'P', 'P', 'P', 'P', 'P', 'P']","[66585, 67092, 67658, 68207, 68748, 69309, 69841, 70419, 70998, 71554, 72104, 72641, 73166, 73729, 74250, 74781, 75308, 75848, 76365, 76933, 77436, 77929, 78401, 78953, 79436, 79924, 80411, 80873, 81387, 81921]","[66733, 67226, 67776, 68301, 68841, 69402, 69929, 70529, 71090, 71646, 72196, 72729, 73251, 73821, 74354, 74900, 75449, 76022, 76538, 77034, 77502, 77987, 78474, 79031, 79553, 80021, 80485, 80952, 81469, 81996]",,16,R,ITM,1.1,
7,500,practice,0,0,0,0,practice,"['B', 'S', 'S', 'S', 'S', 'S', 'S', 'C', 'C', 'C', 'C', 'C', 'C', 'C', 'C', 'C', 'C', 'C', 'C', 'C', 'C', 'C', 'C']","[176878, 177675, 178274, 178812, 179329, 179847, 180331, 180879, 181354, 181812, 182278, 182734, 183191, 183656, 184090, 184544, 184976, 185406, 185854, 186277, 186720, 187145, 187560]","[176910, 177755, 178354, 178899, 179422, 179931, 180411, 180959, 181439, 181900, 182365, 182832, 183277, 183738, 184183, 184646, 185070, 185506, 185968, 186372, 186820, 187246, 187669]","[176891, 177390, 177890, 178391, 178890, 179390, 179891, 180391, 180905, 181382, 181838, 182305, 182761, 183218, 183684, 184118, 184571, 185004, 185433, 185881, 186305, 186746, 187172, 187587]",16,R,ITM,1.1,
2,500,practice,0,1,1,1,practice,"['S', 'S', 'S', 'S', 'S', 'S', 'S', 'C', 'C', 'C', 'C', 'C', 'C', 'C', 'C', 'C', 'C', 'C', 'C', 'C', 'C', 'C', 'C']","[193349, 193913, 194407, 194908, 195418, 195910, 196411, 196921, 197383, 197863, 198335, 198806, 199280, 199761, 200218, 200689, 201178, 201601, 202102, 202552, 203036, 203491, 203974]","[193476, 194013, 194514, 195011, 195523, 196015, 196490, 196985, 197439, 197934, 198426, 198919, 199374, 199853, 200297, 200778, 201257, 201701, 202204, 202663, 203124, 203607, 204052]","[192976, 193475, 193976, 194476, 194975, 195476, 195977, 196476, 196947, 197409, 197891, 198362, 198834, 199307, 199789, 200246, 200717, 201204, 201628, 202129, 202578, 203063, 203517, 204002]",16,R,ITM,1.1,
4,500,practice,0,2,2,2,practice,"['S', 'S', 'S', 'S', 'S', 'S', 'S', 'S', 'C', 'C', 'C', 'C', 'C', 'C', 'C', 'C', 'C', 'C', 'C', 'C', 'C', 'C', 'C', 'C']","[209882, 210219, 210664, 211128, 211659, 212166, 212635, 213144, 213659, 214139, 214665, 215163, 215620, 216144, 216648, 217147, 217638, 218125, 218604, 219078, 219604, 220083, 220582, 221078]","[209956, 210330, 210768, 211234, 211746, 212252, 212727, 213256, 213760, 214270, 214782, 215274, 215731, 216271, 216787, 217292, 217760, 218281, 218757, 219240, 219726, 220212, 220725, 221205]","[209699, 210198, 210698, 211198, 211698, 212198, 212699, 213198, 213685, 214165, 214690, 215189, 215646, 216170, 216674, 217172, 217664, 218150, 218631, 219105, 219630, 220108, 220608, 221104]",16,R,ITM,1.1,
6,500,practice,0,3,3,3,practice,"['S', 'S', 'S', 'S', 'S', 'S', 'S', 'C', 'C', 'C', 'C', 'C', 'C', 'C', 'C', 'C', 'C', 'C', 'C', 'C', 'C', 'C', 'C']","[227016, 227522, 228024, 228519, 229032, 229562, 230020, 230521, 231023, 231537, 232016, 232532, 233005, 233522, 234005, 234485, 234973, 235470, 235914, 236400, 236877, 237320, 237832]","[227116, 227624, 228125, 228649, 229149, 229658, 230121, 230610, 231118, 231649, 232133, 232647, 233131, 233643, 234131, 234595, 235094, 235581, 236025, 236529, 236983, 237427, 237949]","[226598, 227098, 227598, 228099, 228598, 229098, 229598, 230098, 230549, 231050, 231564, 232043, 232559, 233032, 233548, 234032, 234512, 234999, 235497, 235940, 236427, 236904, 237347, 237858]",16,R,ITM,1.1,
3,500,practice,0,4,4,4,practice,"['S', 'S', 'S', 'S', 'S', 'S', 'S', 'S', 'C', 'C', 'C', 'C', 'C', 'C', 'C', 'C', 'C', 'C', 'C', 'C', 'C', 'C', 'C', 'C']","[243419, 243734, 244146, 244627, 245127, 245618, 246125, 246624, 247126, 247636, 248109, 248596, 249092, 249571, 250080, 250553, 251051, 251551, 252035, 252541, 253022, 253489, 253989, 254478]","[243473, 243850, 244274, 244755, 245229, 245733, 246236, 246737, 247222, 247754, 248233, 248725, 249234, 249703, 250187, 250657, 251159, 251660, 252144, 252643, 253111, 253608, 254123, 254587]","[243171, 243672, 244171, 244671, 245171, 245671, 246171, 246671, 247151, 247661, 248134, 248622, 249117, 249596, 250105, 250578, 251076, 251577, 252060, 252567, 253047, 253514, 254015, 254503]",16,R,ITM,1.1,
5,500,practice,0,5,5,5,practice,"['S', 'S', 'S', 'S', 'S', 'S', 'S', 'S', 'C', 'C', 'C', 'C', 'C', 'C', 'C', 'C', 'C', 'C', 'C', 'C', 'C', 'C', 'C', 'C']","[260127, 260465, 260894, 261411, 261871, 262352, 262846, 263343, 263864, 264357, 264846, 265350, 265801, 266317, 266790, 267246, 267736, 268207, 268698, 269216, 269717, 270176, 270660, 271125]","[260212, 260579, 261020, 261515, 261976, 262450, 262952, 263462, 263963, 264454, 264943, 265442, 265893, 266408, 266895, 267348, 267836, 268326, 268825, 269318, 269810, 270275, 270759, 271239]","[259941, 260441, 260940, 261440, 261940, 262440, 262940, 263440, 263890, 264384, 264871, 265376, 265827, 266343, 266817, 267272, 267761, 268232, 268724, 269242, 269743, 270201, 270686, 271152]",16,R,ITM,1.1,
4,600,trial,0,6,6,6,trial,"['S', 'S', 'S', 'S', 'S', 'S', 'S', 'C', 'C', 'C', 'C', 'C', 'C', 'C', 'C', 'C', 'C', 'C', 'C', 'C', 'C', 'C', 'C']","[323995, 324561, 325137, 325773, 326387, 326977, 327610, 328200, 328771, 329323, 329876, 330428, 330977, 331499, 332047, 332581, 333123, 333702, 334214, 334757, 335335, 335882, 336413]","[324091, 324648, 325225, 325854, 326468, 327061, 327683, 328274, 328850, 329412, 329985, 330536, 331075, 331622, 332169, 332705, 333250, 333842, 334344, 334889, 335456, 336021, 336539]","[323528, 324127, 324727, 325327, 325927, 326528, 327128, 327728, 328225, 328797, 329349, 329903, 330454, 331002, 331525, 332072, 332607, 333149, 333727, 334240, 334783, 335361, 335907, 336439]",16,R,ITM,1.1,
5,400,trial,0,7,7,7,trial,"['S', 'S', 'S', 'S', 'S', 'S', 'S', 'C', 'C', 'C', 'C', 'C', 'C', 'C', 'C', 'C', 'C', 'C', 'C', 'C', 'C', 'C', 'C']","[341995, 342571, 343083, 343347, 343705, 344100, 344501, 344931, 345310, 345691, 346081, 346475, 346857, 347245, 347615, 347994, 348347, 348726, 349110, 349478, 349811, 350210, 350556]","[342074, 342648, 343158, 343429, 343785, 344185, 344581, 344999, 345392, 345778, 346171, 346560, 346943, 347330, 347713, 348106, 348474, 348866, 349225, 349579, 349921, 350332, 350684]","[341781, 342180, 342580, 342980, 343380, 343780, 344180, 344581, 344957, 345335, 345717, 346107, 346501, 346883, 347271, 347641, 348019, 348374, 348751, 349135, 349504, 349837, 350235, 350582]",16,R,ITM,1.1,
6,600,trial,0,8,8,8,trial,"['S', 'S', 'S', 'S', 'S', 'S', 'S', 'S', 'C', 'C', 'C', 'C', 'C', 'C', 'C', 'C', 'C', 'C', 'C', 'C', 'C', 'C', 'C', 'C']","[356389, 356850, 357331, 357926, 358521, 359135, 359724, 360291, 360895, 361479, 362019, 362596, 363108, 363642, 364176, 364719, 365254, 365792, 366305, 366826, 367361, 367896, 368432, 368969]","[356511, 356971, 357451, 358041, 358627, 359225, 359825, 360402, 360993, 361566, 362114, 362687, 363213, 363738, 364260, 364800, 365355, 365870, 366383, 366909, 367432, 367978, 368513, 369043]","[356227, 356826, 357426, 358025, 358625, 359225, 359825, 360425, 360922, 361505, 362046, 362624, 363134, 363669, 364203, 364745, 365281, 365818, 366331, 366853, 367387, 367923, 368458, 368996]",16,R,ITM,1.1,
3,600,trial,0,9,9,9,trial,"['S', 'S', 'S', 'S', 'S', 'S', 'S', 'C', 'C', 'C', 'C', 'C', 'C', 'C', 'C', 'C', 'C', 'C', 'C', 'C', 'C', 'C', 'C']","[375170, 375714, 376344, 376946, 377552, 378199, 378811, 379394, 379969, 380568, 381178, 381770, 382348, 382915, 383500, 384087, 384648, 385203, 385769, 386302, 386844, 387393, 387938]","[375261, 375801, 376453, 377033, 377646, 378293, 378906, 379495, 380066, 380659, 381266, 381840, 382438, 382997, 383564, 384161, 384729, 385280, 385840, 386400, 386972, 387479, 388029]","[374706, 375306, 375906, 376506, 377106, 377706, 378306, 378906, 379419, 379995, 380594, 381204, 381796, 382373, 382941, 383525, 384112, 384673, 385228, 385795, 386328, 386870, 387419, 387963]",16,R,ITM,1.1,
5,600,trial,0,10,10,10,trial,"['S', 'S', 'S', 'S', 'S', 'S', 'S', 'S', 'C', 'C', 'C', 'C', 'C', 'C', 'C', 'C', 'C', 'C', 'C', 'C', 'C', 'C', 'C', 'C']","[393575, 393970, 394459, 395042, 395631, 396236, 396857, 397469, 398073, 398641, 399209, 399799, 400343, 400940, 401496, 402057, 402598, 403165, 403733, 404310, 404870, 405425, 405980, 406528]","[393657, 394062, 394546, 395121, 395708, 396351, 396955, 397560, 398147, 398713, 399290, 399877, 400421, 400991, 401553, 402127, 402677, 403250, 403807, 404376, 404942, 405517, 406066, 406601]","[393387, 393986, 394586, 395186, 395786, 396386, 396986, 397586, 398100, 398666, 399235, 399824, 400369, 400965, 401521, 402083, 402624, 403190, 403760, 404335, 404895, 405450, 406006, 406553]",16,R,ITM,1.1,
7,400,trial,0,11,11,11,trial,"['S', 'S', 'S', 'S', 'S', 'S', 'S', 'C', 'C', 'C', 'C', 'C', 'C', 'C', 'C', 'C', 'C', 'C', 'C', 'C', 'C', 'C', 'C']","[412607, 412964, 413323, 413721, 414085, 414504, 414869, 415289, 415656, 416043, 416411, 416812, 417185, 417571, 417975, 418350, 418724, 419097, 419493, 419865, 420255, 420621, 420979]","[412680, 413039, 413398, 413791, 414162, 414578, 414950, 415365, 415740, 416106, 416489, 416870, 417261, 417661, 418059, 418439, 418812, 419200, 419577, 419954, 420361, 420712, 421052]","[412174, 412573, 412974, 413373, 413773, 414174, 414574, 414974, 415315, 415683, 416069, 416439, 416838, 417213, 417598, 418002, 418376, 418751, 419124, 419520, 419893, 420283, 420647, 421007]",16,R,ITM,1.1,
7,600,trial,0,12,12,12,trial,"['S', 'S', 'S', 'S', 'S', 'S', 'S', 'S', 'C', 'C', 'C', 'C', 'C', 'C', 'C', 'C', 'C', 'C', 'C', 'C', 'C', 'C', 'C', 'C']","[426913, 427236, 427689, 428338, 428926, 429541, 430123, 430691, 431284, 431850, 432448, 433014, 433615, 434143, 434782, 435397, 435982, 436566, 437121, 437771, 438365, 438950, 439556, 440151]","[426945, 427325, 427785, 428411, 428995, 429609, 430192, 430769, 431350, 431931, 432536, 433107, 433712, 434240, 434875, 435507, 436093, 436723, 437303, 437920, 438520, 439106, 439736, 440288]","[426686, 427286, 427886, 428486, 429086, 429686, 430286, 430886, 431311, 431877, 432476, 433041, 433643, 434169, 434808, 435424, 436008, 436592, 437148, 437797, 438391, 438977, 439582, 440177]",16,R,ITM,1.1,
2,600,trial,0,13,13,13,trial,"['S', 'S', 'S', 'S', 'S', 'S', 'S', 'C', 'C', 'C', 'C', 'C', 'C', 'C', 'C', 'C', 'C', 'C', 'C', 'C', 'C', 'C', 'C']","[446459, 447037, 447629, 448237, 448836, 449491, 450089, 450670, 451263, 451814, 452372, 452942, 453511, 454066, 454611, 455160, 455737, 456267, 456829, 457375, 457883, 458441, 458960]","[446555, 447117, 447720, 448324, 448954, 449606, 450184, 450764, 451349, 451914, 452480, 453061, 453606, 454163, 454688, 455255, 455834, 456379, 456927, 457485, 458008, 458557, 459049]","[445955, 446554, 447155, 447754, 448354, 448954, 449554, 450154, 450697, 451291, 451842, 452400, 452969, 453538, 454092, 454639, 455188, 455764, 456294, 456856, 457403, 457911, 458469, 458988]",16,R,ITM,1.1,
2,600,trial,0,14,14,14,trial,"['S', 'S', 'S', 'S', 'S', 'S', 'S', 'S', 'C', 'C', 'C', 'C', 'C', 'C', 'C', 'C', 'C', 'C', 'C', 'C', 'C', 'C', 'C', 'C']","[464594, 465037, 465574, 466179, 466805, 467428, 468006, 468611, 469201, 469800, 470402, 470953, 471569, 472183, 472735, 473308, 473882, 474468, 475035, 475592, 476158, 476743, 477309, 477891]","[464669, 465143, 465692, 466280, 466893, 467531, 468110, 468726, 469310, 469911, 470518, 471087, 471690, 472307, 472882, 473461, 473995, 474605, 475196, 475721, 476299, 476895, 477470, 478073]","[464505, 465105, 465705, 466306, 466906, 467505, 468105, 468705, 469228, 469828, 470429, 470981, 471597, 472211, 472762, 473334, 473910, 474494, 475063, 475620, 476186, 476771, 477337, 477919]",16,R,ITM,1.1,
2,400,trial,0,15,15,15,trial,"['S', 'S', 'S', 'S', 'S', 'C', 'C', 'C', 'C', 'C', 'C', 'C', 'C', 'C', 'C', 'C', 'C', 'C', 'C', 'C', 'C']","[483580, 484877, 485229, 485656, 486043, 486464, 486830, 487225, 487613, 488019, 488402, 488797, 489175, 489571, 489946, 490347, 490742, 491146, 491509, 491916, 492314]","[483661, 484922, 485298, 485723, 486120, 486533, 486916, 487318, 487703, 488094, 488478, 488877, 489271, 489659, 490045, 490431, 490835, 491233, 491593, 492014, 492407]","[483359, 483760, 484159, 484559, 484958, 485358, 485760, 486159, 486492, 486856, 487251, 487641, 488047, 488429, 488823, 489202, 489598, 489972, 490374, 490769, 491173, 491537, 491943, 492341]",16,R,ITM,1.1,
5,600,trial,0,16,16,16,trial,"['S', 'S', 'S', 'S', 'S', 'S', 'S', 'C', 'C', 'C', 'C', 'C', 'C', 'C', 'C', 'C', 'C', 'C', 'C', 'C', 'C', 'C', 'C']","[498448, 499048, 499601, 500180, 500780, 501403, 502032, 502626, 503227, 503815, 504382, 504952, 505541, 506122, 506669, 507210, 507773, 508309, 508838, 509362, 509899, 510458, 511022]","[498548, 499143, 499703, 500291, 500888, 501492, 502098, 502699, 503315, 503905, 504479, 505021, 505630, 506191, 506762, 507308, 507878, 508396, 508940, 509451, 510008, 510532, 511119]","[497930, 498529, 499129, 499729, 500329, 500929, 501529, 502129, 502651, 503252, 503840, 504408, 504979, 505567, 506147, 506694, 507237, 507800, 508336, 508864, 509387, 509925, 510485, 511048]",16,R,ITM,1.1,
4,400,trial,0,17,17,17,trial,"['S', 'S', 'S', 'S', 'S', 'S', 'S', 'C', 'C', 'C', 'C', 'C', 'C', 'C', 'C', 'C', 'C', 'C', 'C', 'C', 'C', 'C', 'C']","[517003, 517307, 517651, 518010, 518402, 518801, 519185, 519582, 519922, 520292, 520684, 521074, 521434, 521791, 522153, 522535, 522918, 523298, 523689, 524035, 524425, 524778, 525147]","[517082, 517395, 517727, 518107, 518501, 518893, 519273, 519658, 520011, 520386, 520771, 521160, 521519, 521893, 522250, 522637, 523024, 523399, 523780, 524144, 524535, 524883, 525243]","[516502, 516901, 517301, 517701, 518102, 518501, 518901, 519302, 519608, 519948, 520317, 520710, 521100, 521459, 521817, 522180, 522561, 522944, 523324, 523714, 524060, 524450, 524804, 525173]",16,R,ITM,1.1,
7,600,trial,0,18,18,18,trial,"['S', 'S', 'S', 'S', 'S', 'S', 'S', 'S', 'C', 'C', 'C', 'C', 'C', 'C', 'C', 'C', 'C', 'C', 'C', 'C', 'C', 'C', 'C', 'C']","[533528, 533918, 534503, 535111, 535717, 536326, 536985, 537521, 538140, 538725, 539298, 539879, 540460, 541022, 541624, 542166, 542756, 543303, 543862, 544436, 544963, 545552, 546088, 546609]","[533601, 534040, 534617, 535245, 535833, 536453, 537072, 537659, 538259, 538835, 539414, 539994, 540585, 541152, 541746, 542286, 542912, 543414, 543981, 544558, 545087, 545682, 546238, 546784]","[533385, 533984, 534584, 535184, 535784, 536384, 536984, 537584, 538167, 538753, 539325, 539906, 540487, 541048, 541651, 542192, 542783, 543331, 543890, 544463, 544991, 545580, 546115, 546636]",16,R,ITM,1.1,
6,400,trial,0,19,19,19,trial,"['S', 'S', 'S', 'S', 'S', 'C', 'C', 'C', 'C', 'C', 'C', 'C', 'C', 'C', 'C', 'C', 'C', 'C', 'C', 'C', 'C']","[553201, 553593, 553978, 554412, 554808, 555226, 555623, 556009, 556369, 556766, 557160, 557565, 557956, 558377, 558775, 559180, 559555, 559941, 560358, 560762, 561166]","[553272, 553658, 554062, 554500, 554905, 555316, 555713, 556086, 556457, 556858, 557253, 557654, 558045, 558472, 558862, 559263, 559647, 560043, 560470, 560881, 561283]","[552119, 552518, 552919, 553318, 553718, 554119, 554518, 554918, 555252, 555650, 556036, 556397, 556792, 557188, 557592, 557982, 558405, 558801, 559207, 559582, 559968, 560385, 560790, 561193]",16,R,ITM,1.1,
3,600,trial,0,20,20,20,trial,"['S', 'S', 'S', 'S', 'S', 'S', 'S', 'C', 'C', 'C', 'C', 'C', 'C', 'C', 'C', 'C', 'C', 'C', 'C', 'C', 'C', 'C', 'C']","[567420, 567947, 568525, 569115, 569714, 570335, 570905, 571540, 572143, 572684, 573274, 573850, 574395, 574978, 575577, 576109, 576658, 577224, 577783, 578338, 578882, 579375, 579989]","[567534, 568069, 568604, 569234, 569848, 570479, 571040, 571668, 572258, 572805, 573388, 573939, 574502, 575089, 575644, 576199, 576751, 577333, 577891, 578435, 578982, 579504, 580129]","[566778, 567378, 567979, 568579, 569179, 569778, 570378, 570978, 571566, 572169, 572709, 573299, 573876, 574420, 575003, 575602, 576135, 576684, 577250, 577809, 578364, 578908, 579400, 580015]",16,R,ITM,1.1,
4,600,trial,0,21,21,21,trial,"['S', 'S', 'S', 'S', 'S', 'S', 'S', 'C', 'C', 'C', 'C', 'C', 'C', 'C', 'C', 'C', 'C', 'C', 'C', 'C', 'C', 'C', 'C']","[585995, 586585, 587210, 587819, 588422, 589045, 589656, 590231, 590807, 591374, 591996, 592542, 593106, 593705, 594289, 594831, 595421, 595983, 596546, 597123, 597734, 598265, 598859]","[586097, 586667, 587291, 587922, 588548, 589186, 589773, 590353, 590934, 591478, 592093, 592638, 593204, 593813, 594398, 594939, 595519, 596076, 596625, 597216, 597807, 598340, 598996]","[585559, 586158, 586758, 587357, 587957, 588557, 589157, 589757, 590257, 590832, 591399, 592022, 592568, 593133, 593731, 594315, 594856, 595446, 596009, 596572, 597148, 597760, 598292, 598885]",16,R,ITM,1.1,
7,400,trial,0,22,22,22,trial,"['S', 'S', 'S', 'S', 'S', 'S', 'S', 'C', 'C', 'C', 'C', 'C', 'C', 'C', 'C', 'C', 'C', 'C', 'C', 'C', 'C', 'C', 'C']","[604850, 605119, 605472, 605861, 606270, 606687, 607100, 607482, 607840, 608259, 608617, 609038, 609420, 609819, 610206, 610616, 610968, 611347, 611774, 612169, 612559, 612912, 613318]","[604906, 605200, 605544, 605941, 606345, 606764, 607162, 607555, 607919, 608327, 608688, 609108, 609490, 609896, 610287, 610679, 611048, 611442, 611866, 612279, 612662, 613025, 613415]","[604338, 604737, 605137, 605537, 605937, 606338, 606737, 607137, 607510, 607866, 608285, 608645, 609065, 609447, 609846, 610233, 610642, 610995, 611374, 611802, 612197, 612586, 612938, 613345]",16,R,ITM,1.1,
6,600,trial,0,23,23,23,trial,"['S', 'S', 'S', 'S', 'S', 'S', 'S', 'C', 'C', 'C', 'C', 'C', 'C', 'C', 'C', 'C', 'C', 'C', 'C', 'C', 'C', 'C', 'C']","[619421, 620120, 620784, 621415, 622021, 622592, 623200, 623785, 624343, 624891, 625469, 626013, 626585, 627107, 627667, 628174, 628713, 629264, 629830, 630325, 630895, 631428, 631976]","[619494, 620187, 620898, 621473, 622109, 622685, 623267, 623891, 624444, 624963, 625561, 626113, 626677, 627233, 627802, 628299, 628876, 629391, 630021, 630537, 631123, 631653]","[619085, 619684, 620284, 620884, 621485, 622085, 622685, 623284, 623812, 624369, 624918, 625496, 626040, 626613, 627134, 627694, 628201, 628741, 629291, 629857, 630351, 630923, 631454, 632003]",16,R,ITM,1.1,
6,400,trial,0,24,24,24,trial,"['S', 'S', 'S', 'S', 'S', 'S', 'S', 'C', 'C', 'C', 'C', 'C', 'C', 'C', 'C', 'C', 'C', 'C', 'C', 'C', 'C', 'C', 'C']","[637810, 638093, 638456, 638826, 639193, 639617, 640010, 640438, 640828, 641229, 641595, 641982, 642368, 642750, 643124, 643502, 643920, 644285, 644668, 645458, 645832, 646211, 646601]","[637883, 638178, 638533, 638909, 639295, 639692, 640098, 640515, 640926, 641294, 641665, 642074, 642470, 642829, 643229, 643634, 644030, 644389, 644780, 645576, 645958, 646334, 646731]","[637330, 637729, 638130, 638529, 638929, 639329, 639729, 640130, 640465, 640856, 641257, 641623, 642009, 642395, 642777, 643150, 643528, 643948, 644312, 644695, 645485, 645859, 646239, 646628]",16,R,ITM,1.1,
4,400,trial,0,25,25,25,trial,"['S', 'S', 'S', 'S', 'S', 'S', 'S', 'C', 'C', 'C', 'C', 'C', 'C', 'C', 'C', 'C', 'C', 'C', 'C', 'C', 'C', 'C', 'C']","[652534, 652861, 653219, 653609, 654014, 654404, 654798, 655164, 655556, 655949, 656311, 656702, 657060, 657449, 657815, 658193, 658591, 658945, 659323, 659716, 660091, 660449, 660810]","[652647, 652964, 653310, 653691, 654076, 654491, 654892, 655261, 655664, 656036, 656402, 656804, 657146, 657575, 657923, 658310, 658683, 659061, 659450, 659842, 660217, 660556, 660951]","[652092, 652491, 652892, 653291, 653691, 654091, 654491, 654892, 655190, 655582, 655975, 656336, 656728, 657086, 657475, 657841, 658219, 658617, 658970, 659349, 659741, 660117, 660474, 660836]",16,R,ITM,1.1,
5,400,trial,0,26,26,26,trial,"['S', 'S', 'S', 'S', 'S', 'S', 'S', 'S', 'C', 'C', 'C', 'C', 'C', 'C', 'C', 'C', 'C', 'C', 'C', 'C', 'C', 'C', 'C', 'C']","[666390, 666729, 666982, 667315, 667682, 668064, 668480, 668856, 669252, 669618, 669999, 670380, 670745, 671151, 671543, 671938, 672332, 672730, 673125, 673460, 673842, 674293, 674692, 675066]","[666483, 666814, 667088, 667404, 667777, 668165, 668552, 668944, 669337, 669710, 670085, 670465, 670845, 671259, 671637, 672037, 672430, 672832, 673215, 673564, 673977, 674401, 674795, 675172]","[666165, 666564, 666964, 667364, 667764, 668165, 668564, 668964, 669278, 669643, 670024, 670405, 670771, 671176, 671569, 671965, 672358, 672755, 673150, 673485, 673868, 674319, 674717, 675093]",16,R,ITM,1.1,
3,400,trial,0,27,27,27,trial,"['S', 'S', 'S', 'S', 'S', 'S', 'S', 'S', 'C', 'C', 'C', 'C', 'C', 'C', 'C', 'C', 'C', 'C', 'C', 'C', 'C', 'C', 'C', 'C']","[680792, 681160, 681430, 681769, 682162, 682550, 682957, 683339, 683712, 684096, 684463, 684880, 685259, 685665, 686033, 686411, 686813, 687216, 687597, 687977, 688382, 688774, 689164, 689540]","[680870, 681227, 681505, 681854, 682244, 682631, 683022, 683382, 683783, 684177, 684556, 684966, 685349, 685747, 686123, 686535, 686909, 687308, 687697, 688066, 688479, 688871, 689260, 689625]","[680600, 681000, 681400, 681800, 682201, 682600, 683000, 683400, 683738, 684122, 684488, 684906, 685285, 685690, 686059, 686437, 686838, 687242, 687623, 688003, 688408, 688799, 689189, 689565]",16,R,ITM,1.1,
2,400,trial,0,28,28,28,trial,"['S', 'S', 'S', 'S', 'S', 'S', 'S', 'C', 'C', 'C', 'C', 'C', 'C', 'C', 'C', 'C', 'C', 'C', 'C', 'C', 'C', 'C', 'C']","[695525, 695900, 696274, 696662, 697071, 697455, 697834, 698274, 698654, 699069, 699447, 699849, 700226, 700612, 700985, 701361, 701752, 702150, 702519, 702917, 703301, 703689, 704060]","[695613, 695982, 696364, 696763, 697152, 697543, 697911, 698339, 698733, 699130, 699516, 699913, 700298, 700688, 701062, 701448, 701835, 702221, 702601, 702992, 703377, 703765, 704136]","[695143, 695543, 695944, 696343, 696743, 697143, 697542, 697944, 698302, 698682, 699097, 699474, 699877, 700254, 700640, 701012, 701388, 701779, 702177, 702545, 702945, 703328, 703717, 704088]",16,R,ITM,1.1,
3,400,trial,0,29,29,29,trial,"['S', 'S', 'S', 'S', 'S', 'S', 'S', 'S', 'C', 'C', 'C', 'C', 'C', 'C', 'C', 'C', 'C', 'C', 'C', 'C', 'C', 'C', 'C', 'C']","[709587, 709841, 710183, 710546, 710939, 711319, 711724, 712134, 712445, 712884, 713264, 713649, 714057, 714440, 714846, 715226, 715628, 716021, 716426, 716849, 717261, 717667, 718059, 718441]","[709632, 709913, 710250, 710611, 711030, 711410, 711805, 712212, 712549, 712972, 713349, 713739, 714143, 714533, 714944, 715311, 715718, 716100, 716525, 716934, 717325, 717728, 718124, 718503]","[709398, 709798, 710198, 710598, 710999, 711398, 711798, 712199, 712471, 712909, 713289, 713674, 714083, 714466, 714871, 715251, 715654, 716047, 716451, 716874, 717287, 717692, 718085, 718467]",16,R,ITM,1.1,
2,600,trial,0,30,30,30,trial,"['S', 'S', 'S', 'S', 'S', 'S', 'S', 'C', 'C', 'C', 'C', 'C', 'C', 'C', 'C', 'C', 'C', 'C', 'C', 'C', 'C', 'C', 'C']","[732658, 733403, 734009, 734596, 735234, 735821, 736451, 737025, 737627, 738207, 738764, 739300, 739883, 740506, 741052, 741587, 742157, 742707, 743294, 743841, 744418, 744974, 745536]","[732733, 733468, 734092, 734688, 735292, 735890, 736550, 737123, 737723, 738301, 738863, 739412, 739992, 740588, 741150, 741679, 742261, 742810, 743392, 743930, 744511, 745074, 745643]","[732333, 732933, 733533, 734132, 734732, 735332, 735932, 736531, 737052, 737654, 738234, 738792, 739328, 739910, 740533, 741080, 741615, 742184, 742733, 743321, 743868, 744445, 745000, 745564]",16,R,ITM,1.1,
2,600,trial,0,31,31,31,trial,"['S', 'S', 'S', 'S', 'S', 'S', 'S', 'C', 'C', 'C', 'C', 'C', 'C', 'C', 'C', 'C', 'C', 'C', 'C', 'C', 'C', 'C', 'C']","[751588, 752179, 752809, 753432, 754012, 754659, 755269, 755877, 756433, 757011, 757573, 758120, 758703, 759252, 759825, 760398, 760943, 761499, 762057, 762593, 763142, 763654, 764222]","[751669, 752257, 752886, 753508, 754136, 754754, 755361, 755979, 756532, 757116, 757668, 758219, 758795, 759342, 759913, 760492, 761033, 761597, 762161, 762707, 763259, 763757, 764355]","[751135, 751735, 752335, 752935, 753536, 754135, 754736, 755336, 755905, 756461, 757039, 757601, 758148, 758730, 759280, 759852, 760426, 760971, 761527, 762085, 762619, 763168, 763680, 764250]",16,R,ITM,1.1,
3,600,trial,0,32,32,32,trial,"['S', 'S', 'S', 'S', 'S', 'S', 'S', 'S', 'C', 'C', 'C', 'C', 'C', 'C', 'C', 'C', 'C', 'C', 'C', 'C', 'C', 'C', 'C', 'C']","[770101, 770439, 771032, 771614, 772220, 772825, 773439, 774029, 774612, 775201, 775763, 776361, 776914, 777509, 778071, 778687, 779250, 779770, 780337, 780875, 781413, 782051, 782636, 783184]","[770185, 770561, 771162, 771768, 772367, 772957, 773566, 774149, 774744, 775335, 775871, 776502, 777042, 777668, 778252, 778813, 779395, 779965, 780488, 781044, 781584, 782180, 782767, 783325]","[769884, 770482, 771082, 771682, 772282, 772882, 773482, 774082, 774637, 775227, 775789, 776387, 776940, 777535, 778096, 778713, 779276, 779796, 780362, 780901, 781438, 782076, 782661, 783210]",16,R,ITM,1.1,
6,400,trial,0,33,33,33,trial,"['S', 'S', 'S', 'S', 'S', 'S', 'S', 'C', 'C', 'C', 'C', 'C', 'C', 'C', 'C', 'C', 'C', 'C', 'C', 'C', 'C', 'C', 'C']","[789179, 789490, 789838, 790198, 790587, 791004, 791405, 791779, 792126, 792519, 792884, 793264, 793622, 794002, 794381, 794752, 795123, 795499, 795895, 796277, 796653, 797018, 797374]","[789254, 789559, 789916, 790265, 790659, 791070, 791469, 791848, 792204, 792584, 792947, 793327, 793684, 794071, 794460, 794831, 795216, 795620, 796005, 796390, 796771, 797121, 797477]","[788711, 789110, 789511, 789910, 790310, 790710, 791110, 791511, 791805, 792153, 792546, 792910, 793290, 793649, 794030, 794408, 794779, 795150, 795527, 795922, 796304, 796680, 797045, 797401]",16,R,ITM,1.1,
7,400,trial,0,34,34,34,trial,"['S', 'S', 'S', 'S', 'S', 'S', 'S', 'C', 'C', 'C', 'C', 'C', 'C', 'C', 'C', 'C', 'C', 'C', 'C', 'C', 'C', 'C', 'C']","[803210, 803611, 804002, 804413, 804807, 805196, 805591, 806029, 806422, 806770, 807168, 807568, 807979, 808372, 808750, 809161, 809540, 809939, 810341, 810737, 811120, 811492, 811877]","[803251, 803675, 804073, 804495, 804877, 805284, 805679, 806104, 806508, 806856, 807254, 807648, 808053, 808451, 808839, 809244, 809622, 810042, 810430, 810831, 811227, 811597, 811991]","[802947, 803346, 803746, 804147, 804547, 804947, 805347, 805747, 806056, 806449, 806797, 807194, 807596, 808005, 808399, 808776, 809188, 809567, 809967, 810369, 810765, 811147, 811518, 811905]",16,R,ITM,1.1,
6,400,trial,0,35,35,35,trial,"['S', 'S', 'S', 'S', 'S', 'S', 'S', 'S', 'C', 'C', 'C', 'C', 'C', 'C', 'C', 'C', 'C', 'C', 'C', 'C', 'C', 'C', 'C', 'C']","[817447, 817730, 818049, 818458, 818834, 819221, 819620, 820014, 820424, 820815, 821187, 821577, 821975, 822334, 822732, 823094, 823498, 823908, 824278, 824663, 825021, 825388, 825762, 826168]","[817502, 817817, 818150, 818561, 818916, 819302, 819714, 820109, 820501, 820899, 821276, 821684, 822081, 822425, 822833, 823206, 823620, 824005, 824394, 824791, 825140, 825521, 825883, 826299]","[817289, 817688, 818088, 818488, 818888, 819289, 819688, 820088, 820451, 820842, 821214, 821604, 822002, 822361, 822759, 823120, 823526, 823934, 824304, 824690, 825049, 825414, 825789, 826195]",16,R,ITM,1.1,
2,400,trial,0,36,36,36,trial,"['B', 'S', 'S', 'S', 'S', 'S', 'S', 'S', 'C', 'C', 'C', 'C', 'C', 'C', 'C', 'C', 'C', 'C', 'C', 'C', 'C', 'C', 'C', 'C']","[831882, 832336, 832679, 833056, 833459, 833874, 834251, 834630, 835051, 835442, 835821, 836175, 836629, 837025, 837395, 837768, 838182, 838565, 838942, 839324, 839698, 840081, 840442, 840817]","[832031, 832437, 832777, 833117, 833533, 833942, 834332, 834705, 835137, 835529, 835900, 836263, 836712, 837118, 837493, 837877, 838252, 838659, 839029, 839410, 839791, 840167, 840538, 840910]","[831895, 832294, 832695, 833095, 833496, 833894, 834295, 834696, 835079, 835469, 835848, 836202, 836656, 837053, 837423, 837795, 838209, 838593, 838970, 839352, 839726, 840108, 840470, 840845]",16,R,ITM,1.1,
3,600,trial,0,37,37,37,trial,"['S', 'S', 'S', 'S', 'S', 'S', 'S', 'S', 'C', 'C', 'C', 'C', 'C', 'C', 'C', 'C', 'C', 'C', 'C', 'C', 'C', 'C', 'C', 'C']","[846690, 846955, 847604, 848205, 848791, 849418, 850036, 850558, 851146, 851692, 852211, 852763, 853316, 853821, 854374, 854922, 855455, 855992, 856528, 857037, 857561, 858054, 858564, 859062]","[846756, 847261, 847673, 848262, 848862, 849465, 850086, 850639, 851221, 851775, 852307, 852871, 853421, 853948, 854500, 855036, 855601, 856130, 856616, 857132, 857670, 858168, 858661, 859166]","[846486, 847086, 847686, 848286, 848886, 849486, 850086, 850686, 851172, 851718, 852237, 852789, 853342, 853847, 854400, 854947, 855481, 856017, 856554, 857063, 857586, 858080, 858590, 859087]",16,R,ITM,1.1,
4,400,trial,0,38,38,38,trial,"['S', 'S', 'S', 'S', 'S', 'S', 'S', 'C', 'C', 'C', 'C', 'C', 'C', 'C', 'C', 'C', 'C', 'C', 'C', 'C', 'C', 'C', 'C']","[864719, 865092, 865460, 865929, 866304, 866684, 867051, 867517, 867887, 868263, 868648, 869053, 869442, 869857, 870231, 870612, 871008, 871361, 871758, 872165, 872524, 872898, 873262]","[864785, 865168, 865545, 865996, 866374, 866751, 867129, 867548, 867951, 868349, 868730, 869135, 869527, 869929, 870321, 870699, 871083, 871451, 871856, 872251, 872626, 873013, 873365]","[864396, 864796, 865197, 865596, 865996, 866397, 866797, 867197, 867543, 867912, 868289, 868675, 869079, 869468, 869882, 870257, 870638, 871033, 871387, 871785, 872190, 872550, 872924, 873287]",16,R,ITM,1.1,
5,600,trial,0,39,39,39,trial,"['B', 'S', 'S', 'S', 'S', 'S', 'S', 'S', 'C', 'C', 'C', 'C', 'C', 'C', 'C', 'C', 'C', 'C', 'C', 'C', 'C', 'C', 'C', 'C']","[879011, 879383, 880046, 880679, 881276, 881926, 882481, 883042, 883602, 884147, 884694, 885216, 885815, 886402, 886967, 887536, 888070, 888620, 889161, 889722, 890278, 890849, 891416, 891963]","[879031, 879507, 880196, 880812, 881381, 881993, 882549, 883106, 883663, 884212, 884777, 885298, 885883, 886461, 887036, 887638, 888180, 888743, 889294, 889849, 890412, 890999, 891547, 892087]","[879024, 879623, 880223, 880823, 881423, 882023, 882623, 883223, 883628, 884172, 884719, 885241, 885840, 886428, 886993, 887563, 888095, 888646, 889187, 889748, 890304, 890875, 891442, 891988]",16,R,ITM,1.1,
5,400,trial,0,40,40,40,trial,"['S', 'S', 'S', 'S', 'S', 'S', 'S', 'C', 'C', 'C', 'C', 'C', 'C', 'C', 'C', 'C', 'C', 'C', 'C', 'C', 'C', 'C', 'C']","[898057, 898390, 898757, 899141, 899505, 899895, 900283, 900698, 901101, 901481, 901873, 902261, 902643, 903030, 903409, 903763, 904168, 904536, 904923, 905315, 905705, 906091, 906438]","[898118, 898455, 898820, 899189, 899556, 899955, 900345, 900776, 901163, 901554, 901941, 902341, 902733, 903122, 903497, 903866, 904247, 904609, 905003, 905403, 905769, 906169, 906523]","[897590, 897989, 898390, 898789, 899189, 899590, 899989, 900389, 900723, 901127, 901507, 901899, 902287, 902669, 903057, 903435, 903789, 904195, 904562, 904948, 905340, 905732, 906117, 906464]",16,R,ITM,1.1,
7,600,trial,0,41,41,41,trial,"['S', 'S', 'S', 'S', 'S', 'S', 'S', 'C', 'C', 'C', 'C', 'C', 'C', 'C', 'C', 'C', 'C', 'C', 'C', 'C', 'C', 'C', 'C']","[912628, 913277, 913910, 914494, 915089, 915645, 916230, 916828, 917403, 917977, 918509, 919108, 919664, 920203, 920783, 921347, 921880, 922419, 922969, 923499, 924060, 924591, 925091]","[912694, 913355, 913978, 914580, 915178, 915729, 916321, 916910, 917504, 918076, 918611, 919184, 919742, 920295, 920870, 921425, 921975, 922522, 923067, 923597, 924169, 924719, 925212]","[912241, 912840, 913440, 914040, 914640, 915240, 915841, 916441, 916854, 917430, 918004, 918536, 919135, 919691, 920229, 920811, 921373, 921907, 922446, 922996, 923527, 924087, 924617, 925118]",16,R,ITM,1.1,
7,600,trial,0,42,42,42,trial,"['S', 'S', 'S', 'S', 'S', 'S', 'S', 'C', 'C', 'C', 'C', 'C', 'C', 'C', 'C', 'C', 'C', 'C', 'C', 'C', 'C', 'C', 'C']","[933308, 933920, 934559, 935199, 935806, 936367, 937013, 937598, 938161, 938694, 939220, 939749, 940267, 940754, 941282, 941777, 942302, 942781, 943329, 943849, 944380, 944897, 945416]","[933369, 933989, 934620, 935249, 935855, 936432, 937085, 937637, 938208, 938756, 939283, 939821, 940348, 940813, 941363, 941870, 942388, 942891, 943415, 943933, 944480, 944980, 945516]","[932885, 933484, 934084, 934684, 935284, 935884, 936484, 937084, 937624, 938188, 938722, 939247, 939776, 940295, 940781, 941309, 941805, 942328, 942809, 943356, 943876, 944408, 944924, 945442]",16,R,ITM,1.1,
4,400,trial,0,43,43,43,trial,"['S', 'S', 'S', 'S', 'S', 'S', 'S', 'C', 'C', 'C', 'C', 'C', 'C', 'C', 'C', 'C', 'C', 'C', 'C', 'C', 'C', 'C', 'C']","[951581, 951919, 952237, 952611, 952972, 953387, 953761, 954171, 954566, 954930, 955299, 955697, 956051, 956416, 956784, 957170, 957549, 957930, 958333, 958702, 959066, 959443, 959836]","[951646, 951988, 952299, 952673, 953034, 953453, 953846, 954251, 954624, 954996, 955352, 955770, 956156, 956559, 956928, 957279, 957631, 958026, 958425, 958811, 959174, 959551, 959923]","[951083, 951482, 951882, 952283, 952682, 953082, 953482, 953882, 954196, 954592, 954955, 955325, 955722, 956077, 956441, 956810, 957196, 957575, 957956, 958359, 958729, 959092, 959469, 959861]",16,R,ITM,1.1,
3,400,trial,0,44,44,44,trial,"['S', 'S', 'S', 'S', 'S', 'S', 'S', 'C', 'C', 'C', 'C', 'C', 'C', 'C', 'C', 'C', 'C', 'C', 'C', 'C', 'C', 'C', 'C']","[966117, 966410, 966763, 967166, 967560, 967945, 968343, 968722, 969146, 969530, 969881, 970276, 970648, 971041, 971438, 971817, 972221, 972594, 972977, 973367, 973737, 974105, 974480]","[966164, 966519, 966859, 967277, 967642, 968000, 968387, 968825, 969235, 969608, 970001, 970398, 970755, 971128, 971529, 971931, 972306, 972690, 973074, 973468, 973785, 974186, 974580]","[965600, 966000, 966401, 966800, 967200, 967601, 968000, 968400, 968748, 969171, 969555, 969907, 970302, 970674, 971067, 971463, 971843, 972247, 972619, 973002, 973392, 973763, 974131, 974505]",16,R,ITM,1.1,
7,400,trial,0,45,45,45,trial,"['S', 'S', 'S', 'S', 'S', 'S', 'S', 'C', 'C', 'C', 'C', 'C', 'C', 'C', 'C', 'C', 'C', 'C', 'C', 'C', 'C', 'C', 'C']","[980318, 980770, 981187, 981645, 982039, 982452, 982846, 983224, 983658, 984026, 984401, 984786, 985213, 985613, 986020, 986409, 986826, 987193, 987593, 987995, 988398, 988778, 989215]","[980382, 980837, 981260, 981709, 982114, 982516, 982904, 983276, 983727, 984104, 984487, 984865, 985293, 985695, 986087, 986507, 986901, 987294, 987716, 988101, 988490, 988888, 989318]","[980100, 980498, 980898, 981299, 981699, 982099, 982499, 982899, 983250, 983685, 984053, 984428, 984814, 985240, 985639, 986048, 986436, 986853, 987219, 987621, 988021, 988426, 988805, 989243]",16,R,ITM,1.1,
2,400,trial,0,46,46,46,trial,"['S', 'S', 'S', 'S', 'S', 'S', 'S', 'C', 'C', 'C', 'C', 'C', 'C', 'C', 'C', 'C', 'C', 'C', 'C', 'C', 'C', 'C', 'C']","[995202, 995575, 995970, 996358, 996782, 997179, 997595, 998019, 998391, 998795, 999178, 999570, 999982, 1000339, 1000732, 1001107, 1001487, 1001888, 1002276, 1002682, 1003103, 1003525, 1003897]","[995270, 995629, 996047, 996443, 996868, 997271, 997698, 998116, 998501, 998902, 999277, 999675, 1000075, 1000474, 1000860, 1001235, 1001603, 1001990, 1002404, 1002806, 1003187, 1003608, 1004002]","[994859, 995257, 995657, 996059, 996458, 996858, 997257, 997658, 998045, 998419, 998822, 999204, 999598, 1000009, 1000366, 1000759, 1001134, 1001513, 1001916, 1002303, 1002710, 1003130, 1003552, 1003925]",16,R,ITM,1.1,
6,600,trial,0,47,47,47,trial,"['S', 'S', 'S', 'S', 'S', 'S', 'S', 'S', 'C', 'C', 'C', 'C', 'C', 'C', 'C', 'C', 'C', 'C', 'C', 'C', 'C', 'C', 'C', 'C']","[1009475, 1009750, 1010383, 1010934, 1011557, 1012192, 1012801, 1013410, 1014024, 1014586, 1015124, 1015678, 1016274, 1016833, 1017369, 1017917, 1018458, 1018982, 1019536, 1020102, 1020655, 1021176, 1021701, 1022264]","[1009539, 1009905, 1010664, 1011239, 1011859, 1012495, 1013090, 1013679, 1014289, 1014862, 1015429, 1015918, 1016497, 1017069, 1017610, 1018183, 1018695, 1019260, 1019797, 1020367, 1020882, 1021485, 1022004]","[1009295, 1009894, 1010494, 1011094, 1011694, 1012294, 1012894, 1013494, 1014050, 1014612, 1015151, 1015704, 1016302, 1016859, 1017396, 1017944, 1018484, 1019009, 1019564, 1020129, 1020683, 1021204, 1021727, 1022290]",16,R,ITM,1.1,
5,600,trial,0,48,48,48,trial,"['S', 'S', 'S', 'S', 'S', 'S', 'S', 'S', 'C', 'C', 'C', 'C', 'C', 'C', 'C', 'C', 'C', 'C', 'C', 'C', 'C', 'C', 'C', 'C']","[1028202, 1028503, 1029081, 1029728, 1030328, 1030908, 1031571, 1032159, 1032771, 1033341, 1033876, 1034451, 1034973, 1035516, 1036047, 1036605, 1037155, 1037690, 1038231, 1038735, 1039246, 1039819, 1040362, 1040904]","[1028273, 1028605, 1029170, 1029800, 1030413, 1031014, 1031640, 1032246, 1032855, 1033441, 1033976, 1034566, 1035088, 1035639, 1036185, 1036785, 1037297, 1037811, 1038364, 1038892, 1039400, 1039992, 1040503, 1041114]","[1028034, 1028633, 1029233, 1029833, 1030433, 1031033, 1031633, 1032233, 1032797, 1033367, 1033902, 1034477, 1034999, 1035542, 1036073, 1036631, 1037180, 1037716, 1038258, 1038761, 1039271, 1039845, 1040388, 1040929]",16,R,ITM,1.1,
4,600,trial,0,49,49,49,trial,"['S', 'S', 'S', 'S', 'S', 'S', 'S', 'C', 'C', 'C', 'C', 'C', 'C', 'C', 'C', 'C', 'C', 'C', 'C', 'C', 'C', 'C', 'C']","[1046949, 1047540, 1048188, 1048786, 1049408, 1050030, 1050621, 1051146, 1051736, 1052297, 1052866, 1053405, 1053959, 1054540, 1055089, 1055669, 1056221, 1056733, 1057307, 1057856, 1058418, 1058963, 1059514]","[1047036, 1047709, 1048264, 1048854, 1049474, 1050070, 1050670, 1051232, 1051799, 1052366, 1052938, 1053495, 1054035, 1054625, 1055180, 1055765, 1056308, 1056843, 1057401, 1057932, 1058492, 1059037, 1059571]","[1046505, 1047104, 1047704, 1048304, 1048904, 1049504, 1050104, 1050704, 1051172, 1051761, 1052322, 1052892, 1053430, 1053984, 1054566, 1055115, 1055694, 1056246, 1056758, 1057333, 1057882, 1058444, 1058990, 1059540]",16,R,ITM,1.1,
3,400,trial,0,50,50,50,trial,"['S', 'S', 'S', 'S', 'S', 'S', 'S', 'C', 'C', 'C', 'C', 'C', 'C', 'C', 'C', 'C', 'C', 'C', 'C', 'C', 'C', 'C', 'C']","[1065543, 1065948, 1066321, 1066734, 1067145, 1067610, 1067973, 1068375, 1068725, 1069118, 1069472, 1069837, 1070282, 1070689, 1071076, 1071450, 1071824, 1072179, 1072579, 1072966, 1073337, 1073748, 1074120]","[1065612, 1066016, 1066412, 1066812, 1067218, 1067672, 1068022, 1068443, 1068786, 1069177, 1069532, 1069906, 1070356, 1070769, 1071181, 1071546, 1071916, 1072265, 1072649, 1073035, 1073414, 1073822, 1074183]","[1065282, 1065682, 1066082, 1066482, 1066883, 1067282, 1067682, 1068082, 1068400, 1068750, 1069144, 1069498, 1069862, 1070308, 1070714, 1071101, 1071475, 1071850, 1072204, 1072605, 1072992, 1073362, 1073774, 1074146]",16,R,ITM,1.1,
4,600,trial,0,51,51,51,trial,"['S', 'S', 'S', 'S', 'S', 'S', 'S', 'S', 'C', 'C', 'C', 'C', 'C', 'C', 'C', 'C', 'C', 'C', 'C', 'C', 'C', 'C', 'C', 'C']","[1080015, 1080353, 1080962, 1081575, 1082170, 1082767, 1083362, 1083944, 1084490, 1085040, 1085577, 1086135, 1086685, 1087224, 1087793, 1088349, 1088880, 1089395, 1089958, 1090498, 1091015, 1091549, 1092065, 1092584]","[1080074, 1080451, 1081028, 1081654, 1082249, 1082869, 1083444, 1084024, 1084570, 1085122, 1085638, 1086216, 1086777, 1087325, 1087891, 1088438, 1088965, 1089491, 1090057, 1090580, 1091099, 1091630, 1092197, 1092670]","[1079863, 1080463, 1081063, 1081663, 1082263, 1082863, 1083463, 1084063, 1084516, 1085066, 1085602, 1086160, 1086710, 1087251, 1087818, 1088374, 1088906, 1089421, 1089984, 1090524, 1091041, 1091574, 1092090, 1092610]",16,R,ITM,1.1,
5,400,trial,0,52,52,52,trial,"['S', 'S', 'S', 'S', 'S', 'S', 'S', 'S', 'C', 'C', 'C', 'C', 'C', 'C', 'C', 'C', 'C', 'C', 'C', 'C', 'C', 'C', 'C', 'C']","[1098317, 1098627, 1098900, 1099220, 1099599, 1099967, 1100392, 1100781, 1101167, 1101546, 1101919, 1102289, 1102661, 1102996, 1103383, 1103725, 1104094, 1104476, 1104869, 1105265, 1105629, 1105993, 1106362, 1106720]","[1098362, 1098699, 1098958, 1099284, 1099651, 1100034, 1100462, 1100852, 1101236, 1101601, 1101983, 1102337, 1102730, 1103066, 1103453, 1103783, 1104163, 1104549, 1104943, 1105344, 1105702, 1106063, 1106432, 1106787]","[1098093, 1098493, 1098893, 1099293, 1099694, 1100093, 1100493, 1100893, 1101193, 1101572, 1101944, 1102315, 1102687, 1103022, 1103410, 1103751, 1104120, 1104501, 1104896, 1105292, 1105654, 1106020, 1106388, 1106746]",16,R,ITM,1.1,
6,600,trial,0,53,53,53,trial,"['S', 'S', 'S', 'S', 'S', 'S', 'S', 'S', 'S', 'C', 'C', 'C', 'C', 'C', 'C', 'C', 'C', 'C', 'C', 'C', 'C', 'C', 'C', 'C', 'C']","[1112280, 1112498, 1112878, 1113287, 1113811, 1114443, 1115019, 1115623, 1116243, 1116869, 1117447, 1117989, 1118586, 1119136, 1119712, 1120249, 1120766, 1121299, 1121825, 1122359, 1122881, 1123404, 1123934, 1124446, 1124971]","[1112300, 1112545, 1112998, 1113533, 1114059, 1114675, 1115297, 1115921, 1116522, 1117143, 1117664, 1118238, 1118836, 1119350, 1119946, 1120449, 1121063, 1121591, 1122102, 1122638, 1123194, 1123735, 1124180, 1124747]","[1112111, 1112711, 1113310, 1113910, 1114510, 1115110, 1115710, 1116310, 1116897, 1117474, 1118016, 1118614, 1119164, 1119738, 1120276, 1120793, 1121326, 1121852, 1122385, 1122908, 1123432, 1123961, 1124472, 1124998]",16,R,ITM,1.1,
4,400,trial,0,54,54,54,trial,"['S', 'S', 'S', 'S', 'S', 'S', 'S', 'S', 'C', 'C', 'C', 'C', 'C', 'C', 'C', 'C', 'C', 'C', 'C', 'C', 'C', 'C', 'C', 'C']","[1134899, 1135176, 1135451, 1135779, 1136176, 1136586, 1136988, 1137381, 1137766, 1138153, 1138523, 1138913, 1139346, 1139739, 1140119, 1140501, 1140925, 1141327, 1141713, 1142092, 1142466, 1142883, 1143264, 1143630]","[1134962, 1135253, 1135540, 1135877, 1136261, 1136656, 1137064, 1137463, 1137845, 1138228, 1138609, 1139004, 1139438, 1139835, 1140204, 1140595, 1141015, 1141416, 1141790, 1142165, 1142539, 1142933, 1143346, 1143697]","[1134651, 1135050, 1135451, 1135850, 1136250, 1136650, 1137050, 1137451, 1137793, 1138179, 1138548, 1138938, 1139372, 1139765, 1140145, 1140527, 1140952, 1141353, 1141740, 1142118, 1142492, 1142908, 1143289, 1143656]",16,R,ITM,1.1,
2,400,trial,0,55,55,55,trial,"['S', 'S', 'S', 'S', 'S', 'S', 'S', 'C', 'C', 'C', 'C', 'C', 'C', 'C', 'C', 'C', 'C', 'C', 'C', 'C', 'C', 'C', 'C']","[1149320, 1149582, 1149892, 1150251, 1151041, 1151436, 1151801, 1152233, 1152631, 1153039, 1153441, 1153817, 1154199, 1154570, 1154966, 1155361, 1155744, 1156106, 1156482, 1156871, 1157258, 1157664, 1158045]","[1149391, 1149676, 1149968, 1150341, 1151099, 1151485, 1151867, 1152291, 1152718, 1153088, 1153507, 1153906, 1154289, 1154652, 1155046, 1155440, 1155826, 1156205, 1156588, 1156961, 1157344, 1157751, 1158146]","[1149109, 1149508, 1149910, 1150309, 1150708, 1151110, 1151509, 1151909, 1152261, 1152659, 1153067, 1153469, 1153845, 1154227, 1154596, 1154994, 1155388, 1155772, 1156132, 1156509, 1156898, 1157284, 1157691, 1158073]",16,R,ITM,1.1,
3,400,trial,0,56,56,56,trial,"['S', 'S', 'S', 'S', 'S', 'S', 'S', 'C', 'C', 'C', 'C', 'C', 'C', 'C', 'C', 'C', 'C', 'C', 'C', 'C', 'C', 'C', 'C']","[1164146, 1164587, 1164979, 1165403, 1165802, 1166201, 1166609, 1167024, 1167427, 1167824, 1168229, 1168607, 1169003, 1169377, 1169792, 1170162, 1170597, 1171018, 1171386, 1171777, 1172152, 1172558, 1172938]","[1164219, 1164633, 1165058, 1165470, 1165879, 1166274, 1166676, 1167090, 1167508, 1167919, 1168293, 1168689, 1169087, 1169470, 1169885, 1170267, 1170696, 1171106, 1171460, 1171857, 1172228, 1172633, 1173020]","[1163843, 1164243, 1164643, 1165043, 1165444, 1165843, 1166243, 1166643, 1167049, 1167453, 1167850, 1168254, 1168632, 1169029, 1169402, 1169817, 1170188, 1170623, 1171044, 1171411, 1171803, 1172177, 1172584, 1172964]",16,R,ITM,1.1,
5,400,trial,0,57,57,57,trial,"['S', 'S', 'S', 'S', 'S', 'S', 'S', 'C', 'C', 'C', 'C', 'C', 'C', 'C', 'C', 'C', 'C', 'C', 'C', 'C', 'C', 'C', 'C']","[1178737, 1179105, 1179512, 1179939, 1180332, 1180766, 1181151, 1181542, 1181950, 1182333, 1182710, 1183096, 1183472, 1183896, 1184278, 1184649, 1185022, 1185391, 1185769, 1186123, 1186523, 1186869, 1187245]","[1178780, 1179169, 1179587, 1179985, 1180381, 1180826, 1181214, 1181606, 1182027, 1182398, 1182792, 1183168, 1183550, 1183949, 1184337, 1184726, 1185096, 1185442, 1185804, 1186181, 1186591, 1186951, 1187333]","[1178464, 1178863, 1179264, 1179663, 1180063, 1180464, 1180863, 1181263, 1181569, 1181976, 1182359, 1182736, 1183122, 1183498, 1183922, 1184305, 1184674, 1185049, 1185418, 1185796, 1186149, 1186548, 1186894, 1187270]",16,R,ITM,1.1,
7,400,trial,0,58,58,58,trial,"['S', 'S', 'S', 'S', 'S', 'S', 'S', 'C', 'C', 'C', 'C', 'C', 'C', 'C', 'C', 'C', 'C', 'C', 'C', 'C', 'C', 'C', 'C']","[1192998, 1193412, 1193777, 1194196, 1194604, 1195029, 1195407, 1195829, 1196225, 1196623, 1196978, 1197367, 1197793, 1198176, 1198554, 1198951, 1199394, 1199738, 1200115, 1200452, 1200885, 1201275, 1201688]","[1193058, 1193469, 1193837, 1194235, 1194648, 1195072, 1195479, 1195881, 1196308, 1196698, 1197070, 1197442, 1197860, 1198258, 1198636, 1199025, 1199446, 1199819, 1200167, 1200520, 1200962, 1201355, 1201753]","[1192734, 1193134, 1193533, 1193933, 1194334, 1194734, 1195134, 1195534, 1195855, 1196252, 1196650, 1197004, 1197394, 1197819, 1198202, 1198580, 1198978, 1199421, 1199765, 1200142, 1200479, 1200912, 1201302, 1201716]",16,R,ITM,1.1,
6,600,trial,0,59,59,59,trial,"['S', 'S', 'S', 'S', 'S', 'S', 'S', 'S', 'C', 'C', 'C', 'C', 'C', 'C', 'C', 'C', 'C', 'C', 'C', 'C', 'C', 'C', 'C', 'C']","[1207147, 1207547, 1208113, 1208697, 1209274, 1209853, 1210437, 1211026, 1211628, 1212178, 1212743, 1213287, 1213804, 1214380, 1214910, 1215384, 1215888, 1216395, 1216932, 1217451, 1217954, 1218503, 1218982, 1219491]","[1207205, 1207655, 1208207, 1208751, 1209326, 1209910, 1210493, 1211089, 1211681, 1212264, 1212824, 1213368, 1213901, 1214461, 1214974, 1215437, 1215952, 1216471, 1217014, 1217544, 1218063, 1218591, 1219093, 1219595]","[1207007, 1207607, 1208207, 1208807, 1209407, 1210007, 1210607, 1211207, 1211656, 1212205, 1212771, 1213314, 1213831, 1214406, 1214937, 1215412, 1215915, 1216422, 1216960, 1217478, 1217981, 1218530, 1219010, 1219518]",16,R,ITM,1.1,
5,600,trial,0,60,60,60,trial,"['S', 'S', 'S', 'S', 'S', 'S', 'S', 'S', 'C', 'C', 'C', 'C', 'C', 'C', 'C', 'C', 'C', 'C', 'C', 'C', 'C', 'C', 'C', 'C']","[1225416, 1225756, 1226322, 1226947, 1227567, 1228112, 1228705, 1229289, 1229848, 1230412, 1230952, 1231488, 1232054, 1232583, 1233104, 1233665, 1234190, 1234725, 1235247, 1235802, 1236336, 1236879, 1237395, 1237913]","[1225479, 1225856, 1226411, 1227026, 1227644, 1228222, 1228797, 1229379, 1229953, 1230507, 1231046, 1231561, 1232131, 1232660, 1233175, 1233752, 1234295, 1234856, 1235414, 1235965, 1236480, 1237001, 1237516, 1238053]","[1225274, 1225873, 1226473, 1227073, 1227673, 1228273, 1228873, 1229473, 1229874, 1230438, 1230978, 1231514, 1232080, 1232610, 1233130, 1233690, 1234215, 1234751, 1235272, 1235827, 1236363, 1236904, 1237421, 1237940]",16,R,ITM,1.1,
4,600,trial,0,61,61,61,trial,"['S', 'S', 'S', 'S', 'S', 'S', 'S', 'S', 'C', 'C', 'C', 'C', 'C', 'C', 'C', 'C', 'C', 'C', 'C', 'C', 'C', 'C', 'C', 'C']","[1243556, 1243951, 1244438, 1245037, 1245655, 1246249, 1246843, 1247465, 1248026, 1248562, 1249114, 1249674, 1250230, 1250780, 1251307, 1251836, 1252405, 1252917, 1253450, 1253961, 1254488, 1254984, 1255500, 1256028]","[1243612, 1244024, 1244552, 1245138, 1245751, 1246312, 1246917, 1247539, 1248135, 1248667, 1249208, 1249759, 1250318, 1250880, 1251386, 1251935, 1252502, 1253025, 1253555, 1254086, 1254648, 1255117, 1255619, 1256157]","[1243369, 1243968, 1244568, 1245168, 1245768, 1246368, 1246968, 1247568, 1248053, 1248587, 1249139, 1249700, 1250255, 1250805, 1251333, 1251862, 1252430, 1252942, 1253476, 1253987, 1254513, 1255010, 1255526, 1256053]",16,R,ITM,1.1,
6,600,trial,0,62,62,62,trial,"['S', 'S', 'S', 'S', 'S', 'S', 'S', 'C', 'C', 'C', 'C', 'C', 'C', 'C', 'C', 'C', 'C', 'C', 'C', 'C', 'C', 'C', 'C']","[1262118, 1262780, 1263438, 1264023, 1264593, 1265180, 1265809, 1266437, 1266975, 1267533, 1268076, 1268583, 1269094, 1269633, 1270139, 1270710, 1271264, 1271758, 1272305, 1272809, 1273330, 1273873, 1274402]","[1262198, 1262840, 1263474, 1264072, 1264665, 1265220, 1265856, 1266494, 1267044, 1267582, 1268141, 1268669, 1269189, 1269708, 1270226, 1270808, 1271353, 1271847, 1272398, 1272921, 1273432, 1273999, 1274537]","[1261766, 1262365, 1262965, 1263565, 1264165, 1264765, 1265366, 1265966, 1266463, 1267003, 1267561, 1268104, 1268610, 1269121, 1269659, 1270166, 1270737, 1271290, 1271785, 1272332, 1272836, 1273358, 1273901, 1274430]",16,R,ITM,1.1,
2,400,trial,0,63,63,63,trial,"['S', 'S', 'S', 'S', 'S', 'S', 'S', 'C', 'C', 'C', 'C', 'C', 'C', 'C', 'C', 'C', 'C', 'C', 'C', 'C', 'C', 'C', 'C']","[1280653, 1280937, 1281300, 1281720, 1282096, 1282499, 1282884, 1283260, 1283665, 1284049, 1284414, 1284806, 1285176, 1285543, 1285940, 1286312, 1286671, 1287062, 1287444, 1287804, 1288184, 1288582, 1289003]","[1280683, 1280989, 1281349, 1281765, 1282165, 1282582, 1282965, 1283358, 1283743, 1284135, 1284495, 1284883, 1285237, 1285618, 1286003, 1286373, 1286735, 1287135, 1287520, 1287902, 1288286, 1288678, 1289083]","[1280165, 1280565, 1280964, 1281366, 1281765, 1282165, 1282566, 1282965, 1283287, 1283693, 1284076, 1284442, 1284833, 1285203, 1285571, 1285967, 1286339, 1286697, 1287090, 1287471, 1287832, 1288212, 1288609, 1289029]",16,R,ITM,1.1,
2,600,trial,0,64,64,64,trial,"['S', 'S', 'S', 'S', 'S', 'S', 'S', 'S', 'C', 'C', 'C', 'C', 'C', 'C', 'C', 'C', 'C', 'C', 'C', 'C', 'C', 'C', 'C', 'C']","[1294779, 1295086, 1295696, 1296289, 1296906, 1297439, 1298029, 1298659, 1299200, 1299739, 1300290, 1300816, 1301368, 1301902, 1302448, 1302973, 1303514, 1304041, 1304586, 1305156, 1305703, 1306191, 1306742, 1307266]","[1294851, 1295199, 1295768, 1296338, 1296955, 1297509, 1298106, 1298708, 1299261, 1299817, 1300377, 1300882, 1301441, 1301995, 1302540, 1303084, 1303612, 1304155, 1304688, 1305260, 1305807, 1306290, 1306810, 1307355]","[1294586, 1295186, 1295787, 1296387, 1296987, 1297587, 1298186, 1298786, 1299227, 1299767, 1300317, 1300843, 1301396, 1301929, 1302475, 1303001, 1303541, 1304068, 1304613, 1305183, 1305730, 1306219, 1306770, 1307293]",16,R,ITM,1.1,
6,400,trial,0,65,65,65,trial,"['S', 'S', 'S', 'S', 'S', 'S', 'S', 'S', 'C', 'C', 'C', 'C', 'C', 'C', 'C', 'C', 'C', 'C', 'C', 'C', 'C', 'C', 'C', 'C']","[1313124, 1313369, 1313685, 1314032, 1314418, 1314805, 1315223, 1315602, 1316008, 1316448, 1316802, 1317189, 1317558, 1317943, 1318318, 1318702, 1319074, 1319484, 1319887, 1320259, 1320616, 1320984, 1321391, 1321772]","[1313144, 1313444, 1313769, 1314116, 1314502, 1314891, 1315305, 1315683, 1316094, 1316524, 1316892, 1317280, 1317656, 1318038, 1318423, 1318805, 1319179, 1319587, 1319973, 1320343, 1320709, 1321095, 1321491, 1321864]","[1312902, 1313300, 1313700, 1314100, 1314500, 1314900, 1315300, 1315700, 1316036, 1316474, 1316829, 1317216, 1317584, 1317969, 1318345, 1318728, 1319102, 1319512, 1319915, 1320286, 1320643, 1321011, 1321417, 1321798]",16,R,ITM,1.1,
7,600,trial,0,66,66,66,trial,"['S', 'S', 'S', 'S', 'S', 'S', 'S', 'S', 'C', 'C', 'C', 'C', 'C', 'C', 'C', 'C', 'C', 'C', 'C', 'C', 'C', 'C', 'C', 'C']","[1327583, 1327979, 1328363, 1328937, 1329524, 1330124, 1330721, 1331313, 1331936, 1332482, 1333027, 1333536, 1334099, 1334609, 1335136, 1335695, 1336229, 1336734, 1337267, 1337785, 1338318, 1338851, 1339383, 1339887]","[1327645, 1328078, 1328502, 1329029, 1329607, 1330193, 1330784, 1331395, 1332004, 1332559, 1333115, 1333637, 1334194, 1334719, 1335229, 1335779, 1336316, 1336814, 1337356, 1337883, 1338413, 1338947, 1339475, 1339981]","[1327207, 1327806, 1328406, 1329006, 1329606, 1330206, 1330806, 1331406, 1331963, 1332508, 1333055, 1333563, 1334126, 1334637, 1335162, 1335721, 1336256, 1336761, 1337293, 1337812, 1338346, 1338878, 1339410, 1339915]",16,R,ITM,1.1,
7,600,trial,0,67,67,67,trial,"['S', 'S', 'S', 'S', 'S', 'S', 'S', 'S', 'C', 'C', 'C', 'C', 'C', 'C', 'C', 'C', 'C', 'C', 'C', 'C', 'C', 'C', 'C', 'C']","[1345562, 1345943, 1346473, 1347057, 1347671, 1348276, 1348869, 1349447, 1350034, 1350632, 1351209, 1351749, 1352317, 1352876, 1353436, 1353970, 1354505, 1355052, 1355600, 1356130, 1356656, 1357200, 1357729, 1358226]","[1345628, 1346001, 1346525, 1347121, 1347740, 1348324, 1348919, 1349516, 1350109, 1350720, 1351293, 1351843, 1352394, 1352962, 1353535, 1354053, 1354587, 1355136, 1355687, 1356205, 1356736, 1357279, 1357795, 1358288]","[1345375, 1345974, 1346574, 1347174, 1347774, 1348374, 1348974, 1349574, 1350061, 1350659, 1351237, 1351776, 1352344, 1352902, 1353463, 1353998, 1354531, 1355079, 1355628, 1356157, 1356683, 1357227, 1357756, 1358253]",16,R,ITM,1.1,
6,400,trial,0,68,68,68,trial,"['S', 'S', 'S', 'S', 'S', 'S', 'S', 'C', 'C', 'C', 'C', 'C', 'C', 'C', 'C', 'C', 'C', 'C', 'C', 'C', 'C', 'C', 'C']","[1364287, 1364596, 1364964, 1365346, 1365739, 1366148, 1366550, 1366973, 1367340, 1367715, 1368097, 1368499, 1368928, 1369292, 1369687, 1370089, 1370472, 1370872, 1371271, 1371676, 1372090, 1372456, 1372865]","[1364366, 1364675, 1365035, 1365407, 1365795, 1366208, 1366611, 1367027, 1367408, 1367792, 1368169, 1368596, 1369004, 1369375, 1369782, 1370183, 1370565, 1370967, 1371352, 1371759, 1372191, 1372552, 1372951]","[1363863, 1364262, 1364662, 1365062, 1365463, 1365862, 1366262, 1366663, 1367000, 1367367, 1367742, 1368125, 1368526, 1368954, 1369319, 1369713, 1370117, 1370499, 1370900, 1371298, 1371704, 1372116, 1372483, 1372892]",16,R,ITM,1.1,
4,600,trial,0,69,69,69,trial,"['S', 'S', 'S', 'S', 'S', 'S', 'S', 'C', 'C', 'C', 'C', 'C', 'C', 'C', 'C', 'C', 'C', 'C', 'C', 'C', 'C', 'C', 'C']","[1379006, 1379627, 1380280, 1380853, 1381472, 1382055, 1382623, 1383248, 1383830, 1384412, 1384954, 1385517, 1386075, 1386622, 1387157, 1387748, 1388289, 1388834, 1389344, 1389886, 1390465, 1391030, 1391572]","[1379096, 1379699, 1380319, 1380901, 1381516, 1382108, 1382686, 1383315, 1383906, 1384501, 1385039, 1385602, 1386169, 1386727, 1387256, 1387856, 1388410, 1388939, 1389446, 1390018, 1390590, 1391144, 1391685]","[1378565, 1379164, 1379763, 1380363, 1380963, 1381563, 1382163, 1382763, 1383274, 1383856, 1384437, 1384981, 1385542, 1386100, 1386648, 1387183, 1387773, 1388315, 1388860, 1389370, 1389913, 1390490, 1391055, 1391598]",16,R,ITM,1.1,
4,400,trial,0,70,70,70,trial,"['S', 'S', 'S', 'S', 'S', 'S', 'S', 'C', 'C', 'C', 'C', 'C', 'C', 'C', 'C', 'C', 'C', 'C', 'C', 'C', 'C', 'C', 'C']","[1397390, 1397737, 1398048, 1398404, 1398817, 1399226, 1399650, 1400071, 1400474, 1400856, 1401224, 1401595, 1401963, 1402341, 1402710, 1403069, 1403431, 1403808, 1404182, 1404554, 1404933, 1405313, 1405681]","[1397440, 1397781, 1398106, 1398470, 1398882, 1399288, 1399719, 1400139, 1400540, 1400921, 1401297, 1401680, 1402043, 1402407, 1402777, 1403140, 1403502, 1403891, 1404273, 1404648, 1405027, 1405412, 1405791]","[1397027, 1397426, 1397826, 1398226, 1398626, 1399026, 1399427, 1399826, 1400096, 1400500, 1400882, 1401250, 1401621, 1401989, 1402366, 1402735, 1403095, 1403457, 1403834, 1404208, 1404579, 1404958, 1405338, 1405707]",16,R,ITM,1.1,
5,400,trial,0,71,71,71,trial,"['S', 'S', 'S', 'S', 'S', 'S', 'S', 'S', 'C', 'C', 'C', 'C', 'C', 'C', 'C', 'C', 'C', 'C', 'C', 'C', 'C', 'C', 'C', 'C']","[1411444, 1411769, 1412148, 1412546, 1412953, 1413368, 1413726, 1414132, 1414588, 1414951, 1415364, 1415760, 1416158, 1416554, 1416918, 1417302, 1417697, 1418081, 1418461, 1418857, 1419237, 1419638, 1420020, 1420379]","[1411503, 1411846, 1412221, 1412616, 1413019, 1413421, 1413808, 1414201, 1414652, 1415016, 1415447, 1415845, 1416228, 1416622, 1416995, 1417387, 1417765, 1418155, 1418539, 1418939, 1419322, 1419719, 1420101, 1420459]","[1411112, 1411512, 1411912, 1412313, 1412712, 1413112, 1413512, 1413912, 1414614, 1414978, 1415391, 1415786, 1416183, 1416580, 1416943, 1417327, 1417722, 1418107, 1418486, 1418883, 1419262, 1419665, 1420046, 1420404]",16,R,ITM,1.1,
7,400,trial,0,72,72,72,trial,"['S', 'S', 'S', 'S', 'S', 'S', 'S', 'C', 'C', 'C', 'C', 'C', 'C', 'C', 'C', 'C', 'C', 'C', 'C', 'C', 'C', 'C', 'C']","[1426356, 1426857, 1427261, 1427680, 1428096, 1428496, 1428915, 1429298, 1429682, 1430072, 1430450, 1430842, 1431218, 1431586, 1431966, 1432333, 1432711, 1433116, 1433478, 1433867, 1434242, 1434617, 1434985]","[1426405, 1426895, 1427298, 1427730, 1428144, 1428551, 1428946, 1429339, 1429726, 1430121, 1430513, 1430897, 1431270, 1431655, 1432037, 1432408, 1432786, 1433179, 1433568, 1433953, 1434320, 1434695, 1435051]","[1426192, 1426592, 1426993, 1427392, 1427792, 1428192, 1428592, 1428993, 1429324, 1429709, 1430098, 1430477, 1430868, 1431245, 1431614, 1431993, 1432359, 1432737, 1433144, 1433505, 1433893, 1434269, 1434644, 1435013]",16,R,ITM,1.1,
3,600,trial,0,73,73,73,trial,"['S', 'S', 'S', 'S', 'S', 'S', 'S', 'S', 'C', 'C', 'C', 'C', 'C', 'C', 'C', 'C', 'C', 'C', 'C', 'C', 'C', 'C', 'C', 'C']","[1440498, 1440766, 1441402, 1442021, 1442622, 1443174, 1443775, 1444331, 1444914, 1445527, 1446122, 1446632, 1447181, 1447774, 1448370, 1448948, 1449500, 1450044, 1450639, 1451231, 1451824, 1452417, 1452949, 1453502]","[1440522, 1440837, 1441451, 1442061, 1442686, 1443254, 1443851, 1444412, 1444980, 1445612, 1446206, 1446714, 1447267, 1447847, 1448456, 1449041, 1449601, 1450191, 1450781, 1451362, 1451922, 1452503, 1453057, 1453615]","[1440318, 1440918, 1441518, 1442118, 1442718, 1443318, 1443918, 1444518, 1444939, 1445553, 1446148, 1446658, 1447207, 1447799, 1448395, 1448974, 1449526, 1450070, 1450664, 1451256, 1451849, 1452442, 1452975, 1453528]",16,R,ITM,1.1,
3,600,trial,0,74,74,74,trial,"['S', 'S', 'S', 'S', 'S', 'S', 'S', 'S', 'C', 'C', 'C', 'C', 'C', 'C', 'C', 'C', 'C', 'C', 'C', 'C', 'C', 'C', 'C', 'C']","[1459163, 1459584, 1460173, 1460733, 1461361, 1461954, 1462540, 1463128, 1463707, 1464491, 1465070, 1465613, 1466192, 1466736, 1467302, 1467849, 1468385, 1468932, 1469490, 1470024, 1470559, 1471091, 1471650, 1472151]","[1459192, 1459640, 1460248, 1460840, 1461430, 1462033, 1462645, 1463226, 1463838, 1464597, 1465186, 1465724, 1466300, 1466864, 1467433, 1467970, 1468497, 1469042, 1469592, 1470137, 1470683, 1471230, 1471768, 1472283]","[1459095, 1459695, 1460295, 1460895, 1461495, 1462095, 1462695, 1463296, 1463733, 1464516, 1465096, 1465638, 1466218, 1466763, 1467328, 1467875, 1468410, 1468957, 1469515, 1470050, 1470584, 1471117, 1471676, 1472177]",16,R,ITM,1.1,
3,400,trial,0,75,75,75,trial,"['S', 'S', 'S', 'S', 'S', 'S', 'S', 'C', 'C', 'C', 'C', 'C', 'C', 'C', 'C', 'C', 'C', 'C', 'C', 'C', 'C', 'C', 'C']","[1478666, 1479018, 1479387, 1479758, 1480161, 1480588, 1480973, 1481385, 1481760, 1482169, 1482573, 1483000, 1483379, 1483767, 1484173, 1484563, 1484986, 1485351, 1485746, 1486088, 1486459, 1486848, 1487211]","[1478696, 1479072, 1479455, 1479790, 1480227, 1480658, 1481035, 1481463, 1481861, 1482277, 1482676, 1483090, 1483455, 1483864, 1484266, 1484653, 1485074, 1485466, 1485836, 1486195, 1486590, 1486964, 1487324]","[1477939, 1478339, 1478739, 1479139, 1479539, 1479940, 1480339, 1480739, 1481411, 1481786, 1482194, 1482599, 1483026, 1483405, 1483793, 1484198, 1484589, 1485011, 1485377, 1485771, 1486113, 1486485, 1486873, 1487237]",16,R,ITM,1.1,
2,600,trial,0,76,76,76,trial,"['S', 'S', 'S', 'S', 'S', 'S', 'S', 'S', 'C', 'C', 'C', 'C', 'C', 'C', 'C', 'C', 'C', 'C', 'C', 'C', 'C', 'C', 'C', 'C']","[1493069, 1493554, 1494111, 1494680, 1495271, 1495844, 1496474, 1497085, 1497649, 1498248, 1498817, 1499409, 1499997, 1500577, 1501108, 1501667, 1502222, 1502775, 1503315, 1503882, 1504482, 1505099, 1505648, 1506128]","[1493171, 1493689, 1494227, 1494811, 1495402, 1495973, 1496573, 1497163, 1497769, 1498414, 1498986, 1499513, 1500145, 1500710, 1501229, 1501772, 1502373, 1502950, 1503547, 1504074, 1504592, 1505204, 1505755, 1506280]","[1492912, 1493512, 1494111, 1494710, 1495311, 1495910, 1496511, 1497111, 1497676, 1498275, 1498844, 1499436, 1500024, 1500605, 1501134, 1501693, 1502249, 1502801, 1503343, 1503909, 1504509, 1505126, 1505676, 1506156]",16,R,ITM,1.1,
5,600,trial,0,77,77,77,trial,"['S', 'S', 'S', 'S', 'S', 'S', 'S', 'S', 'C', 'C', 'C', 'C', 'C', 'C', 'C', 'C', 'C', 'C', 'C', 'C', 'C', 'C', 'C', 'C']","[1512091, 1512374, 1512943, 1513542, 1514130, 1514766, 1515404, 1515951, 1516611, 1517199, 1517742, 1518343, 1518889, 1519441, 1519996, 1520553, 1521123, 1521673, 1522188, 1522782, 1523330, 1523888, 1524463, 1525011]","[1512111, 1512489, 1513112, 1513643, 1514224, 1514862, 1515489, 1516062, 1516753, 1517327, 1517848, 1518469, 1518997, 1519572, 1520136, 1520673, 1521209, 1521808, 1522348, 1522914, 1523458, 1524027, 1524623, 1525158]","[1511862, 1512462, 1513062, 1513662, 1514262, 1514862, 1515462, 1516062, 1516637, 1517224, 1517767, 1518368, 1518915, 1519467, 1520022, 1520580, 1521148, 1521698, 1522213, 1522807, 1523355, 1523913, 1524489, 1525038]",16,R,ITM,1.1,
5,400,trial,0,78,78,78,trial,"['S', 'S', 'S', 'S', 'S', 'S', 'S', 'C', 'C', 'C', 'C', 'C', 'C', 'C', 'C', 'C', 'C', 'C', 'C', 'C', 'C', 'C', 'C']","[1531175, 1531485, 1531827, 1532222, 1532606, 1533014, 1533424, 1533844, 1534228, 1534632, 1535007, 1535396, 1535750, 1536137, 1536525, 1536892, 1537286, 1537673, 1538045, 1538443, 1538844, 1539182, 1539556]","[1531237, 1531552, 1531918, 1532307, 1532694, 1533102, 1533507, 1533911, 1534304, 1534720, 1535092, 1535489, 1535846, 1536237, 1536626, 1537006, 1537410, 1537784, 1538186, 1538521, 1538940, 1539291, 1539684]","[1530738, 1531138, 1531537, 1531937, 1532338, 1532738, 1533138, 1533538, 1533870, 1534254, 1534658, 1535034, 1535422, 1535775, 1536163, 1536550, 1536918, 1537311, 1537698, 1538071, 1538468, 1538870, 1539208, 1539581]",16,R,ITM,1.1,
4,400,trial,0,79,79,79,trial,"['S', 'S', 'S', 'S', 'S', 'S', 'S', 'C', 'C', 'C', 'C', 'C', 'C', 'C', 'C', 'C', 'C', 'C', 'C', 'C', 'C', 'C', 'C']","[1545329, 1545731, 1546077, 1546477, 1546881, 1547244, 1547634, 1548058, 1548457, 1548843, 1549209, 1549602, 1549968, 1550356, 1550723, 1551122, 1551520, 1551927, 1552284, 1552695, 1553057, 1553435, 1553817]","[1545415, 1545751, 1546151, 1546542, 1546914, 1547328, 1547732, 1548163, 1548548, 1548926, 1549315, 1549699, 1550062, 1550449, 1550834, 1551222, 1551631, 1552018, 1552393, 1552795, 1553170, 1553571, 1553945]","[1544984, 1545383, 1545783, 1546183, 1546584, 1546983, 1547383, 1547783, 1548084, 1548483, 1548868, 1549235, 1549628, 1549993, 1550382, 1550748, 1551148, 1551546, 1551952, 1552310, 1552720, 1553083, 1553461, 1553843]",16,R,ITM,1.1,
3,400,trial,0,80,80,80,trial,"['S', 'S', 'S', 'S', 'S', 'S', 'S', 'S', 'C', 'C', 'C', 'C', 'C', 'C', 'C', 'C', 'C', 'C', 'C', 'C', 'C', 'C', 'C', 'C']","[1559380, 1559743, 1560014, 1560349, 1560721, 1561121, 1561542, 1561940, 1562362, 1562741, 1563108, 1563460, 1563871, 1564263, 1564639, 1565033, 1565420, 1565809, 1566203, 1566571, 1566969, 1567350, 1567715, 1568102]","[1559424, 1559788, 1560074, 1560429, 1560812, 1561200, 1561608, 1562009, 1562403, 1562768, 1563141, 1563494, 1563926, 1564334, 1564719, 1565095, 1565474, 1565890, 1566288, 1566645, 1567032, 1567427, 1567815, 1568190]","[1559186, 1559585, 1559986, 1560386, 1560786, 1561186, 1561586, 1561987, 1562388, 1562767, 1563133, 1563486, 1563896, 1564289, 1564664, 1565059, 1565446, 1565835, 1566229, 1566598, 1566995, 1567376, 1567740, 1568128]",16,R,ITM,1.1,
6,600,trial,0,81,81,81,trial,"['S', 'S', 'S', 'S', 'S', 'S', 'S', 'C', 'C', 'C', 'C', 'C', 'C', 'C', 'C', 'C', 'C', 'C', 'C', 'C', 'C', 'C', 'C']","[1574313, 1574915, 1575549, 1576184, 1576760, 1577335, 1577931, 1578545, 1579113, 1579645, 1580182, 1580693, 1581216, 1581728, 1582267, 1582778, 1583264, 1583739, 1584258, 1584772, 1585258, 1585747, 1586241]","[1574375, 1574988, 1575596, 1576230, 1576811, 1577379, 1577961, 1578571, 1579157, 1579692, 1580215, 1580740, 1581244, 1581779, 1582294, 1582842, 1583291, 1583787, 1584285, 1584816, 1585286, 1585786, 1586268]","[1573873, 1574472, 1575072, 1575672, 1576272, 1576872, 1577473, 1578073, 1578571, 1579140, 1579672, 1580209, 1580720, 1581244, 1581755, 1582294, 1582806, 1583291, 1583766, 1584285, 1584798, 1585286, 1585774, 1586268]",16,R,ITM,1.1,
3,600,trial,0,82,82,82,trial,"['S', 'S', 'S', 'S', 'S', 'S', 'S', 'C', 'C', 'C', 'C', 'C', 'C', 'C', 'C', 'C', 'C', 'C', 'C', 'C', 'C', 'C', 'C']","[1592035, 1592645, 1593279, 1593920, 1594475, 1595047, 1595623, 1596198, 1596805, 1597401, 1597954, 1598502, 1599009, 1599541, 1600099, 1600656, 1601199, 1601751, 1602274, 1602852, 1603376, 1603958, 1604509]","[1592105, 1592722, 1593348, 1593985, 1594533, 1595114, 1595697, 1596289, 1596890, 1597462, 1598015, 1598575, 1599071, 1599618, 1600162, 1600714, 1601295, 1601867, 1602409, 1603012, 1603548, 1604109, 1604695]","[1591628, 1592227, 1592827, 1593427, 1594028, 1594628, 1595228, 1595827, 1596224, 1596830, 1597426, 1597979, 1598528, 1599035, 1599566, 1600124, 1600681, 1601224, 1601776, 1602299, 1602878, 1603401, 1603984, 1604535]",16,R,ITM,1.1,
7,600,trial,0,83,83,83,trial,"['S', 'S', 'S', 'S', 'S', 'S', 'S', 'C', 'C', 'C', 'C', 'C', 'C', 'C', 'C', 'C', 'C', 'C', 'C', 'C', 'C', 'C', 'C']","[1610664, 1611334, 1611934, 1612536, 1613152, 1613777, 1614367, 1614915, 1615519, 1616063, 1616570, 1617121, 1617639, 1618212, 1618738, 1619239, 1619786, 1620316, 1620898, 1621451, 1622017, 1622566, 1623094]","[1610711, 1611371, 1611991, 1612598, 1613206, 1613843, 1614424, 1614984, 1615599, 1616125, 1616662, 1617210, 1617740, 1618301, 1618828, 1619339, 1619881, 1620410, 1620980, 1621534, 1622107, 1622677, 1623216]","[1610276, 1610875, 1611475, 1612076, 1612676, 1613276, 1613875, 1614475, 1614942, 1615547, 1616090, 1616596, 1617148, 1617666, 1618239, 1618764, 1619267, 1619813, 1620342, 1620926, 1621479, 1622043, 1622593, 1623121]",16,R,ITM,1.1,
2,600,trial,0,84,84,84,trial,"['S', 'S', 'S', 'S', 'S', 'S', 'S', 'C', 'C', 'C', 'C', 'C', 'C', 'C', 'C', 'C', 'C', 'C', 'C', 'C', 'C', 'C', 'C']","[1628975, 1629507, 1630123, 1630756, 1631343, 1631925, 1632520, 1633125, 1633688, 1634225, 1634809, 1635383, 1635927, 1636527, 1637054, 1637586, 1638177, 1638726, 1639289, 1639834, 1640427, 1640982, 1641529]","[1629057, 1629585, 1630216, 1630825, 1631415, 1631996, 1632613, 1633216, 1633786, 1634328, 1634908, 1635480, 1636069, 1636613, 1637152, 1637696, 1638289, 1638842, 1639420, 1639955, 1640492, 1641069, 1641627]","[1628437, 1629037, 1629637, 1630237, 1630837, 1631437, 1632037, 1632637, 1633153, 1633715, 1634251, 1634836, 1635409, 1635954, 1636553, 1637082, 1637614, 1638204, 1638754, 1639317, 1639861, 1640455, 1641010, 1641556]",16,R,ITM,1.1,
4,600,trial,0,85,85,85,trial,"['S', 'S', 'S', 'S', 'S', 'S', 'S', 'C', 'C', 'C', 'C', 'C', 'C', 'C', 'C', 'C', 'C', 'C', 'C', 'C', 'C', 'C', 'C']","[1647840, 1648409, 1648978, 1649532, 1650130, 1650732, 1651326, 1651895, 1652502, 1653092, 1653627, 1654246, 1654817, 1655424, 1655989, 1656513, 1657041, 1657593, 1658175, 1658781, 1659301, 1659877, 1661079]","[1647890, 1648446, 1649025, 1649601, 1650189, 1650814, 1651397, 1651979, 1652583, 1653201, 1653726, 1654346, 1654920, 1655500, 1656069, 1656594, 1657145, 1657681, 1658277, 1658871, 1659402, 1659956, 1661140]","[1647275, 1647875, 1648475, 1649074, 1649674, 1650274, 1650874, 1651474, 1651920, 1652528, 1653118, 1653653, 1654272, 1654843, 1655449, 1656014, 1656539, 1657067, 1657619, 1658202, 1658807, 1659327, 1659902, 1661105]",16,R,ITM,1.1,
3,400,trial,0,86,86,86,trial,"['S', 'S', 'S', 'S', 'S', 'S', 'S', 'C', 'C', 'C', 'C', 'C', 'C', 'C', 'C', 'C', 'C', 'C', 'C', 'C', 'C', 'C', 'C']","[1667023, 1667347, 1667696, 1668102, 1668484, 1668882, 1669275, 1669691, 1670073, 1670469, 1670835, 1671220, 1671575, 1671959, 1672308, 1672686, 1673036, 1673420, 1673794, 1674167, 1674531, 1674887, 1675193]","[1667077, 1667409, 1667771, 1668171, 1668541, 1668958, 1669351, 1669764, 1670155, 1670548, 1670912, 1671304, 1671669, 1672045, 1672409, 1672761, 1673127, 1673500, 1673861, 1674233, 1674588, 1674957, 1675291]","[1666623, 1667023, 1667423, 1667823, 1668224, 1668623, 1669023, 1669424, 1669716, 1670098, 1670495, 1670860, 1671245, 1671601, 1671985, 1672334, 1672712, 1673062, 1673446, 1673820, 1674192, 1674557, 1674912, 1675218]",16,R,ITM,1.1,
3,600,trial,0,87,87,87,trial,"['S', 'S', 'S', 'S', 'S', 'S', 'S', 'C', 'C', 'C', 'C', 'C', 'C', 'C', 'C', 'C', 'C', 'C', 'C', 'C', 'C', 'C', 'C']","[1681410, 1682007, 1682613, 1683227, 1683830, 1684433, 1685048, 1685626, 1686263, 1686824, 1687389, 1687932, 1688484, 1689047, 1689581, 1690135, 1690691, 1691226, 1691792, 1692357, 1692910, 1693461, 1694014]","[1681481, 1682082, 1682691, 1683331, 1683920, 1684519, 1685127, 1685716, 1686356, 1686917, 1687491, 1688040, 1688584, 1689162, 1689718, 1690260, 1690773, 1691336, 1691905, 1692487, 1693024, 1693557, 1694141]","[1680979, 1681580, 1682180, 1682780, 1683379, 1683979, 1684579, 1685179, 1685652, 1686289, 1686850, 1687414, 1687958, 1688510, 1689072, 1689607, 1690161, 1690717, 1691251, 1691817, 1692383, 1692936, 1693487, 1694040]",16,R,ITM,1.1,
2,400,trial,0,88,88,88,trial,"['S', 'S', 'S', 'S', 'S', 'S', 'S', 'S', 'C', 'C', 'C', 'C', 'C', 'C', 'C', 'C', 'C', 'C', 'C', 'C', 'C', 'C', 'C', 'C']","[1699710, 1700035, 1700341, 1700678, 1701066, 1701426, 1701886, 1702304, 1702680, 1703044, 1703461, 1703841, 1704226, 1704619, 1705015, 1705413, 1705826, 1706219, 1706600, 1707010, 1707413, 1707777, 1708197, 1708576]","[1699783, 1700121, 1700416, 1700752, 1701142, 1701497, 1701943, 1702374, 1702779, 1703155, 1703563, 1703955, 1704336, 1704717, 1705109, 1705502, 1705916, 1706317, 1706712, 1707094, 1707499, 1707912, 1708310, 1708684]","[1699523, 1699922, 1700323, 1700723, 1701123, 1701523, 1701923, 1702324, 1702707, 1703071, 1703489, 1703868, 1704253, 1704646, 1705042, 1705441, 1705852, 1706247, 1706628, 1707037, 1707441, 1707803, 1708225, 1708604]",16,R,ITM,1.1,
4,400,trial,0,89,89,89,trial,"['S', 'S', 'S', 'S', 'S', 'S', 'S', 'C', 'C', 'C', 'C', 'C', 'C', 'C', 'C', 'C', 'C', 'C', 'C', 'C', 'C', 'C', 'C']","[1714429, 1714779, 1715162, 1715573, 1716011, 1716450, 1716819, 1717206, 1717620, 1718010, 1718400, 1718770, 1719142, 1719550, 1719992, 1720409, 1720798, 1721171, 1721564, 1721947, 1722356, 1722735, 1723142]","[1714521, 1714870, 1715251, 1715693, 1716112, 1716541, 1716938, 1717307, 1717716, 1718115, 1718504, 1718875, 1719256, 1719651, 1720084, 1720513, 1720892, 1721261, 1721651, 1722023, 1722429, 1722825, 1723225]","[1714140, 1714538, 1714938, 1715338, 1715738, 1716139, 1716538, 1716938, 1717231, 1717646, 1718036, 1718425, 1718796, 1719169, 1719576, 1720017, 1720434, 1720823, 1721197, 1721589, 1721973, 1722382, 1722761, 1723168]",16,R,ITM,1.1,
6,400,trial,0,90,90,90,trial,"['S', 'S', 'S', 'S', 'S', 'S', 'S', 'C', 'C', 'C', 'C', 'C', 'C', 'C', 'C', 'C', 'C', 'C', 'C', 'C', 'C', 'C', 'C']","[1728757, 1729137, 1729508, 1729949, 1730373, 1730731, 1731119, 1731537, 1731957, 1732330, 1732683, 1733096, 1733463, 1733826, 1734206, 1734582, 1734977, 1735339, 1735731, 1736120, 1736511, 1736873, 1737288]","[1728837, 1729201, 1729593, 1730023, 1730394, 1730804, 1731193, 1731612, 1732023, 1732409, 1732767, 1733153, 1733527, 1733916, 1734298, 1734662, 1735046, 1735409, 1735812, 1736195, 1736590, 1736943, 1737365]","[1728478, 1728876, 1729276, 1729676, 1730076, 1730477, 1730876, 1731276, 1731564, 1731984, 1732357, 1732711, 1733123, 1733489, 1733854, 1734233, 1734609, 1735004, 1735365, 1735757, 1736147, 1736539, 1736900, 1737315]",16,R,ITM,1.1,
5,600,trial,0,91,91,91,trial,"['S', 'S', 'S', 'S', 'S', 'S', 'S', 'S', 'C', 'C', 'C', 'C', 'C', 'C', 'C', 'C', 'C', 'C', 'C', 'C', 'C', 'C', 'C', 'C']","[1743339, 1743806, 1744250, 1744769, 1745348, 1745965, 1746558, 1747139, 1747686, 1748235, 1748757, 1749294, 1749839, 1750338, 1750887, 1751449, 1752017, 1752589, 1753140, 1753711, 1754233, 1754793, 1755347, 1755889]","[1743442, 1743905, 1744345, 1744875, 1745416, 1746002, 1746578, 1747159, 1747731, 1748262, 1748783, 1749343, 1749951, 1750428, 1750990, 1751557, 1752152, 1752678, 1753248, 1753835, 1754382, 1754963, 1755493, 1756109]","[1743097, 1743697, 1744297, 1744898, 1745498, 1746098, 1746698, 1747298, 1747712, 1748261, 1748783, 1749319, 1749865, 1750364, 1750913, 1751475, 1752043, 1752614, 1753165, 1753737, 1754259, 1754819, 1755373, 1755915]",16,R,ITM,1.1,
4,600,trial,0,92,92,92,trial,"['S', 'S', 'S', 'S', 'S', 'S', 'S', 'S', 'C', 'C', 'C', 'C', 'C', 'C', 'C', 'C', 'C', 'C', 'C', 'C', 'C', 'C', 'C', 'C']","[1761498, 1761818, 1762336, 1762939, 1763556, 1764128, 1764703, 1765271, 1765812, 1766426, 1767002, 1767586, 1768117, 1768672, 1769220, 1769759, 1770327, 1770880, 1771452, 1771987, 1772560, 1773092, 1773669, 1774264]","[1761524, 1761849, 1762398, 1763007, 1763635, 1764196, 1764730, 1765343, 1765917, 1766528, 1767069, 1767632, 1768196, 1768741, 1769281, 1769838, 1770393, 1770960, 1771523, 1772077, 1772630, 1773173, 1773727, 1774289]","[1761306, 1761905, 1762505, 1763105, 1763705, 1764305, 1764905, 1765506, 1765838, 1766452, 1767027, 1767612, 1768142, 1768697, 1769245, 1769785, 1770353, 1770906, 1771478, 1772013, 1772585, 1773119, 1773694, 1774289]",16,R,ITM,1.1,
2,400,trial,0,93,93,93,trial,"['S', 'S', 'S', 'S', 'S', 'S', 'C', 'C', 'C', 'C', 'C', 'C', 'C', 'C', 'C', 'C', 'C', 'C', 'C', 'C', 'C', 'C']","[1780733, 1781072, 1781441, 1781864, 1782289, 1782708, 1783117, 1783475, 1783855, 1784263, 1784649, 1785039, 1785452, 1785835, 1786238, 1786642, 1787033, 1787451, 1787834, 1788256, 1788660, 1789067]","[1780756, 1781092, 1781506, 1781934, 1782356, 1782773, 1783183, 1783557, 1783939, 1784360, 1784763, 1785142, 1785524, 1785934, 1786327, 1786724, 1787109, 1787520, 1787939, 1788362, 1788766, 1789177]","[1779956, 1780357, 1780756, 1781156, 1781556, 1781956, 1782356, 1782756, 1783145, 1783501, 1783881, 1784290, 1784677, 1785066, 1785480, 1785863, 1786266, 1786670, 1787061, 1787478, 1787860, 1788282, 1788688, 1789093]",16,R,ITM,1.1,
7,400,trial,0,94,94,94,trial,"['S', 'S', 'S', 'S', 'S', 'S', 'C', 'C', 'C', 'C', 'C', 'C', 'C', 'C', 'C', 'C', 'C', 'C', 'C', 'C', 'C', 'C']","[1795200, 1795578, 1795988, 1796398, 1796816, 1797240, 1797656, 1798078, 1798493, 1798880, 1799303, 1799723, 1800145, 1800561, 1800974, 1801366, 1801741, 1802177, 1802594, 1802999, 1803392, 1803817]","[1795220, 1795627, 1796059, 1796473, 1796887, 1797301, 1797732, 1798149, 1798534, 1798931, 1799359, 1799791, 1800189, 1800616, 1801021, 1801421, 1801786, 1802241, 1802656, 1803072, 1803447, 1803884]","[1794546, 1794946, 1795345, 1795745, 1796146, 1796545, 1796945, 1797345, 1797683, 1798106, 1798520, 1798906, 1799329, 1799749, 1800173, 1800588, 1801001, 1801394, 1801768, 1802204, 1802620, 1803027, 1803418, 1803844]",16,R,ITM,1.1,
2,600,trial,0,95,95,95,trial,"['S', 'S', 'S', 'S', 'S', 'S', 'S', 'C', 'C', 'C', 'C', 'C', 'C', 'C', 'C', 'C', 'C', 'C', 'C', 'C', 'C', 'C', 'C']","[1809559, 1810212, 1810808, 1811462, 1812128, 1812728, 1813307, 1813896, 1814475, 1815033, 1815612, 1816103, 1816672, 1817208, 1817780, 1818364, 1818885, 1819453, 1819999, 1820567, 1821134, 1821693, 1822178]","[1809613, 1810266, 1810851, 1811502, 1812182, 1812797, 1813389, 1813950, 1814551, 1815126, 1815688, 1816183, 1816748, 1817298, 1817848, 1818425, 1818959, 1819506, 1820070, 1820595, 1821225, 1821759, 1822284]","[1809234, 1809835, 1810435, 1811035, 1811635, 1812233, 1812834, 1813434, 1813923, 1814503, 1815061, 1815640, 1816130, 1816699, 1817236, 1817807, 1818392, 1818912, 1819480, 1820026, 1820595, 1821161, 1821721, 1822205]",16,R,ITM,1.1,
7,600,trial,0,96,96,96,trial,"['S', 'S', 'S', 'S', 'S', 'S', 'S', 'S', 'C', 'C', 'C', 'C', 'C', 'C', 'C', 'C', 'C', 'C', 'C', 'C', 'C', 'C', 'C', 'C']","[1827858, 1828220, 1828902, 1829504, 1830115, 1830730, 1831336, 1831867, 1832517, 1833079, 1833593, 1834143, 1834719, 1835245, 1835784, 1836284, 1836863, 1837414, 1837929, 1838446, 1839001, 1839509, 1840010, 1840533]","[1827927, 1828296, 1828961, 1829567, 1830180, 1830798, 1831392, 1831925, 1832579, 1833150, 1833668, 1834215, 1834793, 1835328, 1835877, 1836375, 1836955, 1837495, 1838010, 1838530, 1839087, 1839610, 1840132, 1840650]","[1827808, 1828407, 1829007, 1829607, 1830207, 1830807, 1831407, 1832007, 1832545, 1833106, 1833620, 1834170, 1834745, 1835273, 1835811, 1836311, 1836890, 1837441, 1837956, 1838473, 1839028, 1839536, 1840037, 1840561]",16,R,ITM,1.1,
7,400,trial,0,97,97,97,trial,"['S', 'S', 'S', 'S', 'S', 'S', 'S', 'C', 'C', 'C', 'C', 'C', 'C', 'C', 'C', 'C', 'C', 'C', 'C', 'C', 'C', 'C', 'C']","[1846426, 1846719, 1847085, 1847465, 1847867, 1848259, 1848680, 1849075, 1849499, 1849897, 1850278, 1850646, 1851080, 1851458, 1851791, 1852156, 1852524, 1852892, 1853303, 1853691, 1854088, 1854475, 1854864]","[1846491, 1846795, 1847130, 1847526, 1847939, 1848329, 1848700, 1849104, 1849574, 1849958, 1850379, 1850749, 1851156, 1851544, 1851899, 1852239, 1852610, 1852969, 1853392, 1853768, 1854160, 1854538, 1854941]","[1845985, 1846384, 1846785, 1847184, 1847584, 1847985, 1848384, 1848784, 1849103, 1849527, 1849924, 1850306, 1850673, 1851107, 1851486, 1851817, 1852184, 1852552, 1852918, 1853331, 1853719, 1854115, 1854501, 1854891]",16,R,ITM,1.1,
6,400,trial,0,98,98,98,trial,"['S', 'S', 'S', 'S', 'S', 'S', 'S', 'C', 'C', 'C', 'C', 'C', 'C', 'C', 'C', 'C', 'C', 'C', 'C', 'C', 'C', 'C', 'C']","[1860886, 1861116, 1861426, 1861813, 1862203, 1862616, 1862995, 1863416, 1863824, 1864184, 1864571, 1864940, 1865315, 1865687, 1866060, 1866428, 1866810, 1867174, 1867561, 1867914, 1868336, 1868708, 1869074]","[1860915, 1861183, 1861470, 1861860, 1862247, 1862675, 1863044, 1863461, 1863887, 1864279, 1864669, 1865028, 1865393, 1865769, 1866153, 1866543, 1866936, 1867284, 1867659, 1868009, 1868422, 1868812, 1869201]","[1860307, 1860706, 1861106, 1861507, 1861906, 1862306, 1862707, 1863107, 1863443, 1863852, 1864211, 1864598, 1864968, 1865342, 1865714, 1866087, 1866455, 1866836, 1867202, 1867588, 1867941, 1868363, 1868735, 1869101]",16,R,ITM,1.1,
5,400,trial,0,99,99,99,trial,"['S', 'S', 'S', 'S', 'S', 'S', 'S', 'S', 'C', 'C', 'C', 'C', 'C', 'C', 'C', 'C', 'C', 'C', 'C', 'C', 'C', 'C', 'C', 'C']","[1874940, 1875218, 1875553, 1875909, 1876272, 1876654, 1877014, 1877408, 1877823, 1878202, 1878609, 1878979, 1879346, 1879756, 1880129, 1880514, 1880883, 1881273, 1881672, 1882092, 1882483, 1882897, 1883309, 1883687]","[1874960, 1875279, 1875617, 1875978, 1876345, 1876733, 1877104, 1877500, 1877906, 1878299, 1878694, 1879071, 1879440, 1879816, 1880204, 1880580, 1880941, 1881334, 1881755, 1882171, 1882562, 1882969, 1883378, 1883772]","[1874754, 1875153, 1875553, 1875953, 1876354, 1876753, 1877153, 1877554, 1877849, 1878227, 1878635, 1879005, 1879372, 1879782, 1880155, 1880541, 1880908, 1881298, 1881699, 1882118, 1882509, 1882924, 1883335, 1883714]",16,R,ITM,1.1,
5,600,trial,0,100,100,100,trial,"['S', 'S', 'S', 'S', 'S', 'S', 'C', 'C', 'C', 'C', 'C', 'C', 'C', 'C', 'C', 'C', 'C', 'C', 'C', 'C', 'C', 'C']","[1889695, 1890333, 1891533, 1892117, 1892701, 1893320, 1893938, 1894476, 1895040, 1895573, 1896105, 1896626, 1897197, 1897753, 1898283, 1898777, 1899275, 1899792, 1900340, 1900893, 1901421, 1901991]","[1889762, 1890355, 1891579, 1892158, 1892758, 1893366, 1893981, 1894555, 1895120, 1895656, 1896190, 1896712, 1897293, 1897838, 1898356, 1898890, 1899403, 1899914, 1900409, 1900943, 1901484, 1902018]","[1889294, 1889894, 1890494, 1891094, 1891694, 1892294, 1892894, 1893494, 1893963, 1894503, 1895065, 1895600, 1896131, 1896651, 1897223, 1897779, 1898309, 1898803, 1899301, 1899817, 1900366, 1900918, 1901448, 1902018]",16,R,ITM,1.1,
6,600,trial,0,101,101,101,trial,"['S', 'S', 'S', 'S', 'S', 'S', 'S', 'C', 'C', 'C', 'C', 'C', 'C', 'C', 'C', 'C', 'C', 'C', 'C', 'C', 'C', 'C', 'C']","[1907848, 1908427, 1909012, 1909641, 1910219, 1910819, 1911489, 1912044, 1912591, 1913118, 1913549, 1914099, 1914582, 1915080, 1915609, 1916111, 1916597, 1917099, 1917616, 1918133, 1918599, 1919106, 1919617]","[1907868, 1908474, 1909054, 1909689, 1910283, 1910859, 1911552, 1912091, 1912629, 1913145, 1913608, 1914140, 1914651, 1915151, 1915640, 1916184, 1916673, 1917196, 1917709, 1918239, 1918715, 1919227, 1919722]","[1907407, 1908007, 1908608, 1909208, 1909808, 1910408, 1911008, 1911608, 1912071, 1912619, 1913145, 1913577, 1914126, 1914608, 1915107, 1915635, 1916139, 1916623, 1917125, 1917643, 1918159, 1918625, 1919132, 1919644]",16,R,ITM,1.1,
6,400,trial,0,102,102,102,trial,"['S', 'S', 'S', 'S', 'S', 'S', 'S', 'S', 'C', 'C', 'C', 'C', 'C', 'C', 'C', 'C', 'C', 'C', 'C', 'C', 'C', 'C', 'C', 'C']","[1925478, 1925708, 1926024, 1926360, 1926746, 1927122, 1927517, 1927897, 1928328, 1928729, 1929134, 1929517, 1929902, 1930283, 1930661, 1931066, 1931449, 1931844, 1932236, 1932631, 1933026, 1933422, 1933833, 1934262]","[1925498, 1925788, 1926092, 1926437, 1926806, 1927191, 1927583, 1927975, 1928411, 1928810, 1929193, 1929577, 1929967, 1930358, 1930726, 1931143, 1931549, 1931954, 1932342, 1932755, 1933153, 1933562, 1933974, 1934392]","[1925225, 1925624, 1926024, 1926424, 1926824, 1927224, 1927624, 1928025, 1928355, 1928757, 1929160, 1929543, 1929928, 1930310, 1930688, 1931094, 1931475, 1931871, 1932264, 1932657, 1933052, 1933449, 1933859, 1934288]",16,R,ITM,1.1,
6,600,trial,0,103,103,103,trial,"['S', 'S', 'S', 'S', 'S', 'S', 'S', 'S', 'C', 'C', 'C', 'C', 'C', 'C', 'C', 'C', 'C', 'C', 'C', 'C', 'C', 'C', 'C', 'C']","[1940192, 1940610, 1941052, 1941592, 1942190, 1942757, 1943324, 1943900, 1944478, 1945028, 1945570, 1946102, 1946674, 1947285, 1947797, 1948390, 1948994, 1949543, 1950084, 1950663, 1951167, 1951648, 1952227, 1952797]","[1940270, 1940698, 1941184, 1941658, 1942240, 1942811, 1943399, 1943949, 1944536, 1945109, 1945666, 1946188, 1946770, 1947376, 1947930, 1948473, 1949076, 1949618, 1950157, 1950722, 1951288, 1951773, 1952368, 1952923]","[1939873, 1940472, 1941072, 1941672, 1942273, 1942873, 1943473, 1944072, 1944505, 1945055, 1945597, 1946129, 1946701, 1947312, 1947825, 1948417, 1949022, 1949571, 1950110, 1950690, 1951194, 1951675, 1952253, 1952825]",16,R,ITM,1.1,
2,400,trial,0,104,104,104,trial,"['S', 'S', 'S', 'S', 'S', 'S', 'S', 'S', 'C', 'C', 'C', 'C', 'C', 'C', 'C', 'C', 'C', 'C', 'C', 'C', 'C', 'C', 'C', 'C']","[1958739, 1959067, 1959335, 1959652, 1959997, 1960404, 1960811, 1961200, 1961611, 1962010, 1962383, 1962760, 1963159, 1963542, 1963910, 1964280, 1964670, 1965037, 1965408, 1965767, 1966155, 1966537, 1966921, 1967318]","[1958759, 1959135, 1959386, 1959703, 1960074, 1960495, 1960881, 1961279, 1961666, 1962093, 1962477, 1962851, 1963205, 1963608, 1963992, 1964343, 1964740, 1965119, 1965497, 1965850, 1966225, 1966615, 1967016, 1967393]","[1958534, 1958933, 1959332, 1959733, 1960133, 1960534, 1960933, 1961333, 1961638, 1962038, 1962409, 1962786, 1963186, 1963570, 1963937, 1964307, 1964698, 1965064, 1965435, 1965794, 1966182, 1966565, 1966949, 1967345]",16,R,ITM,1.1,
7,400,trial,0,105,105,105,trial,"['S', 'S', 'S', 'S', 'S', 'S', 'S', 'C', 'C', 'C', 'C', 'C', 'C', 'C', 'C', 'C', 'C', 'C', 'C', 'C', 'C', 'C', 'C']","[1973296, 1973691, 1974091, 1974504, 1974908, 1975339, 1975717, 1976942, 1977314, 1977709, 1978133, 1978485, 1978898, 1979265, 1979677, 1980068, 1980494, 1980854, 1981268, 1981659, 1982040, 1982449, 1982839]","[1973341, 1973743, 1974134, 1974550, 1974964, 1975359, 1975773, 1976993, 1977363, 1977788, 1978200, 1978573, 1978977, 1979337, 1979767, 1980177, 1980598, 1980953, 1981336, 1981741, 1982141, 1982520, 1982949]","[1973038, 1973436, 1973836, 1974237, 1974636, 1975036, 1975436, 1975836, 1976969, 1977341, 1977737, 1978161, 1978512, 1978925, 1979291, 1979704, 1980095, 1980521, 1980880, 1981296, 1981686, 1982067, 1982476, 1982866]",16,R,ITM,1.1,
2,600,trial,0,106,106,106,trial,"['S', 'S', 'S', 'S', 'S', 'S', 'S', 'C', 'C', 'C', 'C', 'C', 'C', 'C', 'C', 'C', 'C', 'C', 'C', 'C', 'C', 'C', 'C']","[1988754, 1989475, 1990135, 1990731, 1991320, 1991912, 1992519, 1993098, 1993659, 1994192, 1994691, 1995225, 1995793, 1996362, 1996895, 1997374, 1997902, 1998439, 1998959, 1999500, 2000036, 2000600, 2001117]","[1988837, 1989553, 1990188, 1990807, 1991394, 1991993, 1992612, 1993151, 1993733, 1994260, 1994752, 1995304, 1995866, 1996426, 1996962, 1997466, 1997985, 1998514, 1999064, 1999585, 2000103, 2000668, 2001207]","[1988427, 1989027, 1989627, 1990227, 1990828, 1991428, 1992028, 1992628, 1993125, 1993686, 1994220, 1994718, 1995252, 1995820, 1996389, 1996921, 1997402, 1997930, 1998467, 1998987, 1999527, 2000064, 2000627, 2001143]",16,R,ITM,1.1,
4,400,trial,0,107,107,107,trial,"['S', 'S', 'S', 'S', 'S', 'S', 'C', 'C', 'C', 'C', 'C', 'C', 'C', 'C', 'C', 'C', 'C', 'C', 'C', 'C', 'C', 'C']","[2006999, 2007626, 2008008, 2008406, 2008790, 2009225, 2009630, 2010056, 2010425, 2010848, 2011185, 2011610, 2011973, 2012384, 2012764, 2013170, 2013503, 2013948, 2014348, 2014701, 2015102, 2015429]","[2007064, 2007668, 2008036, 2008426, 2008856, 2009263, 2009666, 2010107, 2010494, 2010917, 2011264, 2011671, 2012046, 2012456, 2012811, 2013228, 2013594, 2014047, 2014415, 2014748, 2015127, 2015492]","[2006482, 2006881, 2007281, 2007682, 2008081, 2008481, 2008882, 2009282, 2009656, 2010082, 2010450, 2010873, 2011210, 2011635, 2011999, 2012409, 2012790, 2013196, 2013529, 2013974, 2014374, 2014727, 2015127, 2015455]",16,R,ITM,1.1,
5,600,trial,0,108,108,108,trial,"['S', 'S', 'S', 'S', 'S', 'S', 'S', 'S', 'C', 'C', 'C', 'C', 'C', 'C', 'C', 'C', 'C', 'C', 'C', 'C', 'C', 'C', 'C', 'C']","[2021149, 2021745, 2022204, 2022775, 2023292, 2023885, 2024530, 2025074, 2025659, 2026184, 2026733, 2027285, 2027851, 2028399, 2028908, 2029419, 2029966, 2030507, 2031024, 2031546, 2032075, 2032594, 2033081, 2033605]","[2021190, 2021882, 2022356, 2022851, 2023450, 2023990, 2024568, 2025170, 2025760, 2026306, 2026843, 2027393, 2027930, 2028475, 2029009, 2029541, 2030069, 2030619, 2031127, 2031666, 2032188, 2032681, 2033201, 2033709]","[2020968, 2021568, 2022168, 2022768, 2023368, 2023968, 2024568, 2025168, 2025684, 2026210, 2026759, 2027311, 2027877, 2028425, 2028935, 2029445, 2029992, 2030532, 2031049, 2031571, 2032101, 2032620, 2033107, 2033631]",16,R,ITM,1.1,
7,600,trial,0,109,109,109,trial,"['S', 'S', 'S', 'S', 'S', 'S', 'S', 'C', 'C', 'C', 'C', 'C', 'C', 'C', 'C', 'C', 'C', 'C', 'C', 'C', 'C', 'C', 'C']","[2039670, 2040227, 2040839, 2041398, 2041978, 2042603, 2043210, 2043790, 2044354, 2044925, 2045461, 2046036, 2046586, 2047174, 2047774, 2048367, 2048917, 2049540, 2050115, 2050704, 2051270, 2051854, 2052412]","[2039781, 2040286, 2040908, 2041476, 2042056, 2042670, 2043321, 2043896, 2044447, 2045031, 2045623, 2046189, 2046771, 2047325, 2047936, 2048471, 2049051, 2049635, 2050225, 2050751, 2051389, 2051957, 2052538]","[2039057, 2039656, 2040256, 2040856, 2041456, 2042056, 2042656, 2043256, 2043816, 2044382, 2044953, 2045489, 2046063, 2046614, 2047201, 2047801, 2048394, 2048944, 2049566, 2050143, 2050731, 2051297, 2051880, 2052440]",16,R,ITM,1.1,
4,600,trial,0,110,110,110,trial,"['S', 'S', 'S', 'S', 'S', 'S', 'C', 'C', 'C', 'C', 'C', 'C', 'C', 'C', 'C', 'C', 'C', 'C', 'C', 'C', 'C', 'C']","[2058983, 2059581, 2060170, 2060741, 2061340, 2061888, 2062472, 2063092, 2063670, 2064217, 2064783, 2065374, 2065936, 2066487, 2067061, 2067617, 2068165, 2068731, 2069327, 2069873, 2070408, 2070993]","[2059102, 2059628, 2060228, 2060761, 2061388, 2061966, 2062579, 2063174, 2063766, 2064309, 2064883, 2065466, 2066037, 2066607, 2067225, 2067788, 2068313, 2068887, 2069447, 2069975, 2070512, 2071098]","[2057828, 2058428, 2059028, 2059628, 2060228, 2060828, 2061428, 2062028, 2062497, 2063118, 2063695, 2064242, 2064808, 2065399, 2065961, 2066513, 2067087, 2067643, 2068191, 2068757, 2069353, 2069899, 2070433, 2071019]",16,R,ITM,1.1,
5,600,trial,0,111,111,111,trial,"['C', 'C', 'C', 'C', 'C', 'C', 'C', 'C', 'C', 'C', 'C', 'C', 'C', 'C', 'C', 'C']","[2081050, 2081650, 2082204, 2082745, 2083332, 2083868, 2084403, 2084921, 2085433, 2085997, 2086545, 2087045, 2087546, 2088080, 2088595, 2089117]","[2081118, 2081735, 2082306, 2082878, 2083442, 2083980, 2084537, 2085042, 2085582, 2086123, 2086668, 2087230, 2087703, 2088211, 2088728, 2089249]","[2076349, 2076949, 2077549, 2078149, 2078749, 2079349, 2079949, 2080549, 2081076, 2081676, 2082230, 2082770, 2083357, 2083895, 2084428, 2084946, 2085458, 2086023, 2086571, 2087070, 2087572, 2088105, 2088621, 2089143]",16,R,ITM,1.1,
3,600,trial,0,112,112,112,trial,"['S', 'S', 'S', 'S', 'S', 'S', 'S', 'C', 'C', 'C', 'C', 'C', 'C', 'C', 'C', 'C', 'C', 'C', 'C', 'C', 'C', 'C', 'C']","[2095182, 2095901, 2096536, 2097174, 2097792, 2098352, 2098914, 2099497, 2100088, 2100661, 2101234, 2101803, 2102329, 2102906, 2103512, 2104101, 2104645, 2105189, 2105709, 2106228, 2106797, 2107315, 2107878]","[2095241, 2095955, 2096556, 2097247, 2097847, 2098372, 2098997, 2099577, 2100159, 2100731, 2101324, 2101901, 2102404, 2103022, 2103608, 2104185, 2104734, 2105291, 2105805, 2106320, 2106877, 2107401, 2107974]","[2094834, 2095434, 2096034, 2096634, 2097234, 2097835, 2098435, 2099035, 2099523, 2100114, 2100686, 2101260, 2101828, 2102354, 2102932, 2103537, 2104127, 2104671, 2105214, 2105735, 2106254, 2106822, 2107340, 2107904]",16,R,ITM,1.1,
6,400,trial,0,113,113,113,trial,"['S', 'S', 'S', 'S', 'S', 'S', 'S', 'C', 'C', 'C', 'C', 'C', 'C', 'C', 'C', 'C', 'C', 'C', 'C', 'C', 'C', 'C', 'C']","[2114113, 2114369, 2114750, 2115136, 2115530, 2115909, 2116359, 2116793, 2117186, 2117585, 2117974, 2118360, 2118740, 2119119, 2119511, 2119918, 2120315, 2120675, 2121076, 2121421, 2121810, 2122204, 2122609]","[2114143, 2114420, 2114797, 2115156, 2115573, 2115958, 2116379, 2116845, 2117213, 2117613, 2118000, 2118412, 2118768, 2119146, 2119537, 2119945, 2120342, 2120701, 2121143, 2121490, 2121893, 2122279, 2122658]","[2113688, 2114087, 2114487, 2114887, 2115288, 2115687, 2116087, 2116488, 2116820, 2117213, 2117612, 2118000, 2118387, 2118768, 2119146, 2119537, 2119945, 2120342, 2120701, 2121103, 2121448, 2121837, 2122231, 2122637]",16,R,ITM,1.1,
3,400,trial,0,114,114,114,trial,"['S', 'S', 'S', 'S', 'S', 'S', 'C', 'C', 'C', 'C', 'C', 'C', 'C', 'C', 'C', 'C', 'C', 'C', 'C', 'C', 'C', 'C']","[2128432, 2128765, 2129098, 2129485, 2129915, 2130323, 2131130, 2131536, 2131901, 2132284, 2132664, 2133036, 2133424, 2133813, 2134211, 2134569, 2134945, 2135331, 2135763, 2136145, 2136530, 2136849]","[2128508, 2128829, 2129184, 2129577, 2129998, 2130394, 2131185, 2131602, 2131983, 2132357, 2132702, 2133100, 2133508, 2133886, 2134273, 2134595, 2135022, 2135416, 2135790, 2136204, 2136564, 2136902]","[2128026, 2128427, 2128826, 2129226, 2129627, 2130026, 2130426, 2130826, 2131155, 2131562, 2131927, 2132310, 2132689, 2133061, 2133449, 2133838, 2134237, 2134595, 2134971, 2135357, 2135789, 2136171, 2136556, 2136875]",16,R,ITM,1.1,
2,600,trial,0,115,115,115,trial,"['S', 'S', 'S', 'S', 'S', 'S', 'S', 'C', 'C', 'C', 'C', 'C', 'C', 'C', 'C', 'C', 'C', 'C', 'C', 'C', 'C', 'C', 'C']","[2143096, 2143667, 2144249, 2144873, 2145491, 2146059, 2146696, 2147270, 2147833, 2148417, 2148986, 2149529, 2150083, 2150671, 2151221, 2151802, 2152356, 2152920, 2153478, 2154047, 2154625, 2155185, 2155730]","[2143188, 2143760, 2144336, 2144964, 2145554, 2146130, 2146779, 2147363, 2147926, 2148492, 2149050, 2149624, 2150171, 2150757, 2151322, 2151906, 2152456, 2152947, 2153574, 2154119, 2154703, 2155247, 2155777]","[2142626, 2143226, 2143826, 2144427, 2145027, 2145626, 2146227, 2146825, 2147297, 2147860, 2148444, 2149013, 2149557, 2150111, 2150699, 2151247, 2151829, 2152383, 2152947, 2153504, 2154074, 2154652, 2155211, 2155757]",16,R,ITM,1.1,
3,600,trial,0,116,116,116,trial,"['C', 'C', 'C', 'C', 'C', 'C', 'C', 'C', 'C', 'C', 'C', 'C', 'C', 'C', 'C', 'C']","[2165842, 2166409, 2166968, 2167525, 2168068, 2168721, 2169766, 2170276, 2170845, 2171388, 2171917, 2172431, 2172951, 2173480, 2174033, 2174559]","[2165868, 2166434, 2166993, 2167550, 2168094, 2168747, 2169889, 2170419, 2170977, 2171523, 2172052, 2172596, 2173099, 2173655, 2174152, 2174584]","[2161144, 2161744, 2162344, 2162945, 2163545, 2164145, 2164744, 2165344, 2165868, 2166434, 2166993, 2167550, 2168093, 2168747, 2169792, 2170302, 2170870, 2171414, 2171942, 2172457, 2172977, 2173506, 2174059, 2174584]",16,R,ITM,1.1,
5,400,trial,0,117,117,117,trial,"['S', 'S', 'S', 'S', 'S', 'S', 'S', 'C', 'C', 'C', 'C', 'C', 'C', 'C', 'C', 'C', 'C', 'C', 'C', 'C', 'C', 'C', 'C']","[2180625, 2180945, 2181285, 2181650, 2182105, 2182512, 2182913, 2183326, 2183741, 2184152, 2184529, 2184951, 2185314, 2185701, 2186098, 2186511, 2186918, 2187302, 2187705, 2188079, 2188509, 2188929, 2189319]","[2180653, 2181003, 2181337, 2181697, 2182174, 2182565, 2182975, 2183388, 2183844, 2184230, 2184607, 2185021, 2185405, 2185811, 2186210, 2186631, 2187028, 2187400, 2187784, 2188153, 2188551, 2188983, 2189374]","[2180204, 2180603, 2181003, 2181403, 2181804, 2182203, 2182603, 2183004, 2183352, 2183767, 2184178, 2184555, 2184977, 2185339, 2185726, 2186124, 2186536, 2186944, 2187328, 2187731, 2188104, 2188534, 2188955, 2189344]",16,R,ITM,1.1,
4,400,trial,0,118,118,118,trial,"['S', 'S', 'S', 'S', 'S', 'S', 'S', 'C', 'C', 'C', 'C', 'C', 'C', 'C', 'C', 'C', 'C', 'C', 'C', 'C', 'C', 'C', 'C']","[2194925, 2195311, 2195664, 2196068, 2196487, 2196899, 2197325, 2197768, 2198160, 2198543, 2198914, 2199315, 2199701, 2200087, 2200478, 2200898, 2201272, 2201660, 2202078, 2202470, 2202829, 2203217, 2203622]","[2194994, 2195378, 2195722, 2196134, 2196531, 2196953, 2197374, 2197809, 2198230, 2198628, 2198993, 2199402, 2199793, 2200164, 2200560, 2200973, 2201368, 2201767, 2202166, 2202541, 2202888, 2203304, 2203720]","[2194660, 2195060, 2195461, 2195860, 2196260, 2196660, 2197060, 2197460, 2197793, 2198185, 2198568, 2198939, 2199341, 2199727, 2200113, 2200504, 2200924, 2201297, 2201686, 2202104, 2202496, 2202855, 2203243, 2203648]",16,R,ITM,1.1,
7,400,trial,0,119,119,119,trial,"['S', 'S', 'S', 'S', 'S', 'S', 'S', 'C', 'C', 'C', 'C', 'C', 'C', 'C', 'C', 'C', 'C', 'C', 'C', 'C', 'C', 'C', 'C']","[2209275, 2209678, 2210072, 2210429, 2210891, 2211290, 2211641, 2212065, 2212483, 2212860, 2213241, 2213657, 2214041, 2214446, 2214812, 2215179, 2215592, 2215957, 2216325, 2216707, 2217113, 2217473, 2217878]","[2209345, 2209731, 2210124, 2210496, 2210911, 2211341, 2211717, 2212125, 2212546, 2212912, 2213293, 2213734, 2214108, 2214494, 2214870, 2215254, 2215663, 2216038, 2216421, 2216791, 2217182, 2217553, 2217944]","[2208963, 2209362, 2209762, 2210162, 2210563, 2210962, 2211362, 2211763, 2212091, 2212509, 2212887, 2213268, 2213685, 2214068, 2214473, 2214839, 2215205, 2215620, 2215984, 2216352, 2216733, 2217141, 2217500, 2217906]",16,R,ITM,1.1,
7,600,trial,0,120,120,120,trial,"['S', 'S', 'S', 'S', 'S', 'S', 'S', 'S', 'C', 'C', 'C', 'C', 'C', 'C', 'C', 'C', 'C', 'C', 'C', 'C', 'C', 'C', 'C', 'C']","[2223771, 2224233, 2224681, 2225259, 2225853, 2226426, 2227046, 2227646, 2228213, 2228783, 2229385, 2229954, 2230505, 2231062, 2231642, 2232192, 2232776, 2233306, 2233880, 2234429, 2234986, 2235557, 2236101, 2236643]","[2223811, 2224317, 2224821, 2225384, 2225909, 2226521, 2227153, 2227707, 2228315, 2228900, 2229479, 2230047, 2230611, 2231177, 2231696, 2232314, 2232890, 2233415, 2233996, 2234550, 2235131, 2235760, 2236326, 2236818]","[2223481, 2224080, 2224680, 2225281, 2225881, 2226481, 2227080, 2227680, 2228240, 2228809, 2229412, 2229981, 2230532, 2231090, 2231669, 2232218, 2232803, 2233333, 2233907, 2234457, 2235013, 2235584, 2236129, 2236669]",16,R,ITM,1.1,
2,400,trial,0,121,121,121,trial,"['S', 'S', 'S', 'S', 'S', 'S', 'C', 'C', 'C', 'C', 'C', 'C', 'C', 'C', 'C', 'C', 'C', 'C', 'C', 'C', 'C', 'C']","[2242545, 2243301, 2243718, 2244074, 2244493, 2244898, 2245321, 2245742, 2246108, 2246500, 2246887, 2247247, 2247653, 2248035, 2248427, 2248805, 2249221, 2249593, 2249991, 2250378, 2250754, 2251109]","[2242626, 2243348, 2243766, 2244145, 2244567, 2244947, 2245385, 2245830, 2246232, 2246619, 2246993, 2247357, 2247764, 2248122, 2248511, 2248901, 2249317, 2249681, 2250098, 2250487, 2250874, 2251238]","[2242166, 2242567, 2242966, 2243366, 2243765, 2244166, 2244567, 2244966, 2245349, 2245770, 2246134, 2246528, 2246915, 2247274, 2247680, 2248062, 2248454, 2248833, 2249248, 2249620, 2250017, 2250405, 2250780, 2251137]",16,R,ITM,1.1,
3,400,trial,0,122,122,122,trial,"['S', 'S', 'S', 'S', 'S', 'S', 'S', 'C', 'C', 'C', 'C', 'C', 'C', 'C', 'C', 'C', 'C', 'C', 'C', 'C', 'C', 'C', 'C']","[2257191, 2257549, 2257935, 2258339, 2258726, 2259148, 2259534, 2259955, 2260359, 2260742, 2261129, 2261510, 2261875, 2262254, 2262660, 2263066, 2263471, 2263855, 2264236, 2264617, 2264980, 2265364, 2265731]","[2257255, 2257630, 2258004, 2258393, 2258801, 2259226, 2259614, 2260034, 2260453, 2260819, 2261225, 2261608, 2261991, 2262383, 2262791, 2263200, 2263611, 2263967, 2264337, 2264706, 2265076, 2265477, 2265876]","[2256815, 2257214, 2257614, 2258014, 2258414, 2258814, 2259214, 2259614, 2259981, 2260384, 2260767, 2261154, 2261535, 2261901, 2262280, 2262685, 2263092, 2263496, 2263880, 2264261, 2264643, 2265006, 2265390, 2265756]",16,R,ITM,1.1,
4,600,trial,0,123,123,123,trial,"['S', 'S', 'S', 'S', 'S', 'S', 'S', 'S', 'C', 'C', 'C', 'C', 'C', 'C', 'C', 'C', 'C', 'C', 'C', 'C', 'C', 'C', 'C', 'C']","[2271511, 2271846, 2272444, 2273031, 2273618, 2274203, 2274801, 2275356, 2275914, 2276487, 2277028, 2277565, 2278118, 2278624, 2279124, 2279710, 2280228, 2280758, 2281262, 2281774, 2282296, 2282810, 2283343, 2283814]","[2271562, 2271961, 2272558, 2273135, 2273704, 2274272, 2274890, 2275426, 2275976, 2276577, 2277126, 2277665, 2278194, 2278729, 2279224, 2279786, 2280309, 2280873, 2281369, 2281895, 2282456, 2283005, 2283524, 2284000]","[2271324, 2271922, 2272522, 2273122, 2273722, 2274322, 2274922, 2275522, 2275940, 2276512, 2277054, 2277591, 2278144, 2278649, 2279150, 2279736, 2280254, 2280783, 2281287, 2281799, 2282321, 2282835, 2283369, 2283840]",16,R,ITM,1.1,
5,400,trial,0,124,124,124,trial,"['S', 'S', 'S', 'S', 'S', 'S', 'S', 'C', 'C', 'C', 'C', 'C', 'C', 'C', 'C', 'C', 'C', 'C', 'C', 'C', 'C', 'C', 'C']","[2289909, 2290219, 2290566, 2290941, 2291339, 2291786, 2292210, 2292603, 2293019, 2293423, 2293805, 2294214, 2294580, 2294963, 2295355, 2295757, 2296157, 2296579, 2296999, 2297348, 2297747, 2298178, 2298576]","[2290000, 2290290, 2290632, 2291007, 2291409, 2291864, 2292273, 2292683, 2293105, 2293508, 2293891, 2294303, 2294676, 2295062, 2295445, 2295824, 2296253, 2296630, 2297080, 2297456, 2297839, 2298264, 2298663]","[2289500, 2289899, 2290299, 2290699, 2291099, 2291500, 2291899, 2292299, 2292629, 2293045, 2293448, 2293830, 2294240, 2294605, 2294988, 2295380, 2295783, 2296182, 2296605, 2297026, 2297373, 2297773, 2298205, 2298603]",16,R,ITM,1.1,
6,600,trial,0,125,125,125,trial,"['S', 'S', 'S', 'S', 'S', 'S', 'S', 'S', 'C', 'C', 'C', 'C', 'C', 'C', 'C', 'C', 'C', 'C', 'C', 'C', 'C', 'C', 'C', 'C']","[2304269, 2304489, 2305124, 2305722, 2306320, 2306927, 2307487, 2308058, 2308635, 2309177, 2309719, 2310241, 2310832, 2311351, 2311873, 2312363, 2312843, 2313377, 2313878, 2314393, 2314889, 2315387, 2315895, 2316403]","[2304289, 2304583, 2305218, 2305795, 2306391, 2306970, 2307539, 2308116, 2308677, 2309256, 2309805, 2310333, 2310919, 2311431, 2311970, 2312501, 2312998, 2313512, 2314027, 2314518, 2314998, 2315506, 2316002, 2316507]","[2304031, 2304631, 2305231, 2305831, 2306432, 2307032, 2307632, 2308232, 2308662, 2309203, 2309745, 2310268, 2310858, 2311377, 2311901, 2312389, 2312869, 2313404, 2313905, 2314420, 2314916, 2315415, 2315922, 2316430]",16,R,ITM,1.1,
