octave,ioi,event,.thisRepN,.thisTrialN,.thisN,.thisIndex,tap_types,tap_times,release_times,tone_times,subject,handedness,experiment,version
,,SPR,0,-1,-1,0,"[b'P', b'P', b'P', b'P', b'P', b'P', b'P', b'P', b'P', b'P', b'P', b'P', b'P', b'P', b'P', b'P', b'P', b'P', b'P', b'P', b'P', b'P', b'P', b'P', b'P', b'P', b'P', b'P', b'P', b'P']","[266685.1154443047, 266685.53729410475, 266686.057432118, 266686.5038401686, 266687.0403988353, 266687.5236732829, 266688.0315318169, 266688.52302526217, 266689.01042814314, 266689.50598313165, 266690.00975074735, 266690.5217210807, 266690.98863043956, 266691.52105607203, 266692.02072109026, 266692.5040164189, 266692.97911717, 266693.47059929, 266693.5729993024, 266693.92932610447, 266694.4372055195, 266694.95326783287, 266695.4365153828, 266695.9239221568, 266696.39901866094, 266696.89458497474, 266697.40655176895, 266697.8898676247, 266698.37314667314, 266698.8686889207]","[266685.1932439506, 266685.6232886821, 266686.1557019275, 266686.61034490203, 266687.1468533127, 266687.63426185626, 266688.12574362237, 266688.6335957858, 266689.1291889973, 266689.62886888004, 266690.1449517205, 266690.6527585827, 266691.11968386784, 266691.63572034525, 266692.1354076602, 266692.62691738567, 266693.093795246, 266693.470637159, 266693.59345283196, 266694.05631445034, 266694.5395881901, 266695.0515280866, 266695.5389146874, 266696.02222311095, 266696.5136910743, 266696.9969768472, 266697.50485236914, 266697.98401430954, 266698.459122139, 266698.94651475636]",,4,R,ITM,1
7,500,practice,0,0,0,0,"['S', 'S', 'S', 'S', 'S', 'S', 'S', 'S', 'C', 'C', 'C', 'C', 'C', 'C', 'C', 'C', 'C', 'C', 'C', 'C', 'C', 'C', 'C']","[266794.1627781295, 266794.6460610711, 266795.16211312084, 266795.71092578484, 266796.21878502663, 266796.71027210145, 266797.18946731, 266797.7096106319, 266798.1888238902, 266798.6557520066, 266799.1472139534, 266799.5936400537, 266800.10967688507, 266800.5479498161, 266800.9902365116, 266801.44078467484, 266801.94052259985, 266802.37461294833, 266802.8210117971, 266803.2715482811, 266803.70568923955, 266804.16850449494, 266804.6435963981]","[266794.2774254148, 266794.7607387932, 266795.28498400474, 266795.8051082152, 266796.3211814999, 266796.8003675067, 266797.2877449056, 266797.79973682784, 266798.28711387294, 266798.7417225176, 266799.2373051116, 266799.70420668426, 266800.2079845636, 266800.64210322534, 266801.0885668408, 266801.52268798, 266802.034655128, 266802.4769772152, 266802.9234001303, 266803.37395537185, 266803.812173092, 266804.2626886949, 266804.7500887445]","[266793.77373176755, 266794.27335290017, 266794.7770883095, 266795.27677597845, 266795.7764392271, 266796.27614317613, 266796.7758004082, 266797.27548453794, 266797.73419507226, 266798.2133881573, 266798.68028973, 266799.171780344, 266799.6181929955, 266800.1342323043, 266800.5765936762, 266801.0148174128, 266801.46533938625, 266801.9650044045, 266802.39916518226, 266802.8455863278, 266803.29612599703, 266803.7302411196, 266804.19307548646, 266804.67226113926]",4,R,ITM,1
6,500,practice,0,1,1,1,"['S', 'S', 'S', 'S', 'S', 'S', 'S', 'C', 'C', 'C', 'C', 'C', 'C', 'C', 'C', 'C', 'C', 'C', 'C', 'C', 'C', 'C']","[266811.1884905011, 266811.7127272187, 266812.23700180533, 266812.74485856976, 266813.236402979, 266813.71962469304, 266814.20699678326, 266814.70666852593, 266815.2227110199, 266815.7428720377, 266816.24665133265, 266816.725830615, 266817.20911851135, 266817.6801354225, 266818.1552152926, 266818.66718421027, 266819.1177245873, 266819.5723311085, 266820.0801991982, 266820.59628451616, 266821.0795363131, 266821.60790111014]","[266811.2867850847, 266811.8191983301, 266812.3270915479, 266812.83083686687, 266813.32645662205, 266813.80561820854, 266814.29711342347, 266814.8008686521, 266815.3169146853, 266815.83708419703, 266816.3326406012, 266816.815926728, 266817.3033150984, 266817.7784331914, 266818.2413146291, 266818.74501004594, 266819.2037142098, 266819.662433592, 266820.20304212277, 266820.68633886706, 266821.1737488263, 266821.7266492233]","[266810.312063201, 266810.8116938893, 266811.3114095176, 266811.8110129544, 266812.3106885901, 266812.8144795643, 266813.31412794854, 266813.8137957981, 266814.23154087714, 266814.731254028, 266815.24734394683, 266815.76745683193, 266816.2712074597, 266816.7504154092, 266817.23371003004, 266817.70469331916, 266818.17979371635, 266818.68769118114, 266819.1422966406, 266819.59688475815, 266820.1047461235, 266820.62082330126, 266821.1041076585, 266821.632453698]",4,R,ITM,1
5,500,practice,0,2,2,2,"['S', 'S', 'S', 'S', 'S', 'S', 'S', 'S', 'C', 'C', 'C', 'C', 'C', 'C', 'C', 'C', 'C', 'C', 'C', 'C', 'C', 'C', 'C']","[266827.59575824265, 266828.06268211204, 266828.57873628533, 266829.1193646353, 266829.5903737604, 266830.11872864777, 266830.64704708185, 266831.15899511846, 266831.6341486031, 266832.17063188564, 266832.6579958358, 266833.16588693013, 266833.6819379181, 266834.2184693333, 266834.73861761007, 266835.238296785, 266835.7543406947, 266836.24174640694, 266836.7537121394, 266837.24517868704, 266837.7858077449, 266838.24860211916, 266838.7769902747]","[266827.70224032545, 266828.1774005345, 266828.67708077113, 266829.20123714977, 266829.6845434498, 266830.2374562338, 266830.7371474419, 266831.26958439965, 266831.74057830626, 266832.2689130205, 266832.7685759152, 266833.27236335026, 266833.7925222445, 266834.3208650988, 266834.85738908174, 266835.3447763904, 266835.8567311514, 266836.335921759, 266836.84788890707, 266837.3516299791, 266837.892309647, 266838.3633024919, 266838.88757743244]","[266827.17805775703, 266827.6735663825, 266828.1773446157, 266828.6770259141, 266829.17667536, 266829.6763598437, 266830.1760156601, 266830.6756930654, 266831.1835498298, 266831.658654474, 266832.1911225764, 266832.68258381536, 266833.1904412876, 266833.7064958148, 266834.24310084456, 266834.75908352673, 266835.26285008073, 266835.77889575996, 266836.26630713494, 266836.77826472727, 266837.2697433081, 266837.81035290053, 266838.2731596619, 266838.8015233972]",4,R,ITM,1
4,500,practice,0,3,3,3,"['S', 'S', 'S', 'S', 'S', 'C', 'C', 'C', 'C', 'C', 'C', 'C', 'C', 'C', 'C', 'C', 'C', 'C', 'C', 'C']","[266846.19011603855, 266846.7102841346, 266847.2140269762, 266847.7137302174, 266848.2256694061, 266848.74581485154, 266849.229127876, 266849.7124005539, 266850.2284522498, 266850.7854885124, 266851.26464939106, 266851.7643384756, 266852.23125243536, 266852.77187299926, 266853.25925039826, 266853.7589207252, 266854.3036959123, 266854.79512777616, 266855.2866155588, 266855.7781072345]","[266846.3089487377, 266846.8126561877, 266847.3246134261, 266847.80380297196, 266848.3157733053, 266848.8482145101, 266849.31921832636, 266849.83117804216, 266850.35133941384, 266850.89195537684, 266851.375248228, 266851.874927049, 266852.3418760465, 266852.9152274956, 266853.41086282313, 266853.91455647035, 266854.45928847964, 266854.93846599234, 266855.39310259646, 266855.9091610167]","[266844.27339289273, 266844.7730175645, 266845.272698509, 266845.77237485256, 266846.2720228828, 266846.7717063047, 266847.271375216, 266847.77513610735, 266848.2461480637, 266848.7703674394, 266849.2536702003, 266849.7369718994, 266850.25305367814, 266850.810046763, 266851.2892416176, 266851.7888995575, 266852.2558708517, 266852.79643514287, 266853.28385359613, 266853.78351259785, 266854.3282424836, 266854.8197069078, 266855.3111840729, 266855.8026697321]",4,R,ITM,1
3,500,practice,0,4,4,4,"['S', 'S', 'S', 'S', 'S', 'C', 'C', 'C', 'C', 'C', 'C', 'C', 'C', 'C', 'C', 'C', 'C', 'C', 'C', 'C']","[266863.40015437827, 266863.8916743673, 266864.4158636601, 266864.9278474423, 266865.4275064439, 266865.95177112095, 266866.4268559458, 266866.9511418578, 266867.42209329444, 266867.93814817554, 266868.4091636711, 266868.8924444891, 266869.3307004322, 266869.8467400948, 266870.34640369745, 266870.84608322626, 266871.3252922375, 266871.8250145902, 266872.29596567294, 266872.7997442601]","[266863.5189159403, 266864.05137838004, 266864.5387405606, 266865.0507225732, 266865.55446329125, 266866.06232536444, 266866.5497395707, 266867.07806189783, 266867.54087219835, 266868.0569157541, 266868.5033471632, 266868.9948406085, 266869.4289759043, 266869.96963893814, 266870.44064735534, 266870.94845527934, 266871.43176405673, 266871.9519095022, 266872.41881673754, 266872.9184902498]","[266861.4834043348, 266861.9830594434, 266862.4868167956, 266862.9864782747, 266863.4861358607, 266863.98584122537, 266864.48551296804, 266864.98517409316, 266865.4479780232, 266865.97631769226, 266866.4514166738, 266866.9756781655, 266867.4425800921, 266867.95866647176, 266868.43372687645, 266868.91699778487, 266869.35527036194, 266869.87129905325, 266870.37097044196, 266870.87064112286, 266871.3498444715, 266871.8495215229, 266872.320517553, 266872.82018257125]",4,R,ITM,1
2,500,practice,0,5,5,5,"['S', 'S', 'S', 'S', 'S', 'S', 'S', 'S', 'C', 'C', 'C', 'C', 'C', 'C', 'C', 'C', 'C', 'C', 'C', 'C', 'C', 'C', 'C']","[266878.6319776806, 266879.1521146321, 266879.66408850456, 266880.1596661437, 266880.6920907144, 266881.1795127068, 266881.6915010899, 266882.1665218559, 266882.67030645965, 266883.1536095744, 266883.6328118613, 266884.0915457541, 266884.58710322005, 266885.0539807264, 266885.51270754094, 266885.97963919654, 266886.4588418373, 266886.90933478955, 266887.42127857916, 266887.88000397803, 266888.3632872735, 266888.8465780012, 266889.30940316623]","[266878.76302367664, 266879.2626851557, 266879.7746508881, 266880.2620325341, 266880.79450948443, 266881.29414548154, 266881.81019469997, 266882.30988201493, 266882.79316849564, 266883.26824765786, 266883.75562682643, 266884.2102503356, 266884.6976567557, 266885.1768547956, 266885.62328514294, 266886.0942847122, 266886.573483106, 266887.02808502625, 266887.5318735231, 266888.0069640106, 266888.4779568555, 266888.9776179806, 266889.440458718]","[266878.2593031318, 266878.75891895563, 266879.2585843278, 266879.75825960963, 266880.2579628508, 266880.7617042768, 266881.261394777, 266881.7610442229, 266882.1910889544, 266882.69486329454, 266883.1781426969, 266883.6532568969, 266884.11605622596, 266884.6075326833, 266885.07858534, 266885.53725482005, 266886.00417550426, 266886.4834991844, 266886.93390011846, 266887.44174909673, 266887.90455090324, 266888.3878554337, 266888.8670598441, 266889.33393593476]",4,R,ITM,1
3,400,trial,0,6,6,6,"['S', 'S', 'S', 'S', 'S', 'C', 'C', 'C', 'C', 'C', 'C', 'C', 'C', 'C', 'C', 'C', 'C', 'C', 'C', 'C']","[267046.73485300265, 267047.10755232564, 267047.5007288906, 267047.8570447212, 267048.3199197884, 267048.69667746936, 267049.0734645254, 267049.42161055264, 267049.78610645025, 267050.171095516, 267050.55201949936, 267050.8919635169, 267051.28514432884, 267051.666031151, 267052.07971468684, 267052.4442141236, 267052.7923463481, 267053.18145004456, 267053.5787090337, 267053.9350245105]","[267046.7962716336, 267047.1076333725, 267047.58267112647, 267047.93077468383, 267048.38135116035, 267048.774490918, 267049.13900344964, 267049.4993935645, 267049.86801400234, 267050.2448212316, 267050.6175244477, 267050.982025654, 267051.37931366434, 267051.7479333944, 267052.15750867006, 267052.53429926524, 267052.8865496596, 267053.2715178443, 267053.66880479286, 267054.04149986885]","[267045.15806927346, 267045.55529711803, 267045.95667215355, 267046.35803869506, 267046.7553716528, 267047.15669006173, 267047.55807996175, 267047.95944614935, 267048.3444309681, 267048.72121943976, 267049.0980245455, 267049.44615747785, 267049.8107043394, 267050.19158408325, 267050.5765738568, 267050.91651291953, 267051.30969585496, 267051.6905890476, 267052.10430832906, 267052.4687695428, 267052.8128267753, 267053.2060090029, 267053.59919229225, 267053.95961602917]",4,R,ITM,1
2,600,trial,0,7,7,7,"['S', 'S', 'S', 'S', 'S', 'S', 'S', 'S', 'S', 'S', 'S', 'S', 'S', 'C', 'C', 'C', 'C', 'C', 'C', 'C', 'C', 'C', 'C', 'C', 'C', 'C', 'C', 'C']","[267059.68125981453, 267060.23423418, 267060.672427126, 267060.77072241745, 267061.2130568917, 267061.80692486744, 267062.37621654297, 267062.4745065257, 267062.99467851483, 267063.0929670819, 267063.60904673714, 267063.71140923444, 267064.170165424, 267064.735367243, 267065.33744572254, 267065.9804461256, 267066.5538113775, 267067.1558580045, 267067.72112105106, 267068.31495646655, 267068.8801628864, 267069.4494517306, 267070.0474159334, 267070.60034358193, 267071.1573465764, 267071.76349792443, 267072.36559516157, 267072.9185040525]","[267059.7959492158, 267060.4348466675, 267060.6724695959, 267060.9592299065, 267061.4792744858, 267062.04039741965, 267062.37628060183, 267062.5809914398, 267062.99473054055, 267063.1912747604, 267063.60909522366, 267063.7769230306, 267064.34215599427, 267064.944224918, 267065.57084076706, 267066.1770260911, 267066.79136423045, 267067.34836333187, 267067.9341071595, 267068.51565424784, 267069.06858260423, 267069.6501463267, 267070.231723144, 267070.772351848, 267071.37031675864, 267071.91914464097, 267072.50892488373, 267073.06591265986]","[267059.4355789203, 267060.0334896817, 267060.6355610829, 267061.2335224544, 267061.8355945634, 267062.43354744086, 267063.03560256195, 267063.63357348915, 267064.19469536125, 267064.7558048463, 267065.3619473465, 267066.00089399255, 267066.5783731672, 267067.1763398474, 267067.7456364777, 267068.3354294615, 267068.9006337579, 267069.4740793487, 267070.0719724143, 267070.62491811265, 267071.18190518086, 267071.7880699777, 267072.39013288496, 267072.94304885424]",4,R,ITM,1
4,600,trial,0,8,8,8,"['S', 'S', 'S', 'S', 'S', 'S', 'S', 'S', 'S', 'S', 'C', 'C', 'C', 'C', 'C', 'C', 'C', 'C', 'C', 'C', 'C', 'C', 'C', 'C', 'C']","[267078.4804116188, 267078.8203690851, 267079.41013764864, 267080.06135174073, 267080.6756934193, 267081.2491110508, 267081.3473709506, 267081.7979537976, 267082.449162581, 267083.00617159205, 267083.57138225896, 267084.13654054626, 267084.68537373736, 267085.2587669486, 267085.7994030848, 267086.38915501424, 267086.93799139065, 267087.45403176115, 267088.023381125, 267088.57626524183, 267089.12101069995, 267089.6656906835, 267090.18183085846, 267090.7223912566, 267091.24259828345]","[267078.6032917045, 267079.02925047255, 267079.6067186758, 267080.20468181686, 267080.81904048345, 267081.2491605991, 267081.392423785, 267082.00679590035, 267082.6006734319, 267083.1535720593, 267083.7146978245, 267084.2471262883, 267084.79188625695, 267085.3652621263, 267085.9017687674, 267086.48744358134, 267087.0321862081, 267087.56461821106, 267088.12572132563, 267088.69502963516, 267089.2028863996, 267089.7639962386, 267090.267824374, 267090.80430022435, 267091.34902657097]","[267078.3043004013, 267078.90634525876, 267079.50431087724, 267080.1063815706, 267080.70435603696, 267081.3064270842, 267081.9043934105, 267082.5064598569, 267083.0307001136, 267083.5958994552, 267084.1570149569, 267084.7058835396, 267085.28332166, 267085.82395602664, 267086.41374405555, 267086.9584555377, 267087.4786165554, 267088.0479100005, 267088.6008415421, 267089.14554169896, 267089.69027476996, 267090.2063070004, 267090.7428479714, 267091.2671045083]",4,R,ITM,1
7,600,trial,0,9,9,9,"['S', 'S', 'S', 'S', 'S', 'S', 'S', 'C', 'C', 'C', 'C', 'C', 'C', 'C', 'C', 'C', 'C', 'C', 'C', 'C', 'C', 'C']","[267097.9184884802, 267098.52054289344, 267099.1021267891, 267099.7205767278, 267100.3472223058, 267100.9329463141, 267101.5308829114, 267102.13706717367, 267102.71866381034, 267103.2961022846, 267103.8572269881, 267104.42652007926, 267104.9958170635, 267105.5323364456, 267106.10572824115, 267106.69145047985, 267107.2526088054, 267107.8341357205, 267108.38295227755, 267108.9071935961, 267109.41506097803, 267110.0171008806]","[267098.05372059793, 267098.6557063514, 267099.2619122026, 267099.8762124729, 267100.4659845756, 267101.063979923, 267101.6864942363, 267102.27627872606, 267102.8578640374, 267103.43944085477, 267104.00877535413, 267104.56990359677, 267105.11866883596, 267105.65112348954, 267106.24499429663, 267106.82248267316, 267107.37946974137, 267107.97746331926, 267108.52218117187, 267109.0505664961, 267109.5625739906, 267110.1686534937]","[267096.78811598686, 267097.3901491651, 267097.9881016886, 267098.59018052206, 267099.1881390622, 267099.79018852056, 267100.38818351406, 267100.9902290794, 267101.55543726886, 267102.16166400106, 267102.74318737705, 267103.32068141625, 267103.88178983954, 267104.4551830508, 267105.02448038897, 267105.5568946961, 267106.13028047513, 267106.7201000026, 267107.27709061, 267107.85868087615, 267108.407578834, 267108.93174016743, 267109.4437168712, 267110.04167470353]",4,R,ITM,1
5,600,trial,0,10,10,10,"['S', 'S', 'S', 'S', 'S', 'S', 'S', 'S', 'C', 'C', 'C', 'C', 'C', 'C', 'C', 'C', 'C', 'C', 'C', 'C', 'C', 'C', 'C']","[267116.7995542071, 267117.38114730455, 267117.4794694937, 267118.0405170434, 267118.5770817267, 267119.09721938596, 267119.69110470364, 267120.30545806146, 267120.89111624134, 267121.43175768625, 267122.00923933834, 267122.5785469401, 267123.1437367259, 267123.6966703911, 267124.24140487774, 267124.76563770225, 267125.3677289228, 267125.92470360396, 267126.50221817027, 267127.014173993, 267127.5629841796, 267128.1036181923, 267128.6155736611]","[267117.0207044562, 267117.3811986224, 267117.57773116307, 267118.1920703642, 267118.7408939996, 267119.3184467889, 267119.9040667458, 267120.4897429754, 267121.0549501031, 267121.63242821605, 267122.1649249857, 267122.72191665485, 267123.28710856417, 267123.85639245354, 267124.3847328304, 267124.92946271616, 267125.53153801046, 267126.0721536195, 267126.6250830376, 267127.19436055643, 267127.7145042323, 267128.27564132283, 267128.7793799174]","[267115.62003796105, 267116.2220760941, 267116.8200162306, 267117.4220610881, 267118.0200741313, 267118.6221108487, 267119.2241787107, 267119.82215636235, 267120.3300074641, 267120.9156964347, 267121.4563120437, 267122.03382944135, 267122.6030959888, 267123.1683954887, 267123.7171253363, 267124.2659868407, 267124.7861082198, 267125.3922570904, 267125.9493616589, 267126.52677465125, 267127.03872551915, 267127.58753322833, 267128.1281810437, 267128.6401478379]",4,R,ITM,1
4,400,trial,0,11,11,11,"['S', 'S', 'S', 'S', 'S', 'C', 'C', 'C', 'C', 'C', 'C', 'C', 'C', 'C', 'C', 'C', 'C', 'C', 'C', 'C']","[267135.47992852307, 267135.8567318592, 267136.2785968777, 267136.68822842604, 267137.11001841427, 267137.49909308954, 267137.9168459548, 267138.27726827597, 267138.71139366215, 267139.10464171815, 267139.5346524737, 267139.90736382984, 267140.31692282535, 267140.73874855915, 267141.1360503722, 267141.54152411217, 267141.9142220195, 267142.32791935804, 267142.7088104272, 267143.13065067155]","[267135.5945878415, 267135.96322951437, 267136.3686668009, 267136.78232874785, 267137.20008727576, 267137.5850781111, 267138.0069431295, 267138.37963997514, 267138.81378871977, 267139.2110625735, 267139.6206909366, 267140.0138388343, 267140.41927576694, 267140.83296850463, 267141.2466343447, 267141.63161987124, 267142.02072604507, 267142.42216938647, 267142.81526171934, 267143.2289236663]","[267133.94000057335, 267134.34131296567, 267134.73861831793, 267135.1400252059, 267135.5413560019, 267135.93862029986, 267136.3400197556, 267136.7413916059, 267137.134580204, 267137.52365063224, 267137.9414027896, 267138.3018222795, 267138.73595474404, 267139.12919430604, 267139.55919196666, 267139.9319185412, 267140.3414814298, 267140.76333441515, 267141.16062561073, 267141.56615491555, 267141.93878097786, 267142.35246592935, 267142.73332656175, 267143.155196535]",4,R,ITM,1
6,400,trial,0,12,12,12,"['S', 'S', 'S', 'S', 'S', 'S', 'S', 'S', 'C', 'C', 'C', 'C', 'C', 'C', 'C', 'C', 'C', 'C', 'C', 'C', 'C', 'C', 'C']","[267149.29872869735, 267149.679638878, 267150.08920707536, 267150.1874903337, 267150.4782796271, 267150.87965183135, 267151.27694373473, 267151.69469376863, 267152.1042580729, 267152.50154608325, 267152.8742705343, 267153.29610016115, 267153.70157744025, 267154.06201285636, 267154.4387903566, 267154.81560324854, 267155.1720188836, 267155.5855912897, 267155.96240772074, 267156.3350928871, 267156.7282790078, 267157.0845976697, 267157.45733344613]","[267149.39708203106, 267149.7738159996, 267150.08928493696, 267150.1875292644, 267150.57253036334, 267150.9861618735, 267151.37523159396, 267151.7806876381, 267152.21892871667, 267152.5957235588, 267152.9848247778, 267153.38621397, 267153.79987131606, 267154.1725586059, 267154.5370768002, 267154.9261882827, 267155.29068418033, 267155.7084455395, 267156.08117636107, 267156.4497677778, 267156.8306765428, 267157.1869973283, 267157.5801816794]","[267148.5697613224, 267148.9711034437, 267149.372445565, 267149.7697395919, 267150.17109870125, 267150.5724878934, 267150.9697528992, 267151.3711884544, 267151.7192520192, 267152.12882269395, 267152.52610114857, 267152.89880719595, 267153.3206601813, 267153.72613852215, 267154.08657853917, 267154.4633482533, 267154.8360709347, 267155.1965074126, 267155.61014281586, 267155.98696880264, 267156.359645475, 267156.7528347809, 267157.1091838797, 267157.4819469076]",4,R,ITM,1
2,400,trial,0,13,13,13,"['S', 'S', 'S', 'S', 'S', 'S', 'S', 'C', 'C', 'C', 'C', 'C', 'C', 'C', 'C', 'C', 'C', 'C', 'C', 'C', 'C', 'C']","[267163.9325616071, 267164.2970989129, 267164.702559204, 267165.0670834149, 267165.468468714, 267165.8411581273, 267166.26710203086, 267166.6808712145, 267167.0534686096, 267167.42618279706, 267167.81525322533, 267168.1798245071, 267168.57710685476, 267168.9374959078, 267169.3265698753, 267169.71156495763, 267170.09246452077, 267170.47337045445, 267170.8748028244, 267171.2474430434, 267171.64881241624, 267171.98467330163]","[267164.0431551353, 267164.4240338174, 267164.8049450598, 267165.1694533445, 267165.5585336824, 267165.96402016334, 267166.3776867112, 267166.7913585678, 267167.1599510463, 267167.53266594163, 267167.9299355483, 267168.2985556323, 267168.6876600365, 267169.0439737437, 267169.4330558512, 267169.81804987177, 267170.20305344806, 267170.5839229284, 267170.9853319398, 267171.36623504217, 267171.76350606454, 267172.10344972817]","[267163.13805212267, 267163.53938044125, 267163.9366433235, 267164.33803180786, 267164.7394135678, 267165.13671644265, 267165.5380808607, 267165.9394516492, 267166.29164966394, 267166.7053342615, 267167.0780236749, 267167.4466296022, 267167.8398341265, 267168.2043579835, 267168.6016229893, 267168.96205486625, 267169.3470485329, 267169.7361242699, 267170.1170394054, 267170.4979255197, 267170.8992913534, 267171.2720593362, 267171.66928895033, 267172.00924393925]",4,R,ITM,1
3,600,trial,0,14,14,14,"['S', 'S', 'S', 'S', 'S', 'S', 'S', 'S', 'S', 'S', 'C', 'C', 'C', 'C', 'C', 'C', 'C', 'C', 'C', 'C', 'C', 'C', 'C', 'C', 'C']","[267178.0012287973, 267178.09951701044, 267178.40668519534, 267178.8899791083, 267179.4510928404, 267180.03267461254, 267180.5814794904, 267181.1426579891, 267181.793813685, 267182.38769546355, 267182.88734172424, 267183.42797255167, 267183.9767990184, 267184.56249329774, 267185.1317977142, 267185.70928290545, 267186.1926008847, 267186.77824738534, 267187.3352602895, 267187.8922459421, 267188.40014517645, 267188.994026955, 267189.50596366625, 267190.083446734, 267190.5913403057]","[267178.0012981649, 267178.11588634615, 267178.58689263987, 267179.1602876207, 267179.65586738335, 267180.2947857161, 267180.85998293414, 267181.4538824085, 267182.0313548588, 267182.58837590297, 267183.14540296374, 267183.78840973735, 267184.25940682925, 267184.88196361245, 267185.37342237396, 267185.9304352781, 267186.4505860323, 267187.08541981725, 267187.55232634477, 267188.12163430045, 267188.6458706641, 267189.22745349805, 267189.7353042459, 267190.30056835414, 267190.81657793396]","[267177.7022856267, 267178.3001864785, 267178.90225504834, 267179.50021429633, 267180.1022980846, 267180.700263703, 267181.302340059, 267181.90437996166, 267182.41223708005, 267182.9119120079, 267183.45261220296, 267183.9972709516, 267184.5870427003, 267185.15636941354, 267185.73383761686, 267186.21712976025, 267186.7987423231, 267187.35982703406, 267187.91683746077, 267188.42470165744, 267189.0185798968, 267189.53053961264, 267190.10802869697, 267190.6158904162]",4,R,ITM,1
6,600,trial,0,15,15,15,"['S', 'S', 'S', 'S', 'S', 'S', 'S', 'C', 'C', 'C', 'C', 'C', 'C', 'C', 'C', 'C', 'C', 'C', 'C', 'C', 'C', 'C']","[267197.4843546, 267198.09869238554, 267198.7253418566, 267199.3929118356, 267199.9622565985, 267200.5274201945, 267201.1090026745, 267201.7274529672, 267202.29674959753, 267202.87837419356, 267203.4476414488, 267204.0743730285, 267204.5985364854, 267205.16373618087, 267205.7412181869, 267206.24908450706, 267206.89209658944, 267207.4900894594, 267208.0553164065, 267208.5508515757, 267209.23892817163, 267209.77545710944]","[267197.7014383511, 267198.3321429949, 267198.95878538763, 267199.56084440177, 267200.16701840045, 267200.76906325796, 267201.42439304246, 267202.0182631417, 267202.63671520393, 267203.1609529833, 267203.7712175463, 267204.3486931818, 267204.92209630273, 267205.43813454977, 267206.0484058372, 267206.53987663187, 267207.2566554841, 267207.80135634873, 267208.391130221, 267208.90718404035, 267209.5420387064]","[267196.37452093005, 267196.9724603587, 267197.574455314, 267198.1724393361, 267198.77448808664, 267199.37246750784, 267199.97449431557, 267200.5724613497, 267201.13358640706, 267201.75199883064, 267202.32140305155, 267202.9029147483, 267203.4722025307, 267204.0988445695, 267204.6230919046, 267205.1883673382, 267205.7616894123, 267206.2696024494, 267206.9166746593, 267207.5146806242, 267208.07574516186, 267208.5754282299, 267209.2634811134, 267209.8000210226]",4,R,ITM,1
7,400,trial,0,16,16,16,"['S', 'S', 'S', 'S', 'S', 'C', 'C', 'C', 'C', 'C', 'C', 'C', 'C', 'C', 'C', 'C', 'C', 'C', 'C', 'C']","[267216.9060543396, 267217.3073872591, 267217.68830381025, 267218.0814814369, 267218.4910867955, 267218.9088297511, 267219.314286503, 267219.71156920464, 267220.121188012, 267220.52661998983, 267220.9689328752, 267221.3785152292, 267221.7881471315, 267222.2140464416, 267222.6277221913, 267223.02496702387, 267223.44271988905, 267223.85638218996, 267224.2864421398, 267224.6714443005]","[267217.0207175511, 267217.40567405656, 267217.79888813663, 267218.1961726078, 267218.5975324249, 267219.0234933165, 267219.44124547386, 267219.8262494041, 267220.2398759594, 267220.6535534787, 267221.11228595587, 267221.51365745225, 267221.89865890506, 267222.3369187412, 267222.7546294904, 267223.1601244653, 267223.57787839224, 267223.9874331408, 267224.40930276015, 267224.80659820273]","[267215.3415564601, 267215.7428628359, 267216.140215259, 267216.5415386227, 267216.9428782666, 267217.34426427353, 267217.7415352959, 267218.14290891576, 267218.51971366757, 267218.93338835554, 267219.3388390909, 267219.7361720486, 267220.1456949447, 267220.55119558226, 267220.99349183356, 267221.4071923574, 267221.8126522946, 267222.2385923051, 267222.65229813766, 267223.0495334145, 267223.46733335056, 267223.88094468747, 267224.3110010982, 267224.6959961805]",4,R,ITM,1
5,400,trial,0,17,17,17,"['S', 'S', 'S', 'S', 'S', 'S', 'S', 'S', 'S', 'C', 'C', 'C', 'C', 'C', 'C', 'C', 'C', 'C', 'C', 'C', 'C', 'C', 'C', 'C']","[267230.42175601225, 267230.92143695673, 267231.3432910038, 267231.74469364475, 267232.1337456694, 267232.2320352982, 267232.5597299194, 267232.96517286863, 267233.366569847, 267233.76799832383, 267234.13244467316, 267234.55838220625, 267234.98433212633, 267235.35705763916, 267235.766632207, 267236.14342244825, 267236.5489506913, 267236.96664409863, 267237.33526595216, 267237.7284272987, 267238.1421037562, 267238.53529730916, 267238.92846821144, 267239.33804702625]","[267230.6265358639, 267231.0483952197, 267231.4743373537, 267231.85522771504, 267232.1338136213, 267232.2402174886, 267232.64981293754, 267233.0675512922, 267233.47301618423, 267233.8744181174, 267234.2594057675, 267234.6812414109, 267235.0867332006, 267235.4758177855, 267235.8730877461, 267236.2744684443, 267236.6717536233, 267237.08541344677, 267237.45402220543, 267237.87180232216, 267238.2568271335, 267238.6500005132, 267239.05955136864, 267239.4772847685]","[267230.17198561545, 267230.5732980078, 267230.9747017105, 267231.3720081245, 267231.7733258256, 267232.1747288205, 267232.57198780973, 267232.97334585723, 267233.39111924963, 267233.79250065563, 267234.15700646286, 267234.58297337097, 267235.0089714237, 267235.38160527224, 267235.7911780705, 267236.1679760979, 267236.57344983786, 267236.9912235841, 267237.3598305732, 267237.7530216487, 267238.1666627146, 267238.55994439265, 267238.9530901669, 267239.3626137708]",4,R,ITM,1
7,600,trial,0,18,18,18,"['S', 'S', 'S', 'S', 'S', 'S', 'S', 'S', 'S', 'C', 'C', 'C', 'C', 'C', 'C', 'C', 'C', 'C', 'C', 'C', 'C', 'C', 'C', 'C']","[267272.9348641864, 267273.229753246, 267273.8727745302, 267274.4584808427, 267275.0646350221, 267275.68715889106, 267276.32199338387, 267276.92813623796, 267277.5056592983, 267278.1199857584, 267278.70157779416, 267279.27086699224, 267279.8319750616, 267280.4094747635, 267280.96649226855, 267281.5767352427, 267282.10508552915, 267282.66616705485, 267283.210946135, 267283.82534550194, 267284.3536147416, 267284.9351756327, 267285.47580858367, 267286.0492272769]","[267273.0495319988, 267273.34450599836, 267274.0611662886, 267274.6714644737, 267275.31444965844, 267275.9820401645, 267276.6209733618, 267277.2066874604, 267277.77185990434, 267278.32068212406, 267278.92684479745, 267279.50439829455, 267280.0859096374, 267280.6551906954, 267281.26137637335, 267281.8143737434, 267282.3590169197, 267282.89555470535, 267283.48940463143, 267284.05050102156, 267284.6607616915, 267285.1809209397, 267285.7462034516, 267286.24580122577]","[267272.75062811293, 267273.3526053724, 267273.950583024, 267274.552655133, 267275.1506281837, 267275.75269675354, 267276.3547278083, 267276.9526955502, 267277.53429041733, 267278.1445507334, 267278.7261293203, 267279.29542772024, 267279.8565573785, 267280.43402876705, 267280.99103883986, 267281.60136781563, 267282.129634224, 267282.69076140487, 267283.2354881054, 267283.84982129, 267284.37816662167, 267284.95975865744, 267285.5044779257, 267286.0737713708]",4,R,ITM,1
5,400,trial,0,19,19,19,"['S', 'S', 'S', 'S', 'S', 'S', 'C', 'C', 'C', 'C', 'C', 'C', 'C', 'C', 'C', 'C', 'C', 'C', 'C', 'C', 'C']","[267293.06921965355, 267293.3927628368, 267293.77775862697, 267294.1914304836, 267294.60100469756, 267294.95732017426, 267295.3996489858, 267295.7723281356, 267296.1532461024, 267296.56281111453, 267296.96007470466, 267297.3573722707, 267297.7055002483, 267298.15603673225, 267298.5492125894, 267298.89734339825, 267299.30691265734, 267299.7082799067, 267300.07689892896, 267300.45781689574, 267300.8387037179]","[267293.15110136976, 267293.4952070888, 267293.87194955134, 267294.2856157453, 267294.70341108047, 267295.0556002473, 267295.49794179987, 267295.8747309794, 267296.2515403321, 267296.66116551, 267297.04617050197, 267297.4311588599, 267297.8037905849, 267298.2461498333, 267298.64749726333, 267299.00381911057, 267299.39701868006, 267299.81067885744, 267300.16701238387, 267300.55199932616, 267300.94927990425]","[267291.82007462677, 267292.21732618375, 267292.6186693668, 267293.02004440234, 267293.421431471, 267293.8186964768, 267294.2200746976, 267294.6214490253, 267294.98186886904, 267295.42418033874, 267295.79691186815, 267296.1778004599, 267296.5873605172, 267296.9846587911, 267297.3819255665, 267297.7301558258, 267298.1805988759, 267298.5737687164, 267298.9218991714, 267299.33147409314, 267299.73287390283, 267300.1014529325, 267300.4823705454, 267300.86325241276]",4,R,ITM,1
2,400,trial,0,20,20,20,"['S', 'S', 'S', 'S', 'S', 'S', 'S', 'S', 'C', 'C', 'C', 'C', 'C', 'C', 'C', 'C', 'C', 'C', 'C', 'C', 'C', 'C', 'C']","[267306.70370447705, 267307.0723394255, 267307.4163400314, 267307.8463936108, 267308.2560488716, 267308.65324026276, 267309.05463122454, 267309.4764831481, 267309.8491796398, 267310.2382645786, 267310.6232433808, 267310.99599366775, 267311.39735100744, 267311.78232768615, 267312.14684835786, 267312.5482195003, 267312.95371943, 267313.301845638, 267313.68272608967, 267314.04314664134, 267314.42402780085, 267314.8131435304, 267315.1571618321]","[267306.7692129645, 267307.1992821162, 267307.51054652815, 267307.9446740378, 267308.3379220938, 267308.7392302392, 267309.1283420757, 267309.583015487, 267309.95565287466, 267310.344752678, 267310.7215588455, 267311.1024286797, 267311.5079763881, 267311.8847068175, 267312.2574340999, 267312.66296305077, 267313.04794999305, 267313.4001267728, 267313.7892163126, 267314.16197580134, 267314.550998097, 267314.93602680136, 267315.30051420495]","[267306.33513925015, 267306.736478894, 267307.13781429094, 267307.5351122109, 267307.93648901605, 267308.3378937805, 267308.7351531236, 267309.1365295748, 267309.49701560097, 267309.87373824423, 267310.26283946325, 267310.6478306525, 267311.0205282059, 267311.4219740247, 267311.8069740618, 267312.1714108554, 267312.5727798743, 267312.9741772066, 267313.32639751805, 267313.70731053, 267314.06770453794, 267314.44450008794, 267314.8376954105, 267315.1776447367]",4,R,ITM,1
2,600,trial,0,21,21,21,"['S', 'S', 'S', 'S', 'S', 'S', 'S', 'S', 'C', 'C', 'C', 'C', 'C', 'C', 'C', 'C', 'C', 'C', 'C', 'C', 'C', 'C', 'C']","[267321.3170668693, 267322.05018639, 267322.68502300634, 267323.28301446064, 267323.88096910773, 267324.5075708001, 267325.09740129893, 267325.71182791743, 267326.30558865657, 267326.91180689476, 267327.49334690487, 267328.10778520256, 267328.66478642746, 267329.25859388354, 267329.81975681, 267330.35212192277, 267330.8927428405, 267331.4415809865, 267331.9781099243, 267332.55152720184, 267333.1003193387, 267333.67371608905, 267334.2102850194]","[267321.4645430746, 267322.2263064554, 267322.8693415423, 267323.45092012925, 267324.05707501643, 267324.6796031324, 267325.27349588234, 267325.8919482985, 267326.53494763986, 267327.09196372924, 267327.65307852306, 267328.27562079567, 267328.83677098114, 267329.41422219644, 267329.9794303859, 267330.5118478783, 267331.05248967715, 267331.5849216801, 267332.11327090487, 267332.7235336983, 267333.24369153084, 267333.82115867233, 267334.3699964644]","[267320.9034700429, 267321.5054398702, 267322.10342176876, 267322.7054921082, 267323.30344852485, 267323.90553125134, 267324.50350253243, 267325.1055594231, 267325.7362835322, 267326.33017663605, 267326.9363308154, 267327.51791895815, 267328.1322542662, 267328.6892664625, 267329.27905696887, 267329.844266574, 267330.37672405894, 267330.9173279887, 267331.4661314509, 267332.0027109987, 267332.57608722197, 267333.1249005938, 267333.69828991196, 267334.2348475169]",4,R,ITM,1
3,600,trial,0,22,22,22,"['S', 'S', 'S', 'S', 'S', 'S', 'C', 'C', 'C', 'C', 'C', 'C', 'C', 'C', 'C', 'C', 'C', 'C', 'C', 'C', 'C']","[267342.33198514825, 267342.43028114754, 267342.8930942794, 267343.5156248728, 267344.12998106197, 267344.7688916085, 267345.3423057009, 267345.95668701804, 267346.534139649, 267347.0788521929, 267347.6440674607, 267348.27889841434, 267348.82362865406, 267349.39702469663, 267349.9540174275, 267350.5765685481, 267351.1459002161, 267351.71107195225, 267352.2476189398, 267352.9070265476, 267353.4435307113]","[267342.3320562854, 267342.5408644122, 267343.11015042505, 267343.732687035, 267344.33885041624, 267344.98190072156, 267345.5306988749, 267346.1327596586, 267346.7307397876, 267347.36556755606, 267347.9266621767, 267348.48368534434, 267349.0325086258, 267349.63455454505, 267350.1670042438, 267350.82648758974, 267351.3465594206, 267351.9649838773, 267352.50151989347, 267353.0954568829, 267353.6483165795]","[267339.9811143196, 267340.5831266167, 267341.1811078075, 267341.78315231105, 267342.38110377284, 267342.98318012885, 267343.58115424134, 267344.18321077805, 267344.79356877494, 267345.36685050256, 267345.98122014053, 267346.5587074553, 267347.1034192913, 267347.66862960433, 267348.30350833666, 267348.8481798263, 267349.4215772845, 267349.9786025757, 267350.6011384779, 267351.1704726233, 267351.73562737147, 267352.27216267976, 267352.93156462495, 267353.46809851757]",4,R,ITM,1
7,400,trial,0,23,23,23,"['S', 'S', 'S', 'S', 'S', 'S', 'S', 'S', 'S', 'S', 'C', 'C', 'C', 'C', 'C', 'C', 'C', 'C', 'C', 'C', 'C', 'C', 'C', 'C', 'C']","[267359.3454226415, 267359.7180971904, 267360.09903426864, 267360.5249877279, 267360.62326213834, 267360.92635745474, 267361.02873304696, 267361.35234347434, 267361.7127024445, 267362.1345681708, 267362.5974043072, 267362.99467462173, 267363.36736757425, 267363.76464355143, 267364.16190891113, 267364.57147958595, 267364.94829991006, 267365.34557340987, 267365.73875386786, 267366.16880673944, 267366.52513672673, 267366.9183232013, 267367.36063750234, 267367.7456329386, 267368.13471681566]","[267359.51739763946, 267359.8573614763, 267360.2546257742, 267360.52502913616, 267360.6642463512, 267360.9263939081, 267361.0533504015, 267361.47104487056, 267361.8396621232, 267362.2451418797, 267362.7120473455, 267363.1175129454, 267363.4902207624, 267363.8834674027, 267364.28478191857, 267364.7066377352, 267365.07530559786, 267365.4602921862, 267365.8616120108, 267366.27939495887, 267366.63161350077, 267367.07395045244, 267367.4794110975, 267367.88489828625, 267368.27806741896]","[267358.98915423563, 267359.3863728784, 267359.7877436669, 267360.1891190564, 267360.58638795523, 267360.9877594516, 267361.3891316558, 267361.7905342968, 267362.1591225283, 267362.6260350724, 267363.0192275636, 267363.3960266527, 267363.7892110038, 267364.19058426976, 267364.59606721153, 267364.97286169976, 267365.37429123843, 267365.7633177811, 267366.193360743, 267366.54971408873, 267366.9428609247, 267367.38526335085, 267367.7742906014, 267368.1592870994]",4,R,ITM,1
3,400,trial,0,24,24,24,"['S', 'S', 'S', 'S', 'S', 'S', 'S', 'S', 'C', 'C', 'C', 'C', 'C', 'C', 'C', 'C', 'C', 'C', 'C', 'C', 'C', 'C', 'C']","[267374.2659532186, 267374.6632387516, 267375.0851773846, 267375.4946581647, 267375.89193449577, 267375.9943129193, 267376.2974103592, 267376.715164994, 267377.1124590209, 267377.52206084033, 267377.9070134527, 267378.2961415693, 267378.689302562, 267379.07429729035, 267379.446994136, 267379.85242823727, 267380.2620169618, 267380.6470007188, 267381.040214445, 267381.38833888335, 267381.77333644306, 267382.22795075044, 267382.6006674153]","[267374.39290511113, 267374.7901917058, 267375.2079509415, 267375.58474861505, 267375.8960300149, 267376.0024936941, 267376.42025965423, 267376.8134461288, 267377.2312212908, 267377.624413428, 267378.00121251715, 267378.4066710387, 267378.80811402615, 267379.18484551733, 267379.5616569935, 267379.9631151994, 267380.3643914923, 267380.76169188967, 267381.13438661175, 267381.49072721653, 267381.9084588468, 267382.32213636604, 267382.7317042095]","[267373.55748927547, 267373.95879919035, 267374.36017316417, 267374.7574279064, 267375.15879090875, 267375.5601885949, 267375.9574599712, 267376.358825451, 267376.7397462491, 267377.1370165636, 267377.5465748513, 267377.931568518, 267378.32067292224, 267378.70974193484, 267379.0988445695, 267379.4715499091, 267379.87712168385, 267380.286593616, 267380.6674708824, 267381.0606662049, 267381.41290492006, 267381.7978918623, 267382.25251324795, 267382.62522991287]",4,R,ITM,1
4,400,trial,0,25,25,25,"['S', 'S', 'S', 'S', 'S', 'S', 'S', 'S', 'S', 'C', 'C', 'C', 'C', 'C', 'C', 'C', 'C', 'C', 'C', 'C', 'C', 'C', 'C', 'C']","[267388.4574966015, 267388.5557674728, 267388.78509318794, 267389.2151584466, 267389.632986342, 267390.0466075886, 267390.43975336285, 267390.84525541606, 267391.2466591188, 267391.6152254075, 267391.9920517482, 267392.32793811563, 267392.7415512221, 267393.0732981847, 267393.46238878625, 267393.85555402585, 267394.26105572516, 267394.6460458527, 267395.03103102534, 267395.4118997978, 267395.82559855207, 267396.2064758185, 267396.5873874148, 267396.9805625641]","[267388.457549689, 267388.56809473067, 267388.9079906156, 267389.31344630575, 267389.72711568495, 267390.148969732, 267390.5298746039, 267390.92305753933, 267391.3407937705, 267391.7339827225, 267392.0739370036, 267392.42617005605, 267392.84393495444, 267393.1839278124, 267393.5689331583, 267393.96204460267, 267394.3593329669, 267394.73612568557, 267395.12933339516, 267395.5307034759, 267395.93617155316, 267396.30890202074, 267396.70205098024, 267397.078876967]","[267388.1667066002, 267388.5680543842, 267388.9694219875, 267389.3666915942, 267389.7680584896, 267390.1694671472, 267390.5667328608, 267390.9680986945, 267391.2711756072, 267391.6397829502, 267392.0166234476, 267392.35243690823, 267392.7661009787, 267393.0937435742, 267393.48693677323, 267393.8801193547, 267394.2855998191, 267394.67059560923, 267395.0556168814, 267395.4364835303, 267395.85014229204, 267396.23105813534, 267396.6119460193, 267397.00514028]",4,R,ITM,1
6,600,trial,0,26,26,26,"['S', 'S', 'S', 'S', 'S', 'S', 'S', 'S', 'S', 'S', 'S', 'C', 'C', 'C', 'C', 'C', 'C', 'C', 'C', 'C', 'C', 'C', 'C', 'C', 'C', 'C']","[267403.03398339497, 267403.1322871804, 267403.7343260213, 267404.3814619361, 267404.9671250708, 267405.57738113985, 267405.67569377326, 267406.1671801402, 267406.8265976577, 267406.9248476479, 267407.41632410523, 267407.9487762814, 267408.5017428607, 267409.12837428204, 267409.6567298773, 267410.13180337683, 267410.7338567283, 267411.282708677, 267411.8273759196, 267412.33524861024, 267412.925028853, 267413.46157159354, 267413.96533673187, 267414.81724081916, 267415.2349943922, 267415.78382970684]","[267403.03405240865, 267403.1486512074, 267403.8817951483, 267404.5206879991, 267405.11456411495, 267405.5774275029, 267405.74939329905, 267406.32279288076, 267406.82664897555, 267406.96175757656, 267407.55559405376, 267408.07575294806, 267408.7105839017, 267409.2839760512, 267409.8287232789, 267410.3160713028, 267410.9140330282, 267411.40144298744, 267411.96669718606, 267412.44171476684, 267413.0888708549, 267413.4861875324, 267414.09638095833, 267414.91142077214, 267415.3414672732, 267415.89437439456]","[267402.70639140945, 267403.3042756272, 267403.9063378265, 267404.5084276314, 267405.1063932498, 267405.7084490787, 267406.30642531463, 267406.90846663294, 267407.44090429856, 267407.97337912535, 267408.52625757956, 267409.15289714094, 267409.6812353943, 267410.1563446394, 267410.75842524244, 267411.3072223341, 267411.8519423102, 267412.35982986534, 267412.9496791218, 267413.48613302934, 267413.98988861195, 267414.84179376095, 267415.2595611367, 267415.8083713233]",4,R,ITM,1
6,400,trial,0,27,27,27,"['S', 'S', 'S', 'S', 'S', 'S', 'S', 'S', 'C', 'C', 'C', 'C', 'C', 'C', 'C', 'C', 'C', 'C', 'C', 'C', 'C', 'C', 'C']","[267421.4563223073, 267421.8822785979, 267422.2590688392, 267422.7137103981, 267423.0700432167, 267423.4877780322, 267423.86867051705, 267424.3396831812, 267424.69602272427, 267425.1055601309, 267425.51104094915, 267425.91653061536, 267426.33019114664, 267426.7192548505, 267427.0837790614, 267427.51382803987, 267427.95206345577, 267428.3370595999, 267428.74662355025, 267429.14388006204, 267429.5125061626, 267429.938467408, 267430.3194013011]","[267421.5709876423, 267421.8945602006, 267422.35739916837, 267422.7300769025, 267423.08638884005, 267423.49597154796, 267423.88094610313, 267424.3888042832, 267424.7697172952, 267425.1833668551, 267425.5970620702, 267425.9943323847, 267426.41618183086, 267426.8052692471, 267427.19434463023, 267427.6366925533, 267428.04219673004, 267428.4312526477, 267428.85309713904, 267429.2462885685, 267429.6108046393, 267430.0408461855, 267430.421778309]","[267421.15742089885, 267421.5587226737, 267421.95598520205, 267422.3573436035, 267422.754635153, 267423.1560186825, 267423.557385578, 267423.95876450656, 267424.36423612304, 267424.72056681814, 267425.1301477565, 267425.5356069859, 267425.9410906355, 267426.35473240924, 267426.7438247803, 267427.10834120505, 267427.53843265347, 267427.97663090815, 267428.36162245134, 267428.7670714171, 267429.16847087286, 267429.5370683062, 267429.96302955167, 267430.34393265395]",4,R,ITM,1
5,600,trial,0,28,28,28,"['S', 'S', 'S', 'S', 'S', 'S', 'S', 'S', 'S', 'C', 'C', 'C', 'C', 'C', 'C', 'C', 'C', 'C', 'C', 'C', 'C', 'C', 'C', 'C']","[267436.008260052, 267436.5284086827, 267436.98710435256, 267437.49908211816, 267438.07656023104, 267438.71550050663, 267439.2765983125, 267439.8705062808, 267440.443882858, 267441.0378056908, 267441.64800796454, 267442.20501874515, 267442.794815622, 267443.34360988234, 267443.9251976711, 267444.5272825211, 267445.0596837333, 267445.60851692443, 267446.2269958843, 267446.83313767664, 267447.41060481814, 267447.9840093547, 267448.5983641282, 267449.1881606511]","[267436.15980240144, 267436.7331821639, 267437.1632219406, 267437.68748095486, 267438.2567687373, 267438.85885004816, 267439.3994596406, 267439.98923528247, 267440.5503295491, 267441.17289305676, 267441.79953049467, 267442.3688317259, 267442.94633390516, 267443.4582822957, 267444.080838371, 267444.6542765297, 267445.3095613668, 267445.87884348654, 267446.43582913914, 267446.98465100495, 267447.5826240556, 267448.1519228094, 267448.7703628385, 267449.33148754196]","[267435.72157087864, 267436.31953154225, 267436.92157392233, 267437.5236690359, 267438.1216141272, 267438.72369720764, 267439.32164194505, 267439.9237257333, 267440.4643286014, 267441.05822453654, 267441.6725570133, 267442.2295819506, 267442.8193572385, 267443.36816671723, 267443.9456685425, 267444.55183015415, 267445.0842642806, 267445.633075175, 267446.24744091986, 267446.8576782314, 267447.4352317285, 267448.0085622965, 267448.62292485614, 267449.21268386394]",4,R,ITM,1
4,600,trial,0,29,29,29,"['S', 'S', 'S', 'S', 'S', 'S', 'C', 'C', 'C', 'C', 'C', 'C', 'C', 'C', 'C', 'C', 'C', 'C', 'C', 'C', 'C']","[267457.17879991943, 267457.8177132974, 267458.51810653374, 267458.6204580597, 267459.12834419915, 267459.7549954398, 267460.35295787296, 267460.9918800988, 267461.58982377447, 267462.1878223071, 267462.7120742431, 267463.3468882088, 267463.93666031153, 267464.52643772296, 267465.0793611245, 267465.67731364805, 267466.2343548655, 267466.7995442974, 267467.34834988305, 267467.9176797815, 267468.49925447535]","[267457.35899072984, 267458.01021933253, 267458.52214861155, 267458.6614196219, 267459.2716898476, 267459.93926938233, 267460.50037037337, 267461.15980133973, 267461.7127314657, 267462.34343363205, 267462.85539936443, 267463.5393595602, 267464.07180890505, 267464.73121580505, 267465.28824145015, 267465.90257782, 267466.3694847014, 267467.0125066934, 267467.499885862, 267468.1511218969, 267468.65078762296]","[267454.9835581115, 267455.585589874, 267456.1835462907, 267456.785621231, 267457.38356950757, 267457.9856490488, 267458.58361749863, 267459.1856616482, 267459.7795664313, 267460.37750939914, 267461.01645109034, 267461.6144227254, 267462.20826451137, 267462.73661798314, 267463.3714464594, 267463.9612153768, 267464.5510129615, 267465.1039137124, 267465.69778770476, 267466.2589177169, 267466.8240961775, 267467.3729775012, 267467.94222422934, 267468.52380564756]",4,R,ITM,1
2,600,trial,0,30,30,30,"['S', 'S', 'S', 'S', 'S', 'S', 'S', 'S', 'S', 'C', 'C', 'C', 'C', 'C', 'C', 'C', 'C', 'C', 'C', 'C', 'C', 'C', 'C', 'C']","[267476.4899025916, 267476.78886133456, 267477.3049523151, 267477.89885957557, 267478.5131966532, 267479.10295813845, 267479.72137551685, 267480.3152813617, 267480.92960605223, 267481.515302809, 267482.0682191322, 267482.6948618789, 267483.24777784816, 267483.81705572095, 267484.390470875, 267484.9966512442, 267485.61098867573, 267486.21713471506, 267486.79878089996, 267487.4089817581, 267488.023326268, 267488.6049278595, 267489.20292214514, 267489.7681122849]","[267476.6127596728, 267476.9608918973, 267477.5097286276, 267478.0831303329, 267478.70565420185, 267479.3077312657, 267479.9098246097, 267480.54459858284, 267481.1630701105, 267481.7446444504, 267482.28529969807, 267482.85867839877, 267483.44026654144, 267483.9645110452, 267484.5829609839, 267485.2178011394, 267485.84851321543, 267486.42190819624, 267486.9911931473, 267487.59738307225, 267488.21992463706, 267488.7728356515, 267489.3912774502, 267489.93599353323]","[267476.1869244215, 267476.78486561973, 267477.3827498375, 267477.9848417658, 267478.5828594099, 267479.184834192, 267479.78282387677, 267480.38486236375, 267480.95008010895, 267481.5398645987, 267482.09278835414, 267482.7194080963, 267483.2723116785, 267483.83752659237, 267484.4150174463, 267485.02119002934, 267485.6314227399, 267486.241780029, 267486.8232729682, 267487.433534346, 267488.0478813333, 267488.6253838664, 267489.2274308474, 267489.79269000085]",4,R,ITM,1
7,600,trial,0,31,31,31,"['S', 'S', 'S', 'S', 'S', 'S', 'S', 'S', 'S', 'C', 'C', 'C', 'C', 'C', 'C', 'C', 'C', 'C', 'C', 'C', 'C', 'C', 'C', 'C']","[267495.74776493025, 267496.1900986966, 267496.6979812969, 267497.2754533933, 267497.8776054874, 267498.4795919487, 267499.11449687084, 267499.696015292, 267500.2366330246, 267500.7895656279, 267501.40799964045, 267501.9977664344, 267502.54657237395, 267503.1322850569, 267503.6893022081, 267504.33639883815, 267504.926170233, 267505.4668141554, 267506.00749807025, 267506.58082651487, 267507.14194449387, 267507.71945976804, 267508.30101605825, 267508.87849169376]","[267495.9484499706, 267496.42360947176, 267496.91093413724, 267497.4556537595, 267498.05773188506, 267498.635197257, 267499.2577568716, 267499.8434447804, 267500.39639543346, 267500.9697465287, 267501.5882035457, 267502.1697902728, 267502.68993465643, 267503.2674248025, 267503.84082438424, 267504.50841135124, 267505.1309603483, 267505.610142108, 267506.1671709384, 267506.7651319559, 267507.41228061175, 267507.9815584845, 267508.5918007508, 267509.07100516115]","[267495.5143543134, 267496.1122671983, 267496.71433364466, 267497.31230386405, 267497.9143727878, 267498.5123486698, 267499.11442714935, 267499.7123810886, 267500.2611898595, 267500.8140952113, 267501.4325401952, 267502.0223218536, 267502.5752385307, 267503.15682808904, 267503.7138498411, 267504.3609719532, 267504.95075254986, 267505.4913632041, 267506.03200075595, 267506.60547359835, 267507.1705848148, 267507.74397767213, 267508.32557714015, 267508.90308285854]",4,R,ITM,1
3,600,trial,0,32,32,32,"['S', 'S', 'S', 'S', 'S', 'S', 'S', 'S', 'S', 'C', 'C', 'C', 'C', 'C', 'C', 'C', 'C', 'C', 'C', 'C', 'C', 'C', 'C', 'C']","[267514.8459062681, 267515.2718551265, 267515.8534291125, 267516.43093801616, 267516.9838780518, 267517.5818146491, 267518.15522201697, 267518.7736716018, 267519.379817995, 267520.0228417566, 267520.6371855587, 267521.1737095416, 267521.75939568086, 267522.32052463136, 267522.9226243458, 267523.5124134365, 267524.07345780096, 267524.6550363879, 267525.27351039293, 267525.83460112044, 267526.3834569622, 267526.9650171455, 267527.5752579961, 267528.15277539374]","[267515.0261115891, 267515.46844677115, 267516.0459493043, 267516.57835228613, 267517.1517564688, 267517.7374546412, 267518.3067328679, 267518.92932114966, 267519.5477689649, 267520.16620368516, 267520.79282271944, 267521.36631254986, 267521.9477899167, 267522.533471809, 267523.09868884634, 267523.68025823147, 267524.24955733924, 267524.81066823995, 267525.4005079406, 267525.9820674161, 267526.5595342037, 267527.1779873277, 267527.8087054203, 267528.3821149117]","[267514.6862309226, 267515.2841813226, 267515.8862081304, 267516.4882544035, 267517.0862271003, 267517.6883402636, 267518.28633348754, 267518.8883284428, 267519.40437801514, 267520.04740000714, 267520.6617370848, 267521.1983007064, 267521.7839511001, 267522.3450662478, 267522.9430322202, 267523.5369154144, 267524.09800932714, 267524.67961056466, 267525.2980481163, 267525.85923935607, 267526.4080024717, 267526.98956796376, 267527.5998095223, 267528.1773198416]",4,R,ITM,1
4,400,trial,0,33,33,33,"['S', 'S', 'S', 'S', 'S', 'S', 'S', 'S', 'S', 'C', 'C', 'C', 'C', 'C', 'C', 'C', 'C', 'C', 'C', 'C', 'C', 'C', 'C', 'C']","[267533.7269362494, 267534.0669103498, 267534.36996178055, 267534.7222981766, 267535.08261078375, 267535.44313821814, 267535.86495085695, 267536.23352457787, 267536.6225766025, 267537.0198692138, 267537.39669661626, 267537.76530926797, 267538.18307628983, 267538.59263245406, 267538.96942765015, 267539.3626105856, 267539.77217524376, 267540.16124602593, 267540.5749299157, 267540.95992429025, 267541.36948328576, 267541.7462848523, 267542.1927116605, 267542.549028199]","[267533.8539115004, 267534.1938739216, 267534.4887452854, 267534.8245923681, 267535.2013865024, 267535.5495204965, 267535.9877856414, 267536.3522953417, 267536.765972861, 267537.1550726643, 267537.5318303453, 267537.8922491273, 267538.3264332636, 267538.71957585256, 267539.11276869767, 267539.50595446443, 267539.8950592226, 267540.30051774415, 267540.74694596796, 267541.11143868027, 267541.53331502405, 267541.8978236626, 267542.30331863754, 267542.68010817096]","[267533.5222236418, 267533.9194624578, 267534.32086828403, 267534.7222178376, 267535.11946868675, 267535.5208883157, 267535.92228140094, 267536.31952021696, 267536.64716422814, 267537.0444405592, 267537.4212460189, 267537.7898675185, 267538.20761259756, 267538.6171815028, 267538.994077565, 267539.387181931, 267539.7967412805, 267540.18583046633, 267540.59950975515, 267540.9845080227, 267541.3940733888, 267541.77084381075, 267542.2132090757, 267542.57361688634]",4,R,ITM,1
5,600,trial,0,34,34,34,"['S', 'S', 'S', 'S', 'S', 'S', 'S', 'S', 'S', 'C', 'C', 'C', 'C', 'C', 'C', 'C', 'C', 'C', 'C', 'C', 'C', 'C', 'C', 'C']","[267548.2420309556, 267548.5942509132, 267549.1185254998, 267549.69600998325, 267550.30626322096, 267550.8879154225, 267551.4858123812, 267552.11246751493, 267552.7350168659, 267553.2838914652, 267553.88996495167, 267554.524873413, 267555.12686624477, 267555.6674899939, 267556.2736685935, 267556.85522736114, 267557.4204369663, 267558.0552714591, 267558.64914332796, 267559.1979620085, 267559.7672678407, 267560.33248735545, 267560.91405815625, 267561.4874499518]","[267548.40176434343, 267548.7826476264, 267549.294621145, 267549.9007732009, 267550.4864664185, 267551.0599137789, 267551.6619083803, 267552.3009127147, 267552.890644117, 267553.47221597953, 267554.07017699705, 267554.69686646067, 267555.3234462102, 267555.9459898985, 267556.5275783951, 267557.20336100133, 267557.78904855624, 267558.38701275905, 267558.8825804885, 267559.4273227614, 267559.96386054705, 267560.4880894785, 267561.090181053, 267561.6512707187]","[267548.01682517986, 267548.61883358395, 267549.216805219, 267549.8189268763, 267550.4168284359, 267551.018921426, 267551.62096415996, 267552.2189294245, 267552.7595283995, 267553.3083764551, 267553.91452567966, 267554.54935309413, 267555.15142484923, 267555.69204541313, 267556.2982204736, 267556.87985710276, 267557.44499804813, 267558.07981626084, 267558.6696025202, 267559.22254361754, 267559.7918328156, 267560.3570346346, 267560.93862525467, 267561.51201457286]",4,R,ITM,1
4,600,trial,0,35,35,35,"['S', 'S', 'S', 'S', 'S', 'S', 'S', 'S', 'S', 'C', 'C', 'C', 'C', 'C', 'C', 'C', 'C', 'C', 'C', 'C', 'C', 'C', 'C', 'C']","[267567.3114979967, 267567.6801294059, 267568.21257521166, 267568.8309940057, 267569.41258887283, 267570.06379694835, 267570.6290023065, 267571.26383149053, 267571.8863557135, 267572.517103535, 267573.1109775274, 267573.6761690828, 267574.24963661644, 267574.82297213934, 267575.42503893963, 267576.01479193085, 267576.5841412947, 267577.1697665604, 267577.7349864291, 267578.31247445167, 267578.8981651918, 267579.4797699686, 267580.09001117316, 267580.65112809045]","[267567.4220706438, 267567.85620275437, 267568.38869103004, 267568.9661928553, 267569.5968628153, 267570.2276658478, 267570.8624614099, 267571.5423317491, 267572.2836653127, 267572.8119968416, 267573.430423068, 267573.9751621556, 267574.52396738733, 267575.0523229826, 267575.60522868834, 267576.17867215566, 267576.7561258484, 267577.36228392087, 267577.9315656867, 267578.5254648071, 267579.1152351402, 267579.70088978094, 267580.2292407753, 267580.8026400031]","[267567.1640985912, 267567.7661126579, 267568.3640676589, 267568.96615109325, 267569.564111049, 267570.16618775896, 267570.76414523734, 267571.3662007123, 267571.90683330933, 267572.5416699257, 267573.1355308231, 267573.6966548187, 267574.2741247916, 267574.8476277169, 267575.4496456767, 267576.03526811104, 267576.6086726476, 267577.19431985606, 267577.75955989806, 267578.33705110586, 267578.9227216728, 267579.5043083998, 267580.1105301772, 267580.6756605051]",4,R,ITM,1
5,400,trial,0,36,36,36,"['S', 'S', 'S', 'S', 'S', 'S', 'S', 'S', 'S', 'S', 'S', 'C', 'C', 'C', 'C', 'C', 'C', 'C', 'C', 'C', 'C', 'C', 'C', 'C', 'C', 'C']","[267586.33182482416, 267586.6267011428, 267586.91344340367, 267587.2615037832, 267587.5850887286, 267587.68747104524, 267587.94961612474, 267588.3386692111, 267588.75643163203, 267588.8547283392, 267589.1742351073, 267589.4731885415, 267589.87455118995, 267590.267748282, 267590.66911270004, 267591.04593090067, 267591.443214664, 267591.8568525447, 267592.26241228625, 267592.63503657904, 267593.00365949434, 267593.4296147232, 267593.8350672282, 267594.1955168009, 267594.609190781, 267594.97367995424]","[267586.4587848568, 267586.75775775634, 267587.01578325033, 267587.3680170106, 267587.58517225285, 267587.72844145534, 267588.08883758675, 267588.5803253694, 267588.7564854273, 267588.9244233023, 267589.3257463121, 267589.6165469309, 267589.9974454323, 267590.38244334597, 267590.79609255196, 267591.1646938783, 267591.5701874376, 267591.9756328642, 267592.39342076716, 267592.7497284577, 267593.14700514276, 267593.55658714287, 267593.9702303322, 267594.33886138763, 267594.74021235685, 267595.09655543906]","[267586.08202080533, 267586.47924334113, 267586.8806197923, 267587.2819962435, 267587.6792874391, 267588.08066035114, 267588.4820322014, 267588.8793244588, 267589.1987692915, 267589.49774679204, 267589.8991122718, 267590.29239996645, 267590.69370952743, 267591.0704852581, 267591.4677700832, 267591.8814490182, 267592.2868880743, 267592.65960934013, 267593.0282400416, 267593.45417332766, 267593.8596569773, 267594.2200630183, 267594.6337359367, 267594.9982385587]",4,R,ITM,1
7,400,trial,0,37,37,37,"['S', 'S', 'S', 'S', 'S', 'S', 'S', 'S', 'S', 'S', 'S', 'C', 'C', 'C', 'C', 'C', 'C', 'C', 'C', 'C', 'C', 'C', 'C', 'C', 'C', 'C']","[267600.560179747, 267600.6584697297, 267600.8386810673, 267601.17450868455, 267601.4735261776, 267601.87488457904, 267602.2680802555, 267602.6776431441, 267603.0462455322, 267603.1486497917, 267603.4353577226, 267603.8080573996, 267604.22172500915, 267604.57803942414, 267604.94256151153, 267605.3521272315, 267605.71253999695, 267606.0893571359, 267606.51122357, 267606.88801841217, 267607.27301137097, 267607.66619147506, 267608.0593613156, 267608.4321108947, 267608.8252598542, 267609.2143437313]","[267600.56024592934, 267600.6707711517, 267600.9656552565, 267601.29329749814, 267601.64143432357, 267601.98547102895, 267602.39503533323, 267602.78824233497, 267603.0503509611, 267603.2100864724, 267603.5827843797, 267603.9555056455, 267604.3282361131, 267604.6927199775, 267605.06133227533, 267605.4709351565, 267605.83130545204, 267606.2204148111, 267606.62181815994, 267606.99857407133, 267607.39176266943, 267607.797237825, 267608.1863238256, 267608.559068096, 267608.94816294446, 267609.33719196456]","[267600.37183328986, 267600.7731481596, 267601.1704393552, 267601.5718182838, 267601.97326056345, 267602.3745517208, 267602.77185530344, 267603.1732420182, 267603.4599106645, 267603.8326092796, 267604.25037134666, 267604.6067112436, 267604.9671102063, 267605.3766653088, 267605.73711134243, 267606.1139270656, 267606.53577191086, 267606.91665307037, 267607.29757386853, 267607.6907546804, 267608.0839354924, 267608.45663198404, 267608.8498173969, 267609.2388959653]",4,R,ITM,1
6,600,trial,0,38,38,38,"['S', 'S', 'S', 'S', 'S', 'S', 'S', 'S', 'S', 'S', 'S', 'C', 'C', 'C', 'C', 'C', 'C', 'C', 'C', 'C', 'C', 'C', 'C', 'C', 'C', 'C']","[267614.99338955176, 267615.27184734034, 267615.3701486484, 267615.5831262628, 267616.01317382563, 267616.5865854405, 267617.2009288887, 267617.8316324707, 267618.39684242976, 267618.99892055534, 267619.5764011457, 267620.1743614554, 267620.706811862, 267621.325273126, 267621.91504982964, 267622.45975706476, 267623.0454424962, 267623.64751106605, 267624.1635578071, 267624.7042091617, 267625.32673409244, 267625.91241633863, 267626.5185967078, 267627.0387354288, 267627.6694598919, 267628.20599661587]","[267615.1407797554, 267615.2719096296, 267615.423401369, 267615.77970481256, 267616.24251582095, 267616.7421801314, 267617.3933942235, 267618.00365347776, 267618.5770406724, 267619.1668396727, 267619.74431283085, 267620.3300184355, 267620.89109783765, 267621.5177515557, 267622.1034433576, 267622.68101667403, 267623.2829850856, 267623.844093155, 267624.4093140855, 267624.9253505629, 267625.58886430744, 267626.1335871149, 267626.8011634644, 267627.3623033862, 267627.92746804404, 267628.4435158468]","[267614.8459696191, 267615.4438400341, 267616.0459149745, 267616.6480723773, 267617.24595730286, 267617.8480481694, 267618.44603962376, 267619.04804271914, 267619.6010422126, 267620.1990173868, 267620.73136621946, 267621.34982536, 267621.9396024175, 267622.48431814666, 267623.0700187965, 267623.6679773366, 267624.1840300942, 267624.72876812005, 267625.3512884499, 267625.9329519767, 267626.5431383243, 267627.06329155585, 267627.694007525, 267628.2305414176]",4,R,ITM,1
6,400,trial,0,39,39,39,"['S', 'S', 'S', 'S', 'S', 'S', 'S', 'S', 'C', 'C', 'C', 'C', 'C', 'C', 'C', 'C', 'C', 'C', 'C', 'C', 'C', 'C', 'C']","[267634.12834844616, 267634.48465472105, 267634.9474745773, 267635.36524478445, 267635.7789290281, 267636.20083262346, 267636.6144365281, 267637.0568173654, 267637.449919254, 267637.87588439253, 267638.20762321504, 267638.67453045043, 267639.0349524177, 267639.4568149588, 267639.82133775397, 267640.25552189024, 267640.6609351105, 267641.0787654834, 267641.47597103124, 267641.91832213954, 267642.35245672753, 267642.76201501524, 267643.13881976705]","[267634.28395800147, 267634.67306169786, 267635.0539601993, 267635.4717056323, 267635.9140401065, 267636.34003992885, 267636.75780518114, 267637.2041888115, 267637.6506234058, 267638.0233000782, 267638.39195732336, 267638.80149614566, 267639.2028655185, 267639.6206190916, 267639.9892313894, 267640.4233978299, 267640.8125156829, 267641.21795403125, 267641.6234203389, 267642.04938335397, 267642.49989152467, 267642.89305605646, 267643.2657921867]","[267633.90313983907, 267634.3044409061, 267634.7017066197, 267635.10310041276, 267635.50036754203, 267635.90182397835, 267636.3031487577, 267636.70451954624, 267637.0813055405, 267637.474475735, 267637.9004511371, 267638.2321956223, 267638.6991042733, 267639.05545124854, 267639.48138276505, 267639.8458885723, 267640.28003342386, 267640.68551636563, 267641.1032706465, 267641.50054980896, 267641.94288569887, 267642.3770128546, 267642.7824880102, 267643.1593016099]",4,R,ITM,1
3,400,trial,0,40,40,40,"['S', 'S', 'S', 'S', 'S', 'S', 'S', 'S', 'C', 'C', 'C', 'C', 'C', 'C', 'C', 'C', 'C', 'C', 'C', 'C', 'C', 'C', 'C']","[267648.85228844034, 267649.22093506804, 267649.6837241336, 267650.089157881, 267650.4905537976, 267650.91651327343, 267651.28102297377, 267651.75201864995, 267652.15341810574, 267652.56705740205, 267652.93566616066, 267653.34935819055, 267653.7343486719, 267654.13570565777, 267654.5126137531, 267654.9179774251, 267655.32760224905, 267655.692088237, 267656.1098219907, 267656.53586109774, 267656.9002975374, 267657.3098632574, 267657.7112411242]","[267648.9833386834, 267649.39701054, 267649.7983915921, 267650.1916410638, 267650.5806647751, 267651.0188658611, 267651.4202699178, 267651.84210485336, 267652.25577635603, 267652.6448761594, 267653.03806192614, 267653.43944404, 267653.8326152962, 267654.2421824318, 267654.6271835307, 267655.03265904024, 267655.4094315857, 267655.80672950565, 267656.21219970647, 267656.63405623095, 267657.0108549662, 267657.4286283585, 267657.8218130635]","[267648.61478372, 267649.0161201786, 267649.4133819992, 267649.8147545573, 267650.2161292389, 267650.61750639795, 267651.0147951161, 267651.41616802814, 267651.7724909371, 267652.1780103322, 267652.58760188805, 267652.9602244112, 267653.3738948522, 267653.7547869831, 267654.1561850232, 267654.53297774185, 267654.942572129, 267655.35215306736, 267655.7166287917, 267656.130302064, 267656.56034396414, 267656.9248480018, 267657.3344123061, 267657.735777432]",4,R,ITM,1
2,400,trial,0,41,41,41,"['S', 'S', 'S', 'S', 'S', 'S', 'S', 'S', 'S', 'C', 'C', 'C', 'C', 'C', 'C', 'C', 'C', 'C', 'C', 'C', 'C', 'C', 'C', 'C']","[267663.7359628841, 267664.06362140586, 267664.460910124, 267664.8786757302, 267665.296455847, 267665.7141910164, 267666.0704891512, 267666.1729019047, 267666.5087507569, 267666.9019251984, 267667.28281379014, 267667.64741869393, 267668.05280253914, 267668.44192605483, 267668.8105263195, 267669.2324008937, 267669.5927835763, 267669.99826687196, 267670.39555169706, 267670.7068313274, 267671.1491396118, 267671.5873789208, 267671.9314251819, 267672.3246236897]","[267663.8424633705, 267664.1824887888, 267664.5674704223, 267664.9933453122, 267665.3988056033, 267665.82884856523, 267666.07462855603, 267666.2056635806, 267666.6316365053, 267667.0207002092, 267667.39750319143, 267667.762007583, 267668.1715757804, 267668.5606720445, 267668.92518139095, 267669.3388571406, 267669.7156374722, 267670.1088614619, 267670.48976845737, 267670.86244406796, 267671.26790896, 267671.68157975486, 267672.04199252033, 267672.43515599036]","[267663.4411269119, 267663.8383636044, 267664.2397283763, 267664.64111155196, 267665.03845194186, 267665.43977318215, 267665.8411446785, 267666.2384372898, 267666.52920959523, 267666.9264848646, 267667.3074208811, 267667.6719050995, 267668.07740290574, 267668.46646554786, 267668.83096463064, 267669.2528264639, 267669.6173927908, 267670.01874694525, 267670.41600274923, 267670.7313740056, 267671.1737006937, 267671.60785191576, 267671.9559862638, 267672.3450637704]",4,R,ITM,1
7,600,trial,0,42,42,42,"['S', 'S', 'S', 'S', 'S', 'S', 'S', 'S', 'S', 'S', 'C', 'C', 'C', 'C', 'C', 'C', 'C', 'C', 'C', 'C', 'C', 'C', 'C', 'C', 'C']","[267686.0983547494, 267686.49567001127, 267686.93387605215, 267687.5564158474, 267688.1995160549, 267688.76464319753, 267688.86701843585, 267689.34623877244, 267689.9524025076, 267690.55035149195, 267691.13193751115, 267691.7340124515, 267692.3319886874, 267692.94223944773, 267693.5442843052, 267694.1914177426, 267694.7975651976, 267695.4078626748, 267696.0508751111, 267696.6324455579, 267697.24269667215, 267697.84473976004, 267698.4345203567, 267698.99153680005, 267699.58543769]","[267686.19253470236, 267686.61850054876, 267687.10589776706, 267687.69975795667, 267688.31820931105, 267688.7687107573, 267688.8915968596, 267689.47727733623, 267690.0711637157, 267690.6691349968, 267691.26299129333, 267691.8732420536, 267692.47122076695, 267693.0937945382, 267693.7040789205, 267694.3265617352, 267694.9654814836, 267695.56754934567, 267696.2023870237, 267696.80446090235, 267697.3983182606, 267698.0044865967, 267698.5820397398, 267699.1307664022, 267699.7246602138]","[267685.79943493725, 267686.39734676044, 267686.99938418565, 267687.59734803456, 267688.1994279297, 267688.8014943761, 267689.3994660111, 267689.9974167651, 267690.57490231027, 267691.16060083656, 267691.7585646855, 267692.3565409214, 267692.97090560454, 267693.56886697595, 267694.2159671452, 267694.8262267535, 267695.4323883651, 267696.0754008013, 267696.65704238537, 267697.2672566923, 267697.86932561605, 267698.45910231967, 267699.0202015412, 267699.6140822579]",4,R,ITM,1
3,400,trial,0,43,43,43,"['S', 'S', 'S', 'S', 'S', 'S', 'S', 'S', 'S', 'C', 'C', 'C', 'C', 'C', 'C', 'C', 'C', 'C', 'C', 'C', 'C', 'C', 'C', 'C']","[267705.3193758191, 267705.6715812661, 267706.0115178514, 267706.34736458014, 267706.6504422007, 267707.00267065223, 267707.41635843506, 267707.76449172135, 267708.1576583767, 267708.5344772851, 267708.91127318906, 267709.3003496339, 267709.7099128764, 267710.05804899405, 267710.4594176591, 267710.8403342102, 267711.2417042909, 267711.6594550326, 267712.0444600246, 267712.42126442253, 267712.8431322723, 267713.2568381049, 267713.63770050684, 267714.04316185974]","[267705.4586078986, 267705.79037468054, 267706.1220901446, 267706.40880055295, 267706.7651160297, 267707.12553056475, 267707.5187181011, 267707.87914148404, 267708.2518949562, 267708.6409540592, 267709.0177396995, 267709.41913207696, 267709.80000828166, 267710.17687213747, 267710.5536114148, 267710.9755061622, 267711.3481920364, 267711.75366117543, 267712.14683915605, 267712.50723634916, 267712.94551635854, 267713.33867027285, 267713.735963238, 267714.1373396892]","[267705.06956719933, 267705.4667964596, 267705.8681704333, 267706.2695472384, 267706.6668072894, 267707.0682134696, 267707.46958319633, 267707.86688748683, 267708.18221804284, 267708.5590227947, 267708.93588063394, 267709.32088208676, 267709.7345086421, 267710.0826068907, 267710.48399997596, 267710.8648935225, 267711.26626820414, 267711.6840171763, 267712.0690122586, 267712.4458318749, 267712.8676791975, 267713.28134185233, 267713.6581480198, 267714.0677501932]",4,R,ITM,1
5,400,trial,0,44,44,44,"['S', 'S', 'S', 'S', 'S', 'S', 'S', 'S', 'S', 'S', 'C', 'C', 'C', 'C', 'C', 'C', 'C', 'C', 'C', 'C', 'C', 'C', 'C', 'C', 'C']","[267719.92453867896, 267720.02283184696, 267720.22760992905, 267720.61268853565, 267720.94844289223, 267721.34573161043, 267721.72662409523, 267722.1403129398, 267722.5089170976, 267722.9061775025, 267723.3117022063, 267723.6925398342, 267724.06934635557, 267724.4666987787, 267724.85168182786, 267725.2038501136, 267725.6134091092, 267726.0066922029, 267726.3670232137, 267726.8012112431, 267727.2025533644, 267727.59164538153, 267727.96436877083, 267728.3779946183, 267728.76710433135]","[267719.924580795, 267720.0474053159, 267720.313618663, 267720.70678638003, 267721.0508407812, 267721.43991439475, 267721.8372094834, 267722.2508714304, 267722.62770874245, 267723.04543506395, 267723.4181361566, 267723.8154351383, 267724.192202375, 267724.57312352705, 267724.9703867632, 267725.31032794947, 267725.74037303485, 267726.11310774944, 267726.4981152189, 267726.9117446055, 267727.309036155, 267727.69811613904, 267728.0749194752, 267728.4844770551, 267728.8858478436]","[267719.8139982382, 267720.21123670024, 267720.61261952197, 267721.0140012819, 267721.41534906585, 267721.81262256566, 267722.2140227292, 267722.6153889168, 267722.9307676055, 267723.33621373994, 267723.7171409086, 267724.09391168447, 267724.4911996948, 267724.8761937154, 267725.22843773925, 267725.63388564327, 267726.03118568676, 267726.39166109543, 267726.82573764113, 267727.2230330837, 267727.6161841667, 267727.98890472465, 267728.40263002267, 267728.7916544418]",4,R,ITM,1
4,600,trial,0,45,45,45,"['S', 'S', 'S', 'S', 'S', 'S', 'S', 'S', 'S', 'S', 'S', 'S', 'C', 'C', 'C', 'C', 'C', 'C', 'C', 'C', 'C', 'C', 'C', 'C', 'C', 'C', 'C']","[267734.71403812454, 267735.07442257676, 267735.1768201118, 267735.5454288704, 267736.1679891928, 267736.7741384174, 267737.3435288355, 267737.4417367097, 267737.94553157693, 267738.5393931822, 267738.6376672387, 267739.1086852116, 267739.70256238926, 267740.3128680066, 267740.91487782635, 267741.53331396234, 267742.1312909061, 267742.7579570112, 267743.39685835596, 267743.9989032135, 267744.5805104676, 267745.21942632296, 267745.8419703652, 267746.4154134786, 267747.00921987294, 267747.61948797514, 267748.20926043176]","[267734.8327954396, 267735.0744795573, 267735.2956351151, 267735.7829994192, 267736.39324416296, 267736.9748361987, 267737.34359431, 267737.62603401067, 267738.2199182666, 267738.5394427305, 267738.8301562859, 267739.4405022497, 267739.9523890588, 267740.52166480804, 267741.15650885657, 267741.7913306084, 267742.45895650616, 267743.1224507853, 267743.64259092195, 267744.23244088626, 267744.8590482413, 267745.50208686735, 267746.20241109, 267746.8454104314, 267747.4434082562, 267748.0085927333]","[267734.41096156574, 267735.0089232911, 267735.61094762146, 267736.2089114703, 267736.81098605675, 267737.40895202913, 267738.0110390026, 267738.6130767818, 267739.1332307212, 267739.72712028585, 267740.3373866185, 267740.9394757155, 267741.5537915582, 267742.1558580045, 267742.78248270147, 267743.41732391866, 267744.02346040227, 267744.6050552693, 267745.2440012076, 267745.86652507656, 267746.43991545646, 267747.0338018359, 267747.6440462257, 267748.2338137275]",4,R,ITM,1
6,600,trial,0,46,46,46,"['S', 'S', 'S', 'S', 'S', 'S', 'S', 'S', 'S', 'S', 'S', 'C', 'C', 'C', 'C', 'C', 'C', 'C', 'C', 'C', 'C', 'C', 'C', 'C', 'C', 'C']","[267753.88588535873, 267753.9841480899, 267754.2135339708, 267754.8401767175, 267755.4340315983, 267755.53649814706, 267756.1057346116, 267756.6791349012, 267757.1869821099, 267757.78495197534, 267758.3542617006, 267758.9112569089, 267759.4682889245, 267760.07444876654, 267760.5987314933, 267761.16798813106, 267761.7413795727, 267762.3065672351, 267762.88820103294, 267763.4697396273, 267764.02679146227, 267764.60017653345, 267765.1407748006, 267765.76333972387, 267766.3244485011, 267766.8691606911]","[267753.8859207504, 267754.1070164964, 267754.4183049746, 267755.0490297916, 267755.43409813463, 267755.6633658075, 267756.31053499045, 267756.8593250038, 267757.44910064567, 267758.0388727483, 267758.6327725766, 267759.17339986487, 267759.730408522, 267760.3037918236, 267760.8649034322, 267761.4464912209, 267762.01990566717, 267762.5359502847, 267763.1666581137, 267763.6868141766, 267764.2970790936, 267764.8581705289, 267765.4315888682, 267766.0049852647, 267766.60295619187, 267767.1067149597]","[267753.7384781671, 267754.33641794964, 267754.9384412182, 267755.5364401048, 267756.13848213095, 267756.73646155215, 267757.33855985093, 267757.93650458835, 267758.37883092253, 267758.9358091429, 267759.4928354958, 267760.09898825956, 267760.6232490435, 267761.1925485051, 267761.7659360537, 267762.3312061785, 267762.91273875633, 267763.49432512943, 267764.0513252926, 267764.6206304169, 267765.1653864925, 267765.7879100076, 267766.34901807696, 267766.89374053053]",4,R,ITM,1
5,600,trial,0,47,47,47,"['S', 'S', 'S', 'S', 'S', 'S', 'S', 'S', 'S', 'S', 'S', 'C', 'C', 'C', 'C', 'C', 'C', 'C', 'C', 'C', 'C', 'C', 'C', 'C', 'C', 'C']","[267772.3901463338, 267772.49250529194, 267772.6522468198, 267772.9676155988, 267773.3894862799, 267773.90552098776, 267774.51990442845, 267775.16288713575, 267775.7117121868, 267776.34246956406, 267776.9486290522, 267777.4646789785, 267778.05855792563, 267778.63603249943, 267779.1643834938, 267779.6681596035, 267780.4340262896, 267781.0156342516, 267781.6095167379, 267782.19930476684, 267782.72759594937, 267783.3583582815, 267783.96040349285, 267784.5789227992, 267785.15224770457, 267785.7174608489]","[267772.394249993, 267772.50068925193, 267772.77106394665, 267773.12734473957, 267773.59013628255, 267774.1594622879, 267774.7533352185, 267775.3758796147, 267775.9779244721, 267776.5800362198, 267777.1861564232, 267777.7677470433, 267778.3288519274, 267778.8531035095, 267779.4592576889, 267780.01216834947, 267780.6920468288, 267781.21631646063, 267781.851114854, 267782.42455655173, 267782.9774374833, 267783.5344429552, 267784.1365295748, 267784.70174519654, 267785.3038236761, 267785.84443645383]","[267772.2222477435, 267772.82015425793, 267773.42224406276, 267774.0243158179, 267774.6222732963, 267775.22024209995, 267775.82235278585, 267776.4202706256, 267776.9731816401, 267777.4892255498, 267778.0831154684, 267778.66058367165, 267779.18897465855, 267779.692705467, 267780.4585983429, 267781.04016808193, 267781.63406330923, 267782.2238470912, 267782.7481050438, 267783.37883977045, 267783.9849829784, 267784.60342937795, 267785.1768218814, 267785.7420091898]",4,R,ITM,1
3,600,trial,0,48,48,48,"['S', 'S', 'S', 'S', 'S', 'S', 'S', 'S', 'S', 'S', 'S', 'C', 'C', 'C', 'C', 'C', 'C', 'C', 'C', 'C', 'C', 'C', 'C', 'C', 'C', 'C']","[267791.6480153968, 267791.75036833837, 267791.95109549473, 267792.4958186561, 267793.0896625656, 267793.6918058118, 267794.2938028906, 267794.9409483611, 267795.03924046736, 267795.5224883712, 267796.1040878392, 267796.7102905051, 267797.31234845746, 267797.94713941857, 267798.5287608294, 267799.1471842244, 267799.72059017664, 267800.2980583799, 267800.90832081944, 267801.55955225346, 267802.13703355164, 267802.7022109504, 267803.2428654902, 267803.86130693497, 267804.40602124843, 267805.02447543415]","[267791.64810139843, 267791.7954151562, 267792.1394812366, 267792.704681286, 267793.2903582234, 267793.85145319795, 267794.4657945226, 267794.9409993251, 267795.08427171287, 267795.66177743126, 267796.25560895365, 267796.85359403753, 267797.42700812983, 267798.0863902557, 267798.68026354024, 267799.29051677795, 267799.8762135347, 267800.43321192823, 267801.0639569185, 267801.70697183214, 267802.3049434672, 267802.8537380814, 267803.39848707867, 267804.03739904094, 267804.6108159646, 267805.19238888886]","[267791.3736386168, 267791.9756335721, 267792.5736002523, 267793.1756766083, 267793.7736358562, 267794.375793613, 267794.9777829056, 267795.57577188255, 267796.1286680325, 267796.73482008843, 267797.3368649459, 267797.97174509394, 267798.5492048032, 267799.17173291923, 267799.74513285485, 267800.32270581735, 267800.9328737612, 267801.58407935937, 267802.16158967867, 267802.7267953907, 267803.26741064584, 267803.8858542141, 267804.43065452925, 267805.0490273142]",4,R,ITM,1
4,400,trial,0,49,49,49,"['S', 'S', 'S', 'S', 'S', 'S', 'S', 'S', 'S', 'C', 'C', 'C', 'C', 'C', 'C', 'C', 'C', 'C', 'C', 'C', 'C', 'C', 'C', 'C']","[267811.20485098887, 267811.5530051562, 267811.6512434672, 267811.97073678643, 267812.40901573404, 267812.77756468084, 267813.1666712086, 267813.59671558614, 267814.0022002975, 267814.4158374703, 267814.8131474235, 267815.23089568777, 267815.6486351042, 267816.09099187516, 267816.4636696092, 267816.84051116835, 267817.20909975376, 267817.63504648866, 267818.0323359147, 267818.38865599234, 267818.85556924425, 267819.2856192845, 267819.67060835025, 267820.06787441776]","[267811.31133979606, 267811.553052581, 267811.6676481945, 267812.05672711675, 267812.53594143677, 267812.9004521988, 267813.2895491708, 267813.6908966009, 267814.1291412186, 267814.530554831, 267814.923731042, 267815.3169015904, 267815.75104821153, 267816.1851629802, 267816.57018779154, 267816.942880744, 267817.31558679143, 267817.7497277499, 267818.1469973566, 267818.51151873614, 267818.974336115, 267819.38388201565, 267819.80573500093, 267820.16616829357]","[267810.8239832782, 267811.2252999175, 267811.6266827392, 267812.0239962315, 267812.42534578504, 267812.82672223623, 267813.22809727176, 267813.6253845743, 267814.0267550089, 267814.4404488083, 267814.83769293304, 267815.25552542944, 267815.6732206063, 267816.11554446304, 267816.4882260902, 267816.8650474761, 267817.2336583582, 267817.6596040314, 267818.0568895643, 267818.4132535276, 267818.8760128642, 267819.3101761194, 267819.69517509476, 267820.0883371491]",4,R,ITM,1
7,400,trial,0,50,50,50,"['S', 'S', 'S', 'S', 'S', 'S', 'S', 'S', 'S', 'S', 'C', 'C', 'C', 'C', 'C', 'C', 'C', 'C', 'C', 'C', 'C', 'C', 'C', 'C', 'C']","[267825.7485874317, 267826.0639399305, 267826.30968629924, 267826.63737702736, 267826.93638284114, 267827.35408545024, 267827.7103931408, 267828.14455321076, 267828.4967990042, 267828.88586589333, 267829.23400201096, 267829.6108039314, 267829.9712227135, 267830.38081426936, 267830.67157631123, 267831.0648010088, 267831.4538689597, 267831.818370166, 267832.19518730487, 267832.572024617, 267832.92828806804, 267833.31739671924, 267833.6859941526, 267833.9849921802, 267834.41503160296]","[267825.85914379865, 267826.1458428817, 267826.4325603684, 267826.6374131268, 267827.0509972122, 267827.44417590066, 267827.82509209786, 267828.19778717385, 267828.6196734273, 267829.0128397287, 267829.3281851492, 267829.71733414684, 267830.08179996157, 267830.4545113177, 267830.79447019973, 267831.18353992014, 267831.5563086108, 267831.92485968105, 267832.3057383631, 267832.68254063756, 267833.0306753395, 267833.4156590965, 267833.78836549784, 267834.1201598852, 267834.5379109809]","[267825.4742166682, 267825.8755835637, 267826.272825211, 267826.6741903369, 267827.0755820065, 267827.47284984356, 267827.8742266487, 267828.27152421477, 267828.91043122223, 267829.2585517675, 267829.6353646594, 267829.99580290687, 267830.4053615485, 267830.7003277619, 267831.0893192668, 267831.4784286259, 267831.84292947827, 267832.21973564575, 267832.60064405686, 267832.9528523352, 267833.3419450602, 267833.7105559423, 267834.01363073156, 267834.43959976314]",4,R,ITM,1
2,400,trial,0,51,51,51,"['S', 'S', 'S', 'S', 'S', 'S', 'S', 'S', 'S', 'C', 'C', 'C', 'C', 'C', 'C', 'C', 'C', 'C', 'C', 'C', 'C', 'C', 'C', 'C']","[267840.1244026336, 267840.3947196399, 267840.730564953, 267841.0377476485, 267841.4554937893, 267841.8814391085, 267842.25418408675, 267842.6760041578, 267843.09786422143, 267843.5115396172, 267843.8842300923, 267844.2692216355, 267844.6665103536, 267845.05969222734, 267845.4364987487, 267845.7968938184, 267846.2802277239, 267846.7021522003, 267847.103462823, 267847.48022191966, 267847.90618988953, 267848.2829811925, 267848.6884538707, 267849.0816576872]","[267840.2308850703, 267840.5134988977, 267840.83294762357, 267841.1687858584, 267841.566080947, 267841.96744855033, 267842.36063148576, 267842.77432528517, 267843.1838761406, 267843.6098108424, 267843.98254024825, 267844.3675059555, 267844.7524936056, 267845.1621382489, 267845.5347841305, 267845.9197756737, 267846.39077807433, 267846.79216372734, 267847.1771382825, 267847.57852712076, 267847.98399413633, 267848.37718131876, 267848.7539860706, 267849.18812207424]","[267839.948359368, 267840.34557057853, 267840.74692862603, 267841.1483047233, 267841.54559662676, 267841.94695856737, 267842.34834988305, 267842.74564355606, 267843.1224408756, 267843.5361541404, 267843.90881170135, 267844.2938071376, 267844.691145404, 267845.0842550788, 267845.4569544018, 267845.82147896657, 267846.30478208134, 267846.7266226796, 267847.1238997185, 267847.50478370936, 267847.93074920186, 267848.3075677564, 267848.7130889211, 267849.10619116365]",4,R,ITM,1
6,400,trial,0,52,52,52,"['S', 'S', 'S', 'S', 'S', 'S', 'S', 'S', 'S', 'C', 'C', 'C', 'C', 'C', 'C', 'C', 'C', 'C', 'C', 'C', 'C', 'C', 'C', 'C']","[267855.0654288563, 267855.40536791895, 267855.7411937667, 267856.11391644814, 267856.42927921057, 267856.8306889299, 267857.19926371257, 267857.6047519631, 267858.01839904557, 267858.3624378744, 267858.7638146795, 267859.14060810604, 267859.5583623869, 267859.93109320843, 267860.34478453046, 267860.7543127353, 267861.13930109324, 267861.54067258956, 267861.90111189877, 267862.31894227164, 267862.7284633982, 267863.11752356286, 267863.5107011896, 267863.93667482206]","[267855.18420280534, 267855.52414222196, 267855.8436107671, 267856.212189089, 267856.5398684918, 267856.9125614443, 267857.2934748102, 267857.69900305325, 267858.12078667094, 267858.47302573995, 267858.8621000613, 267859.2389865678, 267859.6566651106, 267860.0457663296, 267860.4471399495, 267860.8526151051, 267861.2376055865, 267861.63492509536, 267861.99531131715, 267862.4212470806, 267862.83900490066, 267863.2158015124, 267863.62540545536, 267864.0308816727]","[267854.86479477986, 267855.26610717224, 267855.6633983678, 267856.06477163377, 267856.4661318048, 267856.8634272474, 267857.2648029907, 267857.6661751949, 267858.042970391, 267858.3870113434, 267858.7883683292, 267859.16516352526, 267859.58294470375, 267859.95565216686, 267860.36933004, 267860.7789361064, 267861.16392694175, 267861.56525950733, 267861.92565457703, 267862.34342549194, 267862.75299793633, 267863.14207579684, 267863.5352881073, 267863.9612436901]",4,R,ITM,1
2,600,trial,0,53,53,53,"['S', 'S', 'S', 'S', 'S', 'S', 'S', 'S', 'S', 'C', 'C', 'C', 'C', 'C', 'C', 'C', 'C', 'C', 'C', 'C', 'C', 'C', 'C', 'C']","[267869.92045094597, 267870.25216499437, 267870.7846295576, 267871.42357797327, 267871.96828166925, 267872.61539634905, 267873.20517446834, 267873.75808796025, 267874.36015511444, 267874.97039773467, 267875.5765795195, 267876.1745433684, 267876.727491898, 267877.34180986416, 267877.9357319891, 267878.5787129268, 267879.184872415, 267879.7541672757, 267880.3685195717, 267880.9910430868, 267881.5726765308, 267882.15422291134, 267882.76856282033, 267883.4074992028]","[267870.03513503855, 267870.37503552437, 267870.9198100036, 267871.5423126376, 267872.08705844963, 267872.7096226651, 267873.2993459273, 267873.8604713386, 267874.45844120404, 267875.06459290604, 267875.6707679665, 267876.26463558833, 267876.8584982554, 267877.4482654032, 267878.0380778524, 267878.66471281287, 267879.2790626315, 267879.89339900133, 267880.47906496737, 267881.09752764704, 267881.6832155559, 267882.2279330546, 267882.85046824894, 267883.5057860003]","[267869.6460851374, 267870.2480963728, 267870.84606163733, 267871.4481245446, 267872.0460699898, 267872.64815448585, 267873.24610984075, 267873.8481787645, 267874.3806231546, 267874.99498075934, 267875.6011345848, 267876.19498309516, 267876.7520013081, 267877.3663797939, 267877.9602300739, 267878.60325348156, 267879.2094023522, 267879.778726588, 267880.39306437346, 267881.0115217444, 267881.59718346345, 267882.17876912875, 267882.7931398284, 267883.43206913257]",4,R,ITM,1
3,600,trial,0,54,54,54,"['S', 'S', 'S', 'S', 'S', 'S', 'S', 'S', 'S', 'S', 'C', 'C', 'C', 'C', 'C', 'C', 'C', 'C', 'C', 'C', 'C', 'C', 'C', 'C', 'C']","[267893.421427224, 267893.69992995996, 267893.8023030748, 267894.3183600794, 267894.91635436506, 267895.50202457805, 267896.12867015606, 267896.6897622992, 267897.3165204226, 267897.8980013286, 267898.463214119, 267899.0570874035, 267899.663236982, 267900.2284395088, 267900.84282648866, 267901.3956996341, 267902.02643259114, 267902.56706766563, 267903.18551335734, 267903.7384356971, 267904.336386805, 267904.87703072734, 267905.50776333053, 267906.06477871205, 267906.62180258764]","[267893.4215100404, 267893.7039999972, 267893.8473672345, 267894.4658260211, 267895.0514923411, 267895.6535743598, 267896.2638074242, 267896.8412855372, 267897.45566402306, 267898.0495082864, 267898.63111164747, 267899.1881341074, 267899.78609654057, 267900.39224187203, 267900.9779389827, 267901.56361131923, 267902.169789211, 267902.77186415135, 267903.36161855824, 267903.95139172266, 267904.5206879991, 267905.08181482606, 267905.66338810424, 267906.2327027843, 267906.81017523457]","[267893.2003190909, 267893.79822418967, 267894.4002881586, 267894.9982590858, 267895.6003039433, 267896.19826956175, 267896.8003483952, 267897.3983136597, 267897.92254931555, 267898.4877543198, 267899.08164105314, 267899.68779841776, 267900.2529984672, 267900.86742296215, 267901.4202550533, 267902.0510081836, 267902.5916156526, 267903.21006913047, 267903.76301518263, 267904.36098823335, 267904.90159428667, 267905.5323654667, 267906.0852361347, 267906.6463427884]",4,R,ITM,1
6,600,trial,0,55,55,55,"['S', 'S', 'S', 'S', 'S', 'S', 'S', 'S', 'S', 'S', 'C', 'C', 'C', 'C', 'C', 'C', 'C', 'C', 'C', 'C', 'C', 'C', 'C', 'C', 'C']","[267912.19189305214, 267912.53593895934, 267913.08885174344, 267913.67453929834, 267914.3011593943, 267914.87866086577, 267915.4929986512, 267916.1032819718, 267916.20155284303, 267916.693047704, 267917.2787437529, 267917.8357301134, 267918.4214286397, 267919.0030217372, 267919.55182413757, 267920.17438622954, 267920.7559701252, 267921.37031321944, 267921.943743238, 267922.51298607304, 267923.09460040554, 267923.6434020981, 267924.28233069443, 267924.8352760388, 267925.42911817867]","[267912.26561664423, 267912.6915736427, 267913.2199228675, 267913.83015805547, 267914.42404408095, 267914.97695261805, 267915.5872267368, 267916.1033400141, 267916.21385461895, 267916.7995492522, 267917.39340059395, 267917.9626912077, 267918.51971968415, 267919.1135819973, 267919.67469608324, 267920.31364202144, 267920.86652507656, 267921.48915476655, 267922.0747761391, 267922.64814280666, 267923.21743660566, 267923.7908560067, 267924.38881242333, 267924.9991074231, 267925.5397046286]","[267911.9584909293, 267912.5604887159, 267913.1584568118, 267913.7605377687, 267914.3626010298, 267914.9605758501, 267915.56264654343, 267916.16061003844, 267916.71760595456, 267917.30329740257, 267917.8602876561, 267918.4459819354, 267919.0275962679, 267919.576412471, 267920.1948305573, 267920.77641020593, 267921.3948675769, 267921.9682607882, 267922.53754361573, 267923.1191491003, 267923.6679592869, 267924.3069133652, 267924.8598339354, 267925.4495925893]",4,R,ITM,1
4,400,trial,0,56,56,56,"['S', 'S', 'S', 'S', 'S', 'S', 'S', 'S', 'C', 'C', 'C', 'C', 'C', 'C', 'C', 'C', 'C', 'C', 'C', 'C', 'C', 'C', 'C']","[267931.4292834576, 267931.7364590747, 267932.1992799927, 267932.600647596, 267932.99382840795, 267933.36654330324, 267933.7924886225, 267934.1856765127, 267934.5788668804, 267934.94747103815, 267935.32837591006, 267935.7461149725, 267936.10654578777, 267936.5243099783, 267936.8970036386, 267937.25745179574, 267937.6587953327, 267938.02742992726, 267938.4001172171, 267938.78103058296, 267939.1619428871, 267939.5592142634, 267939.91960862523]","[267931.5275684855, 267931.82247028605, 267932.3016421361, 267932.7112496182, 267933.0757518863, 267933.46900277364, 267933.8661909796, 267934.2675677847, 267934.6566644028, 267935.03755476413, 267935.4225572787, 267935.8485199398, 267936.2007430826, 267936.62259465223, 267937.0034871371, 267937.3680088706, 267937.75709911814, 267938.12570150633, 267938.4943198207, 267938.8793120717, 267939.26429476694, 267939.6533782901, 267940.01382220024]","[267931.0934809683, 267931.4947898215, 267931.8920799554, 267932.2934666701, 267932.6948473683, 267933.09211839066, 267933.49349448795, 267933.8948730626, 267934.2102425494, 267934.59931793256, 267934.97204769234, 267935.34882342303, 267935.7706817171, 267936.1311104088, 267936.54886964447, 267936.9215817085, 267937.28198350256, 267937.6833549989, 267938.0479535322, 267938.4246683893, 267938.80559131096, 267939.18650715426, 267939.5837710983, 267939.9441629827]",4,R,ITM,1
5,400,trial,0,57,57,57,"['S', 'S', 'S', 'S', 'S', 'S', 'S', 'S', 'S', 'C', 'C', 'C', 'C', 'C', 'C', 'C', 'C', 'C', 'C', 'C', 'C', 'C', 'C', 'C']","[267945.82147861266, 267946.1204663767, 267946.4399713753, 267946.783959948, 267947.15668899997, 267947.52938903077, 267947.9266667776, 267948.3075628016, 267948.7130252162, 267949.1021317439, 267949.48303909326, 267949.8762096416, 267950.2489245369, 267950.60935322865, 267950.9943483109, 267951.37113501306, 267951.7315438854, 267952.13294688036, 267952.5342914791, 267952.8783388019, 267953.2920141977, 267953.7015671767, 267954.07837299025, 267954.4428830445]","[267945.9320724948, 267946.2228692205, 267946.5505022603, 267946.9068587913, 267947.2631555105, 267947.6112810106, 267948.00447562523, 267948.4099497191, 267948.8195214556, 267949.2168034494, 267949.5813276603, 267949.95402485976, 267950.3512863264, 267950.71178509353, 267951.1008162371, 267951.4694179174, 267951.8421236109, 267952.2312053645, 267952.6284951444, 267952.9971226607, 267953.40256454813, 267953.7875631696, 267954.172549758, 267954.5493545098]","[267945.6413306261, 267946.03855811676, 267946.4399335062, 267946.8412926155, 267947.24266658927, 267947.6399638014, 267948.04133883695, 267948.44270856376, 267948.7375831128, 267949.12670273543, 267949.5075902655, 267949.9007880654, 267950.2734725239, 267950.633899446, 267951.01889311266, 267951.39577537216, 267951.75610284385, 267952.15749946825, 267952.5588709646, 267952.9028910359, 267953.3165604151, 267953.7220161053, 267954.0988205032, 267954.46335674723]",4,R,ITM,1
3,400,trial,0,58,58,58,"['S', 'S', 'S', 'S', 'S', 'S', 'S', 'S', 'S', 'C', 'C', 'C', 'C', 'C', 'C', 'C', 'C', 'C', 'C', 'C', 'C', 'C', 'C', 'C']","[267960.4389549277, 267960.8362355058, 267961.1106512166, 267961.4137079561, 267961.7700584705, 267962.1059108619, 267962.52362515026, 267962.86770574126, 267963.3100189805, 267963.6786171217, 267964.03901714616, 267964.4322414898, 267964.82951003476, 267965.18583471334, 267965.5831184767, 267965.99678750196, 267966.37770971574, 267966.76268745615, 267967.15588030126, 267967.5695705615, 267967.9504131442, 267968.3436173146, 267968.7081103808, 267969.1095491213]","[267960.5536574239, 267960.9549974217, 267961.2212206785, 267961.5161051372, 267961.7700970474, 267962.109964619, 267962.6014407224, 267962.97825467604, 267963.4042159215, 267963.7646166538, 267964.13325054053, 267964.53461035766, 267964.915496472, 267965.28414416144, 267965.68140598194, 267966.09915566194, 267966.47597350867, 267966.86503792036, 267967.25005990034, 267967.63094566076, 267968.03639922745, 267968.4418878319, 267968.8145896323, 267969.2159972281]","[267960.2342012658, 267960.6314376044, 267961.03281511733, 267961.43418519804, 267961.83150329127, 267962.23284682824, 267962.6342774286, 267963.0315165985, 267963.33462288626, 267963.7031835123, 267964.06359840126, 267964.4567983247, 267964.8540686392, 267965.20631443267, 267965.60767354193, 267966.01724067755, 267966.4022346982, 267966.7872255335, 267967.1763352465, 267967.5940789099, 267967.9708879087, 267968.3681575154, 267968.73269340553, 267969.12995310256]",4,R,ITM,1
4,600,trial,0,59,59,59,"['S', 'S', 'S', 'S', 'S', 'S', 'S', 'S', 'S', 'S', 'C', 'C', 'C', 'C', 'C', 'C', 'C', 'C', 'C', 'C', 'C', 'C', 'C', 'C', 'C']","[267974.73697437684, 267974.9990844186, 267975.28985424666, 267975.66665793676, 267976.26875128073, 267976.8462180683, 267977.44013948546, 267978.0626392882, 267978.62373780186, 267979.2831577968, 267979.90571033297, 267980.5118655741, 267981.1262171623, 267981.69959727867, 267982.33853790816, 267982.907823921, 267983.4648552288, 267984.0013604542, 267984.6525692375, 267985.18910773104, 267985.73383832467, 267986.3195570242, 267986.81922168855, 267987.4048777449, 267987.9454979549]","[267974.83523923147, 267975.1219535329, 267975.4701126551, 267975.8755502956, 267976.44484374067, 267977.1042814314, 267977.7186043524, 267978.29200464196, 267978.9022699128, 267979.52889177843, 267980.1268506725, 267980.69615968986, 267981.314632987, 267981.90028515033, 267982.51873438124, 267983.0839485873, 267983.6573584326, 267984.2553534261, 267984.84505970037, 267985.36113652424, 267985.92223079095, 267986.47932403407, 267987.0157744024, 267987.58098896244, 267988.06018912577]","[267974.5321768293, 267975.13013926253, 267975.73219686095, 267976.3301699117, 267976.9322402511, 267977.5342783842, 267978.13225532795, 267978.73432319, 267979.30771640124, 267979.93027141487, 267980.53239378, 267981.1507722276, 267981.7200663805, 267982.36308235594, 267982.9323952664, 267983.48535052047, 267984.0259229517, 267984.67712394893, 267985.2136663355, 267985.7583894969, 267986.34408413013, 267986.8437643668, 267987.4294497982, 267987.97006222204]",4,R,ITM,1
2,400,trial,0,60,60,60,"['S', 'S', 'S', 'S', 'S', 'S', 'S', 'S', 'S', 'S', 'C', 'C', 'C', 'C', 'C', 'C', 'C', 'C', 'C', 'C', 'C', 'C', 'C', 'C', 'C']","[267993.5361162714, 267993.8187010777, 267994.14226054115, 267994.4494467758, 267994.55182378367, 267994.82622356823, 267995.1702765537, 267995.6044072486, 267995.9730407814, 267996.399031048, 267996.7880862579, 267997.2058263821, 267997.57444115734, 267997.9717167806, 267998.35261528206, 267998.76630412665, 267999.1307901146, 267999.5444672799, 267999.9417322857, 268000.33902702044, 268000.77726668335, 268001.15818217275, 268001.55134139577, 268001.94451619114, 268002.35413252114]","[267993.6425895063, 267993.9702303322, 267994.26923012943, 267994.4495087111, 267994.5682154161, 267994.9204343119, 267995.30552565947, 267995.7231960622, 267996.1081943298, 267996.5095552086, 267996.9150515992, 267997.31229537004, 267997.6850067262, 267998.086397334, 267998.47139701725, 267998.8727649745, 267999.249541413, 267999.68369758985, 268000.06870399753, 268000.4659626328, 268000.88373991824, 268001.2646274483, 268001.67829010304, 268002.06329757243, 268002.4687713124]","[267993.3027045928, 267993.70402193995, 267994.1053941442, 267994.502654903, 267994.90406214487, 267995.3054764651, 267995.70270961843, 267996.10407403647, 267996.4235489521, 267996.81263353705, 267997.23036906036, 267997.59900259314, 267997.99628069386, 267998.37310491106, 267998.7908340639, 267999.15534942684, 267999.56902376085, 267999.9662912441, 268000.36358633277, 268000.8018210408, 268001.1786289779, 268001.5758946915, 268001.969119743, 268002.3786433469]",4,R,ITM,1
6,400,trial,0,61,61,61,"['S', 'S', 'S', 'S', 'S', 'S', 'S', 'S', 'S', 'C', 'C', 'C', 'C', 'C', 'C', 'C', 'C', 'C', 'C', 'C', 'C', 'C', 'C', 'C']","[268008.3419638177, 268008.7556137315, 268009.14471565833, 268009.59933350486, 268009.7017030805, 268009.95976856706, 268010.41026718204, 268010.7911915193, 268011.2294311822, 268011.606215053, 268011.99940365105, 268012.417174566, 268012.7980677587, 268013.15436235437, 268013.6090063907, 268013.9776034701, 268014.41998006037, 268014.7967929522, 268015.1694526366, 268015.5626560992, 268015.94764233363, 268016.32851818437, 268016.71760949376, 268017.1067100049]","[268008.4976080568, 268008.8866979505, 268009.2757659014, 268009.6034042499, 268009.7181046226, 268010.0990215277, 268010.533150453, 268010.9100157245, 268011.3400066607, 268011.7127031524, 268012.1099978871, 268012.51953423204, 268012.9004529067, 268013.2895392612, 268013.71545555926, 268014.0881902739, 268014.50595906534, 268014.8868264221, 268015.28411867947, 268015.6650242592, 268016.0746101524, 268016.4350020368, 268016.84868309525, 268017.2352240839]","[268008.11265296704, 268008.5140410975, 268008.91536127595, 268009.31674197415, 268009.71401830524, 268010.1153724597, 268010.5167535118, 268010.9140333821, 268011.2540078364, 268011.6307793201, 268012.0239827827, 268012.4417314009, 268012.8226136222, 268013.17898289417, 268013.6335759665, 268014.0021659676, 268014.4445064584, 268014.82131793466, 268015.1940154881, 268015.58720125485, 268015.97219739895, 268016.353110057, 268016.74217836175, 268017.1312887826]",4,R,ITM,1
5,600,trial,0,62,62,62,"[b'B', 'S', 'S', 'S', 'S', 'S', 'S', 'S', 'S', 'S', 'S', 'S', 'S', 'S', 'C', 'C', 'C', 'C', 'C', 'C', 'C', 'C', 'C', 'C', 'C', 'C', 'C', 'C', 'C']","[268022.56306982733, 268022.82840369246, 268022.9266710245, 268023.10286612017, 268023.6638973898, 268023.76220613, 268024.2291197359, 268024.84344690386, 268025.46190250525, 268025.560183994, 268026.03531199665, 268026.1376557364, 268026.6783407131, 268027.30084688624, 268027.8824343211, 268028.3862104308, 268028.9473089445, 268029.5207793095, 268030.0654433668, 268030.63477468095, 268031.22041799634, 268031.81837724434, 268032.3467615068, 268032.92830859515, 268033.4484710286, 268033.98497766966, 268034.51334246673, 268035.07444310386, 268035.62325612176]","[268022.70957984123, 268022.82844687026, 268022.9717036857, 268023.31576091825, 268023.6639366745, 268023.86457924487, 268024.4748402687, 268025.09737475525, 268025.4619856756, 268025.6666657229, 268026.039351951, 268026.28100740147, 268026.82165415515, 268027.50153546577, 268028.0298960159, 268028.5582052481, 268029.1111385593, 268029.65585358057, 268030.20057568024, 268030.79449426604, 268031.3719422961, 268031.9821774841, 268032.51055679173, 268033.04709634697, 268033.58362245344, 268034.1242270911, 268034.652579855, 268035.2259695271, 268035.77889009734]","[268022.5744429269, 268023.17240642186, 268023.77446649777, 268024.3724508738, 268024.9744790972, 268025.57245214784, 268026.17452567257, 268026.7765977816, 268027.3213188195, 268027.90699292556, 268028.41078319197, 268028.97186648723, 268029.54115037655, 268030.08999241557, 268030.65927311964, 268031.2449652755, 268031.8429369105, 268032.37128082657, 268032.9528664918, 268033.4730303409, 268034.0095518464, 268034.5379095652, 268035.0989971074, 268035.6478055244]",4,R,ITM,1
