octave,ioi,event,.thisRepN,.thisTrialN,.thisN,.thisIndex,event,tap_types,tap_times,release_times,tone_times,subject,handedness,experiment,version,
,,SPR,0,-1,-1,0,SPR,"['P', 'P', 'P', 'P', 'P', 'P', 'P', 'P', 'P', 'P', 'P', 'P', 'P', 'P', 'P', 'P', 'P', 'P', 'P', 'P', 'P', 'P', 'P', 'P', 'P', 'P', 'P', 'P', 'P', 'P']","[42964, 44005, 44937, 45753, 46542, 47226, 47987, 48843, 49618, 50239, 50998, 51805, 52567, 53379, 54105, 54800, 55527, 56207, 56949, 57653, 58330, 59139, 59894, 60585, 61276, 61940, 62575, 63302, 63928, 64663]","[43163, 44283, 45140, 45992, 46806, 47556, 48276, 49129, 49852, 50547, 51257, 52087, 52860, 53618, 54349, 55062, 55756, 56401, 57131, 57857, 58618, 59311, 60099, 60786, 61443, 62130, 62755, 63515, 64139, 64844]",,14,R,ITM,1.1,
4,500,practice,0,0,0,0,practice,"['S', 'S', 'S', 'S', 'S', 'S', 'S', 'S', 'C', 'C', 'C', 'C', 'C', 'C', 'C', 'C', 'C', 'C', 'C', 'C', 'C', 'C', 'C', 'C']","[149587, 150339, 150810, 151305, 151793, 152274, 152760, 153264, 180655, 181099, 181536, 197422, 203798, 204992, 205385, 205810, 206279, 206848, 207372, 207866, 208355, 208823, 209293, 209802]","[149961, 150541, 151010, 151515, 152019, 152485, 152949, 153445, 180822, 181279, 181727, 197622, 203980, 205135, 205542, 206008, 206538, 207028, 207536, 208026, 208514, 209014, 209499, 209987]","[149532, 150031, 150532, 151031, 151531, 152031, 152531, 153031, 180680, 181125, 181562, 197448, 203824, 205018, 205411, 205836, 206305, 206873, 207397, 207893, 208380, 208848, 209318, 209827]",14,R,ITM,1.1,
3,500,practice,0,1,1,1,practice,"['S', 'S', 'S', 'S', 'S', 'C', 'C', 'C', 'C', 'C', 'C', 'C', 'C', 'C', 'C', 'C', 'C', 'C', 'C', 'C', 'C']","[216993, 217451, 217944, 218443, 218939, 219422, 219821, 220206, 220720, 221248, 221834, 222405, 222886, 223574, 224187, 224763, 225332, 225884, 226413, 226949, 227500]","[217177, 217710, 218196, 218748, 219185, 219653, 220034, 220464, 220920, 221421, 221963, 222512, 222999, 223693, 224320, 224913, 225463, 226010, 226506, 227081, 227620]","[215567, 216068, 216567, 217067, 217567, 218067, 218567, 219067, 219448, 219846, 220231, 220745, 221274, 221859, 222431, 222912, 223599, 224212, 224789, 225357, 225909, 226439, 226974, 227525]",14,R,ITM,1.1,
5,500,practice,0,2,2,2,practice,"['S', 'S', 'S', 'S', 'S', 'S', 'S', 'C', 'C', 'C', 'C', 'C', 'C', 'C', 'C', 'C', 'C', 'C', 'C', 'C', 'C', 'C', 'C']","[233159, 234049, 234537, 235061, 235554, 236043, 236549, 237000, 237443, 237976, 238503, 238971, 239454, 239962, 240446, 240971, 241445, 241902, 242466, 242964, 243454, 244034, 244469]","[233461, 234301, 234798, 235381, 235799, 236299, 236763, 237210, 237726, 238195, 238708, 239137, 239632, 240109, 240610, 241097, 241542, 242025, 242595, 243095, 243553, 244119, 244604]","[233099, 233598, 234098, 234598, 235099, 235598, 236098, 236598, 237026, 237468, 238002, 238529, 238997, 239479, 239987, 240472, 240997, 241471, 241928, 242492, 242990, 243481, 244061, 244495]",14,R,ITM,1.1,
2,500,practice,0,3,3,3,practice,"['S', 'S', 'S', 'S', 'S', 'S', 'S', 'C', 'C', 'C', 'C', 'C', 'C', 'C', 'C', 'C', 'C', 'C', 'C', 'C', 'C', 'C', 'C']","[250563, 251165, 251629, 252175, 252665, 253121, 253638, 254121, 254610, 255085, 255547, 256065, 256529, 256985, 257421, 257874, 258322, 258772, 259228, 259622, 260090, 260505, 260903]","[250726, 251272, 251777, 252338, 252817, 253298, 253782, 254264, 254742, 255186, 255664, 256175, 256602, 257094, 257523, 257989, 258411, 258882, 259341, 259762, 260217, 260619, 261026]","[250165, 250665, 251164, 251664, 252165, 252665, 253165, 253665, 254147, 254638, 255113, 255575, 256093, 256557, 257012, 257447, 257901, 258349, 258800, 259256, 259650, 260118, 260533, 260931]",14,R,ITM,1.1,
6,500,practice,0,4,4,4,practice,"['S', 'S', 'S', 'S', 'S', 'S', 'C', 'C', 'C', 'C', 'C', 'C', 'C', 'C', 'C', 'C', 'C', 'C', 'C', 'C', 'C', 'C', 'C']","[267249, 267703, 268207, 268684, 269224, 269687, 270164, 270616, 271132, 271603, 272096, 272547, 272989, 273412, 273518, 273988, 274502, 274992, 275486, 275939, 276376, 276826, 277321]","[267423, 267952, 268427, 268975, 269449, 269974, 270397, 270903, 271316, 271756, 272208, 272683, 273112, 273438, 273538, 274129, 274614, 275101, 275603, 276061, 276501, 276971, 277435]","[266269, 266769, 267270, 267769, 268269, 268769, 269270, 269769, 270191, 270643, 271160, 271630, 272122, 272575, 273016, 273438, 274015, 274530, 275019, 275513, 275965, 276404, 276853, 277349]",14,R,ITM,1.1,
7,500,practice,0,5,5,5,practice,"['B', 'S', 'S', 'S', 'S', 'S', 'S', 'S', 'C', 'C', 'C', 'C', 'C', 'C', 'C', 'C', 'C', 'C', 'C', 'C', 'C', 'C', 'C', 'C']","[282786, 283215, 283718, 284236, 284750, 285221, 285736, 286245, 286729, 287385, 287839, 288364, 288869, 289346, 289810, 290284, 290707, 291156, 291627, 292134, 292586, 293055, 293560, 294044]","[282882, 283418, 283938, 284485, 284987, 285392, 285859, 286332, 286840, 287501, 287976, 288500, 288993, 289468, 289972, 290392, 290832, 291297, 291752, 292267, 292764, 293178, 293685, 294192]","[282800, 283298, 283798, 284298, 284798, 285298, 285798, 286299, 286756, 287413, 287865, 288391, 288897, 289374, 289837, 290312, 290734, 291183, 291653, 292161, 292613, 293082, 293586, 294071]",14,R,ITM,1.1,
7,600,trial,0,6,6,6,trial,"['S', 'S', 'S', 'S', 'S', 'S', 'C', 'C', 'C', 'C', 'C', 'C', 'C', 'C', 'C', 'C', 'C', 'C', 'C', 'C', 'C', 'C']","[361444, 362117, 362756, 363352, 363881, 364457, 365027, 365594, 366118, 366714, 367246, 367779, 368290, 368800, 369281, 369840, 370358, 370890, 371423, 371920, 372498, 372996]","[361735, 362451, 363024, 363588, 364173, 364729, 365277, 365861, 366443, 366926, 367501, 368005, 368536, 369055, 369613, 370107, 370632, 371131, 371614, 372111, 372685, 373209]","[360279, 360878, 361478, 362078, 362678, 363278, 363878, 364478, 365054, 365622, 366145, 366741, 367273, 367806, 368317, 368828, 369308, 369867, 370385, 370917, 371450, 371947, 372525, 373022]",14,R,ITM,1.1,
5,600,trial,0,7,7,7,trial,"['S', 'S', 'S', 'S', 'S', 'S', 'C', 'C', 'C', 'C', 'C', 'C', 'C', 'C', 'C', 'C', 'C', 'C', 'C', 'C', 'C', 'C']","[379561, 380132, 380761, 381356, 381906, 382459, 383013, 383461, 384038, 384557, 385140, 385691, 386238, 386749, 387206, 387774, 388258, 388845, 389336, 389806, 390444, 390980]","[379826, 380449, 381056, 381622, 382119, 382685, 383199, 383722, 384234, 384828, 385350, 385824, 386342, 386811, 387295, 387816, 388328, 388872, 389414, 389891, 390555, 391075]","[378486, 379085, 379685, 380285, 380886, 381486, 382086, 382685, 383039, 383486, 384064, 384582, 385166, 385717, 386264, 386775, 387232, 387800, 388285, 388872, 389362, 389831, 390469, 391007]",14,R,ITM,1.1,
5,400,trial,0,8,8,8,trial,"['S', 'S', 'S', 'S', 'S', 'S', 'C', 'C', 'C', 'C', 'C', 'C', 'C', 'C', 'C', 'C', 'C', 'C', 'C', 'C', 'C', 'C']","[397233, 397573, 398007, 398402, 398795, 399179, 399600, 399979, 400356, 400752, 401117, 401467, 401844, 402201, 402576, 402916, 403277, 403642, 403985, 404347, 404725, 405087]","[397386, 397722, 398138, 398522, 398938, 399322, 399704, 400079, 400464, 400840, 401209, 401550, 401930, 402282, 402660, 403018, 403396, 403732, 404071, 404423, 404798, 405159]","[396468, 396867, 397267, 397667, 398067, 398468, 398867, 399267, 399626, 400005, 400382, 400778, 401142, 401492, 401869, 402227, 402601, 402941, 403303, 403667, 404011, 404374, 404751, 405112]",14,R,ITM,1.1,
7,400,trial,0,9,9,9,trial,"['S', 'S', 'S', 'S', 'S', 'C', 'C', 'C', 'C', 'C', 'C', 'C', 'C', 'C', 'C', 'C', 'C', 'C', 'C', 'C', 'C']","[411831, 412201, 412614, 412977, 413385, 413807, 414123, 414483, 414877, 415257, 415673, 416035, 416415, 416778, 417133, 417470, 417805, 418153, 418492, 418848, 419165]","[411929, 412304, 412718, 413081, 413486, 413893, 414213, 414595, 414991, 415354, 415765, 416124, 416508, 416887, 417230, 417568, 417905, 418237, 418571, 418929, 419229]","[410681, 411081, 411482, 411881, 412281, 412681, 413081, 413481, 413834, 414150, 414511, 414904, 415285, 415699, 416062, 416442, 416804, 417160, 417498, 417832, 418180, 418519, 418876, 419192]",14,R,ITM,1.1,
5,600,trial,0,10,10,10,trial,"['S', 'S', 'S', 'S', 'S', 'S', 'C', 'C', 'C', 'C', 'C', 'C', 'C', 'C', 'C', 'C', 'C', 'C', 'C', 'C', 'C', 'C']","[425981, 426640, 427240, 427810, 428384, 428973, 429556, 430159, 430749, 431245, 431857, 432393, 432907, 433503, 434027, 434541, 435102, 435613, 436130, 436648, 437174, 437683]","[426322, 426971, 427549, 428116, 428719, 429320, 429841, 430428, 430987, 431521, 432057, 432540, 433123, 433686, 434297, 434787, 435350, 435849, 436417, 436875, 437444, 437901]","[424931, 425530, 426130, 426730, 427330, 427930, 428530, 429130, 429583, 430185, 430775, 431271, 431884, 432418, 432932, 433529, 434053, 434568, 435128, 435639, 436156, 436674, 437199, 437708]",14,R,ITM,1.1,
4,600,trial,0,11,11,11,trial,"['S', 'S', 'S', 'S', 'S', 'S', 'C', 'C', 'C', 'C', 'C', 'C', 'C', 'C', 'C', 'C', 'C', 'C', 'C', 'C', 'C', 'C']","[444168, 444783, 445399, 446015, 446601, 447170, 447766, 448338, 448930, 449502, 450060, 450616, 451181, 451717, 452270, 452822, 453352, 453873, 454347, 454949, 455461, 455965]","[444419, 445060, 445673, 446269, 446863, 447413, 447962, 448486, 449043, 449608, 450164, 450717, 451270, 451832, 452378, 452914, 453457, 453969, 454465, 455065, 455592, 456097]","[443089, 443689, 444290, 444890, 445490, 446090, 446690, 447290, 447792, 448364, 448956, 449528, 450085, 450642, 451207, 451743, 452295, 452847, 453378, 453899, 454373, 454975, 455487, 455992]",14,R,ITM,1.1,
4,400,trial,0,12,12,12,trial,"['S', 'S', 'S', 'S', 'S', 'S', 'C', 'C', 'C', 'C', 'C', 'C', 'C', 'C', 'C', 'C', 'C', 'C', 'C', 'C', 'C', 'C']","[462390, 462755, 463181, 463593, 463958, 464360, 464782, 465132, 465500, 465879, 466219, 466548, 466882, 467222, 467565, 467932, 468279, 468637, 468993, 469351, 469651, 470008]","[462528, 462859, 463250, 463690, 464048, 464436, 464873, 465220, 465624, 465975, 466308, 466637, 466969, 467311, 467635, 467993, 468341, 468717, 469054, 469405, 469731, 470079]","[461623, 462022, 462423, 462822, 463222, 463623, 464023, 464423, 464808, 465158, 465525, 465905, 466244, 466574, 466908, 467248, 467591, 467957, 468304, 468664, 469018, 469377, 469677, 470035]",14,R,ITM,1.1,
3,400,trial,0,13,13,13,trial,"['S', 'S', 'S', 'S', 'S', 'S', 'C', 'C', 'C', 'C', 'C', 'C', 'C', 'C', 'C', 'C', 'C', 'C', 'C', 'C', 'C', 'C']","[476308, 476688, 477090, 477462, 477874, 478261, 478657, 479024, 479392, 479763, 480113, 480480, 480812, 481174, 481514, 481869, 482237, 482586, 482934, 483278, 483651, 483977]","[476382, 476743, 477163, 477540, 477955, 478343, 478745, 479128, 479484, 479861, 480217, 480571, 480919, 481270, 481638, 481990, 482314, 482667, 483005, 483356, 483692, 484043]","[475553, 475954, 476354, 476754, 477154, 477554, 477955, 478354, 478683, 479049, 479418, 479789, 480139, 480505, 480837, 481200, 481540, 481895, 482263, 482612, 482960, 483304, 483677, 484002]",14,R,ITM,1.1,
4,600,trial,0,14,14,14,trial,"['S', 'S', 'S', 'S', 'S', 'S', 'S', 'C', 'C', 'C', 'C', 'C', 'C', 'C', 'C', 'C', 'C', 'C', 'C', 'C', 'C', 'C', 'C']","[489992, 490686, 491311, 491920, 492517, 493160, 493740, 494334, 494927, 495525, 496060, 496602, 497107, 497646, 498144, 498727, 499243, 499761, 500280, 500794, 501308, 501824, 502337]","[490095, 490927, 491559, 492178, 492815, 493411, 494026, 494573, 495119, 495721, 496284, 496826, 497332, 497858, 498410, 498924, 499448, 499952, 500432, 500977, 501489, 502013, 502556]","[489682, 490281, 490882, 491482, 492082, 492682, 493282, 493882, 494360, 494953, 495551, 496086, 496627, 497133, 497672, 498169, 498753, 499268, 499786, 500305, 500819, 501334, 501850, 502363]",14,R,ITM,1.1,
5,400,trial,0,15,15,15,trial,"['S', 'S', 'S', 'S', 'S', 'S', 'C', 'C', 'C', 'C', 'C', 'C', 'C', 'C', 'C', 'C', 'C', 'C', 'C', 'C', 'C', 'C']","[508848, 509197, 509582, 509980, 510373, 510760, 511143, 511465, 511802, 512167, 512496, 512835, 513154, 513476, 513836, 514130, 514488, 514820, 515139, 515465, 515802, 516125]","[508952, 509322, 509710, 510102, 510501, 510871, 511252, 511578, 511925, 512273, 512598, 512933, 513250, 513576, 513892, 514220, 514589, 514919, 515236, 515563, 515893, 516210]","[508070, 508469, 508869, 509270, 509669, 510069, 510470, 510869, 511169, 511491, 511827, 512193, 512522, 512861, 513179, 513503, 513861, 514156, 514514, 514845, 515165, 515490, 515827, 516151]",14,R,ITM,1.1,
7,600,trial,0,16,16,16,trial,"['S', 'S', 'S', 'S', 'S', 'S', 'S', 'S', 'C', 'C', 'C', 'C', 'C', 'C', 'C', 'C', 'C', 'C', 'C', 'C', 'C', 'C', 'C', 'C']","[521762, 522100, 522753, 523373, 523935, 524516, 525089, 525741, 526355, 526910, 527457, 527994, 528550, 529091, 529594, 530112, 530566, 531017, 531494, 532002, 532488, 532994, 533502, 534027]","[521957, 522403, 523058, 523631, 524206, 524769, 525301, 525946, 526571, 527102, 527652, 528192, 528705, 529221, 529724, 530223, 530682, 531164, 531691, 532193, 532653, 533136, 533619, 534107]","[521614, 522213, 522813, 523413, 524013, 524613, 525213, 525813, 526383, 526937, 527483, 528021, 528578, 529119, 529622, 530139, 530592, 531045, 531522, 532029, 532514, 533021, 533530, 534053]",14,R,ITM,1.1,
3,400,trial,0,17,17,17,trial,"['S', 'S', 'S', 'S', 'S', 'S', 'S', 'C', 'C', 'C', 'C', 'C', 'C', 'C', 'C', 'C', 'C', 'C', 'C', 'C', 'C', 'C', 'C']","[540007, 540355, 540733, 541154, 541522, 541913, 542312, 542699, 543048, 543349, 543681, 544000, 544294, 544614, 544899, 545214, 545521, 545829, 546139, 546410, 546739, 547031, 547320]","[540155, 540467, 540843, 541259, 541630, 542026, 542414, 542784, 543130, 543441, 543787, 544096, 544385, 544700, 544989, 545306, 545608, 545920, 546237, 546525, 546818, 547122, 547421]","[539609, 540007, 540407, 540807, 541207, 541607, 542007, 542407, 542725, 543074, 543375, 543707, 544025, 544320, 544640, 544924, 545241, 545547, 545855, 546164, 546436, 546764, 547056, 547346]",14,R,ITM,1.1,
2,400,trial,0,18,18,18,trial,"['S', 'S', 'S', 'S', 'S', 'S', 'S', 'S', 'C', 'C', 'C', 'C', 'C', 'C', 'C', 'C', 'C', 'C', 'C', 'C', 'C', 'C', 'C', 'C', 'C', 'C', 'C', 'C', 'C', 'C']","[556648, 557042, 557404, 557792, 558161, 558544, 558939, 559299, 559669, 560023, 560336, 560631, 560908, 561181, 561445, 561732, 562004, 562265, 562549, 562802, 563047, 563328, 563558, 563871, 564108, 564348, 564701, 565010, 565299, 565566]","[556759, 557134, 557493, 557876, 558269, 558647, 559021, 559389, 559763, 560104, 560420, 560702, 560973, 561258, 561520, 561818, 562076, 562330, 562627, 562885, 563125, 563407, 563643, 563951, 564182, 564439, 564792, 565080, 565373]","[556328, 556728, 557128, 557529, 557928, 558327, 558729, 559129, 559695, 560050, 560363, 560659, 560934, 561209, 561759, 562032, 562576, 563074, 563354, 563898, 564375, 564728, 565037, 565326]",14,R,ITM,1.1,
3,600,trial,0,19,19,19,trial,"['S', 'S', 'S', 'S', 'S', 'S', 'S', 'S', 'C', 'C', 'C', 'C', 'C', 'C', 'C', 'C', 'C', 'C', 'C', 'C', 'C', 'C', 'C', 'C']","[571169, 571442, 571936, 572594, 573234, 573863, 574452, 575022, 575598, 575994, 576363, 576709, 577084, 577422, 577775, 578127, 578424, 578750, 579100, 579392, 579737, 580050, 580373, 580690]","[571228, 571678, 572281, 572948, 573455, 574057, 574662, 575246, 575801, 576175, 576522, 576887, 577234, 577564, 577927, 578274, 578565, 578889, 579220, 579525, 579864, 580172, 580487, 580808]","[570981, 571580, 572180, 572780, 573380, 573980, 574580, 575180, 575624, 576020, 576389, 576735, 577110, 577447, 577801, 578153, 578450, 578776, 579126, 579418, 579763, 580076, 580399, 580716]",14,R,ITM,1.1,
6,400,trial,0,20,20,20,trial,"['S', 'S', 'S', 'S', 'S', 'S', 'S', 'C', 'C', 'C', 'C', 'C', 'C', 'C', 'C', 'C', 'C', 'C', 'C', 'C', 'C', 'C', 'C']","[586569, 586916, 587318, 587718, 588154, 588579, 588929, 589332, 589689, 590088, 590456, 590804, 591158, 591513, 591845, 592216, 592555, 592910, 593231, 593561, 593909, 594246, 594583]","[586725, 587069, 587451, 587868, 588294, 588694, 589057, 589430, 589804, 590188, 590556, 590914, 591261, 591611, 591940, 592302, 592650, 592986, 593300, 593635, 593991, 594332, 594673]","[586215, 586614, 587015, 587414, 587814, 588214, 588614, 589015, 589359, 589716, 590114, 590483, 590832, 591184, 591540, 591872, 592243, 592582, 592937, 593258, 593588, 593936, 594274, 594611]",14,R,ITM,1.1,
6,600,trial,0,21,21,21,trial,"['S', 'S', 'S', 'S', 'S', 'S', 'S', 'C', 'C', 'C', 'C', 'C', 'C', 'C', 'C', 'C', 'C', 'C', 'C', 'C', 'C', 'C', 'C']","[600476, 601250, 601888, 602468, 603069, 603631, 604177, 604749, 605410, 605944, 606507, 607046, 607536, 608020, 608482, 608890, 609487, 609966, 610437, 610904, 611380, 611813, 612273]","[600582, 601375, 602016, 602629, 603200, 603766, 604292, 604858, 605509, 606028, 606575, 607109, 607599, 608101, 608549, 608980, 609560, 610040, 610512, 610980, 611453, 611876, 612318]","[600217, 600816, 601416, 602016, 602616, 603216, 603816, 604417, 604776, 605437, 605971, 606534, 607074, 607562, 608047, 608508, 608918, 609515, 609992, 610463, 610930, 611406, 611840, 612300]",14,R,ITM,1.1,
4,400,trial,0,22,22,22,trial,"['S', 'S', 'S', 'S', 'S', 'S', 'S', 'S', 'C', 'C', 'C', 'C', 'C', 'C', 'C', 'C', 'C', 'C', 'C', 'C', 'C', 'C', 'C', 'C']","[618250, 618611, 618978, 619381, 619805, 620239, 620572, 620946, 621390, 621798, 622198, 622556, 622899, 623282, 623721, 624101, 624422, 624809, 625198, 625574, 625927, 626294, 626647, 627047]","[618327, 618670, 619018, 619431, 619840, 620277, 620626, 620972, 621416, 621824, 622224, 622612, 622952, 623336, 623747, 624142, 624464, 624835, 625223, 625600, 625977, 626345, 626690, 627073]","[617936, 618336, 618736, 619137, 619536, 619936, 620337, 620736, 621416, 621824, 622224, 622581, 622924, 623307, 623747, 624126, 624448, 624835, 625223, 625600, 625952, 626320, 626672, 627073]",14,R,ITM,1.1,
6,600,trial,0,23,23,23,trial,"['S', 'S', 'S', 'S', 'S', 'S', 'S', 'C', 'C', 'C', 'C', 'C', 'C', 'C', 'C', 'C', 'C', 'C', 'C', 'C', 'C', 'C', 'C']","[632891, 633658, 634278, 634881, 635461, 636080, 636681, 637291, 637921, 638465, 639080, 639612, 640144, 640619, 641069, 641513, 641988, 642486, 642958, 643427, 643863, 644304, 644725]","[632984, 633830, 634565, 635174, 635761, 636353, 636938, 637506, 638076, 638621, 639205, 639769, 640277, 640791, 641270, 641671, 642162, 642642, 643129, 643580, 644051, 644488, 644877]","[632704, 633303, 633903, 634503, 635102, 635702, 636302, 636902, 637319, 637947, 638491, 639107, 639639, 640172, 640647, 641095, 641540, 642015, 642512, 642984, 643453, 643890, 644331, 644752]",14,R,ITM,1.1,
2,600,trial,0,24,24,24,trial,"['S', 'S', 'S', 'S', 'S', 'S', 'S', 'C', 'C', 'C', 'C', 'C', 'C', 'C', 'C', 'C', 'C', 'C', 'C', 'C', 'C', 'C', 'C']","[650543, 651238, 651851, 652435, 653034, 653585, 654148, 654713, 655173, 655682, 656180, 656638, 657131, 657544, 657993, 658425, 658822, 659277, 659758, 660182, 660602, 661052, 661463]","[650637, 651299, 651899, 652487, 653054, 653605, 654170, 654740, 655200, 655710, 656206, 656666, 657158, 657571, 658021, 658453, 658848, 659305, 659784, 660209, 660630, 661079, 661490]","[650134, 650734, 651335, 651935, 652535, 653135, 653734, 654336, 654740, 655200, 655710, 656206, 656666, 657158, 657571, 658020, 658453, 658848, 659305, 659784, 660209, 660630, 661079, 661490]",14,R,ITM,1.1,
7,400,trial,0,25,25,25,trial,"['S', 'S', 'S', 'S', 'S', 'C', 'C', 'C', 'C', 'C', 'C', 'C', 'C', 'C', 'C', 'C', 'C', 'C', 'C', 'C', 'C']","[668166, 668558, 668935, 669341, 669752, 670156, 670552, 670962, 671345, 671729, 672124, 672522, 672911, 673312, 673711, 674106, 674508, 674883, 675294, 675663, 676052]","[668229, 668608, 669002, 669399, 669824, 670233, 670630, 671026, 671426, 671797, 672206, 672588, 672979, 673369, 673767, 674148, 674562, 674955, 675351, 675735, 676119]","[666978, 667377, 667778, 668177, 668577, 668978, 669377, 669777, 670183, 670578, 670989, 671372, 671756, 672151, 672548, 672937, 673340, 673737, 674132, 674535, 674910, 675320, 675691, 676078]",14,R,ITM,1.1,
2,400,trial,0,26,26,26,trial,"['S', 'S', 'S', 'S', 'S', 'S', 'C', 'C', 'C', 'C', 'C', 'C', 'C', 'C', 'C', 'C', 'C', 'C', 'C', 'C', 'C', 'C']","[682205, 682597, 683022, 683449, 683860, 684222, 684590, 684987, 685390, 685793, 686156, 686514, 686938, 687311, 687677, 688044, 688409, 688776, 689145, 689499, 689863, 690232]","[682279, 682671, 683123, 683522, 683920, 684290, 684666, 685084, 685461, 685863, 686238, 686598, 686997, 687363, 687737, 688117, 688462, 688839, 689204, 689576, 689934, 690313]","[681437, 681836, 682236, 682636, 683036, 683437, 683836, 684235, 684616, 685014, 685417, 685820, 686183, 686540, 686964, 687338, 687705, 688070, 688437, 688803, 689173, 689525, 689891, 690258]",14,R,ITM,1.1,
2,600,trial,0,27,27,27,trial,"['S', 'S', 'S', 'S', 'C', 'C', 'C', 'C', 'C', 'C', 'C', 'C', 'C', 'C', 'C', 'C', 'C', 'C', 'C', 'C']","[698310, 698909, 699475, 700032, 700607, 701164, 701706, 702228, 702736, 703204, 703661, 704099, 704548, 704990, 705426, 705846, 706267, 706695, 707133, 707551]","[698416, 699000, 699586, 700148, 700742, 701255, 701797, 702320, 702826, 703306, 703765, 704198, 704643, 705103, 705530, 705947, 706365, 706769, 707248, 707639]","[696015, 696615, 697216, 697816, 698416, 699015, 699615, 700215, 700635, 701192, 701733, 702256, 702763, 703230, 703687, 704126, 704576, 705016, 705454, 705872, 706294, 706722, 707161, 707578]",14,R,ITM,1.1,
6,400,trial,0,28,28,28,trial,"['B', 'S', 'S', 'S', 'S', 'S', 'S', 'S', 'C', 'C', 'C', 'C', 'C', 'C', 'C', 'C', 'C', 'C', 'C', 'C', 'C', 'C', 'C', 'C']","[712996, 713330, 713743, 714170, 714608, 714974, 715381, 715782, 716224, 716614, 717024, 717410, 717820, 718228, 718626, 719027, 719417, 719817, 720234, 720635, 721085, 721462, 721883, 722317]","[713128, 713434, 713818, 714251, 714712, 715061, 715456, 715870, 716338, 716707, 717110, 717543, 717923, 718327, 718748, 719129, 719511, 719893, 720286, 720688, 721157, 721533, 721947, 722382]","[713010, 713408, 713808, 714208, 714608, 715009, 715408, 715808, 716251, 716642, 717051, 717437, 717847, 718255, 718653, 719053, 719444, 719844, 720261, 720662, 721112, 721489, 721909, 722344]",14,R,ITM,1.1,
3,600,trial,0,29,29,29,trial,"['S', 'S', 'S', 'S', 'S', 'S', 'S', 'S', 'C', 'C', 'C', 'C', 'C', 'C', 'C', 'C', 'C', 'C', 'C', 'C', 'C', 'C', 'C', 'C']","[727861, 728217, 728850, 729454, 730073, 730685, 731280, 731855, 732389, 732972, 733573, 734103, 734614, 735118, 735610, 736102, 736593, 737090, 737566, 738036, 738491, 738974, 739420, 739902]","[727979, 728321, 728955, 729558, 730152, 730750, 731300, 731875, 732414, 733003, 733598, 734129, 734640, 735143, 735636, 736142, 736619, 737133, 737592, 738077, 738516, 739000, 739453, 739934]","[727833, 728432, 729032, 729632, 730232, 730832, 731432, 732033, 732414, 732997, 733598, 734129, 734640, 735143, 735636, 736128, 736619, 737116, 737592, 738062, 738516, 739000, 739445, 739928]",14,R,ITM,1.1,
5,400,trial,0,30,30,30,trial,"['S', 'S', 'S', 'S', 'S', 'S', 'S', 'C', 'C', 'C', 'C', 'C', 'C', 'C', 'C', 'C', 'C', 'C', 'C', 'C', 'C', 'C', 'C']","[747137, 747520, 747906, 748325, 748735, 749129, 749550, 749933, 750245, 750587, 750942, 751297, 751646, 751971, 752302, 752615, 752935, 753263, 753613, 753920, 754252, 754565, 754902]","[747272, 747633, 748009, 748423, 748833, 749222, 749634, 750022, 750336, 750681, 751017, 751386, 751723, 752056, 752363, 752679, 753006, 753350, 753688, 753993, 754323, 754631, 754974]","[746834, 747233, 747633, 748034, 748433, 748833, 749234, 749634, 749959, 750271, 750613, 750967, 751323, 751672, 751996, 752327, 752641, 752962, 753289, 753640, 753945, 754278, 754590, 754927]",14,R,ITM,1.1,
2,400,trial,0,31,31,31,trial,"['S', 'S', 'S', 'S', 'S', 'S', 'S', 'S', 'C', 'C', 'C', 'C', 'C', 'C', 'C', 'C', 'C', 'C', 'C', 'C', 'C', 'C', 'C', 'C']","[760598, 760963, 761366, 761785, 762192, 762603, 762987, 763371, 763831, 764191, 764561, 764936, 765273, 765661, 766009, 766387, 766731, 767104, 767462, 767825, 768154, 768518, 768874, 769218]","[760662, 761028, 761421, 761827, 762250, 762660, 763030, 763404, 763877, 764237, 764606, 764982, 765318, 765708, 766069, 766450, 766808, 767169, 767532, 767889, 768205, 768563, 768936, 769266]","[760338, 760737, 761139, 761538, 761938, 762338, 762738, 763138, 763857, 764219, 764589, 764962, 765300, 765687, 766035, 766414, 766758, 767131, 767489, 767852, 768182, 768545, 768901, 769245]",14,R,ITM,1.1,
5,600,trial,0,32,32,32,trial,"['S', 'S', 'S', 'S', 'S', 'S', 'S', 'C', 'C', 'C', 'C', 'C', 'C', 'C', 'C', 'C', 'C', 'C', 'C', 'C', 'C', 'C', 'C']","[774993, 775757, 776331, 776951, 777564, 778148, 778743, 779339, 779848, 780368, 780882, 781393, 781877, 782373, 782864, 783302, 783806, 784280, 784759, 785202, 785657, 786128, 786589]","[775063, 775824, 776522, 777153, 777746, 778375, 778974, 779540, 780012, 780569, 781066, 781578, 782043, 782565, 783021, 783504, 783982, 784474, 784931, 785380, 785832, 786286, 786757]","[774792, 775391, 775991, 776591, 777191, 777791, 778391, 778991, 779365, 779874, 780394, 780908, 781419, 781902, 782399, 782889, 783328, 783833, 784306, 784785, 785227, 785683, 786155, 786615]",14,R,ITM,1.1,
4,400,trial,0,33,33,33,trial,"['S', 'S', 'S', 'S', 'S', 'S', 'C', 'C', 'C', 'C', 'C', 'C', 'C', 'C', 'C', 'C', 'C', 'C', 'C', 'C', 'C', 'C']","[793088, 793451, 793869, 794247, 794626, 795012, 795397, 795749, 796143, 796508, 796890, 797254, 797602, 797968, 798347, 798691, 799041, 799408, 799720, 800065, 800391, 800771]","[793172, 793547, 793923, 794320, 794705, 795100, 795484, 795847, 796234, 796605, 796977, 797327, 797699, 798064, 798420, 798772, 799133, 799493, 799808, 800153, 800499, 800835]","[792288, 792687, 793088, 793487, 793887, 794288, 794687, 795087, 795422, 795774, 796169, 796534, 796915, 797280, 797628, 797993, 798373, 798716, 799067, 799434, 799746, 800091, 800416, 800797]",14,R,ITM,1.1,
3,600,trial,0,34,34,34,trial,"['S', 'S', 'S', 'S', 'S', 'C', 'C', 'C', 'C', 'C', 'C', 'C', 'C', 'C', 'C', 'C', 'C', 'C', 'C', 'C', 'C', 'C']","[808251, 808750, 809324, 809894, 810451, 811025, 811439, 811871, 812307, 812735, 813159, 813572, 813959, 814392, 814797, 815202, 815549, 815874, 816189, 816503, 816752, 817063]","[808355, 808903, 809489, 810063, 810595, 811152, 811593, 812003, 812436, 812866, 813285, 813699, 814094, 814496, 814911, 815304, 815629, 815960, 816274, 816578, 816842, 817160]","[806435, 807035, 807635, 808236, 808836, 809436, 810035, 810635, 811051, 811464, 811896, 812333, 812761, 813185, 813597, 813984, 814417, 814823, 815227, 815575, 815899, 816215, 816529, 817089]",14,R,ITM,1.1,
6,400,trial,0,35,35,35,trial,"['S', 'S', 'S', 'S', 'S', 'S', 'S', 'C', 'C', 'C', 'C', 'C', 'C', 'C', 'C', 'C', 'C', 'C', 'C', 'C', 'C', 'C', 'C', 'C']","[822607, 823051, 823442, 823855, 824250, 824659, 825070, 825468, 825779, 826080, 826365, 826644, 826936, 827194, 827487, 827809, 828109, 828402, 828692, 828986, 829281, 829563, 829887, 830164]","[822729, 823175, 823554, 823951, 824344, 824751, 825132, 825531, 825865, 826151, 826443, 826712, 826987, 827251, 827563, 827879, 828180, 828478, 828776, 829051, 829368, 829644, 829956, 830240]","[822392, 822792, 823192, 823592, 823992, 824392, 824793, 825192, 825495, 825806, 826107, 826392, 826672, 826963, 827513, 827836, 828136, 828430, 828719, 829014, 829307, 829591, 829914, 830191]",14,R,ITM,1.1,
3,600,trial,0,36,36,36,trial,"['S', 'S', 'S', 'S', 'S', 'S', 'S', 'C', 'C', 'C', 'C', 'C', 'C', 'C', 'C', 'C', 'C', 'C', 'C', 'C', 'C', 'C', 'C']","[836896, 837494, 838011, 838549, 839132, 839695, 840252, 840891, 841476, 842012, 842526, 843029, 843485, 843965, 844408, 844862, 845307, 845726, 846150, 846536, 846941, 847414, 847846]","[836994, 837571, 838109, 838637, 839234, 839829, 840393, 840993, 841545, 842089, 842607, 843114, 843609, 844066, 844551, 844977, 845415, 845822, 846233, 846613, 847033, 847529, 847954]","[835829, 836429, 837029, 837629, 838230, 838830, 839430, 840029, 840916, 841501, 842038, 842552, 843055, 843510, 843991, 844434, 844888, 845333, 845752, 846177, 846562, 846966, 847439, 847872]",14,R,ITM,1.1,
5,400,trial,0,37,37,37,trial,"['S', 'S', 'S', 'S', 'S', 'S', 'S', 'S', 'C', 'C', 'C', 'C', 'C', 'C', 'C', 'C', 'C', 'C', 'C', 'C', 'C', 'C', 'C', 'C']","[853585, 853975, 854396, 854812, 855229, 855609, 856014, 856395, 856863, 857246, 857648, 858036, 858413, 858779, 859149, 859551, 859945, 860339, 860723, 861097, 861465, 861837, 862191, 862558]","[853694, 854094, 854509, 854912, 855314, 855704, 856092, 856464, 856938, 857321, 857704, 858094, 858486, 858848, 859220, 859609, 860015, 860405, 860796, 861167, 861537, 861910, 862267, 862626]","[853359, 853758, 854158, 854558, 854959, 855358, 855758, 856158, 856890, 857272, 857673, 858062, 858438, 858805, 859175, 859577, 859971, 860364, 860748, 861122, 861491, 861862, 862217, 862583]",14,R,ITM,1.1,
6,600,trial,0,38,38,38,trial,"['S', 'S', 'S', 'S', 'S', 'S', 'S', 'S', 'C', 'C', 'C', 'C', 'C', 'C', 'C', 'C', 'C', 'C', 'C', 'C', 'C', 'C', 'C', 'C']","[868449, 869169, 869692, 870279, 870863, 871452, 872028, 872584, 873203, 873801, 874311, 874814, 875317, 875774, 876205, 876571, 876938, 877327, 877724, 878105, 878468, 878854, 879229, 879586]","[868575, 869352, 869943, 870531, 871088, 871620, 872192, 872750, 873361, 873946, 874459, 874951, 875430, 875896, 876316, 876673, 877053, 877431, 877835, 878220, 878568, 878968, 879324, 879674]","[868237, 868836, 869436, 870036, 870636, 871236, 871836, 872436, 873231, 873828, 874338, 874841, 875343, 875800, 876231, 876599, 876965, 877353, 877751, 878132, 878495, 878880, 879257, 879612]",14,R,ITM,1.1,
3,400,trial,0,39,39,39,trial,"['S', 'S', 'S', 'S', 'S', 'C', 'C', 'C', 'C', 'C', 'C', 'C', 'C', 'C', 'C', 'C', 'C', 'C', 'C', 'C', 'C']","[886453, 886866, 887248, 887674, 888087, 888443, 888814, 889224, 889602, 889959, 890338, 890706, 891104, 891453, 891820, 892193, 892532, 892918, 893276, 893633, 893975]","[886545, 886969, 887344, 887761, 888208, 888557, 888937, 889306, 889683, 890044, 890414, 890772, 891170, 891532, 891886, 892259, 892624, 893000, 893348, 893701, 894039]","[885312, 885712, 886112, 886512, 886913, 887312, 887712, 888113, 888469, 888840, 889249, 889627, 889985, 890363, 890732, 891129, 891479, 891845, 892219, 892558, 892944, 893301, 893659, 894001]",14,R,ITM,1.1,
6,400,trial,0,40,40,40,trial,"['S', 'S', 'S', 'S', 'S', 'S', 'S', 'S', 'C', 'C', 'C', 'C', 'C', 'C', 'C', 'C', 'C', 'C', 'C', 'C', 'C', 'C', 'C', 'C']","[899883, 900322, 900764, 901156, 901577, 901950, 902350, 902705, 903116, 903501, 903848, 904181, 904540, 904895, 905289, 905626, 905973, 906319, 906660, 906950, 907331, 907683, 908042, 908403]","[899969, 900430, 900819, 901202, 901657, 902065, 902424, 902792, 903197, 903579, 903931, 904249, 904614, 904973, 905362, 905715, 906047, 906403, 906737, 907037, 907388, 907758, 908069, 908460]","[899719, 900117, 900517, 900917, 901317, 901718, 902117, 902517, 903144, 903528, 903875, 904208, 904566, 904922, 905316, 905653, 906000, 906346, 906687, 906977, 907358, 907710, 908069, 908430]",14,R,ITM,1.1,
7,400,trial,0,41,41,41,trial,"['S', 'S', 'S', 'S', 'S', 'S', 'S', 'S', 'C', 'C', 'C', 'C', 'C', 'C', 'C', 'C', 'C', 'C', 'C', 'C', 'C', 'C', 'C', 'C']","[913948, 914317, 914688, 915106, 915436, 915767, 916103, 916458, 916855, 917184, 917555, 917866, 918204, 918557, 918909, 919236, 919567, 919925, 920273, 920630, 920946, 921285, 921625, 921918]","[914025, 914413, 914776, 915156, 915491, 915832, 916169, 916531, 916899, 917241, 917610, 917935, 918290, 918632, 918979, 919324, 919655, 920001, 920348, 920698, 921025, 921371, 921701, 922008]","[913743, 914142, 914542, 914942, 915342, 915742, 916143, 916542, 916882, 917211, 917581, 917893, 918231, 918585, 918936, 919264, 919595, 919952, 920300, 920656, 920973, 921312, 921652, 921946]",14,R,ITM,1.1,
4,600,trial,0,42,42,42,trial,"['S', 'S', 'S', 'S', 'S', 'S', 'S', 'S', 'C', 'C', 'C', 'C', 'C', 'C', 'C', 'C', 'C', 'C', 'C', 'C', 'C', 'C', 'C', 'C', 'C', 'C']","[931607, 932133, 932684, 933309, 933916, 934474, 935045, 935560, 936087, 936579, 937009, 937422, 937835, 938230, 938572, 938930, 939232, 939520, 939823, 940068, 940437, 940704, 941135, 941474, 941773, 942046]","[931721, 932294, 932869, 933467, 934039, 934588, 935152, 935670, 936180, 936656, 937102, 937523, 937937, 938307, 938673, 939016, 939315, 939612, 939911, 940183, 940555, 940848, 941270, 941577, 941870, 942138]","[931305, 931904, 932504, 933104, 933704, 934304, 934904, 935504, 936113, 936604, 937034, 937448, 937861, 938256, 938598, 938955, 939257, 939545, 939848, 940463, 941161, 941500, 941799, 942071]",14,R,ITM,1.1,
6,600,trial,0,43,43,43,trial,"['S', 'S', 'S', 'S', 'S', 'S', 'S', 'S', 'C', 'C', 'C', 'C', 'C', 'C', 'C', 'C', 'C', 'C', 'C', 'C', 'C', 'C', 'C', 'C', 'C', 'C', 'C', 'C', 'C']","[947659, 948252, 948827, 949410, 949949, 950486, 951005, 951617, 952148, 952652, 953111, 953512, 953906, 954234, 954596, 954929, 955269, 955544, 955892, 956134, 956396, 956711, 956948, 957209, 957473, 957704, 957957, 958180, 958401]","[947745, 948335, 948885, 949474, 950039, 950571, 951092, 951690, 952213, 952716, 953170, 953587, 953979, 954324, 954679, 955005, 955341, 955622, 955963, 956207, 956472, 956788, 957027, 957319, 957551, 957798, 958026, 958243]","[947373, 947973, 948573, 949172, 949772, 950372, 950972, 951572, 952175, 952679, 953138, 953540, 953932, 954262, 954622, 954955, 955296, 955572, 955919, 956423, 956738, 957236, 957730, 958208]",14,R,ITM,1.1,
7,600,trial,0,44,44,44,trial,"['S', 'S', 'S', 'S', 'S', 'S', 'S', 'C', 'C', 'C', 'C', 'C', 'C', 'C', 'C', 'C', 'C', 'C', 'C', 'C', 'C', 'C', 'C']","[964673, 965212, 965787, 966346, 966895, 967424, 967967, 968733, 969177, 969614, 970004, 970380, 970753, 971139, 971474, 971802, 972136, 972469, 972801, 973144, 973478, 973809, 974153]","[964814, 965387, 965971, 966528, 967025, 967542, 968108, 968857, 969316, 969720, 970108, 970499, 970867, 971248, 971600, 971925, 972247, 972568, 972898, 973235, 973542, 973919, 974240]","[963558, 964157, 964757, 965357, 965957, 966557, 967157, 967757, 968760, 969204, 969640, 970031, 970406, 970779, 971165, 971502, 971830, 972163, 972496, 972827, 973170, 973505, 973836, 974181]",14,R,ITM,1.1,
4,400,trial,0,45,45,45,trial,"['S', 'S', 'S', 'S', 'S', 'S', 'S', 'C', 'C', 'C', 'C', 'C', 'C', 'C', 'C', 'C', 'C', 'C', 'C', 'C', 'C', 'C', 'C']","[980102, 980573, 981013, 981459, 981876, 982265, 982692, 983051, 983370, 983730, 984123, 984470, 984821, 985186, 985531, 985870, 986189, 986523, 986875, 987248, 987572, 987927, 988267]","[980196, 980679, 981104, 981558, 981967, 982366, 982776, 983145, 983461, 983826, 984206, 984551, 984905, 985267, 985612, 985954, 986268, 986616, 986952, 987321, 987659, 988017, 988341]","[979935, 980335, 980736, 981135, 981535, 981936, 982335, 982735, 983076, 983396, 983755, 984148, 984496, 984847, 985211, 985556, 985895, 986215, 986549, 986901, 987274, 987598, 987953, 988293]",14,R,ITM,1.1,
7,400,trial,0,46,46,46,trial,"['S', 'S', 'S', 'S', 'S', 'S', 'S', 'C', 'C', 'C', 'C', 'C', 'C', 'C', 'C', 'C', 'C', 'C', 'C', 'C', 'C', 'C', 'C']","[993872, 994277, 994679, 995110, 995500, 995896, 996282, 996670, 997003, 997358, 997758, 998114, 998450, 998828, 999161, 999538, 999873, 1000249, 1000586, 1000950, 1001290, 1001631, 1001995]","[993933, 994370, 994758, 995181, 995576, 995985, 996364, 996742, 997085, 997438, 997818, 998169, 998523, 998886, 999214, 999589, 999924, 1000276, 1000644, 1000994, 1001351, 1001694, 1002047]","[993608, 994008, 994407, 994807, 995208, 995608, 996008, 996408, 996697, 997029, 997386, 997785, 998140, 998476, 998855, 999189, 999566, 999900, 1000275, 1000613, 1000978, 1001317, 1001658, 1002021]",14,R,ITM,1.1,
2,600,trial,0,47,47,47,trial,"['S', 'S', 'S', 'S', 'S', 'S', 'S', 'S', 'S', 'C', 'C', 'C', 'C', 'C', 'C', 'C', 'C', 'C', 'C', 'C', 'C', 'C', 'C', 'C', 'C']","[1008115, 1008499, 1008965, 1009441, 1009902, 1010395, 1010920, 1011443, 1011912, 1012455, 1012847, 1013284, 1013685, 1014064, 1014460, 1014846, 1015219, 1015582, 1015972, 1016359, 1016714, 1017090, 1017464, 1017833, 1018217]","[1008166, 1008589, 1009088, 1009537, 1009974, 1010477, 1011032, 1011531, 1012017, 1012539, 1012954, 1013367, 1013778, 1014150, 1014560, 1014938, 1015297, 1015655, 1016054, 1016431, 1016809, 1017189, 1017559, 1017916, 1018288]","[1007803, 1008402, 1009003, 1009603, 1010203, 1010803, 1011403, 1012003, 1012483, 1012874, 1013312, 1013712, 1014091, 1014487, 1014874, 1015246, 1015610, 1016000, 1016386, 1016741, 1017117, 1017492, 1017860, 1018244]",14,R,ITM,1.1,
5,600,trial,0,48,48,48,trial,"['S', 'S', 'S', 'S', 'S', 'S', 'C', 'C', 'C', 'C', 'C', 'C', 'C', 'C', 'C', 'C', 'C', 'C', 'C', 'C', 'C', 'C']","[1024874, 1025501, 1026087, 1026661, 1027259, 1027844, 1028355, 1028884, 1029367, 1029792, 1030241, 1030720, 1031155, 1031577, 1031983, 1032401, 1032802, 1033199, 1033618, 1034031, 1034450, 1034846]","[1025117, 1025726, 1026215, 1026786, 1027381, 1027932, 1028456, 1028946, 1029409, 1029818, 1030267, 1030746, 1031181, 1031603, 1032008, 1032428, 1032827, 1033225, 1033645, 1034073, 1034476, 1034887]","[1023800, 1024399, 1024999, 1025599, 1026199, 1026799, 1027399, 1027999, 1028380, 1028910, 1029393, 1029818, 1030267, 1030746, 1031181, 1031603, 1032008, 1032428, 1032827, 1033225, 1033644, 1034057, 1034476, 1034871]",14,R,ITM,1.1,
2,400,trial,0,49,49,49,trial,"['S', 'S', 'S', 'S', 'S', 'S', 'S', 'C', 'C', 'C', 'C', 'C', 'C', 'C', 'C', 'C', 'C', 'C', 'C', 'C', 'C', 'C', 'C']","[1040769, 1041240, 1041624, 1042004, 1042412, 1042784, 1043171, 1043564, 1043987, 1044407, 1044819, 1045198, 1045580, 1045950, 1046307, 1046679, 1047062, 1047387, 1047816, 1048217, 1048556, 1048902, 1049308]","[1040869, 1041304, 1041670, 1042041, 1042469, 1042832, 1043221, 1043617, 1044039, 1044470, 1044875, 1045252, 1045632, 1046020, 1046359, 1046730, 1047090, 1047449, 1047864, 1048269, 1048615, 1048949, 1049357]","[1040470, 1040868, 1041269, 1041669, 1042069, 1042469, 1042868, 1043268, 1043592, 1044015, 1044434, 1044846, 1045226, 1045608, 1045977, 1046335, 1046707, 1047090, 1047413, 1047843, 1048244, 1048584, 1048930, 1049335]",14,R,ITM,1.1,
7,600,trial,0,50,50,50,trial,"['S', 'S', 'S', 'S', 'S', 'S', 'S', 'S', 'C', 'C', 'C', 'C', 'C', 'C', 'C', 'C', 'C', 'C', 'C', 'C', 'C', 'C', 'C', 'C']","[1055272, 1055787, 1056355, 1056934, 1057449, 1058042, 1058587, 1059127, 1059606, 1060071, 1060476, 1060869, 1061231, 1061583, 1061916, 1062247, 1062598, 1062901, 1063227, 1063531, 1063809, 1064129, 1064418, 1064715]","[1055366, 1055878, 1056425, 1056998, 1057528, 1058114, 1058677, 1059183, 1059702, 1060133, 1060549, 1060956, 1061326, 1061671, 1061998, 1062322, 1062678, 1062966, 1063294, 1063584, 1063883, 1064200, 1064516, 1064824]","[1054948, 1055547, 1056147, 1056747, 1057347, 1057947, 1058547, 1059147, 1059634, 1060098, 1060504, 1060896, 1061258, 1061610, 1061943, 1062274, 1062625, 1062929, 1063255, 1063559, 1063835, 1064156, 1064444, 1064741]",14,R,ITM,1.1,
4,600,trial,0,51,51,51,trial,"['B', 'S', 'S', 'S', 'S', 'S', 'S', 'S', 'S', 'C', 'C', 'C', 'C', 'C', 'C', 'C', 'C', 'C', 'C', 'C', 'C', 'C', 'C', 'C', 'C']","[1070094, 1070503, 1071050, 1071610, 1072141, 1072695, 1073302, 1073908, 1074436, 1075046, 1075588, 1076006, 1076416, 1076807, 1077178, 1077548, 1077928, 1078279, 1078664, 1079021, 1079389, 1079726, 1080068, 1080430, 1080784]","[1070265, 1070765, 1071285, 1071768, 1072220, 1072787, 1073395, 1073971, 1074502, 1075072, 1075637, 1076032, 1076442, 1076842, 1077210, 1077585, 1077983, 1078351, 1078723, 1079090, 1079452, 1079800, 1080143, 1080512, 1080850]","[1070106, 1070705, 1071305, 1071905, 1072505, 1073105, 1073705, 1074306, 1075072, 1075613, 1076032, 1076442, 1076833, 1077203, 1077573, 1077954, 1078304, 1078689, 1079047, 1079414, 1079751, 1080093, 1080457, 1080810]",14,R,ITM,1.1,
2,600,trial,0,52,52,52,trial,"['S', 'S', 'S', 'S', 'S', 'S', 'S', 'S', 'C', 'C', 'C', 'C', 'C', 'C', 'C', 'C', 'C', 'C', 'C', 'C', 'C', 'C', 'C', 'C']","[1086681, 1087192, 1087789, 1088394, 1088973, 1089554, 1090149, 1090670, 1091195, 1091692, 1092121, 1092563, 1092986, 1093410, 1093789, 1094151, 1094490, 1094848, 1095173, 1095524, 1095845, 1096186, 1096488, 1096799]","[1086748, 1087243, 1087849, 1088461, 1089043, 1089619, 1090192, 1090727, 1091271, 1091773, 1092214, 1092617, 1093056, 1093447, 1093841, 1094222, 1094572, 1094903, 1095259, 1095578, 1095904, 1096214, 1096554, 1096848]","[1086356, 1086956, 1087556, 1088156, 1088755, 1089356, 1089955, 1090556, 1091223, 1091719, 1092149, 1092591, 1093014, 1093437, 1093816, 1094177, 1094516, 1094875, 1095199, 1095552, 1095873, 1096214, 1096516, 1096826]",14,R,ITM,1.1,
3,400,trial,0,53,53,53,trial,"['S', 'S', 'S', 'S', 'S', 'S', 'S', 'S', 'S', 'C', 'C', 'C', 'C', 'C', 'C', 'C', 'C', 'C', 'C', 'C', 'C', 'C', 'C', 'C', 'C', 'C', 'C', 'C', 'C', 'C', 'C', 'C', 'C', 'C', 'C']","[1102539, 1102851, 1103240, 1103636, 1103975, 1104366, 1104717, 1105100, 1105478, 1105947, 1106294, 1106601, 1106899, 1107184, 1107469, 1107733, 1107988, 1108290, 1108520, 1108732, 1108912, 1109070, 1109252, 1109433, 1109593, 1109760, 1109941, 1110108, 1110292, 1110483, 1110676, 1110863, 1111047, 1111224, 1111414]","[1102701, 1102976, 1103346, 1103715, 1104056, 1104437, 1104820, 1105183, 1105562, 1106027, 1106382, 1106684, 1106972, 1107258, 1107531, 1107805, 1108084, 1108361, 1108587, 1108790, 1108964, 1109132, 1109315, 1109491, 1109663, 1109833, 1110013, 1110193, 1110374, 1110573, 1110767, 1110948, 1111126, 1111301]","[1102473, 1102873, 1103273, 1103673, 1104073, 1104474, 1104873, 1105273, 1105973, 1106320, 1106627, 1106925, 1107210, 1107494, 1108014, 1108316, 1108758, 1109096, 1109458, 1109785, 1110133, 1110509, 1110889, 1111249]",14,R,ITM,1.1,
4,600,trial,0,54,54,54,trial,"['S', 'S', 'S', 'S', 'S', 'S', 'S', 'S', 'C', 'C', 'C', 'C', 'C', 'C', 'C', 'C', 'C', 'C', 'C', 'C', 'C', 'C', 'C', 'C']","[1118499, 1119063, 1119628, 1120208, 1120772, 1121326, 1121912, 1122439, 1123006, 1123550, 1124018, 1124470, 1124915, 1125355, 1125710, 1126078, 1126500, 1126930, 1127370, 1127795, 1128207, 1128603, 1129004, 1129392]","[1118623, 1119256, 1119825, 1120395, 1120921, 1121444, 1122012, 1122529, 1123099, 1123647, 1124132, 1124575, 1125000, 1125439, 1125805, 1126185, 1126574, 1127007, 1127429, 1127849, 1128271, 1128676, 1129084, 1129470]","[1118147, 1118746, 1119346, 1119946, 1120546, 1121146, 1121746, 1122347, 1123032, 1123575, 1124043, 1124496, 1124940, 1125381, 1125736, 1126104, 1126525, 1126956, 1127397, 1127822, 1128232, 1128629, 1129029, 1129417]",14,R,ITM,1.1,
5,600,trial,0,55,55,55,trial,"['S', 'S', 'S', 'S', 'S', 'S', 'S', 'S', 'C', 'C', 'C', 'C', 'C', 'C', 'C', 'C', 'C', 'C', 'C', 'C', 'C', 'C', 'C', 'C']","[1135304, 1135904, 1136479, 1137039, 1137723, 1138250, 1138789, 1139298, 1139857, 1140405, 1140932, 1141371, 1141831, 1142289, 1142726, 1143180, 1143591, 1144041, 1144466, 1144889, 1145300, 1145703, 1146131, 1146575]","[1135406, 1136037, 1136606, 1137142, 1137814, 1138362, 1138886, 1139392, 1139942, 1140460, 1140982, 1141435, 1141922, 1142365, 1142823, 1143261, 1143701, 1144151, 1144595, 1144914, 1145380, 1145778, 1146189, 1146642]","[1135048, 1135648, 1136248, 1136848, 1137448, 1138049, 1138649, 1139249, 1139883, 1140430, 1140958, 1141397, 1141857, 1142315, 1142753, 1143205, 1143617, 1144067, 1144492, 1144914, 1145326, 1145730, 1146157, 1146601]",14,R,ITM,1.1,
7,600,trial,0,56,56,56,trial,"['S', 'S', 'S', 'S', 'S', 'S', 'S', 'C', 'C', 'C', 'C', 'C', 'C', 'C', 'C', 'C', 'C', 'C', 'C', 'C', 'C', 'C', 'C']","[1152619, 1153184, 1153797, 1154409, 1154993, 1155767, 1156362, 1156942, 1157504, 1157921, 1158500, 1158956, 1159435, 1159896, 1160336, 1160791, 1161257, 1161690, 1162162, 1162592, 1163043, 1163516, 1164007]","[1152707, 1153247, 1153872, 1154482, 1155039, 1155787, 1156456, 1156969, 1157531, 1157949, 1158528, 1158982, 1159462, 1159944, 1160396, 1160837, 1161285, 1161716, 1162189, 1162619, 1163086, 1163570, 1164039]","[1152276, 1152875, 1153475, 1154075, 1154675, 1155275, 1155875, 1156475, 1156969, 1157531, 1157949, 1158528, 1158982, 1159462, 1159923, 1160363, 1160817, 1161285, 1161716, 1162188, 1162619, 1163070, 1163544, 1164035]",14,R,ITM,1.1,
7,400,trial,0,57,57,57,trial,"['S', 'S', 'S', 'S', 'S', 'S', 'C', 'C', 'C', 'C', 'C', 'C', 'C', 'C', 'C', 'C', 'C', 'C', 'C', 'C', 'C', 'C']","[1170271, 1170664, 1171044, 1171430, 1171868, 1172229, 1172614, 1172962, 1173348, 1173709, 1174055, 1174408, 1174732, 1175049, 1175356, 1175659, 1175963, 1176268, 1176562, 1176854, 1177145, 1177430]","[1170325, 1170724, 1171105, 1171495, 1171914, 1172288, 1172680, 1173043, 1173420, 1173781, 1174123, 1174470, 1174801, 1175113, 1175420, 1175718, 1175990, 1176307, 1176620, 1176901, 1177196, 1177492]","[1169525, 1169925, 1170324, 1170724, 1171124, 1171524, 1171924, 1172324, 1172641, 1172988, 1173374, 1173737, 1174083, 1174434, 1174759, 1175075, 1175383, 1175686, 1175990, 1176295, 1176590, 1176881, 1177171, 1177457]",14,R,ITM,1.1,
5,400,trial,0,58,58,58,trial,"['S', 'S', 'S', 'S', 'S', 'S', 'S', 'S', 'C', 'C', 'C', 'C', 'C', 'C', 'C', 'C', 'C', 'C', 'C', 'C', 'C', 'C', 'C', 'C']","[1183318, 1183650, 1184055, 1184445, 1184819, 1185167, 1185598, 1185989, 1186435, 1186840, 1187191, 1187523, 1187885, 1188233, 1188611, 1188958, 1189296, 1189622, 1189975, 1190315, 1190666, 1190974, 1191297, 1191600]","[1183381, 1183724, 1184115, 1184495, 1184888, 1185233, 1185668, 1186056, 1186498, 1186893, 1187241, 1187586, 1187923, 1188298, 1188677, 1189020, 1189360, 1189675, 1190042, 1190398, 1190725, 1191033, 1191366, 1191659]","[1182996, 1183395, 1183795, 1184195, 1184595, 1184995, 1185395, 1185796, 1186460, 1186866, 1187217, 1187549, 1187910, 1188258, 1188636, 1188983, 1189321, 1189648, 1190000, 1190340, 1190691, 1191001, 1191322, 1191625]",14,R,ITM,1.1,
6,400,trial,0,59,59,59,trial,"['S', 'S', 'S', 'S', 'S', 'S', 'S', 'S', 'C', 'C', 'C', 'C', 'C', 'C', 'C', 'C', 'C', 'C', 'C', 'C', 'C', 'C', 'C', 'C']","[1197306, 1197667, 1198043, 1198422, 1198817, 1199224, 1199644, 1200055, 1200417, 1200821, 1201254, 1201569, 1201990, 1202375, 1202798, 1203174, 1203554, 1203876, 1204220, 1204587, 1204924, 1205264, 1205629, 1205964]","[1197352, 1197719, 1198100, 1198476, 1198870, 1199283, 1199690, 1200075, 1200445, 1200870, 1201281, 1201625, 1202018, 1202403, 1202825, 1203202, 1203580, 1203904, 1204248, 1204614, 1204982, 1205337, 1205656, 1206021]","[1197020, 1197418, 1197818, 1198218, 1198618, 1199019, 1199418, 1199818, 1200445, 1200847, 1201281, 1201597, 1202018, 1202402, 1202825, 1203202, 1203580, 1203904, 1204248, 1204614, 1204951, 1205291, 1205656, 1205992]",14,R,ITM,1.1,
7,400,trial,0,60,60,60,trial,"['B', 'S', 'S', 'S', 'S', 'S', 'S', 'S', 'C', 'C', 'C', 'C', 'C', 'C', 'C', 'C', 'C', 'C', 'C', 'C', 'C', 'C', 'C', 'C']","[1211621, 1211893, 1212308, 1212718, 1213067, 1213496, 1213966, 1214365, 1214757, 1215120, 1215491, 1215858, 1216212, 1216598, 1216980, 1217342, 1217710, 1218053, 1218413, 1218790, 1219138, 1219482, 1219855, 1220235]","[1211641, 1211969, 1212371, 1212763, 1213126, 1213566, 1214020, 1214437, 1214817, 1215179, 1215536, 1215910, 1216258, 1216632, 1217029, 1217388, 1217737, 1218080, 1218445, 1218817, 1219166, 1219510, 1219881, 1220271]","[1211634, 1212034, 1212433, 1212833, 1213234, 1213633, 1214033, 1214433, 1214784, 1215148, 1215518, 1215885, 1216240, 1216624, 1217008, 1217370, 1217737, 1218080, 1218440, 1218817, 1219166, 1219510, 1219881, 1220262]",14,R,ITM,1.1,
2,400,trial,0,61,61,61,trial,"['S', 'S', 'S', 'S', 'S', 'C', 'C', 'C', 'C', 'C', 'C', 'C', 'C', 'C', 'C', 'C', 'C', 'C', 'C', 'C', 'C']","[1227078, 1227451, 1227845, 1228231, 1228637, 1229019, 1229394, 1229752, 1230117, 1230466, 1230815, 1231156, 1231500, 1231864, 1232208, 1232540, 1232851, 1233184, 1233509, 1233838, 1234178]","[1227115, 1227514, 1227914, 1228301, 1228712, 1229082, 1229441, 1229807, 1230173, 1230540, 1230877, 1231218, 1231540, 1231895, 1232236, 1232581, 1232891, 1233212, 1233537, 1233871, 1234205]","[1225887, 1226288, 1226688, 1227088, 1227488, 1227888, 1228289, 1228688, 1229045, 1229421, 1229779, 1230145, 1230493, 1230841, 1231182, 1231526, 1231891, 1232236, 1232568, 1232879, 1233212, 1233537, 1233865, 1234205]",14,R,ITM,1.1,
2,600,trial,0,62,62,62,trial,"['S', 'S', 'S', 'S', 'S', 'S', 'S', 'C', 'C', 'C', 'C', 'C', 'C', 'C', 'C', 'C', 'C', 'C', 'C', 'C', 'C', 'C', 'C']","[1240232, 1240908, 1241466, 1242141, 1242815, 1243388, 1243950, 1244505, 1245037, 1245564, 1246065, 1246597, 1247098, 1247593, 1248044, 1248513, 1248936, 1249376, 1249800, 1250238, 1250626, 1251060, 1251496]","[1240295, 1241058, 1241698, 1242268, 1242923, 1243488, 1244056, 1244592, 1245094, 1245660, 1246244, 1246764, 1247269, 1247768, 1248189, 1248658, 1249042, 1249505, 1249912, 1250364, 1250736, 1251196, 1251578]","[1239914, 1240514, 1241114, 1241714, 1242313, 1242914, 1243513, 1244114, 1244531, 1245065, 1245592, 1246092, 1246624, 1247125, 1247621, 1248071, 1248539, 1248963, 1249402, 1249827, 1250266, 1250653, 1251088, 1251523]",14,R,ITM,1.1,
2,400,trial,0,63,63,63,trial,"['S', 'S', 'S', 'S', 'S', 'S', 'C', 'C', 'C', 'C', 'C', 'C', 'C', 'C', 'C', 'C', 'C', 'C', 'C', 'C', 'C', 'C']","[1258135, 1258510, 1258869, 1259208, 1259595, 1259990, 1260339, 1260699, 1261070, 1261429, 1261769, 1262110, 1262455, 1262773, 1263106, 1263431, 1263777, 1264113, 1264455, 1264786, 1265139, 1265483]","[1258270, 1258576, 1258931, 1259272, 1259669, 1260057, 1260416, 1260762, 1261125, 1261492, 1261840, 1262179, 1262508, 1262821, 1263152, 1263492, 1263834, 1264157, 1264501, 1264852, 1265187, 1265541]","[1257256, 1257656, 1258055, 1258457, 1258856, 1259255, 1259657, 1260056, 1260365, 1260726, 1261096, 1261456, 1261797, 1262137, 1262482, 1262799, 1263132, 1263459, 1263804, 1264141, 1264483, 1264813, 1265167, 1265511]",14,R,ITM,1.1,
3,400,trial,0,64,64,64,trial,"['S', 'S', 'S', 'S', 'S', 'S', 'S', 'C', 'C', 'C', 'C', 'C', 'C', 'C', 'C', 'C', 'C', 'C', 'C', 'C', 'C', 'C', 'C']","[1271369, 1271835, 1272244, 1272664, 1273096, 1273492, 1273910, 1274292, 1274639, 1275022, 1275356, 1275700, 1276063, 1276402, 1276708, 1277057, 1277379, 1277709, 1278017, 1278325, 1278651, 1278982, 1279284]","[1271443, 1271891, 1272308, 1272766, 1273186, 1273586, 1273991, 1274361, 1274715, 1275084, 1275417, 1275761, 1276124, 1276471, 1276776, 1277115, 1277422, 1277749, 1278055, 1278383, 1278712, 1279028, 1279336]","[1271185, 1271585, 1271986, 1272386, 1272786, 1273186, 1273586, 1273987, 1274317, 1274664, 1275047, 1275381, 1275725, 1276089, 1276428, 1276734, 1277082, 1277405, 1277735, 1278043, 1278351, 1278676, 1279007, 1279309]",14,R,ITM,1.1,
6,600,trial,0,65,65,65,trial,"['B', 'S', 'S', 'S', 'S', 'S', 'S', 'S', 'S', 'C', 'C', 'C', 'C', 'C', 'C', 'C', 'C', 'C', 'C', 'C', 'C', 'C', 'C', 'C', 'C']","[1284743, 1285079, 1285487, 1286057, 1286555, 1287080, 1287657, 1288217, 1288781, 1289318, 1289852, 1290383, 1290864, 1291347, 1291810, 1292291, 1292751, 1293241, 1293700, 1294164, 1294642, 1295090, 1295560, 1296020, 1296485]","[1284788, 1285118, 1285508, 1286166, 1286603, 1287134, 1287714, 1288278, 1288838, 1289387, 1289908, 1290437, 1290921, 1291410, 1291879, 1292365, 1292827, 1293312, 1293771, 1294251, 1294707, 1295157, 1295621, 1296075, 1296533]","[1284756, 1285355, 1285955, 1286555, 1287155, 1287755, 1288355, 1288955, 1289346, 1289879, 1290409, 1290892, 1291374, 1291837, 1292318, 1292778, 1293267, 1293726, 1294192, 1294668, 1295117, 1295587, 1296048, 1296513]",14,R,ITM,1.1,
5,600,trial,0,66,66,66,trial,"['B', 'S', 'S', 'S', 'S', 'S', 'S', 'S', 'S', 'C', 'C', 'C', 'C', 'C', 'C', 'C', 'C', 'C', 'C', 'C', 'C', 'C', 'C', 'C', 'C']","[1302123, 1302479, 1303005, 1303533, 1304121, 1304717, 1305252, 1305827, 1306352, 1306916, 1307436, 1308315, 1309090, 1309472, 1309988, 1310437, 1310902, 1311324, 1311737, 1312187, 1312589, 1312977, 1313361, 1313735, 1314109]","[1302162, 1302564, 1303078, 1303606, 1304219, 1304779, 1305335, 1305891, 1306394, 1306943, 1307461, 1308353, 1309132, 1309518, 1310015, 1310462, 1310927, 1311349, 1311773, 1312212, 1312615, 1313003, 1313387, 1313761, 1314138]","[1302135, 1302734, 1303334, 1303934, 1304535, 1305135, 1305735, 1306335, 1306942, 1307461, 1308341, 1309116, 1309498, 1310015, 1310462, 1310927, 1311349, 1311763, 1312212, 1312615, 1313003, 1313387, 1313761, 1314135]",14,R,ITM,1.1,
3,400,trial,0,67,67,67,trial,"['S', 'S', 'S', 'S', 'S', 'S', 'S', 'C', 'C', 'C', 'C', 'C', 'C', 'C', 'C', 'C', 'C', 'C', 'C', 'C', 'C', 'C', 'C']","[1319954, 1320445, 1320927, 1321379, 1321827, 1322238, 1322612, 1323005, 1323364, 1323741, 1324106, 1324472, 1324794, 1325146, 1325528, 1325886, 1326260, 1326611, 1326944, 1327292, 1327646, 1327990, 1328377]","[1320127, 1320596, 1321088, 1321451, 1321900, 1322310, 1322667, 1323070, 1323427, 1323808, 1324168, 1324524, 1324854, 1325204, 1325579, 1325955, 1326295, 1326641, 1326991, 1327344, 1327686, 1328037, 1328458]","[1319900, 1320298, 1320698, 1321098, 1321498, 1321899, 1322298, 1322698, 1323031, 1323389, 1323766, 1324132, 1324497, 1324820, 1325171, 1325553, 1325912, 1326285, 1326637, 1326969, 1327318, 1327672, 1328016, 1328403]",14,R,ITM,1.1,
7,600,trial,0,68,68,68,trial,"['S', 'S', 'S', 'S', 'S', 'S', 'S', 'C', 'C', 'C', 'C', 'C', 'C', 'C', 'C', 'C', 'C', 'C', 'C', 'C', 'C', 'C', 'C']","[1333860, 1334653, 1335352, 1335947, 1336502, 1337138, 1337690, 1338251, 1338757, 1339223, 1339724, 1340208, 1340680, 1341159, 1341614, 1342049, 1342473, 1342918, 1343341, 1343782, 1344187, 1344615, 1345035]","[1333967, 1334767, 1335424, 1336065, 1336660, 1337236, 1337788, 1338339, 1338833, 1339292, 1339788, 1340278, 1340759, 1341228, 1341676, 1342105, 1342542, 1342973, 1343404, 1343840, 1344245, 1344683, 1345081]","[1333711, 1334311, 1334912, 1335512, 1336112, 1336712, 1337312, 1337912, 1338278, 1338783, 1339250, 1339751, 1340235, 1340707, 1341187, 1341640, 1342075, 1342500, 1342946, 1343369, 1343810, 1344215, 1344643, 1345061]",14,R,ITM,1.1,
4,600,trial,0,69,69,69,trial,"['S', 'S', 'S', 'S', 'S', 'S', 'S', 'S', 'C', 'C', 'C', 'C', 'C', 'C', 'C', 'C', 'C', 'C', 'C', 'C', 'C', 'C', 'C', 'C']","[1350738, 1351361, 1351975, 1352652, 1353178, 1353756, 1354333, 1354871, 1355431, 1355987, 1356431, 1356860, 1357215, 1357609, 1357949, 1358285, 1358603, 1358969, 1359360, 1359734, 1360080, 1360464, 1360795, 1361158]","[1350758, 1351430, 1352036, 1352672, 1353238, 1353776, 1354387, 1354931, 1355506, 1356069, 1356502, 1356922, 1357277, 1357634, 1358032, 1358355, 1358680, 1359035, 1359405, 1359801, 1360166, 1360520, 1360866, 1361216]","[1350462, 1351061, 1351661, 1352261, 1352861, 1353461, 1354061, 1354661, 1355457, 1356013, 1356457, 1356886, 1357241, 1357634, 1357975, 1358311, 1358628, 1358995, 1359385, 1359760, 1360106, 1360490, 1360822, 1361183]",14,R,ITM,1.1,
4,400,trial,0,70,70,70,trial,"['S', 'S', 'S', 'S', 'S', 'S', 'S', 'S', 'C', 'C', 'C', 'C', 'C', 'C', 'C', 'C', 'C', 'C', 'C', 'C', 'C', 'C', 'C', 'C']","[1366992, 1367481, 1367876, 1368267, 1368636, 1368957, 1369351, 1369773, 1370138, 1370505, 1370867, 1371293, 1371664, 1372001, 1372375, 1372769, 1373104, 1373440, 1373770, 1374457, 1374819, 1375163, 1375516, 1375881]","[1367086, 1367539, 1367923, 1368290, 1368682, 1368980, 1369371, 1369818, 1370189, 1370574, 1370921, 1371337, 1371711, 1372081, 1372450, 1372819, 1373157, 1373495, 1373809, 1374517, 1374870, 1375220, 1375569, 1375946]","[1366852, 1367251, 1367651, 1368051, 1368452, 1368851, 1369251, 1369651, 1370164, 1370530, 1370893, 1371319, 1371689, 1372026, 1372400, 1372794, 1373129, 1373465, 1373796, 1374483, 1374844, 1375188, 1375542, 1375907]",14,R,ITM,1.1,
4,400,trial,0,71,71,71,trial,"['S', 'S', 'S', 'S', 'S', 'S', 'S', 'S', 'C', 'C', 'C', 'C', 'C', 'C', 'C', 'C', 'C', 'C', 'C', 'C', 'C', 'C', 'C', 'C']","[1381924, 1382337, 1382723, 1383110, 1383508, 1383895, 1384289, 1384684, 1385122, 1385515, 1385922, 1386296, 1386663, 1387023, 1387386, 1387758, 1388116, 1388479, 1388820, 1389169, 1389524, 1389860, 1390203, 1390522]","[1382001, 1382396, 1382789, 1383173, 1383567, 1383954, 1384342, 1384750, 1385204, 1385588, 1385989, 1386404, 1386762, 1387130, 1387488, 1387838, 1388190, 1388560, 1388895, 1389240, 1389560, 1389920, 1390260, 1390562]","[1381664, 1382064, 1382463, 1382863, 1383263, 1383663, 1384064, 1384463, 1385148, 1385540, 1385948, 1386321, 1386689, 1387048, 1387412, 1387784, 1388142, 1388505, 1388846, 1389195, 1389550, 1389886, 1390229, 1390547]",14,R,ITM,1.1,
6,600,trial,0,72,72,72,trial,"['S', 'S', 'S', 'S', 'S', 'S', 'S', 'S', 'C', 'C', 'C', 'C', 'C', 'C', 'C', 'C', 'C', 'C', 'C', 'C', 'C', 'C', 'C', 'C']","[1396108, 1396603, 1397327, 1397916, 1398503, 1399076, 1399667, 1400235, 1400875, 1401477, 1401998, 1402467, 1402983, 1403466, 1403896, 1404381, 1404823, 1405338, 1405832, 1406270, 1406720, 1407173, 1407579, 1408162]","[1396173, 1396676, 1397426, 1398009, 1398606, 1399188, 1399767, 1400324, 1400991, 1401541, 1402068, 1402550, 1403058, 1403529, 1403991, 1404439, 1404886, 1405366, 1405888, 1406332, 1406747, 1407225, 1407605, 1408199]","[1395867, 1396466, 1397066, 1397666, 1398266, 1398866, 1399467, 1400067, 1400901, 1401503, 1402025, 1402493, 1403010, 1403493, 1403924, 1404407, 1404850, 1405366, 1405859, 1406297, 1406747, 1407201, 1407605, 1408189]",14,R,ITM,1.1,
6,400,trial,0,73,73,73,trial,"['B', 'S', 'S', 'S', 'S', 'S', 'S', 'S', 'C', 'C', 'C', 'C', 'C', 'C', 'C', 'C', 'C', 'C', 'C', 'C', 'C', 'C', 'C', 'C']","[1413519, 1413900, 1414333, 1414738, 1415101, 1415486, 1415889, 1416300, 1416681, 1417057, 1417419, 1417739, 1418092, 1418451, 1418817, 1419159, 1419544, 1419912, 1420255, 1420611, 1420976, 1421331, 1421661, 1422041]","[1413545, 1413994, 1414402, 1414798, 1415165, 1415544, 1415953, 1416341, 1416755, 1417132, 1417487, 1417785, 1418135, 1418491, 1418852, 1419196, 1419586, 1419943, 1420293, 1420662, 1421027, 1421402, 1421731, 1422077]","[1413532, 1413932, 1414331, 1414731, 1415132, 1415531, 1415931, 1416331, 1416708, 1417083, 1417446, 1417765, 1418119, 1418478, 1418845, 1419186, 1419571, 1419939, 1420281, 1420638, 1421002, 1421358, 1421687, 1422068]",14,R,ITM,1.1,
3,600,trial,0,74,74,74,trial,"['S', 'S', 'S', 'S', 'S', 'S', 'S', 'S', 'C', 'C', 'C', 'C', 'C', 'C', 'C', 'C', 'C', 'C', 'C', 'C', 'C', 'C', 'C', 'C']","[1427622, 1428275, 1428870, 1429410, 1429991, 1430604, 1431174, 1431655, 1432293, 1433028, 1433756, 1434255, 1434889, 1435544, 1436217, 1436869, 1437493, 1438015, 1438554, 1438985, 1439382, 1439811, 1440196, 1440558]","[1427688, 1428315, 1428912, 1429456, 1430033, 1430647, 1431219, 1431713, 1432318, 1433054, 1433782, 1434332, 1434914, 1435583, 1436242, 1436895, 1437536, 1438057, 1438579, 1439026, 1439408, 1439837, 1440222, 1440583]","[1427447, 1428046, 1428646, 1429246, 1429847, 1430447, 1431047, 1431647, 1432318, 1433054, 1433782, 1434280, 1434914, 1435570, 1436242, 1436895, 1437519, 1438041, 1438579, 1439010, 1439408, 1439837, 1440222, 1440583]",14,R,ITM,1.1,
3,600,trial,0,75,75,75,trial,"['B', 'S', 'S', 'S', 'S', 'S', 'S', 'S', 'S', 'C', 'C', 'C', 'C', 'C', 'C', 'C', 'C', 'C', 'C', 'C', 'C', 'C', 'C', 'C', 'C']","[1446208, 1446526, 1447138, 1447702, 1448262, 1448804, 1449360, 1449921, 1450445, 1450913, 1451329, 1451712, 1452084, 1452437, 1452819, 1453147, 1453483, 1453817, 1454130, 1454485, 1454821, 1455184, 1455520, 1455854, 1456218]","[1446248, 1446604, 1447207, 1447788, 1448352, 1448872, 1449433, 1449976, 1450498, 1450960, 1451389, 1451782, 1452151, 1452514, 1452888, 1453235, 1453561, 1453891, 1454215, 1454552, 1454900, 1455249, 1455593, 1455942, 1456319]","[1446220, 1446819, 1447419, 1448019, 1448620, 1449220, 1449820, 1450419, 1450939, 1451355, 1451738, 1452109, 1452463, 1452845, 1453172, 1453508, 1453843, 1454155, 1454511, 1454846, 1455210, 1455546, 1455880, 1456243]",14,R,ITM,1.1,
5,400,trial,0,76,76,76,trial,"['S', 'S', 'S', 'S', 'S', 'S', 'S', 'S', 'C', 'C', 'C', 'C', 'C', 'C', 'C', 'C', 'C', 'C', 'C', 'C', 'C', 'C', 'C', 'C']","[1461716, 1462117, 1462461, 1462808, 1463200, 1463569, 1463928, 1464330, 1464694, 1465008, 1465340, 1465734, 1466087, 1466440, 1466804, 1467159, 1467496, 1467811, 1468144, 1468475, 1468801, 1469100, 1469422, 1469716]","[1461801, 1462195, 1462536, 1462882, 1463270, 1463638, 1464008, 1464396, 1464761, 1465083, 1465425, 1465811, 1466158, 1466520, 1466870, 1467224, 1467570, 1467884, 1468208, 1468542, 1468864, 1469161, 1469484, 1469743]","[1461622, 1462022, 1462421, 1462821, 1463221, 1463621, 1464022, 1464421, 1464720, 1465034, 1465366, 1465759, 1466113, 1466466, 1466830, 1467185, 1467522, 1467837, 1468170, 1468500, 1468826, 1469125, 1469448, 1469743]",14,R,ITM,1.1,
2,600,trial,0,77,77,77,trial,"['S', 'S', 'S', 'S', 'S', 'S', 'S', 'S', 'S', 'S', 'C', 'C', 'C', 'C', 'C', 'C', 'C', 'C', 'C', 'C', 'C', 'C', 'C', 'C', 'C', 'C']","[1475504, 1475772, 1476217, 1476690, 1477197, 1477704, 1478200, 1478680, 1479124, 1479578, 1480071, 1480557, 1480971, 1481371, 1481743, 1482098, 1482451, 1482776, 1483109, 1483422, 1483742, 1484071, 1484369, 1484684, 1484990, 1485325]","[1475566, 1475857, 1476305, 1476761, 1477258, 1477782, 1478259, 1478727, 1479180, 1479627, 1480132, 1480629, 1481044, 1481432, 1481815, 1482174, 1482523, 1482851, 1483182, 1483502, 1483816, 1484141, 1484432, 1484749, 1485065, 1485391]","[1475287, 1475887, 1476487, 1477087, 1477686, 1478286, 1478887, 1479487, 1480098, 1480584, 1480997, 1481398, 1481771, 1482126, 1482478, 1482804, 1483137, 1483450, 1483768, 1484099, 1484396, 1484711, 1485017, 1485352]",14,R,ITM,1.1,
4,400,trial,0,78,78,78,trial,"['S', 'S', 'S', 'S', 'S', 'S', 'S', 'S', 'C', 'C', 'C', 'C', 'C', 'C', 'C', 'C', 'C', 'C', 'C', 'C', 'C', 'C', 'C', 'C']","[1491059, 1491422, 1491809, 1492189, 1492571, 1492930, 1493353, 1493742, 1494085, 1494498, 1494871, 1495208, 1495559, 1495894, 1496239, 1496568, 1496940, 1497264, 1497616, 1497953, 1498317, 1498986, 1499395, 1499772]","[1491101, 1491471, 1491858, 1492234, 1492629, 1492977, 1493412, 1493793, 1494132, 1494567, 1494939, 1495272, 1495600, 1495955, 1496293, 1496607, 1496983, 1497318, 1497677, 1498018, 1498379, 1499029, 1499439, 1499811]","[1490741, 1491140, 1491540, 1491940, 1492340, 1492741, 1493140, 1493540, 1494111, 1494523, 1494896, 1495235, 1495584, 1495919, 1496265, 1496594, 1496966, 1497289, 1497641, 1497978, 1498343, 1499012, 1499420, 1499798]",14,R,ITM,1.1,
6,400,trial,0,79,79,79,trial,"['S', 'S', 'S', 'S', 'S', 'S', 'S', 'S', 'S', 'C', 'C', 'C', 'C', 'C', 'C', 'C', 'C', 'C', 'C', 'C', 'C', 'C', 'C', 'C', 'C']","[1505683, 1506025, 1506379, 1506738, 1507087, 1507430, 1507802, 1508184, 1508562, 1508958, 1509360, 1509715, 1510043, 1510376, 1510692, 1510990, 1511322, 1511666, 1511996, 1512306, 1512652, 1512985, 1513370, 1513689, 1514006]","[1505754, 1506086, 1506441, 1506793, 1507141, 1507497, 1507881, 1508257, 1508642, 1509022, 1509428, 1509792, 1510120, 1510448, 1510770, 1511071, 1511392, 1511735, 1512062, 1512381, 1512731, 1513064, 1513433, 1513744, 1514070]","[1505574, 1505973, 1506373, 1506774, 1507173, 1507573, 1507974, 1508373, 1508984, 1509387, 1509742, 1510070, 1510403, 1510720, 1511017, 1511349, 1511693, 1512023, 1512334, 1512679, 1513012, 1513398, 1513716, 1514034]",14,R,ITM,1.1,
6,400,trial,0,80,80,80,trial,"['B', 'S', 'S', 'S', 'S', 'S', 'S', 'S', 'S', 'S', 'C', 'C', 'C', 'C', 'C', 'C', 'C', 'C', 'C', 'C', 'C', 'C', 'C', 'C', 'C', 'C']","[1519552, 1519787, 1520178, 1520557, 1520934, 1521269, 1521572, 1521861, 1522210, 1522593, 1522999, 1523405, 1523741, 1524076, 1524361, 1524689, 1525013, 1525341, 1525657, 1525971, 1526277, 1526615, 1526913, 1527238, 1527559, 1527859]","[1519572, 1519842, 1520239, 1520633, 1521006, 1521339, 1521643, 1521939, 1522273, 1522648, 1523070, 1523468, 1523822, 1524170, 1524466, 1524775, 1525091, 1525412, 1525738, 1526049, 1526352, 1526680, 1526975, 1527299, 1527617, 1527924]","[1519565, 1519965, 1520364, 1520764, 1521164, 1521564, 1521965, 1522364, 1523025, 1523432, 1523768, 1524104, 1524387, 1524717, 1525040, 1525368, 1525684, 1525999, 1526304, 1526641, 1526939, 1527265, 1527585, 1527885]",14,R,ITM,1.1,
3,400,trial,0,81,81,81,trial,"['S', 'S', 'S', 'S', 'S', 'S', 'S', 'S', 'C', 'C', 'C', 'C', 'C', 'C', 'C', 'C', 'C', 'C', 'C', 'C', 'C', 'C', 'C', 'C', 'C', 'C', 'C', 'C', 'C', 'C', 'C']","[1533771, 1534115, 1534469, 1534867, 1535226, 1535642, 1535982, 1536401, 1536776, 1537196, 1537527, 1537842, 1538147, 1538447, 1538751, 1539039, 1539331, 1539594, 1539896, 1540216, 1540476, 1540773, 1541038, 1541313, 1541573, 1541830, 1542095, 1542321, 1542536, 1542770, 1542962]","[1533856, 1534179, 1534547, 1534913, 1535295, 1535700, 1536040, 1536457, 1536834, 1537221, 1537553, 1537867, 1538172, 1538493, 1538794, 1539100, 1539381, 1539631, 1539942, 1540252, 1540531, 1540813, 1541085, 1541366, 1541626, 1541902, 1542164, 1542384, 1542608, 1542834, 1543021]","[1533411, 1533811, 1534212, 1534611, 1535011, 1535411, 1535811, 1536211, 1536801, 1537221, 1537553, 1537867, 1538172, 1538472, 1538777, 1539064, 1539356, 1539921, 1540242, 1540799, 1541339, 1541856, 1542346, 1542796]",14,R,ITM,1.1,
3,600,trial,0,82,82,82,trial,"['S', 'S', 'S', 'S', 'S', 'S', 'S', 'S', 'S', 'C', 'C', 'C', 'C', 'C', 'C', 'C', 'C', 'C', 'C', 'C', 'C', 'C', 'C', 'C', 'C']","[1548595, 1549121, 1549659, 1550225, 1550703, 1551157, 1551638, 1552138, 1552629, 1553124, 1553604, 1554039, 1554482, 1554905, 1555273, 1555595, 1555972, 1556311, 1556676, 1557032, 1557413, 1557771, 1558127, 1558488, 1558858]","[1548732, 1549248, 1549758, 1550298, 1550773, 1551211, 1551684, 1552164, 1552678, 1553149, 1553630, 1554092, 1554507, 1554930, 1555299, 1555622, 1555998, 1556364, 1556723, 1557106, 1557463, 1557823, 1558183, 1558534, 1558920]","[1548347, 1548946, 1549546, 1550146, 1550746, 1551346, 1551946, 1552546, 1553149, 1553630, 1554065, 1554507, 1554930, 1555299, 1555620, 1555997, 1556336, 1556702, 1557058, 1557439, 1557796, 1558153, 1558513, 1558884]",14,R,ITM,1.1,
5,400,trial,0,83,83,83,trial,"['S', 'S', 'S', 'S', 'S', 'S', 'S', 'C', 'C', 'C', 'C', 'C', 'C', 'C', 'C', 'C', 'C', 'C', 'C', 'C', 'C', 'C', 'C']","[1564986, 1565403, 1565809, 1566204, 1566606, 1567005, 1567388, 1567783, 1568160, 1568541, 1568917, 1569238, 1569606, 1570017, 1570344, 1570711, 1571053, 1571417, 1571737, 1572086, 1572405, 1572746, 1573068]","[1565148, 1565558, 1565917, 1566358, 1566743, 1567136, 1567524, 1567898, 1568246, 1568594, 1568976, 1569314, 1569681, 1570071, 1570418, 1570783, 1571118, 1571485, 1571811, 1572153, 1572482, 1572802, 1573141]","[1564653, 1565052, 1565452, 1565852, 1566253, 1566652, 1567052, 1567453, 1567809, 1568186, 1568567, 1568943, 1569263, 1569632, 1570043, 1570370, 1570738, 1571079, 1571443, 1571764, 1572112, 1572430, 1572771, 1573094]",14,R,ITM,1.1,
2,600,trial,0,84,84,84,trial,"['S', 'S', 'S', 'S', 'S', 'S', 'S', 'S', 'S', 'C', 'C', 'C', 'C', 'C', 'C', 'C', 'C', 'C', 'C', 'C', 'C', 'C', 'C', 'C', 'C', 'C', 'C', 'C', 'C', 'C']","[1579059, 1579586, 1580106, 1580601, 1581072, 1581516, 1581990, 1582382, 1582843, 1583356, 1583700, 1584082, 1584482, 1584800, 1585145, 1585440, 1585739, 1586077, 1586365, 1586653, 1586928, 1587190, 1587500, 1587766, 1588017, 1588271, 1588483, 1588705, 1588911, 1589122]","[1579148, 1579670, 1580168, 1580668, 1581120, 1581568, 1582014, 1582452, 1582918, 1583419, 1583768, 1584162, 1584545, 1584888, 1585216, 1585509, 1585815, 1586155, 1586447, 1586744, 1587020, 1587275, 1587604, 1587863, 1588130, 1588353, 1588586, 1588808, 1589016]","[1578799, 1579399, 1579998, 1580599, 1581198, 1581799, 1582399, 1582999, 1583384, 1583726, 1584109, 1584509, 1584827, 1585173, 1585467, 1585767, 1586105, 1586392, 1586679, 1586955, 1587526, 1588044, 1588509, 1588937]",14,R,ITM,1.1,
5,400,trial,0,85,85,85,trial,"['S', 'S', 'S', 'S', 'S', 'S', 'S', 'S', 'S', 'S', 'S', 'S', 'C', 'C', 'C', 'C', 'C', 'C', 'C', 'C', 'C', 'C', 'C', 'C', 'C', 'C', 'C', 'C', 'C', 'C', 'C', 'C', 'C', 'C', 'C', 'C']","[1594780, 1595026, 1595344, 1595636, 1595920, 1596158, 1596409, 1596642, 1596912, 1597153, 1597392, 1597660, 1597902, 1598161, 1598391, 1598629, 1598856, 1599073, 1599304, 1599548, 1599763, 1599982, 1600198, 1600417, 1600642, 1600952, 1601191, 1601437, 1601768, 1602103, 1602444, 1602737, 1603033, 1603350, 1603687, 1603952]","[1594833, 1595072, 1595393, 1595697, 1595975, 1596241, 1596465, 1596734, 1596978, 1597225, 1597474, 1597723, 1597985, 1598236, 1598471, 1598710, 1598936, 1599163, 1599418, 1599627, 1599855, 1600078, 1600286, 1600498, 1600712, 1601022, 1601275, 1601527, 1601854, 1602177, 1602520, 1602810, 1603110, 1603431, 1603744]","[1594696, 1595096, 1595495, 1595895, 1596295, 1596695, 1597095, 1597495, 1597928, 1598416, 1598882, 1599331, 1599790, 1600225, 1600668, 1600977, 1601464, 1601794, 1602129, 1602469, 1602762, 1603058, 1603376, 1603714]",14,R,ITM,1.1,
5,600,trial,0,86,86,86,trial,"['B', 'S', 'S', 'S', 'S', 'S', 'S', 'S', 'S', 'S', 'S', 'S', 'S', 'S', 'C', 'C', 'C', 'C', 'C', 'C', 'C', 'C', 'C', 'C', 'C', 'C', 'C', 'C', 'C', 'C', 'C', 'C', 'C', 'C']","[1609467, 1609757, 1610194, 1610642, 1611048, 1611496, 1611817, 1612184, 1612502, 1612760, 1613005, 1613273, 1613526, 1613804, 1614076, 1614327, 1614576, 1614869, 1615135, 1615406, 1615709, 1616007, 1616287, 1616571, 1616854, 1617120, 1617427, 1617748, 1618023, 1618325, 1618579, 1618874, 1619166, 1619483]","[1609568, 1609848, 1610285, 1610707, 1611133, 1611564, 1611894, 1612251, 1612523, 1612847, 1613091, 1613360, 1613599, 1613878, 1614159, 1614409, 1614663, 1614956, 1615232, 1615516, 1615811, 1616083, 1616360, 1616633, 1616926, 1617188, 1617500, 1617804, 1618093, 1618388, 1618655, 1618962, 1619235, 1619552]","[1609480, 1610079, 1610679, 1611279, 1611879, 1612479, 1613079, 1613679, 1614103, 1614602, 1614895, 1615431, 1615734, 1616032, 1616313, 1616596, 1616879, 1617453, 1617773, 1618049, 1618351, 1618899, 1619191, 1619509]",14,R,ITM,1.1,
7,600,trial,0,87,87,87,trial,"['B', 'S', 'S', 'S', 'S', 'S', 'S', 'S', 'C', 'C', 'C', 'C', 'C', 'C', 'C', 'C', 'C', 'C', 'C', 'C', 'C', 'C', 'C', 'C']","[1624906, 1625279, 1625885, 1626481, 1627091, 1627656, 1628211, 1628805, 1629476, 1629927, 1630424, 1630971, 1631460, 1631925, 1632351, 1632791, 1633201, 1633639, 1634056, 1634491, 1634921, 1635359, 1635779, 1636174]","[1624973, 1625374, 1625991, 1626584, 1627163, 1627742, 1628396, 1628955, 1629585, 1630052, 1630529, 1631033, 1631548, 1631982, 1632410, 1632831, 1633258, 1633719, 1634132, 1634575, 1634993, 1635423, 1635807, 1636201]","[1624920, 1625519, 1626119, 1626718, 1627318, 1627918, 1628518, 1629118, 1629503, 1629954, 1630450, 1630999, 1631486, 1631951, 1632377, 1632819, 1633227, 1633666, 1634083, 1634518, 1634948, 1635387, 1635807, 1636201]",14,R,ITM,1.1,
3,400,trial,0,88,88,88,trial,"['S', 'S', 'S', 'S', 'S', 'S', 'S', 'C', 'C', 'C', 'C', 'C', 'C', 'C', 'C', 'C', 'C', 'C', 'C', 'C', 'C', 'C', 'C']","[1641767, 1642188, 1642613, 1642992, 1643425, 1643853, 1644312, 1644720, 1645186, 1645586, 1645947, 1646365, 1646807, 1647198, 1647559, 1647932, 1648288, 1648680, 1649022, 1649404, 1649745, 1650099, 1650485]","[1641871, 1642274, 1642676, 1643045, 1643471, 1643925, 1644381, 1644784, 1645243, 1645647, 1646026, 1646450, 1646893, 1647253, 1647627, 1648000, 1648361, 1648756, 1649089, 1649475, 1649822, 1650202, 1650573]","[1641522, 1641922, 1642322, 1642722, 1643122, 1643523, 1643922, 1644322, 1644745, 1645211, 1645612, 1645973, 1646391, 1646832, 1647223, 1647585, 1647958, 1648314, 1648706, 1649047, 1649430, 1649771, 1650124, 1650510]",14,R,ITM,1.1,
4,600,trial,0,89,89,89,trial,"['S', 'S', 'S', 'S', 'S', 'S', 'S', 'S', 'S', 'S', 'S', 'C', 'C', 'C', 'C', 'C', 'C', 'C', 'C', 'C', 'C', 'C', 'C', 'C', 'C', 'C', 'C']","[1656435, 1656573, 1656675, 1656782, 1657284, 1657819, 1658323, 1658864, 1659455, 1660043, 1660540, 1661034, 1661572, 1662031, 1662406, 1662784, 1663153, 1663538, 1663920, 1664269, 1664616, 1664984, 1665338, 1665691, 1666038, 1666377, 1666735]","[1656455, 1656593, 1656695, 1656883, 1657407, 1658005, 1658537, 1659048, 1659592, 1660158, 1660623, 1661197, 1661680, 1662137, 1662523, 1662924, 1663247, 1663631, 1664025, 1664392, 1664743, 1665091, 1665446, 1665778, 1666120, 1666450, 1666810]","[1656262, 1656862, 1657462, 1658062, 1658662, 1659262, 1659863, 1660463, 1661060, 1661597, 1662057, 1662433, 1662810, 1663178, 1663563, 1663945, 1664294, 1664642, 1665009, 1665363, 1665717, 1666065, 1666403, 1666760]",14,R,ITM,1.1,
2,400,trial,0,90,90,90,trial,"['S', 'S', 'S', 'S', 'S', 'S', 'S', 'S', 'C', 'C', 'C', 'C', 'C', 'C', 'C', 'C', 'C', 'C', 'C', 'C', 'C', 'C', 'C', 'C']","[1672409, 1672889, 1673243, 1673456, 1673788, 1674121, 1674491, 1674847, 1675269, 1675608, 1675950, 1676306, 1676626, 1676942, 1677273, 1677593, 1677898, 1678221, 1678536, 1678851, 1679147, 1679446, 1679753, 1680053]","[1672479, 1672943, 1673298, 1673527, 1673866, 1674207, 1674566, 1674926, 1675352, 1675694, 1676041, 1676363, 1676695, 1677010, 1677368, 1677656, 1677965, 1678299, 1678615, 1678911, 1679217, 1679509, 1679824, 1680124]","[1672202, 1672601, 1673003, 1673402, 1673802, 1674202, 1674602, 1675001, 1675295, 1675634, 1675977, 1676334, 1676653, 1676969, 1677300, 1677620, 1677925, 1678247, 1678563, 1678877, 1679173, 1679473, 1679780, 1680080]",14,R,ITM,1.1,
4,400,trial,0,91,91,91,trial,"['S', 'S', 'S', 'S', 'S', 'S', 'S', 'S', 'S', 'C', 'C', 'C', 'C', 'C', 'C', 'C', 'C', 'C', 'C', 'C', 'C', 'C', 'C', 'C', 'C']","[1685913, 1686346, 1686705, 1687115, 1687516, 1687855, 1687955, 1688266, 1688605, 1688936, 1689289, 1689624, 1689982, 1690309, 1690622, 1690925, 1691234, 1691531, 1691839, 1692124, 1692425, 1692716, 1693009, 1693343, 1693626]","[1686009, 1686430, 1686796, 1687193, 1687600, 1687875, 1687975, 1688381, 1688683, 1689033, 1689368, 1689702, 1690065, 1690392, 1690698, 1691001, 1691312, 1691595, 1691918, 1692201, 1692488, 1692754, 1693083, 1693413, 1693710]","[1685730, 1686129, 1686530, 1686929, 1687329, 1687730, 1688130, 1688530, 1688962, 1689315, 1689650, 1690007, 1690335, 1690648, 1690950, 1691259, 1691556, 1691866, 1692150, 1692450, 1692741, 1693035, 1693369, 1693651]",14,R,ITM,1.1,
5,600,trial,0,92,92,92,trial,"['S', 'S', 'S', 'S', 'S', 'S', 'S', 'S', 'C', 'C', 'C', 'C', 'C', 'C', 'C', 'C', 'C', 'C', 'C', 'C', 'C', 'C', 'C', 'C']","[1699570, 1699919, 1700234, 1701286, 1701847, 1702418, 1702966, 1703505, 1704012, 1704520, 1704984, 1705412, 1705806, 1706175, 1706537, 1706917, 1707301, 1707680, 1708084, 1708520, 1708911, 1709300, 1709667, 1710063]","[1699644, 1699939, 1700498, 1701508, 1702044, 1702594, 1703094, 1703638, 1704138, 1704630, 1705068, 1705505, 1705908, 1706273, 1706628, 1706992, 1707409, 1707808, 1708207, 1708601, 1708984, 1709364, 1709735, 1710109]","[1699228, 1699827, 1700427, 1701027, 1701627, 1702227, 1702828, 1703428, 1704038, 1704547, 1705010, 1705438, 1705832, 1706201, 1706564, 1706943, 1707327, 1707706, 1708109, 1708546, 1708937, 1709327, 1709692, 1710090]",14,R,ITM,1.1,
4,600,trial,0,93,93,93,trial,"['S', 'S', 'S', 'S', 'S', 'S', 'C', 'C', 'C', 'C', 'C', 'C', 'C', 'C', 'C', 'C', 'C', 'C', 'C', 'C', 'C', 'C']","[1716440, 1717089, 1717673, 1718324, 1718932, 1719555, 1720120, 1720627, 1721102, 1721624, 1722101, 1722596, 1723048, 1723481, 1723928, 1724355, 1724798, 1725251, 1725667, 1726100, 1726512, 1726937]","[1716756, 1717253, 1717828, 1718469, 1719051, 1719669, 1720262, 1720725, 1721189, 1721707, 1722199, 1722672, 1723129, 1723506, 1724009, 1724451, 1724893, 1725338, 1725770, 1726182, 1726596, 1727017]","[1715602, 1716201, 1716801, 1717401, 1718001, 1718601, 1719201, 1719801, 1720145, 1720652, 1721127, 1721650, 1722127, 1722621, 1723075, 1723506, 1723955, 1724381, 1724825, 1725277, 1725692, 1726126, 1726537, 1726962]",14,R,ITM,1.1,
7,400,trial,0,94,94,94,trial,"['B', 'S', 'S', 'S', 'S', 'S', 'S', 'S', 'C', 'C', 'C', 'C', 'C', 'C', 'C', 'C', 'C', 'C', 'C', 'C', 'C', 'C', 'C', 'C']","[1732412, 1732762, 1733096, 1733527, 1733941, 1734367, 1734731, 1735150, 1735531, 1735948, 1736341, 1736724, 1737131, 1737511, 1737901, 1738287, 1738673, 1739060, 1739481, 1739882, 1740276, 1740663, 1741053, 1741464]","[1732432, 1732831, 1733195, 1733606, 1734064, 1734476, 1734827, 1735252, 1735626, 1736049, 1736422, 1736820, 1737213, 1737593, 1737963, 1738350, 1738731, 1739134, 1739574, 1739937, 1740368, 1740758, 1741154, 1741543]","[1732425, 1732825, 1733224, 1733624, 1734024, 1734424, 1734824, 1735224, 1735559, 1735975, 1736368, 1736752, 1737158, 1737539, 1737927, 1738313, 1738699, 1739087, 1739508, 1739910, 1740304, 1740690, 1741080, 1741492]",14,R,ITM,1.1,
3,600,trial,0,95,95,95,trial,"['S', 'S', 'S', 'S', 'S', 'S', 'S', 'C', 'C', 'C', 'C', 'C', 'C', 'C', 'C', 'C', 'C', 'C', 'C', 'C', 'C', 'C', 'C']","[1747957, 1748527, 1749090, 1749724, 1750274, 1750823, 1751389, 1752065, 1752673, 1753221, 1753702, 1754220, 1754716, 1755229, 1755726, 1756233, 1756735, 1757245, 1757731, 1758246, 1758733, 1759236, 1759706]","[1748152, 1748764, 1749293, 1749850, 1750435, 1750996, 1751563, 1752199, 1752804, 1753338, 1753870, 1754399, 1754905, 1755421, 1755904, 1756416, 1756917, 1757425, 1757936, 1758409, 1758934, 1759432, 1759890]","[1746964, 1747564, 1748164, 1748764, 1749364, 1749964, 1750564, 1751164, 1752090, 1752698, 1753246, 1753728, 1754246, 1754741, 1755254, 1755752, 1756259, 1756761, 1757271, 1757757, 1758272, 1758758, 1759261, 1759731]",14,R,ITM,1.1,
7,400,trial,0,96,96,96,trial,"['S', 'S', 'S', 'S', 'S', 'S', 'S', 'C', 'C', 'C', 'C', 'C', 'C', 'C', 'C', 'C', 'C', 'C', 'C', 'C', 'C', 'C', 'C']","[1765718, 1766080, 1766492, 1766920, 1767348, 1767751, 1768125, 1768528, 1768962, 1769358, 1769874, 1770269, 1770674, 1771067, 1771499, 1771905, 1772342, 1772727, 1773167, 1773557, 1773940, 1774360, 1774760]","[1765907, 1766290, 1766687, 1767105, 1767533, 1767912, 1768283, 1768709, 1769140, 1769530, 1770056, 1770411, 1770829, 1771203, 1771643, 1772067, 1772497, 1772924, 1773332, 1773719, 1774093, 1774481, 1774896]","[1765336, 1765734, 1766134, 1766535, 1766934, 1767334, 1767734, 1768134, 1768555, 1768988, 1769385, 1769901, 1770296, 1770700, 1771095, 1771527, 1771931, 1772368, 1772754, 1773194, 1773585, 1773967, 1774387, 1774787]",14,R,ITM,1.1,
6,600,trial,0,97,97,97,trial,"['S', 'S', 'S', 'S', 'S', 'S', 'S', 'C', 'C', 'C', 'C', 'C', 'C', 'C', 'C', 'C', 'C', 'C', 'C', 'C', 'C', 'C', 'C']","[1780343, 1781067, 1781683, 1782253, 1782807, 1783468, 1784071, 1784655, 1785197, 1785779, 1786302, 1786855, 1787410, 1787972, 1788463, 1788992, 1789485, 1790026, 1790904, 1791364, 1791836, 1792335, 1792788]","[1780532, 1781165, 1781780, 1782409, 1782938, 1783575, 1784186, 1784779, 1785297, 1785845, 1786376, 1786941, 1787513, 1788058, 1788573, 1789091, 1789607, 1790109, 1791023, 1791479, 1791944, 1792438, 1792885]","[1780104, 1780702, 1781302, 1781902, 1782502, 1783102, 1783702, 1784302, 1784683, 1785224, 1785806, 1786329, 1786882, 1787438, 1788000, 1788489, 1789020, 1789512, 1790053, 1790931, 1791391, 1791862, 1792363, 1792815]",14,R,ITM,1.1,
2,600,trial,0,98,98,98,trial,"['B', 'S', 'S', 'S', 'S', 'S', 'S', 'S', 'S', 'C', 'C', 'C', 'C', 'C', 'C', 'C', 'C', 'C', 'C', 'C', 'C', 'C', 'C', 'C', 'C']","[1798309, 1798692, 1799220, 1799808, 1800438, 1800955, 1801405, 1802088, 1802572, 1803117, 1803652, 1804122, 1804536, 1804980, 1805383, 1805771, 1806166, 1806523, 1806923, 1807280, 1807644, 1808019, 1808387, 1808761, 1809124]","[1798375, 1798837, 1799361, 1799954, 1800547, 1801083, 1801554, 1802185, 1802690, 1803229, 1803774, 1804252, 1804664, 1805085, 1805486, 1805857, 1806236, 1806610, 1807012, 1807380, 1807746, 1808125, 1808492, 1808858, 1809213]","[1798323, 1798922, 1799521, 1800122, 1800722, 1801322, 1801922, 1802521, 1803145, 1803678, 1804148, 1804564, 1805006, 1805411, 1805799, 1806192, 1806550, 1806951, 1807307, 1807672, 1808047, 1808414, 1808789, 1809152]",14,R,ITM,1.1,
6,600,trial,0,99,99,99,trial,"['S', 'S', 'S', 'S', 'S', 'S', 'S', 'S', 'C', 'C', 'C', 'C', 'C', 'C', 'C', 'C', 'C', 'C', 'C', 'C', 'C', 'C', 'C', 'C']","[1814600, 1814952, 1815580, 1816110, 1816688, 1817232, 1817815, 1818457, 1819046, 1819412, 1819807, 1820243, 1820640, 1821047, 1821519, 1821834, 1822171, 1822550, 1822931, 1823251, 1823612, 1823991, 1824356, 1824722]","[1814702, 1815070, 1815727, 1816297, 1816885, 1817419, 1817992, 1818606, 1819154, 1819565, 1819951, 1820344, 1820731, 1821148, 1821599, 1821955, 1822265, 1822656, 1823047, 1823344, 1823715, 1824084, 1824451, 1824820]","[1814564, 1815163, 1815763, 1816364, 1816964, 1817564, 1818163, 1818763, 1819074, 1819440, 1819834, 1820270, 1820667, 1821074, 1821546, 1821860, 1822197, 1822576, 1822958, 1823278, 1823640, 1824019, 1824384, 1824749]",14,R,ITM,1.1,
7,600,trial,0,100,100,100,trial,"['S', 'S', 'S', 'C', 'C', 'C', 'C', 'C', 'C', 'C', 'C', 'C', 'C', 'C', 'C', 'C', 'C', 'C', 'C']","[1833036, 1833686, 1834198, 1834849, 1835393, 1836565, 1837058, 1837845, 1838357, 1838811, 1839162, 1839670, 1840428, 1840838, 1841287, 1842250, 1842578, 1844231, 1844544]","[1833211, 1833843, 1834383, 1835037, 1835600, 1836761, 1837261, 1838063, 1838531, 1838959, 1839355, 1839820, 1840566, 1840984, 1841416, 1842320, 1842701, 1844348, 1844631]","[1830129, 1830728, 1831328, 1831928, 1832528, 1833128, 1833729, 1834329, 1834876, 1835419, 1836593, 1837085, 1837873, 1838384, 1838838, 1839188, 1839697, 1840455, 1840865, 1841314, 1842277, 1842605, 1844258, 1844571]",14,R,ITM,1.1,
2,400,trial,0,101,101,101,trial,"['S', 'S', 'S', 'C', 'C', 'C', 'C', 'C', 'C', 'C', 'C', 'C', 'C', 'C', 'C', 'C', 'C', 'C', 'C', 'C']","[1850734, 1851198, 1852827, 1853939, 1854276, 1854614, 1854930, 1855240, 1855548, 1855870, 1856132, 1856762, 1857110, 1857430, 1857721, 1858062, 1858385, 1858710, 1859045, 1859344]","[1850966, 1851446, 1853068, 1854061, 1854399, 1854730, 1855045, 1855349, 1855669, 1855992, 1856279, 1856935, 1857222, 1857554, 1857867, 1858198, 1858521, 1858849, 1859179, 1859505]","[1850136, 1850536, 1850935, 1851336, 1851737, 1852136, 1852536, 1852936, 1853967, 1854304, 1854642, 1854957, 1855267, 1855575, 1855898, 1856790, 1857137, 1857458, 1857748, 1858089, 1858413, 1858738, 1859072, 1859372]",14,R,ITM,1.1,
7,600,trial,0,102,102,102,trial,"['C', 'C', 'C', 'C', 'C', 'C', 'C', 'C', 'C', 'C', 'C', 'C', 'C', 'C', 'C', 'C', 'C', 'C', 'C', 'C', 'C', 'C', 'C']","[1871318, 1871666, 1872055, 1872441, 1872825, 1873188, 1873533, 1873875, 1874184, 1874452, 1874659, 1874854, 1875070, 1875273, 1875482, 1875681, 1875872, 1876057, 1876262, 1876454, 1876656, 1876854, 1877058]","[1871484, 1871839, 1872222, 1872578, 1872962, 1873309, 1873651, 1873994, 1874290, 1874547, 1874742, 1874965, 1875167, 1875389, 1875588, 1875787, 1875976, 1876156, 1876358, 1876556, 1876743, 1876944]","[1864905, 1865504, 1866104, 1866704, 1867304, 1867905, 1868505, 1869105, 1871344, 1871692, 1872081, 1872467, 1872851, 1873215, 1873561, 1873902, 1874211, 1874479, 1874881, 1875300, 1875708, 1876083, 1876482, 1876882]",14,R,ITM,1.1,
2,600,trial,0,103,103,103,trial,"['S', 'S', 'S', 'S', 'C', 'C', 'C', 'C', 'C', 'C', 'C', 'C', 'C', 'C', 'C', 'C', 'C', 'C', 'C', 'C']","[1884657, 1885425, 1886050, 1886602, 1887284, 1887700, 1888080, 1888464, 1888862, 1889239, 1889644, 1890064, 1890485, 1890868, 1891231, 1891571, 1891958, 1892320, 1892682, 1893064]","[1884847, 1885611, 1886212, 1886873, 1887435, 1887840, 1888218, 1888589, 1888966, 1889348, 1889726, 1890128, 1890539, 1890953, 1891338, 1891692, 1892069, 1892418, 1892788, 1893139]","[1882625, 1883225, 1883825, 1884425, 1885025, 1885625, 1886225, 1886825, 1887311, 1887728, 1888107, 1888492, 1888888, 1889266, 1889672, 1890092, 1890512, 1890895, 1891258, 1891599, 1891986, 1892347, 1892710, 1893091]",14,R,ITM,1.1,
5,400,trial,0,104,104,104,trial,"['S', 'S', 'S', 'S', 'S', 'S', 'S', 'S', 'C', 'C', 'C', 'C', 'C', 'C', 'C', 'C', 'C', 'C', 'C', 'C', 'C', 'C', 'C', 'C']","[1898833, 1899279, 1899674, 1900047, 1900431, 1900836, 1901237, 1901616, 1902051, 1902446, 1902812, 1903154, 1903501, 1903818, 1904143, 1904451, 1904762, 1905072, 1905367, 1905660, 1905954, 1906236, 1906506, 1906809]","[1898982, 1899379, 1899746, 1900174, 1900574, 1900988, 1901374, 1901729, 1902140, 1902537, 1902899, 1903229, 1903569, 1903893, 1904212, 1904527, 1904832, 1905155, 1905436, 1905714, 1906001, 1906290, 1906574, 1906855]","[1898575, 1898974, 1899374, 1899774, 1900174, 1900574, 1900975, 1901374, 1902076, 1902472, 1902837, 1903179, 1903526, 1903844, 1904168, 1904478, 1904788, 1905098, 1905392, 1905686, 1905980, 1906263, 1906532, 1906835]",14,R,ITM,1.1,
6,400,trial,0,105,105,105,trial,"['B', 'S', 'S', 'S', 'S', 'S', 'S', 'S', 'S', 'S', 'C', 'C', 'C', 'C', 'C', 'C', 'C', 'C', 'C', 'C', 'C', 'C', 'C', 'C', 'C', 'C', 'C', 'C', 'C', 'C']","[1912441, 1912708, 1913089, 1913396, 1913657, 1914027, 1914328, 1914652, 1915002, 1915256, 1915556, 1915797, 1916097, 1916364, 1916607, 1916833, 1917090, 1917371, 1917588, 1917947, 1918318, 1918690, 1919046, 1919406, 1919751, 1920103, 1920457, 1920792, 1921132, 1921487]","[1912478, 1912756, 1913149, 1913461, 1913710, 1914066, 1914377, 1914750, 1915087, 1915333, 1915658, 1915888, 1916209, 1916471, 1916704, 1916921, 1917129, 1917455, 1917678, 1918028, 1918404, 1918773, 1919129, 1919490, 1919834, 1920202, 1920534, 1920882, 1921227, 1921579]","[1912455, 1912853, 1913253, 1913653, 1914053, 1914454, 1914853, 1915253, 1915583, 1916125, 1916634, 1917117, 1917399, 1917974, 1918346, 1918716, 1919073, 1919433, 1919777, 1920130, 1920484, 1920819, 1921160, 1921514]",14,R,ITM,1.1,
5,600,trial,0,106,106,106,trial,"['S', 'S', 'S', 'S', 'S', 'S', 'S', 'S', 'S', 'S', 'C', 'C', 'C', 'C', 'C', 'C', 'C', 'C', 'C', 'C', 'C', 'C', 'C', 'C', 'C', 'C']","[1927074, 1927415, 1927889, 1928395, 1928916, 1929444, 1929896, 1930371, 1930885, 1931352, 1931804, 1932209, 1932534, 1932933, 1933304, 1933689, 1934044, 1934370, 1934702, 1935063, 1935392, 1935725, 1936082, 1936389, 1936738, 1937088]","[1927162, 1927530, 1927972, 1928457, 1928987, 1929488, 1929949, 1930439, 1930938, 1931403, 1931876, 1932285, 1932634, 1933006, 1933368, 1933764, 1934111, 1934444, 1934781, 1935125, 1935471, 1935800, 1936151, 1936471, 1936799, 1937147]","[1926992, 1927591, 1928192, 1928792, 1929392, 1929991, 1930591, 1931191, 1931830, 1932234, 1932560, 1932959, 1933330, 1933715, 1934069, 1934397, 1934728, 1935088, 1935418, 1935752, 1936108, 1936414, 1936763, 1937114]",14,R,ITM,1.1,
5,400,trial,0,107,107,107,trial,"['B', 'S', 'S', 'S', 'S', 'S', 'S', 'S', 'S', 'C', 'C', 'C', 'C', 'C', 'C', 'C', 'C', 'C', 'C', 'C', 'C', 'C', 'C', 'C', 'C']","[1942428, 1942739, 1943122, 1943497, 1943892, 1944192, 1944629, 1945007, 1945434, 1945798, 1946176, 1946543, 1946893, 1947247, 1947586, 1947910, 1948229, 1948554, 1948866, 1949186, 1949534, 1949842, 1950179, 1950511, 1950882]","[1942539, 1942873, 1943230, 1943572, 1943912, 1944262, 1944693, 1945066, 1945507, 1945887, 1946260, 1946628, 1946984, 1947345, 1947664, 1947992, 1948308, 1948626, 1948951, 1949267, 1949597, 1949929, 1950264, 1950587, 1950977]","[1942439, 1942839, 1943239, 1943640, 1944039, 1944439, 1944839, 1945239, 1945824, 1946202, 1946568, 1946918, 1947273, 1947612, 1947935, 1948255, 1948579, 1948892, 1949211, 1949560, 1949869, 1950205, 1950536, 1950908]",14,R,ITM,1.1,
3,600,trial,0,108,108,108,trial,"['S', 'S', 'S', 'S', 'S', 'S', 'C', 'C', 'C', 'C', 'C', 'C', 'C', 'C', 'C', 'C', 'C', 'C', 'C', 'C', 'C', 'C']","[1956780, 1957483, 1958797, 1959425, 1959956, 1960499, 1961094, 1961577, 1962025, 1962424, 1962815, 1963223, 1963640, 1964026, 1964434, 1964820, 1965182, 1965545, 1965896, 1966230, 1966578, 1966906]","[1956887, 1957518, 1958975, 1959544, 1960093, 1960642, 1961213, 1961665, 1962087, 1962485, 1962891, 1963283, 1963694, 1964083, 1964478, 1964846, 1965208, 1965571, 1965922, 1966256, 1966604, 1966946]","[1956552, 1957152, 1957752, 1958352, 1958952, 1959553, 1960153, 1960753, 1961119, 1961603, 1962051, 1962449, 1962841, 1963249, 1963666, 1964052, 1964460, 1964846, 1965208, 1965571, 1965922, 1966256, 1966604, 1966931]",14,R,ITM,1.1,
4,600,trial,0,109,109,109,trial,"['S', 'S', 'S', 'S', 'S', 'S', 'S', 'S', 'C', 'C', 'C', 'C', 'C', 'C', 'C', 'C', 'C', 'C', 'C', 'C', 'C', 'C', 'C', 'C']","[1973138, 1973650, 1974251, 1974837, 1975415, 1975980, 1976526, 1977076, 1977633, 1978187, 1978713, 1979206, 1979685, 1980136, 1980598, 1981045, 1981513, 1981944, 1982414, 1982859, 1983307, 1983765, 1984231, 1984687]","[1973187, 1973713, 1974313, 1974890, 1975468, 1976041, 1976587, 1977131, 1977683, 1978236, 1978768, 1979265, 1979742, 1980193, 1980660, 1981105, 1981566, 1982011, 1982482, 1982925, 1983370, 1983827, 1984304, 1984795]","[1972710, 1973309, 1973909, 1974509, 1975109, 1975709, 1976309, 1976909, 1977659, 1978213, 1978738, 1979233, 1979711, 1980162, 1980623, 1981071, 1981539, 1981970, 1982440, 1982884, 1983334, 1983791, 1984257, 1984712]",14,R,ITM,1.1,
3,400,trial,0,110,110,110,trial,"['B', 'S', 'S', 'S', 'S', 'S', 'S', 'S', 'C', 'C', 'C', 'C', 'C', 'C', 'C', 'C', 'C', 'C', 'C', 'C', 'C', 'C', 'C', 'C']","[1990377, 1990695, 1991173, 1991598, 1991989, 1992388, 1992742, 1993129, 1993521, 1993878, 1994214, 1994527, 1994875, 1995196, 1995547, 1995865, 1996220, 1996568, 1996902, 1997233, 1997564, 1997905, 1998226, 1998557]","[1990406, 1990931, 1991331, 1991745, 1992113, 1992484, 1992853, 1993237, 1993630, 1993972, 1994288, 1994619, 1994972, 1995289, 1995616, 1995950, 1996309, 1996647, 1996989, 1997312, 1997637, 1997978, 1998295, 1998631]","[1990388, 1990789, 1991188, 1991588, 1991988, 1992388, 1992788, 1993188, 1993546, 1993904, 1994240, 1994553, 1994901, 1995222, 1995573, 1995890, 1996246, 1996594, 1996928, 1997258, 1997590, 1997931, 1998252, 1998582]",14,R,ITM,1.1,
2,400,trial,0,111,111,111,trial,"['S', 'S', 'S', 'S', 'S', 'S', 'S', 'S', 'C', 'C', 'C', 'C', 'C', 'C', 'C', 'C', 'C', 'C', 'C', 'C', 'C', 'C', 'C', 'C', 'C']","[2004397, 2004818, 2005211, 2005602, 2005988, 2006406, 2006796, 2007202, 2007549, 2007975, 2008290, 2008614, 2008897, 2009184, 2009459, 2009739, 2010036, 2010322, 2010595, 2010876, 2011166, 2011421, 2011719, 2012003, 2012286]","[2004484, 2004903, 2005304, 2005704, 2006094, 2006490, 2006868, 2007273, 2007660, 2008050, 2008387, 2008686, 2008976, 2009256, 2009536, 2009814, 2010097, 2010387, 2010661, 2010940, 2011222, 2011488, 2011797, 2012075, 2012350]","[2004200, 2004600, 2005001, 2005401, 2005800, 2006200, 2006601, 2007002, 2007576, 2008003, 2008317, 2008642, 2008924, 2009210, 2009487, 2009766, 2010063, 2010350, 2010621, 2010904, 2011194, 2011747, 2012030, 2012314]",14,R,ITM,1.1,
6,600,trial,0,112,112,112,trial,"['S', 'S', 'S', 'S', 'S', 'S', 'S', 'S', 'S', 'S', 'C', 'C', 'C', 'C', 'C', 'C', 'C', 'C', 'C', 'C', 'C', 'C', 'C', 'C', 'C', 'C', 'C', 'C']","[2018019, 2018288, 2018804, 2019356, 2019832, 2020306, 2020785, 2021225, 2021825, 2022362, 2023013, 2023460, 2023733, 2024043, 2024316, 2024609, 2024890, 2025166, 2025460, 2025722, 2026005, 2026286, 2026569, 2026832, 2027120, 2027412, 2027688, 2027959]","[2018101, 2018354, 2018891, 2019408, 2019871, 2020364, 2020856, 2021312, 2021898, 2022454, 2023088, 2023527, 2023819, 2024108, 2024382, 2024669, 2024931, 2025232, 2025508, 2025775, 2026075, 2026353, 2026633, 2026891, 2027203, 2027478, 2027738, 2028021]","[2018004, 2018604, 2019204, 2019804, 2020403, 2021003, 2021603, 2022203, 2023040, 2023488, 2023759, 2024071, 2024343, 2024636, 2024916, 2025194, 2025488, 2026032, 2026312, 2026597, 2027147, 2027439, 2027715, 2027986]",14,R,ITM,1.1,
7,600,trial,0,113,113,113,trial,"['S', 'S', 'S', 'S', 'S', 'S', 'S', 'C', 'C', 'C', 'C', 'C', 'C', 'C', 'C', 'C', 'C', 'C', 'C', 'C', 'C', 'C', 'C']","[2033782, 2034403, 2035062, 2035650, 2036215, 2036784, 2037357, 2038011, 2038423, 2038910, 2039363, 2039824, 2040258, 2040682, 2041089, 2041494, 2041899, 2042321, 2042730, 2043124, 2043539, 2043932, 2044324]","[2033898, 2034486, 2035165, 2035753, 2036327, 2036922, 2037493, 2038128, 2038579, 2038985, 2039437, 2039906, 2040345, 2040759, 2041163, 2041572, 2041989, 2042388, 2042806, 2043195, 2043584, 2043972, 2044352]","[2033499, 2034099, 2034699, 2035299, 2035899, 2036499, 2037099, 2037699, 2038038, 2038450, 2038938, 2039390, 2039852, 2040285, 2040709, 2041116, 2041522, 2041925, 2042348, 2042758, 2043151, 2043566, 2043960, 2044352]",14,R,ITM,1.1,
7,400,trial,0,114,114,114,trial,"['S', 'S', 'S', 'S', 'S', 'S', 'S', 'C', 'C', 'C', 'C', 'C', 'C', 'C', 'C', 'C', 'C', 'C', 'C', 'C', 'C', 'C', 'C']","[2050170, 2050637, 2051084, 2051473, 2051867, 2052257, 2052630, 2053022, 2053432, 2053873, 2054264, 2054675, 2055093, 2055515, 2055932, 2056342, 2056733, 2057149, 2057573, 2058021, 2058441, 2058836, 2059246]","[2050279, 2050750, 2051196, 2051585, 2051964, 2052346, 2052736, 2053130, 2053576, 2053994, 2054362, 2054800, 2055223, 2055635, 2056003, 2056452, 2056836, 2057229, 2057650, 2058092, 2058521, 2058902, 2059313]","[2049825, 2050225, 2050624, 2051024, 2051424, 2051824, 2052225, 2052624, 2053050, 2053458, 2053900, 2054292, 2054703, 2055119, 2055541, 2055960, 2056370, 2056761, 2057177, 2057601, 2058049, 2058468, 2058863, 2059273]",14,R,ITM,1.1,
4,400,trial,0,115,115,115,trial,"['S', 'S', 'S', 'S', 'S', 'S', 'S', 'C', 'C', 'C', 'C', 'C', 'C', 'C', 'C', 'C', 'C', 'C', 'C', 'C', 'C', 'C', 'C', 'C']","[2065128, 2065496, 2065875, 2066249, 2066627, 2067061, 2067409, 2067794, 2068119, 2068516, 2068841, 2069184, 2069513, 2069852, 2070164, 2070467, 2070751, 2071033, 2071325, 2071596, 2071890, 2072150, 2072426, 2072711]","[2065223, 2065586, 2065955, 2066338, 2066735, 2067142, 2067497, 2067879, 2068213, 2068592, 2068914, 2069261, 2069588, 2069922, 2070238, 2070529, 2070795, 2071075, 2071361, 2071652, 2071927, 2072195, 2072491, 2072753]","[2064730, 2065128, 2065528, 2065928, 2066328, 2066728, 2067128, 2067528, 2067820, 2068145, 2068542, 2068867, 2069210, 2069538, 2069878, 2070191, 2070493, 2070776, 2071059, 2071351, 2071621, 2071917, 2072452, 2072736]",14,R,ITM,1.1,
6,600,trial,0,116,116,116,trial,"['S', 'S', 'S', 'S', 'S', 'S', 'S', 'C', 'C', 'C', 'C', 'C', 'C', 'C', 'C', 'C', 'C', 'C', 'C', 'C', 'C', 'C', 'C']","[2078341, 2079007, 2080136, 2080676, 2081303, 2081819, 2082425, 2082956, 2083481, 2083871, 2084255, 2084645, 2084998, 2085354, 2085685, 2086042, 2086380, 2086725, 2087069, 2087385, 2087699, 2088035, 2088445]","[2078432, 2079111, 2080232, 2080791, 2081379, 2081915, 2082516, 2083031, 2083524, 2083953, 2084355, 2084736, 2085092, 2085459, 2085788, 2086140, 2086487, 2086843, 2087159, 2087491, 2087798, 2088129, 2088516]","[2078055, 2078654, 2079254, 2079854, 2080454, 2081054, 2081654, 2082254, 2082983, 2083508, 2083899, 2084282, 2084673, 2085024, 2085381, 2085711, 2086069, 2086408, 2086752, 2087096, 2087411, 2087727, 2088062, 2088472]",14,R,ITM,1.1,
6,400,trial,0,117,117,117,trial,"['S', 'S', 'S', 'S', 'S', 'S', 'S', 'S', 'S', 'C', 'C', 'C', 'C', 'C', 'C', 'C', 'C', 'C', 'C', 'C', 'C', 'C', 'C', 'C', 'C']","[2093911, 2094200, 2094593, 2094962, 2095340, 2095724, 2096143, 2096533, 2096900, 2097321, 2097697, 2098057, 2098415, 2098803, 2099179, 2099518, 2099833, 2100200, 2100558, 2100898, 2101246, 2101570, 2101890, 2102209, 2102534]","[2094066, 2094372, 2094708, 2095085, 2095466, 2095848, 2096248, 2096640, 2097018, 2097443, 2097805, 2098174, 2098507, 2098884, 2099277, 2099622, 2099952, 2100314, 2100626, 2100977, 2101329, 2101651, 2101968, 2102295, 2102634]","[2093868, 2094266, 2094666, 2095067, 2095466, 2095866, 2096266, 2096666, 2097348, 2097725, 2098084, 2098442, 2098830, 2099207, 2099545, 2099860, 2100227, 2100585, 2100926, 2101274, 2101597, 2101916, 2102236, 2102560]",14,R,ITM,1.1,
5,600,trial,0,118,118,118,trial,"['B', 'S', 'S', 'S', 'S', 'S', 'S', 'S', 'S', 'S', 'C', 'C', 'C', 'C', 'C', 'C', 'C', 'C', 'C', 'C', 'C', 'C', 'C', 'C', 'C', 'C']","[2107881, 2108140, 2108687, 2109225, 2109788, 2110256, 2110804, 2111341, 2111823, 2112307, 2112943, 2113428, 2113776, 2114120, 2114433, 2114767, 2115074, 2115394, 2115694, 2116017, 2116327, 2116640, 2116971, 2117307, 2117636, 2117937]","[2107901, 2108238, 2108772, 2109298, 2109881, 2110340, 2110859, 2111409, 2111931, 2112411, 2113048, 2113502, 2113891, 2114219, 2114537, 2114872, 2115171, 2115480, 2115787, 2116113, 2116419, 2116748, 2117073, 2117416, 2117725, 2118020]","[2107893, 2108492, 2109092, 2109692, 2110292, 2110893, 2111493, 2112093, 2112968, 2113454, 2113802, 2114146, 2114458, 2114793, 2115099, 2115420, 2115720, 2116042, 2116353, 2116666, 2116997, 2117334, 2117662, 2117962]",14,R,ITM,1.1,
3,400,trial,0,119,119,119,trial,"['S', 'S', 'S', 'S', 'S', 'S', 'S', 'S', 'C', 'C', 'C', 'C', 'C', 'C', 'C', 'C', 'C', 'C', 'C', 'C', 'C', 'C', 'C', 'C']","[2123412, 2123918, 2124346, 2124722, 2125051, 2125524, 2125837, 2126210, 2126550, 2126916, 2127310, 2127671, 2128052, 2128391, 2128727, 2129104, 2129476, 2129862, 2130235, 2130618, 2130976, 2131372, 2131768, 2132125]","[2123528, 2124025, 2124432, 2124836, 2125198, 2125626, 2125961, 2126312, 2126682, 2127052, 2127418, 2127793, 2128156, 2128494, 2128850, 2129203, 2129574, 2129952, 2130323, 2130706, 2131091, 2131468, 2131855, 2132241]","[2123341, 2123741, 2124141, 2124541, 2124941, 2125341, 2125742, 2126141, 2126575, 2126942, 2127336, 2127696, 2128077, 2128416, 2128752, 2129130, 2129502, 2129888, 2130260, 2130643, 2131002, 2131397, 2131793, 2132151]",14,R,ITM,1.1,
2,400,trial,0,120,120,120,trial,"['B', 'S', 'S', 'S', 'S', 'S', 'S', 'S', 'S', 'C', 'C', 'C', 'C', 'C', 'C', 'C', 'C', 'C', 'C', 'C', 'C', 'C', 'C', 'C', 'C', 'C']","[2137451, 2137716, 2138086, 2138440, 2138774, 2139104, 2139455, 2139823, 2140174, 2140514, 2140841, 2141246, 2141641, 2142031, 2142407, 2142723, 2143158, 2143452, 2143784, 2144116, 2144463, 2144742, 2144991, 2145271, 2145607, 2145942]","[2137515, 2137776, 2138152, 2138527, 2138869, 2139193, 2139563, 2139925, 2140268, 2140615, 2140922, 2141299, 2141709, 2142117, 2142497, 2142837, 2143252, 2143532, 2143889, 2144234, 2144559, 2144846, 2145116, 2145378, 2145700, 2146071]","[2137465, 2137865, 2138265, 2138664, 2139065, 2139465, 2139866, 2140265, 2140541, 2140868, 2141273, 2141668, 2142058, 2142434, 2142749, 2143184, 2143479, 2143812, 2144144, 2144490, 2144769, 2145299, 2145634, 2145969]",14,R,ITM,1.1,
4,600,trial,0,121,121,121,trial,"['S', 'S', 'S', 'S', 'S', 'S', 'S', 'S', 'S', 'C', 'C', 'C', 'C', 'C', 'C', 'C', 'C', 'C', 'C', 'C', 'C', 'C', 'C', 'C', 'C']","[2151627, 2151948, 2152471, 2152953, 2153485, 2153952, 2154432, 2154977, 2155430, 2156007, 2156434, 2156861, 2157289, 2157721, 2158128, 2158547, 2158944, 2159395, 2159782, 2160220, 2160616, 2161036, 2161466, 2161871, 2162279]","[2151720, 2152074, 2152604, 2153073, 2153581, 2154065, 2154540, 2155074, 2155545, 2156107, 2156527, 2156963, 2157403, 2157826, 2158235, 2158628, 2159064, 2159492, 2159909, 2160356, 2160729, 2161136, 2161554, 2161974, 2162350]","[2151537, 2152136, 2152736, 2153336, 2153936, 2154536, 2155137, 2155737, 2156033, 2156461, 2156887, 2157315, 2157747, 2158153, 2158573, 2158969, 2159421, 2159808, 2160245, 2160642, 2161062, 2161491, 2161897, 2162305]",14,R,ITM,1.1,
7,400,trial,0,122,122,122,trial,"['S', 'S', 'S', 'S', 'S', 'C', 'C', 'C', 'C', 'C', 'C', 'C', 'C', 'C', 'C', 'C', 'C', 'C', 'C', 'C', 'C']","[2169141, 2169547, 2169974, 2170375, 2170778, 2171160, 2171545, 2171949, 2172331, 2172703, 2173100, 2173479, 2173832, 2174218, 2174606, 2174995, 2175332, 2175724, 2176083, 2176472, 2176833]","[2169237, 2169667, 2170088, 2170492, 2170872, 2171270, 2171657, 2172044, 2172421, 2172806, 2173195, 2173594, 2173942, 2174329, 2174704, 2175081, 2175430, 2175817, 2176174, 2176548, 2176903]","[2167998, 2168397, 2168798, 2169198, 2169598, 2169998, 2170398, 2170799, 2171188, 2171572, 2171976, 2172357, 2172730, 2173126, 2173507, 2173859, 2174244, 2174633, 2175022, 2175358, 2175751, 2176111, 2176498, 2176861]",14,R,ITM,1.1,
3,600,trial,0,123,123,123,trial,"['S', 'S', 'S', 'S', 'S', 'S', 'S', 'S', 'C', 'C', 'C', 'C', 'C', 'C', 'C', 'C', 'C', 'C', 'C', 'C', 'C', 'C', 'C', 'C']","[2182706, 2183296, 2183882, 2184461, 2185026, 2185486, 2185977, 2186476, 2187101, 2187571, 2187991, 2188329, 2188627, 2189025, 2189395, 2189759, 2190115, 2190460, 2190817, 2191160, 2191566, 2191910, 2192316, 2192649]","[2182794, 2183393, 2183998, 2184554, 2185110, 2185589, 2186084, 2186596, 2187189, 2187655, 2188069, 2188408, 2188724, 2189097, 2189459, 2189785, 2190184, 2190531, 2190875, 2191242, 2191625, 2191983, 2192384, 2192749]","[2182495, 2183095, 2183695, 2184295, 2184895, 2185495, 2186095, 2186695, 2187126, 2187596, 2188016, 2188355, 2188653, 2189050, 2189421, 2189785, 2190141, 2190486, 2190842, 2191185, 2191592, 2191936, 2192342, 2192674]",14,R,ITM,1.1,
