octave,ioi,event,.thisRepN,.thisTrialN,.thisN,.thisIndex,tap_types,tap_times,release_times,tone_times,subject,handedness,experiment,version
,,SPR,0,-1,-1,0,"['P', 'P', 'P', 'P', 'P', 'P', 'P', 'P', 'P', 'P', 'P', 'P', 'P', 'P', 'P', 'P', 'P', 'P', 'P', 'P', 'P', 'P', 'P', 'P', 'P', 'P', 'P', 'P', 'P', 'P']","[50959, 51931, 52419, 52886, 53590, 54256, 54822, 55486, 56352, 57042, 57658, 58437, 59036, 59634, 60280, 60938, 61543, 62520, 63009, 63377, 63827, 64241, 64744, 65332, 65751, 66166, 66691, 67222, 67760, 68344]","[51723, 52014, 52515, 53039, 53688, 54390, 54956, 55627, 56540, 57206, 57830, 58545, 59159, 59754, 60403, 61032, 61671, 62627, 63090, 63452, 63920, 64319, 64822, 65397, 65831, 66320, 66841, 67421, 67939, 68541]",,8,R,ITM,1.1
7,500,practice,0,0,0,0,"['B', 'S', 'S', 'S', 'S', 'S', 'S', 'S', 'C', 'C', 'C', 'C', 'C', 'C', 'C', 'C', 'C', 'C', 'C', 'C', 'C', 'C', 'C', 'C', 'C', 'C']","[144462, 145099, 145587, 146033, 146476, 146936, 147424, 147912, 148391, 148834, 149212, 149476, 150603, 151071, 151473, 151854, 152248, 152603, 152932, 153317, 153617, 153917, 154177, 156254, 156610, 156951]","[144503, 145192, 145676, 146124, 146564, 147045, 147536, 148015, 148505, 148943, 149314, 149578, 150692, 151197, 151575, 151957, 152341, 152687, 153021, 153393, 153697, 153985, 154243, 156362, 156734, 157049]","[144476, 144974, 145474, 145974, 146475, 146974, 147474, 147975, 148419, 148861, 149238, 150630, 151098, 151499, 151881, 152275, 152631, 152958, 153344, 153645, 153945, 156280, 156637, 156979]",8,R,ITM,1.1
3,500,practice,0,1,1,1,"['S', 'S', 'S', 'S', 'S', 'S', 'S', 'C', 'C', 'C', 'C', 'C', 'C', 'C', 'C', 'C', 'C', 'C', 'C', 'C', 'C', 'C', 'C']","[162804, 163366, 163899, 164429, 164898, 165397, 165859, 166421, 166876, 167351, 167841, 168310, 168806, 169349, 169824, 170297, 170767, 171247, 171800, 172297, 172830, 173343, 173884]","[162912, 163480, 163986, 164539, 165002, 165490, 165947, 166502, 166967, 167439, 167909, 168404, 168887, 169419, 169903, 170376, 170863, 171338, 171880, 172380, 172907, 173440, 173976]","[162467, 162966, 163466, 163966, 164466, 164966, 165467, 165966, 166447, 166901, 167376, 167867, 168336, 168832, 169374, 169849, 170322, 170792, 171273, 171826, 172322, 172856, 173369, 173910]",8,R,ITM,1.1
5,500,practice,0,2,2,2,"['S', 'S', 'S', 'S', 'S', 'S', 'S', 'S', 'C', 'C', 'C', 'C', 'C', 'C', 'C', 'C', 'C', 'C', 'C', 'C', 'C', 'C', 'C', 'C']","[179495, 179963, 180424, 180891, 181371, 181858, 182342, 182841, 183354, 183878, 184413, 184981, 185519, 186067, 186645, 187228, 187805, 188394, 188971, 189589, 190070, 190897, 191795, 192412]","[179559, 180030, 180494, 180958, 181444, 181926, 182424, 182907, 183425, 183947, 184494, 185055, 185623, 186160, 186744, 187302, 187914, 188485, 189089, 189674, 190208, 190985, 191864, 192518]","[179356, 179855, 180356, 180855, 181355, 181855, 182355, 182855, 183380, 183905, 184438, 185008, 185545, 186094, 186672, 187253, 187831, 188420, 188996, 189616, 190096, 190922, 191820, 192438]",8,R,ITM,1.1
2,500,practice,0,3,3,3,"['S', 'S', 'S', 'S', 'S', 'S', 'C', 'C', 'C', 'C', 'C', 'C', 'C', 'C', 'C', 'C', 'C', 'C', 'C', 'C', 'C', 'C']","[198579, 199206, 199750, 200253, 200972, 201519, 202090, 202670, 203248, 203848, 204428, 204960, 205571, 206157, 206726, 207289, 207842, 208486, 209034, 209655, 210285, 210968]","[198686, 199290, 199852, 200401, 201083, 201661, 202192, 202765, 203339, 203940, 204524, 205068, 205688, 206232, 206800, 207401, 207974, 208591, 209169, 209780, 210364, 211089]","[198078, 198578, 199078, 199578, 200078, 200578, 201077, 201578, 202118, 202696, 203276, 203876, 204454, 204988, 205598, 206184, 206753, 207316, 207868, 208513, 209061, 209682, 210313, 210996]",8,R,ITM,1.1
4,500,practice,0,4,4,4,"['S', 'S', 'S', 'S', 'S', 'S', 'C', 'C', 'C', 'C', 'C', 'C', 'C', 'C', 'C', 'C', 'C', 'C', 'C', 'C', 'C', 'C']","[216570, 217071, 217604, 218280, 218853, 219464, 220152, 220840, 221395, 221977, 222544, 223192, 223762, 224366, 224953, 225492, 226184, 226750, 227321, 227857, 228408, 228957]","[216638, 217163, 217746, 218351, 218996, 219573, 220269, 220972, 221496, 222078, 222617, 223281, 223864, 224506, 225047, 225647, 226269, 226868, 227386, 227928, 228496, 229049]","[216411, 216909, 217409, 217909, 218409, 218909, 219409, 219910, 220178, 220866, 221421, 222003, 222570, 223217, 223788, 224392, 224978, 225518, 226209, 226776, 227347, 227883, 228433, 228982]",8,R,ITM,1.1
6,500,practice,0,5,5,5,"['B', 'S', 'S', 'S', 'S', 'S', 'S', 'C', 'C', 'C', 'C', 'C', 'C', 'C', 'C', 'C', 'C', 'C', 'C', 'C', 'C', 'C', 'C']","[234436, 234907, 235448, 236106, 236598, 237288, 237857, 238425, 239089, 239595, 240175, 240734, 241335, 241868, 242462, 242965, 243522, 244101, 244648, 245203, 245723, 246429, 246898]","[234476, 235125, 235572, 236199, 236775, 237390, 237991, 238541, 239186, 239712, 240263, 240822, 241421, 241994, 242555, 243065, 243601, 244230, 244747, 245297, 245843, 246513, 247043]","[234449, 234948, 235448, 235949, 236448, 236948, 237448, 237948, 238451, 239116, 239623, 240201, 240760, 241361, 241895, 242489, 242993, 243550, 244127, 244676, 245230, 245749, 246457, 246926]",8,R,ITM,1.1
6,400,trial,0,6,6,6,"['S', 'S', 'S', 'S', 'S', 'S', 'C', 'C', 'C', 'C', 'C', 'C', 'C', 'C', 'C', 'C', 'C', 'C', 'C', 'C', 'C', 'C']","[293712, 294128, 294577, 295057, 295440, 295967, 296509, 296958, 297432, 297883, 298395, 298919, 299449, 300002, 300479, 301020, 301544, 302076, 302623, 303140, 303604, 304097]","[293790, 294228, 294663, 295149, 295533, 296081, 296616, 297069, 297538, 297968, 298461, 299012, 299524, 300072, 300565, 301077, 301614, 302144, 302686, 303223, 303706, 304192]","[293349, 293748, 294149, 294548, 294948, 295348, 295748, 296148, 296537, 296984, 297458, 297910, 298423, 298947, 299475, 300029, 300507, 301046, 301571, 302103, 302650, 303168, 303632, 304123]",8,R,ITM,1.1
2,400,trial,0,7,7,7,"['S', 'S', 'S', 'S', 'S', 'S', 'C', 'C', 'C', 'C', 'C', 'C', 'C', 'C', 'C', 'C', 'C', 'C', 'C', 'C', 'C', 'C']","[310286, 310711, 311171, 311582, 312006, 312428, 313012, 313422, 313901, 314327, 314815, 315239, 315731, 316230, 316695, 317202, 317666, 318148, 318661, 319142, 319646, 320149]","[310369, 310796, 311259, 311663, 312091, 312541, 313101, 313548, 313995, 314406, 314890, 315299, 315795, 316295, 316768, 317268, 317734, 318209, 318721, 319218, 319732, 320240]","[309886, 310285, 310686, 311086, 311486, 311886, 312287, 312687, 313038, 313449, 313927, 314353, 314842, 315267, 315759, 316257, 316722, 317229, 317692, 318176, 318688, 319169, 319674, 320177]",8,R,ITM,1.1
3,600,trial,0,8,8,8,"['S', 'S', 'S', 'S', 'S', 'S', 'S', 'C', 'C', 'C', 'C', 'C', 'C', 'C', 'C', 'C', 'C', 'C', 'C', 'C', 'C', 'C', 'C']","[326161, 326807, 327569, 328333, 328708, 329400, 329913, 330508, 331128, 331716, 332380, 333096, 333737, 334337, 334942, 335560, 336186, 336781, 337437, 338093, 338658, 339244, 339871]","[326244, 326909, 327643, 328391, 328817, 329484, 330007, 330615, 331206, 331812, 332450, 333160, 333821, 334403, 335012, 335650, 336293, 336848, 337522, 338165, 338771, 339347, 339954]","[325843, 326443, 327043, 327643, 328242, 328842, 329442, 330042, 330533, 331154, 331742, 332405, 333122, 333762, 334362, 334967, 335586, 336211, 336806, 337463, 338118, 338683, 339269, 339897]",8,R,ITM,1.1
3,400,trial,0,9,9,9,"['S', 'S', 'S', 'S', 'S', 'S', 'S', 'S', 'C', 'C', 'C', 'C', 'C', 'C', 'C', 'C', 'C', 'C', 'C', 'C', 'C', 'C', 'C', 'C']","[345635, 346020, 346424, 346767, 347170, 347524, 348055, 348444, 348816, 349293, 349705, 350135, 350580, 351059, 351497, 352066, 352523, 353041, 353514, 353977, 354454, 354954, 355444, 355943]","[345714, 346084, 346482, 346844, 347249, 347617, 348135, 348537, 348974, 349376, 349772, 350192, 350644, 351102, 351618, 352136, 352602, 353102, 353602, 354051, 354538, 355056, 355545, 356001]","[345491, 345891, 346291, 346691, 347091, 347491, 347891, 348292, 348841, 349319, 349730, 350160, 350606, 351085, 351523, 352092, 352548, 353067, 353540, 354002, 354480, 354979, 355470, 355969]",8,R,ITM,1.1
6,400,trial,0,10,10,10,"['S', 'S', 'S', 'S', 'S', 'S', 'S', 'S', 'C', 'C', 'C', 'C', 'C', 'C', 'C', 'C', 'C', 'C', 'C', 'C', 'C', 'C', 'C', 'C']","[361849, 362143, 362646, 362971, 363399, 363790, 364179, 364664, 365184, 365581, 366056, 366516, 367045, 367510, 367975, 368530, 369123, 369625, 370190, 370753, 371270, 371730, 372202, 372670]","[361922, 362268, 362703, 363031, 363442, 363837, 364228, 364729, 365247, 365658, 366104, 366574, 367108, 367556, 368033, 368577, 369169, 369690, 370252, 370812, 371328, 371801, 372277, 372769]","[361700, 362099, 362500, 362899, 363299, 363699, 364099, 364499, 365210, 365608, 366083, 366542, 367072, 367537, 368002, 368557, 369150, 369651, 370216, 370780, 371297, 371757, 372229, 372697]",8,R,ITM,1.1
4,600,trial,0,11,11,11,"['S', 'S', 'S', 'S', 'S', 'S', 'S', 'C', 'C', 'C', 'C', 'C', 'C', 'C', 'C', 'C', 'C', 'C', 'C', 'C', 'C', 'C', 'C']","[378527, 379083, 379815, 380488, 381164, 381773, 382395, 382970, 383720, 384418, 385062, 385784, 386532, 387176, 387849, 388582, 389245, 389912, 390588, 391287, 392004, 392796, 393474]","[378582, 379163, 379891, 380571, 381222, 381850, 382462, 383049, 383796, 384492, 385127, 385839, 386598, 387237, 387923, 388667, 389315, 389983, 390642, 391360, 392070, 392862, 393583]","[378145, 378744, 379344, 379944, 380545, 381145, 381745, 382344, 382996, 383746, 384444, 385088, 385810, 386557, 387202, 387874, 388608, 389271, 389938, 390615, 391313, 392030, 392821, 393499]",8,R,ITM,1.1
2,400,trial,0,12,12,12,"['S', 'S', 'S', 'S', 'S', 'S', 'S', 'C', 'C', 'C', 'C', 'C', 'C', 'C', 'C', 'C', 'C', 'C', 'C', 'C', 'C', 'C', 'C']","[399343, 399769, 400247, 400716, 401223, 401617, 402097, 402551, 403014, 403478, 404026, 404589, 405136, 405881, 406549, 407104, 407606, 408120, 408645, 409186, 409761, 410275, 410871]","[399394, 399862, 400324, 400781, 401281, 401681, 402155, 402661, 403072, 403578, 404135, 404654, 405207, 405963, 406615, 407201, 407697, 408217, 408722, 409251, 409832, 410374, 410955]","[399168, 399567, 399967, 400368, 400769, 401167, 401568, 401969, 402579, 403042, 403505, 404052, 404617, 405163, 405908, 406576, 407131, 407632, 408146, 408672, 409213, 409788, 410303, 410899]",8,R,ITM,1.1
3,400,trial,0,13,13,13,"['S', 'S', 'S', 'S', 'S', 'S', 'S', 'C', 'C', 'C', 'C', 'C', 'C', 'C', 'C', 'C', 'C', 'C', 'C', 'C', 'C', 'C', 'C']","[416558, 416929, 417414, 417963, 418428, 418872, 419283, 419685, 420121, 420598, 421103, 421652, 422194, 422739, 423239, 423740, 424220, 424675, 425118, 425669, 426182, 426679, 427149]","[416625, 417008, 417515, 418037, 418506, 418942, 419351, 419764, 420203, 420685, 421190, 421725, 422285, 422825, 423344, 423826, 424325, 424817, 425202, 425767, 426297, 426764, 427242]","[416397, 416796, 417197, 417596, 417996, 418397, 418797, 419197, 419710, 420147, 420624, 421129, 421678, 422219, 422765, 423265, 423766, 424246, 424700, 425144, 425695, 426209, 426704, 427174]",8,R,ITM,1.1
4,400,trial,0,14,14,14,"['S', 'S', 'S', 'S', 'S', 'S', 'C', 'C', 'C', 'C', 'C', 'C', 'C', 'C', 'C', 'C', 'C', 'C', 'C', 'C', 'C', 'C']","[432920, 433265, 433803, 434392, 434947, 435493, 435940, 436348, 436846, 437393, 437953, 438509, 439068, 439636, 440190, 440702, 441203, 441705, 442212, 442741, 443228, 443713]","[432947, 433328, 433888, 434512, 435058, 435581, 436047, 436450, 436950, 437460, 438049, 438595, 439147, 439700, 440258, 440770, 441265, 441779, 442297, 442808, 443303, 443770]","[432721, 433120, 433520, 433921, 434320, 434720, 435121, 435520, 435965, 436374, 436872, 437419, 437979, 438535, 439094, 439662, 440216, 440727, 441229, 441731, 442237, 442767, 443253, 443739]",8,R,ITM,1.1
7,400,trial,0,15,15,15,"['S', 'S', 'S', 'S', 'S', 'C', 'C', 'C', 'C', 'C', 'C', 'C', 'C', 'C', 'C', 'C', 'C', 'C', 'C', 'C', 'C']","[449646, 450184, 450799, 451278, 451960, 452445, 452922, 453384, 453870, 454374, 454856, 455369, 455909, 456528, 456993, 457461, 457925, 458416, 458875, 459464, 459926]","[449719, 450245, 450883, 451365, 452034, 452516, 452974, 453449, 453946, 454446, 454931, 455432, 456006, 456589, 457049, 457545, 457992, 458519, 458977, 459504, 460085]","[449271, 449671, 450070, 450470, 450870, 451270, 451671, 452070, 452472, 452948, 453411, 453898, 454402, 454884, 455396, 455936, 456555, 457020, 457488, 457952, 458443, 458903, 459491, 459953]",8,R,ITM,1.1
5,600,trial,0,16,16,16,"['S', 'S', 'S', 'S', 'S', 'S', 'S', 'C', 'C', 'C', 'C', 'C', 'C', 'C', 'C', 'C', 'C', 'C', 'C', 'C', 'C', 'C', 'C']","[465804, 466589, 467365, 467893, 468505, 469118, 469790, 470293, 470900, 471523, 472148, 472784, 473395, 473974, 474556, 475090, 475722, 476325, 476900, 477446, 478081, 478674, 479325]","[465896, 466679, 467433, 467974, 468588, 469200, 469848, 470362, 470969, 471589, 472214, 472844, 473452, 474040, 474620, 475156, 475780, 476394, 476954, 477523, 478155, 478784, 479399]","[465538, 466138, 466738, 467338, 467938, 468538, 469138, 469738, 470319, 470927, 471548, 472174, 472810, 473420, 474000, 474582, 475116, 475748, 476351, 476925, 477471, 478107, 478700, 479351]",8,R,ITM,1.1
4,600,trial,0,17,17,17,"['S', 'S', 'S', 'S', 'S', 'S', 'S', 'S', 'C', 'C', 'C', 'C', 'C', 'C', 'C', 'C', 'C', 'C', 'C', 'C', 'C', 'C', 'C', 'C']","[485292, 485787, 486308, 486940, 487476, 488068, 488780, 489252, 489974, 490514, 491098, 491767, 492475, 493140, 493774, 494321, 494934, 495583, 496204, 496825, 497551, 498240, 498881, 499581]","[485334, 485865, 486379, 487012, 487541, 488158, 488849, 489335, 490040, 490598, 491169, 491864, 492571, 493223, 493876, 494408, 495024, 495679, 496302, 496925, 497619, 498290, 498958, 499641]","[485133, 485732, 486332, 486932, 487532, 488132, 488732, 489332, 490000, 490540, 491123, 491793, 492500, 493166, 493800, 494347, 494959, 495608, 496230, 496850, 497577, 498266, 498907, 499607]",8,R,ITM,1.1
3,600,trial,0,18,18,18,"['S', 'S', 'S', 'S', 'S', 'S', 'S', 'S', 'C', 'C', 'C', 'C', 'C', 'C', 'C', 'C', 'C', 'C', 'C', 'C', 'C', 'C', 'C', 'C']","[510172, 510694, 511138, 511758, 512314, 513014, 513540, 514096, 514655, 515336, 516052, 516803, 517482, 518249, 518971, 519660, 520396, 521118, 521823, 522517, 523234, 523962, 524646, 525313]","[510236, 510758, 511257, 511852, 512411, 513068, 513659, 514216, 514792, 515457, 516139, 516914, 517651, 518391, 519076, 519768, 520508, 521223, 521919, 522635, 523330, 524063, 524734, 525403]","[509954, 510554, 511154, 511754, 512354, 512954, 513554, 514154, 514680, 515361, 516078, 516829, 517508, 518275, 518996, 519686, 520422, 521144, 521848, 522544, 523259, 523987, 524672, 525338]",8,R,ITM,1.1
2,600,trial,0,19,19,19,"['S', 'S', 'S', 'S', 'S', 'S', 'S', 'S', 'C', 'C', 'C', 'C', 'C', 'C', 'C', 'C', 'C', 'C', 'C', 'C', 'C', 'C', 'C', 'C']","[531412, 531903, 532402, 532931, 533614, 534169, 534719, 535301, 535967, 536591, 537252, 537915, 538582, 539287, 540003, 540770, 541415, 542218, 542994, 543736, 544476, 545138, 545913, 546689]","[531522, 531991, 532498, 533044, 533690, 534272, 534821, 535425, 536125, 536770, 537362, 538030, 538707, 539417, 540092, 540843, 541515, 542318, 543162, 543857, 544606, 545265, 546024, 546829]","[531120, 531719, 532319, 532919, 533518, 534118, 534719, 535319, 535994, 536617, 537280, 537942, 538609, 539314, 540029, 540797, 541443, 542244, 543021, 543763, 544502, 545165, 545940, 546716]",8,R,ITM,1.1
4,400,trial,0,20,20,20,"['S', 'S', 'S', 'S', 'S', 'S', 'S', 'C', 'C', 'C', 'C', 'C', 'C', 'C', 'C', 'C', 'C', 'C', 'C', 'C', 'C', 'C', 'C']","[552367, 552995, 553484, 553822, 554232, 554687, 555096, 555510, 556151, 556657, 557061, 557591, 558182, 558751, 559258, 559781, 560309, 560796, 561284, 561717, 562426, 562961, 563443]","[552426, 553075, 553555, 553903, 554313, 554749, 555163, 555589, 556221, 556737, 557134, 557662, 558235, 558843, 559328, 559859, 560368, 560866, 561353, 561795, 562484, 563044, 563526]","[552213, 552613, 553013, 553413, 553814, 554213, 554613, 555014, 555536, 556177, 556683, 557086, 557617, 558208, 558777, 559284, 559807, 560335, 560822, 561309, 561742, 562452, 562988, 563469]",8,R,ITM,1.1
6,600,trial,0,21,21,21,"['S', 'S', 'S', 'S', 'S', 'S', 'S', 'S', 'C', 'C', 'C', 'C', 'C', 'C', 'C', 'C', 'C', 'C', 'C', 'C', 'C', 'C', 'C', 'C']","[569527, 569998, 570472, 571091, 571755, 572259, 572817, 573449, 574089, 574639, 575287, 576072, 576750, 577358, 577893, 578498, 579115, 579745, 580337, 581010, 581570, 582241, 582814, 583450]","[569604, 570055, 570558, 571160, 571830, 572350, 572974, 573529, 574241, 574821, 575523, 576150, 576821, 577468, 578021, 578608, 579223, 579862, 580484, 581096, 581694, 582362, 583021, 583563]","[569250, 569849, 570449, 571049, 571650, 572250, 572850, 573449, 574116, 574665, 575313, 576100, 576777, 577386, 577920, 578525, 579141, 579772, 580365, 581037, 581597, 582267, 582841, 583478]",8,R,ITM,1.1
2,600,trial,0,22,22,22,"['S', 'S', 'S', 'S', 'S', 'S', 'S', 'S', 'C', 'C', 'C', 'C', 'C', 'C', 'C', 'C', 'C', 'C', 'C', 'C', 'C', 'C', 'C', 'C']","[589364, 589906, 590416, 590982, 591657, 592220, 592829, 593311, 594039, 594722, 595380, 596029, 596771, 597428, 598115, 598805, 599459, 600132, 600880, 601469, 602130, 602795, 603445, 604014]","[589447, 589987, 590502, 591064, 591722, 592322, 592909, 593515, 594118, 594786, 595472, 596139, 596845, 597570, 598247, 598910, 599585, 600223, 600944, 601579, 602227, 602888, 603582, 604142]","[589169, 589769, 590369, 590969, 591568, 592168, 592769, 593370, 594067, 594750, 595406, 596056, 596798, 597455, 598141, 598832, 599486, 600160, 600906, 601497, 602157, 602822, 603471, 604041]",8,R,ITM,1.1
5,400,trial,0,23,23,23,"['S', 'S', 'S', 'S', 'S', 'S', 'S', 'C', 'C', 'C', 'C', 'C', 'C', 'C', 'C', 'C', 'C', 'C', 'C', 'C', 'C', 'C', 'C', 'C']","[609518, 610034, 610505, 610957, 611319, 611699, 612031, 612451, 612820, 613152, 613441, 613721, 614004, 614208, 614780, 615238, 615699, 616151, 616716, 617275, 617836, 618416, 619068, 619778]","[609591, 610139, 610613, 611058, 611389, 611768, 612109, 612525, 612903, 613219, 613531, 613783, 614055, 614276, 614860, 615317, 615811, 616262, 616819, 617348, 617928, 618450, 619118, 619866]","[609357, 609757, 610157, 610557, 610957, 611357, 611758, 612157, 612477, 612846, 613178, 613467, 613746, 614030, 614806, 615264, 615725, 616176, 616742, 617300, 617862, 618441, 619094, 619803]",8,R,ITM,1.1
7,400,trial,0,24,24,24,"['S', 'S', 'S', 'S', 'S', 'S', 'S', 'C', 'C', 'C', 'C', 'C', 'C', 'C', 'C', 'C', 'C', 'C', 'C', 'C', 'C', 'C', 'C']","[625440, 625743, 626418, 626846, 627231, 627713, 628199, 628781, 629258, 629681, 630285, 631002, 631554, 632012, 632472, 632971, 633460, 633960, 634433, 634897, 635638, 636115, 636620]","[625490, 625817, 626498, 626940, 627321, 627798, 628301, 628908, 629379, 629803, 630380, 631085, 631630, 632140, 632582, 633046, 633534, 634020, 634523, 635011, 635711, 636179, 636685]","[625199, 625598, 625998, 626398, 626798, 627198, 627598, 627998, 628807, 629284, 629707, 630311, 631029, 631580, 632039, 632500, 632997, 633487, 633988, 634460, 634925, 635666, 636142, 636648]",8,R,ITM,1.1
7,600,trial,0,25,25,25,"['S', 'S', 'S', 'S', 'S', 'S', 'S', 'S', 'C', 'C', 'C', 'C', 'C', 'C', 'C', 'C', 'C', 'C', 'C', 'C', 'C', 'C', 'C', 'C']","[642201, 642735, 643177, 643692, 644354, 645021, 645552, 646117, 646689, 647422, 648103, 648680, 649263, 649893, 650547, 651237, 651966, 652675, 653536, 654098, 654771, 655452, 656133, 656701]","[642267, 642788, 643267, 643785, 644438, 645093, 645619, 646207, 646766, 647504, 648207, 648778, 649362, 649963, 650610, 651340, 652055, 652761, 653598, 654221, 654865, 655533, 656212, 656803]","[641997, 642596, 643196, 643796, 644397, 644997, 645597, 646196, 646716, 647450, 648130, 648708, 649290, 649920, 650573, 651265, 651993, 652701, 653562, 654126, 654797, 655479, 656160, 656729]",8,R,ITM,1.1
5,600,trial,0,26,26,26,"['S', 'S', 'S', 'S', 'S', 'S', 'S', 'S', 'C', 'C', 'C', 'C', 'C', 'C', 'C', 'C', 'C', 'C', 'C', 'C', 'C', 'C', 'C', 'C']","[662341, 662899, 663388, 663921, 664646, 665136, 665818, 666374, 666964, 667563, 668204, 668840, 669496, 670092, 670771, 671373, 672010, 672640, 673317, 673883, 674522, 675065, 675801, 676545]","[662417, 662972, 663510, 664048, 664695, 665229, 665894, 666452, 667040, 667650, 668293, 668923, 669587, 670181, 670846, 671475, 672077, 672701, 673401, 673986, 674598, 675198, 675884, 676618]","[662173, 662773, 663373, 663973, 664573, 665174, 665774, 666374, 666990, 667588, 668229, 668866, 669521, 670118, 670796, 671399, 672035, 672665, 673343, 673909, 674547, 675091, 675826, 676571]",8,R,ITM,1.1
5,400,trial,0,27,27,27,"['S', 'S', 'S', 'S', 'S', 'S', 'S', 'C', 'C', 'C', 'C', 'C', 'C', 'C', 'C', 'C', 'C', 'C', 'C', 'C', 'C', 'C', 'C']","[682395, 682784, 683276, 683703, 684150, 684618, 685019, 685425, 685861, 686266, 686691, 687128, 687547, 687970, 688395, 688869, 689288, 689767, 690264, 690642, 691175, 691646, 692172]","[682456, 682841, 683354, 683779, 684262, 684700, 685091, 685516, 685926, 686374, 686809, 687224, 687633, 688061, 688485, 688941, 689379, 689824, 690339, 690751, 691259, 691750, 692246]","[682219, 682618, 683018, 683418, 683819, 684218, 684618, 685019, 685452, 685887, 686292, 686717, 687154, 687572, 687995, 688420, 688894, 689314, 689793, 690289, 690668, 691201, 691672, 692198]",8,R,ITM,1.1
6,600,trial,0,28,28,28,"['S', 'S', 'S', 'S', 'S', 'S', 'S', 'S', 'C', 'C', 'C', 'C', 'C', 'C', 'C', 'C', 'C', 'C', 'C', 'C', 'C', 'C', 'C', 'C']","[697819, 698353, 698739, 699320, 699917, 700541, 701188, 701735, 702317, 702962, 703526, 704133, 704719, 705334, 705905, 706540, 707175, 707775, 708344, 708953, 709462, 710041, 710789, 711468]","[697887, 698403, 698853, 699405, 700013, 700635, 701267, 701849, 702418, 703071, 703624, 704219, 704800, 705425, 706009, 706616, 707266, 707885, 708432, 709041, 709573, 710148, 710858, 711535]","[697631, 698231, 698831, 699431, 700032, 700632, 701232, 701832, 702344, 702989, 703553, 704159, 704747, 705360, 705933, 706568, 707202, 707803, 708372, 708980, 709488, 710068, 710815, 711494]",8,R,ITM,1.1
7,600,trial,0,29,29,29,"['S', 'S', 'S', 'S', 'S', 'S', 'S', 'S', 'C', 'C', 'C', 'C', 'C', 'C', 'C', 'C', 'C', 'C', 'C', 'C', 'C', 'C', 'C', 'C']","[717037, 717596, 718157, 718685, 719235, 719739, 720428, 721085, 721639, 722255, 722875, 723505, 724130, 724802, 725340, 726007, 726600, 727187, 727815, 728484, 729090, 729697, 730322, 730976]","[717094, 717668, 718234, 718752, 719308, 719827, 720484, 721136, 721715, 722345, 722941, 723576, 724189, 724923, 725434, 726119, 726697, 727323, 727901, 728580, 729191, 729819, 730438, 731081]","[716884, 717484, 718084, 718684, 719283, 719883, 720483, 721083, 721666, 722282, 722902, 723532, 724158, 724830, 725366, 726035, 726627, 727214, 727842, 728511, 729116, 729723, 730349, 731002]",8,R,ITM,1.1
5,600,trial,0,30,30,30,"['S', 'S', 'S', 'S', 'S', 'S', 'S', 'S', 'C', 'C', 'C', 'C', 'C', 'C', 'C', 'C', 'C', 'C', 'C', 'C', 'C', 'C', 'C', 'C']","[741919, 742369, 742834, 743405, 744064, 744583, 745166, 745749, 746346, 746863, 747531, 748344, 748874, 749570, 750161, 750764, 751328, 751966, 752643, 753294, 753808, 754439, 755036, 755609]","[742002, 742449, 742927, 743476, 744135, 744658, 745251, 745814, 746411, 746950, 747628, 748412, 748998, 749657, 750268, 750833, 751416, 752054, 752723, 753361, 753922, 754531, 755121, 755694]","[741605, 742204, 742804, 743404, 744004, 744604, 745204, 745804, 746372, 746889, 747556, 748369, 748900, 749595, 750187, 750789, 751353, 751991, 752668, 753319, 753833, 754464, 755062, 755635]",8,R,ITM,1.1
2,400,trial,0,31,31,31,"['S', 'S', 'S', 'S', 'S', 'S', 'S', 'S', 'C', 'C', 'C', 'C', 'C', 'C', 'C', 'C', 'C', 'C', 'C', 'C', 'C', 'C', 'C', 'C']","[761176, 761574, 761980, 762259, 762655, 763036, 763429, 763836, 764234, 764630, 765028, 765420, 765847, 766243, 766679, 767060, 767505, 767927, 768381, 768814, 769272, 769755, 770188, 770618]","[761239, 761653, 762065, 762357, 762732, 763116, 763495, 763901, 764312, 764709, 765093, 765490, 765918, 766302, 766747, 767154, 767591, 768003, 768442, 768880, 769345, 769814, 770241, 770680]","[761029, 761428, 761829, 762228, 762629, 763029, 763428, 763829, 764261, 764656, 765056, 765447, 765875, 766271, 766705, 767086, 767532, 767954, 768409, 768841, 769299, 769782, 770215, 770644]",8,R,ITM,1.1
3,400,trial,0,32,32,32,"['S', 'S', 'S', 'S', 'S', 'S', 'S', 'S', 'C', 'C', 'C', 'C', 'C', 'C', 'C', 'C', 'C', 'C', 'C', 'C', 'C', 'C', 'C', 'C']","[776605, 776878, 777207, 777493, 777889, 778294, 778723, 779125, 779469, 779772, 780237, 780648, 781061, 781466, 781875, 782352, 782797, 783265, 783721, 784162, 784613, 785053, 785521, 785933]","[776673, 776967, 777279, 777587, 777977, 778351, 778774, 779192, 779553, 779877, 780303, 780772, 781119, 781564, 781999, 782425, 782895, 783338, 783806, 784244, 784686, 785124, 785551, 785995]","[776349, 776749, 777148, 777548, 777949, 778349, 778749, 779149, 779495, 779798, 780263, 780674, 781086, 781492, 781900, 782377, 782823, 783291, 783747, 784188, 784638, 785079, 785547, 785958]",8,R,ITM,1.1
4,600,trial,0,33,33,33,"['S', 'S', 'S', 'S', 'S', 'S', 'S', 'S', 'C', 'C', 'C', 'C', 'C', 'C', 'C', 'C', 'C', 'C', 'C', 'C', 'C', 'C', 'C', 'C']","[791843, 792198, 792883, 793412, 793990, 794597, 795247, 795773, 796488, 797057, 797633, 798162, 798807, 799432, 800020, 800690, 801252, 801882, 802432, 802951, 803589, 804209, 804814, 805368]","[791884, 792287, 792940, 793462, 794038, 794637, 795279, 795821, 796592, 797157, 797720, 798251, 798889, 799501, 800128, 800768, 801318, 801954, 802505, 803019, 803675, 804306, 804883, 805406]","[791662, 792262, 792862, 793462, 794062, 794662, 795262, 795863, 796514, 797082, 797660, 798188, 798832, 799458, 800046, 800715, 801277, 801907, 802457, 802976, 803614, 804236, 804840, 805394]",8,R,ITM,1.1
4,400,trial,0,34,34,34,"['S', 'S', 'S', 'S', 'S', 'S', 'S', 'S', 'C', 'C', 'C', 'C', 'C', 'C', 'C', 'C', 'C', 'C', 'C', 'C', 'C', 'C', 'C', 'C']","[810907, 811300, 811617, 811933, 812314, 812687, 813072, 813457, 813918, 814363, 814783, 815241, 815638, 816100, 816550, 817026, 817435, 817893, 818336, 818801, 819270, 819729, 820211, 820645]","[810949, 811374, 811700, 812020, 812404, 812760, 813133, 813533, 813964, 814437, 814881, 815313, 815748, 816191, 816615, 817083, 817516, 817968, 818424, 818868, 819346, 819793, 820278, 820714]","[810734, 811133, 811533, 811933, 812334, 812733, 813133, 813533, 813944, 814390, 814809, 815266, 815664, 816125, 816576, 817051, 817461, 817918, 818362, 818827, 819297, 819755, 820237, 820671]",8,R,ITM,1.1
2,600,trial,0,35,35,35,"['S', 'S', 'S', 'S', 'S', 'S', 'S', 'S', 'C', 'C', 'C', 'C', 'C', 'C', 'C', 'C', 'C', 'C', 'C', 'C', 'C', 'C', 'C', 'C']","[826266, 826841, 827359, 827943, 828497, 829157, 829687, 830271, 830877, 831516, 832147, 832820, 833482, 834182, 834859, 835555, 836293, 836960, 837708, 838306, 838861, 839513, 840067, 840638]","[826301, 826891, 827428, 827996, 828553, 829202, 829753, 830346, 830957, 831583, 832240, 832918, 833559, 834233, 834945, 835627, 836362, 837047, 837781, 838368, 838960, 839590, 840135, 840713]","[826087, 826687, 827286, 827886, 828487, 829087, 829687, 830287, 830904, 831544, 832174, 832846, 833509, 834209, 834885, 835581, 836320, 836987, 837736, 838334, 838889, 839540, 840094, 840665]",8,R,ITM,1.1
7,400,trial,0,36,36,36,"['S', 'S', 'S', 'S', 'S', 'S', 'S', 'S', 'C', 'C', 'C', 'C', 'C', 'C', 'C', 'C', 'C', 'C', 'C', 'C', 'C', 'C', 'C', 'C']","[846117, 846517, 846809, 847155, 847554, 847940, 848385, 848700, 849098, 849401, 849751, 850159, 850556, 850975, 851347, 851724, 852094, 852388, 852914, 853316, 853731, 854147, 854585, 855017]","[846197, 846568, 846875, 847215, 847597, 847990, 848438, 848764, 849147, 849467, 849813, 850228, 850636, 851041, 851414, 851771, 852152, 852505, 852988, 853389, 853800, 854238, 854672, 855109]","[845985, 846385, 846784, 847184, 847584, 847984, 848385, 848784, 849126, 849429, 849777, 850187, 850583, 851002, 851374, 851751, 852122, 852415, 852940, 853344, 853757, 854174, 854612, 855045]",8,R,ITM,1.1
6,600,trial,0,37,37,37,"['S', 'S', 'S', 'S', 'S', 'S', 'S', 'S', 'C', 'C', 'C', 'C', 'C', 'C', 'C', 'C', 'C', 'C', 'C', 'C', 'C', 'C', 'C', 'C']","[860962, 861425, 861904, 862507, 863102, 863655, 864275, 864825, 865447, 865993, 866523, 867023, 867521, 868030, 868710, 869264, 869820, 870431, 870972, 871528, 872026, 872565, 873212, 873768]","[861019, 861512, 861970, 862570, 863170, 863722, 864357, 864905, 865523, 866056, 866605, 867100, 867613, 868116, 868793, 869339, 869888, 870479, 871023, 871592, 872099, 872648, 873277, 873845]","[860771, 861370, 861970, 862570, 863170, 863770, 864370, 864970, 865475, 866021, 866550, 867050, 867549, 868057, 868737, 869292, 869848, 870458, 870999, 871556, 872052, 872593, 873239, 873795]",8,R,ITM,1.1
6,400,trial,0,38,38,38,"['S', 'S', 'S', 'S', 'S', 'S', 'S', 'S', 'C', 'C', 'C', 'C', 'C', 'C', 'C', 'C', 'C', 'C', 'C', 'C', 'C', 'C', 'C', 'C']","[879680, 880064, 880326, 880747, 881104, 881479, 881847, 882248, 882718, 883112, 883555, 884004, 884466, 884944, 885417, 885853, 886323, 886812, 887318, 887782, 888280, 888768, 889244, 889740]","[879734, 880128, 880386, 880773, 881140, 881504, 881904, 882289, 882762, 883164, 883614, 884036, 884524, 884977, 885470, 885923, 886379, 886839, 887373, 887851, 888309, 888802, 889297, 889811]","[879505, 879904, 880305, 880704, 881104, 881504, 881904, 882305, 882746, 883139, 883581, 884031, 884493, 884971, 885445, 885879, 886350, 886839, 887346, 887810, 888306, 888796, 889271, 889766]",8,R,ITM,1.1
7,600,trial,0,39,39,39,"['S', 'S', 'S', 'S', 'S', 'S', 'S', 'S', 'C', 'C', 'C', 'C', 'C', 'C', 'C', 'C', 'C', 'C', 'C', 'C', 'C', 'C', 'C', 'C']","[895677, 895981, 896627, 897321, 897912, 898512, 899126, 899756, 900361, 900986, 901607, 902190, 902860, 903402, 904171, 904717, 905353, 905925, 906609, 907291, 907831, 908435, 909020, 909735]","[895728, 896063, 896692, 897384, 897988, 898567, 899194, 899826, 900428, 901048, 901673, 902264, 902931, 903497, 904266, 904806, 905416, 906006, 906689, 907388, 907948, 908542, 909138, 909819]","[895512, 896111, 896711, 897311, 897911, 898511, 899111, 899712, 900387, 901014, 901635, 902217, 902887, 903429, 904198, 904744, 905379, 905953, 906636, 907318, 907857, 908463, 909047, 909762]",8,R,ITM,1.1
7,600,trial,0,40,40,40,"['S', 'S', 'S', 'S', 'S', 'S', 'S', 'S', 'C', 'C', 'C', 'C', 'C', 'C', 'C', 'C', 'C', 'C', 'C', 'C', 'C', 'C', 'C', 'C']","[915332, 915751, 916568, 916980, 917475, 918042, 918665, 919303, 919938, 920599, 921242, 921842, 922555, 923237, 923853, 924531, 925216, 925905, 926594, 927262, 927911, 928623, 929285, 929934]","[915393, 915851, 916662, 917070, 917567, 918166, 918777, 919391, 920016, 920686, 921367, 921965, 922673, 923334, 923971, 924638, 925303, 926005, 926728, 927424, 928091, 928768, 929410, 930055]","[915177, 915776, 916376, 916976, 917576, 918176, 918776, 919376, 919964, 920626, 921269, 921869, 922582, 923264, 923880, 924559, 925243, 925933, 926621, 927289, 927939, 928650, 929311, 929960]",8,R,ITM,1.1
3,400,trial,0,41,41,41,"['S', 'S', 'S', 'S', 'S', 'S', 'S', 'C', 'C', 'C', 'C', 'C', 'C', 'C', 'C', 'C', 'C', 'C', 'C', 'C', 'C', 'C', 'C', 'C']","[935913, 936397, 936829, 937281, 937728, 938128, 938512, 938885, 939250, 939504, 940079, 940493, 940921, 941325, 941753, 942194, 942594, 942984, 943422, 943834, 944290, 944744, 945189, 945581]","[935970, 936468, 936925, 937366, 937775, 938196, 938583, 938962, 939328, 939604, 940171, 940584, 941008, 941371, 941836, 942256, 942627, 943051, 943460, 943927, 944319, 944817, 945254, 945644]","[935726, 936125, 936525, 936925, 937325, 937725, 938125, 938525, 938910, 939276, 940104, 940519, 940947, 941350, 941778, 942220, 942619, 943010, 943448, 943859, 944316, 944770, 945215, 945606]",8,R,ITM,1.1
4,600,trial,0,42,42,42,"['S', 'S', 'S', 'S', 'S', 'S', 'S', 'S', 'C', 'C', 'C', 'C', 'C', 'C', 'C', 'C', 'C', 'C', 'C', 'C', 'C', 'C', 'C', 'C']","[953897, 954309, 955023, 955475, 956077, 956704, 957280, 957897, 958451, 959043, 959618, 960238, 960812, 961378, 961963, 962500, 963027, 963631, 964191, 964885, 965439, 965925, 966387, 967172]","[953979, 954404, 955096, 955602, 956180, 956797, 957392, 957998, 958547, 959167, 959695, 960302, 960888, 961460, 962036, 962590, 963115, 963725, 964281, 964937, 965532, 965994, 966603, 967274]","[953755, 954355, 954955, 955555, 956155, 956755, 957356, 957956, 958478, 959069, 959644, 960264, 960837, 961404, 961988, 962526, 963053, 963656, 964216, 964911, 965465, 965951, 966413, 967197]",8,R,ITM,1.1
4,400,trial,0,43,43,43,"['S', 'S', 'S', 'S', 'S', 'S', 'S', 'C', 'C', 'C', 'C', 'C', 'C', 'C', 'C', 'C', 'C', 'C', 'C', 'C', 'C', 'C', 'C']","[972767, 973154, 973534, 974033, 974432, 974915, 975354, 975782, 976166, 976615, 977006, 977385, 977832, 978232, 978663, 979135, 979506, 979979, 980379, 980800, 981264, 981628, 982105]","[972816, 973231, 973611, 974086, 974490, 974962, 975398, 975808, 976228, 976641, 977032, 977454, 977858, 978282, 978713, 979178, 979579, 980022, 980424, 980861, 981303, 981695, 982166]","[972583, 972982, 973382, 973783, 974182, 974582, 974983, 975383, 975808, 976192, 976641, 977032, 977411, 977858, 978257, 978689, 979161, 979532, 980004, 980405, 980826, 981289, 981654, 982130]",8,R,ITM,1.1
3,600,trial,0,44,44,44,"['S', 'S', 'S', 'S', 'S', 'S', 'S', 'S', 'C', 'C', 'C', 'C', 'C', 'C', 'C', 'C', 'C', 'C', 'C', 'C', 'C', 'C', 'C', 'C']","[987876, 988423, 988859, 989411, 990065, 990725, 991256, 991845, 992441, 992993, 993526, 994158, 994729, 995296, 996032, 996549, 997117, 997678, 998212, 998789, 999316, 999919, 1000501, 1001018]","[987951, 988492, 988971, 989512, 990118, 990800, 991338, 991932, 992555, 993106, 993648, 994262, 994824, 995404, 996103, 996669, 997195, 997791, 998329, 998867, 999403, 999989, 1000567, 1001168]","[987682, 988282, 988882, 989483, 990083, 990683, 991282, 991882, 992466, 993019, 993552, 994184, 994755, 995321, 996058, 996575, 997143, 997703, 998238, 998814, 999342, 999945, 1000526, 1001043]",8,R,ITM,1.1
2,400,trial,0,45,45,45,"['S', 'S', 'S', 'S', 'S', 'S', 'S', 'S', 'C', 'C', 'C', 'C', 'C', 'C', 'C', 'C', 'C', 'C', 'C', 'C', 'C', 'C', 'C', 'C']","[1006648, 1007002, 1007285, 1007659, 1008019, 1008412, 1008825, 1009214, 1009643, 1010042, 1010461, 1010883, 1011278, 1011696, 1012065, 1012496, 1012922, 1013337, 1013803, 1014190, 1014628, 1014987, 1015445, 1015784]","[1006705, 1007053, 1007373, 1007695, 1008065, 1008458, 1008885, 1009264, 1009696, 1010105, 1010518, 1010936, 1011352, 1011762, 1012140, 1012576, 1012990, 1013393, 1013872, 1014259, 1014695, 1015054, 1015524, 1015832]","[1006458, 1006858, 1007257, 1007657, 1008057, 1008458, 1008859, 1009258, 1009671, 1010069, 1010488, 1010910, 1011305, 1011724, 1012092, 1012524, 1012950, 1013364, 1013830, 1014217, 1014656, 1015015, 1015472, 1015812]",8,R,ITM,1.1
6,600,trial,0,46,46,46,"['S', 'S', 'S', 'S', 'S', 'S', 'S', 'S', 'C', 'C', 'C', 'C', 'C', 'C', 'C', 'C', 'C', 'C', 'C', 'C', 'C', 'C', 'C', 'C']","[1021679, 1022032, 1022650, 1023320, 1023835, 1024463, 1025071, 1025610, 1026285, 1027086, 1027653, 1028238, 1028965, 1029477, 1030011, 1030640, 1031137, 1031727, 1032223, 1032729, 1033233, 1033776, 1034350, 1034926]","[1021746, 1022235, 1022749, 1023386, 1023941, 1024535, 1025152, 1025710, 1026352, 1027209, 1027793, 1028353, 1029089, 1029567, 1030109, 1030739, 1031212, 1031817, 1032301, 1032823, 1033327, 1033888, 1034440, 1035001]","[1021510, 1022109, 1022709, 1023309, 1023909, 1024509, 1025110, 1025710, 1026312, 1027112, 1027681, 1028264, 1028992, 1029505, 1030038, 1030667, 1031163, 1031754, 1032250, 1032756, 1033260, 1033802, 1034377, 1034952]",8,R,ITM,1.1
5,400,trial,0,47,47,47,"['S', 'S', 'S', 'S', 'S', 'S', 'S', 'S', 'C', 'C', 'C', 'C', 'C', 'C', 'C', 'C', 'C', 'C', 'C', 'C', 'C', 'C', 'C', 'C']","[1040523, 1040868, 1040970, 1041349, 1041741, 1042161, 1042550, 1042951, 1043347, 1043881, 1044248, 1044600, 1045009, 1045504, 1046055, 1046473, 1046921, 1047401, 1047895, 1048321, 1048755, 1049170, 1049635, 1050102]","[1040604, 1040888, 1040990, 1041387, 1041786, 1042196, 1042625, 1043014, 1043415, 1043930, 1044310, 1044662, 1045069, 1045560, 1046102, 1046567, 1047011, 1047431, 1047988, 1048382, 1048798, 1049244, 1049711, 1050166]","[1040294, 1040693, 1041093, 1041494, 1041893, 1042293, 1042694, 1043093, 1043373, 1043907, 1044274, 1044626, 1045036, 1045529, 1046082, 1046499, 1046946, 1047428, 1047920, 1048346, 1048781, 1049197, 1049661, 1050129]",8,R,ITM,1.1
2,600,trial,0,48,48,48,"['S', 'S', 'S', 'S', 'S', 'S', 'S', 'S', 'C', 'C', 'C', 'C', 'C', 'C', 'C', 'C', 'C', 'C', 'C', 'C', 'C', 'C', 'C', 'C']","[1056171, 1056637, 1057107, 1057711, 1058265, 1058971, 1059446, 1060033, 1060673, 1061385, 1061981, 1062611, 1063289, 1063984, 1064510, 1065211, 1065804, 1066467, 1067139, 1067819, 1068429, 1068965, 1069758, 1070494]","[1056227, 1056693, 1057184, 1057774, 1058324, 1059015, 1059521, 1060096, 1060724, 1061412, 1062073, 1062679, 1063341, 1064028, 1064579, 1065272, 1065867, 1066518, 1067222, 1067893, 1068498, 1069036, 1069829, 1070573]","[1055883, 1056483, 1057082, 1057682, 1058283, 1058883, 1059483, 1060082, 1060701, 1061412, 1062007, 1062639, 1063317, 1064010, 1064538, 1065239, 1065831, 1066493, 1067166, 1067845, 1068456, 1068993, 1069786, 1070521]",8,R,ITM,1.1
6,400,trial,0,49,49,49,"['S', 'S', 'S', 'S', 'S', 'S', 'S', 'S', 'C', 'C', 'C', 'C', 'C', 'C', 'C', 'C', 'C', 'C', 'C', 'C', 'C', 'C', 'C', 'C']","[1076255, 1076634, 1076924, 1077209, 1077659, 1078059, 1078512, 1078914, 1079336, 1079732, 1080134, 1080803, 1081235, 1081651, 1082066, 1082486, 1082907, 1083368, 1083788, 1084257, 1084735, 1085195, 1085677, 1086161]","[1076308, 1076680, 1076988, 1077266, 1077695, 1078106, 1078532, 1078951, 1079377, 1079773, 1080174, 1080894, 1081286, 1081725, 1082121, 1082556, 1082975, 1083415, 1083852, 1084315, 1084777, 1085234, 1085722, 1086205]","[1076105, 1076505, 1076905, 1077305, 1077705, 1078106, 1078505, 1078905, 1079363, 1079758, 1080161, 1080830, 1081263, 1081678, 1082093, 1082513, 1082935, 1083395, 1083814, 1084283, 1084762, 1085221, 1085705, 1086188]",8,R,ITM,1.1
3,600,trial,0,50,50,50,"['S', 'S', 'S', 'S', 'S', 'S', 'S', 'S', 'C', 'C', 'C', 'C', 'C', 'C', 'C', 'C', 'C', 'C', 'C', 'C', 'C', 'C', 'C', 'C']","[1091958, 1092500, 1092987, 1093596, 1094159, 1094796, 1095335, 1095949, 1096582, 1097250, 1097890, 1098574, 1099262, 1099884, 1100631, 1101343, 1101987, 1102672, 1103393, 1104052, 1104704, 1105380, 1106062, 1106803]","[1092031, 1092559, 1093074, 1093659, 1094221, 1094838, 1095404, 1095996, 1096657, 1097318, 1097968, 1098638, 1099321, 1099964, 1100677, 1101406, 1102062, 1102739, 1103443, 1104117, 1104796, 1105453, 1106137, 1106883]","[1091772, 1092371, 1092971, 1093571, 1094171, 1094771, 1095371, 1095971, 1096607, 1097276, 1097916, 1098601, 1099288, 1099910, 1100656, 1101369, 1102013, 1102698, 1103419, 1104077, 1104730, 1105405, 1106087, 1106829]",8,R,ITM,1.1
5,400,trial,0,51,51,51,"['S', 'S', 'S', 'S', 'S', 'S', 'S', 'C', 'C', 'C', 'C', 'C', 'C', 'C', 'C', 'C', 'C', 'C', 'C', 'C', 'C', 'C', 'C']","[1112325, 1112796, 1113244, 1113684, 1114039, 1114442, 1114940, 1115333, 1115718, 1116064, 1116447, 1116862, 1117249, 1117635, 1118011, 1118381, 1118739, 1119144, 1119582, 1119964, 1120360, 1120829, 1121193]","[1112369, 1112844, 1113288, 1113712, 1114072, 1114487, 1114993, 1115390, 1115765, 1116130, 1116504, 1116920, 1117313, 1117693, 1118088, 1118438, 1118810, 1119206, 1119626, 1120029, 1120421, 1120856, 1121231]","[1112184, 1112583, 1112983, 1113383, 1113783, 1114183, 1114584, 1114983, 1115359, 1115745, 1116091, 1116474, 1116888, 1117275, 1117662, 1118036, 1118406, 1118766, 1119170, 1119607, 1119989, 1120386, 1120856, 1121219]",8,R,ITM,1.1
5,600,trial,0,52,52,52,"['S', 'S', 'S', 'S', 'S', 'S', 'S', 'S', 'C', 'C', 'C', 'C', 'C', 'C', 'C', 'C', 'C', 'C', 'C', 'C', 'C', 'C', 'C', 'C']","[1127108, 1127425, 1128071, 1128692, 1129368, 1129943, 1130523, 1131126, 1131760, 1132370, 1132991, 1133598, 1134128, 1134864, 1135581, 1136211, 1136921, 1137590, 1138236, 1138935, 1139569, 1140197, 1140916, 1141612]","[1127181, 1127499, 1128122, 1128767, 1129422, 1130013, 1130589, 1131173, 1131816, 1132418, 1133043, 1133673, 1134221, 1134909, 1135630, 1136286, 1136983, 1137651, 1138298, 1138974, 1139617, 1140249, 1140975, 1141665]","[1126964, 1127563, 1128163, 1128763, 1129363, 1129963, 1130563, 1131163, 1131786, 1132397, 1133017, 1133624, 1134153, 1134889, 1135606, 1136238, 1136947, 1137615, 1138262, 1138961, 1139595, 1140222, 1140941, 1141638]",8,R,ITM,1.1
7,400,trial,0,53,53,53,"['S', 'S', 'S', 'S', 'S', 'S', 'S', 'C', 'C', 'C', 'C', 'C', 'C', 'C', 'C', 'C', 'C', 'C', 'C', 'C', 'C', 'C', 'C']","[1147388, 1147786, 1148333, 1148776, 1149181, 1149603, 1149988, 1150408, 1150791, 1151234, 1151665, 1152033, 1152457, 1152852, 1153223, 1153627, 1154111, 1154502, 1154894, 1155275, 1155720, 1156154, 1156506]","[1147422, 1147854, 1148395, 1148834, 1149241, 1149639, 1150031, 1150465, 1150842, 1151285, 1151706, 1152101, 1152497, 1152894, 1153291, 1153686, 1154141, 1154566, 1154934, 1155339, 1155746, 1156191, 1156576]","[1147223, 1147621, 1148021, 1148422, 1148821, 1149221, 1149621, 1150021, 1150435, 1150818, 1151261, 1151691, 1152061, 1152484, 1152878, 1153251, 1153653, 1154139, 1154529, 1154922, 1155302, 1155746, 1156180, 1156534]",8,R,ITM,1.1
4,400,trial,0,54,54,54,"['S', 'S', 'S', 'S', 'S', 'S', 'S', 'S', 'C', 'C', 'C', 'C', 'C', 'C', 'C', 'C', 'C', 'C', 'C', 'C', 'C', 'C', 'C', 'C']","[1164540, 1164892, 1165212, 1165596, 1165960, 1166363, 1166787, 1167164, 1167551, 1167934, 1168741, 1169117, 1169489, 1169883, 1170248, 1170596, 1170972, 1171359, 1171772, 1172168, 1172548, 1172938, 1173329, 1173762]","[1164577, 1164951, 1165280, 1165640, 1165998, 1166394, 1166829, 1167226, 1167591, 1167961, 1168801, 1169190, 1169545, 1169933, 1170291, 1170656, 1171018, 1171419, 1171822, 1172212, 1172614, 1172996, 1173392, 1173803]","[1164360, 1164761, 1165160, 1165560, 1165960, 1166360, 1166760, 1167160, 1167577, 1167961, 1168768, 1169142, 1169515, 1169908, 1170274, 1170622, 1170998, 1171386, 1171798, 1172194, 1172574, 1172964, 1173355, 1173787]",8,R,ITM,1.1
4,400,trial,0,55,55,55,"['S', 'S', 'S', 'S', 'S', 'S', 'S', 'S', 'C', 'C', 'C', 'C', 'C', 'C', 'C', 'C', 'C', 'C', 'C', 'C', 'C', 'C', 'C', 'C']","[1179400, 1179744, 1180089, 1180504, 1180858, 1181259, 1181661, 1182078, 1182449, 1182869, 1183258, 1183700, 1184145, 1184536, 1184924, 1185358, 1185755, 1186220, 1186597, 1186977, 1187422, 1187870, 1188272, 1188711]","[1179471, 1179811, 1180157, 1180553, 1180921, 1181301, 1181729, 1182142, 1182511, 1182920, 1183314, 1183765, 1184196, 1184588, 1184984, 1185421, 1185806, 1186262, 1186655, 1187039, 1187485, 1187912, 1188335, 1188760]","[1179247, 1179648, 1180047, 1180447, 1180848, 1181247, 1181647, 1182047, 1182475, 1182895, 1183284, 1183725, 1184171, 1184562, 1184950, 1185384, 1185780, 1186245, 1186623, 1187003, 1187448, 1187896, 1188298, 1188737]",8,R,ITM,1.1
7,600,trial,0,56,56,56,"['S', 'S', 'S', 'S', 'S', 'S', 'S', 'S', 'C', 'C', 'C', 'C', 'C', 'C', 'C', 'C', 'C', 'C', 'C', 'C', 'C', 'C', 'C', 'C']","[1194339, 1194930, 1195397, 1196035, 1196596, 1197220, 1197760, 1198350, 1199051, 1199720, 1200362, 1200958, 1201642, 1202262, 1202982, 1203661, 1204280, 1204910, 1205559, 1206272, 1206875, 1207575, 1208200, 1208826]","[1194399, 1194970, 1195478, 1196075, 1196654, 1197280, 1197822, 1198419, 1199120, 1199791, 1200425, 1201040, 1201704, 1202332, 1203060, 1203716, 1204347, 1204974, 1205633, 1206320, 1206962, 1207634, 1208241, 1208896]","[1194194, 1194793, 1195394, 1195994, 1196594, 1197193, 1197793, 1198393, 1199079, 1199747, 1200390, 1200985, 1201670, 1202288, 1203010, 1203688, 1204307, 1204937, 1205585, 1206299, 1206902, 1207602, 1208226, 1208854]",8,R,ITM,1.1
2,600,trial,0,57,57,57,"['S', 'S', 'S', 'S', 'S', 'S', 'S', 'S', 'C', 'C', 'C', 'C', 'C', 'C', 'C', 'C', 'C', 'C', 'C', 'C', 'C', 'C', 'C', 'C']","[1214770, 1215353, 1215888, 1216467, 1216982, 1217563, 1218215, 1218878, 1219430, 1220048, 1220602, 1221237, 1221924, 1222576, 1223140, 1223774, 1224417, 1225042, 1225678, 1226412, 1226984, 1227697, 1228348, 1228986]","[1214830, 1215418, 1215956, 1216520, 1217052, 1217665, 1218266, 1218923, 1219514, 1220131, 1220677, 1221328, 1222000, 1222625, 1223261, 1223901, 1224477, 1225153, 1225771, 1226477, 1227072, 1227724, 1228439, 1229073]","[1214628, 1215228, 1215828, 1216429, 1217029, 1217628, 1218228, 1218828, 1219458, 1220076, 1220629, 1221264, 1221952, 1222603, 1223166, 1223801, 1224444, 1225069, 1225706, 1226439, 1227012, 1227724, 1228376, 1229014]",8,R,ITM,1.1
7,600,trial,0,58,58,58,"['S', 'S', 'S', 'S', 'S', 'S', 'S', 'S', 'C', 'C', 'C', 'C', 'C', 'C', 'C', 'C', 'C', 'C', 'C', 'C', 'C', 'C', 'C', 'C']","[1234557, 1235058, 1235548, 1236220, 1236705, 1237322, 1237929, 1238562, 1239035, 1239744, 1240260, 1240870, 1241441, 1242061, 1242727, 1243332, 1243888, 1244545, 1245199, 1245791, 1246440, 1246984, 1247574, 1248343]","[1234610, 1235123, 1235628, 1236259, 1236789, 1237401, 1238005, 1238646, 1239134, 1239811, 1240344, 1240941, 1241535, 1242133, 1242787, 1243421, 1243970, 1244603, 1245264, 1245868, 1246529, 1247060, 1247664, 1248417]","[1234358, 1234957, 1235557, 1236157, 1236757, 1237357, 1237957, 1238557, 1239063, 1239772, 1240288, 1240898, 1241467, 1242089, 1242755, 1243359, 1243915, 1244572, 1245225, 1245817, 1246468, 1247010, 1247600, 1248370]",8,R,ITM,1.1
6,600,trial,0,59,59,59,"['S', 'S', 'S', 'S', 'S', 'S', 'S', 'S', 'C', 'C', 'C', 'C', 'C', 'C', 'C', 'C', 'C', 'C', 'C', 'C', 'C', 'C', 'C', 'C']","[1253969, 1254507, 1255007, 1255571, 1256163, 1256767, 1257428, 1257940, 1258467, 1259098, 1259744, 1260313, 1260955, 1261576, 1262229, 1262818, 1263466, 1264037, 1264648, 1265252, 1265846, 1266403, 1267039, 1267619]","[1254029, 1254577, 1255093, 1255652, 1256223, 1256826, 1257472, 1258002, 1258534, 1259160, 1259809, 1260363, 1261019, 1261631, 1262309, 1262908, 1263558, 1264103, 1264731, 1265332, 1265943, 1266480, 1267142, 1267699]","[1253788, 1254387, 1254987, 1255587, 1256187, 1256787, 1257388, 1257988, 1258493, 1259125, 1259770, 1260340, 1260983, 1261602, 1262257, 1262845, 1263494, 1264065, 1264675, 1265278, 1265872, 1266429, 1267065, 1267646]",8,R,ITM,1.1
6,600,trial,0,60,60,60,"['S', 'S', 'S', 'S', 'S', 'S', 'S', 'S', 'C', 'C', 'C', 'C', 'C', 'C', 'C', 'C', 'C', 'C', 'C', 'C', 'C', 'C', 'C', 'C']","[1273393, 1273886, 1274420, 1274983, 1275565, 1276205, 1276820, 1277420, 1278006, 1278584, 1279194, 1279769, 1280435, 1281091, 1281647, 1282292, 1282929, 1283560, 1284133, 1284766, 1285358, 1285970, 1286660, 1287149]","[1273451, 1273980, 1274479, 1275049, 1275642, 1276258, 1276880, 1277506, 1278083, 1278665, 1279270, 1279855, 1280512, 1281169, 1281746, 1282374, 1282992, 1283642, 1284206, 1284856, 1285479, 1286072, 1286706, 1287269]","[1273222, 1273821, 1274420, 1275020, 1275620, 1276220, 1276820, 1277420, 1278032, 1278611, 1279220, 1279796, 1280461, 1281118, 1281674, 1282319, 1282956, 1283587, 1284160, 1284794, 1285385, 1285998, 1286687, 1287176]",8,R,ITM,1.1
5,600,trial,0,61,61,61,"['S', 'S', 'S', 'S', 'S', 'S', 'S', 'C', 'C', 'C', 'C', 'C', 'C', 'C', 'C', 'C', 'C', 'C', 'C', 'C', 'C', 'C', 'C']","[1293038, 1293720, 1294355, 1294959, 1295526, 1296230, 1296717, 1297216, 1297899, 1298490, 1299034, 1299613, 1300175, 1300756, 1301323, 1301911, 1302473, 1303056, 1303649, 1304232, 1304858, 1305457, 1306057]","[1293114, 1293793, 1294410, 1295032, 1295619, 1296284, 1296783, 1297313, 1297956, 1298566, 1299112, 1299683, 1300246, 1300832, 1301386, 1302032, 1302566, 1303110, 1303691, 1304313, 1304892, 1305528, 1306137]","[1292541, 1293142, 1293742, 1294342, 1294941, 1295541, 1296141, 1296741, 1297242, 1297925, 1298515, 1299059, 1299640, 1300202, 1300782, 1301349, 1301937, 1302499, 1303083, 1303674, 1304258, 1304884, 1305483, 1306083]",8,R,ITM,1.1
4,600,trial,0,62,62,62,"['S', 'S', 'S', 'S', 'S', 'S', 'S', 'S', 'C', 'C', 'C', 'C', 'C', 'C', 'C', 'C', 'C', 'C', 'C', 'C', 'C', 'C', 'C', 'C']","[1311632, 1312191, 1312669, 1313215, 1313852, 1314428, 1315010, 1315615, 1316170, 1316832, 1317430, 1318062, 1318690, 1319248, 1319948, 1320479, 1321295, 1321893, 1322605, 1323279, 1323904, 1324469, 1325054, 1325742]","[1311679, 1312262, 1312741, 1313292, 1313905, 1314510, 1315094, 1315686, 1316257, 1316917, 1317535, 1318120, 1318791, 1319349, 1320064, 1320664, 1321403, 1322005, 1322698, 1323361, 1324012, 1324577, 1325174, 1325812]","[1311446, 1312045, 1312645, 1313245, 1313845, 1314445, 1315045, 1315645, 1316196, 1316857, 1317455, 1318088, 1318716, 1319274, 1319973, 1320505, 1321321, 1321919, 1322631, 1323304, 1323929, 1324494, 1325080, 1325767]",8,R,ITM,1.1
3,400,trial,0,63,63,63,"['S', 'S', 'S', 'S', 'S', 'S', 'S', 'S', 'C', 'C', 'C', 'C', 'C', 'C', 'C', 'C', 'C', 'C', 'C', 'C', 'C', 'C', 'C', 'C']","[1331690, 1332077, 1332475, 1332780, 1333138, 1333501, 1333870, 1334176, 1334639, 1334986, 1335436, 1335863, 1336266, 1336690, 1337108, 1337578, 1338015, 1338544, 1338936, 1339348, 1339809, 1340222, 1340678, 1341022]","[1331744, 1332142, 1332524, 1332839, 1333196, 1333550, 1333926, 1334268, 1334689, 1335052, 1335501, 1335940, 1336340, 1336758, 1337230, 1337646, 1338096, 1338611, 1339030, 1339437, 1339883, 1340301, 1340706, 1341134]","[1331497, 1331896, 1332296, 1332697, 1333096, 1333496, 1333896, 1334296, 1334665, 1335012, 1335461, 1335888, 1336292, 1336716, 1337134, 1337604, 1338041, 1338569, 1338961, 1339374, 1339835, 1340248, 1340703, 1341047]",8,R,ITM,1.1
5,400,trial,0,64,64,64,"['S', 'S', 'S', 'S', 'S', 'S', 'S', 'S', 'C', 'C', 'C', 'C', 'C', 'C', 'C', 'C', 'C', 'C', 'C', 'C', 'C', 'C', 'C', 'C']","[1346876, 1347206, 1347536, 1347907, 1348306, 1348655, 1349035, 1349457, 1349831, 1350245, 1350631, 1351017, 1351410, 1352253, 1352644, 1353018, 1353417, 1353829, 1354233, 1354616, 1355024, 1355402, 1355842, 1356264]","[1346911, 1347280, 1347580, 1347961, 1348344, 1348697, 1349097, 1349495, 1349882, 1350297, 1350681, 1351068, 1351464, 1352333, 1352717, 1353099, 1353509, 1353887, 1354259, 1354679, 1355079, 1355490, 1355921, 1356331]","[1346683, 1347082, 1347482, 1347883, 1348282, 1348682, 1349083, 1349482, 1349858, 1350272, 1350657, 1351043, 1351436, 1352280, 1352670, 1353043, 1353443, 1353854, 1354259, 1354643, 1355049, 1355427, 1355868, 1356291]",8,R,ITM,1.1
2,600,trial,0,65,65,65,"['S', 'S', 'S', 'S', 'S', 'S', 'S', 'S', 'C', 'C', 'C', 'C', 'C', 'C', 'C', 'C', 'C', 'C', 'C', 'C', 'C', 'C', 'C', 'C']","[1362149, 1362460, 1362994, 1363677, 1364370, 1365009, 1365627, 1366207, 1366861, 1367571, 1368202, 1368862, 1369559, 1370233, 1370868, 1371578, 1372352, 1373097, 1373802, 1374572, 1375286, 1375997, 1376711, 1377421]","[1362241, 1362543, 1363164, 1363907, 1364583, 1365170, 1365823, 1366375, 1367064, 1367700, 1368430, 1369037, 1369751, 1370391, 1371109, 1371827, 1372514, 1373266, 1374001, 1374737, 1375502, 1376193, 1376960, 1377649]","[1362027, 1362627, 1363227, 1363827, 1364427, 1365026, 1365626, 1366227, 1366889, 1367598, 1368228, 1368889, 1369585, 1370260, 1370895, 1371606, 1372379, 1373125, 1373830, 1374600, 1375313, 1376025, 1376739, 1377447]",8,R,ITM,1.1
3,600,trial,0,66,66,66,"['S', 'S', 'S', 'S', 'S', 'S', 'S', 'S', 'C', 'C', 'C', 'C', 'C', 'C', 'C', 'C', 'C', 'C', 'C', 'C', 'C', 'C', 'C', 'C']","[1382935, 1383493, 1383999, 1384631, 1385224, 1385757, 1386414, 1386998, 1387588, 1388171, 1388918, 1389556, 1390226, 1390929, 1391566, 1392241, 1392923, 1393634, 1394325, 1395061, 1395748, 1396490, 1397166, 1397953]","[1382989, 1383564, 1384119, 1384761, 1385321, 1385937, 1386530, 1387142, 1387774, 1388440, 1389091, 1389748, 1390407, 1391159, 1391761, 1392431, 1393142, 1393848, 1394587, 1395330, 1396007, 1396750, 1397385, 1398207]","[1382779, 1383378, 1383979, 1384579, 1385179, 1385778, 1386378, 1386978, 1387614, 1388196, 1388944, 1389582, 1390252, 1390955, 1391592, 1392267, 1392949, 1393659, 1394351, 1395087, 1395774, 1396515, 1397191, 1397979]",8,R,ITM,1.1
6,400,trial,0,67,67,67,"['S', 'S', 'S', 'S', 'S', 'S', 'S', 'S', 'C', 'C', 'C', 'C', 'C', 'C', 'C', 'C', 'C', 'C', 'C', 'C', 'C', 'C', 'C', 'C']","[1403655, 1404068, 1404356, 1404734, 1405155, 1405472, 1405917, 1406303, 1406687, 1407131, 1407500, 1407962, 1408335, 1408782, 1409165, 1409627, 1410049, 1410469, 1410935, 1411416, 1411829, 1412190, 1412668, 1413112]","[1403716, 1404138, 1404434, 1404779, 1405218, 1405536, 1406000, 1406405, 1406796, 1407229, 1407613, 1408082, 1408460, 1408879, 1409305, 1409739, 1410158, 1410576, 1411047, 1411500, 1411940, 1412314, 1412773, 1413233]","[1403517, 1403916, 1404316, 1404717, 1405116, 1405516, 1405917, 1406316, 1406713, 1407158, 1407526, 1407988, 1408362, 1408808, 1409192, 1409653, 1410076, 1410496, 1410962, 1411442, 1411856, 1412216, 1412695, 1413139]",8,R,ITM,1.1
5,600,trial,0,68,68,68,"['B', 'S', 'S', 'S', 'S', 'S', 'S', 'S', 'C', 'C', 'C', 'C', 'C', 'C', 'C', 'C', 'C', 'C', 'C', 'C', 'C', 'C', 'C', 'C']","[1418658, 1419091, 1419817, 1420402, 1421025, 1421673, 1422253, 1422852, 1423442, 1424095, 1424644, 1425380, 1425935, 1426524, 1427037, 1427659, 1428558, 1429095, 1429697, 1430275, 1430952, 1431456, 1432072, 1432678]","[1418782, 1419384, 1419988, 1420679, 1421310, 1421879, 1422499, 1423058, 1423705, 1424311, 1424903, 1425584, 1426159, 1426695, 1427355, 1427898, 1428651, 1429284, 1429858, 1430440, 1431113, 1431690, 1432249, 1432839]","[1418670, 1419270, 1419869, 1420469, 1421069, 1421669, 1422269, 1422869, 1423468, 1424120, 1424669, 1425405, 1425961, 1426550, 1427062, 1427685, 1428584, 1429121, 1429723, 1430300, 1430979, 1431482, 1432097, 1432705]",8,R,ITM,1.1
3,600,trial,0,69,69,69,"['S', 'S', 'S', 'S', 'S', 'S', 'S', 'S', 'C', 'C', 'C', 'C', 'C', 'C', 'C', 'C', 'C', 'C', 'C', 'C', 'C', 'C', 'C', 'C']","[1438344, 1438884, 1439343, 1439972, 1440552, 1441167, 1441805, 1442413, 1442995, 1443611, 1444251, 1444802, 1445408, 1446102, 1446696, 1447317, 1447995, 1448644, 1449285, 1449859, 1450546, 1451161, 1451837, 1452505]","[1438429, 1438983, 1439472, 1440132, 1440803, 1441398, 1442023, 1442705, 1443237, 1443817, 1444441, 1444957, 1445654, 1446262, 1446914, 1447587, 1448221, 1448840, 1449468, 1450048, 1450809, 1451374, 1452023, 1452670]","[1438205, 1438806, 1439406, 1440006, 1440605, 1441205, 1441805, 1442405, 1443020, 1443637, 1444277, 1444828, 1445434, 1446127, 1446722, 1447343, 1448020, 1448670, 1449311, 1449884, 1450571, 1451187, 1451863, 1452531]",8,R,ITM,1.1
2,400,trial,0,70,70,70,"['S', 'S', 'S', 'S', 'S', 'S', 'S', 'C', 'C', 'C', 'C', 'C', 'C', 'C', 'C', 'C', 'C', 'C', 'C', 'C', 'C', 'C', 'C']","[1458250, 1458819, 1459247, 1459674, 1460081, 1460487, 1460952, 1461342, 1461751, 1462165, 1462636, 1463043, 1463451, 1463904, 1464361, 1464781, 1465242, 1465595, 1466063, 1466499, 1466946, 1467440, 1467960]","[1458344, 1458917, 1459381, 1459801, 1460191, 1460614, 1461071, 1461482, 1461933, 1462372, 1462787, 1463220, 1463635, 1464101, 1464531, 1464965, 1465387, 1465795, 1466249, 1466689, 1467156, 1467697, 1468164]","[1458131, 1458531, 1458931, 1459332, 1459731, 1460131, 1460532, 1460931, 1461369, 1461779, 1462193, 1462664, 1463070, 1463478, 1463930, 1464388, 1464809, 1465270, 1465623, 1466090, 1466525, 1466973, 1467467, 1467987]",8,R,ITM,1.1
6,400,trial,0,71,71,71,"['S', 'S', 'S', 'S', 'S', 'S', 'S', 'S', 'C', 'C', 'C', 'C', 'C', 'C', 'C', 'C', 'C', 'C', 'C', 'C', 'C', 'C', 'C', 'C']","[1473503, 1473905, 1474210, 1474576, 1474975, 1475355, 1475731, 1476147, 1476509, 1476997, 1477389, 1477772, 1478198, 1478633, 1479145, 1479577, 1480049, 1480473, 1480852, 1481298, 1481704, 1482146, 1482571, 1483031]","[1473598, 1473990, 1474329, 1474667, 1475070, 1475437, 1475825, 1476233, 1476634, 1477098, 1477502, 1477893, 1478309, 1478754, 1479238, 1479667, 1480113, 1480538, 1480946, 1481409, 1481828, 1482247, 1482647, 1483111]","[1473412, 1473810, 1474210, 1474611, 1475011, 1475411, 1475811, 1476211, 1476537, 1477023, 1477416, 1477799, 1478225, 1478660, 1479172, 1479604, 1480076, 1480500, 1480880, 1481325, 1481731, 1482174, 1482598, 1483058]",8,R,ITM,1.1
5,400,trial,0,72,72,72,"['S', 'S', 'S', 'S', 'S', 'S', 'S', 'S', 'C', 'C', 'C', 'C', 'C', 'C', 'C', 'C', 'C', 'C', 'C', 'C', 'C', 'C', 'C', 'C']","[1488590, 1488962, 1489306, 1489660, 1490021, 1490442, 1490770, 1491148, 1491611, 1492017, 1492412, 1492799, 1493224, 1493664, 1494049, 1494459, 1494881, 1495279, 1495663, 1496118, 1496537, 1496905, 1497361, 1497729]","[1488691, 1489055, 1489415, 1489737, 1490120, 1490530, 1490894, 1491278, 1491744, 1492136, 1492546, 1492925, 1493335, 1493796, 1494169, 1494568, 1494974, 1495379, 1495772, 1496215, 1496642, 1497028, 1497451, 1497843]","[1488435, 1488835, 1489235, 1489635, 1490035, 1490436, 1490835, 1491235, 1491637, 1492042, 1492438, 1492825, 1493250, 1493690, 1494075, 1494484, 1494906, 1495306, 1495689, 1496144, 1496562, 1496931, 1497387, 1497754]",8,R,ITM,1.1
2,400,trial,0,73,73,73,"['S', 'S', 'S', 'S', 'S', 'S', 'S', 'S', 'C', 'C', 'C', 'C', 'C', 'C', 'C', 'C', 'C', 'C', 'C', 'C', 'C', 'C', 'C', 'C']","[1503328, 1503706, 1504033, 1504398, 1504753, 1505196, 1505563, 1505981, 1506348, 1506737, 1507123, 1507522, 1507979, 1508405, 1508782, 1509234, 1509681, 1510152, 1510518, 1510986, 1511406, 1511795, 1512302, 1512709]","[1503412, 1503785, 1504136, 1504493, 1504870, 1505280, 1505704, 1506115, 1506457, 1506827, 1507230, 1507658, 1508133, 1508528, 1508924, 1509362, 1509793, 1510234, 1510639, 1511104, 1511557, 1511989, 1512452, 1512914]","[1503196, 1503594, 1503995, 1504395, 1504794, 1505196, 1505595, 1505995, 1506375, 1506764, 1507149, 1507550, 1508006, 1508431, 1508809, 1509262, 1509707, 1510178, 1510546, 1511014, 1511433, 1511823, 1512330, 1512736]",8,R,ITM,1.1
3,400,trial,0,74,74,74,"['S', 'S', 'S', 'S', 'S', 'S', 'S', 'S', 'C', 'C', 'C', 'C', 'C', 'C', 'C', 'C', 'C', 'C', 'C', 'C', 'C', 'C', 'C', 'C']","[1518297, 1518628, 1518941, 1519348, 1519715, 1520212, 1520547, 1520951, 1521348, 1521790, 1522188, 1522607, 1522992, 1523421, 1523825, 1524249, 1524720, 1525095, 1525551, 1526005, 1526407, 1526857, 1527259, 1527697]","[1518375, 1518739, 1519059, 1519468, 1519811, 1520305, 1520650, 1521069, 1521465, 1521922, 1522299, 1522695, 1523109, 1523548, 1523991, 1524380, 1524828, 1525241, 1525698, 1526152, 1526567, 1526943, 1527372, 1527805]","[1518179, 1518579, 1518980, 1519379, 1519779, 1520179, 1520579, 1520979, 1521374, 1521816, 1522213, 1522632, 1523017, 1523446, 1523851, 1524275, 1524746, 1525121, 1525576, 1526031, 1526432, 1526883, 1527284, 1527723]",8,R,ITM,1.1
4,600,trial,0,75,75,75,"['S', 'S', 'S', 'S', 'S', 'S', 'S', 'S', 'C', 'C', 'C', 'C', 'C', 'C', 'C', 'C', 'C', 'C', 'C', 'C', 'C', 'C', 'C', 'C']","[1533310, 1533621, 1534230, 1534856, 1535511, 1536086, 1536751, 1537423, 1537938, 1538501, 1539088, 1539699, 1540334, 1540927, 1541599, 1542184, 1542749, 1543367, 1543965, 1544578, 1545266, 1545781, 1546440, 1547041]","[1533400, 1533812, 1534444, 1535058, 1535670, 1536295, 1536912, 1537541, 1538139, 1538688, 1539277, 1539863, 1540548, 1541116, 1541827, 1542370, 1542989, 1543548, 1544193, 1544774, 1545425, 1545974, 1546664, 1547235]","[1533180, 1533780, 1534381, 1534981, 1535581, 1536181, 1536781, 1537381, 1537964, 1538528, 1539113, 1539725, 1540360, 1540953, 1541624, 1542210, 1542774, 1543393, 1543991, 1544603, 1545292, 1545806, 1546466, 1547067]",8,R,ITM,1.1
7,400,trial,0,76,76,76,"['B', 'S', 'S', 'S', 'S', 'S', 'S', 'S', 'C', 'C', 'C', 'C', 'C', 'C', 'C', 'C', 'C', 'C', 'C', 'C', 'C', 'C', 'C', 'C']","[1552385, 1552866, 1553238, 1553597, 1554018, 1554405, 1554830, 1555209, 1555607, 1556044, 1556462, 1556902, 1557380, 1557833, 1558292, 1558726, 1559151, 1559630, 1560096, 1560534, 1561014, 1561479, 1561915, 1562402]","[1552536, 1553002, 1553392, 1553734, 1554144, 1554547, 1554977, 1555339, 1555739, 1556188, 1556640, 1557066, 1557506, 1557961, 1558445, 1558882, 1559333, 1559789, 1560241, 1560705, 1561171, 1561624, 1562062, 1562536]","[1552398, 1552797, 1553198, 1553597, 1553997, 1554398, 1554798, 1555198, 1555634, 1556071, 1556489, 1556930, 1557406, 1557860, 1558319, 1558754, 1559178, 1559658, 1560123, 1560561, 1561040, 1561505, 1561942, 1562429]",8,R,ITM,1.1
7,400,trial,0,77,77,77,"['B', 'S', 'S', 'S', 'S', 'S', 'S', 'S', 'C', 'C', 'C', 'C', 'C', 'C', 'C', 'C', 'C', 'C', 'C', 'C', 'C', 'C', 'C', 'C']","[1567784, 1568261, 1568633, 1568986, 1569374, 1569738, 1570161, 1570582, 1570973, 1571403, 1571849, 1572265, 1572692, 1573114, 1573501, 1573943, 1574347, 1574771, 1575141, 1575531, 1575958, 1576389, 1576785, 1577187]","[1567936, 1568373, 1568770, 1569116, 1569511, 1569896, 1570310, 1570728, 1571141, 1571559, 1572025, 1572449, 1572868, 1573259, 1573647, 1574052, 1574481, 1574931, 1575258, 1575766, 1576088, 1576528, 1576934, 1577317]","[1567798, 1568197, 1568598, 1568997, 1569397, 1569798, 1570197, 1570597, 1571001, 1571431, 1571875, 1572293, 1572720, 1573142, 1573528, 1573970, 1574375, 1574798, 1575168, 1575559, 1575985, 1576416, 1576813, 1577214]",8,R,ITM,1.1
4,600,trial,0,78,78,78,"['B', 'S', 'S', 'S', 'S', 'S', 'S', 'S', 'C', 'C', 'C', 'C', 'C', 'C', 'C', 'C', 'C', 'C', 'C', 'C', 'C', 'C', 'C', 'C']","[1582612, 1582983, 1583624, 1584250, 1584885, 1585543, 1586211, 1586941, 1587423, 1588004, 1588581, 1589169, 1589778, 1590335, 1590937, 1591561, 1592098, 1592642, 1593282, 1593924, 1594516, 1595089, 1595666, 1596291]","[1582756, 1583175, 1583877, 1584429, 1585056, 1585725, 1586380, 1587018, 1587628, 1588175, 1588760, 1589377, 1589944, 1590525, 1591095, 1591735, 1592340, 1592890, 1593480, 1594100, 1594639, 1595284, 1595862, 1596526]","[1582624, 1583223, 1583823, 1584423, 1585024, 1585624, 1586224, 1586823, 1587448, 1588030, 1588606, 1589194, 1589804, 1590361, 1590963, 1591586, 1592124, 1592669, 1593309, 1593950, 1594542, 1595115, 1595692, 1596316]",8,R,ITM,1.1
2,600,trial,0,79,79,79,"['S', 'S', 'S', 'S', 'S', 'S', 'S', 'S', 'C', 'C', 'C', 'C', 'C', 'C', 'C', 'C', 'C', 'C', 'C', 'C', 'C', 'C', 'C', 'C']","[1602246, 1602694, 1603127, 1603646, 1604260, 1604829, 1605529, 1606084, 1606827, 1607358, 1608012, 1608625, 1609218, 1609865, 1610494, 1611147, 1611786, 1612402, 1612971, 1613577, 1614180, 1614752, 1615320, 1615900]","[1602345, 1602788, 1603245, 1603792, 1604396, 1604977, 1605627, 1606237, 1606999, 1607552, 1608166, 1608778, 1609382, 1610029, 1610686, 1611355, 1612054, 1612627, 1613237, 1613857, 1614450, 1615021, 1615593, 1616149]","[1601948, 1602548, 1603148, 1603747, 1604348, 1604947, 1605549, 1606148, 1606853, 1607386, 1608040, 1608651, 1609245, 1609891, 1610522, 1611173, 1611813, 1612429, 1612998, 1613604, 1614206, 1614780, 1615347, 1615927]",8,R,ITM,1.1
6,600,trial,0,80,80,80,"['S', 'S', 'S', 'S', 'S', 'S', 'S', 'S', 'C', 'C', 'C', 'C', 'C', 'C', 'C', 'C', 'C', 'C', 'C', 'C', 'C', 'C', 'C', 'C']","[1621844, 1622222, 1622710, 1623291, 1623934, 1624562, 1625154, 1625925, 1626394, 1627083, 1627567, 1628173, 1628747, 1629337, 1629931, 1630544, 1631159, 1631720, 1632250, 1632828, 1633305, 1634017, 1634579, 1635137]","[1621967, 1622408, 1622885, 1623442, 1624115, 1624730, 1625398, 1626082, 1626558, 1627242, 1627827, 1628363, 1628881, 1629486, 1630106, 1630698, 1631271, 1631880, 1632417, 1632940, 1633526, 1634154, 1634782, 1635345]","[1621660, 1622259, 1622859, 1623459, 1624059, 1624659, 1625260, 1625860, 1626422, 1627110, 1627593, 1628199, 1628775, 1629365, 1629958, 1630571, 1631185, 1631747, 1632277, 1632856, 1633332, 1634043, 1634606, 1635164]",8,R,ITM,1.1
5,600,trial,0,81,81,81,"['S', 'S', 'S', 'S', 'S', 'S', 'S', 'S', 'C', 'C', 'C', 'C', 'C', 'C', 'C', 'C', 'C', 'C', 'C', 'C', 'C', 'C', 'C', 'C']","[1641028, 1641523, 1642032, 1642639, 1643252, 1643897, 1644475, 1645025, 1645652, 1646301, 1646859, 1647425, 1647993, 1648591, 1649245, 1649850, 1650464, 1651078, 1651664, 1652273, 1652803, 1653444, 1654100, 1654647]","[1641114, 1641702, 1642240, 1642818, 1643495, 1644091, 1644665, 1645234, 1645803, 1646519, 1647083, 1647620, 1648254, 1648898, 1649527, 1650067, 1650778, 1651365, 1651915, 1652493, 1653059, 1653676, 1654348, 1654901]","[1640892, 1641492, 1642092, 1642692, 1643292, 1643892, 1644492, 1645092, 1645677, 1646326, 1646884, 1647451, 1648019, 1648617, 1649270, 1649875, 1650490, 1651103, 1651690, 1652298, 1652829, 1653471, 1654126, 1654674]",8,R,ITM,1.1
3,400,trial,0,82,82,82,"['S', 'S', 'S', 'S', 'S', 'S', 'S', 'C', 'C', 'C', 'C', 'C', 'C', 'C', 'C', 'C', 'C', 'C', 'C', 'C', 'C', 'C', 'C']","[1660617, 1661077, 1661405, 1661812, 1662242, 1662772, 1663123, 1663492, 1663884, 1664277, 1664718, 1665153, 1665627, 1665987, 1666468, 1666900, 1667322, 1667741, 1668166, 1668575, 1668985, 1669387, 1669783]","[1660762, 1661168, 1661498, 1661999, 1662428, 1662848, 1663226, 1663618, 1664028, 1664434, 1664876, 1665297, 1665737, 1666185, 1666658, 1667091, 1667512, 1667910, 1668333, 1668706, 1669154, 1669567, 1669996]","[1660296, 1660696, 1661096, 1661496, 1661896, 1662297, 1662696, 1663096, 1663517, 1663909, 1664303, 1664744, 1665178, 1665652, 1666013, 1666494, 1666926, 1667348, 1667768, 1668192, 1668600, 1669011, 1669412, 1669809]",8,R,ITM,1.1
4,600,trial,0,83,83,83,"['S', 'S', 'S', 'S', 'S', 'S', 'S', 'S', 'C', 'C', 'C', 'C', 'C', 'C', 'C', 'C', 'C', 'C', 'C', 'C', 'C', 'C', 'C', 'C']","[1675550, 1675891, 1676461, 1677123, 1677692, 1678292, 1678909, 1679584, 1680112, 1680665, 1681286, 1681963, 1682531, 1683093, 1683653, 1684234, 1684889, 1685484, 1686086, 1686694, 1687265, 1687772, 1688379, 1688933]","[1675635, 1676144, 1676702, 1677266, 1677917, 1678536, 1679157, 1679710, 1680400, 1680920, 1681482, 1682103, 1682713, 1683357, 1683938, 1684487, 1685147, 1685712, 1686370, 1686944, 1687539, 1688099, 1688749]","[1675385, 1675984, 1676584, 1677185, 1677785, 1678385, 1678984, 1679584, 1680139, 1680691, 1681311, 1681988, 1682557, 1683120, 1683679, 1684259, 1684915, 1685510, 1686112, 1686720, 1687290, 1687797, 1688404, 1688958]",8,R,ITM,1.1
6,400,trial,0,84,84,84,"['S', 'S', 'S', 'S', 'S', 'S', 'S', 'S', 'C', 'C', 'C', 'C', 'C', 'C', 'C', 'C', 'C', 'C', 'C', 'C', 'C', 'C', 'C', 'C']","[1694891, 1695261, 1695555, 1695902, 1696289, 1696717, 1697084, 1697545, 1698139, 1698545, 1698905, 1699366, 1699786, 1700180, 1700618, 1701037, 1701512, 1701976, 1702411, 1702810, 1703198, 1703634, 1704026, 1704437]","[1695093, 1695368, 1695657, 1696022, 1696397, 1696795, 1697174, 1697974, 1698239, 1698639, 1699023, 1699458, 1699896, 1700285, 1700751, 1701163, 1701622, 1702079, 1702498, 1702896, 1703271, 1703709, 1704146, 1704541]","[1694712, 1695112, 1695512, 1695912, 1696312, 1696712, 1697113, 1697512, 1698166, 1698572, 1698932, 1699393, 1699813, 1700207, 1700645, 1701063, 1701539, 1702002, 1702438, 1702838, 1703225, 1703661, 1704052, 1704464]",8,R,ITM,1.1
7,600,trial,0,85,85,85,"['S', 'S', 'S', 'S', 'S', 'S', 'S', 'S', 'C', 'C', 'C', 'C', 'C', 'C', 'C', 'C', 'C', 'C', 'C', 'C', 'C', 'C', 'C', 'C']","[1710095, 1710432, 1711036, 1711641, 1712290, 1712890, 1713540, 1714189, 1714803, 1715441, 1716002, 1716670, 1717325, 1717919, 1718553, 1719190, 1719813, 1720468, 1721048, 1721647, 1722315, 1722930, 1723583, 1724151]","[1710188, 1710722, 1711308, 1711942, 1712566, 1713118, 1713704, 1714382, 1715070, 1715645, 1716214, 1716827, 1717555, 1718223, 1718888, 1719557, 1720135, 1720728, 1721421, 1721962, 1722550, 1723120, 1723822, 1724396]","[1709976, 1710575, 1711175, 1711775, 1712375, 1712975, 1713575, 1714176, 1714830, 1715469, 1716030, 1716698, 1717352, 1717946, 1718580, 1719218, 1719839, 1720495, 1721074, 1721673, 1722342, 1722957, 1723610, 1724178]",8,R,ITM,1.1
7,400,trial,0,86,86,86,"['S', 'S', 'S', 'S', 'S', 'S', 'S', 'S', 'C', 'C', 'C', 'C', 'C', 'C', 'C', 'C', 'C', 'C', 'C', 'C', 'C', 'C', 'C', 'C']","[1729605, 1730014, 1730249, 1730587, 1730973, 1731386, 1731798, 1732230, 1732649, 1733068, 1733460, 1733905, 1734326, 1734744, 1735168, 1735618, 1736085, 1736495, 1736982, 1737422, 1737888, 1738339, 1738750, 1739190]","[1729732, 1730114, 1730338, 1730713, 1731105, 1731520, 1731935, 1732366, 1732793, 1733204, 1733605, 1734035, 1734498, 1734874, 1735332, 1735732, 1736220, 1736651, 1737120, 1737537, 1738007, 1738485, 1738942, 1739358]","[1729472, 1729871, 1730271, 1730671, 1731072, 1731471, 1731871, 1732272, 1732675, 1733096, 1733487, 1733932, 1734353, 1734770, 1735194, 1735646, 1736112, 1736522, 1737010, 1737450, 1737915, 1738365, 1738776, 1739217]",8,R,ITM,1.1
3,400,trial,0,87,87,87,"['S', 'S', 'S', 'S', 'S', 'S', 'S', 'S', 'C', 'C', 'C', 'C', 'C', 'C', 'C', 'C', 'C', 'C', 'C', 'C', 'C', 'C', 'C', 'C']","[1745115, 1745498, 1745774, 1746171, 1746550, 1746940, 1747387, 1747777, 1748165, 1748564, 1748946, 1749389, 1749774, 1750209, 1750687, 1751070, 1751444, 1751889, 1752366, 1752731, 1753165, 1753584, 1753989, 1754420]","[1745206, 1745577, 1745878, 1746256, 1746647, 1747062, 1747524, 1747881, 1748301, 1748691, 1749110, 1749506, 1749944, 1750347, 1750801, 1751201, 1751595, 1752005, 1752498, 1752864, 1753284, 1753723, 1754155, 1754554]","[1744967, 1745368, 1745767, 1746167, 1746567, 1746967, 1747367, 1747767, 1748191, 1748590, 1748972, 1749414, 1749799, 1750235, 1750713, 1751096, 1751470, 1751915, 1752391, 1752757, 1753191, 1753610, 1754014, 1754445]",8,R,ITM,1.1
2,400,trial,0,88,88,88,"['S', 'S', 'S', 'S', 'S', 'S', 'S', 'S', 'C', 'C', 'C', 'C', 'C', 'C', 'C', 'C', 'C', 'C', 'C', 'C', 'C', 'C', 'C', 'C']","[1760014, 1760355, 1760684, 1761062, 1761433, 1761867, 1762260, 1762662, 1763068, 1763466, 1763887, 1764312, 1764757, 1765192, 1765579, 1766037, 1766468, 1766915, 1767331, 1767774, 1768177, 1768597, 1769008, 1769451]","[1760126, 1760458, 1760777, 1761159, 1761538, 1761975, 1762373, 1762772, 1763167, 1763581, 1763986, 1764413, 1764855, 1765289, 1765713, 1766166, 1766601, 1767030, 1767464, 1767897, 1768302, 1768733, 1769172, 1769604]","[1759883, 1760283, 1760683, 1761082, 1761482, 1761884, 1762283, 1762683, 1763096, 1763493, 1763914, 1764339, 1764784, 1765219, 1765607, 1766065, 1766495, 1766942, 1767359, 1767800, 1768204, 1768624, 1769035, 1769478]",8,R,ITM,1.1
6,400,trial,0,89,89,89,"['S', 'S', 'S', 'S', 'S', 'S', 'S', 'C', 'C', 'C', 'C', 'C', 'C', 'C', 'C', 'C', 'C', 'C', 'C', 'C', 'C', 'C', 'C']","[1775527, 1775940, 1776345, 1776757, 1777147, 1777571, 1777970, 1778408, 1778855, 1779239, 1779645, 1780085, 1780502, 1780919, 1781305, 1781690, 1782124, 1782542, 1782922, 1783315, 1783735, 1784127, 1784561]","[1775628, 1776060, 1776460, 1776868, 1777261, 1777682, 1778098, 1778506, 1778939, 1779349, 1779758, 1780177, 1780606, 1781016, 1781431, 1781796, 1782234, 1782632, 1783058, 1783433, 1783867, 1784269, 1784711]","[1775228, 1775627, 1776027, 1776428, 1776827, 1777227, 1777628, 1778027, 1778435, 1778883, 1779266, 1779672, 1780112, 1780529, 1780945, 1781331, 1781716, 1782152, 1782568, 1782949, 1783342, 1783761, 1784154, 1784589]",8,R,ITM,1.1
2,400,trial,0,90,90,90,"['S', 'S', 'S', 'S', 'S', 'S', 'S', 'C', 'C', 'C', 'C', 'C', 'C', 'C', 'C', 'C', 'C', 'C', 'C', 'C', 'C', 'C', 'C']","[1790430, 1790820, 1791237, 1791659, 1792060, 1792427, 1792822, 1793291, 1793665, 1794092, 1794475, 1794891, 1795304, 1795679, 1796082, 1796486, 1796939, 1797317, 1797758, 1798108, 1798511, 1798945, 1799343]","[1790519, 1790926, 1791346, 1791775, 1792164, 1792558, 1792950, 1793405, 1793767, 1794178, 1794570, 1795006, 1795407, 1795790, 1796208, 1796619, 1797063, 1797475, 1797912, 1798305, 1798714, 1799086, 1799493]","[1790174, 1790574, 1790974, 1791375, 1791775, 1792176, 1792574, 1792974, 1793317, 1793691, 1794118, 1794502, 1794919, 1795331, 1795705, 1796109, 1796512, 1796967, 1797345, 1797786, 1798135, 1798539, 1798973, 1799370]",8,R,ITM,1.1
4,400,trial,0,91,91,91,"['S', 'S', 'S', 'S', 'S', 'S', 'S', 'C', 'C', 'C', 'C', 'C', 'C', 'C', 'C', 'C', 'C', 'C', 'C', 'C', 'C', 'C', 'C']","[1805283, 1805687, 1806085, 1806510, 1806903, 1807319, 1807700, 1808150, 1808555, 1809005, 1809379, 1809772, 1810226, 1810606, 1811013, 1811402, 1811823, 1812221, 1812629, 1813057, 1813424, 1813911, 1814262]","[1805382, 1805811, 1806228, 1806629, 1807040, 1807423, 1807815, 1808278, 1808691, 1809098, 1809503, 1809889, 1810351, 1810749, 1811140, 1811522, 1811945, 1812344, 1812737, 1813161, 1813563, 1813988, 1814431]","[1805041, 1805441, 1805840, 1806240, 1806641, 1807040, 1807440, 1807840, 1808176, 1808580, 1809031, 1809404, 1809799, 1810251, 1810631, 1811039, 1811428, 1811849, 1812247, 1812655, 1813084, 1813449, 1813937, 1814289]",8,R,ITM,1.1
5,400,trial,0,92,92,92,"['S', 'S', 'S', 'S', 'S', 'S', 'S', 'S', 'C', 'C', 'C', 'C', 'C', 'C', 'C', 'C', 'C', 'C', 'C', 'C', 'C', 'C', 'C', 'C']","[1819867, 1820200, 1820555, 1820920, 1821295, 1821705, 1822062, 1822454, 1822870, 1823270, 1823676, 1824036, 1824480, 1824864, 1825312, 1825769, 1826214, 1826676, 1827130, 1827510, 1828006, 1828420, 1828860, 1829345]","[1819950, 1820291, 1820633, 1821002, 1821412, 1821793, 1822167, 1822570, 1822993, 1823403, 1823792, 1824168, 1824600, 1825014, 1825440, 1825908, 1826352, 1826779, 1827218, 1827660, 1828124, 1828545, 1828975, 1829455]","[1819731, 1820130, 1820530, 1820931, 1821330, 1821730, 1822130, 1822530, 1822896, 1823296, 1823703, 1824063, 1824506, 1824890, 1825338, 1825795, 1826240, 1826702, 1827155, 1827535, 1828032, 1828446, 1828886, 1829370]",8,R,ITM,1.1
7,600,trial,0,93,93,93,"['S', 'S', 'S', 'S', 'S', 'S', 'S', 'S', 'C', 'C', 'C', 'C', 'C', 'C', 'C', 'C', 'C', 'C', 'C', 'C', 'C', 'C', 'C', 'C']","[1835038, 1835579, 1836040, 1836657, 1837366, 1837793, 1838404, 1838998, 1839603, 1840091, 1840686, 1841330, 1841937, 1842572, 1843190, 1843794, 1844425, 1845002, 1845574, 1846153, 1846795, 1847440, 1848109, 1848671]","[1835130, 1835638, 1836142, 1836747, 1837428, 1837867, 1838489, 1839078, 1839678, 1840224, 1840787, 1841445, 1842042, 1842703, 1843289, 1843912, 1844525, 1845113, 1845681, 1846292, 1846914, 1847506, 1848211, 1848772]","[1834854, 1835453, 1836053, 1836653, 1837253, 1837853, 1838453, 1839053, 1839630, 1840117, 1840713, 1841356, 1841964, 1842599, 1843218, 1843822, 1844452, 1845029, 1845602, 1846180, 1846822, 1847467, 1848135, 1848698]",8,R,ITM,1.1
3,600,trial,0,94,94,94,"['S', 'S', 'S', 'S', 'S', 'S', 'S', 'S', 'C', 'C', 'C', 'C', 'C', 'C', 'C', 'C', 'C', 'C', 'C', 'C', 'C', 'C', 'C', 'C']","[1854609, 1855092, 1855580, 1856160, 1856744, 1857419, 1858087, 1858686, 1859257, 1859850, 1860466, 1861105, 1861735, 1862376, 1863066, 1863659, 1864270, 1864841, 1865603, 1866257, 1866900, 1867475, 1868094, 1868641]","[1854696, 1855182, 1855660, 1856264, 1856886, 1857529, 1858178, 1858795, 1859364, 1859983, 1860597, 1861209, 1861898, 1862515, 1863205, 1863796, 1864411, 1864975, 1865694, 1866374, 1867026, 1867578, 1868243, 1868805]","[1854456, 1855055, 1855655, 1856256, 1856856, 1857456, 1858055, 1858655, 1859282, 1859875, 1860492, 1861131, 1861761, 1862402, 1863092, 1863685, 1864296, 1864866, 1865628, 1866283, 1866926, 1867501, 1868120, 1868666]",8,R,ITM,1.1
4,400,trial,0,95,95,95,"['S', 'S', 'S', 'S', 'S', 'S', 'S', 'S', 'C', 'C', 'C', 'C', 'C', 'C', 'C', 'C', 'C', 'C', 'C', 'C', 'C', 'C', 'C', 'C']","[1874429, 1874831, 1875147, 1875517, 1875880, 1876246, 1876612, 1877013, 1877477, 1877899, 1878302, 1878704, 1879107, 1879541, 1879981, 1880438, 1880820, 1881227, 1881666, 1882068, 1882572, 1883028, 1883458, 1883887]","[1874514, 1874930, 1875228, 1875644, 1875986, 1876342, 1876701, 1877171, 1877608, 1878021, 1878414, 1878827, 1879233, 1879690, 1880129, 1880565, 1880946, 1881338, 1881787, 1882212, 1882726, 1883206, 1883609, 1884025]","[1874277, 1874676, 1875077, 1875476, 1875876, 1876276, 1876676, 1877076, 1877502, 1877924, 1878329, 1878729, 1879133, 1879567, 1880007, 1880464, 1880846, 1881252, 1881692, 1882094, 1882598, 1883054, 1883484, 1883913]",8,R,ITM,1.1
2,600,trial,0,96,96,96,"['S', 'S', 'S', 'S', 'S', 'S', 'S', 'S', 'C', 'C', 'C', 'C', 'C', 'C', 'C', 'C', 'C', 'C', 'C', 'C', 'C', 'C', 'C', 'C']","[1889860, 1890248, 1890765, 1891464, 1892057, 1892696, 1893301, 1893936, 1894478, 1895114, 1895689, 1896300, 1896906, 1897490, 1898147, 1898775, 1899470, 1900177, 1900796, 1901438, 1902063, 1902723, 1903366, 1903965]","[1889913, 1890392, 1890933, 1891546, 1892171, 1892749, 1893378, 1894003, 1894573, 1895198, 1895788, 1896390, 1897010, 1897591, 1898247, 1898877, 1899564, 1900278, 1900877, 1901534, 1902214, 1902859, 1903467, 1904068]","[1889695, 1890295, 1890895, 1891495, 1892096, 1892696, 1893295, 1893895, 1894505, 1895141, 1895716, 1896327, 1896933, 1897517, 1898175, 1898802, 1899498, 1900205, 1900824, 1901466, 1902090, 1902750, 1903393, 1903992]",8,R,ITM,1.1
3,600,trial,0,97,97,97,"['S', 'S', 'S', 'S', 'S', 'S', 'S', 'S', 'C', 'C', 'C', 'C', 'C', 'C', 'C', 'C', 'C', 'C', 'C', 'C', 'C', 'C', 'C', 'C']","[1909668, 1910105, 1910729, 1911298, 1911928, 1912522, 1913193, 1913692, 1914260, 1914848, 1915474, 1916164, 1916768, 1917391, 1918014, 1918724, 1919380, 1919947, 1920532, 1921118, 1921681, 1922348, 1922909, 1923515]","[1909782, 1910241, 1910828, 1911432, 1912081, 1912631, 1913255, 1913804, 1914349, 1914956, 1915561, 1916218, 1916833, 1917466, 1918106, 1918793, 1919464, 1920034, 1920652, 1921203, 1921761, 1922427, 1923002, 1923588]","[1909556, 1910156, 1910756, 1911356, 1911956, 1912556, 1913156, 1913756, 1914286, 1914873, 1915500, 1916189, 1916793, 1917417, 1918040, 1918749, 1919406, 1919973, 1920558, 1921143, 1921707, 1922373, 1922934, 1923540]",8,R,ITM,1.1
5,600,trial,0,98,98,98,"['S', 'S', 'S', 'S', 'S', 'S', 'S', 'C', 'C', 'C', 'C', 'C', 'C', 'C', 'C', 'C', 'C', 'C', 'C', 'C', 'C', 'C', 'C']","[1929419, 1930121, 1930765, 1931366, 1932021, 1932531, 1933201, 1933819, 1934435, 1935139, 1935752, 1936288, 1936919, 1937557, 1938216, 1938822, 1939491, 1940070, 1940685, 1941316, 1941985, 1942744, 1943290]","[1929531, 1930193, 1930836, 1931448, 1932071, 1932612, 1933250, 1933895, 1934516, 1935193, 1935820, 1936414, 1936993, 1937639, 1938304, 1938930, 1939586, 1940178, 1940772, 1941467, 1942105, 1942845, 1943436]","[1929013, 1929612, 1930212, 1930812, 1931412, 1932012, 1932612, 1933212, 1933845, 1934460, 1935166, 1935777, 1936314, 1936945, 1937583, 1938242, 1938847, 1939517, 1940097, 1940711, 1941342, 1942010, 1942769, 1943316]",8,R,ITM,1.1
7,400,trial,0,99,99,99,"['S', 'S', 'S', 'S', 'S', 'S', 'S', 'S', 'C', 'C', 'C', 'C', 'C', 'C', 'C', 'C', 'C', 'C', 'C', 'C', 'C', 'C', 'C', 'C']","[1948974, 1949366, 1949647, 1949967, 1950369, 1950745, 1951117, 1951495, 1951955, 1952350, 1952709, 1953094, 1953485, 1953874, 1954257, 1954649, 1955043, 1955433, 1955802, 1956197, 1956580, 1956921, 1957330, 1957743]","[1949062, 1949438, 1949717, 1950036, 1950437, 1950812, 1951187, 1951577, 1952032, 1952410, 1952800, 1953171, 1953562, 1953961, 1954325, 1954713, 1955102, 1955480, 1955853, 1956253, 1956637, 1956984, 1957385, 1957811]","[1948824, 1949223, 1949623, 1950023, 1950424, 1950823, 1951223, 1951624, 1951983, 1952376, 1952736, 1953122, 1953512, 1953901, 1954284, 1954675, 1955069, 1955461, 1955828, 1956225, 1956606, 1956948, 1957358, 1957771]",8,R,ITM,1.1
6,600,trial,0,100,100,100,"['S', 'S', 'S', 'S', 'S', 'S', 'S', 'S', 'C', 'C', 'C', 'C', 'C', 'C', 'C', 'C', 'C', 'C', 'C', 'C', 'C', 'C', 'C', 'C']","[1963561, 1963930, 1964402, 1965048, 1965666, 1966224, 1966893, 1967477, 1968082, 1968680, 1969214, 1969799, 1970390, 1971005, 1971548, 1972171, 1972657, 1973274, 1973820, 1974421, 1974967, 1975590, 1976128, 1976680]","[1963629, 1964036, 1964519, 1965135, 1965756, 1966295, 1967000, 1967586, 1968191, 1968744, 1969312, 1969872, 1970477, 1971048, 1971656, 1972211, 1972743, 1973337, 1973910, 1974465, 1975054, 1975650, 1976225, 1976726]","[1963385, 1963985, 1964585, 1965186, 1965786, 1966386, 1966985, 1967585, 1968109, 1968708, 1969241, 1969825, 1970416, 1971032, 1971574, 1972198, 1972683, 1973301, 1973847, 1974448, 1974993, 1975618, 1976156, 1976707]",8,R,ITM,1.1
5,400,trial,0,101,101,101,"['S', 'S', 'S', 'S', 'S', 'S', 'S', 'S', 'C', 'C', 'C', 'C', 'C', 'C', 'C', 'C', 'C', 'C', 'C', 'C', 'C', 'C', 'C', 'C']","[1982530, 1982891, 1983258, 1983563, 1983933, 1984268, 1984632, 1985016, 1985433, 1985854, 1986227, 1986635, 1987063, 1987468, 1987879, 1988275, 1988686, 1989103, 1989510, 1989922, 1990345, 1990735, 1991129, 1991504]","[1982580, 1982947, 1983306, 1983631, 1983980, 1984333, 1984710, 1985084, 1985495, 1985909, 1986296, 1986694, 1987117, 1987530, 1987921, 1988334, 1988730, 1989154, 1989562, 1989975, 1990407, 1990781, 1991184, 1991562]","[1982334, 1982733, 1983133, 1983534, 1983933, 1984333, 1984733, 1985133, 1985459, 1985880, 1986252, 1986661, 1987089, 1987494, 1987905, 1988301, 1988712, 1989130, 1989535, 1989948, 1990371, 1990761, 1991154, 1991530]",8,R,ITM,1.1
5,600,trial,0,102,102,102,"['S', 'S', 'S', 'S', 'S', 'S', 'S', 'S', 'C', 'C', 'C', 'C', 'C', 'C', 'C', 'C', 'C', 'C', 'C', 'C', 'C', 'C', 'C', 'C']","[1997252, 1997742, 1998164, 1998689, 1999272, 1999944, 2000496, 2001071, 2001636, 2002323, 2002831, 2003386, 2003974, 2004567, 2005226, 2005716, 2006599, 2007340, 2007833, 2008438, 2009026, 2009667, 2010175, 2010745]","[1997321, 1997819, 1998267, 1998776, 1999353, 2000054, 2000598, 2001166, 2001751, 2002397, 2002953, 2003473, 2004077, 2004657, 2005372, 2006394, 2006754, 2007383, 2007934, 2008716, 2009155, 2009764, 2010343, 2010836]","[1996962, 1997561, 1998161, 1998761, 1999362, 1999962, 2000562, 2001162, 2001661, 2002350, 2002856, 2003411, 2003999, 2004592, 2005252, 2005742, 2006625, 2007365, 2007859, 2008464, 2009052, 2009694, 2010201, 2010771]",8,R,ITM,1.1
2,400,trial,0,103,103,103,"['S', 'S', 'S', 'S', 'S', 'S', 'S', 'C', 'C', 'C', 'C', 'C', 'C', 'C', 'C', 'C', 'C', 'C', 'C', 'C', 'C', 'C', 'C']","[2016442, 2016831, 2017137, 2017445, 2018111, 2018470, 2019037, 2019414, 2019726, 2020220, 2020638, 2021095, 2021562, 2022011, 2022437, 2022895, 2023319, 2023734, 2024188, 2024614, 2025088, 2025588, 2026021]","[2016508, 2016912, 2017227, 2017541, 2018174, 2018537, 2019093, 2019466, 2019829, 2020284, 2020722, 2021167, 2021608, 2022092, 2022502, 2022975, 2023392, 2023832, 2024264, 2024687, 2025160, 2025640, 2026078]","[2016290, 2016691, 2017090, 2017489, 2017890, 2018289, 2018691, 2019090, 2019441, 2019753, 2020248, 2020665, 2021122, 2021588, 2022039, 2022464, 2022922, 2023347, 2023760, 2024215, 2024642, 2025115, 2025616, 2026049]",8,R,ITM,1.1
6,600,trial,0,104,104,104,"['S', 'S', 'S', 'S', 'S', 'S', 'S', 'S', 'C', 'C', 'C', 'C', 'C', 'C', 'C', 'C', 'C', 'C', 'C', 'C', 'C', 'C', 'C', 'C']","[2031593, 2032059, 2032618, 2033157, 2033851, 2034363, 2034980, 2035557, 2036173, 2036773, 2037366, 2037954, 2038529, 2039112, 2039727, 2040295, 2040885, 2041457, 2042035, 2042590, 2043189, 2043743, 2044448, 2045025]","[2031663, 2032163, 2032698, 2033257, 2033936, 2034456, 2035063, 2035682, 2036272, 2036868, 2037477, 2038052, 2038654, 2039233, 2039825, 2040414, 2040988, 2041569, 2042098, 2042708, 2043328, 2043882, 2044538, 2045126]","[2031453, 2032051, 2032651, 2033251, 2033851, 2034451, 2035051, 2035651, 2036201, 2036801, 2037393, 2037981, 2038555, 2039140, 2039754, 2040322, 2040911, 2041484, 2042062, 2042617, 2043216, 2043769, 2044476, 2045051]",8,R,ITM,1.1
3,400,trial,0,105,105,105,"['S', 'S', 'S', 'S', 'S', 'S', 'S', 'S', 'C', 'C', 'C', 'C', 'C', 'C', 'C', 'C', 'C', 'C', 'C', 'C', 'C', 'C', 'C', 'C']","[2050721, 2051063, 2051371, 2051725, 2052072, 2052457, 2052834, 2053233, 2053644, 2054057, 2054466, 2054876, 2055352, 2055721, 2056197, 2056584, 2057008, 2057413, 2057820, 2058270, 2058706, 2059146, 2059594, 2060023]","[2050810, 2051152, 2051482, 2051812, 2052160, 2052544, 2052931, 2053336, 2053769, 2054177, 2054617, 2055006, 2055473, 2055882, 2056328, 2056727, 2057163, 2057576, 2057977, 2058406, 2058847, 2059272, 2059732, 2060161]","[2050511, 2050911, 2051311, 2051712, 2052111, 2052511, 2052912, 2053311, 2053670, 2054083, 2054492, 2054901, 2055377, 2055747, 2056222, 2056609, 2057033, 2057439, 2057845, 2058296, 2058732, 2059171, 2059620, 2060049]",8,R,ITM,1.1
4,600,trial,0,106,106,106,"['S', 'S', 'S', 'S', 'S', 'S', 'S', 'S', 'C', 'C', 'C', 'C', 'C', 'C', 'C', 'C', 'C', 'C', 'C', 'C', 'C', 'C', 'C', 'C']","[2065822, 2066149, 2066709, 2067380, 2067968, 2068538, 2069199, 2069816, 2070364, 2070967, 2071500, 2071989, 2072495, 2073145, 2073728, 2074256, 2074749, 2075309, 2075843, 2076376, 2076855, 2077424, 2078010, 2078543]","[2065915, 2066310, 2066949, 2067569, 2068174, 2068795, 2069452, 2070031, 2070628, 2071170, 2071671, 2072198, 2072728, 2073317, 2073942, 2074458, 2074985, 2075525, 2076049, 2076597, 2077096, 2077710, 2078215, 2078758]","[2065667, 2066266, 2066866, 2067466, 2068066, 2068666, 2069266, 2069866, 2070389, 2070992, 2071526, 2072014, 2072520, 2073170, 2073753, 2074283, 2074775, 2075335, 2075870, 2076402, 2076880, 2077450, 2078035, 2078569]",8,R,ITM,1.1
7,600,trial,0,107,107,107,"['S', 'S', 'S', 'S', 'S', 'S', 'S', 'S', 'C', 'C', 'C', 'C', 'C', 'C', 'C', 'C', 'C', 'C', 'C', 'C', 'C', 'C', 'C', 'C']","[2084454, 2084974, 2085436, 2085981, 2086619, 2087206, 2087788, 2088371, 2089005, 2089681, 2090281, 2090908, 2091559, 2092158, 2092755, 2093440, 2094053, 2094669, 2095228, 2095818, 2096388, 2096989, 2097555, 2098190]","[2084549, 2085064, 2085547, 2086084, 2086796, 2087425, 2088048, 2088676, 2089273, 2089936, 2090543, 2091073, 2091713, 2092380, 2093029, 2093620, 2094274, 2094855, 2095459, 2096084, 2096650, 2097249, 2097808, 2098393]","[2084285, 2084884, 2085484, 2086084, 2086684, 2087284, 2087884, 2088484, 2089031, 2089709, 2090309, 2090936, 2091586, 2092185, 2092783, 2093466, 2094080, 2094696, 2095256, 2095845, 2096414, 2097016, 2097582, 2098217]",8,R,ITM,1.1
5,400,trial,0,108,108,108,"['S', 'S', 'S', 'S', 'S', 'S', 'S', 'S', 'C', 'C', 'C', 'C', 'C', 'C', 'C', 'C', 'C', 'C', 'C', 'C', 'C', 'C', 'C', 'C']","[2103854, 2104220, 2104430, 2104784, 2105172, 2105538, 2105935, 2106359, 2106809, 2107246, 2107649, 2108080, 2108512, 2108938, 2109333, 2109752, 2110135, 2110546, 2110962, 2111364, 2111771, 2112188, 2112617, 2113011]","[2103967, 2104293, 2104519, 2104886, 2105275, 2105668, 2106093, 2106523, 2106960, 2107387, 2107810, 2108235, 2108666, 2109086, 2109481, 2109888, 2110268, 2110695, 2111152, 2111550, 2111917, 2112325, 2112750, 2113161]","[2103685, 2104083, 2104483, 2104883, 2105283, 2105683, 2106083, 2106483, 2106835, 2107273, 2107675, 2108105, 2108537, 2108963, 2109360, 2109777, 2110160, 2110572, 2110988, 2111389, 2111798, 2112214, 2112643, 2113037]",8,R,ITM,1.1
3,600,trial,0,109,109,109,"['S', 'S', 'S', 'S', 'S', 'S', 'S', 'S', 'C', 'C', 'C', 'C', 'C', 'C', 'C', 'C', 'C', 'C', 'C', 'C', 'C', 'C', 'C', 'C']","[2118750, 2119227, 2119605, 2120147, 2120713, 2121389, 2122028, 2122629, 2123226, 2123855, 2124461, 2125078, 2125717, 2126337, 2126921, 2127520, 2128066, 2128727, 2129378, 2129977, 2130600, 2131139, 2131714, 2132287]","[2118840, 2119383, 2119780, 2120357, 2120983, 2121660, 2122225, 2122860, 2123468, 2124135, 2124707, 2125342, 2125930, 2126558, 2127153, 2127752, 2128409, 2129038, 2129643, 2130224, 2130843, 2131445, 2132004, 2132514]","[2118461, 2119060, 2119660, 2120260, 2120860, 2121460, 2122060, 2122660, 2123251, 2123881, 2124486, 2125104, 2125743, 2126363, 2126947, 2127546, 2128092, 2128752, 2129403, 2130002, 2130626, 2131165, 2131739, 2132313]",8,R,ITM,1.1
7,400,trial,0,110,110,110,"['S', 'S', 'S', 'S', 'S', 'S', 'S', 'S', 'C', 'C', 'C', 'C', 'C', 'C', 'C', 'C', 'C', 'C', 'C', 'C', 'C', 'C', 'C', 'C']","[2138094, 2138478, 2138760, 2139084, 2139468, 2139888, 2140293, 2140739, 2141138, 2141527, 2141899, 2142267, 2142632, 2143003, 2143381, 2143731, 2144110, 2144393, 2144970, 2145386, 2145825, 2146254, 2146712, 2147104]","[2138187, 2138560, 2138843, 2139188, 2139585, 2140004, 2140374, 2140847, 2141284, 2141662, 2142021, 2142388, 2142756, 2143117, 2143514, 2143860, 2144204, 2144566, 2145080, 2145539, 2145960, 2146342, 2146803, 2147223]","[2137972, 2138373, 2138772, 2139172, 2139572, 2139972, 2140372, 2140772, 2141165, 2141554, 2141927, 2142295, 2142659, 2143030, 2143408, 2143759, 2144137, 2144419, 2144997, 2145413, 2145852, 2146281, 2146739, 2147132]",8,R,ITM,1.1
3,600,trial,0,111,111,111,"['S', 'S', 'S', 'S', 'S', 'S', 'S', 'S', 'C', 'C', 'C', 'C', 'C', 'C', 'C', 'C', 'C', 'C', 'C', 'C', 'C', 'C', 'C', 'C']","[2153054, 2153431, 2153961, 2154561, 2155193, 2155786, 2156430, 2156925, 2157492, 2158113, 2158722, 2159364, 2159955, 2160581, 2161193, 2161839, 2162413, 2162972, 2163444, 2164115, 2164791, 2165469, 2166082, 2166640]","[2153177, 2153650, 2154205, 2154816, 2155350, 2155929, 2156613, 2157189, 2157682, 2158298, 2158968, 2159594, 2160167, 2160805, 2161441, 2162070, 2162638, 2163208, 2163870, 2164403, 2164970, 2165578, 2166169, 2166804]","[2152881, 2153479, 2154079, 2154679, 2155279, 2155879, 2156479, 2157079, 2157517, 2158139, 2158747, 2159389, 2159981, 2160607, 2161219, 2161864, 2162439, 2162998, 2163470, 2164141, 2164816, 2165494, 2166108, 2166666]",8,R,ITM,1.1
2,400,trial,0,112,112,112,"['S', 'S', 'S', 'S', 'S', 'S', 'S', 'S', 'C', 'C', 'C', 'C', 'C', 'C', 'C', 'C', 'C', 'C', 'C', 'C', 'C', 'C', 'C', 'C']","[2172536, 2172866, 2173173, 2173526, 2173885, 2174296, 2174686, 2175071, 2175453, 2175959, 2176368, 2176803, 2177221, 2177649, 2178097, 2178537, 2178997, 2179438, 2179901, 2180377, 2180841, 2181258, 2181709, 2182132]","[2172603, 2172955, 2173249, 2173600, 2173978, 2174386, 2174777, 2175169, 2175535, 2176048, 2176461, 2176889, 2177334, 2177719, 2178173, 2178623, 2179068, 2179516, 2179972, 2180457, 2180905, 2181360, 2181797, 2182218]","[2172369, 2172769, 2173169, 2173570, 2173969, 2174369, 2174770, 2175169, 2175480, 2175986, 2176395, 2176830, 2177248, 2177677, 2178124, 2178564, 2179023, 2179465, 2179929, 2180404, 2180869, 2181285, 2181736, 2182160]",8,R,ITM,1.1
7,400,trial,0,113,113,113,"['S', 'S', 'S', 'S', 'S', 'S', 'S', 'C', 'C', 'C', 'C', 'C', 'C', 'C', 'C', 'C', 'C', 'C', 'C', 'C', 'C', 'C', 'C']","[2188006, 2188439, 2188834, 2189265, 2189668, 2190022, 2190424, 2190837, 2191305, 2191692, 2192100, 2192485, 2192860, 2193259, 2193631, 2194043, 2194453, 2194843, 2195247, 2195640, 2196046, 2196448, 2196867]","[2188092, 2188510, 2188908, 2189379, 2189756, 2190112, 2190522, 2190938, 2191396, 2191805, 2192194, 2192600, 2192950, 2193345, 2193743, 2194171, 2194527, 2194940, 2195347, 2195733, 2196157, 2196554, 2196968]","[2187709, 2188108, 2188509, 2188908, 2189308, 2189708, 2190108, 2190509, 2190864, 2191333, 2191720, 2192128, 2192512, 2192887, 2193287, 2193657, 2194071, 2194480, 2194870, 2195274, 2195667, 2196073, 2196475, 2196893]",8,R,ITM,1.1
3,400,trial,0,114,114,114,"['S', 'S', 'S', 'S', 'S', 'S', 'S', 'C', 'C', 'C', 'C', 'C', 'C', 'C', 'C', 'C', 'C', 'C', 'C', 'C', 'C', 'C', 'C']","[2202710, 2203092, 2203481, 2203888, 2204353, 2204801, 2205215, 2205637, 2206072, 2206489, 2206887, 2207300, 2207698, 2208149, 2208553, 2208973, 2209348, 2209822, 2210228, 2210612, 2210979, 2211464, 2211903]","[2202765, 2203170, 2203553, 2203985, 2204462, 2204891, 2205341, 2205761, 2206178, 2206597, 2206995, 2207399, 2207830, 2208313, 2208703, 2209104, 2209503, 2209931, 2210328, 2210725, 2211094, 2211560, 2211991]","[2202456, 2202855, 2203255, 2203655, 2204055, 2204455, 2204855, 2205255, 2205663, 2206098, 2206515, 2206913, 2207326, 2207724, 2208175, 2208578, 2208999, 2209374, 2209848, 2210253, 2210637, 2211005, 2211489, 2211929]",8,R,ITM,1.1
5,400,trial,0,115,115,115,"['S', 'S', 'S', 'S', 'S', 'S', 'S', 'S', 'C', 'C', 'C', 'C', 'C', 'C', 'C', 'C', 'C', 'C', 'C', 'C', 'C', 'C', 'C', 'C']","[2217669, 2217956, 2218296, 2218673, 2219079, 2219491, 2219850, 2220299, 2220686, 2221104, 2221518, 2221879, 2222347, 2222734, 2223092, 2223519, 2223898, 2224264, 2224700, 2225080, 2225496, 2225875, 2226242, 2226664]","[2217766, 2218064, 2218389, 2218779, 2219173, 2219577, 2219972, 2220409, 2220796, 2221203, 2221598, 2221990, 2222462, 2222846, 2223225, 2223644, 2224056, 2224392, 2224827, 2225204, 2225633, 2226032, 2226421, 2226838]","[2217522, 2217920, 2218320, 2218720, 2219120, 2219521, 2219920, 2220320, 2220711, 2221129, 2221544, 2221905, 2222372, 2222759, 2223118, 2223545, 2223924, 2224289, 2224726, 2225105, 2225522, 2225901, 2226268, 2226690]",8,R,ITM,1.1
2,600,trial,0,116,116,116,"['S', 'S', 'S', 'S', 'S', 'S', 'S', 'S', 'C', 'C', 'C', 'C', 'C', 'C', 'C', 'C', 'C', 'C', 'C', 'C', 'C', 'C', 'C', 'C']","[2232384, 2232836, 2233231, 2233746, 2234403, 2235100, 2235770, 2236288, 2236891, 2237456, 2238050, 2238657, 2239256, 2239818, 2240370, 2240959, 2241546, 2242114, 2242682, 2243257, 2243846, 2244429, 2245032, 2245562]","[2232463, 2232916, 2233354, 2233902, 2234566, 2235198, 2235865, 2236470, 2237076, 2237633, 2238241, 2238837, 2239482, 2240013, 2240556, 2241126, 2241734, 2242285, 2242907, 2243482, 2243985, 2244566, 2245207, 2245762]","[2232139, 2232738, 2233339, 2233939, 2234540, 2235140, 2235739, 2236340, 2236917, 2237483, 2238076, 2238684, 2239284, 2239846, 2240397, 2240987, 2241573, 2242141, 2242710, 2243283, 2243873, 2244456, 2245060, 2245590]",8,R,ITM,1.1
2,600,trial,0,117,117,117,"['S', 'S', 'S', 'S', 'S', 'S', 'S', 'S', 'C', 'C', 'C', 'C', 'C', 'C', 'C', 'C', 'C', 'C', 'C', 'C', 'C', 'C', 'C', 'C']","[2251285, 2251652, 2252216, 2252811, 2253514, 2254109, 2254692, 2255309, 2255891, 2256495, 2257140, 2257821, 2258399, 2258956, 2259565, 2260202, 2260818, 2261403, 2262049, 2262651, 2263240, 2263868, 2264468, 2265096]","[2251382, 2251829, 2252370, 2253026, 2253632, 2254246, 2254877, 2255467, 2256047, 2256652, 2257296, 2257954, 2258558, 2259109, 2259722, 2260367, 2260977, 2261652, 2262242, 2262837, 2263457, 2264024, 2264589, 2265230]","[2251109, 2251709, 2252309, 2252909, 2253509, 2254108, 2254709, 2255308, 2255918, 2256523, 2257167, 2257849, 2258426, 2258983, 2259593, 2260229, 2260846, 2261430, 2262076, 2262679, 2263267, 2263895, 2264496, 2265123]",8,R,ITM,1.1
6,400,trial,0,118,118,118,"['S', 'S', 'S', 'S', 'S', 'S', 'S', 'S', 'C', 'C', 'C', 'C', 'C', 'C', 'C', 'C', 'C', 'C', 'C', 'C', 'C', 'C', 'C', 'C']","[2270786, 2271147, 2271419, 2271748, 2272110, 2272516, 2272951, 2273398, 2273780, 2274176, 2274568, 2274938, 2275334, 2275729, 2276145, 2276528, 2276851, 2277334, 2277711, 2278102, 2278497, 2278920, 2279300, 2279642]","[2270883, 2271219, 2271484, 2271830, 2272200, 2272629, 2273083, 2273495, 2273891, 2274289, 2274665, 2275036, 2275445, 2275830, 2276239, 2276623, 2276984, 2277443, 2277825, 2278225, 2278616, 2278991, 2279391, 2279728]","[2270629, 2271029, 2271429, 2271830, 2272229, 2272629, 2273030, 2273429, 2273807, 2274202, 2274594, 2274965, 2275361, 2275756, 2276171, 2276554, 2276878, 2277360, 2277739, 2278129, 2278523, 2278946, 2279326, 2279668]",8,R,ITM,1.1
4,400,trial,0,119,119,119,"['S', 'S', 'S', 'S', 'S', 'S', 'S', 'S', 'C', 'C', 'C', 'C', 'C', 'C', 'C', 'C', 'C', 'C', 'C', 'C', 'C', 'C', 'C', 'C']","[2285225, 2285577, 2285890, 2286280, 2286620, 2287005, 2287380, 2287773, 2288199, 2288571, 2288966, 2289408, 2289806, 2290235, 2290629, 2291008, 2291403, 2291802, 2292161, 2292559, 2292872, 2293337, 2293711, 2294059]","[2285289, 2285665, 2285976, 2286369, 2286707, 2287090, 2287476, 2287869, 2288293, 2288707, 2289121, 2289544, 2289939, 2290335, 2290727, 2291120, 2291501, 2291895, 2292257, 2292679, 2293023, 2293468, 2293790, 2294172]","[2285090, 2285490, 2285890, 2286290, 2286690, 2287090, 2287491, 2287890, 2288225, 2288596, 2288993, 2289433, 2289831, 2290260, 2290655, 2291034, 2291429, 2291827, 2292187, 2292585, 2292897, 2293362, 2293737, 2294085]",8,R,ITM,1.1
6,400,trial,0,120,120,120,"['S', 'S', 'S', 'S', 'S', 'S', 'S', 'S', 'C', 'C', 'C', 'C', 'C', 'C', 'C', 'C', 'C', 'C', 'C', 'C', 'C', 'C', 'C', 'C']","[2299603, 2299911, 2300234, 2300612, 2301006, 2301360, 2301717, 2302179, 2302553, 2302917, 2303298, 2303614, 2303995, 2304404, 2304770, 2305148, 2305525, 2305897, 2306254, 2306609, 2306999, 2307388, 2307788, 2308140]","[2299697, 2300019, 2300324, 2300694, 2301077, 2301452, 2301816, 2302277, 2302650, 2302997, 2303382, 2303736, 2304116, 2304487, 2304867, 2305223, 2305601, 2305972, 2306381, 2306716, 2307109, 2307483, 2307886, 2308269]","[2299445, 2299844, 2300244, 2300644, 2301044, 2301445, 2301844, 2302244, 2302579, 2302944, 2303325, 2303642, 2304022, 2304431, 2304796, 2305175, 2305553, 2305924, 2306281, 2306636, 2307026, 2307416, 2307815, 2308166]",8,R,ITM,1.1
7,600,trial,0,121,121,121,"['S', 'S', 'S', 'S', 'S', 'S', 'S', 'S', 'C', 'C', 'C', 'C', 'C', 'C', 'C', 'C', 'C', 'C', 'C', 'C', 'C', 'C', 'C', 'C']","[2313781, 2314045, 2314501, 2315194, 2315850, 2316455, 2317180, 2317720, 2318452, 2319182, 2319836, 2320476, 2321129, 2321819, 2322482, 2323125, 2323747, 2324470, 2325155, 2325789, 2326352, 2327015, 2327626, 2328215]","[2313859, 2314108, 2314638, 2315346, 2315981, 2316693, 2317318, 2317924, 2318599, 2319318, 2320018, 2320650, 2321325, 2322013, 2322632, 2323347, 2323969, 2324648, 2325342, 2325991, 2326590, 2327262, 2327858, 2328454]","[2313581, 2314180, 2314780, 2315380, 2315980, 2316580, 2317180, 2317780, 2318479, 2319209, 2319862, 2320502, 2321156, 2321847, 2322509, 2323151, 2323774, 2324497, 2325183, 2325816, 2326380, 2327043, 2327653, 2328243]",8,R,ITM,1.1
5,600,trial,0,122,122,122,"['S', 'S', 'S', 'S', 'S', 'S', 'S', 'S', 'C', 'C', 'C', 'C', 'C', 'C', 'C', 'C', 'C', 'C', 'C', 'C', 'C', 'C', 'C', 'C']","[2333996, 2334500, 2334898, 2335435, 2336079, 2336606, 2337216, 2337796, 2338486, 2339037, 2339613, 2340200, 2340839, 2341451, 2342011, 2342531, 2343247, 2343827, 2344535, 2345117, 2345679, 2346222, 2346799, 2347343]","[2334093, 2334581, 2335029, 2335603, 2336227, 2336850, 2337393, 2338098, 2338716, 2339223, 2339790, 2340438, 2341031, 2341669, 2342187, 2342721, 2343388, 2344006, 2344730, 2345336, 2345911, 2346483, 2347087]","[2333765, 2334364, 2334964, 2335564, 2336164, 2336764, 2337364, 2337965, 2338512, 2339062, 2339639, 2340227, 2340865, 2341477, 2342038, 2342556, 2343274, 2343853, 2344561, 2345143, 2345705, 2346248, 2346824, 2347369]",8,R,ITM,1.1
4,400,trial,0,123,123,123,"['S', 'S', 'S', 'S', 'S', 'S', 'S', 'S', 'C', 'C', 'C', 'C', 'C', 'C', 'C', 'C', 'C', 'C', 'C', 'C', 'C', 'C', 'C', 'C']","[2353148, 2353532, 2353839, 2354162, 2354552, 2354902, 2355296, 2355702, 2356060, 2356524, 2356886, 2357257, 2357670, 2358064, 2358431, 2358814, 2359200, 2359583, 2359968, 2360395, 2360773, 2361156, 2361576, 2361973]","[2353254, 2353612, 2353921, 2354241, 2354624, 2355000, 2355382, 2355775, 2356153, 2356597, 2356963, 2357334, 2357757, 2358116, 2358510, 2358928, 2359291, 2359692, 2360081, 2360485, 2360865, 2361273, 2361641, 2362077]","[2352975, 2353374, 2353774, 2354174, 2354574, 2354974, 2355375, 2355774, 2356085, 2356549, 2356912, 2357282, 2357697, 2358089, 2358457, 2358840, 2359227, 2359609, 2359995, 2360421, 2360799, 2361182, 2361602, 2361999]",8,R,ITM,1.1
4,600,trial,0,124,124,124,"['S', 'S', 'S', 'S', 'S', 'S', 'S', 'S', 'C', 'C', 'C', 'C', 'C', 'C', 'C', 'C', 'C', 'C', 'C', 'C', 'C', 'C', 'C', 'C']","[2367679, 2368180, 2368546, 2369153, 2369775, 2370392, 2370967, 2371515, 2372159, 2372701, 2373374, 2373910, 2374479, 2375037, 2375618, 2376217, 2376799, 2377375, 2377958, 2378545, 2379130, 2379709, 2380294, 2380858]","[2367762, 2368265, 2368655, 2369264, 2369884, 2370507, 2371099, 2371685, 2372303, 2372882, 2373506, 2374107, 2374645, 2375212, 2375761, 2376350, 2376945, 2377524, 2378107, 2378705, 2379281, 2379876, 2380448, 2380996]","[2367405, 2368005, 2368605, 2369205, 2369805, 2370405, 2371005, 2371605, 2372185, 2372726, 2373400, 2373936, 2374505, 2375063, 2375645, 2376243, 2376825, 2377401, 2377985, 2378570, 2379156, 2379736, 2380319, 2380884]",8,R,ITM,1.1
6,600,trial,0,125,125,125,"['B', 'S', 'S', 'S', 'S', 'S', 'S', 'S', 'C', 'C', 'C', 'C', 'C', 'C', 'C', 'C', 'C', 'C', 'C', 'C', 'C', 'C', 'C', 'C']","[2386310, 2386751, 2387459, 2388029, 2388699, 2389209, 2389850, 2390501, 2391069, 2391626, 2392256, 2392852, 2393476, 2394078, 2394618, 2395233, 2395841, 2396545, 2397153, 2397819, 2398401, 2399043, 2399664, 2400266]","[2386445, 2387087, 2387631, 2388244, 2388888, 2389430, 2390018, 2390710, 2391329, 2391858, 2392458, 2393015, 2393708, 2394212, 2394844, 2395419, 2396054, 2396690, 2397287, 2397961, 2398526, 2399169, 2399774, 2400389]","[2386323, 2386922, 2387522, 2388122, 2388722, 2389322, 2389922, 2390522, 2391096, 2391653, 2392283, 2392880, 2393503, 2394104, 2394646, 2395260, 2395868, 2396571, 2397179, 2397847, 2398428, 2399071, 2399690, 2400293]",8,R,ITM,1.1
