octave,ioi,event,.thisRepN,.thisTrialN,.thisN,.thisIndex,event,tap_types,tap_times,release_times,tone_times,subject,handedness,experiment,version,
,,SPR,0,-1,-1,0,SPR,"['P', 'P', 'P', 'P', 'P', 'P', 'P', 'P', 'P', 'P', 'P', 'P', 'P', 'P', 'P', 'P', 'P', 'P', 'P', 'P', 'P', 'P', 'P', 'P', 'P', 'P', 'P', 'P', 'P', 'P']","[38061, 38750, 39417, 40016, 40717, 41379, 42054, 42753, 43407, 44085, 44805, 45476, 46113, 46775, 47452, 48160, 48843, 49470, 50154, 50831, 51489, 52124, 52725, 53430, 54074, 54722, 55335, 55950, 56625, 57243]","[38256, 38919, 39566, 40183, 40847, 41501, 42160, 42845, 43561, 44226, 44935, 45566, 46204, 46888, 47569, 48296, 48989, 49586, 50270, 50921, 51611, 52273, 52842, 53555, 54196, 54828, 55462, 56083, 56733, 57344]",,24,R,ITM,1.1,
6,500,practice,0,0,0,0,practice,"['S', 'S', 'S', 'S', 'S', 'S', 'S', 'C', 'C', 'C', 'C', 'C', 'C', 'C', 'C', 'C', 'C', 'C', 'C', 'C', 'C', 'C', 'C']","[114345, 114972, 115508, 115991, 116478, 116948, 117412, 117912, 118431, 118914, 119410, 119868, 120376, 120876, 121353, 121830, 122322, 122784, 123262, 123764, 124229, 124749, 125247]","[114524, 115116, 115636, 116130, 116604, 117074, 117554, 118064, 118547, 119028, 119519, 119994, 120485, 120973, 121447, 121949, 122425, 122882, 123350, 123846, 124332, 124848, 125351]","[114006, 114504, 115004, 115505, 116004, 116504, 117004, 117505, 117940, 118459, 118940, 119437, 119895, 120403, 120903, 121380, 121857, 122350, 122812, 123289, 123791, 124256, 124776, 125274]",24,R,ITM,1.1,
7,500,practice,0,1,1,1,practice,"['B', 'S', 'S', 'S', 'S', 'S', 'S', 'S', 'C', 'C', 'C', 'C', 'C', 'C', 'C', 'C', 'C', 'C', 'C', 'C', 'C', 'C', 'C', 'C']","[130864, 131299, 131785, 132286, 132795, 133299, 133840, 134313, 134829, 135302, 135837, 136325, 136776, 137311, 137823, 138301, 138762, 139238, 139781, 140233, 140679, 141202, 141721, 142226]","[131019, 131465, 131939, 132435, 132947, 133472, 133999, 134449, 134963, 135461, 135961, 136457, 136944, 137490, 137946, 138411, 138878, 139368, 139859, 140386, 140843, 141369, 141874, 142376]","[130877, 131377, 131876, 132376, 132876, 133377, 133876, 134376, 134856, 135328, 135864, 136351, 136804, 137337, 137850, 138329, 138789, 139266, 139808, 140260, 140705, 141229, 141749, 142254]",24,R,ITM,1.1,
3,500,practice,0,2,2,2,practice,"['S', 'S', 'S', 'S', 'S', 'S', 'S', 'C', 'C', 'C', 'C', 'C', 'C', 'C', 'C', 'C', 'C', 'C', 'C', 'C', 'C', 'C', 'C']","[148268, 148689, 149182, 149703, 150222, 150729, 151216, 151738, 152241, 152712, 153252, 153722, 154208, 154691, 155181, 155692, 156190, 156668, 157157, 157646, 158141, 158655, 159127]","[148378, 148861, 149356, 149863, 150355, 150855, 151343, 151863, 152367, 152834, 153376, 153856, 154340, 154816, 155325, 155825, 156322, 156791, 157281, 157778, 158247, 158769, 159240]","[147815, 148315, 148814, 149314, 149814, 150315, 150814, 151314, 151763, 152266, 152737, 153278, 153748, 154233, 154717, 155206, 155717, 156216, 156694, 157182, 157672, 158167, 158681, 159154]",24,R,ITM,1.1,
2,500,practice,0,3,3,3,practice,"['S', 'S', 'S', 'S', 'S', 'S', 'S', 'S', 'C', 'C', 'C', 'C', 'C', 'C', 'C', 'C', 'C', 'C', 'C', 'C', 'C', 'C', 'C', 'C']","[164907, 165190, 165658, 166148, 166635, 167121, 167626, 168162, 168610, 169138, 169635, 170153, 170647, 171146, 171672, 172180, 172705, 173214, 173693, 174224, 174736, 175225, 175770, 176262]","[165023, 165342, 165796, 166274, 166757, 167221, 167748, 168268, 168748, 169288, 169777, 170287, 170797, 171305, 171863, 172355, 172857, 173371, 173865, 174398, 174875, 175427, 175911, 176407]","[164701, 165200, 165700, 166200, 166700, 167199, 167700, 168200, 168638, 169164, 169663, 170181, 170675, 171172, 171699, 172207, 172732, 173241, 173721, 174251, 174764, 175252, 175798, 176288]",24,R,ITM,1.1,
5,500,practice,0,4,4,4,practice,"['S', 'S', 'S', 'S', 'S', 'S', 'S', 'S', 'C', 'C', 'C', 'C', 'C', 'C', 'C', 'C', 'C', 'C', 'C', 'C', 'C', 'C', 'C', 'C']","[182167, 182536, 182958, 183418, 183921, 184428, 184951, 185430, 185953, 186444, 186959, 187447, 187934, 188434, 188931, 189431, 189938, 190359, 190865, 191353, 191845, 192369, 192849, 193382]","[182293, 182659, 183084, 183556, 184076, 184594, 185046, 185540, 186077, 186577, 187060, 187565, 188055, 188566, 189046, 189536, 190030, 190468, 190966, 191462, 191961, 192475, 192965, 193479]","[181992, 182492, 182991, 183491, 183991, 184492, 184991, 185491, 185979, 186470, 186985, 187472, 187960, 188460, 188956, 189457, 189965, 190385, 190892, 191380, 191872, 192395, 192875, 193409]",24,R,ITM,1.1,
4,500,practice,0,5,5,5,practice,"['S', 'S', 'S', 'S', 'S', 'S', 'S', 'S', 'C', 'C', 'C', 'C', 'C', 'C', 'C', 'C', 'C', 'C', 'C', 'C', 'C', 'C', 'C', 'C']","[199398, 199703, 200144, 200631, 201113, 201613, 202120, 202654, 203155, 203661, 204139, 204612, 205134, 205642, 206159, 206678, 207185, 207664, 208193, 208714, 209234, 209775, 210253, 210708]","[199487, 199826, 200271, 200760, 201234, 201761, 202265, 202795, 203305, 203823, 204281, 204782, 205286, 205791, 206325, 206853, 207349, 207846, 208373, 208896, 209430, 209892, 210393, 210860]","[199198, 199697, 200198, 200697, 201197, 201697, 202198, 202697, 203181, 203686, 204165, 204638, 205160, 205668, 206185, 206703, 207211, 207689, 208219, 208740, 209260, 209802, 210280, 210734]",24,R,ITM,1.1,
5,600,trial,0,6,6,6,trial,"['S', 'S', 'S', 'S', 'S', 'S', 'S', 'S', 'C', 'C', 'C', 'C', 'C', 'C', 'C', 'C', 'C', 'C', 'C', 'C', 'C', 'C', 'C', 'C']","[249899, 250231, 250822, 251475, 252167, 252775, 253358, 253971, 254532, 255074, 255669, 256262, 256823, 257406, 257968, 258577, 259145, 259730, 260297, 260857, 261465, 262018, 262574, 263158]","[250044, 250383, 250972, 251654, 252313, 252924, 253488, 254127, 254646, 255191, 255780, 256369, 256949, 257519, 258108, 258708, 259283, 259889, 260431, 260986, 261588, 262165, 262701, 263278]","[249768, 250368, 250968, 251568, 252167, 252767, 253367, 253967, 254558, 255099, 255694, 256287, 256848, 257432, 257993, 258603, 259172, 259756, 260324, 260883, 261490, 262043, 262599, 263185]",24,R,ITM,1.1,
5,400,trial,0,7,7,7,trial,"['S', 'S', 'S', 'S', 'S', 'S', 'S', 'C', 'C', 'C', 'C', 'C', 'C', 'C', 'C', 'C', 'C', 'C', 'C', 'C', 'C', 'C', 'C']","[269077, 269489, 270034, 270428, 270838, 271270, 271666, 272073, 272460, 272838, 273265, 273654, 274025, 274429, 274861, 275247, 275622, 276020, 276383, 276807, 277186, 277560, 277967]","[269188, 269609, 270131, 270531, 270949, 271363, 271761, 272162, 272542, 272935, 273348, 273774, 274147, 274545, 274940, 275352, 275719, 276107, 276485, 276912, 277299, 277677, 278078]","[268930, 269329, 269729, 270130, 270530, 270930, 271330, 271730, 272099, 272486, 272864, 273291, 273680, 274051, 274455, 274886, 275273, 275648, 276046, 276409, 276833, 277212, 277585, 277993]",24,R,ITM,1.1,
2,400,trial,0,8,8,8,trial,"['S', 'S', 'S', 'S', 'S', 'S', 'S', 'C', 'C', 'C', 'C', 'C', 'C', 'C', 'C', 'C', 'C', 'C', 'C', 'C', 'C', 'C', 'C']","[283696, 284078, 284587, 285048, 285449, 285877, 286260, 286665, 287084, 287466, 287855, 288261, 288628, 289019, 289392, 289824, 290222, 290619, 290970, 291387, 291785, 292167, 292597]","[283790, 284186, 284686, 285136, 285536, 285926, 286337, 286770, 287171, 287552, 287949, 288333, 288704, 289107, 289490, 289886, 290320, 290686, 291065, 291484, 291888, 292289, 292695]","[283536, 283935, 284337, 284735, 285136, 285536, 285936, 286337, 286693, 287111, 287494, 287882, 288287, 288656, 289047, 289420, 289852, 290249, 290646, 290997, 291414, 291812, 292195, 292625]",24,R,ITM,1.1,
2,400,trial,0,9,9,9,trial,"['S', 'S', 'S', 'S', 'S', 'S', 'S', 'S', 'C', 'C', 'C', 'C', 'C', 'C', 'C', 'C', 'C', 'C', 'C', 'C', 'C', 'C', 'C', 'C']","[298100, 298404, 298693, 299090, 299516, 299892, 300314, 300710, 301131, 301496, 301918, 302305, 302720, 303115, 303512, 303922, 304361, 304738, 305136, 305502, 305884, 306290, 306703, 307074]","[298187, 298493, 298793, 299197, 299629, 300000, 300428, 300804, 301224, 301621, 302026, 302414, 302823, 303224, 303601, 304024, 304444, 304836, 305211, 305584, 305968, 306374, 306772, 307154]","[297945, 298343, 298744, 299144, 299545, 299944, 300345, 300744, 301159, 301522, 301944, 302332, 302747, 303141, 303539, 303949, 304389, 304765, 305164, 305529, 305911, 306318, 306731, 307100]",24,R,ITM,1.1,
3,400,trial,0,10,10,10,trial,"['S', 'S', 'S', 'S', 'S', 'S', 'S', 'S', 'C', 'C', 'C', 'C', 'C', 'C', 'C', 'C', 'C', 'C', 'C', 'C', 'C', 'C', 'C', 'C']","[312833, 313110, 313439, 313824, 314222, 314646, 315032, 315433, 315854, 316274, 316649, 317077, 317467, 317903, 318282, 318663, 319083, 319515, 319881, 320267, 320662, 321089, 321447, 321862]","[312924, 313223, 313534, 313934, 314323, 314738, 315148, 315553, 315960, 316360, 316753, 317163, 317569, 318006, 318390, 318764, 319179, 319598, 319953, 320350, 320763, 321163, 321522, 321927]","[312675, 313074, 313475, 313874, 314274, 314674, 315074, 315474, 315880, 316300, 316675, 317103, 317493, 317929, 318308, 318689, 319109, 319541, 319906, 320292, 320688, 321115, 321473, 321888]",24,R,ITM,1.1,
6,600,trial,0,11,11,11,trial,"['S', 'S', 'S', 'S', 'S', 'S', 'S', 'S', 'C', 'C', 'C', 'C', 'C', 'C', 'C', 'C', 'C', 'C', 'C', 'C', 'C', 'C', 'C', 'C']","[327771, 328263, 328675, 329260, 329830, 330420, 331054, 331585, 332166, 332741, 333309, 333849, 334426, 335003, 335526, 336100, 336664, 337207, 337751, 338282, 338810, 339354, 339902, 340486]","[327840, 328360, 328777, 329360, 329930, 330533, 331165, 331708, 332282, 332847, 333390, 333953, 334525, 335095, 335631, 336208, 336771, 337308, 337856, 338409, 338945, 339463, 340013, 340587]","[327494, 328094, 328694, 329294, 329894, 330494, 331095, 331695, 332193, 332769, 333336, 333876, 334452, 335030, 335554, 336126, 336691, 337234, 337777, 338309, 338838, 339381, 339929, 340513]",24,R,ITM,1.1,
6,600,trial,0,12,12,12,trial,"['S', 'S', 'S', 'S', 'S', 'S', 'S', 'S', 'C', 'C', 'C', 'C', 'C', 'C', 'C', 'C', 'C', 'C', 'C', 'C', 'C', 'C', 'C', 'C']","[346293, 346601, 347104, 347723, 348387, 349017, 349590, 350136, 350751, 351386, 351961, 352506, 353108, 353687, 354306, 354856, 355439, 356036, 356586, 357167, 357738, 358339, 358906, 359475]","[346379, 346714, 347207, 347857, 348500, 349117, 349671, 350245, 350861, 351494, 352059, 352612, 353200, 353792, 354390, 354958, 355538, 356145, 356691, 357280, 357806, 358410, 359000, 359570]","[346058, 346657, 347257, 347857, 348457, 349058, 349658, 350258, 350778, 351413, 351988, 352533, 353135, 353715, 354333, 354883, 355466, 356063, 356613, 357194, 357766, 358367, 358934, 359501]",24,R,ITM,1.1,
4,600,trial,0,13,13,13,trial,"['S', 'S', 'S', 'S', 'S', 'S', 'S', 'C', 'C', 'C', 'C', 'C', 'C', 'C', 'C', 'C', 'C', 'C', 'C', 'C', 'C', 'C', 'C']","[365863, 366341, 366903, 367521, 368133, 368749, 369325, 369955, 370534, 371118, 371666, 372216, 372802, 373377, 373946, 374491, 375085, 375659, 376203, 376762, 377318, 377846, 378417]","[365966, 366468, 367043, 367617, 368218, 368839, 369406, 370040, 370618, 371198, 371751, 372318, 372889, 373474, 374031, 374615, 375193, 375757, 376293, 376852, 377414, 377938, 378497]","[365228, 365828, 366428, 367027, 367627, 368227, 368827, 369427, 369981, 370560, 371143, 371692, 372242, 372828, 373402, 373971, 374516, 375110, 375685, 376228, 376787, 377344, 377872, 378442]",24,R,ITM,1.1,
3,600,trial,0,14,14,14,trial,"['S', 'S', 'S', 'S', 'S', 'S', 'S', 'S', 'C', 'C', 'C', 'C', 'C', 'C', 'C', 'C', 'C', 'C', 'C', 'C', 'C', 'C', 'C', 'C']","[384128, 384536, 385028, 385658, 386299, 386897, 387522, 388110, 388684, 389283, 389862, 390440, 391031, 391588, 392182, 392780, 393401, 393964, 394548, 395115, 395673, 396301, 396878, 397420]","[384215, 384642, 385135, 385757, 386387, 386970, 387606, 388192, 388777, 389380, 389954, 390539, 391129, 391689, 392267, 392878, 393478, 394047, 394649, 395214, 395796, 396379, 396958, 397516]","[383944, 384544, 385144, 385744, 386344, 386945, 387545, 388145, 388710, 389309, 389888, 390466, 391057, 391614, 392208, 392806, 393426, 393990, 394573, 395141, 395699, 396326, 396904, 397446]",24,R,ITM,1.1,
5,400,trial,0,15,15,15,trial,"['S', 'S', 'S', 'S', 'S', 'S', 'S', 'C', 'C', 'C', 'C', 'C', 'C', 'C', 'C', 'C', 'C', 'C', 'C', 'C', 'C', 'C', 'C']","[402994, 403333, 403784, 404297, 404682, 405137, 405552, 405951, 406345, 406764, 407165, 407561, 407890, 408300, 408761, 409169, 409583, 410013, 410415, 410848, 411275, 411702, 412158]","[403083, 403418, 403896, 404367, 404781, 405206, 405642, 406031, 406416, 406825, 407218, 407640, 407972, 408391, 408832, 409251, 409669, 410090, 410499, 410933, 411347, 411771, 412232]","[402804, 403204, 403603, 404003, 404403, 404803, 405203, 405603, 405977, 406372, 406790, 407191, 407586, 407916, 408326, 408786, 409195, 409609, 410040, 410440, 410873, 411300, 411727, 412185]",24,R,ITM,1.1,
3,400,trial,0,16,16,16,trial,"['S', 'S', 'S', 'S', 'S', 'S', 'S', 'S', 'C', 'C', 'C', 'C', 'C', 'C', 'C', 'C', 'C', 'C', 'C', 'C', 'C', 'C', 'C', 'C']","[418067, 418441, 418764, 419098, 419505, 419913, 420326, 420723, 421115, 421524, 421915, 422323, 422742, 423138, 423549, 423924, 424336, 424702, 425166, 425579, 425953, 426338, 426838, 427241]","[418135, 418529, 418855, 419176, 419586, 419995, 420406, 420794, 421204, 421605, 422016, 422423, 422833, 423228, 423657, 424010, 424425, 424816, 425245, 425679, 426075, 426461, 426919, 427360]","[417953, 418354, 418754, 419154, 419554, 419954, 420355, 420754, 421141, 421550, 421941, 422348, 422767, 423163, 423575, 423950, 424361, 424728, 425192, 425605, 425978, 426363, 426863, 427267]",24,R,ITM,1.1,
7,400,trial,0,17,17,17,trial,"['S', 'S', 'S', 'S', 'S', 'S', 'C', 'C', 'C', 'C', 'C', 'C', 'C', 'C', 'C', 'C', 'C', 'C', 'C', 'C', 'C', 'C']","[433377, 433773, 434192, 434562, 434967, 435372, 435771, 436164, 436559, 436974, 437393, 437781, 438201, 438584, 438972, 439372, 439776, 440147, 440538, 440999, 441369, 441759]","[433473, 433871, 434277, 434657, 435052, 435462, 435855, 436242, 436646, 437050, 437477, 437855, 438281, 438677, 439062, 439454, 439863, 440248, 440643, 441048, 441459, 441842]","[432653, 433052, 433453, 433852, 434252, 434653, 435052, 435452, 435798, 436192, 436587, 437002, 437421, 437808, 438227, 438610, 439000, 439399, 439803, 440174, 440565, 441026, 441396, 441786]",24,R,ITM,1.1,
4,400,trial,0,18,18,18,trial,"['S', 'S', 'S', 'S', 'S', 'S', 'S', 'S', 'C', 'C', 'C', 'C', 'C', 'C', 'C', 'C', 'C', 'C', 'C', 'C', 'C', 'C', 'C', 'C']","[449009, 449312, 449636, 449976, 450379, 450758, 451178, 451586, 451972, 452382, 452799, 453133, 453539, 453956, 454361, 454767, 455225, 455605, 456015, 456438, 456811, 457158, 457564, 458030]","[449093, 449421, 449715, 450073, 450467, 450850, 451263, 451670, 452064, 452467, 452878, 453227, 453639, 454065, 454460, 454879, 455311, 455702, 456116, 456529, 456902, 457273, 457682, 458113]","[448834, 449233, 449633, 450033, 450434, 450833, 451233, 451634, 451997, 452408, 452825, 453158, 453565, 453983, 454386, 454793, 455250, 455630, 456041, 456464, 456838, 457184, 457589, 458056]",24,R,ITM,1.1,
4,400,trial,0,19,19,19,trial,"['S', 'S', 'S', 'S', 'S', 'S', 'C', 'C', 'C', 'C', 'C', 'C', 'C', 'C', 'C', 'C', 'C', 'C', 'C', 'C', 'C', 'C']","[464521, 464927, 465338, 465738, 466150, 466563, 466951, 467361, 467793, 468117, 468507, 468911, 469313, 469712, 470154, 470515, 470899, 471294, 471732, 472116, 472509, 472888]","[464604, 465014, 465431, 465838, 466249, 466669, 467040, 467451, 467886, 468245, 468630, 469005, 469402, 469804, 470221, 470597, 470984, 471377, 471829, 472185, 472585, 472974]","[463796, 464195, 464595, 464995, 465395, 465796, 466195, 466595, 466977, 467387, 467819, 468144, 468533, 468936, 469339, 469738, 470179, 470541, 470926, 471319, 471757, 472141, 472535, 472913]",24,R,ITM,1.1,
4,600,trial,0,20,20,20,trial,"['S', 'S', 'S', 'S', 'S', 'S', 'S', 'S', 'S', 'C', 'C', 'C', 'C', 'C', 'C', 'C', 'C', 'C', 'C', 'C', 'C', 'C', 'C', 'C', 'C']","[478638, 478882, 479251, 479672, 480093, 480649, 481244, 481854, 482405, 482992, 483556, 484134, 484668, 485178, 485733, 486296, 486853, 487390, 487974, 488548, 489082, 489605, 490136, 490707, 491234]","[478722, 478992, 479363, 479787, 480193, 480762, 481369, 481952, 482516, 483117, 483640, 484233, 484764, 485292, 485834, 486407, 486942, 487503, 488080, 488651, 489175, 489719, 490230, 490783, 491319]","[478349, 478949, 479549, 480149, 480749, 481349, 481949, 482549, 483018, 483581, 484160, 484694, 485204, 485760, 486322, 486879, 487415, 488000, 488573, 489108, 489630, 490162, 490733, 491259]",24,R,ITM,1.1,
3,600,trial,0,21,21,21,trial,"['S', 'S', 'S', 'S', 'S', 'S', 'S', 'S', 'C', 'C', 'C', 'C', 'C', 'C', 'C', 'C', 'C', 'C', 'C', 'C', 'C', 'C', 'C', 'C']","[497138, 497474, 498016, 498723, 499333, 499903, 500484, 501085, 501682, 502282, 502832, 503374, 503916, 504444, 505039, 505586, 506176, 506728, 507297, 507870, 508405, 508947, 509537, 510081]","[497222, 497603, 498144, 498843, 499442, 500000, 500585, 501196, 501769, 502378, 502943, 503472, 504026, 504547, 505152, 505678, 506262, 506824, 507382, 507963, 508484, 509038, 509621, 510177]","[496967, 497567, 498167, 498767, 499367, 499968, 500568, 501168, 501707, 502307, 502857, 503400, 503942, 504470, 505065, 505612, 506202, 506754, 507323, 507895, 508431, 508973, 509562, 510106]",24,R,ITM,1.1,
7,600,trial,0,22,22,22,trial,"['S', 'S', 'S', 'S', 'S', 'S', 'S', 'S', 'C', 'C', 'C', 'C', 'C', 'C', 'C', 'C', 'C', 'C', 'C', 'C', 'C', 'C', 'C', 'C']","[515931, 516238, 516722, 517332, 517939, 518526, 519148, 519734, 520310, 520910, 521455, 521954, 522537, 523133, 523681, 524261, 524785, 525400, 525942, 526459, 526990, 527553, 528087, 528678]","[516006, 516336, 516846, 517456, 518055, 518637, 519250, 519828, 520420, 520990, 521549, 522075, 522645, 523232, 523765, 524358, 524876, 525491, 526046, 526573, 527118, 527668, 528204, 528758]","[515638, 516237, 516837, 517437, 518037, 518637, 519237, 519837, 520337, 520938, 521483, 521980, 522565, 523160, 523708, 524288, 524813, 525426, 525970, 526486, 527016, 527580, 528114, 528705]",24,R,ITM,1.1,
7,400,trial,0,23,23,23,trial,"['S', 'S', 'S', 'S', 'S', 'S', 'S', 'C', 'C', 'C', 'C', 'C', 'C', 'C', 'C', 'C', 'C', 'C', 'C', 'C', 'C', 'C', 'C']","[534369, 534689, 535280, 535674, 536056, 536492, 536895, 537266, 537682, 538125, 538478, 538905, 539301, 539750, 540114, 540514, 540913, 541309, 541709, 542095, 542524, 542923, 543321]","[534443, 534788, 535375, 535771, 536168, 536595, 536982, 537359, 537775, 538207, 538622, 539026, 539438, 539865, 540270, 540641, 541029, 541434, 541809, 542224, 542646, 543041, 543450]","[534155, 534554, 534955, 535354, 535754, 536155, 536554, 536954, 537292, 537710, 538151, 538505, 538932, 539329, 539778, 540141, 540541, 540941, 541337, 541736, 542121, 542551, 542951, 543348]",24,R,ITM,1.1,
2,600,trial,0,24,24,24,trial,"['S', 'S', 'S', 'S', 'S', 'S', 'S', 'S', 'C', 'C', 'C', 'C', 'C', 'C', 'C', 'C', 'C', 'C', 'C', 'C', 'C', 'C', 'C', 'C']","[549226, 549543, 550150, 550807, 551417, 552039, 552613, 553190, 553794, 554384, 554959, 555527, 556078, 556643, 557248, 557806, 558338, 558920, 559492, 560036, 560625, 561123, 561689, 562238]","[549307, 549671, 550245, 550898, 551504, 552124, 552706, 553289, 553891, 554488, 555069, 555633, 556184, 556760, 557353, 557913, 558482, 559052, 559613, 560146, 560760, 561294, 561860, 562361]","[549071, 549671, 550272, 550872, 551472, 552071, 552670, 553271, 553821, 554411, 554986, 555554, 556105, 556669, 557275, 557834, 558364, 558948, 559519, 560064, 560653, 561150, 561716, 562266]",24,R,ITM,1.1,
2,600,trial,0,25,25,25,trial,"['S', 'S', 'S', 'S', 'S', 'S', 'S', 'S', 'C', 'C', 'C', 'C', 'C', 'C', 'C', 'C', 'C', 'C', 'C', 'C', 'C', 'C', 'C', 'C']","[567934, 568318, 568762, 569352, 569987, 570589, 571209, 571794, 572376, 572966, 573560, 574120, 574696, 575273, 575886, 576482, 577034, 577645, 578220, 578752, 579367, 579947, 580495, 581041]","[568000, 568391, 568852, 569466, 570103, 570719, 571342, 571921, 572516, 573114, 573670, 574251, 574817, 575392, 576016, 576623, 577163, 577763, 578340, 578908, 579496, 580069, 580632, 581161]","[567649, 568249, 568849, 569449, 570049, 570649, 571249, 571849, 572403, 572993, 573587, 574148, 574724, 575301, 575913, 576509, 577061, 577672, 578246, 578780, 579394, 579975, 580523, 581068]",24,R,ITM,1.1,
6,400,trial,0,26,26,26,trial,"['S', 'S', 'S', 'S', 'S', 'S', 'C', 'C', 'C', 'C', 'C', 'C', 'C', 'C', 'C', 'C', 'C', 'C', 'C', 'C', 'C', 'C']","[587328, 587679, 588070, 588466, 588854, 589242, 589650, 590060, 590455, 590828, 591265, 591696, 592145, 592563, 592968, 593313, 593700, 594076, 594536, 594926, 595333, 595708]","[587408, 587770, 588155, 588566, 588956, 589341, 589751, 590153, 590589, 590982, 591401, 591825, 592247, 592641, 593054, 593434, 593809, 594210, 594646, 595059, 595466, 595848]","[586491, 586890, 587290, 587691, 588090, 588490, 588891, 589290, 589677, 590088, 590482, 590856, 591292, 591723, 592172, 592589, 592995, 593341, 593727, 594104, 594563, 594954, 595359, 595735]",24,R,ITM,1.1,
5,600,trial,0,27,27,27,trial,"['S', 'S', 'S', 'S', 'S', 'S', 'S', 'S', 'C', 'C', 'C', 'C', 'C', 'C', 'C', 'C', 'C', 'C', 'C', 'C', 'C', 'C', 'C', 'C']","[601475, 601764, 602311, 602966, 603595, 604162, 604755, 605360, 605931, 606525, 607091, 607654, 608240, 608783, 609361, 609875, 610384, 610941, 611524, 612075, 612594, 613146, 613700, 614237]","[601541, 601892, 602461, 603138, 603731, 604279, 604884, 605471, 606073, 606658, 607247, 607788, 608389, 608970, 609509, 610023, 610578, 611124, 611688, 612199, 612739, 613305, 613841, 614380]","[601233, 601832, 602432, 603032, 603632, 604232, 604832, 605432, 605957, 606551, 607118, 607681, 608266, 608808, 609387, 609901, 610410, 610967, 611550, 612101, 612621, 613172, 613726, 614262]",24,R,ITM,1.1,
6,400,trial,0,28,28,28,trial,"['S', 'S', 'S', 'S', 'S', 'S', 'C', 'C', 'C', 'C', 'C', 'C', 'C', 'C', 'C', 'C', 'C', 'C', 'C', 'C', 'C', 'C']","[620683, 621051, 621442, 621834, 622243, 622666, 623054, 623441, 623836, 624241, 624631, 625038, 625427, 625803, 626189, 626580, 626959, 627346, 627734, 628103, 628516, 628926]","[620787, 621157, 621579, 621958, 622371, 622801, 623178, 623558, 623972, 624373, 624775, 625160, 625555, 625949, 626334, 626719, 627093, 627486, 627847, 628244, 628649, 629060]","[619901, 620300, 620700, 621101, 621500, 621900, 622301, 622700, 623081, 623468, 623862, 624268, 624658, 625064, 625454, 625830, 626215, 626608, 626987, 627373, 627761, 628130, 628544, 628953]",24,R,ITM,1.1,
7,600,trial,0,29,29,29,trial,"['B', 'S', 'S', 'S', 'S', 'S', 'S', 'S', 'C', 'C', 'C', 'C', 'C', 'C', 'C', 'C', 'C', 'C', 'C', 'C', 'C', 'C', 'C', 'C']","[634493, 634856, 635619, 636227, 636868, 637468, 638047, 638640, 639250, 639856, 640429, 641039, 641620, 642161, 642756, 643318, 643923, 644462, 645054, 645617, 646219, 646796, 647374, 647930]","[634606, 635039, 635776, 636421, 637050, 637656, 638229, 638824, 639444, 640051, 640648, 641233, 641781, 642352, 642963, 643537, 644119, 644687, 645266, 645835, 646407, 646977, 647583, 648152]","[634507, 635106, 635706, 636306, 636906, 637506, 638106, 638706, 639277, 639883, 640456, 641067, 641647, 642189, 642783, 643346, 643951, 644489, 645081, 645645, 646246, 646823, 647401, 647958]",24,R,ITM,1.1,
5,600,trial,0,30,30,30,trial,"['S', 'S', 'S', 'S', 'S', 'S', 'S', 'S', 'C', 'C', 'C', 'C', 'C', 'C', 'C', 'C', 'C', 'C', 'C', 'C', 'C', 'C', 'C', 'C']","[655241, 655652, 656079, 656670, 657259, 657870, 658457, 659044, 659670, 660263, 660843, 661441, 661977, 662568, 663161, 663754, 664329, 664932, 665491, 666039, 666584, 667170, 667758, 668320]","[655377, 655813, 656224, 656820, 657416, 658023, 658626, 659210, 659838, 660444, 661015, 661608, 662170, 662760, 663349, 663925, 664515, 665102, 665675, 666229, 666789, 667380, 667939, 668498]","[654947, 655547, 656147, 656747, 657347, 657947, 658547, 659147, 659696, 660289, 660869, 661467, 662002, 662595, 663188, 663780, 664354, 664957, 665517, 666065, 666610, 667196, 667784, 668347]",24,R,ITM,1.1,
6,400,trial,0,31,31,31,trial,"['S', 'S', 'S', 'S', 'S', 'S', 'S', 'C', 'C', 'C', 'C', 'C', 'C', 'C', 'C', 'C', 'C', 'C', 'C', 'C', 'C', 'C', 'C']","[674420, 674917, 675293, 675690, 676096, 676514, 676873, 677268, 677660, 678087, 678504, 678921, 679303, 679716, 680119, 680529, 680930, 681341, 681737, 682134, 682536, 682939, 683317]","[674609, 675051, 675420, 675814, 676235, 676625, 677013, 677404, 677816, 678238, 678644, 679055, 679442, 679863, 680271, 680674, 681085, 681481, 681851, 682266, 682697, 683091, 683465]","[674115, 674514, 674914, 675314, 675715, 676114, 676514, 676915, 677296, 677687, 678114, 678532, 678948, 679330, 679744, 680145, 680556, 680956, 681368, 681763, 682161, 682563, 682967, 683343]",24,R,ITM,1.1,
4,400,trial,0,32,32,32,trial,"['S', 'S', 'S', 'S', 'S', 'S', 'S', 'S', 'C', 'C', 'C', 'C', 'C', 'C', 'C', 'C', 'C', 'C', 'C', 'C', 'C', 'C', 'C', 'C']","[688904, 689242, 689547, 689921, 690315, 690706, 691115, 691500, 691918, 692328, 692706, 693158, 693557, 693968, 694376, 694760, 695169, 695602, 696014, 696404, 696822, 697224, 697636, 698027]","[689022, 689367, 689678, 690061, 690456, 690889, 691260, 691653, 692046, 692462, 692885, 693311, 693741, 694125, 694547, 694961, 695342, 695753, 696154, 696605, 696999, 697397, 697798, 698195]","[688748, 689147, 689547, 689947, 690348, 690747, 691147, 691548, 691945, 692355, 692731, 693184, 693582, 693994, 694402, 694786, 695194, 695627, 696040, 696430, 696848, 697249, 697662, 698052]",24,R,ITM,1.1,
7,600,trial,0,33,33,33,trial,"['S', 'S', 'S', 'S', 'S', 'S', 'S', 'S', 'C', 'C', 'C', 'C', 'C', 'C', 'C', 'C', 'C', 'C', 'C', 'C', 'C', 'C', 'C', 'C']","[703878, 704180, 704765, 705453, 706068, 706588, 707137, 707778, 708384, 708923, 709494, 710073, 710626, 711157, 711731, 712288, 712829, 713405, 713960, 714507, 715042, 715616, 716160, 716698]","[704000, 704420, 705064, 705648, 706231, 706781, 707354, 708000, 708580, 709153, 709701, 710275, 710840, 711388, 711954, 712530, 713055, 713622, 714216, 714741, 715284, 715873, 716416, 716964]","[703678, 704277, 704877, 705477, 706077, 706677, 707277, 707877, 708412, 708951, 709522, 710099, 710652, 711185, 711758, 712314, 712857, 713433, 713988, 714534, 715070, 715642, 716186, 716725]",24,R,ITM,1.1,
3,600,trial,0,34,34,34,trial,"['S', 'S', 'S', 'S', 'S', 'S', 'S', 'C', 'C', 'C', 'C', 'C', 'C', 'C', 'C', 'C', 'C', 'C', 'C', 'C', 'C', 'C', 'C']","[722951, 723542, 724180, 724798, 725398, 726005, 726612, 727183, 727789, 728352, 728888, 729474, 730036, 730606, 731147, 731714, 732313, 732836, 733391, 733944, 734505, 735060, 735594]","[723222, 723874, 724484, 725111, 725701, 726312, 726868, 727486, 728040, 728623, 729147, 729724, 730304, 730849, 731399, 731962, 732561, 733118, 733663, 734224, 734766, 735357]","[722482, 723082, 723682, 724282, 724882, 725482, 726082, 726682, 727208, 727815, 728378, 728913, 729499, 730061, 730632, 731172, 731740, 732339, 732862, 733417, 733970, 734531, 735086, 735620]",24,R,ITM,1.1,
5,400,trial,0,35,35,35,trial,"['S', 'S', 'S', 'S', 'S', 'S', 'S', 'C', 'C', 'C', 'C', 'C', 'C', 'C', 'C', 'C', 'C', 'C', 'C', 'C', 'C', 'C', 'C']","[741492, 741836, 742324, 742781, 743212, 743627, 744004, 744450, 744850, 745243, 745643, 746056, 746437, 746861, 747264, 747649, 748050, 748463, 748853, 749274, 749640, 750027, 750485]","[741598, 741989, 742470, 742931, 743327, 743751, 744145, 744578, 744967, 745366, 745776, 746182, 746595, 747013, 747430, 747814, 748228, 748610, 749014, 749414, 749871, 750234, 750684]","[741301, 741700, 742100, 742500, 742900, 743301, 743700, 744100, 744475, 744877, 745269, 745668, 746082, 746463, 746888, 747290, 747674, 748077, 748489, 748878, 749300, 749667, 750053, 750511]",24,R,ITM,1.1,
6,600,trial,0,36,36,36,trial,"['S', 'S', 'S', 'S', 'S', 'S', 'S', 'S', 'C', 'C', 'C', 'C', 'C', 'C', 'C', 'C', 'C', 'C', 'C', 'C', 'C', 'C', 'C', 'C']","[756124, 756413, 757065, 757726, 758310, 758885, 759476, 760110, 760692, 761265, 761815, 762378, 762904, 763458, 764022, 764525, 765062, 765607, 766179, 766752, 767287, 767813, 768343, 768839]","[756231, 756711, 757357, 757918, 758492, 759065, 759677, 760254, 760845, 761441, 762018, 762553, 763101, 763638, 764191, 764674, 765205, 765778, 766326, 766909, 767446, 768010, 768522, 769039]","[755994, 756593, 757193, 757793, 758393, 758993, 759593, 760194, 760719, 761291, 761841, 762404, 762932, 763485, 764049, 764553, 765088, 765635, 766205, 766780, 767313, 767840, 768370, 768867]",24,R,ITM,1.1,
4,600,trial,0,37,37,37,trial,"['S', 'S', 'S', 'S', 'S', 'S', 'S', 'S', 'C', 'C', 'C', 'C', 'C', 'C', 'C', 'C', 'C', 'C', 'C', 'C', 'C', 'C', 'C', 'C']","[774726, 775057, 775649, 776271, 776918, 777499, 778116, 778743, 779326, 779939, 780488, 781000, 781583, 782177, 782729, 783302, 783855, 784432, 785020, 785559, 786106, 786669, 787245, 787762]","[774843, 775237, 775841, 776479, 777072, 777608, 778238, 778842, 779449, 780070, 780613, 781168, 781741, 782296, 782900, 783454, 784019, 784609, 785166, 785720, 786270, 786805, 787387, 787911]","[774609, 775208, 775809, 776409, 777009, 777608, 778208, 778808, 779352, 779966, 780514, 781027, 781608, 782202, 782754, 783328, 783881, 784457, 785046, 785585, 786131, 786695, 787270, 787787]",24,R,ITM,1.1,
2,400,trial,0,38,38,38,trial,"['S', 'S', 'S', 'S', 'S', 'S', 'S', 'C', 'C', 'C', 'C', 'C', 'C', 'C', 'C', 'C', 'C', 'C', 'C', 'C', 'C', 'C', 'C']","[793478, 793798, 794334, 794800, 795219, 795638, 796041, 796461, 796874, 797292, 797675, 798068, 798474, 798912, 799360, 799773, 800134, 800518, 800939, 801328, 801731, 802146, 802532]","[793581, 793920, 794447, 794919, 795343, 795748, 796158, 796570, 797000, 797414, 797799, 798204, 798618, 799046, 799469, 799895, 800241, 800651, 801069, 801468, 801862, 802305, 802700]","[793299, 793699, 794099, 794500, 794899, 795298, 795700, 796099, 796487, 796901, 797320, 797703, 798096, 798501, 798940, 799386, 799801, 800161, 800545, 800966, 801355, 801759, 802172, 802560]",24,R,ITM,1.1,
2,600,trial,0,39,39,39,trial,"['S', 'S', 'S', 'S', 'S', 'S', 'S', 'S', 'C', 'C', 'C', 'C', 'C', 'C', 'C', 'C', 'C', 'C', 'C', 'C', 'C', 'C', 'C', 'C']","[808410, 808907, 809310, 809906, 810540, 811114, 811727, 812335, 812913, 813497, 814092, 814644, 815208, 815767, 816346, 816907, 817462, 818018, 818604, 819169, 819685, 820250, 820826, 821435]","[808532, 809029, 809431, 810056, 810678, 811269, 811885, 812481, 813063, 813657, 814228, 814777, 815347, 815924, 816531, 817044, 817601, 818193, 818727, 819291, 819829, 820364, 820985, 821576]","[808196, 808797, 809396, 809996, 810595, 811196, 811796, 812396, 812941, 813524, 814119, 814671, 815235, 815795, 816372, 816934, 817489, 818045, 818631, 819196, 819713, 820278, 820853, 821462]",24,R,ITM,1.1,
7,400,trial,0,40,40,40,trial,"['S', 'S', 'S', 'S', 'S', 'S', 'S', 'C', 'C', 'C', 'C', 'C', 'C', 'C', 'C', 'C', 'C', 'C', 'C', 'C', 'C', 'C', 'C']","[827575, 827816, 828097, 828504, 828910, 829350, 829739, 830134, 830546, 830996, 831397, 831844, 832221, 832602, 832982, 833406, 833840, 834243, 834653, 835057, 835463, 835883, 836264]","[827656, 827928, 828233, 828657, 829078, 829491, 829874, 830266, 830714, 831133, 831555, 831968, 832365, 832757, 833134, 833565, 833984, 834397, 834808, 835187, 835590, 836024, 836420]","[826974, 827372, 827772, 828172, 828572, 828973, 829372, 829772, 830161, 830574, 831023, 831425, 831872, 832247, 832629, 833009, 833433, 833866, 834271, 834679, 835085, 835489, 835909, 836291]",24,R,ITM,1.1,
3,600,trial,0,41,41,41,trial,"['S', 'S', 'S', 'S', 'S', 'S', 'S', 'S', 'C', 'C', 'C', 'C', 'C', 'C', 'C', 'C', 'C', 'C', 'C', 'C', 'C', 'C', 'C', 'C']","[841997, 842264, 842886, 843500, 844097, 844718, 845326, 845908, 846489, 847067, 847645, 848171, 848740, 849292, 849837, 850420, 850984, 851525, 852069, 852605, 853131, 853677, 854217, 854763]","[842082, 842548, 843136, 843700, 844315, 844941, 845517, 846080, 846672, 847257, 847814, 848368, 848891, 849499, 850049, 850647, 851182, 851756, 852278, 852844, 853367, 853901, 854392, 854999]","[841792, 842392, 842992, 843592, 844192, 844792, 845392, 845992, 846515, 847092, 847671, 848196, 848765, 849317, 849862, 850446, 851010, 851551, 852094, 852631, 853156, 853702, 854243, 854789]",24,R,ITM,1.1,
6,400,trial,0,42,42,42,trial,"['S', 'S', 'S', 'S', 'S', 'S', 'S', 'C', 'C', 'C', 'C', 'C', 'C', 'C', 'C', 'C', 'C', 'C', 'C', 'C', 'C', 'C', 'C']","[861973, 862423, 862868, 863259, 863614, 864018, 864422, 864857, 865264, 865677, 866062, 866471, 866844, 867257, 867670, 868072, 868466, 868897, 869283, 869679, 870097, 870499, 870861]","[862175, 862596, 863017, 863418, 863818, 864194, 864612, 865013, 865412, 865810, 866213, 866611, 866981, 867394, 867823, 868231, 868636, 869021, 869426, 869835, 870234, 870638, 871079]","[861702, 862100, 862500, 862900, 863300, 863700, 864100, 864500, 864884, 865291, 865703, 866089, 866498, 866871, 867283, 867696, 868100, 868494, 868924, 869310, 869705, 870125, 870525, 870888]",24,R,ITM,1.1,
7,600,trial,0,43,43,43,trial,"['S', 'S', 'S', 'S', 'S', 'S', 'S', 'S', 'C', 'C', 'C', 'C', 'C', 'C', 'C', 'C', 'C', 'C', 'C', 'C', 'C', 'C', 'C', 'C']","[876450, 876740, 877388, 878034, 878669, 879215, 879844, 880437, 881008, 881575, 882144, 882691, 883240, 883769, 884312, 884831, 885367, 885896, 886424, 886971, 887486, 887999, 888536, 889044]","[876559, 876941, 877615, 878229, 878852, 879441, 880050, 880645, 881221, 881829, 882379, 882881, 883448, 883990, 884521, 885030, 885541, 886070, 886604, 887118, 887650, 888179, 888762, 889251]","[876298, 876897, 877497, 878097, 878697, 879297, 879897, 880497, 881035, 881602, 882171, 882717, 883268, 883795, 884338, 884857, 885395, 885922, 886451, 886998, 887514, 888026, 888562, 889072]",24,R,ITM,1.1,
2,400,trial,0,44,44,44,trial,"['S', 'S', 'S', 'S', 'S', 'S', 'S', 'C', 'C', 'C', 'C', 'C', 'C', 'C', 'C', 'C', 'C', 'C', 'C', 'C', 'C', 'C', 'C']","[895198, 895514, 895840, 896244, 896656, 897088, 897482, 897870, 898260, 898674, 899068, 899485, 899858, 900281, 900646, 901060, 901465, 901877, 902281, 902685, 903084, 903483, 903899]","[895335, 895643, 895959, 896380, 896793, 897227, 897614, 897997, 898395, 898810, 899192, 899606, 900004, 900431, 900812, 901206, 901610, 902026, 902414, 902813, 903217, 903635, 904086]","[894706, 895107, 895505, 895906, 896307, 896706, 897106, 897506, 897897, 898287, 898702, 899095, 899512, 899885, 900308, 900674, 901088, 901491, 901905, 902307, 902713, 903111, 903511, 903926]",24,R,ITM,1.1,
5,600,trial,0,45,45,45,trial,"['S', 'S', 'S', 'S', 'S', 'S', 'S', 'S', 'C', 'C', 'C', 'C', 'C', 'C', 'C', 'C', 'C', 'C', 'C', 'C', 'C', 'C', 'C', 'C']","[909732, 910041, 910641, 911277, 911890, 912526, 913104, 913702, 914242, 914797, 915364, 915919, 916450, 917013, 917571, 918134, 918671, 919204, 919755, 920311, 920842, 921393, 921920, 922402]","[909845, 910287, 910901, 911497, 912103, 912705, 913319, 913867, 914427, 915005, 915570, 916099, 916678, 917246, 917777, 918332, 918904, 919421, 919953, 920545, 921047, 921584, 922130]","[909556, 910155, 910755, 911355, 911955, 912556, 913156, 913756, 914268, 914824, 915390, 915945, 916476, 917039, 917597, 918161, 918696, 919230, 919781, 920338, 920868, 921418, 921947, 922428]",24,R,ITM,1.1,
4,400,trial,0,46,46,46,trial,"['S', 'S', 'S', 'S', 'S', 'S', 'S', 'C', 'C', 'C', 'C', 'C', 'C', 'C', 'C', 'C', 'C', 'C', 'C', 'C', 'C', 'C', 'C']","[928306, 928840, 929272, 929697, 930095, 930518, 930908, 931331, 931729, 932147, 932537, 932964, 933374, 933796, 934209, 934618, 935035, 935450, 935833, 936250, 936641, 937058, 937481]","[928598, 929015, 929436, 929855, 930248, 930652, 931034, 931464, 931879, 932270, 932708, 933097, 933526, 933935, 934344, 934779, 935195, 935565, 935958, 936358, 936772, 937217, 937720]","[928118, 928518, 928917, 929317, 929717, 930117, 930518, 930917, 931356, 931755, 932172, 932562, 932989, 933400, 933822, 934235, 934643, 935061, 935477, 935859, 936275, 936668, 937084, 937506]",24,R,ITM,1.1,
6,600,trial,0,47,47,47,trial,"['S', 'S', 'S', 'S', 'S', 'S', 'S', 'S', 'C', 'C', 'C', 'C', 'C', 'C', 'C', 'C', 'C', 'C', 'C', 'C', 'C', 'C', 'C', 'C']","[943027, 943310, 943953, 944609, 945188, 945779, 946378, 946957, 947565, 948132, 948683, 949257, 949818, 950348, 950923, 951473, 951993, 952527, 953129, 953673, 954169, 954696, 955245, 955760]","[943127, 943606, 944182, 944815, 945389, 945985, 946593, 947179, 947759, 948333, 948886, 949450, 950002, 950556, 951151, 951712, 952285, 952827, 953378, 953926, 954466, 954959, 955539, 955995]","[942861, 943460, 944060, 944660, 945260, 945860, 946460, 947060, 947592, 948160, 948710, 949283, 949846, 950375, 950949, 951499, 952019, 952554, 953156, 953701, 954195, 954723, 955272, 955787]",24,R,ITM,1.1,
3,400,trial,0,48,48,48,trial,"['S', 'S', 'S', 'S', 'S', 'S', 'S', 'C', 'C', 'C', 'C', 'C', 'C', 'C', 'C', 'C', 'C', 'C', 'C', 'C', 'C', 'C', 'C']","[961507, 961848, 962232, 962641, 963025, 963419, 963828, 964268, 964666, 965101, 965471, 965862, 966281, 966679, 967067, 967476, 967887, 968281, 968682, 969105, 969532, 969972, 970375]","[961670, 962026, 962397, 962789, 963192, 963596, 964008, 964434, 964832, 965228, 965648, 966046, 966444, 966851, 967229, 967647, 968018, 968450, 968888, 969330, 969726, 970152, 970568]","[961094, 961495, 961894, 962294, 962695, 963095, 963495, 963895, 964293, 964691, 965127, 965496, 965888, 966306, 966705, 967093, 967501, 967913, 968306, 968708, 969131, 969558, 969998, 970400]",24,R,ITM,1.1,
7,400,trial,0,49,49,49,trial,"['S', 'S', 'S', 'S', 'S', 'S', 'S', 'C', 'C', 'C', 'C', 'C', 'C', 'C', 'C', 'C', 'C', 'C', 'C', 'C', 'C', 'C', 'C']","[976462, 976900, 977308, 977704, 978131, 978527, 978946, 979367, 979763, 980178, 980595, 981002, 981372, 981782, 982185, 982599, 983012, 983426, 983830, 984259, 984658, 985076, 985478]","[976628, 977070, 977483, 977857, 978288, 978710, 979118, 979507, 979950, 980316, 980740, 981153, 981542, 981917, 982356, 982778, 983164, 983578, 984000, 984427, 984838, 985241, 985654]","[976176, 976574, 976974, 977374, 977774, 978174, 978574, 978974, 979395, 979790, 980206, 980623, 981028, 981399, 981810, 982213, 982626, 983038, 983453, 983857, 984287, 984686, 985104, 985505]",24,R,ITM,1.1,
3,400,trial,0,50,50,50,trial,"['S', 'S', 'S', 'S', 'S', 'S', 'S', 'C', 'C', 'C', 'C', 'C', 'C', 'C', 'C', 'C', 'C', 'C', 'C', 'C', 'C', 'C', 'C']","[991249, 991589, 992000, 992385, 992762, 993187, 993610, 994016, 994402, 994800, 995208, 995610, 995987, 996389, 996780, 997207, 997572, 997985, 998403, 998825, 999224, 999635, 1000044]","[991387, 991779, 992159, 992550, 992954, 993390, 993779, 994176, 994587, 994956, 995410, 995804, 996165, 996572, 996990, 997376, 997793, 998190, 998588, 999038, 999450, 999840]","[990850, 991249, 991649, 992050, 992450, 992850, 993250, 993650, 994041, 994427, 994826, 995233, 995636, 996013, 996415, 996805, 997232, 997599, 998010, 998428, 998851, 999249, 999661, 1000070]",24,R,ITM,1.1,
2,600,trial,0,51,51,51,trial,"['S', 'S', 'S', 'S', 'S', 'S', 'S', 'S', 'C', 'C', 'C', 'C', 'C', 'C', 'C', 'C', 'C', 'C', 'C', 'C', 'C', 'C', 'C', 'C']","[1005913, 1006163, 1006828, 1007436, 1008074, 1008689, 1009301, 1009887, 1010450, 1011018, 1011580, 1012162, 1012717, 1013260, 1013820, 1014375, 1014908, 1015443, 1015988, 1016553, 1017091, 1017571, 1018117, 1018676]","[1006014, 1006347, 1006973, 1007595, 1008219, 1008806, 1009473, 1010021, 1010599, 1011158, 1011715, 1012292, 1012831, 1013381, 1013922, 1014492, 1015043, 1015573, 1016109, 1016648, 1017191, 1017699, 1018240, 1018774]","[1005743, 1006343, 1006943, 1007543, 1008142, 1008743, 1009342, 1009943, 1010478, 1011045, 1011608, 1012190, 1012744, 1013287, 1013848, 1014402, 1014936, 1015470, 1016014, 1016581, 1017117, 1017597, 1018144, 1018703]",24,R,ITM,1.1,
5,400,trial,0,52,52,52,trial,"['S', 'S', 'S', 'S', 'S', 'S', 'S', 'C', 'C', 'C', 'C', 'C', 'C', 'C', 'C', 'C', 'C', 'C', 'C', 'C', 'C', 'C', 'C']","[1024537, 1024860, 1025390, 1025818, 1026244, 1026672, 1027098, 1027515, 1027954, 1028326, 1028684, 1029102, 1029477, 1029890, 1030307, 1030706, 1031124, 1031508, 1031905, 1032300, 1032701, 1033126, 1033527]","[1024637, 1024983, 1025507, 1025931, 1026352, 1026767, 1027201, 1027604, 1028043, 1028422, 1028785, 1029187, 1029585, 1029981, 1030397, 1030810, 1031223, 1031618, 1032005, 1032399, 1032802, 1033228, 1033652]","[1024330, 1024730, 1025129, 1025529, 1025929, 1026329, 1026729, 1027129, 1027540, 1027981, 1028352, 1028710, 1029129, 1029504, 1029915, 1030333, 1030731, 1031151, 1031533, 1031930, 1032326, 1032727, 1033152, 1033552]",24,R,ITM,1.1,
4,600,trial,0,53,53,53,trial,"['S', 'S', 'S', 'S', 'S', 'S', 'S', 'S', 'C', 'C', 'C', 'C', 'C', 'C', 'C', 'C', 'C', 'C', 'C', 'C', 'C', 'C', 'C', 'C']","[1039185, 1039647, 1040001, 1040592, 1041182, 1041787, 1042367, 1042938, 1043554, 1044076, 1044593, 1045110, 1045657, 1046191, 1046711, 1047256, 1047824, 1048358, 1048908, 1049378, 1049901, 1050460, 1051009, 1051543]","[1039321, 1039750, 1040146, 1040704, 1041288, 1041878, 1042460, 1043022, 1043640, 1044160, 1044679, 1045189, 1045747, 1046270, 1046801, 1047352, 1047918, 1048460, 1048989, 1049486, 1049991, 1050543, 1051096, 1051639]","[1038873, 1039472, 1040072, 1040672, 1041272, 1041872, 1042472, 1043073, 1043579, 1044102, 1044619, 1045136, 1045683, 1046216, 1046736, 1047281, 1047849, 1048384, 1048934, 1049404, 1049926, 1050485, 1051034, 1051569]",24,R,ITM,1.1,
5,600,trial,0,54,54,54,trial,"['S', 'S', 'S', 'S', 'S', 'S', 'S', 'S', 'C', 'C', 'C', 'C', 'C', 'C', 'C', 'C', 'C', 'C', 'C', 'C', 'C', 'C', 'C', 'C']","[1058236, 1058537, 1059153, 1059769, 1060373, 1060970, 1061571, 1062164, 1062734, 1063294, 1063852, 1064394, 1064948, 1065484, 1066047, 1066614, 1067174, 1067710, 1068297, 1068806, 1069373, 1069918, 1070466, 1071000]","[1058360, 1058748, 1059288, 1059877, 1060486, 1061097, 1061722, 1062295, 1062875, 1063433, 1063972, 1064503, 1065057, 1065598, 1066156, 1066711, 1067269, 1067804, 1068386, 1068915, 1069513, 1070038, 1070586, 1071110]","[1058066, 1058665, 1059265, 1059865, 1060465, 1061065, 1061665, 1062265, 1062760, 1063320, 1063877, 1064421, 1064974, 1065509, 1066074, 1066640, 1067201, 1067737, 1068323, 1068831, 1069399, 1069943, 1070491, 1071026]",24,R,ITM,1.1,
3,400,trial,0,55,55,55,trial,"['S', 'S', 'S', 'S', 'S', 'S', 'S', 'C', 'C', 'C', 'C', 'C', 'C', 'C', 'C', 'C', 'C', 'C', 'C', 'C', 'C', 'C', 'C']","[1076932, 1077224, 1077729, 1078195, 1078597, 1079014, 1079390, 1079800, 1080199, 1080595, 1081004, 1081379, 1081772, 1082176, 1082558, 1082975, 1083345, 1083761, 1084127, 1084517, 1084908, 1085322, 1085710]","[1077020, 1077347, 1077864, 1078312, 1078725, 1079138, 1079528, 1079927, 1080325, 1080716, 1081111, 1081511, 1081912, 1082314, 1082701, 1083087, 1083488, 1083889, 1084269, 1084663, 1085042, 1085449, 1085871]","[1076664, 1077064, 1077465, 1077864, 1078264, 1078664, 1079064, 1079464, 1079826, 1080224, 1080621, 1081029, 1081405, 1081797, 1082202, 1082584, 1083000, 1083371, 1083787, 1084152, 1084542, 1084934, 1085347, 1085735]",24,R,ITM,1.1,
2,600,trial,0,56,56,56,trial,"['S', 'S', 'S', 'S', 'S', 'S', 'S', 'S', 'C', 'C', 'C', 'C', 'C', 'C', 'C', 'C', 'C', 'C', 'C', 'C', 'C', 'C', 'C', 'C']","[1091491, 1091935, 1092372, 1092967, 1093571, 1094172, 1094765, 1095350, 1095948, 1096507, 1097073, 1097607, 1098186, 1098733, 1099262, 1099831, 1100381, 1100924, 1101489, 1102045, 1102556, 1103114, 1103653, 1104212]","[1091602, 1092070, 1092514, 1093110, 1093711, 1094319, 1094885, 1095474, 1096074, 1096634, 1097213, 1097754, 1098288, 1098859, 1099413, 1099983, 1100553, 1101099, 1101644, 1102198, 1102694, 1103230, 1103798, 1104346]","[1091260, 1091860, 1092460, 1093059, 1093660, 1094260, 1094860, 1095460, 1095975, 1096535, 1097101, 1097633, 1098213, 1098760, 1099289, 1099858, 1100408, 1100952, 1101515, 1102072, 1102583, 1103140, 1103681, 1104240]",24,R,ITM,1.1,
2,400,trial,0,57,57,57,trial,"['S', 'S', 'S', 'S', 'S', 'S', 'S', 'C', 'C', 'C', 'C', 'C', 'C', 'C', 'C', 'C', 'C', 'C', 'C', 'C', 'C', 'C', 'C']","[1110178, 1110532, 1110999, 1111441, 1111855, 1112252, 1112680, 1113091, 1113511, 1113947, 1114326, 1114702, 1115103, 1115496, 1115892, 1116307, 1116733, 1117174, 1117543, 1117944, 1118309, 1118726, 1119117]","[1110291, 1110699, 1111135, 1111576, 1111973, 1112375, 1112808, 1113225, 1113624, 1114056, 1114464, 1114841, 1115227, 1115639, 1116037, 1116460, 1116874, 1117293, 1117704, 1118097, 1118462, 1118872, 1119268]","[1109935, 1110334, 1110734, 1111134, 1111535, 1111934, 1112335, 1112734, 1113117, 1113539, 1113973, 1114352, 1114730, 1115130, 1115523, 1115920, 1116335, 1116761, 1117202, 1117570, 1117971, 1118337, 1118752, 1119143]",24,R,ITM,1.1,
2,600,trial,0,58,58,58,trial,"['S', 'S', 'S', 'S', 'S', 'S', 'S', 'S', 'C', 'C', 'C', 'C', 'C', 'C', 'C', 'C', 'C', 'C', 'C', 'C', 'C', 'C', 'C', 'C']","[1125081, 1125660, 1126056, 1126643, 1127226, 1127813, 1128389, 1129028, 1129605, 1130174, 1130736, 1131283, 1131837, 1132399, 1133004, 1133539, 1134097, 1134706, 1135257, 1135806, 1136338, 1136915, 1137500, 1138050]","[1125307, 1125782, 1126187, 1126746, 1127352, 1127942, 1128535, 1129152, 1129719, 1130330, 1130868, 1131412, 1131977, 1132559, 1133149, 1133700, 1134263, 1134825, 1135398, 1135966, 1136484, 1137079, 1137653, 1138202]","[1124893, 1125493, 1126093, 1126692, 1127292, 1127894, 1128494, 1129094, 1129632, 1130201, 1130763, 1131311, 1131864, 1132426, 1133032, 1133566, 1134125, 1134733, 1135285, 1135833, 1136366, 1136942, 1137526, 1138077]",24,R,ITM,1.1,
7,600,trial,0,59,59,59,trial,"['S', 'S', 'S', 'S', 'S', 'S', 'S', 'S', 'C', 'C', 'C', 'C', 'C', 'C', 'C', 'C', 'C', 'C', 'C', 'C', 'C', 'C', 'C', 'C']","[1143643, 1143926, 1144597, 1145206, 1145827, 1146411, 1147031, 1147630, 1148191, 1148739, 1149310, 1149868, 1150408, 1150956, 1151514, 1152062, 1152621, 1153184, 1153747, 1154329, 1154878, 1155450, 1155991, 1156472]","[1143729, 1144179, 1144772, 1145349, 1145953, 1146544, 1147151, 1147754, 1148316, 1148872, 1149431, 1149977, 1150528, 1151077, 1151635, 1152208, 1152762, 1153335, 1153882, 1154462, 1155009, 1155601, 1156113, 1156611]","[1143465, 1144065, 1144665, 1145265, 1145864, 1146464, 1147064, 1147664, 1148219, 1148767, 1149338, 1149894, 1150436, 1150983, 1151542, 1152090, 1152649, 1153212, 1153775, 1154356, 1154906, 1155477, 1156018, 1156499]",24,R,ITM,1.1,
7,400,trial,0,60,60,60,trial,"['S', 'S', 'S', 'S', 'S', 'S', 'S', 'C', 'C', 'C', 'C', 'C', 'C', 'C', 'C', 'C', 'C', 'C', 'C', 'C', 'C', 'C', 'C']","[1162400, 1162747, 1163245, 1163688, 1164098, 1164485, 1164898, 1165319, 1165729, 1166138, 1166513, 1166925, 1167323, 1167737, 1168118, 1168547, 1168923, 1169332, 1169719, 1170117, 1170504, 1170882, 1171304]","[1162503, 1162862, 1163358, 1163807, 1164220, 1164640, 1165036, 1165452, 1165838, 1166238, 1166664, 1167064, 1167455, 1167860, 1168261, 1168660, 1169099, 1169473, 1169863, 1170251, 1170639, 1171040, 1171448]","[1162177, 1162576, 1162976, 1163376, 1163777, 1164176, 1164576, 1164977, 1165346, 1165756, 1166164, 1166540, 1166953, 1167349, 1167765, 1168145, 1168575, 1168950, 1169359, 1169746, 1170145, 1170532, 1170909, 1171332]",24,R,ITM,1.1,
4,600,trial,0,61,61,61,trial,"['S', 'S', 'S', 'S', 'S', 'S', 'S', 'S', 'C', 'C', 'C', 'C', 'C', 'C', 'C', 'C', 'C', 'C', 'C', 'C', 'C', 'C', 'C', 'C']","[1177061, 1177362, 1177934, 1178563, 1179128, 1179707, 1180301, 1180946, 1181566, 1182105, 1182644, 1183168, 1183713, 1184233, 1184809, 1185339, 1185850, 1186394, 1186903, 1187426, 1187949, 1188486, 1189029, 1189549]","[1177149, 1177566, 1178107, 1178669, 1179245, 1179826, 1180408, 1181037, 1181656, 1182203, 1182764, 1183277, 1183833, 1184346, 1184915, 1185474, 1185981, 1186523, 1187040, 1187600, 1188105, 1188622, 1189203, 1189704]","[1176861, 1177460, 1178060, 1178660, 1179260, 1179860, 1180461, 1181061, 1181592, 1182131, 1182669, 1183194, 1183738, 1184259, 1184835, 1185364, 1185875, 1186419, 1186928, 1187451, 1187975, 1188511, 1189055, 1189574]",24,R,ITM,1.1,
3,600,trial,0,62,62,62,trial,"['S', 'S', 'S', 'S', 'S', 'S', 'S', 'S', 'C', 'C', 'C', 'C', 'C', 'C', 'C', 'C', 'C', 'C', 'C', 'C', 'C', 'C', 'C', 'C']","[1195462, 1195776, 1196333, 1196946, 1197642, 1198267, 1198853, 1199419, 1200005, 1200589, 1201161, 1201719, 1202302, 1202878, 1203458, 1204049, 1204608, 1205160, 1205723, 1206267, 1206857, 1207397, 1207999, 1208571]","[1195544, 1195937, 1196487, 1197097, 1197767, 1198367, 1198937, 1199509, 1200115, 1200727, 1201270, 1201843, 1202417, 1202987, 1203578, 1204165, 1204719, 1205288, 1205863, 1206401, 1206988, 1207546, 1208141, 1208708]","[1195285, 1195885, 1196485, 1197085, 1197685, 1198285, 1198885, 1199485, 1200030, 1200615, 1201186, 1201744, 1202328, 1202904, 1203483, 1204075, 1204633, 1205186, 1205748, 1206293, 1206883, 1207422, 1208025, 1208597]",24,R,ITM,1.1,
4,600,trial,0,63,63,63,trial,"['S', 'S', 'S', 'S', 'S', 'S', 'S', 'C', 'C', 'C', 'C', 'C', 'C', 'C', 'C', 'C', 'C', 'C', 'C', 'C', 'C', 'C', 'C']","[1214670, 1215193, 1215780, 1216387, 1217009, 1217638, 1218230, 1218819, 1219374, 1219916, 1220483, 1221032, 1221591, 1222132, 1222703, 1223285, 1223817, 1224425, 1225020, 1225569, 1226107, 1226671, 1227251]","[1214827, 1215333, 1215926, 1216535, 1217137, 1217778, 1218368, 1218951, 1219519, 1220072, 1220595, 1221155, 1221719, 1222263, 1222823, 1223459, 1224019, 1224564, 1225136, 1225705, 1226238, 1226831, 1227424]","[1214118, 1214717, 1215318, 1215918, 1216518, 1217117, 1217717, 1218317, 1218844, 1219399, 1219942, 1220508, 1221058, 1221616, 1222158, 1222728, 1223311, 1223842, 1224451, 1225047, 1225594, 1226133, 1226696, 1227277]",24,R,ITM,1.1,
2,400,trial,0,64,64,64,trial,"['S', 'S', 'S', 'S', 'S', 'S', 'S', 'C', 'C', 'C', 'C', 'C', 'C', 'C', 'C', 'C', 'C', 'C', 'C', 'C', 'C', 'C', 'C']","[1232967, 1233325, 1233814, 1234273, 1234684, 1235106, 1235520, 1235934, 1236341, 1236768, 1237157, 1237565, 1237988, 1238394, 1238786, 1239198, 1239607, 1240005, 1240403, 1240833, 1241235, 1241621, 1242072]","[1233075, 1233492, 1233936, 1234402, 1234834, 1235231, 1235651, 1236066, 1236487, 1236911, 1237320, 1237701, 1238113, 1238539, 1238946, 1239345, 1239752, 1240158, 1240554, 1240971, 1241387, 1241786, 1242205]","[1232764, 1233163, 1233563, 1233965, 1234364, 1234764, 1235165, 1235564, 1235960, 1236368, 1236796, 1237185, 1237593, 1238014, 1238422, 1238812, 1239226, 1239634, 1240033, 1240430, 1240859, 1241262, 1241649, 1242099]",24,R,ITM,1.1,
5,400,trial,0,65,65,65,trial,"['S', 'S', 'S', 'S', 'S', 'S', 'S', 'C', 'C', 'C', 'C', 'C', 'C', 'C', 'C', 'C', 'C', 'C', 'C', 'C', 'C', 'C', 'C']","[1247710, 1248017, 1248553, 1249012, 1249414, 1249815, 1250200, 1250609, 1251005, 1251407, 1251773, 1252152, 1252580, 1252946, 1253310, 1253730, 1254124, 1254500, 1254890, 1255293, 1255658, 1256052, 1256452]","[1247803, 1248211, 1248706, 1249164, 1249558, 1249947, 1250339, 1250756, 1251128, 1251520, 1251908, 1252298, 1252669, 1253068, 1253449, 1253856, 1254253, 1254626, 1255012, 1255421, 1255794, 1256186, 1256611]","[1247489, 1247887, 1248287, 1248688, 1249087, 1249487, 1249887, 1250287, 1250635, 1251032, 1251433, 1251799, 1252177, 1252606, 1252973, 1253337, 1253755, 1254151, 1254525, 1254916, 1255319, 1255684, 1256078, 1256477]",24,R,ITM,1.1,
5,600,trial,0,66,66,66,trial,"['S', 'S', 'S', 'S', 'S', 'S', 'S', 'S', 'C', 'C', 'C', 'C', 'C', 'C', 'C', 'C', 'C', 'C', 'C', 'C', 'C', 'C', 'C', 'C']","[1262337, 1262699, 1263275, 1263863, 1264479, 1265026, 1265600, 1266226, 1266828, 1267388, 1267917, 1268436, 1268970, 1269502, 1270045, 1270592, 1271091, 1271626, 1272187, 1272705, 1273227, 1273736, 1274310, 1274881]","[1262435, 1262898, 1263444, 1263990, 1264602, 1265182, 1265774, 1266362, 1266982, 1267524, 1268060, 1268576, 1269110, 1269682, 1270203, 1270712, 1271221, 1271781, 1272334, 1272839, 1273375, 1273920, 1274477, 1275064]","[1262163, 1262763, 1263363, 1263963, 1264562, 1265162, 1265762, 1266362, 1266853, 1267414, 1267943, 1268462, 1268996, 1269527, 1270072, 1270618, 1271117, 1271652, 1272213, 1272731, 1273252, 1273761, 1274337, 1274906]",24,R,ITM,1.1,
6,600,trial,0,67,67,67,trial,"['S', 'S', 'S', 'S', 'S', 'S', 'S', 'C', 'C', 'C', 'C', 'C', 'C', 'C', 'C', 'C', 'C', 'C', 'C', 'C', 'C', 'C', 'C']","[1280791, 1281494, 1282128, 1282752, 1283358, 1283969, 1284568, 1285152, 1285728, 1286255, 1286813, 1287363, 1287898, 1288440, 1288982, 1289493, 1290038, 1290591, 1291139, 1291674, 1292162, 1292715, 1293285]","[1281065, 1281725, 1282439, 1282945, 1283535, 1284145, 1284725, 1285322, 1285899, 1286423, 1286974, 1287519, 1288061, 1288586, 1289108, 1289645, 1290212, 1290735, 1291272, 1291836, 1292332, 1292889, 1293485]","[1280465, 1281065, 1281666, 1282266, 1282866, 1283465, 1284065, 1284665, 1285179, 1285754, 1286283, 1286841, 1287390, 1287924, 1288467, 1289010, 1289520, 1290064, 1290618, 1291165, 1291701, 1292188, 1292741, 1293313]",24,R,ITM,1.1,
5,400,trial,0,68,68,68,trial,"['S', 'S', 'S', 'S', 'S', 'S', 'S', 'S', 'C', 'C', 'C', 'C', 'C', 'C', 'C', 'C', 'C', 'C', 'C', 'C', 'C', 'C', 'C', 'C']","[1298767, 1299067, 1299408, 1299762, 1300176, 1300585, 1300993, 1301384, 1301811, 1302181, 1302617, 1303045, 1303468, 1303864, 1304248, 1304658, 1305067, 1305447, 1305884, 1306300, 1306678, 1307037, 1307479, 1307912]","[1298851, 1299198, 1299543, 1299904, 1300314, 1300725, 1301121, 1301523, 1301933, 1302324, 1302754, 1303180, 1303597, 1303987, 1304395, 1304807, 1305233, 1305625, 1306024, 1306439, 1306860, 1307220, 1307666, 1308137]","[1298623, 1299022, 1299422, 1299822, 1300222, 1300622, 1301022, 1301423, 1301836, 1302207, 1302642, 1303071, 1303494, 1303890, 1304273, 1304684, 1305093, 1305474, 1305911, 1306327, 1306703, 1307064, 1307505, 1307937]",24,R,ITM,1.1,
6,400,trial,0,69,69,69,trial,"['S', 'S', 'S', 'S', 'S', 'S', 'S', 'S', 'C', 'C', 'C', 'C', 'C', 'C', 'C', 'C', 'C', 'C', 'C', 'C', 'C', 'C', 'C', 'C']","[1313581, 1313858, 1314148, 1314531, 1314940, 1315339, 1315793, 1316137, 1316546, 1316929, 1317395, 1317789, 1318222, 1318632, 1319031, 1319447, 1319849, 1320252, 1320647, 1321053, 1321452, 1321818, 1322255, 1322667]","[1313669, 1313986, 1314284, 1314676, 1315077, 1315469, 1315897, 1316271, 1316664, 1317075, 1317518, 1317940, 1318351, 1318757, 1319179, 1319579, 1319991, 1320380, 1320779, 1321183, 1321613, 1321999, 1322400, 1322822]","[1313394, 1313794, 1314193, 1314593, 1314994, 1315393, 1315793, 1316193, 1316573, 1316956, 1317423, 1317817, 1318249, 1318660, 1319059, 1319474, 1319877, 1320279, 1320674, 1321079, 1321480, 1321844, 1322283, 1322693]",24,R,ITM,1.1,
7,400,trial,0,70,70,70,trial,"['S', 'S', 'S', 'S', 'S', 'S', 'S', 'S', 'C', 'C', 'C', 'C', 'C', 'C', 'C', 'C', 'C', 'C', 'C', 'C', 'C', 'C', 'C', 'C']","[1328353, 1328641, 1328949, 1329361, 1329751, 1330147, 1330542, 1330927, 1331331, 1331762, 1332182, 1332564, 1332935, 1333381, 1333772, 1334169, 1334574, 1334987, 1335394, 1335778, 1336190, 1336570, 1336958, 1337357]","[1328446, 1328761, 1329101, 1329503, 1329906, 1330291, 1330674, 1331059, 1331483, 1331909, 1332317, 1332710, 1333102, 1333493, 1333951, 1334338, 1334721, 1335135, 1335524, 1335914, 1336304, 1336686, 1337079, 1337513]","[1328177, 1328576, 1328976, 1329376, 1329776, 1330177, 1330576, 1330976, 1331357, 1331789, 1332208, 1332591, 1332962, 1333408, 1333799, 1334197, 1334600, 1335014, 1335420, 1335804, 1336217, 1336597, 1336986, 1337383]",24,R,ITM,1.1,
3,400,trial,0,71,71,71,trial,"['S', 'S', 'S', 'S', 'S', 'S', 'S', 'S', 'C', 'C', 'C', 'C', 'C', 'C', 'C', 'C', 'C', 'C', 'C', 'C', 'C', 'C', 'C', 'C']","[1342875, 1343167, 1343493, 1343820, 1344234, 1344644, 1345050, 1345466, 1345886, 1346287, 1346696, 1347058, 1347443, 1347867, 1348280, 1348630, 1348997, 1349427, 1349837, 1350237, 1350649, 1351055, 1351455, 1351887]","[1342990, 1343286, 1343610, 1343981, 1344366, 1344788, 1345204, 1345608, 1346013, 1346412, 1346822, 1347229, 1347591, 1348005, 1348422, 1348832, 1349215, 1349596, 1349991, 1350423, 1350816, 1351218, 1351611, 1352022]","[1342729, 1343128, 1343528, 1343928, 1344328, 1344729, 1345128, 1345528, 1345911, 1346313, 1346721, 1347084, 1347469, 1347893, 1348305, 1348656, 1349022, 1349452, 1349863, 1350262, 1350675, 1351080, 1351481, 1351913]",24,R,ITM,1.1,
6,600,trial,0,72,72,72,trial,"['S', 'S', 'S', 'S', 'S', 'S', 'S', 'C', 'C', 'C', 'C', 'C', 'C', 'C', 'C', 'C', 'C', 'C', 'C', 'C', 'C', 'C', 'C']","[1358022, 1358775, 1359413, 1360073, 1360627, 1361294, 1361851, 1362422, 1362982, 1363577, 1364179, 1364747, 1365312, 1365888, 1366477, 1367048, 1367588, 1368158, 1368754, 1369319, 1369871, 1370434, 1371042]","[1358152, 1358986, 1359602, 1360182, 1360764, 1361397, 1361948, 1362539, 1363159, 1363734, 1364286, 1364857, 1365468, 1366033, 1366607, 1367166, 1367742, 1368315, 1368875, 1369451, 1370027, 1370590, 1371188]","[1357694, 1358294, 1358894, 1359494, 1360094, 1360694, 1361294, 1361894, 1362449, 1363009, 1363605, 1364206, 1364773, 1365339, 1365914, 1366504, 1367074, 1367615, 1368185, 1368780, 1369346, 1369899, 1370461, 1371069]",24,R,ITM,1.1,
4,400,trial,0,73,73,73,trial,"['B', 'S', 'S', 'S', 'S', 'S', 'S', 'S', 'C', 'C', 'C', 'C', 'C', 'C', 'C', 'C', 'C', 'C', 'C', 'C', 'C', 'C', 'C', 'C']","[1376401, 1376861, 1377273, 1377564, 1377960, 1378368, 1378774, 1379201, 1379587, 1379980, 1380411, 1380805, 1381203, 1381605, 1381989, 1382417, 1382848, 1383259, 1383677, 1384044, 1384441, 1384836, 1385238, 1385680]","[1376579, 1377041, 1377400, 1377697, 1378114, 1378523, 1378937, 1379333, 1379720, 1380125, 1380535, 1380945, 1381347, 1381761, 1382149, 1382588, 1383011, 1383404, 1383839, 1384259, 1384602, 1385020, 1385410, 1385851]","[1376413, 1376813, 1377212, 1377612, 1378013, 1378413, 1378813, 1379213, 1379612, 1380005, 1380436, 1380831, 1381229, 1381630, 1382014, 1382443, 1382874, 1383284, 1383703, 1384070, 1384467, 1384861, 1385264, 1385706]",24,R,ITM,1.1,
6,400,trial,0,74,74,74,trial,"['S', 'S', 'S', 'S', 'S', 'S', 'S', 'C', 'C', 'C', 'C', 'C', 'C', 'C', 'C', 'C', 'C', 'C', 'C', 'C', 'C', 'C', 'C']","[1391568, 1392015, 1392446, 1392841, 1393249, 1393656, 1394064, 1394461, 1394873, 1395282, 1395688, 1396108, 1396481, 1396866, 1397287, 1397698, 1398078, 1398479, 1398874, 1399278, 1399664, 1400089, 1400467]","[1391702, 1392171, 1392609, 1393002, 1393395, 1393802, 1394200, 1394610, 1395022, 1395418, 1395822, 1396235, 1396621, 1397017, 1397426, 1397831, 1398231, 1398627, 1399018, 1399416, 1399834, 1400225, 1400664]","[1391325, 1391723, 1392123, 1392523, 1392923, 1393324, 1393723, 1394123, 1394488, 1394900, 1395309, 1395715, 1396135, 1396508, 1396892, 1397314, 1397725, 1398105, 1398507, 1398900, 1399306, 1399691, 1400117, 1400494]",24,R,ITM,1.1,
4,400,trial,0,75,75,75,trial,"['S', 'S', 'S', 'S', 'S', 'S', 'S', 'S', 'C', 'C', 'C', 'C', 'C', 'C', 'C', 'C', 'C', 'C', 'C', 'C', 'C', 'C', 'C', 'C']","[1406310, 1406643, 1406973, 1407356, 1407760, 1408144, 1408558, 1408966, 1409380, 1409761, 1410220, 1410640, 1411068, 1411482, 1411872, 1412262, 1412689, 1413101, 1413487, 1413905, 1414316, 1414705, 1415110, 1415556]","[1406451, 1406776, 1407107, 1407482, 1407911, 1408293, 1408692, 1409123, 1409520, 1409939, 1410356, 1410796, 1411228, 1411621, 1412047, 1412430, 1412835, 1413253, 1413654, 1414060, 1414451, 1414891, 1415284, 1415724]","[1406188, 1406588, 1406988, 1407388, 1407789, 1408188, 1408588, 1408989, 1409405, 1409787, 1410245, 1410666, 1411094, 1411508, 1411898, 1412288, 1412715, 1413127, 1413513, 1413931, 1414341, 1414730, 1415136, 1415581]",24,R,ITM,1.1,
7,600,trial,0,76,76,76,trial,"['S', 'S', 'S', 'S', 'S', 'S', 'S', 'C', 'C', 'C', 'C', 'C', 'C', 'C', 'C', 'C', 'C', 'C', 'C', 'C', 'C', 'C', 'C']","[1421606, 1422433, 1423071, 1423703, 1424281, 1424881, 1425483, 1426042, 1426597, 1427139, 1427708, 1428274, 1428866, 1429400, 1429933, 1430499, 1431041, 1431607, 1432137, 1432730, 1433278, 1433786, 1434259]","[1421737, 1422648, 1423290, 1423878, 1424451, 1425025, 1425635, 1426188, 1426751, 1427316, 1427862, 1428436, 1429030, 1429575, 1430108, 1430684, 1431246, 1431802, 1432313, 1432846, 1433422, 1433947, 1434484]","[1421337, 1421937, 1422537, 1423137, 1423737, 1424337, 1424937, 1425538, 1426070, 1426624, 1427167, 1427736, 1428300, 1428892, 1429428, 1429960, 1430525, 1431068, 1431633, 1432165, 1432757, 1433305, 1433812, 1434286]",24,R,ITM,1.1,
3,600,trial,0,77,77,77,trial,"['S', 'S', 'S', 'S', 'S', 'S', 'S', 'S', 'C', 'C', 'C', 'C', 'C', 'C', 'C', 'C', 'C', 'C', 'C', 'C', 'C', 'C', 'C', 'C']","[1440093, 1440391, 1440965, 1441572, 1442215, 1442792, 1443430, 1444038, 1444625, 1445189, 1445778, 1446348, 1446901, 1447457, 1448026, 1448562, 1449104, 1449694, 1450264, 1450821, 1451369, 1451964, 1452504, 1453062]","[1440197, 1440657, 1441229, 1441811, 1442418, 1443000, 1443635, 1444220, 1444809, 1445402, 1445967, 1446538, 1447110, 1447671, 1448219, 1448799, 1449379, 1449908, 1450469, 1451062, 1451584, 1452165, 1452739, 1453327]","[1439906, 1440505, 1441105, 1441705, 1442306, 1442906, 1443506, 1444106, 1444651, 1445215, 1445804, 1446374, 1446927, 1447483, 1448051, 1448588, 1449129, 1449719, 1450290, 1450847, 1451395, 1451990, 1452529, 1453087]",24,R,ITM,1.1,
2,600,trial,0,78,78,78,trial,"['S', 'S', 'S', 'S', 'S', 'S', 'S', 'C', 'C', 'C', 'C', 'C', 'C', 'C', 'C', 'C', 'C', 'C', 'C', 'C', 'C', 'C', 'C']","[1458699, 1459352, 1460011, 1460620, 1461313, 1461882, 1462523, 1463110, 1463683, 1464237, 1464796, 1465355, 1465893, 1466470, 1467030, 1467570, 1468110, 1468673, 1469205, 1469809, 1470333, 1470888, 1471434]","[1458830, 1459511, 1460096, 1460685, 1461334, 1461962, 1462618, 1463207, 1463785, 1464346, 1464867, 1465434, 1465989, 1466561, 1467127, 1467668, 1468232, 1468787, 1469316, 1469916, 1470452, 1470999, 1471539]","[1458392, 1458992, 1459592, 1460191, 1460791, 1461391, 1461991, 1462590, 1463137, 1463710, 1464263, 1464823, 1465382, 1465921, 1466497, 1467058, 1467597, 1468137, 1468700, 1469232, 1469836, 1470361, 1470916, 1471462]",24,R,ITM,1.1,
3,400,trial,0,79,79,79,trial,"['S', 'S', 'S', 'S', 'S', 'S', 'S', 'S', 'C', 'C', 'C', 'C', 'C', 'C', 'C', 'C', 'C', 'C', 'C', 'C', 'C', 'C', 'C', 'C']","[1477179, 1477490, 1477839, 1478193, 1478566, 1478984, 1479377, 1479763, 1480146, 1480538, 1480928, 1481313, 1481772, 1482170, 1482574, 1482945, 1483354, 1483743, 1484162, 1484571, 1484993, 1485391, 1485797, 1486204]","[1477266, 1477621, 1477975, 1478311, 1478656, 1479076, 1479480, 1479872, 1480256, 1480634, 1481042, 1481446, 1481880, 1482286, 1482682, 1483067, 1483467, 1483857, 1484282, 1484693, 1485078, 1485516, 1485922, 1486365]","[1477030, 1477429, 1477829, 1478230, 1478629, 1479029, 1479430, 1479829, 1480172, 1480563, 1480953, 1481338, 1481797, 1482195, 1482600, 1482971, 1483379, 1483768, 1484187, 1484597, 1485020, 1485417, 1485822, 1486230]",24,R,ITM,1.1,
6,600,trial,0,80,80,80,trial,"['S', 'S', 'S', 'S', 'S', 'S', 'S', 'S', 'C', 'C', 'C', 'C', 'C', 'C', 'C', 'C', 'C', 'C', 'C', 'C', 'C', 'C', 'C', 'C']","[1491855, 1492132, 1492756, 1493395, 1494002, 1494557, 1495129, 1495750, 1496393, 1496951, 1497487, 1498056, 1498613, 1499181, 1499723, 1500271, 1500772, 1501326, 1501877, 1502406, 1502914, 1503462, 1504012, 1504564]","[1491936, 1492330, 1492907, 1493511, 1494083, 1494645, 1495219, 1495837, 1496473, 1497041, 1497601, 1498157, 1498722, 1499287, 1499848, 1500380, 1500893, 1501478, 1502009, 1502539, 1503044, 1503618, 1504150, 1504712]","[1491677, 1492275, 1492875, 1493475, 1494075, 1494675, 1495275, 1495875, 1496420, 1496978, 1497513, 1498083, 1498640, 1499208, 1499751, 1500298, 1500798, 1501352, 1501903, 1502433, 1502941, 1503490, 1504038, 1504590]",24,R,ITM,1.1,
4,600,trial,0,81,81,81,trial,"['S', 'S', 'S', 'S', 'S', 'S', 'S', 'C', 'C', 'C', 'C', 'C', 'C', 'C', 'C', 'C', 'C', 'C', 'C', 'C', 'C', 'C', 'C']","[1510642, 1511350, 1511946, 1512596, 1513195, 1513797, 1514404, 1514984, 1515570, 1516148, 1516707, 1517277, 1517850, 1518395, 1518955, 1519522, 1520071, 1520634, 1521179, 1521689, 1522255, 1522812, 1523354]","[1510800, 1511534, 1512122, 1512722, 1513370, 1513949, 1514537, 1515146, 1515710, 1516292, 1516839, 1517396, 1517953, 1518515, 1519066, 1519648, 1520193, 1520752, 1521294, 1521817, 1522392, 1522951, 1523527]","[1510323, 1510922, 1511522, 1512122, 1512722, 1513322, 1513922, 1514522, 1515010, 1515596, 1516174, 1516733, 1517302, 1517876, 1518420, 1518982, 1519548, 1520097, 1520661, 1521205, 1521715, 1522281, 1522838, 1523380]",24,R,ITM,1.1,
7,600,trial,0,82,82,82,trial,"['S', 'S', 'S', 'S', 'S', 'S', 'S', 'S', 'C', 'C', 'C', 'C', 'C', 'C', 'C', 'C', 'C', 'C', 'C', 'C', 'C', 'C', 'C', 'C']","[1529074, 1529393, 1529975, 1530583, 1531191, 1531805, 1532384, 1532984, 1533636, 1534218, 1534770, 1535300, 1535864, 1536446, 1537011, 1537586, 1538157, 1538733, 1539266, 1539815, 1540389, 1540915, 1541506, 1542069]","[1529189, 1529663, 1530251, 1530822, 1531398, 1531990, 1532608, 1533166, 1533807, 1534381, 1534965, 1535474, 1536025, 1536581, 1537196, 1537785, 1538335, 1538930, 1539457, 1539997, 1540537, 1541105, 1541670, 1542236]","[1528896, 1529495, 1530095, 1530695, 1531295, 1531895, 1532495, 1533095, 1533663, 1534244, 1534797, 1535328, 1535892, 1536473, 1537039, 1537612, 1538184, 1538760, 1539294, 1539842, 1540417, 1540941, 1541532, 1542095]",24,R,ITM,1.1,
6,400,trial,0,83,83,83,trial,"['S', 'S', 'S', 'S', 'S', 'S', 'S', 'C', 'C', 'C', 'C', 'C', 'C', 'C', 'C', 'C', 'C', 'C', 'C', 'C', 'C', 'C', 'C']","[1547954, 1548473, 1548875, 1549264, 1549652, 1550068, 1550489, 1550930, 1551336, 1551758, 1552146, 1552565, 1552965, 1553376, 1553822, 1554213, 1554579, 1555025, 1555394, 1555866, 1556248, 1556640, 1557052]","[1548225, 1548674, 1549035, 1549404, 1549805, 1550223, 1550657, 1551064, 1551498, 1551898, 1552299, 1552705, 1553124, 1553544, 1553975, 1554376, 1554751, 1555162, 1555555, 1555990, 1556412, 1556818, 1557220]","[1547722, 1548122, 1548521, 1548921, 1549321, 1549721, 1550121, 1550521, 1550957, 1551363, 1551784, 1552174, 1552591, 1552993, 1553403, 1553849, 1554240, 1554606, 1555052, 1555422, 1555893, 1556275, 1556667, 1557080]",24,R,ITM,1.1,
5,400,trial,0,84,84,84,trial,"['S', 'S', 'S', 'S', 'S', 'S', 'S', 'S', 'C', 'C', 'C', 'C', 'C', 'C', 'C', 'C', 'C', 'C', 'C', 'C', 'C', 'C', 'C', 'C']","[1562840, 1563117, 1563415, 1563777, 1564184, 1564562, 1565000, 1565417, 1565833, 1566238, 1566693, 1567092, 1567500, 1567894, 1568316, 1568688, 1569078, 1569472, 1569876, 1570254, 1570634, 1571051, 1571448, 1571845]","[1562934, 1563235, 1563546, 1563912, 1564312, 1564694, 1565137, 1565553, 1565969, 1566384, 1566825, 1567244, 1567635, 1568024, 1568424, 1568822, 1569228, 1569594, 1570011, 1570390, 1570784, 1571182, 1571569, 1571994]","[1562653, 1563053, 1563452, 1563852, 1564253, 1564653, 1565053, 1565453, 1565858, 1566264, 1566718, 1567118, 1567526, 1567920, 1568343, 1568713, 1569104, 1569498, 1569902, 1570280, 1570660, 1571077, 1571474, 1571870]",24,R,ITM,1.1,
5,600,trial,0,85,85,85,trial,"['S', 'S', 'S', 'S', 'S', 'S', 'S', 'C', 'C', 'C', 'C', 'C', 'C', 'C', 'C', 'C', 'C', 'C', 'C', 'C', 'C', 'C', 'C']","[1577704, 1578567, 1579155, 1579748, 1580316, 1580922, 1581556, 1582166, 1582715, 1583268, 1583822, 1584359, 1584896, 1585462, 1585994, 1586500, 1587062, 1587602, 1588133, 1588680, 1589204, 1589719, 1590241]","[1577803, 1578708, 1579276, 1579856, 1580447, 1581034, 1581649, 1582266, 1582830, 1583385, 1583968, 1584490, 1585042, 1585623, 1586151, 1586680, 1587252, 1587768, 1588301, 1588838, 1589385, 1589920, 1590419]","[1577485, 1578084, 1578684, 1579284, 1579884, 1580484, 1581084, 1581684, 1582191, 1582741, 1583294, 1583848, 1584385, 1584922, 1585487, 1586021, 1586526, 1587088, 1587628, 1588159, 1588707, 1589231, 1589744, 1590267]",24,R,ITM,1.1,
7,400,trial,0,86,86,86,trial,"['S', 'S', 'S', 'S', 'S', 'S', 'S', 'C', 'C', 'C', 'C', 'C', 'C', 'C', 'C', 'C', 'C', 'C', 'C', 'C', 'C', 'C', 'C']","[1595809, 1596239, 1596683, 1597099, 1597490, 1597886, 1598279, 1598714, 1599112, 1599509, 1599897, 1600295, 1600721, 1601152, 1601518, 1601927, 1602318, 1602724, 1603142, 1603528, 1603913, 1604389, 1604820]","[1595890, 1596411, 1596825, 1597230, 1597600, 1598028, 1598410, 1598821, 1599227, 1599623, 1600007, 1600416, 1600826, 1601245, 1601648, 1602056, 1602455, 1602852, 1603315, 1603736, 1604109, 1604557, 1605004]","[1595573, 1595972, 1596372, 1596772, 1597172, 1597573, 1597972, 1598372, 1598742, 1599138, 1599537, 1599925, 1600322, 1600749, 1601178, 1601545, 1601954, 1602344, 1602751, 1603169, 1603556, 1603940, 1604417, 1604847]",24,R,ITM,1.1,
5,600,trial,0,87,87,87,trial,"['S', 'S', 'S', 'S', 'S', 'S', 'S', 'S', 'C', 'C', 'C', 'C', 'C', 'C', 'C', 'C', 'C', 'C', 'C', 'C', 'C', 'C', 'C', 'C']","[1610572, 1610987, 1611502, 1612071, 1612692, 1613257, 1613844, 1614481, 1615138, 1615704, 1616258, 1616809, 1617425, 1617976, 1618532, 1619149, 1619693, 1620256, 1620807, 1621380, 1621924, 1622493, 1623063, 1623600]","[1610673, 1611143, 1611665, 1612222, 1612827, 1613382, 1613979, 1614587, 1615241, 1615822, 1616391, 1616940, 1617538, 1618122, 1618652, 1619248, 1619826, 1620396, 1620968, 1621536, 1622074, 1622659, 1623235, 1623751]","[1610379, 1610979, 1611579, 1612179, 1612779, 1613379, 1613979, 1614579, 1615165, 1615729, 1616283, 1616836, 1617451, 1618002, 1618557, 1619175, 1619719, 1620282, 1620834, 1621405, 1621950, 1622518, 1623089, 1623625]",24,R,ITM,1.1,
4,400,trial,0,88,88,88,trial,"['S', 'S', 'S', 'S', 'S', 'S', 'S', 'S', 'C', 'C', 'C', 'C', 'C', 'C', 'C', 'C', 'C', 'C', 'C', 'C', 'C', 'C', 'C', 'C']","[1629262, 1629663, 1629992, 1630343, 1630749, 1631153, 1631582, 1631966, 1632374, 1632783, 1633193, 1633598, 1633964, 1634385, 1634797, 1635202, 1635600, 1636004, 1636449, 1636877, 1637261, 1637663, 1638046, 1638449]","[1629408, 1629791, 1630109, 1630474, 1630904, 1631286, 1631703, 1632091, 1632505, 1632897, 1633295, 1633729, 1634116, 1634519, 1634916, 1635310, 1635732, 1636126, 1636536, 1636992, 1637392, 1637777, 1638171, 1638608]","[1629219, 1629618, 1630018, 1630418, 1630818, 1631218, 1631619, 1632018, 1632400, 1632808, 1633219, 1633624, 1633989, 1634411, 1634823, 1635227, 1635625, 1636030, 1636474, 1636903, 1637286, 1637689, 1638072, 1638474]",24,R,ITM,1.1,
2,600,trial,0,89,89,89,trial,"['S', 'S', 'S', 'S', 'S', 'S', 'S', 'S', 'C', 'C', 'C', 'C', 'C', 'C', 'C', 'C', 'C', 'C', 'C', 'C', 'C', 'C', 'C', 'C']","[1644427, 1644844, 1645349, 1645931, 1646559, 1647127, 1647763, 1648395, 1648953, 1649528, 1650065, 1650620, 1651164, 1651712, 1652241, 1652827, 1653374, 1653866, 1654436, 1655011, 1655566, 1656101, 1656669, 1657188]","[1644541, 1644987, 1645507, 1646099, 1646682, 1647275, 1647875, 1648500, 1649058, 1649618, 1650163, 1650722, 1651284, 1651842, 1652388, 1652953, 1653522, 1654027, 1654574, 1655148, 1655688, 1656227, 1656768, 1657310]","[1644233, 1644833, 1645433, 1646033, 1646633, 1647234, 1647834, 1648434, 1648979, 1649556, 1650093, 1650647, 1651190, 1651738, 1652268, 1652854, 1653402, 1653894, 1654463, 1655038, 1655592, 1656129, 1656695, 1657216]",24,R,ITM,1.1,
2,400,trial,0,90,90,90,trial,"['S', 'S', 'S', 'S', 'S', 'S', 'S', 'C', 'C', 'C', 'C', 'C', 'C', 'C', 'C', 'C', 'C', 'C', 'C', 'C', 'C', 'C', 'C']","[1662872, 1663174, 1663708, 1664163, 1664591, 1665043, 1665451, 1665853, 1666266, 1666680, 1667085, 1667497, 1667952, 1668350, 1668742, 1669128, 1669519, 1669942, 1670371, 1670790, 1671198, 1671581, 1672011]","[1662941, 1663283, 1663805, 1664257, 1664693, 1665114, 1665524, 1665948, 1666375, 1666801, 1667207, 1667627, 1668068, 1668471, 1668873, 1669273, 1669654, 1670081, 1670517, 1670947, 1671362, 1671739, 1672180]","[1662673, 1663072, 1663473, 1663873, 1664273, 1664673, 1665074, 1665473, 1665881, 1666292, 1666707, 1667112, 1667525, 1667979, 1668378, 1668769, 1669155, 1669545, 1669969, 1670398, 1670817, 1671226, 1671608, 1672038]",24,R,ITM,1.1,
3,400,trial,0,91,91,91,trial,"['S', 'S', 'S', 'S', 'S', 'S', 'S', 'S', 'C', 'C', 'C', 'C', 'C', 'C', 'C', 'C', 'C', 'C', 'C', 'C', 'C', 'C', 'C', 'C']","[1677938, 1678201, 1678518, 1678888, 1679310, 1679726, 1680119, 1680500, 1680911, 1681313, 1681736, 1682113, 1682563, 1682998, 1683405, 1683822, 1684196, 1684585, 1684999, 1685400, 1685816, 1686238, 1686657, 1687047]","[1678023, 1678328, 1678645, 1679030, 1679446, 1679872, 1680238, 1680633, 1681047, 1681436, 1681853, 1682275, 1682703, 1683117, 1683527, 1683935, 1684341, 1684719, 1685118, 1685545, 1685947, 1686352, 1686793, 1687224]","[1677778, 1678177, 1678577, 1678978, 1679377, 1679777, 1680178, 1680578, 1680936, 1681339, 1681762, 1682139, 1682588, 1683023, 1683432, 1683848, 1684221, 1684611, 1685024, 1685426, 1685841, 1686263, 1686682, 1687072]",24,R,ITM,1.1,
2,400,trial,0,92,92,92,trial,"['S', 'S', 'S', 'S', 'S', 'S', 'S', 'C', 'C', 'C', 'C', 'C', 'C', 'C', 'C', 'C', 'C', 'C', 'C', 'C', 'C', 'C', 'C']","[1693097, 1693523, 1693904, 1694300, 1694703, 1695126, 1695545, 1695965, 1696364, 1696776, 1697183, 1697586, 1697979, 1698409, 1698812, 1699224, 1699604, 1700014, 1700432, 1700844, 1701230, 1701655, 1702069]","[1693224, 1693646, 1694029, 1694469, 1694849, 1695264, 1695692, 1696106, 1696508, 1696890, 1697306, 1697724, 1698130, 1698572, 1698975, 1699386, 1699796, 1700174, 1700605, 1701000, 1701401, 1701809, 1702205]","[1692778, 1693179, 1693579, 1693978, 1694380, 1694778, 1695179, 1695579, 1695991, 1696391, 1696802, 1697211, 1697613, 1698007, 1698436, 1698840, 1699252, 1699632, 1700041, 1700460, 1700871, 1701258, 1701683, 1702096]",24,R,ITM,1.1,
6,400,trial,0,93,93,93,trial,"['S', 'S', 'S', 'S', 'S', 'S', 'S', 'S', 'C', 'C', 'C', 'C', 'C', 'C', 'C', 'C', 'C', 'C', 'C', 'C', 'C', 'C', 'C', 'C']","[1708043, 1708313, 1708663, 1709054, 1709434, 1709840, 1710264, 1710664, 1711070, 1711465, 1711868, 1712251, 1712675, 1713080, 1713468, 1713870, 1714289, 1714705, 1715105, 1715503, 1715926, 1716330, 1716700, 1717100]","[1708137, 1708452, 1708789, 1709197, 1709583, 1710005, 1710404, 1710806, 1711220, 1711629, 1712001, 1712416, 1712825, 1713196, 1713618, 1714024, 1714442, 1714861, 1715244, 1715648, 1716059, 1716439, 1716855, 1717266]","[1707865, 1708263, 1708663, 1709064, 1709464, 1709864, 1710264, 1710664, 1711097, 1711492, 1711895, 1712278, 1712702, 1713106, 1713495, 1713898, 1714316, 1714732, 1715133, 1715530, 1715952, 1716357, 1716727, 1717127]",24,R,ITM,1.1,
6,600,trial,0,94,94,94,trial,"['S', 'S', 'S', 'S', 'S', 'S', 'S', 'S', 'C', 'C', 'C', 'C', 'C', 'C', 'C', 'C', 'C', 'C', 'C', 'C', 'C', 'C', 'C', 'C']","[1722569, 1722867, 1723504, 1724181, 1724771, 1725368, 1725990, 1726568, 1727133, 1727669, 1728254, 1728829, 1729408, 1729937, 1730505, 1731060, 1731615, 1732213, 1732812, 1733371, 1733912, 1734436, 1734962, 1735535]","[1722661, 1723030, 1723634, 1724272, 1724873, 1725473, 1726096, 1726661, 1727243, 1727794, 1728357, 1728952, 1729529, 1730069, 1730627, 1731188, 1731722, 1732313, 1732879, 1733460, 1733999, 1734553, 1735070, 1735670]","[1722425, 1723025, 1723625, 1724225, 1724825, 1725425, 1726025, 1726625, 1727160, 1727696, 1728282, 1728857, 1729434, 1729964, 1730533, 1731087, 1731642, 1732240, 1732839, 1733399, 1733939, 1734464, 1734988, 1735562]",24,R,ITM,1.1,
3,600,trial,0,95,95,95,trial,"['S', 'S', 'S', 'S', 'S', 'S', 'S', 'S', 'C', 'C', 'C', 'C', 'C', 'C', 'C', 'C', 'C', 'C', 'C', 'C', 'C', 'C', 'C', 'C']","[1741519, 1741776, 1742369, 1742989, 1743661, 1744165, 1744762, 1745424, 1746049, 1746588, 1747147, 1747716, 1748302, 1748874, 1749417, 1750008, 1750579, 1751149, 1751693, 1752243, 1752798, 1753334, 1753917, 1754472]","[1741598, 1742064, 1742573, 1743126, 1743764, 1744314, 1744903, 1745524, 1746156, 1746727, 1747282, 1747858, 1748442, 1749028, 1749570, 1750164, 1750712, 1751296, 1751837, 1752379, 1752947, 1753500, 1754063, 1754617]","[1741315, 1741914, 1742514, 1743114, 1743714, 1744314, 1744914, 1745514, 1746074, 1746614, 1747173, 1747741, 1748328, 1748899, 1749443, 1750034, 1750604, 1751175, 1751718, 1752268, 1752823, 1753360, 1753943, 1754498]",24,R,ITM,1.1,
5,400,trial,0,96,96,96,trial,"['S', 'S', 'S', 'S', 'S', 'S', 'S', 'C', 'C', 'C', 'C', 'C', 'C', 'C', 'C', 'C', 'C', 'C', 'C', 'C', 'C', 'C', 'C']","[1760381, 1760688, 1761024, 1761430, 1761810, 1762276, 1762671, 1763105, 1763466, 1763881, 1764284, 1764678, 1765079, 1765440, 1765824, 1766267, 1766673, 1767076, 1767455, 1767876, 1768305, 1768687, 1769079]","[1760504, 1760821, 1761179, 1761572, 1761961, 1762405, 1762813, 1763236, 1763612, 1764022, 1764419, 1764806, 1765208, 1765590, 1765979, 1766381, 1766806, 1767214, 1767607, 1768012, 1768418, 1768829, 1769231]","[1759909, 1760308, 1760708, 1761108, 1761508, 1761908, 1762309, 1762708, 1763131, 1763492, 1763907, 1764310, 1764704, 1765104, 1765466, 1765850, 1766294, 1766699, 1767102, 1767481, 1767902, 1768331, 1768713, 1769105]",24,R,ITM,1.1,
7,600,trial,0,97,97,97,trial,"['S', 'S', 'S', 'S', 'S', 'S', 'S', 'C', 'C', 'C', 'C', 'C', 'C', 'C', 'C', 'C', 'C', 'C', 'C', 'C', 'C', 'C', 'C']","[1774946, 1775641, 1776313, 1776932, 1777462, 1778114, 1778753, 1779318, 1779856, 1780417, 1780985, 1781528, 1782059, 1782615, 1783192, 1783742, 1784293, 1784841, 1785362, 1785944, 1786499, 1787029, 1787576]","[1775142, 1775827, 1776487, 1777085, 1777639, 1778319, 1778922, 1779487, 1780044, 1780587, 1781138, 1781680, 1782223, 1782800, 1783340, 1783886, 1784423, 1784976, 1785524, 1786070, 1786642, 1787187, 1787771]","[1774601, 1775200, 1775800, 1776400, 1777000, 1777600, 1778200, 1778800, 1779346, 1779883, 1780445, 1781012, 1781556, 1782085, 1782641, 1783219, 1783769, 1784320, 1784868, 1785389, 1785971, 1786525, 1787056, 1787603]",24,R,ITM,1.1,
7,400,trial,0,98,98,98,trial,"['S', 'S', 'S', 'S', 'S', 'S', 'S', 'S', 'C', 'C', 'C', 'C', 'C', 'C', 'C', 'C', 'C', 'C', 'C', 'C', 'C', 'C', 'C', 'C']","[1793063, 1793400, 1793714, 1794041, 1794468, 1794848, 1795266, 1795674, 1796094, 1796486, 1796884, 1797275, 1797657, 1798057, 1798511, 1798916, 1799312, 1799699, 1800060, 1800469, 1800894, 1801300, 1801714, 1802127]","[1793181, 1793523, 1793850, 1794170, 1794601, 1795007, 1795406, 1795827, 1796216, 1796625, 1797010, 1797420, 1797804, 1798236, 1798644, 1799052, 1799456, 1799817, 1800203, 1800602, 1801021, 1801411, 1801846, 1802292]","[1792899, 1793297, 1793697, 1794098, 1794497, 1794897, 1795297, 1795697, 1796122, 1796513, 1796912, 1797302, 1797684, 1798084, 1798539, 1798942, 1799340, 1799726, 1800088, 1800496, 1800922, 1801327, 1801741, 1802155]",24,R,ITM,1.1,
4,600,trial,0,99,99,99,trial,"['S', 'S', 'S', 'S', 'S', 'S', 'S', 'C', 'C', 'C', 'C', 'C', 'C', 'C', 'C', 'C', 'C', 'C', 'C', 'C', 'C', 'C', 'C']","[1807998, 1808617, 1809243, 1809831, 1810505, 1811097, 1811708, 1812267, 1812858, 1813478, 1814038, 1814619, 1815221, 1815794, 1816348, 1816913, 1817508, 1818083, 1818676, 1819251, 1819833, 1820396, 1820960]","[1808167, 1808801, 1809389, 1809956, 1810633, 1811238, 1811859, 1812422, 1813019, 1813636, 1814235, 1814822, 1815430, 1815961, 1816534, 1817114, 1817687, 1818218, 1818831, 1819406, 1820054, 1820632, 1821203]","[1807551, 1808150, 1808750, 1809350, 1809950, 1810550, 1811150, 1811750, 1812292, 1812884, 1813504, 1814064, 1814644, 1815246, 1815820, 1816374, 1816939, 1817535, 1818108, 1818701, 1819277, 1819858, 1820422, 1820986]",24,R,ITM,1.1,
4,400,trial,0,100,100,100,trial,"['S', 'S', 'S', 'S', 'S', 'S', 'S', 'C', 'C', 'C', 'C', 'C', 'C', 'C', 'C', 'C', 'C', 'C', 'C', 'C', 'C', 'C', 'C']","[1826862, 1827391, 1827816, 1828231, 1828645, 1829078, 1829468, 1829888, 1830315, 1830735, 1831130, 1831526, 1831939, 1832374, 1832819, 1833257, 1833682, 1834113, 1834515, 1834926, 1835362, 1835758, 1836166]","[1827215, 1827544, 1827969, 1828402, 1828806, 1829223, 1829609, 1830038, 1830451, 1830879, 1831307, 1831700, 1832155, 1832530, 1832985, 1833424, 1833828, 1834245, 1834670, 1835077, 1835484, 1835914, 1836346]","[1826699, 1827098, 1827499, 1827898, 1828298, 1828699, 1829098, 1829498, 1829913, 1830340, 1830761, 1831155, 1831552, 1831964, 1832399, 1832845, 1833283, 1833708, 1834138, 1834542, 1834951, 1835387, 1835784, 1836191]",24,R,ITM,1.1,
3,600,trial,0,101,101,101,trial,"['B', 'S', 'S', 'S', 'S', 'S', 'S', 'S', 'C', 'C', 'C', 'C', 'C', 'C', 'C', 'C', 'C', 'C', 'C', 'C', 'C', 'C', 'C', 'C']","[1841680, 1842035, 1842775, 1843430, 1844006, 1844587, 1845222, 1845859, 1846431, 1847003, 1847557, 1848157, 1848762, 1849321, 1849873, 1850468, 1851030, 1851612, 1852195, 1852749, 1853314, 1853894, 1854449, 1855047]","[1841842, 1842291, 1843016, 1843609, 1844224, 1844827, 1845450, 1846034, 1846604, 1847239, 1847760, 1848372, 1848961, 1849593, 1850093, 1850687, 1851292, 1851914, 1852462, 1853018, 1853574, 1854143, 1854727]","[1841692, 1842291, 1842891, 1843491, 1844091, 1844691, 1845292, 1845892, 1846457, 1847029, 1847582, 1848182, 1848787, 1849347, 1849900, 1850493, 1851056, 1851637, 1852221, 1852775, 1853339, 1853920, 1854475, 1855073]",24,R,ITM,1.1,
6,600,trial,0,102,102,102,trial,"['B', 'S', 'S', 'S', 'S', 'S', 'S', 'S', 'C', 'C', 'C', 'C', 'C', 'C', 'C', 'C', 'C', 'C', 'C', 'C', 'C', 'C', 'C', 'C']","[1860653, 1861045, 1861780, 1862375, 1862987, 1863565, 1864151, 1864741, 1865363, 1865887, 1866438, 1866991, 1867555, 1868076, 1868623, 1869126, 1869652, 1870211, 1870720, 1871271, 1871798, 1872346, 1872849, 1873390]","[1860834, 1861421, 1862047, 1862644, 1863212, 1863854, 1864475, 1865070, 1865600, 1866160, 1866678, 1867216, 1867764, 1868363, 1868855, 1869416, 1869934, 1870484, 1870980, 1871555, 1872087, 1872651, 1873152]","[1860666, 1861265, 1861865, 1862465, 1863065, 1863665, 1864265, 1864865, 1865390, 1865915, 1866465, 1867018, 1867582, 1868102, 1868650, 1869153, 1869679, 1870237, 1870747, 1871298, 1871824, 1872372, 1872876, 1873417]",24,R,ITM,1.1,
6,400,trial,0,103,103,103,trial,"['S', 'S', 'S', 'S', 'S', 'S', 'S', 'C', 'C', 'C', 'C', 'C', 'C', 'C', 'C', 'C', 'C', 'C', 'C', 'C', 'C', 'C', 'C']","[1879304, 1879635, 1880171, 1880651, 1881060, 1881454, 1881846, 1882263, 1882675, 1883091, 1883499, 1883886, 1884277, 1884707, 1885160, 1885559, 1885937, 1886346, 1886767, 1887179, 1887582, 1887996, 1888393]","[1879427, 1879779, 1880343, 1880813, 1881212, 1881596, 1882006, 1882414, 1882839, 1883236, 1883645, 1884042, 1884441, 1884853, 1885299, 1885727, 1886087, 1886490, 1886926, 1887324, 1887715, 1888129, 1888543]","[1879113, 1879513, 1879912, 1880312, 1880712, 1881112, 1881512, 1881912, 1882291, 1882701, 1883118, 1883526, 1883913, 1884304, 1884734, 1885187, 1885587, 1885964, 1886372, 1886793, 1887206, 1887608, 1888023, 1888420]",24,R,ITM,1.1,
7,400,trial,0,104,104,104,trial,"['S', 'S', 'S', 'S', 'S', 'S', 'S', 'S', 'C', 'C', 'C', 'C', 'C', 'C', 'C', 'C', 'C', 'C', 'C', 'C', 'C', 'C', 'C', 'C']","[1894106, 1894408, 1894729, 1895108, 1895530, 1895922, 1896330, 1896747, 1897175, 1897567, 1897975, 1898379, 1898777, 1899163, 1899576, 1899998, 1900407, 1900881, 1901276, 1901658, 1902048, 1902475, 1902879, 1903280]","[1894218, 1894559, 1894876, 1895279, 1895672, 1896080, 1896505, 1896899, 1897293, 1897724, 1898128, 1898512, 1898927, 1899352, 1899737, 1900193, 1900590, 1901004, 1901501, 1901828, 1902267, 1902626, 1903046, 1903455]","[1893946, 1894346, 1894747, 1895146, 1895546, 1895946, 1896346, 1896747, 1897201, 1897593, 1898002, 1898406, 1898805, 1899190, 1899603, 1900025, 1900434, 1900908, 1901302, 1901684, 1902075, 1902501, 1902906, 1903306]",24,R,ITM,1.1,
3,600,trial,0,105,105,105,trial,"['S', 'S', 'S', 'S', 'S', 'S', 'S', 'S', 'C', 'C', 'C', 'C', 'C', 'C', 'C', 'C', 'C', 'C', 'C', 'C', 'C', 'C', 'C', 'C']","[1909183, 1909459, 1910118, 1910782, 1911378, 1911932, 1912512, 1913094, 1913728, 1914285, 1914827, 1915357, 1915902, 1916474, 1917028, 1917548, 1918097, 1918651, 1919202, 1919711, 1920269, 1920802, 1921332, 1921872]","[1909281, 1909742, 1910322, 1910956, 1911518, 1912114, 1912693, 1913277, 1913893, 1914450, 1914991, 1915543, 1916081, 1916641, 1917199, 1917721, 1918241, 1918838, 1919360, 1919862, 1920428, 1920979, 1921536, 1922121]","[1909011, 1909611, 1910211, 1910811, 1911411, 1912011, 1912611, 1913211, 1913753, 1914310, 1914853, 1915382, 1915928, 1916499, 1917053, 1917574, 1918123, 1918676, 1919227, 1919736, 1920294, 1920828, 1921357, 1921898]",24,R,ITM,1.1,
6,600,trial,0,106,106,106,trial,"['S', 'S', 'S', 'S', 'S', 'S', 'S', 'C', 'C', 'C', 'C', 'C', 'C', 'C', 'C', 'C', 'C', 'C', 'C', 'C', 'C', 'C', 'C']","[1927964, 1928548, 1929194, 1929805, 1930387, 1931018, 1931586, 1932171, 1932719, 1933277, 1933857, 1934389, 1934887, 1935449, 1935980, 1936502, 1937041, 1937584, 1938125, 1938666, 1939212, 1939738, 1940274]","[1928266, 1928871, 1929435, 1930040, 1930631, 1931264, 1931807, 1932362, 1932933, 1933518, 1934058, 1934610, 1935192, 1935699, 1936205, 1936736, 1937295, 1937832, 1938344, 1938862, 1939404, 1939948, 1940493]","[1927483, 1928082, 1928682, 1929282, 1929882, 1930482, 1931082, 1931682, 1932198, 1932745, 1933304, 1933884, 1934415, 1934914, 1935475, 1936008, 1936529, 1937068, 1937610, 1938152, 1938693, 1939238, 1939765, 1940301]",24,R,ITM,1.1,
5,600,trial,0,107,107,107,trial,"['S', 'S', 'S', 'S', 'S', 'S', 'S', 'C', 'C', 'C', 'C', 'C', 'C', 'C', 'C', 'C', 'C', 'C', 'C', 'C', 'C', 'C', 'C']","[1946166, 1946923, 1947595, 1948164, 1948775, 1949422, 1950031, 1950622, 1951171, 1951722, 1952275, 1952792, 1953341, 1953897, 1954432, 1954995, 1955534, 1956117, 1956691, 1957239, 1957790, 1958356, 1958916]","[1946338, 1947124, 1947855, 1948451, 1949050, 1949644, 1950223, 1950873, 1951412, 1951942, 1952472, 1953037, 1953567, 1954126, 1954629, 1955206, 1955793, 1956346, 1956892, 1957487, 1958070, 1958651, 1959158]","[1945944, 1946544, 1947143, 1947743, 1948343, 1948943, 1949543, 1950143, 1950648, 1951197, 1951748, 1952301, 1952819, 1953367, 1953923, 1954457, 1955021, 1955560, 1956144, 1956717, 1957265, 1957816, 1958381, 1958941]",24,R,ITM,1.1,
4,600,trial,0,108,108,108,trial,"['B', 'S', 'S', 'S', 'S', 'S', 'S', 'S', 'C', 'C', 'C', 'C', 'C', 'C', 'C', 'C', 'C', 'C', 'C', 'C', 'C', 'C', 'C', 'C']","[1964380, 1964849, 1965564, 1966126, 1966702, 1967314, 1967949, 1968552, 1969155, 1969738, 1970321, 1970935, 1971529, 1972127, 1972736, 1973322, 1973892, 1974448, 1975026, 1975539, 1976140, 1976750, 1977330, 1977920]","[1964578, 1965187, 1965821, 1966351, 1966952, 1967569, 1968203, 1968769, 1969328, 1969974, 1970545, 1971147, 1971712, 1972329, 1972950, 1973556, 1974152, 1974695, 1975272, 1975814, 1976429, 1976987, 1977556, 1978107]","[1964392, 1964991, 1965591, 1966191, 1966791, 1967391, 1967991, 1968591, 1969180, 1969764, 1970347, 1970961, 1971555, 1972153, 1972762, 1973348, 1973918, 1974474, 1975053, 1975565, 1976166, 1976775, 1977357, 1977946]",24,R,ITM,1.1,
2,400,trial,0,109,109,109,trial,"['S', 'S', 'S', 'S', 'S', 'S', 'S', 'S', 'C', 'C', 'C', 'C', 'C', 'C', 'C', 'C', 'C', 'C', 'C', 'C', 'C', 'C', 'C', 'C']","[1983411, 1983793, 1984103, 1984455, 1984898, 1985278, 1985675, 1986100, 1986515, 1986890, 1987282, 1987686, 1988067, 1988440, 1988831, 1989214, 1989656, 1990012, 1990391, 1990794, 1991187, 1991617, 1992008, 1992389]","[1983541, 1983930, 1984263, 1984618, 1985035, 1985431, 1985843, 1986266, 1986665, 1987097, 1987466, 1987869, 1988244, 1988596, 1988990, 1989372, 1989781, 1990204, 1990558, 1990968, 1991352, 1991749, 1992162, 1992569]","[1983297, 1983697, 1984096, 1984497, 1984898, 1985296, 1985697, 1986097, 1986542, 1986917, 1987310, 1987713, 1988094, 1988467, 1988857, 1989241, 1989684, 1990039, 1990418, 1990821, 1991215, 1991644, 1992036, 1992417]",24,R,ITM,1.1,
2,600,trial,0,110,110,110,trial,"['S', 'S', 'S', 'S', 'S', 'S', 'S', 'S', 'C', 'C', 'C', 'C', 'C', 'C', 'C', 'C', 'C', 'C', 'C', 'C', 'C', 'C', 'C', 'C']","[1997969, 1998369, 1998886, 1999451, 2000073, 2000631, 2001288, 2001936, 2002507, 2003083, 2003621, 2004170, 2004784, 2005350, 2005914, 2006477, 2007033, 2007549, 2008108, 2008682, 2009202, 2009768, 2010334, 2010853]","[1998067, 1998533, 1999083, 1999626, 2000195, 2000799, 2001400, 2002052, 2002652, 2003216, 2003779, 2004315, 2004929, 2005483, 2006029, 2006604, 2007164, 2007698, 2008248, 2008790, 2009324, 2009886, 2010483, 2011063]","[1997769, 1998369, 1998969, 1999569, 2000168, 2000770, 2001369, 2001970, 2002534, 2003110, 2003649, 2004198, 2004810, 2005378, 2005942, 2006505, 2007061, 2007576, 2008134, 2008709, 2009229, 2009795, 2010360, 2010881]",24,R,ITM,1.1,
3,400,trial,0,111,111,111,trial,"['B', 'S', 'S', 'S', 'S', 'S', 'S', 'S', 'C', 'C', 'C', 'C', 'C', 'C', 'C', 'C', 'C', 'C', 'C', 'C', 'C', 'C', 'C', 'C']","[2016561, 2017027, 2017383, 2017684, 2018129, 2018554, 2018947, 2019360, 2019787, 2020184, 2020575, 2020988, 2021399, 2021797, 2022213, 2022597, 2023008, 2023432, 2023803, 2024201, 2024628, 2025038, 2025450, 2025876]","[2016669, 2017198, 2017505, 2017838, 2018269, 2018690, 2019107, 2019522, 2019921, 2020338, 2020742, 2021131, 2021554, 2021959, 2022356, 2022748, 2023155, 2023574, 2023972, 2024378, 2024785, 2025221, 2025633, 2026046]","[2016573, 2016972, 2017373, 2017773, 2018173, 2018573, 2018973, 2019374, 2019813, 2020209, 2020600, 2021014, 2021425, 2021823, 2022239, 2022623, 2023033, 2023457, 2023829, 2024226, 2024653, 2025064, 2025476, 2025902]",24,R,ITM,1.1,
5,600,trial,0,112,112,112,trial,"['S', 'S', 'S', 'S', 'S', 'S', 'S', 'S', 'C', 'C', 'C', 'C', 'C', 'C', 'C', 'C', 'C', 'C', 'C', 'C', 'C', 'C', 'C', 'C']","[2031458, 2031756, 2032352, 2032954, 2033580, 2034201, 2034810, 2035419, 2036021, 2036571, 2037124, 2037695, 2038252, 2038789, 2039324, 2039896, 2040460, 2041001, 2041596, 2042172, 2042712, 2043250, 2043806, 2044357]","[2031553, 2032048, 2032651, 2033250, 2033810, 2034468, 2035031, 2035642, 2036198, 2036761, 2037305, 2037856, 2038430, 2039029, 2039558, 2040158, 2040651, 2041275, 2041805, 2042345, 2042952, 2043459, 2044049]","[2031272, 2031873, 2032473, 2033073, 2033672, 2034272, 2034872, 2035472, 2036046, 2036596, 2037149, 2037721, 2038278, 2038815, 2039350, 2039922, 2040486, 2041028, 2041622, 2042199, 2042737, 2043276, 2043832, 2044383]",24,R,ITM,1.1,
3,400,trial,0,113,113,113,trial,"['S', 'S', 'S', 'S', 'S', 'S', 'S', 'S', 'C', 'C', 'C', 'C', 'C', 'C', 'C', 'C', 'C', 'C', 'C', 'C', 'C', 'C', 'C', 'C']","[2049981, 2050272, 2050589, 2050952, 2051372, 2051769, 2052165, 2052570, 2053008, 2053442, 2053846, 2054245, 2054663, 2055075, 2055476, 2055881, 2056294, 2056718, 2057157, 2057536, 2057959, 2058374, 2058802, 2059209]","[2050100, 2050427, 2050744, 2051113, 2051534, 2051930, 2052329, 2052729, 2053132, 2053543, 2053993, 2054400, 2054790, 2055224, 2055634, 2056044, 2056443, 2056877, 2057288, 2057682, 2058090, 2058534, 2058979, 2059401]","[2049809, 2050209, 2050610, 2051010, 2051410, 2051810, 2052210, 2052611, 2053033, 2053468, 2053871, 2054270, 2054688, 2055101, 2055501, 2055907, 2056320, 2056743, 2057183, 2057562, 2057985, 2058399, 2058827, 2059236]",24,R,ITM,1.1,
6,400,trial,0,114,114,114,trial,"['S', 'S', 'S', 'S', 'S', 'S', 'S', 'S', 'C', 'C', 'C', 'C', 'C', 'C', 'C', 'C', 'C', 'C', 'C', 'C', 'C', 'C', 'C', 'C']","[2065012, 2065289, 2065598, 2065981, 2066386, 2066797, 2067209, 2067605, 2068013, 2068422, 2068816, 2069197, 2069620, 2070023, 2070428, 2070817, 2071213, 2071601, 2072016, 2072403, 2072814, 2073207, 2073612, 2074008]","[2065110, 2065417, 2065750, 2066145, 2066539, 2066939, 2067359, 2067748, 2068144, 2068554, 2068960, 2069361, 2069752, 2070191, 2070569, 2070965, 2071371, 2071770, 2072180, 2072554, 2072960, 2073367, 2073758, 2074159]","[2064850, 2065250, 2065650, 2066051, 2066450, 2066850, 2067251, 2067651, 2068040, 2068449, 2068843, 2069224, 2069647, 2070050, 2070455, 2070845, 2071239, 2071628, 2072043, 2072430, 2072841, 2073234, 2073639, 2074035]",24,R,ITM,1.1,
5,400,trial,0,115,115,115,trial,"['S', 'S', 'S', 'S', 'S', 'S', 'S', 'S', 'C', 'C', 'C', 'C', 'C', 'C', 'C', 'C', 'C', 'C', 'C', 'C', 'C', 'C', 'C', 'C']","[2079715, 2079979, 2080305, 2080710, 2081111, 2081514, 2081910, 2082311, 2082734, 2083119, 2083536, 2083941, 2084365, 2084753, 2085175, 2085566, 2085992, 2086422, 2086830, 2087228, 2087615, 2088016, 2088472, 2088890]","[2079807, 2080121, 2080465, 2080856, 2081251, 2081666, 2082055, 2082447, 2082853, 2083273, 2083674, 2084089, 2084507, 2084924, 2085318, 2085725, 2086149, 2086567, 2086968, 2087370, 2087781, 2088210, 2088658, 2089063]","[2079567, 2079966, 2080366, 2080766, 2081166, 2081566, 2081967, 2082366, 2082759, 2083145, 2083563, 2083966, 2084390, 2084779, 2085200, 2085592, 2086018, 2086449, 2086855, 2087254, 2087641, 2088042, 2088498, 2088916]",24,R,ITM,1.1,
4,600,trial,0,116,116,116,trial,"['S', 'S', 'S', 'S', 'S', 'S', 'S', 'S', 'C', 'C', 'C', 'C', 'C', 'C', 'C', 'C', 'C', 'C', 'C', 'C', 'C', 'C', 'C', 'C']","[2094422, 2094642, 2095261, 2095925, 2096522, 2097126, 2097735, 2098311, 2098947, 2099515, 2100071, 2100640, 2101251, 2101811, 2102377, 2102976, 2103522, 2104091, 2104634, 2105194, 2105757, 2106324, 2106878, 2107422]","[2094495, 2094837, 2095475, 2096137, 2096651, 2097255, 2097885, 2098468, 2099078, 2099644, 2100226, 2100762, 2101383, 2101954, 2102532, 2103124, 2103684, 2104226, 2104788, 2105323, 2105904, 2106448, 2107019, 2107589]","[2094231, 2094830, 2095430, 2096030, 2096630, 2097230, 2097830, 2098430, 2098972, 2099540, 2100097, 2100666, 2101277, 2101836, 2102403, 2103003, 2103547, 2104117, 2104659, 2105220, 2105783, 2106349, 2106904, 2107448]",24,R,ITM,1.1,
4,400,trial,0,117,117,117,trial,"['S', 'S', 'S', 'S', 'S', 'S', 'S', 'S', 'C', 'C', 'C', 'C', 'C', 'C', 'C', 'C', 'C', 'C', 'C', 'C', 'C', 'C', 'C', 'C']","[2112974, 2113266, 2113548, 2113892, 2114285, 2114681, 2115100, 2115507, 2115934, 2116299, 2116709, 2117129, 2117569, 2117977, 2118394, 2118811, 2119229, 2119656, 2120092, 2120464, 2120867, 2121288, 2121743, 2122140]","[2113082, 2113393, 2113698, 2114043, 2114449, 2114842, 2115265, 2115659, 2116085, 2116460, 2116861, 2117277, 2117695, 2118144, 2118539, 2118991, 2119397, 2119816, 2120249, 2120607, 2121035, 2121445, 2121863, 2122301]","[2112771, 2113169, 2113569, 2113970, 2114370, 2114770, 2115170, 2115570, 2115959, 2116325, 2116736, 2117154, 2117595, 2118002, 2118420, 2118837, 2119256, 2119682, 2120118, 2120489, 2120894, 2121314, 2121768, 2122166]",24,R,ITM,1.1,
7,400,trial,0,118,118,118,trial,"['S', 'S', 'S', 'S', 'S', 'S', 'S', 'C', 'C', 'C', 'C', 'C', 'C', 'C', 'C', 'C', 'C', 'C', 'C', 'C', 'C', 'C', 'C']","[2128218, 2128653, 2129053, 2129483, 2129913, 2130295, 2130707, 2131137, 2131521, 2131909, 2132303, 2132700, 2133088, 2133510, 2133919, 2134281, 2134678, 2135091, 2135490, 2135869, 2136292, 2136704, 2137100]","[2128495, 2128823, 2129290, 2129671, 2130071, 2130446, 2130881, 2131281, 2131681, 2132072, 2132468, 2132859, 2133251, 2133651, 2134094, 2134486, 2134857, 2135264, 2135624, 2136062, 2136450, 2136895, 2137276]","[2127932, 2128331, 2128732, 2129131, 2129531, 2129931, 2130331, 2130732, 2131164, 2131549, 2131937, 2132330, 2132726, 2133114, 2133536, 2133947, 2134308, 2134705, 2135117, 2135518, 2135896, 2136318, 2136730, 2137126]",24,R,ITM,1.1,
7,600,trial,0,119,119,119,trial,"['S', 'S', 'S', 'S', 'S', 'S', 'S', 'S', 'C', 'C', 'C', 'C', 'C', 'C', 'C', 'C', 'C', 'C', 'C', 'C', 'C', 'C', 'C', 'C']","[2142889, 2143141, 2143802, 2144495, 2145075, 2145716, 2146347, 2146924, 2147466, 2148050, 2148665, 2149273, 2149861, 2150439, 2151030, 2151606, 2152153, 2152771, 2153378, 2154039, 2154624, 2155202, 2155807, 2156388]","[2142985, 2143291, 2143952, 2144624, 2145234, 2145884, 2146486, 2147063, 2147652, 2148252, 2148858, 2149459, 2150086, 2150746, 2151273, 2151848, 2152410, 2153023, 2153595, 2154264, 2154881, 2155474, 2156064, 2156655]","[2142717, 2143316, 2143917, 2144517, 2145117, 2145716, 2146316, 2146916, 2147493, 2148077, 2148692, 2149301, 2149889, 2150467, 2151058, 2151632, 2152179, 2152798, 2153406, 2154066, 2154650, 2155229, 2155835, 2156416]",24,R,ITM,1.1,
7,600,trial,0,120,120,120,trial,"['S', 'S', 'S', 'S', 'S', 'S', 'S', 'S', 'C', 'C', 'C', 'C', 'C', 'C', 'C', 'C', 'C', 'C', 'C', 'C', 'C', 'C', 'C', 'C']","[2162329, 2162653, 2163245, 2163904, 2164541, 2165115, 2165712, 2166306, 2166927, 2167543, 2168183, 2168827, 2169415, 2169982, 2170596, 2171216, 2171820, 2172426, 2173019, 2173625, 2174215, 2174822, 2175452, 2176032]","[2162446, 2162917, 2163493, 2164129, 2164763, 2165376, 2166002, 2166606, 2167213, 2167822, 2168442, 2169061, 2169653, 2170270, 2170856, 2171462, 2172079, 2172688, 2173250, 2173853, 2174445, 2175076, 2175697, 2176295]","[2162154, 2162753, 2163353, 2163953, 2164553, 2165153, 2165753, 2166353, 2166953, 2167570, 2168210, 2168855, 2169443, 2170010, 2170622, 2171244, 2171846, 2172453, 2173046, 2173651, 2174242, 2174849, 2175478, 2176059]",24,R,ITM,1.1,
2,400,trial,0,121,121,121,trial,"['S', 'S', 'S', 'S', 'S', 'S', 'S', 'S', 'C', 'C', 'C', 'C', 'C', 'C', 'C', 'C', 'C', 'C', 'C', 'C', 'C', 'C', 'C', 'C']","[2181693, 2182081, 2182377, 2182724, 2183140, 2183569, 2183986, 2184371, 2184786, 2185183, 2185597, 2186013, 2186432, 2186848, 2187262, 2187672, 2188100, 2188515, 2188911, 2189313, 2189739, 2190155, 2190551, 2190949]","[2181832, 2182203, 2182512, 2182871, 2183320, 2183751, 2184155, 2184530, 2184929, 2185357, 2185753, 2186183, 2186591, 2187010, 2187433, 2187845, 2188264, 2188667, 2189110, 2189490, 2189886, 2190339, 2190712, 2191130]","[2181564, 2181963, 2182364, 2182764, 2183164, 2183563, 2183964, 2184365, 2184814, 2185210, 2185624, 2186041, 2186459, 2186874, 2187290, 2187700, 2188127, 2188542, 2188939, 2189340, 2189766, 2190182, 2190577, 2190977]",24,R,ITM,1.1,
4,400,trial,0,122,122,122,trial,"['S', 'S', 'S', 'S', 'S', 'S', 'S', 'S', 'C', 'C', 'C', 'C', 'C', 'C', 'C', 'C', 'C', 'C', 'C', 'C', 'C', 'C', 'C', 'C']","[2196555, 2196819, 2197115, 2197509, 2197932, 2198322, 2198745, 2199132, 2199558, 2199967, 2200377, 2200796, 2201187, 2201590, 2202001, 2202409, 2202819, 2203243, 2203654, 2204082, 2204522, 2204910, 2205303, 2205727]","[2196653, 2196957, 2197258, 2197682, 2198089, 2198474, 2198890, 2199316, 2199704, 2200155, 2200540, 2200927, 2201322, 2201767, 2202180, 2202577, 2202990, 2203400, 2203797, 2204210, 2204659, 2205064, 2205465, 2205887]","[2196343, 2196743, 2197143, 2197543, 2197943, 2198343, 2198744, 2199143, 2199583, 2199993, 2200402, 2200821, 2201212, 2201616, 2202027, 2202434, 2202845, 2203269, 2203679, 2204107, 2204548, 2204936, 2205329, 2205753]",24,R,ITM,1.1,
5,400,trial,0,123,123,123,trial,"['S', 'S', 'S', 'S', 'S', 'S', 'S', 'S', 'C', 'C', 'C', 'C', 'C', 'C', 'C', 'C', 'C', 'C', 'C', 'C', 'C', 'C', 'C', 'C']","[2211356, 2211635, 2211952, 2212355, 2212770, 2213164, 2213561, 2213957, 2214375, 2214762, 2215159, 2215546, 2215965, 2216349, 2216735, 2217164, 2217583, 2217986, 2218338, 2218705, 2219124, 2219533, 2219922, 2220338]","[2211484, 2211756, 2212088, 2212512, 2212922, 2213301, 2213708, 2214113, 2214518, 2214907, 2215305, 2215696, 2216097, 2216501, 2216921, 2217331, 2217743, 2218138, 2218521, 2218888, 2219282, 2219697, 2220084, 2220514]","[2211225, 2211625, 2212025, 2212425, 2212826, 2213225, 2213625, 2214025, 2214401, 2214788, 2215185, 2215572, 2215992, 2216375, 2216761, 2217190, 2217610, 2218012, 2218364, 2218731, 2219150, 2219559, 2219948, 2220363]",24,R,ITM,1.1,
2,600,trial,0,124,124,124,trial,"['S', 'S', 'S', 'S', 'S', 'S', 'S', 'S', 'C', 'C', 'C', 'C', 'C', 'C', 'C', 'C', 'C', 'C', 'C', 'C', 'C', 'C', 'C', 'C']","[2225946, 2226184, 2226794, 2227441, 2228072, 2228667, 2229265, 2229851, 2230460, 2231043, 2231620, 2232166, 2232720, 2233291, 2233861, 2234427, 2235080, 2235594, 2236151, 2236715, 2237275, 2237821, 2238365, 2238953]","[2226063, 2226393, 2227033, 2227665, 2228259, 2228853, 2229430, 2229990, 2230590, 2231173, 2231764, 2232334, 2232865, 2233436, 2234010, 2234583, 2235233, 2235847, 2236346, 2236878, 2237413, 2237982, 2238542, 2239139]","[2225709, 2226308, 2226909, 2227508, 2228108, 2228707, 2229308, 2229908, 2230487, 2231070, 2231647, 2232194, 2232748, 2233318, 2233888, 2234455, 2235108, 2235622, 2236178, 2236741, 2237302, 2237848, 2238393, 2238980]",24,R,ITM,1.1,
3,600,trial,0,125,125,125,trial,"['S', 'S', 'S', 'S', 'S', 'S', 'S', 'S', 'C', 'C', 'C', 'C', 'C', 'C', 'C', 'C', 'C', 'C', 'C', 'C', 'C', 'C', 'C', 'C']","[2244692, 2244988, 2245613, 2246253, 2246836, 2247427, 2248041, 2248640, 2249229, 2249803, 2250357, 2250885, 2251456, 2252053, 2252616, 2253180, 2253755, 2254328, 2254895, 2255472, 2256032, 2256590, 2257165, 2257760]","[2244790, 2245264, 2245841, 2246430, 2246995, 2247620, 2248204, 2248822, 2249409, 2249979, 2250519, 2251064, 2251657, 2252224, 2252797, 2253402, 2254009, 2254619, 2255136, 2255690, 2256223, 2256862, 2257430, 2257987]","[2244512, 2245112, 2245712, 2246312, 2246913, 2247513, 2248113, 2248712, 2249254, 2249829, 2250383, 2250910, 2251482, 2252079, 2252642, 2253206, 2253780, 2254354, 2254920, 2255498, 2256058, 2256617, 2257190, 2257785]",24,R,ITM,1.1,
