octave,ioi,event,.thisRepN,.thisTrialN,.thisN,.thisIndex,event,tap_types,tap_times,release_times,tone_times,subject,handedness,experiment,version,
,,SPR,0,-1,-1,0,SPR,"['P', 'P', 'P', 'P', 'P', 'P', 'P', 'P', 'P', 'P', 'P', 'P', 'P', 'P', 'P', 'P', 'P', 'P', 'P', 'P', 'P', 'P', 'P', 'P', 'P', 'P', 'P', 'P', 'P', 'P']","[41715, 42272, 42830, 43424, 43983, 44545, 45101, 45663, 46219, 46761, 47324, 47873, 48455, 49018, 49594, 50139, 50689, 51239, 51780, 52330, 52865, 53387, 53938, 54507, 55021, 55562, 56093, 56668, 57200, 57715]","[41863, 42435, 43021, 43582, 44177, 44720, 45270, 45832, 46394, 46951, 47509, 48027, 48615, 49221, 49783, 50309, 50850, 51462, 52020, 52526, 53081, 53601, 54135, 54629, 55219, 55738, 56300, 56829, 57396, 57992]",,25,R,ITM,1.1,
5,500,practice,0,0,0,0,practice,"['S', 'S', 'S', 'S', 'C', 'C', 'C', 'C', 'C', 'C', 'C', 'C', 'C', 'C', 'C', 'C', 'C', 'C', 'C', 'C']","[130669, 131165, 131668, 132190, 132681, 133190, 133695, 134213, 134717, 135224, 135731, 136233, 136733, 137231, 137735, 138230, 138728, 139227, 139721, 140231]","[130841, 131366, 131869, 132388, 132894, 133391, 133912, 134412, 134923, 135419, 135943, 136443, 136941, 137441, 137942, 138450, 138952, 139455, 139970, 140448]","[128690, 129190, 129690, 130190, 130691, 131190, 131690, 132190, 132707, 133216, 133721, 134240, 134743, 135249, 135756, 136259, 136760, 137256, 137760, 138256, 138755, 139253, 139747, 140257]",25,R,ITM,1.1,
6,500,practice,0,1,1,1,practice,"['S', 'S', 'S', 'S', 'S', 'C', 'C', 'C', 'C', 'C', 'C', 'C', 'C', 'C', 'C', 'C', 'C', 'C', 'C', 'C', 'C']","[146663, 147538, 148067, 148571, 149055, 149566, 150055, 150564, 151067, 151585, 152082, 152572, 153057, 153541, 154031, 154537, 155017, 155507, 155993, 156483, 156960]","[146777, 147740, 148261, 148761, 149273, 149776, 150261, 150778, 151290, 151784, 152263, 152751, 153230, 153728, 154248, 154728, 155202, 155683, 156167, 156655, 157129]","[145601, 146100, 146600, 147100, 147600, 148101, 148600, 149100, 149593, 150083, 150591, 151094, 151612, 152109, 152599, 153083, 153569, 154058, 154564, 155043, 155534, 156020, 156510, 156987]",25,R,ITM,1.1,
7,500,practice,0,2,2,2,practice,"['S', 'S', 'S', 'S', 'S', 'S', 'S', 'S', 'C', 'C', 'C', 'C', 'C', 'C', 'C', 'C', 'C', 'C', 'C', 'C', 'C', 'C', 'C', 'C']","[162689, 162947, 163376, 163869, 164365, 164860, 165367, 165861, 166358, 166833, 167345, 167832, 168313, 168798, 169298, 169789, 170270, 170742, 171223, 171683, 172174, 172666, 173168, 173658]","[162842, 163127, 163598, 164078, 164569, 165072, 165597, 166079, 166559, 167042, 167562, 168050, 168517, 168992, 169496, 169968, 170445, 170935, 171422, 171870, 172380, 172908, 173379, 173878]","[162420, 162919, 163420, 163919, 164419, 164919, 165420, 165919, 166384, 166860, 167372, 167859, 168340, 168825, 169325, 169816, 170297, 170769, 171249, 171710, 172201, 172694, 173195, 173684]",25,R,ITM,1.1,
3,500,practice,0,3,3,3,practice,"['S', 'S', 'S', 'S', 'S', 'S', 'S', 'C', 'C', 'C', 'C', 'C', 'C', 'C', 'C', 'C', 'C', 'C', 'C', 'C', 'C', 'C', 'C']","[179415, 179913, 180431, 180939, 181438, 181948, 182447, 182974, 183468, 183971, 184467, 184970, 185478, 185993, 186494, 187002, 187505, 188029, 188526, 189037, 189541, 190045, 190548]","[179606, 180144, 180651, 181156, 181654, 182130, 182612, 183157, 183646, 184157, 184650, 185153, 185673, 186179, 186664, 187194, 187708, 188211, 188707, 189259, 189755, 190258, 190749]","[178972, 179472, 179973, 180472, 180972, 181472, 181972, 182472, 183000, 183493, 183997, 184493, 184995, 185503, 186018, 186520, 187028, 187532, 188055, 188552, 189064, 189566, 190070, 190574]",25,R,ITM,1.1,
4,500,practice,0,4,4,4,practice,"['S', 'S', 'S', 'S', 'S', 'S', 'S', 'C', 'C', 'C', 'C', 'C', 'C', 'C', 'C', 'C', 'C', 'C', 'C', 'C', 'C', 'C', 'C']","[196330, 196837, 197364, 197876, 198393, 198898, 199393, 199886, 200384, 200899, 201400, 201900, 202423, 202938, 203459, 203969, 204472, 205000, 205504, 206020, 206535, 207036, 207564]","[196523, 197062, 197579, 198084, 198581, 199096, 199571, 200099, 200654, 201115, 201606, 202116, 202627, 203150, 203683, 204185, 204701, 205196, 205763, 206259, 206737, 207277, 207779]","[195894, 196393, 196893, 197393, 197894, 198393, 198893, 199393, 199912, 200410, 200926, 201425, 201925, 202448, 202963, 203485, 203995, 204497, 205026, 205530, 206046, 206561, 207062, 207590]",25,R,ITM,1.1,
2,500,practice,0,5,5,5,practice,"['S', 'S', 'S', 'S', 'S', 'S', 'S', 'C', 'C', 'C', 'C', 'C', 'C', 'C', 'C', 'C', 'C', 'C', 'C', 'C', 'C', 'C', 'C']","[213738, 214247, 214748, 215257, 215796, 216280, 216782, 217283, 217801, 218307, 218817, 219333, 219868, 220358, 220882, 221403, 221919, 222442, 222959, 223474, 223979, 224502, 225003]","[213959, 214475, 214972, 215474, 215984, 216500, 216970, 217511, 218003, 218524, 219001, 219556, 220054, 220589, 221097, 221655, 222177, 222692, 223208, 223726, 224212, 224728, 225229]","[213293, 213792, 214292, 214793, 215293, 215793, 216293, 216794, 217311, 217828, 218335, 218844, 219360, 219895, 220385, 220909, 221430, 221946, 222469, 222987, 223501, 224006, 224530, 225030]",25,R,ITM,1.1,
5,600,trial,0,6,6,6,trial,"['S', 'S', 'S', 'S', 'S', 'S', 'S', 'S', 'C', 'C', 'C', 'C', 'C', 'C', 'C', 'C', 'C', 'C', 'C', 'C', 'C', 'C', 'C', 'C']","[264329, 264692, 265211, 265830, 266466, 267120, 267764, 268317, 268920, 269574, 270184, 270802, 271447, 272060, 272679, 273342, 273953, 274588, 275228, 275860, 276482, 277130, 277786, 278424]","[264474, 264892, 265450, 266116, 266722, 267352, 267982, 268562, 269145, 269810, 270388, 271029, 271648, 272291, 272975, 273604, 274198, 274839, 275456, 276073, 276724, 277361, 278002, 278656]","[264117, 264717, 265317, 265917, 266517, 267117, 267717, 268317, 268946, 269600, 270211, 270828, 271472, 272087, 272705, 273368, 273979, 274614, 275254, 275887, 276507, 277155, 277812, 278450]",25,R,ITM,1.1,
3,400,trial,0,7,7,7,trial,"['S', 'S', 'S', 'S', 'S', 'S', 'S', 'S', 'C', 'C', 'C', 'C', 'C', 'C', 'C', 'C', 'C', 'C', 'C', 'C', 'C', 'C', 'C', 'C']","[284381, 284762, 285070, 285338, 285691, 286115, 286507, 286911, 287318, 287651, 288011, 288409, 288794, 289223, 289639, 290039, 290465, 290889, 291300, 291725, 292147, 292537, 292960, 293370]","[284541, 284918, 285202, 285493, 285898, 286291, 286668, 287081, 287500, 287802, 288185, 288576, 288971, 289389, 289800, 290210, 290633, 291057, 291489, 291892, 292307, 292683, 293135, 293541]","[284204, 284603, 285003, 285404, 285803, 286203, 286603, 287003, 287343, 287677, 288036, 288435, 288820, 289249, 289665, 290065, 290491, 290915, 291325, 291750, 292172, 292563, 292985, 293396]",25,R,ITM,1.1,
2,400,trial,0,8,8,8,trial,"['S', 'S', 'S', 'S', 'S', 'S', 'S', 'C', 'C', 'C', 'C', 'C', 'C', 'C', 'C', 'C', 'C', 'C', 'C', 'C', 'C', 'C', 'C']","[299678, 299913, 300250, 300624, 301037, 301443, 301847, 302256, 302611, 302983, 303384, 303806, 304233, 304663, 305059, 305498, 305906, 306308, 306721, 307129, 307540, 307958, 308380]","[299788, 300065, 300416, 300801, 301201, 301611, 302022, 302425, 302772, 303154, 303561, 304001, 304439, 304854, 305271, 305704, 306092, 306510, 306886, 307312, 307732, 308158, 308571]","[299152, 299552, 299952, 300351, 300752, 301152, 301552, 301953, 302283, 302638, 303010, 303412, 303833, 304261, 304690, 305086, 305525, 305934, 306335, 306749, 307155, 307567, 307986, 308407]",25,R,ITM,1.1,
6,600,trial,0,9,9,9,trial,"['S', 'S', 'S', 'S', 'S', 'S', 'S', 'C', 'C', 'C', 'C', 'C', 'C', 'C', 'C', 'C', 'C', 'C', 'C', 'C', 'C', 'C', 'C']","[314907, 315254, 315815, 316447, 317067, 317672, 318251, 318852, 319431, 320023, 320602, 321205, 321783, 322360, 322951, 323559, 324156, 324733, 325345, 325975, 326561, 327145, 327729]","[315060, 315517, 316135, 316760, 317350, 317935, 318534, 319125, 319715, 320308, 320910, 321481, 322032, 322626, 323191, 323816, 324414, 324975, 325593, 326227, 326813, 327400, 327965]","[314100, 314699, 315299, 315899, 316499, 317100, 317700, 318300, 318878, 319458, 320050, 320628, 321231, 321811, 322387, 322977, 323586, 324183, 324760, 325371, 326001, 326588, 327172, 327755]",25,R,ITM,1.1,
7,400,trial,0,10,10,10,trial,"['S', 'S', 'S', 'S', 'S', 'S', 'S', 'C', 'C', 'C', 'C', 'C', 'C', 'C', 'C', 'C', 'C', 'C', 'C', 'C', 'C', 'C', 'C']","[333879, 334199, 334547, 334942, 335368, 335767, 336160, 336564, 336926, 337333, 337748, 338183, 338614, 339040, 339445, 339853, 340254, 340666, 341045, 341482, 341889, 342333, 342766]","[334033, 334360, 334730, 335136, 335539, 335940, 336316, 336734, 337105, 337534, 337926, 338382, 338797, 339230, 339628, 340051, 340433, 340846, 341217, 341626, 342090, 342525, 342948]","[333466, 333865, 334265, 334665, 335066, 335465, 335865, 336265, 336591, 336954, 337359, 337776, 338209, 338640, 339066, 339473, 339880, 340282, 340692, 341072, 341509, 341916, 342361, 342794]",25,R,ITM,1.1,
2,600,trial,0,11,11,11,trial,"['S', 'S', 'S', 'S', 'S', 'S', 'S', 'C', 'C', 'C', 'C', 'C', 'C', 'C', 'C', 'C', 'C', 'C', 'C', 'C', 'C', 'C', 'C']","[348551, 349306, 349982, 350576, 351194, 351806, 352418, 352994, 353614, 354202, 354797, 355397, 355995, 356601, 357204, 357820, 358434, 359056, 359667, 360276, 360897, 361515, 362130]","[348724, 349563, 350213, 350843, 351452, 352051, 352640, 353223, 353840, 354436, 355035, 355601, 356198, 356817, 357425, 358051, 358674, 359252, 359869, 360466, 361088, 361734, 362316]","[348237, 348837, 349437, 350036, 350638, 351237, 351838, 352437, 353021, 353641, 354230, 354825, 355425, 356023, 356628, 357231, 357848, 358461, 359084, 359694, 360302, 360925, 361542, 362157]",25,R,ITM,1.1,
6,400,trial,0,12,12,12,trial,"['S', 'S', 'S', 'S', 'S', 'S', 'S', 'C', 'C', 'C', 'C', 'C', 'C', 'C', 'C', 'C', 'C', 'C', 'C', 'C', 'C', 'C', 'C']","[367963, 368264, 368626, 369064, 369481, 369875, 370295, 370685, 371110, 371517, 371933, 372341, 372752, 373183, 373606, 374014, 374440, 374890, 375301, 375710, 376131, 376547, 376951]","[368108, 368422, 368813, 369230, 369643, 370023, 370439, 370855, 371269, 371696, 372101, 372512, 372934, 373352, 373755, 374208, 374625, 375043, 375471, 375884, 376291, 376691, 377107]","[367476, 367876, 368275, 368675, 369075, 369475, 369875, 370275, 370713, 371137, 371545, 371959, 372368, 372780, 373211, 373633, 374041, 374467, 374918, 375327, 375737, 376158, 376574, 376978]",25,R,ITM,1.1,
5,400,trial,0,13,13,13,trial,"['S', 'S', 'S', 'S', 'S', 'S', 'S', 'C', 'C', 'C', 'C', 'C', 'C', 'C', 'C', 'C', 'C', 'C', 'C', 'C', 'C', 'C', 'C']","[382997, 383298, 383662, 384075, 384470, 384867, 385272, 385652, 386058, 386458, 386850, 387240, 387679, 388067, 388484, 388890, 389267, 389684, 390078, 390526, 390907, 391329, 391702]","[383141, 383472, 383855, 384256, 384645, 385033, 385414, 385813, 386228, 386617, 387012, 387412, 387830, 388252, 388653, 389054, 389460, 389866, 390246, 390654, 391078, 391477, 391888]","[382515, 382915, 383315, 383715, 384115, 384516, 384915, 385315, 385678, 386084, 386484, 386876, 387266, 387704, 388092, 388509, 388916, 389293, 389709, 390105, 390552, 390933, 391355, 391728]",25,R,ITM,1.1,
2,400,trial,0,14,14,14,trial,"['S', 'S', 'S', 'S', 'S', 'S', 'S', 'C', 'C', 'C', 'C', 'C', 'C', 'C', 'C', 'C', 'C', 'C', 'C', 'C', 'C', 'C', 'C']","[397729, 398098, 398474, 398862, 399269, 399687, 400109, 400561, 400968, 401394, 401815, 402222, 402621, 403056, 403475, 403876, 404290, 404692, 405105, 405519, 405918, 406365, 406767]","[397880, 398264, 398652, 399025, 399438, 399857, 400293, 400722, 401159, 401585, 401971, 402407, 402812, 403231, 403631, 404051, 404447, 404860, 405287, 405688, 406100, 406533, 406923]","[397349, 397749, 398149, 398550, 398949, 399348, 399750, 400149, 400588, 400995, 401422, 401842, 402249, 402648, 403083, 403502, 403903, 404318, 404720, 405133, 405547, 405945, 406392, 406794]",25,R,ITM,1.1,
3,400,trial,0,15,15,15,trial,"['S', 'S', 'S', 'S', 'S', 'S', 'S', 'C', 'C', 'C', 'C', 'C', 'C', 'C', 'C', 'C', 'C', 'C', 'C', 'C', 'C', 'C', 'C']","[412755, 413099, 413504, 413904, 414330, 414737, 415142, 415559, 415958, 416361, 416781, 417166, 417585, 417990, 418408, 418832, 419218, 419631, 420018, 420423, 420831, 421258, 421697]","[412914, 413276, 413678, 414100, 414519, 414924, 415324, 415742, 416143, 416568, 416920, 417338, 417759, 418196, 418588, 419034, 419395, 419833, 420216, 420617, 421032, 421462, 421867]","[412417, 412815, 413215, 413616, 414015, 414415, 414815, 415215, 415585, 415983, 416387, 416806, 417191, 417610, 418016, 418434, 418857, 419244, 419656, 420043, 420449, 420856, 421283, 421723]",25,R,ITM,1.1,
6,400,trial,0,16,16,16,trial,"['S', 'S', 'S', 'S', 'S', 'S', 'S', 'C', 'C', 'C', 'C', 'C', 'C', 'C', 'C', 'C', 'C', 'C', 'C', 'C', 'C', 'C', 'C']","[427789, 428128, 428495, 428900, 429287, 429672, 430060, 430485, 430880, 431282, 431702, 432095, 432512, 432919, 433332, 433717, 434134, 434533, 434935, 435335, 435738, 436153, 436550]","[427919, 428302, 428695, 429083, 429490, 429843, 430247, 430666, 431071, 431475, 431892, 432297, 432693, 433104, 433496, 433897, 434304, 434706, 435104, 435508, 435895, 436299, 436708]","[427351, 427749, 428149, 428550, 428949, 429349, 429749, 430149, 430512, 430908, 431309, 431729, 432121, 432539, 432946, 433358, 433743, 434161, 434561, 434963, 435361, 435765, 436179, 436578]",25,R,ITM,1.1,
4,400,trial,0,17,17,17,trial,"['S', 'S', 'S', 'S', 'S', 'S', 'S', 'C', 'C', 'C', 'C', 'C', 'C', 'C', 'C', 'C', 'C', 'C', 'C', 'C', 'C', 'C', 'C']","[442284, 442712, 443101, 443492, 443919, 444351, 444776, 445200, 445584, 445956, 446376, 446783, 447186, 447611, 447991, 448414, 448836, 449258, 449654, 450083, 450490, 450899, 451294]","[442491, 442892, 443261, 443680, 444098, 444531, 444940, 445353, 445758, 446150, 446546, 446952, 447354, 447758, 448163, 448569, 449000, 449404, 449794, 450224, 450638, 451056, 451471]","[442022, 442421, 442821, 443222, 443621, 444021, 444422, 444821, 445225, 445609, 445981, 446402, 446810, 447213, 447638, 448017, 448440, 448862, 449284, 449680, 450109, 450515, 450925, 451319]",25,R,ITM,1.1,
3,600,trial,0,18,18,18,trial,"['S', 'S', 'S', 'S', 'S', 'S', 'S', 'C', 'C', 'C', 'C', 'C', 'C', 'C', 'C', 'C', 'C', 'C', 'C', 'C', 'C', 'C', 'C']","[462377, 463153, 463832, 464420, 465043, 465665, 466249, 466871, 467506, 468169, 468818, 469423, 470009, 470641, 471279, 471886, 472597, 473208, 473846, 474427, 475048, 475641, 476249]","[462530, 463393, 464041, 464643, 465247, 465887, 466512, 467127, 467742, 468400, 469032, 469658, 470235, 470843, 471473, 472100, 472781, 473427, 474030, 474625, 475266, 475847, 476447]","[462065, 462664, 463264, 463864, 464464, 465064, 465665, 466265, 466896, 467531, 468195, 468844, 469448, 470035, 470667, 471305, 471912, 472623, 473234, 473872, 474452, 475074, 475667, 476274]",25,R,ITM,1.1,
6,600,trial,0,19,19,19,trial,"['S', 'S', 'S', 'S', 'S', 'S', 'S', 'C', 'C', 'C', 'C', 'C', 'C', 'C', 'C', 'C', 'C', 'C', 'C', 'C', 'C', 'C', 'C']","[482351, 483129, 483782, 484404, 485011, 485603, 486182, 486811, 487414, 488020, 488600, 489212, 489839, 490458, 491047, 491654, 492255, 492832, 493461, 494091, 494698, 495312, 495948]","[482580, 483364, 483999, 484619, 485210, 485832, 486413, 487025, 487628, 488257, 488837, 489453, 490055, 490664, 491296, 491887, 492492, 493099, 493701, 494344, 494942, 495568, 496179]","[482003, 482603, 483203, 483803, 484403, 485003, 485603, 486203, 486838, 487441, 488047, 488627, 489239, 489866, 490484, 491075, 491680, 492281, 492859, 493488, 494117, 494725, 495339, 495975]",25,R,ITM,1.1,
7,600,trial,0,20,20,20,trial,"['S', 'S', 'S', 'S', 'S', 'S', 'S', 'C', 'C', 'C', 'C', 'C', 'C', 'C', 'C', 'C', 'C', 'C', 'C', 'C', 'C', 'C', 'C']","[501989, 502740, 503363, 503996, 504524, 505125, 505765, 506316, 506898, 507528, 508135, 508765, 509392, 509998, 510601, 511202, 511840, 512449, 513064, 513695, 514284, 514873, 515511]","[502312, 502971, 503591, 504187, 504782, 505361, 505987, 506544, 507112, 507714, 508337, 508961, 509604, 510263, 510864, 511457, 512039, 512702, 513320, 513940, 514514, 515122, 515722]","[501561, 502160, 502760, 503360, 503960, 504560, 505160, 505760, 506344, 506926, 507555, 508162, 508791, 509420, 510025, 510627, 511228, 511867, 512476, 513091, 513722, 514311, 514900, 515537]",25,R,ITM,1.1,
2,600,trial,0,21,21,21,trial,"['S', 'S', 'S', 'S', 'S', 'S', 'S', 'C', 'C', 'C', 'C', 'C', 'C', 'C', 'C', 'C', 'C', 'C', 'C', 'C', 'C', 'C', 'C']","[521567, 522236, 522825, 523475, 524076, 524676, 525278, 525861, 526478, 527086, 527709, 528327, 528931, 529547, 530199, 530814, 531400, 532011, 532630, 533227, 533849, 534475, 535093]","[521824, 522444, 523062, 523675, 524279, 524899, 525471, 526095, 526686, 527303, 527901, 528519, 529158, 529775, 530384, 531048, 531598, 532227, 532826, 533448, 534020, 534635, 535268]","[521075, 521674, 522275, 522875, 523475, 524076, 524676, 525276, 525889, 526505, 527113, 527736, 528355, 528959, 529574, 530227, 530842, 531428, 532037, 532657, 533254, 533875, 534502, 535120]",25,R,ITM,1.1,
7,600,trial,0,22,22,22,trial,"['S', 'S', 'S', 'S', 'S', 'S', 'S', 'S', 'C', 'C', 'C', 'C', 'C', 'C', 'C', 'C', 'C', 'C', 'C', 'C', 'C', 'C', 'C', 'C']","[540955, 541370, 541915, 542532, 543153, 543742, 544354, 544989, 545573, 546173, 546812, 547438, 548049, 548663, 549280, 549868, 550474, 551110, 551729, 552327, 552946, 553540, 554178, 554833]","[541095, 541587, 542160, 542766, 543363, 543965, 544588, 545175, 545810, 546373, 546994, 547590, 548212, 548832, 549464, 550050, 550657, 551291, 551937, 552545, 553143, 553728, 554355, 555068]","[540786, 541385, 541985, 542585, 543185, 543785, 544386, 544986, 545600, 546201, 546839, 547465, 548076, 548689, 549308, 549896, 550501, 551138, 551756, 552353, 552973, 553568, 554205, 554860]",25,R,ITM,1.1,
4,400,trial,0,23,23,23,trial,"['S', 'S', 'S', 'S', 'S', 'S', 'S', 'C', 'C', 'C', 'C', 'C', 'C', 'C', 'C', 'C', 'C', 'C', 'C', 'C', 'C', 'C', 'C']","[560722, 561144, 561593, 562020, 562414, 562819, 563238, 563689, 564068, 564458, 564858, 565263, 565678, 566085, 566489, 566894, 567308, 567718, 568116, 568503, 568873, 569283, 569705]","[560855, 561299, 561736, 562159, 562546, 562949, 563394, 563822, 564210, 564614, 565016, 565424, 565839, 566237, 566648, 567086, 567467, 567888, 568286, 568651, 569048, 569450, 569854]","[560546, 560946, 561346, 561746, 562146, 562546, 562947, 563346, 563715, 564093, 564484, 564884, 565288, 565703, 566111, 566514, 566920, 567333, 567744, 568141, 568528, 568899, 569309, 569731]",25,R,ITM,1.1,
5,400,trial,0,24,24,24,trial,"['S', 'S', 'S', 'S', 'S', 'S', 'S', 'S', 'C', 'C', 'C', 'C', 'C', 'C', 'C', 'C', 'C', 'C', 'C', 'C', 'C', 'C', 'C', 'C']","[575472, 575822, 576083, 576429, 576822, 577244, 577667, 578068, 578476, 578887, 579271, 579674, 580070, 580490, 580874, 581282, 581689, 582078, 582481, 582890, 583285, 583664, 584060, 584451]","[575614, 575975, 576231, 576589, 577003, 577416, 577838, 578251, 578652, 579053, 579443, 579833, 580236, 580651, 581031, 581459, 581855, 582233, 582653, 583051, 583428, 583803, 584208, 584598]","[575299, 575699, 576099, 576499, 576900, 577299, 577699, 578099, 578501, 578913, 579297, 579699, 580096, 580515, 580899, 581308, 581714, 582104, 582507, 582916, 583311, 583690, 584086, 584477]",25,R,ITM,1.1,
7,400,trial,0,25,25,25,trial,"['S', 'S', 'S', 'S', 'S', 'S', 'S', 'S', 'C', 'C', 'C', 'C', 'C', 'C', 'C', 'C', 'C', 'C', 'C', 'C', 'C', 'C', 'C', 'C']","[590098, 590356, 590689, 591065, 591452, 591831, 592268, 592645, 593089, 593520, 593925, 594312, 594726, 595133, 595548, 595964, 596404, 596787, 597203, 597602, 598017, 598415, 598829, 599231]","[590224, 590523, 590836, 591209, 591619, 591993, 592425, 592815, 593258, 593667, 594087, 594476, 594874, 595290, 595699, 596114, 596529, 596930, 597357, 597761, 598184, 598585, 598992, 599415]","[589928, 590327, 590728, 591128, 591528, 591928, 592328, 592729, 593117, 593547, 593952, 594339, 594753, 595161, 595574, 595992, 596430, 596813, 597231, 597628, 598043, 598441, 598856, 599258]",25,R,ITM,1.1,
5,600,trial,0,26,26,26,trial,"['S', 'S', 'S', 'S', 'S', 'S', 'S', 'C', 'C', 'C', 'C', 'C', 'C', 'C', 'C', 'C', 'C', 'C', 'C', 'C', 'C', 'C', 'C']","[605246, 606050, 606664, 607262, 607818, 608374, 608968, 609611, 610221, 610790, 611411, 612040, 612660, 613231, 613832, 614405, 614995, 615592, 616164, 616743, 617327, 617905, 618475]","[605382, 606256, 606883, 607505, 608047, 608614, 609164, 609818, 610447, 611041, 611638, 612244, 612855, 613460, 614068, 614631, 615221, 615795, 616373, 616957, 617532, 618115, 618683]","[604851, 605450, 606050, 606650, 607250, 607850, 608450, 609050, 609637, 610246, 610816, 611438, 612066, 612686, 613257, 613858, 614431, 615022, 615618, 616190, 616769, 617353, 617930, 618501]",25,R,ITM,1.1,
4,600,trial,0,27,27,27,trial,"['S', 'S', 'S', 'S', 'S', 'S', 'S', 'C', 'C', 'C', 'C', 'C', 'C', 'C', 'C', 'C', 'C', 'C', 'C', 'C', 'C', 'C', 'C']","[624278, 625025, 625638, 626247, 626814, 627435, 627993, 628598, 629152, 629730, 630393, 631020, 631651, 632269, 632876, 633477, 634086, 634680, 635303, 635921, 636535, 637139, 637710]","[624472, 625242, 625823, 626429, 627015, 627619, 628198, 628819, 629434, 630046, 630579, 631230, 631836, 632480, 633070, 633701, 634300, 634906, 635528, 636145, 636744, 637350, 637904]","[623868, 624468, 625069, 625669, 626269, 626869, 627469, 628069, 628624, 629178, 629756, 630419, 631046, 631676, 632295, 632901, 633502, 634112, 634706, 635329, 635947, 636562, 637166, 637735]",25,R,ITM,1.1,
3,600,trial,0,28,28,28,trial,"['S', 'S', 'S', 'S', 'S', 'S', 'S', 'C', 'C', 'C', 'C', 'C', 'C', 'C', 'C', 'C', 'C', 'C', 'C', 'C', 'C', 'C', 'C']","[643796, 644405, 645045, 645645, 646263, 646762, 647387, 647988, 648611, 649211, 649809, 650407, 651009, 651613, 652236, 652834, 653440, 654063, 654632, 655291, 655917, 656528, 657125]","[643980, 644605, 645196, 645828, 646415, 647049, 647629, 648232, 648847, 649474, 650030, 650608, 651204, 651825, 652428, 653081, 653685, 654267, 654862, 655515, 656133, 656729, 657335]","[643247, 643846, 644445, 645045, 645645, 646245, 646845, 647445, 648013, 648637, 649237, 649835, 650433, 651034, 651638, 652262, 652860, 653465, 654089, 654658, 655316, 655942, 656553, 657150]",25,R,ITM,1.1,
4,600,trial,0,29,29,29,trial,"['S', 'S', 'S', 'S', 'S', 'S', 'S', 'C', 'C', 'C', 'C', 'C', 'C', 'C', 'C', 'C', 'C', 'C', 'C', 'C', 'C', 'C', 'C']","[662968, 663659, 664251, 664845, 665418, 666066, 666640, 667198, 667819, 668416, 669026, 669643, 670248, 670823, 671427, 672058, 672624, 673238, 673833, 674493, 675081, 675651, 676241]","[663159, 663818, 664417, 665026, 665620, 666228, 666809, 667381, 668002, 668597, 669217, 669831, 670433, 671029, 671630, 672211, 672802, 673474, 674038, 674686, 675318, 675865, 676436]","[662440, 663041, 663641, 664241, 664840, 665440, 666040, 666640, 667224, 667845, 668441, 669051, 669670, 670274, 670850, 671453, 672083, 672650, 673264, 673860, 674519, 675106, 675678, 676267]",25,R,ITM,1.1,
6,600,trial,0,30,30,30,trial,"['S', 'S', 'S', 'S', 'S', 'S', 'S', 'C', 'C', 'C', 'C', 'C', 'C', 'C', 'C', 'C', 'C', 'C', 'C', 'C', 'C', 'C', 'C']","[685897, 686515, 687183, 687783, 688373, 688963, 689560, 690154, 690771, 691391, 691981, 692583, 693179, 693784, 694338, 694950, 695567, 696154, 696772, 697342, 697936, 698542, 699105]","[686104, 686729, 687349, 687964, 688596, 689181, 689762, 690350, 690959, 691581, 692203, 692800, 693415, 694025, 694577, 695160, 695784, 696372, 696983, 697573, 698141, 698768, 699335]","[685410, 686009, 686609, 687209, 687809, 688409, 689009, 689609, 690181, 690798, 691419, 692007, 692610, 693206, 693811, 694365, 694977, 695593, 696180, 696800, 697369, 697963, 698569, 699131]",25,R,ITM,1.1,
5,600,trial,0,31,31,31,trial,"['S', 'S', 'S', 'S', 'S', 'S', 'S', 'C', 'C', 'C', 'C', 'C', 'C', 'C', 'C', 'C', 'C', 'C', 'C', 'C', 'C', 'C', 'C']","[705121, 705773, 706401, 706995, 707609, 708276, 708831, 709453, 710109, 710713, 711301, 711914, 712508, 713128, 713738, 714352, 714959, 715563, 716157, 716777, 717418, 718032, 718667]","[705327, 706026, 706592, 707170, 707803, 708432, 709061, 709643, 710267, 710926, 711501, 712116, 712719, 713338, 713929, 714568, 715163, 715765, 716374, 716972, 717651, 718248, 718858]","[704646, 705245, 705845, 706445, 707045, 707645, 708245, 708845, 709479, 710134, 710739, 711326, 711941, 712535, 713155, 713763, 714378, 714985, 715588, 716183, 716804, 717445, 718058, 718693]",25,R,ITM,1.1,
4,600,trial,0,32,32,32,trial,"['S', 'S', 'S', 'S', 'S', 'S', 'S', 'C', 'C', 'C', 'C', 'C', 'C', 'C', 'C', 'C', 'C', 'C', 'C', 'C', 'C', 'C', 'C']","[724648, 725267, 725924, 726464, 727101, 727728, 728335, 728922, 729541, 730157, 730802, 731420, 732021, 732608, 733231, 733800, 734387, 735006, 735616, 736225, 736849, 737478, 738093]","[724782, 725440, 726107, 726767, 727337, 727971, 728554, 729151, 729765, 730412, 731055, 731645, 732227, 732828, 733415, 733990, 734599, 735176, 735793, 736392, 737036, 737677, 738293]","[724143, 724743, 725343, 725943, 726543, 727143, 727743, 728343, 728947, 729567, 730182, 730827, 731446, 732047, 732634, 733256, 733826, 734412, 735032, 735641, 736251, 736875, 737505, 738119]",25,R,ITM,1.1,
7,600,trial,0,33,33,33,trial,"['S', 'S', 'S', 'S', 'S', 'S', 'S', 'S', 'C', 'C', 'C', 'C', 'C', 'C', 'C', 'C', 'C', 'C', 'C', 'C', 'C', 'C', 'C', 'C']","[743684, 744068, 744656, 745299, 745915, 746502, 747091, 747721, 748271, 748907, 749507, 750118, 750732, 751336, 751939, 752557, 753190, 753815, 754417, 755028, 755624, 756246, 756874, 757535]","[743816, 744288, 744895, 745497, 746108, 746684, 747283, 747849, 748478, 749097, 749711, 750298, 750939, 751587, 752202, 752760, 753424, 754017, 754637, 755219, 755850, 756468, 757057, 757659]","[743513, 744112, 744712, 745312, 745912, 746512, 747112, 747712, 748299, 748934, 749534, 750146, 750758, 751363, 751967, 752583, 753217, 753842, 754444, 755054, 755651, 756274, 756900, 757562]",25,R,ITM,1.1,
6,400,trial,0,34,34,34,trial,"['S', 'S', 'S', 'S', 'S', 'S', 'S', 'C', 'C', 'C', 'C', 'C', 'C', 'C', 'C', 'C', 'C', 'C', 'C', 'C', 'C', 'C', 'C']","[763258, 763657, 763990, 764374, 764780, 765200, 765609, 766024, 766393, 766791, 767188, 767600, 767993, 768414, 768805, 769218, 769629, 770023, 770458, 770847, 771246, 771658, 772064]","[763424, 763803, 764166, 764544, 764971, 765370, 765783, 766193, 766567, 766959, 767361, 767779, 768173, 768581, 768977, 769372, 769782, 770199, 770595, 770989, 771401, 771793, 772215]","[762858, 763257, 763657, 764057, 764457, 764857, 765257, 765658, 766052, 766419, 766818, 767215, 767628, 768020, 768441, 768832, 769245, 769655, 770051, 770485, 770875, 771272, 771685, 772090]",25,R,ITM,1.1,
2,400,trial,0,35,35,35,trial,"['S', 'S', 'S', 'S', 'S', 'S', 'S', 'C', 'C', 'C', 'C', 'C', 'C', 'C', 'C', 'C', 'C', 'C', 'C', 'C', 'C', 'C', 'C']","[778047, 778427, 778843, 779225, 779628, 780034, 780447, 780867, 781263, 781650, 782057, 782446, 782876, 783272, 783682, 784110, 784510, 784903, 785321, 785723, 786125, 786503, 786915]","[778201, 778576, 778992, 779385, 779785, 780200, 780588, 781007, 781418, 781791, 782218, 782606, 783021, 783419, 783823, 784267, 784636, 785059, 785489, 785866, 786282, 786650, 787090]","[777663, 778063, 778463, 778863, 779264, 779663, 780062, 780464, 780895, 781291, 781677, 782084, 782473, 782903, 783300, 783710, 784138, 784538, 784930, 785349, 785750, 786153, 786530, 786942]",25,R,ITM,1.1,
2,600,trial,0,36,36,36,trial,"['S', 'S', 'S', 'S', 'S', 'S', 'S', 'S', 'C', 'C', 'C', 'C', 'C', 'C', 'C', 'C', 'C', 'C', 'C', 'C', 'C', 'C', 'C', 'C']","[792496, 792820, 793523, 794161, 794718, 795329, 795941, 796526, 797095, 797721, 798298, 798929, 799547, 800151, 800757, 801378, 802006, 802648, 803266, 803903, 804521, 805126, 805723, 806359]","[792611, 793116, 793795, 794316, 794858, 795495, 796085, 796666, 797263, 797855, 798459, 799079, 799680, 800285, 800903, 801527, 802139, 802786, 803402, 804047, 804671, 805281, 805882, 806495]","[792317, 792918, 793518, 794118, 794718, 795317, 795916, 796516, 797123, 797749, 798325, 798956, 799575, 800179, 800785, 801404, 802032, 802675, 803293, 803930, 804549, 805153, 805750, 806386]",25,R,ITM,1.1,
7,400,trial,0,37,37,37,trial,"['S', 'S', 'S', 'S', 'S', 'S', 'S', 'C', 'C', 'C', 'C', 'C', 'C', 'C', 'C', 'C', 'C', 'C', 'C', 'C', 'C', 'C', 'C']","[812431, 812734, 813097, 813512, 813918, 814312, 814711, 815150, 815557, 815945, 816358, 816737, 817166, 817553, 817975, 818387, 818764, 819175, 819568, 819993, 820358, 820770, 821174]","[812528, 812871, 813244, 813649, 814039, 814447, 814865, 815286, 815710, 816087, 816471, 816908, 817310, 817694, 818107, 818556, 818931, 819296, 819704, 820166, 820539, 820926, 821326]","[811956, 812355, 812755, 813155, 813555, 813956, 814355, 814755, 815176, 815584, 815973, 816385, 816763, 817193, 817580, 818001, 818414, 818791, 819202, 819596, 820021, 820385, 820797, 821200]",25,R,ITM,1.1,
3,400,trial,0,38,38,38,trial,"['S', 'S', 'S', 'S', 'S', 'S', 'S', 'S', 'C', 'C', 'C', 'C', 'C', 'C', 'C', 'C', 'C', 'C', 'C', 'C', 'C', 'C', 'C', 'C']","[826799, 827121, 827393, 827742, 828146, 828519, 828942, 829345, 829782, 830183, 830578, 830921, 831336, 831751, 832148, 832586, 833004, 833428, 833824, 834243, 834648, 835058, 835454, 835879]","[826948, 827257, 827534, 827892, 828296, 828692, 829112, 829507, 829917, 830319, 830711, 831098, 831495, 831898, 832352, 832733, 833166, 833571, 833975, 834395, 834802, 835213, 835615, 836017]","[826593, 826992, 827393, 827792, 828192, 828593, 828992, 829392, 829807, 830209, 830604, 830947, 831362, 831776, 832174, 832612, 833030, 833454, 833850, 834269, 834673, 835084, 835480, 835905]",25,R,ITM,1.1,
2,400,trial,0,39,39,39,trial,"['S', 'S', 'S', 'S', 'S', 'S', 'S', 'C', 'C', 'C', 'C', 'C', 'C', 'C', 'C', 'C', 'C', 'C', 'C', 'C', 'C', 'C', 'C']","[841728, 842096, 842469, 842870, 843275, 843691, 844073, 844480, 844879, 845293, 845690, 846082, 846491, 846903, 847301, 847695, 848109, 848526, 848910, 849307, 849730, 850156, 850557]","[841882, 842262, 842644, 843061, 843447, 843865, 844248, 844652, 845059, 845442, 845847, 846251, 846654, 847052, 847468, 847898, 848292, 848691, 849074, 849507, 849902, 850307, 850727]","[841327, 841728, 842127, 842526, 842928, 843327, 843727, 844126, 844508, 844907, 845320, 845718, 846109, 846518, 846930, 847328, 847723, 848137, 848553, 848937, 849334, 849758, 850184, 850585]",25,R,ITM,1.1,
5,600,trial,0,40,40,40,trial,"['S', 'S', 'S', 'S', 'S', 'S', 'S', 'C', 'C', 'C', 'C', 'C', 'C', 'C', 'C', 'C', 'C', 'C', 'C', 'C', 'C', 'C', 'C']","[856542, 857290, 857932, 858522, 859080, 859662, 860280, 860878, 861492, 862021, 862631, 863243, 863834, 864429, 865076, 865672, 866287, 866868, 867482, 868064, 868671, 869275, 869901]","[856700, 857485, 858110, 858682, 859247, 859860, 860437, 861030, 861620, 862214, 862811, 863410, 863963, 864587, 865199, 865807, 866415, 867000, 867596, 868173, 868805, 869434, 870044]","[856113, 856712, 857312, 857912, 858512, 859112, 859712, 860312, 860905, 861517, 862047, 862658, 863269, 863860, 864455, 865101, 865697, 866313, 866893, 867508, 868090, 868697, 869302, 869926]",25,R,ITM,1.1,
7,600,trial,0,41,41,41,trial,"['S', 'S', 'S', 'S', 'S', 'S', 'S', 'C', 'C', 'C', 'C', 'C', 'C', 'C', 'C', 'C', 'C', 'C', 'C', 'C', 'C', 'C', 'C']","[875736, 876444, 877138, 877640, 878222, 878813, 879463, 880069, 880698, 881293, 881906, 882488, 883075, 883667, 884304, 884904, 885472, 886050, 886663, 887261, 887865, 888438, 888991]","[875970, 876640, 877294, 877829, 878405, 878964, 879601, 880210, 880839, 881436, 882030, 882589, 883209, 883838, 884428, 885080, 885635, 886195, 886807, 887414, 887984, 888548, 889131]","[875277, 875876, 876476, 877076, 877676, 878276, 878876, 879476, 880096, 880724, 881319, 881934, 882515, 883102, 883694, 884332, 884932, 885498, 886077, 886690, 887288, 887891, 888466, 889018]",25,R,ITM,1.1,
5,400,trial,0,42,42,42,trial,"['S', 'S', 'S', 'S', 'S', 'S', 'S', 'C', 'C', 'C', 'C', 'C', 'C', 'C', 'C', 'C', 'C', 'C', 'C', 'C', 'C', 'C', 'C']","[903300, 903603, 903956, 904372, 904783, 905221, 905655, 906053, 906463, 906828, 907261, 907689, 908096, 908521, 908937, 909343, 909763, 910182, 910592, 911003, 911412, 911787, 912203]","[903433, 903748, 904103, 904514, 904929, 905374, 905792, 906201, 906597, 906981, 907406, 907837, 908254, 908664, 909074, 909487, 909902, 910320, 910726, 911129, 911535, 911925, 912336]","[902855, 903255, 903654, 904054, 904455, 904855, 905255, 905655, 906079, 906489, 906854, 907287, 907715, 908122, 908548, 908962, 909369, 909790, 910208, 910617, 911029, 911437, 911812, 912229]",25,R,ITM,1.1,
7,400,trial,0,43,43,43,trial,"['S', 'S', 'S', 'S', 'S', 'S', 'S', 'C', 'C', 'C', 'C', 'C', 'C', 'C', 'C', 'C', 'C', 'C', 'C', 'C', 'C', 'C', 'C']","[918004, 918396, 918789, 919206, 919616, 920029, 920449, 920852, 921279, 921690, 922106, 922531, 922948, 923359, 923771, 924203, 924617, 925028, 925444, 925874, 926274, 926708, 927092]","[918043, 918521, 918940, 919346, 919754, 920171, 920597, 921005, 921427, 921832, 922222, 922678, 923116, 923522, 923947, 924364, 924765, 925198, 925596, 926021, 926433, 926841, 927244]","[917686, 918085, 918486, 918885, 919285, 919686, 920085, 920485, 920880, 921306, 921717, 922134, 922559, 922976, 923386, 923799, 924230, 924645, 925056, 925470, 925901, 926302, 926735, 927119]",25,R,ITM,1.1,
3,600,trial,0,44,44,44,trial,"['S', 'S', 'S', 'S', 'S', 'S', 'S', 'C', 'C', 'C', 'C', 'C', 'C', 'C', 'C', 'C', 'C', 'C', 'C', 'C', 'C', 'C', 'C']","[932932, 933729, 934387, 934998, 935599, 936145, 936740, 937355, 937989, 938575, 939170, 939767, 940395, 940990, 941575, 942200, 942787, 943361, 943945, 944551, 945133, 945712, 946299]","[933081, 933886, 934526, 935155, 935753, 936298, 936922, 937527, 938143, 938759, 939330, 939917, 940519, 941189, 941752, 942347, 942979, 943564, 944141, 944758, 945325, 945901, 946475]","[932608, 933207, 933807, 934407, 935007, 935607, 936207, 936807, 937380, 938014, 938601, 939196, 939793, 940421, 941016, 941600, 942226, 942813, 943386, 943971, 944577, 945159, 945737, 946325]",25,R,ITM,1.1,
3,600,trial,0,45,45,45,trial,"['S', 'S', 'S', 'S', 'S', 'S', 'S', 'C', 'C', 'C', 'C', 'C', 'C', 'C', 'C', 'C', 'C', 'C', 'C', 'C', 'C', 'C', 'C']","[952084, 952855, 953568, 954121, 954715, 955293, 955902, 956489, 957087, 957679, 958260, 958811, 959407, 959995, 960578, 961159, 961803, 962421, 962996, 963559, 964136, 964738, 965355]","[952249, 952982, 953723, 954303, 954875, 955429, 956067, 956673, 957280, 957887, 958450, 959002, 959597, 960223, 960760, 961373, 961975, 962571, 963182, 963748, 964315, 964945, 965521]","[951735, 952335, 952935, 953535, 954135, 954735, 955335, 955935, 956515, 957113, 957705, 958285, 958836, 959432, 960021, 960604, 961184, 961828, 962447, 963021, 963585, 964162, 964763, 965381]",25,R,ITM,1.1,
2,600,trial,0,46,46,46,trial,"['S', 'S', 'S', 'S', 'S', 'S', 'S', 'C', 'C', 'C', 'C', 'C', 'C', 'C', 'C', 'C', 'C', 'C', 'C', 'C', 'C', 'C', 'C']","[971606, 972215, 972793, 973398, 973997, 974603, 975204, 975801, 976430, 977074, 977688, 978267, 978838, 979464, 980094, 980707, 981305, 981910, 982539, 983145, 983771, 984389, 985001]","[971772, 972385, 972952, 973604, 974195, 974811, 975384, 976006, 976614, 977220, 977860, 978481, 979052, 979695, 980294, 980895, 981493, 982145, 982738, 983349, 983963, 984588, 985194]","[971029, 971628, 972229, 972829, 973429, 974029, 974629, 975229, 975827, 976457, 977101, 977716, 978293, 978866, 979491, 980122, 980734, 981331, 981938, 982566, 983173, 983798, 984417, 985029]",25,R,ITM,1.1,
4,400,trial,0,47,47,47,trial,"['S', 'S', 'S', 'S', 'S', 'S', 'S', 'C', 'C', 'C', 'C', 'C', 'C', 'C', 'C', 'C', 'C', 'C', 'C', 'C', 'C', 'C', 'C']","[990993, 991250, 991586, 992006, 992421, 992826, 993256, 993642, 994045, 994433, 994825, 995193, 995605, 996014, 996426, 996856, 997284, 997699, 998113, 998510, 998932, 999325, 999728]","[991121, 991399, 991779, 992181, 992623, 993032, 993442, 993828, 994223, 994600, 995005, 995375, 995782, 996198, 996600, 997039, 997445, 997852, 998280, 998695, 999084, 999493, 999900]","[990474, 990873, 991273, 991673, 992073, 992474, 992873, 993273, 993668, 994071, 994458, 994851, 995219, 995631, 996039, 996453, 996882, 997310, 997726, 998138, 998536, 998958, 999351, 999753]",25,R,ITM,1.1,
5,400,trial,0,48,48,48,trial,"['S', 'S', 'S', 'S', 'S', 'S', 'S', 'C', 'C', 'C', 'C', 'C', 'C', 'C', 'C', 'C', 'C', 'C', 'C', 'C', 'C', 'C', 'C']","[1005939, 1006285, 1006684, 1007058, 1007468, 1007861, 1008261, 1008675, 1009059, 1009458, 1009847, 1010249, 1010641, 1011050, 1011417, 1011823, 1012215, 1012623, 1013024, 1013423, 1013792, 1014211, 1014606]","[1006078, 1006449, 1006849, 1007230, 1007627, 1008020, 1008429, 1008816, 1009202, 1009605, 1009991, 1010397, 1010799, 1011187, 1011582, 1011969, 1012365, 1012760, 1013154, 1013555, 1013939, 1014363, 1014750]","[1005497, 1005896, 1006297, 1006696, 1007096, 1007496, 1007896, 1008296, 1008701, 1009085, 1009484, 1009873, 1010275, 1010667, 1011076, 1011442, 1011849, 1012242, 1012648, 1013051, 1013448, 1013818, 1014237, 1014633]",25,R,ITM,1.1,
6,400,trial,0,49,49,49,trial,"['S', 'S', 'S', 'S', 'S', 'S', 'S', 'S', 'C', 'C', 'C', 'C', 'C', 'C', 'C', 'C', 'C', 'C', 'C', 'C', 'C', 'C', 'C', 'C']","[1020281, 1020589, 1020913, 1021266, 1021664, 1022068, 1022447, 1022845, 1023248, 1023653, 1024036, 1024429, 1024832, 1025223, 1025629, 1026024, 1026421, 1026820, 1027207, 1027618, 1028026, 1028407, 1028808, 1029177]","[1020399, 1020746, 1021058, 1021399, 1021817, 1022188, 1022608, 1022999, 1023397, 1023799, 1024157, 1024581, 1024980, 1025383, 1025772, 1026163, 1026574, 1026967, 1027372, 1027766, 1028175, 1028545, 1028960, 1029327]","[1020091, 1020490, 1020891, 1021290, 1021690, 1022090, 1022490, 1022891, 1023276, 1023681, 1024063, 1024455, 1024859, 1025250, 1025655, 1026051, 1026448, 1026846, 1027234, 1027645, 1028054, 1028434, 1028835, 1029203]",25,R,ITM,1.1,
6,600,trial,0,50,50,50,trial,"['S', 'S', 'S', 'S', 'S', 'S', 'S', 'S', 'C', 'C', 'C', 'C', 'C', 'C', 'C', 'C', 'C', 'C', 'C', 'C', 'C', 'C', 'C', 'C']","[1034718, 1034997, 1035703, 1036389, 1036967, 1037546, 1038132, 1038702, 1039300, 1039908, 1040524, 1041137, 1041733, 1042322, 1042896, 1043496, 1044122, 1044696, 1045285, 1045890, 1046479, 1047060, 1047634, 1048216]","[1034833, 1035374, 1035969, 1036557, 1037169, 1037722, 1038306, 1038867, 1039481, 1040094, 1040697, 1041290, 1041898, 1042516, 1043124, 1043709, 1044301, 1044907, 1045487, 1046070, 1046679, 1047250, 1047837, 1048418]","[1034543, 1035142, 1035742, 1036342, 1036942, 1037542, 1038142, 1038742, 1039327, 1039935, 1040550, 1041164, 1041760, 1042350, 1042924, 1043523, 1044150, 1044723, 1045312, 1045917, 1046507, 1047087, 1047662, 1048243]",25,R,ITM,1.1,
4,600,trial,0,51,51,51,trial,"['S', 'S', 'S', 'S', 'S', 'S', 'S', 'C', 'C', 'C', 'C', 'C', 'C', 'C', 'C', 'C', 'C', 'C', 'C', 'C', 'C', 'C', 'C']","[1054308, 1055002, 1055617, 1056238, 1056856, 1057455, 1058034, 1058635, 1059257, 1059862, 1060469, 1061053, 1061665, 1062260, 1062890, 1063458, 1064042, 1064642, 1065246, 1065842, 1066427, 1067003, 1067545]","[1054471, 1055190, 1055831, 1056427, 1057004, 1057616, 1058213, 1058806, 1059409, 1060017, 1060620, 1061224, 1061835, 1062447, 1063037, 1063683, 1064264, 1064828, 1065404, 1066036, 1066594, 1067253, 1067771]","[1053871, 1054471, 1055071, 1055671, 1056271, 1056871, 1057471, 1058071, 1058661, 1059282, 1059888, 1060495, 1061079, 1061691, 1062286, 1062916, 1063484, 1064068, 1064668, 1065272, 1065868, 1066452, 1067029, 1067572]",25,R,ITM,1.1,
3,400,trial,0,52,52,52,trial,"['S', 'S', 'S', 'S', 'C', 'C', 'C', 'C', 'C', 'C', 'C', 'C', 'C', 'C', 'C', 'C', 'C', 'C', 'C', 'C']","[1074652, 1075078, 1075472, 1075881, 1076250, 1076685, 1077091, 1077486, 1077902, 1078306, 1078717, 1079111, 1079526, 1079940, 1080325, 1080729, 1081134, 1081542, 1081954, 1082341]","[1074803, 1075238, 1075640, 1076033, 1076428, 1076832, 1077236, 1077652, 1078048, 1078466, 1078867, 1079266, 1079680, 1080074, 1080487, 1080890, 1081311, 1081703, 1082107, 1082502]","[1073105, 1073504, 1073904, 1074305, 1074704, 1075104, 1075505, 1075904, 1076276, 1076711, 1077116, 1077512, 1077927, 1078332, 1078743, 1079137, 1079552, 1079965, 1080350, 1080755, 1081159, 1081568, 1081979, 1082366]",25,R,ITM,1.1,
4,400,trial,0,53,53,53,trial,"['S', 'S', 'S', 'S', 'S', 'S', 'S', 'C', 'C', 'C', 'C', 'C', 'C', 'C', 'C', 'C', 'C', 'C', 'C', 'C', 'C', 'C', 'C']","[1088132, 1088523, 1089036, 1089471, 1089870, 1090290, 1090711, 1091139, 1091564, 1091956, 1092360, 1092765, 1093186, 1093567, 1093968, 1094383, 1094801, 1095205, 1095598, 1096024, 1096428, 1096842, 1097245]","[1088266, 1088668, 1089195, 1089647, 1090044, 1090441, 1090856, 1091290, 1091700, 1092122, 1092485, 1092920, 1093317, 1093736, 1094129, 1094540, 1094955, 1095390, 1095763, 1096164, 1096587, 1097008, 1097417]","[1087964, 1088362, 1088762, 1089162, 1089562, 1089963, 1090362, 1090762, 1091165, 1091590, 1091982, 1092385, 1092791, 1093212, 1093593, 1093995, 1094409, 1094827, 1095231, 1095623, 1096049, 1096454, 1096867, 1097272]",25,R,ITM,1.1,
7,600,trial,0,54,54,54,trial,"['S', 'S', 'S', 'S', 'S', 'S', 'S', 'C', 'C', 'C', 'C', 'C', 'C', 'C', 'C', 'C', 'C', 'C', 'C', 'C', 'C', 'C', 'C']","[1106613, 1107297, 1107900, 1108503, 1109117, 1109707, 1110297, 1110931, 1111515, 1112101, 1112721, 1113329, 1113935, 1114573, 1115160, 1115776, 1116348, 1116941, 1117560, 1118184, 1118774, 1119340, 1119939]","[1106794, 1107472, 1108079, 1108663, 1109275, 1109873, 1110461, 1111088, 1111665, 1112283, 1112865, 1113466, 1114085, 1114701, 1115313, 1115920, 1116485, 1117115, 1117709, 1118330, 1118929, 1119523, 1120113]","[1106144, 1106743, 1107343, 1107943, 1108543, 1109143, 1109743, 1110343, 1110958, 1111542, 1112128, 1112748, 1113356, 1113963, 1114600, 1115187, 1115803, 1116375, 1116968, 1117587, 1118212, 1118800, 1119367, 1119966]",25,R,ITM,1.1,
4,600,trial,0,55,55,55,trial,"['S', 'S', 'S', 'S', 'S', 'S', 'S', 'C', 'C', 'C', 'C', 'C', 'C', 'C', 'C', 'C', 'C', 'C', 'C', 'C', 'C', 'C', 'C']","[1126181, 1126855, 1127459, 1128076, 1128688, 1129330, 1129910, 1130493, 1131110, 1131728, 1132308, 1132877, 1133486, 1134084, 1134659, 1135262, 1135828, 1136406, 1136985, 1137586, 1138144, 1138738, 1139330]","[1126330, 1127026, 1127647, 1128241, 1128854, 1129479, 1130060, 1130673, 1131269, 1131887, 1132466, 1133038, 1133662, 1134256, 1134841, 1135439, 1136043, 1136596, 1137193, 1137777, 1138368, 1138929, 1139484]","[1125731, 1126330, 1126930, 1127530, 1128130, 1128730, 1129330, 1129930, 1130519, 1131136, 1131754, 1132334, 1132903, 1133512, 1134110, 1134685, 1135288, 1135854, 1136432, 1137010, 1137612, 1138170, 1138763, 1139355]",25,R,ITM,1.1,
7,600,trial,0,56,56,56,trial,"['S', 'S', 'S', 'S', 'S', 'S', 'S', 'C', 'C', 'C', 'C', 'C', 'C', 'C', 'C', 'C', 'C', 'C', 'C', 'C', 'C', 'C', 'C']","[1145066, 1145877, 1146512, 1147144, 1147745, 1148310, 1148910, 1149470, 1150070, 1150657, 1151246, 1151858, 1152475, 1153071, 1153670, 1154281, 1154878, 1155484, 1156111, 1156711, 1157330, 1157918, 1158506]","[1145224, 1146052, 1146697, 1147313, 1147931, 1148516, 1149086, 1149654, 1150287, 1150899, 1151493, 1152088, 1152683, 1153285, 1153884, 1154511, 1155150, 1155733, 1156330, 1156926, 1157548, 1158140, 1158713]","[1144729, 1145328, 1145928, 1146528, 1147128, 1147728, 1148328, 1148929, 1149497, 1150098, 1150684, 1151273, 1151886, 1152502, 1153098, 1153697, 1154309, 1154906, 1155512, 1156137, 1156738, 1157358, 1157946, 1158534]",25,R,ITM,1.1,
6,400,trial,0,57,57,57,trial,"['S', 'S', 'S', 'S', 'S', 'S', 'S', 'C', 'C', 'C', 'C', 'C', 'C', 'C', 'C', 'C', 'C', 'C', 'C', 'C', 'C', 'C', 'C']","[1164733, 1165075, 1165440, 1165838, 1166239, 1166652, 1167049, 1167473, 1167905, 1168311, 1168705, 1169096, 1169515, 1169917, 1170316, 1170732, 1171155, 1171569, 1171975, 1172366, 1172764, 1173176, 1173572]","[1164884, 1165232, 1165619, 1166010, 1166411, 1166827, 1167215, 1167642, 1168053, 1168456, 1168863, 1169277, 1169669, 1170106, 1170480, 1170892, 1171319, 1171708, 1172111, 1172510, 1172909, 1173338, 1173737]","[1164301, 1164700, 1165101, 1165500, 1165900, 1166301, 1166700, 1167100, 1167500, 1167933, 1168337, 1168733, 1169123, 1169542, 1169945, 1170342, 1170758, 1171182, 1171597, 1172001, 1172392, 1172791, 1173203, 1173599]",25,R,ITM,1.1,
4,400,trial,0,58,58,58,trial,"['S', 'S', 'S', 'S', 'S', 'S', 'S', 'C', 'C', 'C', 'C', 'C', 'C', 'C', 'C', 'C', 'C', 'C', 'C', 'C', 'C', 'C', 'C']","[1179326, 1179693, 1180099, 1180477, 1180874, 1181290, 1181685, 1182075, 1182475, 1182885, 1183280, 1183695, 1184112, 1184527, 1184920, 1185333, 1185735, 1186140, 1186534, 1186932, 1187337, 1187725, 1188102]","[1179466, 1179858, 1180250, 1180645, 1181027, 1181440, 1181843, 1182233, 1182635, 1183034, 1183438, 1183856, 1184262, 1184660, 1185067, 1185478, 1185881, 1186277, 1186681, 1187092, 1187463, 1187876, 1188259]","[1178925, 1179324, 1179724, 1180125, 1180525, 1180925, 1181325, 1181725, 1182101, 1182500, 1182911, 1183305, 1183721, 1184138, 1184552, 1184946, 1185358, 1185762, 1186165, 1186560, 1186958, 1187362, 1187750, 1188127]",25,R,ITM,1.1,
5,600,trial,0,59,59,59,trial,"['S', 'S', 'S', 'S', 'S', 'S', 'S', 'S', 'C', 'C', 'C', 'C', 'C', 'C', 'C', 'C', 'C', 'C', 'C', 'C', 'C', 'C', 'C', 'C']","[1193663, 1193954, 1194565, 1195198, 1195786, 1196379, 1196977, 1197580, 1198202, 1198796, 1199368, 1199964, 1200540, 1201165, 1201766, 1202362, 1202948, 1203523, 1204092, 1204678, 1205272, 1205869, 1206481, 1207052]","[1193791, 1194223, 1194772, 1195376, 1195950, 1196541, 1197137, 1197751, 1198351, 1198953, 1199546, 1200116, 1200687, 1201299, 1201924, 1202505, 1203064, 1203673, 1204241, 1204846, 1205435, 1206029, 1206649, 1207213]","[1193472, 1194072, 1194672, 1195271, 1195871, 1196471, 1197071, 1197671, 1198228, 1198822, 1199393, 1199989, 1200566, 1201191, 1201792, 1202388, 1202973, 1203549, 1204118, 1204704, 1205298, 1205895, 1206507, 1207078]",25,R,ITM,1.1,
6,600,trial,0,60,60,60,trial,"['S', 'S', 'S', 'S', 'S', 'S', 'S', 'C', 'C', 'C', 'C', 'C', 'C', 'C', 'C', 'C', 'C', 'C', 'C', 'C', 'C', 'C', 'C']","[1213112, 1213859, 1214507, 1215089, 1215692, 1216273, 1216905, 1217506, 1218100, 1218698, 1219290, 1219867, 1220459, 1221025, 1221597, 1222196, 1222787, 1223365, 1223950, 1224570, 1225158, 1225752, 1226349]","[1213298, 1214071, 1214707, 1215287, 1215888, 1216487, 1217103, 1217723, 1218306, 1218889, 1219478, 1220029, 1220643, 1221230, 1221804, 1222421, 1223018, 1223598, 1224186, 1224803, 1225356, 1225954, 1226528]","[1212770, 1213369, 1213969, 1214569, 1215169, 1215769, 1216369, 1216969, 1217533, 1218127, 1218725, 1219317, 1219894, 1220487, 1221052, 1221623, 1222223, 1222813, 1223392, 1223976, 1224597, 1225185, 1225779, 1226377]",25,R,ITM,1.1,
4,600,trial,0,61,61,61,trial,"['S', 'S', 'S', 'S', 'S', 'S', 'S', 'S', 'C', 'C', 'C', 'C', 'C', 'C', 'C', 'C', 'C', 'C', 'C', 'C', 'C', 'C', 'C', 'C']","[1232033, 1232330, 1232935, 1233565, 1234216, 1234828, 1235400, 1236023, 1236601, 1237208, 1237776, 1238368, 1238948, 1239521, 1240084, 1240668, 1241240, 1241825, 1242387, 1242942, 1243536, 1244110, 1244670, 1245225]","[1232145, 1232585, 1233153, 1233787, 1234428, 1235026, 1235620, 1236230, 1236790, 1237440, 1238000, 1238580, 1239195, 1239721, 1240311, 1240877, 1241464, 1242034, 1242595, 1243152, 1243749, 1244316, 1244890, 1245466]","[1231854, 1232453, 1233053, 1233653, 1234253, 1234853, 1235453, 1236054, 1236627, 1237233, 1237801, 1238393, 1238974, 1239546, 1240110, 1240693, 1241266, 1241850, 1242413, 1242968, 1243561, 1244136, 1244696, 1245251]",25,R,ITM,1.1,
2,600,trial,0,62,62,62,trial,"['S', 'S', 'S', 'S', 'S', 'S', 'S', 'C', 'C', 'C', 'C', 'C', 'C', 'C', 'C', 'C', 'C', 'C', 'C', 'C', 'C', 'C', 'C']","[1251255, 1251888, 1252497, 1253137, 1253770, 1254373, 1254973, 1255573, 1256174, 1256722, 1257310, 1257909, 1258524, 1259134, 1259728, 1260332, 1260976, 1261624, 1262188, 1262774, 1263370, 1263927, 1264556]","[1251544, 1252127, 1252709, 1253341, 1253972, 1254596, 1255171, 1255766, 1256374, 1256898, 1257515, 1258113, 1258744, 1259345, 1259923, 1260502, 1261158, 1261800, 1262401, 1262957, 1263558, 1264156, 1264759]","[1250822, 1251421, 1252021, 1252621, 1253221, 1253821, 1254421, 1255021, 1255601, 1256202, 1256750, 1257337, 1257936, 1258552, 1259162, 1259755, 1260359, 1261002, 1261650, 1262215, 1262800, 1263396, 1263954, 1264582]",25,R,ITM,1.1,
2,400,trial,0,63,63,63,trial,"['S', 'S', 'S', 'S', 'S', 'S', 'S', 'C', 'C', 'C', 'C', 'C', 'C', 'C', 'C', 'C', 'C', 'C', 'C', 'C', 'C', 'C', 'C']","[1270769, 1271030, 1271421, 1271841, 1272249, 1272636, 1273042, 1273438, 1273849, 1274237, 1274629, 1275017, 1275423, 1275823, 1276215, 1276628, 1277035, 1277424, 1277825, 1278212, 1278608, 1279031, 1279472]","[1270890, 1271181, 1271587, 1272002, 1272403, 1272800, 1273185, 1273606, 1274000, 1274424, 1274808, 1275183, 1275557, 1275958, 1276362, 1276794, 1277187, 1277564, 1277966, 1278375, 1278752, 1279167, 1279612]","[1270299, 1270700, 1271099, 1271498, 1271900, 1272299, 1272699, 1273099, 1273465, 1273877, 1274265, 1274655, 1275044, 1275450, 1275849, 1276242, 1276656, 1277063, 1277451, 1277852, 1278239, 1278636, 1279058, 1279499]",25,R,ITM,1.1,
3,600,trial,0,64,64,64,trial,"['S', 'S', 'S', 'S', 'S', 'S', 'S', 'C', 'C', 'C', 'C', 'C', 'C', 'C', 'C', 'C', 'C', 'C', 'C', 'C', 'C', 'C', 'C']","[1285480, 1286211, 1286847, 1287425, 1288017, 1288615, 1289219, 1289841, 1290430, 1290990, 1291548, 1292083, 1292677, 1293246, 1293804, 1294372, 1294937, 1295494, 1296068, 1296633, 1297229, 1297770, 1298349]","[1285613, 1286395, 1287016, 1287599, 1288196, 1288781, 1289402, 1290002, 1290577, 1291162, 1291719, 1292274, 1292861, 1293458, 1294049, 1294608, 1295166, 1295734, 1296299, 1296880, 1297434, 1297978, 1298570]","[1285091, 1285690, 1286290, 1286890, 1287490, 1288090, 1288690, 1289290, 1289867, 1290456, 1291016, 1291574, 1292109, 1292702, 1293272, 1293830, 1294398, 1294962, 1295519, 1296094, 1296659, 1297255, 1297796, 1298374]",25,R,ITM,1.1,
2,400,trial,0,65,65,65,trial,"['S', 'S', 'S', 'S', 'S', 'S', 'S', 'S', 'C', 'C', 'C', 'C', 'C', 'C', 'C', 'C', 'C', 'C', 'C', 'C', 'C', 'C', 'C', 'C']","[1304074, 1304369, 1304664, 1305038, 1305446, 1305865, 1306281, 1306681, 1307024, 1307437, 1307804, 1308217, 1308653, 1309046, 1309448, 1309861, 1310288, 1310709, 1311099, 1311477, 1311867, 1312280, 1312678, 1313078]","[1304176, 1304506, 1304810, 1305197, 1305607, 1306010, 1306422, 1306806, 1307194, 1307563, 1307962, 1308362, 1308773, 1309208, 1309606, 1310013, 1310412, 1310830, 1311257, 1311624, 1312023, 1312397, 1312803, 1313202]","[1303880, 1304280, 1304679, 1305080, 1305481, 1305880, 1306281, 1306681, 1307052, 1307463, 1307832, 1308243, 1308681, 1309074, 1309475, 1309889, 1310315, 1310736, 1311127, 1311505, 1311895, 1312307, 1312706, 1313105]",25,R,ITM,1.1,
3,400,trial,0,66,66,66,trial,"['S', 'S', 'S', 'S', 'S', 'S', 'S', 'C', 'C', 'C', 'C', 'C', 'C', 'C', 'C', 'C', 'C', 'C', 'C', 'C', 'C', 'C', 'C']","[1319015, 1319329, 1319683, 1320102, 1320511, 1320927, 1321335, 1321741, 1322129, 1322537, 1322926, 1323312, 1323705, 1324111, 1324494, 1324888, 1325287, 1325708, 1326073, 1326479, 1326807, 1327190, 1327587]","[1319138, 1319487, 1319845, 1320266, 1320682, 1321091, 1321497, 1321889, 1322286, 1322679, 1323057, 1323464, 1323849, 1324255, 1324645, 1325053, 1325432, 1325839, 1326217, 1326658, 1327016, 1327368, 1327734]","[1318584, 1318984, 1319385, 1319784, 1320184, 1320584, 1320984, 1321384, 1321766, 1322155, 1322562, 1322951, 1323337, 1323730, 1324137, 1324520, 1324913, 1325313, 1325733, 1326099, 1326504, 1326832, 1327215, 1327612]",25,R,ITM,1.1,
6,400,trial,0,67,67,67,trial,"['S', 'S', 'S', 'S', 'S', 'S', 'S', 'C', 'C', 'C', 'C', 'C', 'C', 'C', 'C', 'C', 'C', 'C', 'C', 'C', 'C', 'C', 'C']","[1333727, 1334135, 1334537, 1334919, 1335325, 1335704, 1336113, 1336507, 1336897, 1337297, 1337712, 1338127, 1338527, 1338959, 1339361, 1339746, 1340155, 1340556, 1340922, 1341333, 1341714, 1342127, 1342537]","[1333916, 1334317, 1334697, 1335118, 1335507, 1335882, 1336304, 1336697, 1337080, 1337488, 1337888, 1338267, 1338698, 1339100, 1339486, 1339915, 1340306, 1340707, 1341083, 1341496, 1341897, 1342298, 1342699]","[1333399, 1333798, 1334198, 1334598, 1334999, 1335398, 1335798, 1336199, 1336534, 1336924, 1337324, 1337740, 1338153, 1338555, 1338986, 1339387, 1339772, 1340182, 1340583, 1340949, 1341360, 1341742, 1342153, 1342564]",25,R,ITM,1.1,
2,600,trial,0,68,68,68,trial,"['S', 'S', 'S', 'S', 'S', 'S', 'S', 'S', 'C', 'C', 'C', 'C', 'C', 'C', 'C', 'C', 'C', 'C', 'C', 'C', 'C', 'C', 'C', 'C']","[1348261, 1348548, 1349227, 1349854, 1350467, 1351052, 1351654, 1352300, 1352873, 1353495, 1354085, 1354676, 1355283, 1355878, 1356449, 1357062, 1357676, 1358276, 1358878, 1359488, 1360103, 1360726, 1361332, 1361980]","[1348381, 1348876, 1349459, 1350067, 1350656, 1351267, 1351860, 1352481, 1353086, 1353689, 1354276, 1354887, 1355453, 1356088, 1356664, 1357277, 1357893, 1358493, 1359088, 1359697, 1360313, 1360927, 1361569, 1362153]","[1348101, 1348700, 1349299, 1349900, 1350500, 1351100, 1351700, 1352300, 1352899, 1353523, 1354112, 1354702, 1355311, 1355906, 1356476, 1357089, 1357703, 1358303, 1358905, 1359514, 1360131, 1360752, 1361359, 1362007]",25,R,ITM,1.1,
7,400,trial,0,69,69,69,trial,"['S', 'S', 'S', 'S', 'S', 'S', 'S', 'C', 'C', 'C', 'C', 'C', 'C', 'C', 'C', 'C', 'C', 'C', 'C', 'C', 'C', 'C', 'C']","[1368100, 1368442, 1368847, 1369246, 1369661, 1370073, 1370480, 1370888, 1371304, 1371714, 1372115, 1372518, 1372921, 1373324, 1373719, 1374117, 1374521, 1374923, 1375318, 1375726, 1376152, 1376578, 1376997]","[1368267, 1368622, 1369030, 1369421, 1369840, 1370250, 1370647, 1371059, 1371465, 1371886, 1372274, 1372681, 1373058, 1373489, 1373861, 1374262, 1374661, 1375063, 1375469, 1375893, 1376321, 1376762, 1377171]","[1367729, 1368127, 1368527, 1368927, 1369327, 1369728, 1370127, 1370527, 1370914, 1371331, 1371742, 1372143, 1372546, 1372948, 1373351, 1373746, 1374144, 1374547, 1374950, 1375344, 1375753, 1376180, 1376605, 1377024]",25,R,ITM,1.1,
5,400,trial,0,70,70,70,trial,"['S', 'S', 'S', 'S', 'S', 'S', 'S', 'S', 'C', 'C', 'C', 'C', 'C', 'C', 'C', 'C', 'C', 'C', 'C', 'C', 'C', 'C', 'C', 'C']","[1382585, 1382839, 1383149, 1383528, 1383921, 1384333, 1384752, 1385153, 1385546, 1385946, 1386368, 1386742, 1387156, 1387542, 1387932, 1388342, 1388747, 1389149, 1389571, 1389966, 1390380, 1390772, 1391160, 1391567]","[1382708, 1382977, 1383312, 1383675, 1384078, 1384507, 1384909, 1385298, 1385694, 1386089, 1386482, 1386867, 1387281, 1387687, 1388095, 1388487, 1388904, 1389344, 1389728, 1390111, 1390517, 1390917, 1391312, 1391719]","[1382378, 1382778, 1383178, 1383578, 1383979, 1384378, 1384778, 1385179, 1385572, 1385972, 1386393, 1386768, 1387183, 1387568, 1387958, 1388368, 1388773, 1389174, 1389596, 1389991, 1390405, 1390798, 1391185, 1391593]",25,R,ITM,1.1,
7,400,trial,0,71,71,71,trial,"['S', 'S', 'S', 'S', 'S', 'S', 'S', 'S', 'C', 'C', 'C', 'C', 'C', 'C', 'C', 'C', 'C', 'C', 'C', 'C', 'C', 'C', 'C', 'C']","[1397118, 1397371, 1397707, 1398079, 1398447, 1398853, 1399242, 1399656, 1400035, 1400419, 1400810, 1401225, 1401591, 1402004, 1402438, 1402831, 1403207, 1403596, 1404011, 1404397, 1404814, 1405232, 1405627, 1406051]","[1397221, 1397516, 1397858, 1398230, 1398612, 1399019, 1399405, 1399804, 1400187, 1400576, 1400976, 1401368, 1401775, 1402168, 1402592, 1402978, 1403380, 1403761, 1404156, 1404551, 1404966, 1405377, 1405783, 1406175]","[1396946, 1397345, 1397745, 1398146, 1398545, 1398945, 1399346, 1399745, 1400061, 1400446, 1400838, 1401251, 1401618, 1402031, 1402465, 1402859, 1403235, 1403623, 1404038, 1404425, 1404841, 1405259, 1405654, 1406078]",25,R,ITM,1.1,
5,600,trial,0,72,72,72,trial,"['S', 'S', 'S', 'S', 'S', 'S', 'S', 'C', 'C', 'C', 'C', 'C', 'C', 'C', 'C', 'C', 'C', 'C', 'C', 'C', 'C', 'C', 'C']","[1412296, 1412927, 1413548, 1414148, 1414724, 1415312, 1415901, 1416515, 1417062, 1417631, 1418214, 1418782, 1419366, 1419942, 1420534, 1421118, 1421663, 1422230, 1422821, 1423383, 1423971, 1424532, 1425080]","[1412572, 1413159, 1413767, 1414310, 1414923, 1415510, 1416076, 1416685, 1417267, 1417841, 1418416, 1418977, 1419598, 1420155, 1420740, 1421347, 1421914, 1422469, 1423043, 1423609, 1424183, 1424745, 1425296]","[1411823, 1412423, 1413023, 1413623, 1414223, 1414823, 1415424, 1416024, 1416541, 1417088, 1417657, 1418241, 1418808, 1419392, 1419969, 1420560, 1421145, 1421688, 1422257, 1422846, 1423409, 1423996, 1424558, 1425105]",25,R,ITM,1.1,
3,600,trial,0,73,73,73,trial,"['S', 'S', 'S', 'S', 'S', 'S', 'S', 'C', 'C', 'C', 'C', 'C', 'C', 'C', 'C', 'C', 'C', 'C', 'C', 'C', 'C', 'C', 'C']","[1430979, 1431776, 1432356, 1432966, 1433535, 1434141, 1434755, 1435368, 1435964, 1436547, 1437191, 1437728, 1438318, 1438925, 1439523, 1440143, 1440771, 1441375, 1442011, 1442621, 1443249, 1443845, 1444390]","[1431139, 1432004, 1432553, 1433099, 1433664, 1434269, 1434858, 1435479, 1436075, 1436673, 1437299, 1437853, 1438470, 1439065, 1439648, 1440232, 1440879, 1441496, 1442129, 1442740, 1443353, 1443933, 1444471]","[1430604, 1431204, 1431804, 1432404, 1433005, 1433605, 1434205, 1434805, 1435394, 1435990, 1436572, 1437216, 1437754, 1438344, 1438951, 1439549, 1440168, 1440796, 1441400, 1442036, 1442647, 1443274, 1443870, 1444416]",25,R,ITM,1.1,
6,600,trial,0,74,74,74,trial,"['S', 'S', 'S', 'S', 'S', 'S', 'S', 'C', 'C', 'C', 'C', 'C', 'C', 'C', 'C', 'C', 'C', 'C', 'C', 'C', 'C', 'C', 'C']","[1450177, 1450928, 1451560, 1452174, 1452723, 1453317, 1453919, 1454500, 1455116, 1455710, 1456312, 1456913, 1457505, 1458087, 1458696, 1459276, 1459849, 1460431, 1460998, 1461566, 1462127, 1462691, 1463283]","[1450336, 1451112, 1451717, 1452317, 1452974, 1453558, 1454131, 1454698, 1455342, 1455922, 1456499, 1457129, 1457730, 1458316, 1458911, 1459529, 1460089, 1460666, 1461219, 1461768, 1462387, 1462937, 1463506]","[1449756, 1450355, 1450955, 1451555, 1452155, 1452755, 1453356, 1453956, 1454528, 1455142, 1455737, 1456338, 1456940, 1457531, 1458115, 1458722, 1459304, 1459875, 1460459, 1461024, 1461593, 1462154, 1462718, 1463310]",25,R,ITM,1.1,
4,400,trial,0,75,75,75,trial,"['S', 'S', 'S', 'S', 'S', 'S', 'S', 'C', 'C', 'C', 'C', 'C', 'C', 'C', 'C', 'C', 'C', 'C', 'C', 'C', 'C', 'C', 'C']","[1469323, 1469630, 1470015, 1470427, 1470814, 1471225, 1471632, 1472017, 1472419, 1472835, 1473236, 1473636, 1474044, 1474441, 1474848, 1475240, 1475650, 1476032, 1476426, 1476815, 1477225, 1477632, 1478009]","[1469480, 1469797, 1470190, 1470580, 1470983, 1471385, 1471780, 1472203, 1472596, 1473003, 1473412, 1473817, 1474214, 1474601, 1475010, 1475414, 1475786, 1476177, 1476589, 1477014, 1477383, 1477809, 1478192]","[1468866, 1469265, 1469665, 1470065, 1470466, 1470865, 1471265, 1471666, 1472043, 1472445, 1472861, 1473262, 1473661, 1474070, 1474466, 1474874, 1475266, 1475676, 1476059, 1476452, 1476841, 1477251, 1477657, 1478035]",25,R,ITM,1.1,
3,400,trial,0,76,76,76,trial,"['S', 'S', 'S', 'S', 'S', 'S', 'S', 'C', 'C', 'C', 'C', 'C', 'C', 'C', 'C', 'C', 'C', 'C', 'C', 'C', 'C', 'C', 'C']","[1484056, 1484370, 1484772, 1485203, 1485629, 1486042, 1486413, 1486848, 1487252, 1487644, 1488028, 1488446, 1488845, 1489254, 1489641, 1490038, 1490434, 1490840, 1491224, 1491614, 1492030, 1492395, 1492794]","[1484212, 1484554, 1484944, 1485375, 1485782, 1486205, 1486584, 1486989, 1487396, 1487814, 1488195, 1488634, 1489052, 1489420, 1489777, 1490211, 1490589, 1490991, 1491381, 1491803, 1492199, 1492603, 1492962]","[1483630, 1484029, 1484429, 1484829, 1485230, 1485629, 1486029, 1486429, 1486873, 1487278, 1487670, 1488054, 1488472, 1488871, 1489280, 1489667, 1490064, 1490459, 1490866, 1491250, 1491640, 1492056, 1492420, 1492819]",25,R,ITM,1.1,
5,400,trial,0,77,77,77,trial,"['S', 'S', 'S', 'S', 'S', 'S', 'S', 'C', 'C', 'C', 'C', 'C', 'C', 'C', 'C', 'C', 'C', 'C', 'C', 'C', 'C', 'C', 'C']","[1498609, 1498953, 1499356, 1499749, 1500156, 1500533, 1500957, 1501360, 1501760, 1502158, 1502564, 1502981, 1503397, 1503827, 1504230, 1504638, 1505055, 1505438, 1505820, 1506231, 1506634, 1507045, 1507444]","[1498758, 1499133, 1499531, 1499917, 1500318, 1500698, 1501112, 1501521, 1501922, 1502328, 1502738, 1503148, 1503552, 1503968, 1504388, 1504798, 1505214, 1505625, 1506024, 1506404, 1506806, 1507211, 1507600]","[1498222, 1498622, 1499022, 1499422, 1499823, 1500222, 1500622, 1501022, 1501386, 1501787, 1502184, 1502589, 1503007, 1503423, 1503853, 1504256, 1504663, 1505081, 1505465, 1505846, 1506257, 1506660, 1507070, 1507471]",25,R,ITM,1.1,
3,600,trial,0,78,78,78,trial,"['S', 'S', 'S', 'S', 'S', 'S', 'S', 'S', 'C', 'C', 'C', 'C', 'C', 'C', 'C', 'C', 'C', 'C', 'C', 'C', 'C', 'C', 'C', 'C']","[1513385, 1513664, 1514318, 1514975, 1515587, 1516191, 1516774, 1517348, 1517991, 1518605, 1519209, 1519825, 1520445, 1521048, 1521641, 1522288, 1522878, 1523461, 1524073, 1524658, 1525272, 1525868, 1526458, 1527077]","[1513497, 1513964, 1514590, 1515201, 1515746, 1516354, 1516924, 1517513, 1518130, 1518744, 1519355, 1519933, 1520553, 1521166, 1521789, 1522423, 1523025, 1523590, 1524207, 1524815, 1525442, 1526010, 1526594, 1527200]","[1513208, 1513808, 1514408, 1515009, 1515609, 1516209, 1516808, 1517408, 1518017, 1518630, 1519235, 1519851, 1520471, 1521074, 1521667, 1522314, 1522904, 1523486, 1524100, 1524683, 1525298, 1525894, 1526483, 1527103]",25,R,ITM,1.1,
3,600,trial,0,79,79,79,trial,"['S', 'S', 'S', 'S', 'S', 'S', 'S', 'S', 'C', 'C', 'C', 'C', 'C', 'C', 'C', 'C', 'C', 'C', 'C', 'C', 'C', 'C', 'C', 'C']","[1532730, 1533025, 1533626, 1534276, 1534900, 1535430, 1536038, 1536649, 1537256, 1537790, 1538355, 1538958, 1539560, 1540170, 1540738, 1541361, 1541944, 1542544, 1543137, 1543729, 1544301, 1544895, 1545454, 1546052]","[1532834, 1533292, 1533852, 1534454, 1535043, 1535590, 1536217, 1536790, 1537393, 1537958, 1538546, 1539120, 1539745, 1540371, 1540990, 1541562, 1542173, 1542759, 1543337, 1543964, 1544497, 1545064, 1545655, 1546242]","[1532544, 1533144, 1533744, 1534343, 1534943, 1535543, 1536143, 1536743, 1537282, 1537816, 1538380, 1538983, 1539586, 1540196, 1540763, 1541387, 1541969, 1542569, 1543162, 1543754, 1544327, 1544921, 1545480, 1546078]",25,R,ITM,1.1,
6,600,trial,0,80,80,80,trial,"['S', 'S', 'S', 'S', 'S', 'S', 'S', 'C', 'C', 'C', 'C', 'C', 'C', 'C', 'C', 'C', 'C', 'C', 'C', 'C', 'C', 'C', 'C']","[1551945, 1552735, 1553337, 1553941, 1554568, 1555142, 1555717, 1556324, 1556922, 1557536, 1558124, 1558713, 1559312, 1559891, 1560468, 1561062, 1561632, 1562219, 1562787, 1563373, 1563968, 1564532, 1565117]","[1552110, 1552901, 1553546, 1554121, 1554751, 1555356, 1555919, 1556500, 1557112, 1557715, 1558345, 1558915, 1559527, 1560077, 1560684, 1561254, 1561819, 1562411, 1562997, 1563576, 1564167, 1564729, 1565314]","[1551604, 1552203, 1552803, 1553403, 1554003, 1554604, 1555204, 1555804, 1556350, 1556948, 1557563, 1558151, 1558739, 1559339, 1559918, 1560495, 1561090, 1561659, 1562246, 1562814, 1563400, 1563995, 1564560, 1565145]",25,R,ITM,1.1,
4,400,trial,0,81,81,81,trial,"['S', 'S', 'S', 'S', 'S', 'S', 'S', 'C', 'C', 'C', 'C', 'C', 'C', 'C', 'C', 'C', 'C', 'C', 'C', 'C', 'C', 'C', 'C']","[1571007, 1571328, 1571693, 1572109, 1572523, 1572927, 1573327, 1573767, 1574177, 1574594, 1575013, 1575451, 1575880, 1576274, 1576694, 1577094, 1577486, 1577899, 1578305, 1578718, 1579139, 1579548, 1579945]","[1571166, 1571483, 1571876, 1572289, 1572694, 1573109, 1573517, 1573942, 1574355, 1574777, 1575197, 1575608, 1576030, 1576458, 1576867, 1577274, 1577666, 1578077, 1578488, 1578927, 1579322, 1579722, 1580124]","[1570599, 1570998, 1571398, 1571799, 1572198, 1572598, 1572999, 1573399, 1573792, 1574203, 1574620, 1575038, 1575477, 1575906, 1576300, 1576720, 1577119, 1577512, 1577924, 1578332, 1578743, 1579164, 1579575, 1579971]",25,R,ITM,1.1,
6,400,trial,0,82,82,82,trial,"['S', 'S', 'S', 'S', 'S', 'S', 'S', 'S', 'C', 'C', 'C', 'C', 'C', 'C', 'C', 'C', 'C', 'C', 'C', 'C', 'C', 'C', 'C', 'C']","[1585563, 1585862, 1586205, 1586572, 1586956, 1587359, 1587757, 1588137, 1588550, 1588957, 1589338, 1589707, 1590123, 1590505, 1590917, 1591294, 1591714, 1592130, 1592531, 1592929, 1593325, 1593708, 1594140, 1594528]","[1585650, 1586018, 1586365, 1586749, 1587126, 1587528, 1587919, 1588324, 1588730, 1589120, 1589543, 1589912, 1590322, 1590672, 1591070, 1591496, 1591928, 1592311, 1592711, 1593101, 1593528, 1593904, 1594280, 1594664]","[1585406, 1585805, 1586205, 1586606, 1587005, 1587405, 1587806, 1588206, 1588577, 1588984, 1589364, 1589734, 1590150, 1590532, 1590943, 1591321, 1591742, 1592158, 1592558, 1592956, 1593353, 1593736, 1594167, 1594555]",25,R,ITM,1.1,
5,400,trial,0,83,83,83,trial,"['S', 'S', 'S', 'S', 'S', 'S', 'S', 'C', 'C', 'C', 'C', 'C', 'C', 'C', 'C', 'C', 'C', 'C', 'C', 'C', 'C', 'C', 'C']","[1600771, 1601124, 1601512, 1601912, 1602310, 1602686, 1603100, 1603517, 1603918, 1604327, 1604750, 1605155, 1605552, 1605972, 1606352, 1606780, 1607199, 1607617, 1608048, 1608438, 1608816, 1609225, 1609627]","[1600913, 1601287, 1601664, 1602058, 1602468, 1602840, 1603252, 1603643, 1604057, 1604475, 1604889, 1605295, 1605707, 1606118, 1606513, 1606935, 1607354, 1607768, 1608187, 1608596, 1608982, 1609383, 1609768]","[1600301, 1600699, 1601099, 1601500, 1601899, 1602299, 1602699, 1603099, 1603544, 1603944, 1604353, 1604775, 1605181, 1605578, 1605998, 1606379, 1606806, 1607225, 1607643, 1608074, 1608465, 1608842, 1609250, 1609653]",25,R,ITM,1.1,
7,600,trial,0,84,84,84,trial,"['S', 'S', 'S', 'S', 'S', 'S', 'S', 'C', 'C', 'C', 'C', 'C', 'C', 'C', 'C', 'C', 'C', 'C', 'C', 'C', 'C', 'C', 'C']","[1615668, 1616587, 1617162, 1617758, 1618372, 1618991, 1619574, 1620210, 1620816, 1621421, 1621994, 1622585, 1623189, 1623774, 1624336, 1624932, 1625509, 1626119, 1626708, 1627321, 1627910, 1628497, 1629106]","[1615835, 1616764, 1617338, 1617955, 1618516, 1619077, 1619706, 1620367, 1620973, 1621571, 1622173, 1622761, 1623362, 1623958, 1624559, 1625149, 1625735, 1626314, 1626894, 1627495, 1628079, 1628679, 1629250]","[1615388, 1615987, 1616587, 1617187, 1617787, 1618387, 1618988, 1619588, 1620237, 1620844, 1621447, 1622021, 1622611, 1623216, 1623801, 1624364, 1624960, 1625536, 1626145, 1626736, 1627348, 1627936, 1628524, 1629133]",25,R,ITM,1.1,
5,400,trial,0,85,85,85,trial,"['S', 'S', 'S', 'S', 'S', 'S', 'S', 'C', 'C', 'C', 'C', 'C', 'C', 'C', 'C', 'C', 'C', 'C', 'C', 'C', 'C', 'C', 'C']","[1635035, 1635383, 1635739, 1636176, 1636579, 1636993, 1637376, 1637784, 1638166, 1638582, 1638980, 1639389, 1639798, 1640187, 1640593, 1640966, 1641374, 1641780, 1642168, 1642555, 1642956, 1643370, 1643746]","[1635185, 1635545, 1635913, 1636344, 1636754, 1637153, 1637544, 1637939, 1638336, 1638736, 1639144, 1639557, 1639926, 1640336, 1640734, 1641151, 1641536, 1641948, 1642317, 1642749, 1643140, 1643520, 1643919]","[1634635, 1635035, 1635434, 1635834, 1636234, 1636634, 1637035, 1637434, 1637810, 1638192, 1638607, 1639006, 1639414, 1639824, 1640213, 1640619, 1640991, 1641400, 1641806, 1642193, 1642582, 1642983, 1643396, 1643772]",25,R,ITM,1.1,
7,400,trial,0,86,86,86,trial,"['S', 'S', 'S', 'S', 'S', 'S', 'C', 'C', 'C', 'C', 'C', 'C', 'C', 'C', 'C', 'C', 'C', 'C', 'C', 'C', 'C', 'C']","[1650177, 1650566, 1650961, 1651366, 1651755, 1652155, 1652578, 1652976, 1653376, 1653775, 1654188, 1654586, 1654986, 1655374, 1655769, 1656168, 1656565, 1656973, 1657356, 1657763, 1658170, 1658552]","[1650291, 1650710, 1651106, 1651520, 1651921, 1652311, 1652737, 1653127, 1653536, 1653922, 1654319, 1654743, 1655135, 1655531, 1655924, 1656341, 1656737, 1657132, 1657530, 1657923, 1658318, 1658707]","[1649463, 1649862, 1650263, 1650662, 1651062, 1651463, 1651862, 1652262, 1652605, 1653004, 1653403, 1653803, 1654215, 1654612, 1655013, 1655402, 1655795, 1656195, 1656592, 1657000, 1657382, 1657791, 1658198, 1658578]",25,R,ITM,1.1,
5,600,trial,0,87,87,87,trial,"['S', 'S', 'S', 'S', 'S', 'S', 'S', 'C', 'C', 'C', 'C', 'C', 'C', 'C', 'C', 'C', 'C', 'C', 'C', 'C', 'C', 'C', 'C']","[1664321, 1665185, 1665883, 1666442, 1667062, 1667654, 1668271, 1668887, 1669524, 1670130, 1670748, 1671377, 1672007, 1672636, 1673244, 1673864, 1674470, 1675054, 1675651, 1676278, 1676912, 1677504, 1678129]","[1664451, 1665371, 1666028, 1666606, 1667234, 1667858, 1668463, 1669080, 1669754, 1670358, 1671018, 1671590, 1672198, 1672830, 1673445, 1674090, 1674705, 1675287, 1675863, 1676503, 1677162, 1677767, 1678380]","[1664071, 1664670, 1665270, 1665870, 1666470, 1667070, 1667671, 1668271, 1668913, 1669551, 1670156, 1670774, 1671403, 1672034, 1672662, 1673270, 1673889, 1674496, 1675079, 1675676, 1676304, 1676938, 1677530, 1678154]",25,R,ITM,1.1,
4,600,trial,0,88,88,88,trial,"['S', 'S', 'S', 'S', 'S', 'S', 'S', 'S', 'C', 'C', 'C', 'C', 'C', 'C', 'C', 'C', 'C', 'C', 'C', 'C', 'C', 'C', 'C', 'C']","[1683742, 1684033, 1684666, 1685285, 1685861, 1686445, 1687058, 1687700, 1688302, 1688862, 1689426, 1690024, 1690607, 1691177, 1691757, 1692315, 1692887, 1693470, 1694034, 1694602, 1695179, 1695783, 1696371, 1696939]","[1683878, 1684307, 1684868, 1685454, 1686047, 1686635, 1687257, 1687892, 1688492, 1689091, 1689665, 1690255, 1690843, 1691439, 1691975, 1692530, 1693113, 1693691, 1694245, 1694866, 1695398, 1695955, 1696552, 1697167]","[1683555, 1684155, 1684755, 1685355, 1685955, 1686555, 1687155, 1687755, 1688328, 1688888, 1689452, 1690050, 1690633, 1691202, 1691783, 1692342, 1692912, 1693497, 1694060, 1694627, 1695205, 1695810, 1696397, 1696965]",25,R,ITM,1.1,
2,400,trial,0,89,89,89,trial,"['S', 'S', 'S', 'S', 'S', 'S', 'S', 'S', 'C', 'C', 'C', 'C', 'C', 'C', 'C', 'C', 'C', 'C', 'C', 'C', 'C', 'C', 'C', 'C']","[1702829, 1703084, 1703396, 1703763, 1704187, 1704589, 1704986, 1705378, 1705774, 1706173, 1706566, 1706951, 1707321, 1707723, 1708122, 1708528, 1708916, 1709317, 1709703, 1710082, 1710460, 1710858, 1711268, 1711660]","[1702938, 1703260, 1703568, 1703963, 1704375, 1704790, 1705185, 1705558, 1705953, 1706346, 1706757, 1707142, 1707520, 1707909, 1708309, 1708689, 1709078, 1709478, 1709874, 1710198, 1710633, 1711019, 1711426, 1711831]","[1702638, 1703038, 1703438, 1703837, 1704239, 1704638, 1705038, 1705438, 1705800, 1706201, 1706594, 1706978, 1707347, 1707750, 1708149, 1708556, 1708943, 1709344, 1709729, 1710109, 1710488, 1710885, 1711295, 1711687]",25,R,ITM,1.1,
4,400,trial,0,90,90,90,trial,"['S', 'S', 'S', 'S', 'S', 'S', 'S', 'C', 'C', 'C', 'C', 'C', 'C', 'C', 'C', 'C', 'C', 'C', 'C', 'C', 'C', 'C', 'C']","[1717748, 1718112, 1718481, 1718877, 1719300, 1719732, 1720093, 1720546, 1720957, 1721367, 1721789, 1722201, 1722580, 1722992, 1723417, 1723838, 1724247, 1724647, 1725058, 1725453, 1725860, 1726276, 1726691]","[1717865, 1718245, 1718619, 1719024, 1719454, 1719865, 1720243, 1720683, 1721112, 1721505, 1721932, 1722332, 1722690, 1723136, 1723579, 1723987, 1724405, 1724801, 1725201, 1725603, 1726000, 1726437, 1726835]","[1717349, 1717748, 1718149, 1718548, 1718948, 1719348, 1719748, 1720148, 1720571, 1720983, 1721394, 1721815, 1722226, 1722606, 1723018, 1723443, 1723864, 1724272, 1724673, 1725083, 1725478, 1725886, 1726302, 1726716]",25,R,ITM,1.1,
7,400,trial,0,91,91,91,trial,"['S', 'S', 'S', 'S', 'S', 'S', 'S', 'C', 'C', 'C', 'C', 'C', 'C', 'C', 'C', 'C', 'C', 'C', 'C', 'C', 'C', 'C', 'C']","[1732700, 1733061, 1733479, 1733893, 1734311, 1734713, 1735104, 1735528, 1735929, 1736324, 1736701, 1737133, 1737537, 1737984, 1738388, 1738802, 1739206, 1739598, 1740018, 1740426, 1740833, 1741228, 1741619]","[1732850, 1733227, 1733636, 1734070, 1734480, 1734877, 1735284, 1735713, 1736107, 1736479, 1736875, 1737307, 1737709, 1738141, 1738547, 1738952, 1739381, 1739783, 1740184, 1740581, 1740987, 1741367, 1741784]","[1732371, 1732770, 1733171, 1733571, 1733971, 1734371, 1734771, 1735172, 1735556, 1735957, 1736351, 1736728, 1737159, 1737564, 1738010, 1738415, 1738829, 1739233, 1739626, 1740046, 1740453, 1740861, 1741255, 1741645]",25,R,ITM,1.1,
6,400,trial,0,92,92,92,trial,"['S', 'S', 'S', 'S', 'S', 'S', 'S', 'C', 'C', 'C', 'C', 'C', 'C', 'C', 'C', 'C', 'C', 'C', 'C', 'C', 'C', 'C', 'C']","[1747340, 1747723, 1748139, 1748530, 1748936, 1749315, 1749746, 1750169, 1750566, 1750966, 1751363, 1751761, 1752135, 1752555, 1752927, 1753338, 1753743, 1754139, 1754540, 1754963, 1755348, 1755746, 1756146]","[1747495, 1747903, 1748289, 1748690, 1749097, 1749480, 1749920, 1750331, 1750729, 1751113, 1751486, 1751886, 1752291, 1752688, 1753066, 1753499, 1753899, 1754302, 1754658, 1755115, 1755512, 1755915, 1756296]","[1747008, 1747407, 1747807, 1748207, 1748608, 1749007, 1749407, 1749808, 1750196, 1750594, 1750993, 1751391, 1751788, 1752162, 1752583, 1752953, 1753365, 1753771, 1754166, 1754567, 1754990, 1755375, 1755773, 1756173]",25,R,ITM,1.1,
4,600,trial,0,93,93,93,trial,"['S', 'S', 'S', 'S', 'S', 'S', 'S', 'C', 'C', 'C', 'C', 'C', 'C', 'C', 'C', 'C', 'C', 'C', 'C', 'C', 'C', 'C', 'C']","[1761836, 1762547, 1763220, 1763855, 1764498, 1765059, 1765636, 1766252, 1766899, 1767483, 1768032, 1768620, 1769212, 1769812, 1770417, 1770998, 1771590, 1772153, 1772752, 1773357, 1773944, 1774523, 1775099]","[1761988, 1762775, 1763393, 1764038, 1764622, 1765197, 1765771, 1766421, 1767102, 1767697, 1768256, 1768864, 1769428, 1770079, 1770659, 1771248, 1771814, 1772404, 1772984, 1773582, 1774167, 1774787, 1775318]","[1761498, 1762098, 1762698, 1763298, 1763898, 1764498, 1765098, 1765698, 1766278, 1766925, 1767508, 1768057, 1768645, 1769238, 1769838, 1770443, 1771024, 1771617, 1772179, 1772778, 1773382, 1773971, 1774548, 1775125]",25,R,ITM,1.1,
2,600,trial,0,94,94,94,trial,"['S', 'S', 'S', 'S', 'S', 'S', 'S', 'C', 'C', 'C', 'C', 'C', 'C', 'C', 'C', 'C', 'C', 'C', 'C', 'C', 'C', 'C', 'C']","[1780935, 1781739, 1782319, 1782921, 1783516, 1784110, 1784712, 1785324, 1785939, 1786516, 1787125, 1787729, 1788325, 1788932, 1789535, 1790151, 1790741, 1791322, 1791932, 1792549, 1793154, 1793741, 1794345]","[1781344, 1781977, 1782575, 1783157, 1783757, 1784361, 1784964, 1785551, 1786138, 1786726, 1787330, 1787932, 1788554, 1789136, 1789704, 1790355, 1790908, 1791506, 1792090, 1792729, 1793352, 1793946, 1794543]","[1780574, 1781173, 1781773, 1782373, 1782973, 1783572, 1784173, 1784773, 1785352, 1785967, 1786544, 1787153, 1787757, 1788353, 1788959, 1789561, 1790178, 1790768, 1791348, 1791959, 1792576, 1793181, 1793769, 1794373]",25,R,ITM,1.1,
2,600,trial,0,95,95,95,trial,"['S', 'S', 'S', 'S', 'S', 'S', 'S', 'S', 'C', 'C', 'C', 'C', 'C', 'C', 'C', 'C', 'C', 'C', 'C', 'C', 'C', 'C', 'C', 'C']","[1799977, 1800244, 1800916, 1801544, 1802147, 1802768, 1803337, 1803920, 1804523, 1805138, 1805735, 1806348, 1806953, 1807566, 1808198, 1808795, 1809416, 1810019, 1810620, 1811273, 1811884, 1812477, 1813083, 1813671]","[1800066, 1800487, 1801143, 1801728, 1802342, 1802973, 1803555, 1804121, 1804720, 1805333, 1805927, 1806542, 1807139, 1807741, 1808350, 1808955, 1809569, 1810174, 1810797, 1811418, 1812052, 1812660, 1813269, 1813875]","[1799767, 1800367, 1800966, 1801567, 1802166, 1802766, 1803367, 1803966, 1804550, 1805165, 1805763, 1806374, 1806981, 1807594, 1808226, 1808822, 1809442, 1810046, 1810648, 1811300, 1811911, 1812504, 1813109, 1813698]",25,R,ITM,1.1,
5,600,trial,0,96,96,96,trial,"['S', 'S', 'S', 'S', 'S', 'S', 'S', 'C', 'C', 'C', 'C', 'C', 'C', 'C', 'C', 'C', 'C', 'C', 'C', 'C', 'C', 'C', 'C']","[1819839, 1820376, 1820948, 1821555, 1822168, 1822777, 1823378, 1823978, 1824563, 1825163, 1825735, 1826311, 1826875, 1827456, 1828030, 1828611, 1829176, 1829740, 1830332, 1830898, 1831485, 1832056, 1832616]","[1819940, 1820522, 1821106, 1821741, 1822364, 1822968, 1823569, 1824176, 1824795, 1825375, 1825947, 1826524, 1827089, 1827663, 1828256, 1828838, 1829406, 1829970, 1830553, 1831114, 1831693, 1832285, 1832849]","[1819239, 1819839, 1820439, 1821039, 1821639, 1822239, 1822839, 1823439, 1824004, 1824589, 1825188, 1825761, 1826336, 1826900, 1827482, 1828056, 1828636, 1829202, 1829766, 1830358, 1830924, 1831512, 1832082, 1832642]",25,R,ITM,1.1,
3,400,trial,0,97,97,97,trial,"['S', 'S', 'S', 'S', 'S', 'S', 'S', 'S', 'C', 'C', 'C', 'C', 'C', 'C', 'C', 'C', 'C', 'C', 'C', 'C', 'C', 'C', 'C', 'C']","[1838450, 1838799, 1839071, 1839420, 1839796, 1840226, 1840638, 1841020, 1841409, 1841795, 1842184, 1842555, 1842957, 1843332, 1843715, 1844094, 1844493, 1844864, 1845240, 1845621, 1845985, 1846387, 1846770, 1847158]","[1838563, 1838929, 1839199, 1839560, 1839944, 1840362, 1840775, 1841150, 1841569, 1841944, 1842347, 1842704, 1843101, 1843497, 1843864, 1844247, 1844640, 1845029, 1845380, 1845764, 1846161, 1846547, 1846944, 1847313]","[1838267, 1838666, 1839067, 1839466, 1839866, 1840266, 1840666, 1841067, 1841434, 1841820, 1842209, 1842581, 1842982, 1843357, 1843740, 1844119, 1844518, 1844889, 1845266, 1845647, 1846011, 1846413, 1846796, 1847184]",25,R,ITM,1.1,
3,400,trial,0,98,98,98,trial,"['S', 'S', 'S', 'S', 'S', 'S', 'S', 'S', 'C', 'C', 'C', 'C', 'C', 'C', 'C', 'C', 'C', 'C', 'C', 'C', 'C', 'C', 'C', 'C']","[1852653, 1852936, 1853251, 1853643, 1854039, 1854425, 1854823, 1855243, 1855653, 1856037, 1856437, 1856856, 1857227, 1857617, 1858000, 1858404, 1858809, 1859221, 1859630, 1860032, 1860440, 1860847, 1861257, 1861664]","[1852750, 1853089, 1853400, 1853809, 1854196, 1854587, 1854985, 1855392, 1855801, 1856189, 1856607, 1857009, 1857398, 1857761, 1858155, 1858568, 1858955, 1859365, 1859773, 1860182, 1860582, 1861021, 1861417, 1861827]","[1852497, 1852896, 1853296, 1853697, 1854096, 1854496, 1854897, 1855296, 1855679, 1856063, 1856462, 1856881, 1857253, 1857643, 1858026, 1858429, 1858835, 1859247, 1859655, 1860058, 1860465, 1860873, 1861282, 1861690]",25,R,ITM,1.1,
6,600,trial,0,99,99,99,trial,"['S', 'S', 'S', 'S', 'S', 'S', 'S', 'C', 'C', 'C', 'C', 'C', 'C', 'C', 'C', 'C', 'C', 'C', 'C', 'C', 'C', 'C', 'C']","[1867619, 1868483, 1869050, 1869628, 1870255, 1870857, 1871471, 1872077, 1872672, 1873252, 1873859, 1874461, 1875084, 1875717, 1876313, 1876879, 1877505, 1878112, 1878694, 1879268, 1879888, 1880488, 1881094]","[1867810, 1868674, 1869223, 1869811, 1870413, 1871032, 1871630, 1872251, 1872851, 1873451, 1874036, 1874642, 1875255, 1875846, 1876451, 1877027, 1877651, 1878275, 1878881, 1879523, 1880127, 1880729, 1881328]","[1867336, 1867935, 1868535, 1869135, 1869735, 1870336, 1870936, 1871536, 1872105, 1872700, 1873278, 1873887, 1874488, 1875111, 1875743, 1876340, 1876907, 1877531, 1878138, 1878721, 1879296, 1879916, 1880515, 1881120]",25,R,ITM,1.1,
2,400,trial,0,100,100,100,trial,"['S', 'S', 'S', 'S', 'S', 'S', 'S', 'C', 'C', 'C', 'C', 'C', 'C', 'C', 'C', 'C', 'C', 'C', 'C', 'C', 'C', 'C', 'C']","[1886899, 1887193, 1887565, 1887973, 1888403, 1888821, 1889220, 1889615, 1890028, 1890417, 1890843, 1891241, 1891668, 1892070, 1892468, 1892886, 1893277, 1893697, 1894112, 1894497, 1894907, 1895325, 1895731]","[1887044, 1887345, 1887737, 1888145, 1888576, 1888990, 1889389, 1889787, 1890207, 1890594, 1891007, 1891414, 1891809, 1892239, 1892637, 1893046, 1893439, 1893868, 1894275, 1894674, 1895083, 1895482, 1895891]","[1886451, 1886852, 1887251, 1887651, 1888052, 1888451, 1888852, 1889251, 1889643, 1890056, 1890444, 1890871, 1891268, 1891696, 1892098, 1892495, 1892913, 1893305, 1893724, 1894138, 1894524, 1894935, 1895353, 1895758]",25,R,ITM,1.1,
7,600,trial,0,101,101,101,trial,"['S', 'S', 'S', 'S', 'S', 'S', 'S', 'S', 'C', 'C', 'C', 'C', 'C', 'C', 'C', 'C', 'C', 'C', 'C', 'C', 'C', 'C', 'C', 'C']","[1901305, 1901571, 1902181, 1902835, 1903441, 1904030, 1904643, 1905222, 1905841, 1906397, 1906961, 1907572, 1908157, 1908743, 1909328, 1909923, 1910476, 1911077, 1911636, 1912212, 1912798, 1913385, 1913978, 1914543]","[1901411, 1901808, 1902402, 1903032, 1903629, 1904216, 1904836, 1905420, 1906008, 1906603, 1907180, 1907788, 1908361, 1908957, 1909548, 1910109, 1910672, 1911296, 1911846, 1912430, 1913029, 1913629, 1914188, 1914765]","[1901111, 1901710, 1902310, 1902910, 1903510, 1904110, 1904710, 1905310, 1905867, 1906423, 1906989, 1907600, 1908185, 1908769, 1909356, 1909951, 1910503, 1911105, 1911662, 1912240, 1912825, 1913413, 1914006, 1914569]",25,R,ITM,1.1,
4,400,trial,0,102,102,102,trial,"['S', 'S', 'S', 'S', 'S', 'S', 'S', 'C', 'C', 'C', 'C', 'C', 'C', 'C', 'C', 'C', 'C', 'C', 'C', 'C', 'C', 'C', 'C']","[1920254, 1920564, 1920977, 1921364, 1921773, 1922195, 1922623, 1923059, 1923450, 1923860, 1924268, 1924681, 1925116, 1925512, 1925896, 1926313, 1926726, 1927139, 1927548, 1927930, 1928359, 1928755, 1929157]","[1920397, 1920710, 1921140, 1921533, 1921942, 1922329, 1922757, 1923200, 1923599, 1924019, 1924443, 1924873, 1925271, 1925680, 1926063, 1926481, 1926894, 1927300, 1927683, 1928111, 1928516, 1928956, 1929336]","[1919894, 1920293, 1920693, 1921093, 1921494, 1921893, 1922293, 1922694, 1923086, 1923476, 1923886, 1924293, 1924707, 1925142, 1925537, 1925921, 1926339, 1926752, 1927165, 1927574, 1927956, 1928385, 1928780, 1929183]",25,R,ITM,1.1,
2,400,trial,0,103,103,103,trial,"['S', 'S', 'S', 'S', 'S', 'S', 'S', 'S', 'C', 'C', 'C', 'C', 'C', 'C', 'C', 'C', 'C', 'C', 'C', 'C', 'C', 'C', 'C', 'C']","[1935070, 1935292, 1935616, 1936014, 1936423, 1936840, 1937255, 1937635, 1938039, 1938414, 1938837, 1939218, 1939629, 1940077, 1940480, 1940851, 1941241, 1941640, 1942031, 1942426, 1942834, 1943223, 1943617, 1944006]","[1935152, 1935425, 1935777, 1936176, 1936580, 1936987, 1937405, 1937784, 1938184, 1938571, 1938988, 1939384, 1939779, 1940200, 1940615, 1941007, 1941393, 1941784, 1942200, 1942591, 1942987, 1943375, 1943774, 1944138]","[1934882, 1935283, 1935682, 1936081, 1936482, 1936881, 1937283, 1937682, 1938066, 1938441, 1938865, 1939246, 1939655, 1940104, 1940507, 1940879, 1941269, 1941667, 1942059, 1942453, 1942860, 1943250, 1943645, 1944033]",25,R,ITM,1.1,
5,600,trial,0,104,104,104,trial,"['S', 'S', 'S', 'S', 'S', 'S', 'S', 'C', 'C', 'C', 'C', 'C', 'C', 'C', 'C', 'C', 'C', 'C', 'C', 'C', 'C', 'C', 'C']","[1949747, 1950456, 1951054, 1951700, 1952228, 1952793, 1953436, 1954044, 1954587, 1955168, 1955730, 1956273, 1956837, 1957400, 1957951, 1958512, 1959056, 1959593, 1960154, 1960706, 1961259, 1961791, 1962334]","[1949877, 1950621, 1951220, 1951832, 1952386, 1952961, 1953596, 1954206, 1954769, 1955357, 1955919, 1956455, 1957038, 1957621, 1958181, 1958719, 1959270, 1959829, 1960380, 1960924, 1961487, 1962034, 1962562]","[1949350, 1949949, 1950550, 1951150, 1951750, 1952349, 1952949, 1953549, 1954070, 1954614, 1955194, 1955756, 1956299, 1956862, 1957426, 1957977, 1958538, 1959081, 1959619, 1960179, 1960731, 1961284, 1961817, 1962359]",25,R,ITM,1.1,
7,600,trial,0,105,105,105,trial,"['S', 'S', 'S', 'S', 'S', 'S', 'S', 'C', 'C', 'C', 'C', 'C', 'C', 'C', 'C', 'C', 'C', 'C', 'C', 'C', 'C', 'C', 'C']","[1968550, 1969201, 1969788, 1970372, 1970987, 1971593, 1972213, 1972829, 1973433, 1974039, 1974663, 1975301, 1975931, 1976534, 1977154, 1977774, 1978390, 1979010, 1979658, 1980276, 1980886, 1981480, 1982074]","[1968661, 1969354, 1969956, 1970552, 1971158, 1971794, 1972424, 1973011, 1973655, 1974256, 1974882, 1975508, 1976138, 1976750, 1977371, 1977975, 1978609, 1979209, 1979856, 1980474, 1981085, 1981731, 1982311]","[1968094, 1968692, 1969292, 1969892, 1970492, 1971092, 1971692, 1972292, 1972856, 1973459, 1974067, 1974690, 1975327, 1975959, 1976560, 1977182, 1977801, 1978417, 1979036, 1979685, 1980303, 1980913, 1981508, 1982101]",25,R,ITM,1.1,
6,600,trial,0,106,106,106,trial,"['S', 'S', 'S', 'S', 'S', 'S', 'S', 'C', 'C', 'C', 'C', 'C', 'C', 'C', 'C', 'C', 'C', 'C', 'C', 'C', 'C', 'C', 'C']","[1987979, 1988820, 1989420, 1990041, 1990650, 1991251, 1991862, 1992470, 1993018, 1993629, 1994218, 1994799, 1995385, 1995981, 1996582, 1997169, 1997755, 1998349, 1998927, 1999523, 2000112, 2000675, 2001252]","[1988125, 1989028, 1989625, 1990260, 1990889, 1991477, 1992086, 1992673, 1993273, 1993870, 1994430, 1995022, 1995613, 1996212, 1996797, 1997394, 1997964, 1998531, 1999113, 1999704, 2000303, 2000913, 2001477]","[1987721, 1988320, 1988920, 1989520, 1990120, 1990720, 1991320, 1991920, 1992498, 1993046, 1993656, 1994245, 1994825, 1995412, 1996008, 1996610, 1997196, 1997782, 1998375, 1998955, 1999550, 2000139, 2000702, 2001280]",25,R,ITM,1.1,
5,400,trial,0,107,107,107,trial,"['S', 'S', 'S', 'S', 'S', 'S', 'S', 'C', 'C', 'C', 'C', 'C', 'C', 'C', 'C', 'C', 'C', 'C', 'C', 'C', 'C', 'C', 'C']","[2007191, 2007518, 2007915, 2008313, 2008726, 2009154, 2009553, 2009936, 2010347, 2010765, 2011174, 2011599, 2012009, 2012422, 2012819, 2013253, 2013666, 2014107, 2014528, 2014971, 2015407, 2015822, 2016217]","[2007364, 2007689, 2008089, 2008514, 2008916, 2009341, 2009731, 2010138, 2010518, 2010931, 2011345, 2011751, 2012140, 2012541, 2012992, 2013408, 2013828, 2014268, 2014687, 2015167, 2015557, 2015941, 2016337]","[2006808, 2007207, 2007607, 2008007, 2008408, 2008807, 2009207, 2009607, 2009963, 2010373, 2010791, 2011201, 2011625, 2012035, 2012447, 2012845, 2013279, 2013691, 2014133, 2014554, 2014997, 2015433, 2015848, 2016242]",25,R,ITM,1.1,
6,600,trial,0,108,108,108,trial,"['S', 'S', 'S', 'S', 'S', 'S', 'S', 'C', 'C', 'C', 'C', 'C', 'C', 'C', 'C', 'C', 'C', 'C', 'C', 'C', 'C', 'C', 'C']","[2022256, 2022815, 2023400, 2023982, 2024574, 2025202, 2025799, 2026402, 2027015, 2027611, 2028217, 2028811, 2029415, 2030025, 2030651, 2031268, 2031870, 2032463, 2033101, 2033701, 2034305, 2034911, 2035522]","[2022432, 2023027, 2023610, 2024203, 2024782, 2025411, 2026016, 2026609, 2027228, 2027825, 2028437, 2029043, 2029633, 2030234, 2030813, 2031465, 2032092, 2032674, 2033326, 2033935, 2034519, 2035134, 2035736]","[2021628, 2022227, 2022828, 2023428, 2024028, 2024627, 2025227, 2025827, 2026430, 2027041, 2027638, 2028243, 2028838, 2029443, 2030052, 2030678, 2031295, 2031896, 2032490, 2033129, 2033728, 2034331, 2034938, 2035549]",25,R,ITM,1.1,
7,400,trial,0,109,109,109,trial,"['S', 'S', 'S', 'S', 'S', 'S', 'S', 'C', 'C', 'C', 'C', 'C', 'C', 'C', 'C', 'C', 'C', 'C', 'C', 'C', 'C', 'C', 'C']","[2041271, 2041586, 2041990, 2042416, 2042821, 2043209, 2043620, 2044032, 2044428, 2044862, 2045274, 2045680, 2046102, 2046510, 2046894, 2047307, 2047706, 2048123, 2048535, 2048950, 2049357, 2049783, 2050209]","[2041426, 2041768, 2042172, 2042589, 2042959, 2043374, 2043784, 2044184, 2044596, 2044997, 2045425, 2045865, 2046285, 2046679, 2047050, 2047477, 2047875, 2048283, 2048697, 2049115, 2049528, 2049927, 2050347]","[2040872, 2041271, 2041671, 2042072, 2042471, 2042871, 2043272, 2043672, 2044059, 2044455, 2044889, 2045300, 2045708, 2046129, 2046537, 2046920, 2047334, 2047732, 2048151, 2048562, 2048976, 2049384, 2049810, 2050237]",25,R,ITM,1.1,
4,600,trial,0,110,110,110,trial,"['S', 'S', 'S', 'S', 'S', 'S', 'S', 'C', 'C', 'C', 'C', 'C', 'C', 'C', 'C', 'C', 'C', 'C', 'C', 'C', 'C', 'C', 'C']","[2056126, 2056833, 2057454, 2058040, 2058656, 2059297, 2059910, 2060519, 2061101, 2061698, 2062299, 2062888, 2063490, 2064070, 2064660, 2065236, 2065815, 2066380, 2066961, 2067536, 2068084, 2068646, 2069194]","[2056300, 2057044, 2057662, 2058276, 2058878, 2059526, 2060135, 2060732, 2061309, 2061908, 2062500, 2063104, 2063725, 2064311, 2064902, 2065539, 2066069, 2066635, 2067198, 2067762, 2068353, 2068885, 2069421]","[2055772, 2056371, 2056971, 2057571, 2058171, 2058771, 2059371, 2059971, 2060545, 2061126, 2061723, 2062324, 2062914, 2063515, 2064097, 2064686, 2065261, 2065841, 2066406, 2066987, 2067562, 2068110, 2068673, 2069221]",25,R,ITM,1.1,
4,600,trial,0,111,111,111,trial,"['S', 'S', 'S', 'S', 'S', 'S', 'S', 'C', 'C', 'C', 'C', 'C', 'C', 'C', 'C', 'C', 'C', 'C', 'C', 'C', 'C', 'C', 'C']","[2075100, 2075760, 2076397, 2077018, 2077636, 2078256, 2078881, 2079475, 2080092, 2080707, 2081296, 2081884, 2082485, 2083070, 2083666, 2084258, 2084849, 2085444, 2086052, 2086647, 2087232, 2087809, 2088395]","[2075282, 2075947, 2076608, 2077232, 2077873, 2078476, 2079094, 2079692, 2080314, 2080927, 2081502, 2082100, 2082694, 2083277, 2083876, 2084469, 2085080, 2085663, 2086259, 2086864, 2087468, 2088056, 2088622]","[2074715, 2075314, 2075914, 2076514, 2077114, 2077714, 2078314, 2078914, 2079501, 2080117, 2080733, 2081321, 2081909, 2082510, 2083097, 2083692, 2084285, 2084875, 2085471, 2086078, 2086673, 2087258, 2087834, 2088421]",25,R,ITM,1.1,
6,400,trial,0,112,112,112,trial,"['S', 'S', 'S', 'S', 'S', 'S', 'S', 'C', 'C', 'C', 'C', 'C', 'C', 'C', 'C', 'C', 'C', 'C', 'C', 'C', 'C', 'C', 'C']","[2094258, 2094610, 2094987, 2095392, 2095790, 2096179, 2096589, 2096992, 2097392, 2097826, 2098237, 2098653, 2099066, 2099463, 2099857, 2100253, 2100654, 2101056, 2101445, 2101846, 2102225, 2102647, 2103027]","[2094444, 2094790, 2095170, 2095574, 2095975, 2096395, 2096790, 2097197, 2097584, 2098000, 2098423, 2098817, 2099230, 2099622, 2100013, 2100400, 2100775, 2101184, 2101603, 2102013, 2102384, 2102811, 2103220]","[2093857, 2094257, 2094656, 2095056, 2095456, 2095856, 2096257, 2096656, 2097018, 2097419, 2097853, 2098265, 2098680, 2099093, 2099489, 2099884, 2100280, 2100680, 2101083, 2101472, 2101872, 2102252, 2102674, 2103054]",25,R,ITM,1.1,
6,400,trial,0,113,113,113,trial,"['S', 'S', 'S', 'S', 'S', 'S', 'S', 'C', 'C', 'C', 'C', 'C', 'C', 'C', 'C', 'C', 'C', 'C', 'C', 'C', 'C', 'C', 'C']","[2108775, 2109162, 2109546, 2109969, 2110352, 2110753, 2111150, 2111564, 2111962, 2112357, 2112760, 2113171, 2113573, 2113970, 2114374, 2114791, 2115196, 2115603, 2115993, 2116417, 2116813, 2117211, 2117600]","[2108962, 2109332, 2109729, 2110121, 2110522, 2110937, 2111328, 2111742, 2112119, 2112517, 2112900, 2113323, 2113736, 2114125, 2114523, 2114932, 2115357, 2115782, 2116164, 2116564, 2116955, 2117371, 2117765]","[2108449, 2108850, 2109249, 2109649, 2110049, 2110449, 2110850, 2111249, 2111591, 2111989, 2112384, 2112788, 2113198, 2113600, 2113997, 2114401, 2114818, 2115224, 2115631, 2116020, 2116445, 2116840, 2117237, 2117626]",25,R,ITM,1.1,
2,600,trial,0,114,114,114,trial,"['S', 'S', 'S', 'S', 'S', 'S', 'S', 'C', 'C', 'C', 'C', 'C', 'C', 'C', 'C', 'C', 'C', 'C', 'C', 'C', 'C', 'C', 'C']","[2123475, 2124271, 2124846, 2125445, 2126032, 2126624, 2127226, 2127824, 2128427, 2129011, 2129605, 2130168, 2130752, 2131326, 2131874, 2132507, 2133091, 2133694, 2134274, 2134861, 2135443, 2136033, 2136613]","[2123621, 2124476, 2125063, 2125660, 2126263, 2126849, 2127449, 2128033, 2128630, 2129202, 2129796, 2130366, 2130961, 2131520, 2132100, 2132711, 2133331, 2133936, 2134519, 2135083, 2135688, 2136220, 2136819]","[2123097, 2123696, 2124297, 2124896, 2125497, 2126096, 2126697, 2127297, 2127851, 2128453, 2129039, 2129632, 2130196, 2130780, 2131353, 2131902, 2132535, 2133118, 2133722, 2134300, 2134889, 2135471, 2136060, 2136640]",25,R,ITM,1.1,
3,400,trial,0,115,115,115,trial,"['S', 'S', 'S', 'S', 'S', 'S', 'S', 'C', 'C', 'C', 'C', 'C', 'C', 'C', 'C', 'C', 'C', 'C', 'C', 'C', 'C', 'C', 'C']","[2142554, 2142902, 2143299, 2143733, 2144128, 2144519, 2144937, 2145347, 2145728, 2146120, 2146519, 2146918, 2147322, 2147724, 2148126, 2148568, 2148970, 2149384, 2149768, 2150178, 2150596, 2151038, 2151493]","[2142706, 2143045, 2143459, 2143866, 2144288, 2144681, 2145093, 2145518, 2145890, 2146299, 2146701, 2147100, 2147491, 2147888, 2148285, 2148704, 2149120, 2149506, 2149929, 2150317, 2150743, 2151190, 2151608]","[2142228, 2142627, 2143027, 2143427, 2143827, 2144227, 2144627, 2145028, 2145373, 2145754, 2146146, 2146544, 2146944, 2147348, 2147749, 2148152, 2148593, 2148996, 2149409, 2149793, 2150204, 2150622, 2151064, 2151519]",25,R,ITM,1.1,
5,400,trial,0,116,116,116,trial,"['S', 'S', 'S', 'S', 'S', 'S', 'S', 'C', 'C', 'C', 'C', 'C', 'C', 'C', 'C', 'C', 'C', 'C', 'C', 'C', 'C', 'C', 'C']","[2157563, 2157877, 2158242, 2158649, 2159090, 2159506, 2159913, 2160297, 2160685, 2161083, 2161473, 2161857, 2162244, 2162632, 2163028, 2163417, 2163821, 2164201, 2164584, 2164969, 2165363, 2165722, 2166084]","[2157699, 2158022, 2158389, 2158817, 2159243, 2159673, 2160059, 2160462, 2160840, 2161253, 2161648, 2162031, 2162418, 2162798, 2163183, 2163596, 2163982, 2164367, 2164733, 2165138, 2165526, 2165882, 2166225]","[2157164, 2157563, 2157963, 2158363, 2158764, 2159163, 2159563, 2159964, 2160322, 2160711, 2161108, 2161499, 2161883, 2162270, 2162658, 2163054, 2163442, 2163847, 2164227, 2164611, 2164995, 2165389, 2165748, 2166111]",25,R,ITM,1.1,
2,600,trial,0,117,117,117,trial,"['S', 'S', 'S', 'S', 'S', 'S', 'S', 'C', 'C', 'C', 'C', 'C', 'C', 'C', 'C', 'C', 'C', 'C', 'C', 'C', 'C', 'C', 'C']","[2171722, 2172519, 2173185, 2173757, 2174334, 2174968, 2175586, 2176258, 2176857, 2177474, 2178085, 2178674, 2179273, 2179859, 2180451, 2181031, 2181620, 2182203, 2182803, 2183385, 2184016, 2184621, 2185228]","[2171847, 2172687, 2173325, 2173900, 2174480, 2175090, 2175710, 2176342, 2176939, 2177542, 2178152, 2178751, 2179341, 2179922, 2180508, 2181076, 2181656, 2182252, 2182837, 2183418, 2184053, 2184648, 2185276]","[2171440, 2172040, 2172639, 2173239, 2173839, 2174439, 2175039, 2175639, 2176285, 2176884, 2177502, 2178113, 2178702, 2179300, 2179887, 2180478, 2181058, 2181648, 2182230, 2182830, 2183411, 2184044, 2184648, 2185254]",25,R,ITM,1.1,
7,400,trial,0,118,118,118,trial,"['S', 'S', 'S', 'S', 'S', 'S', 'S', 'C', 'C', 'C', 'C', 'C', 'C', 'C', 'C', 'C', 'C', 'C', 'C', 'C', 'C', 'C', 'C']","[2191287, 2191678, 2192061, 2192480, 2192857, 2193278, 2193700, 2194107, 2194494, 2194891, 2195276, 2195676, 2196067, 2196467, 2196869, 2197243, 2197618, 2198000, 2198386, 2198771, 2199176, 2199595, 2199972]","[2191395, 2191780, 2192183, 2192592, 2192996, 2193417, 2193820, 2194248, 2194630, 2195037, 2195429, 2195828, 2196206, 2196590, 2196972, 2197336, 2197706, 2198090, 2198480, 2198910, 2199286, 2199665, 2200043]","[2190978, 2191376, 2191776, 2192177, 2192576, 2192976, 2193376, 2193776, 2194134, 2194521, 2194918, 2195303, 2195703, 2196093, 2196495, 2196895, 2197271, 2197645, 2198028, 2198413, 2198799, 2199203, 2199621, 2200000]",25,R,ITM,1.1,
3,400,trial,0,119,119,119,trial,"['S', 'S', 'S', 'S', 'S', 'S', 'S', 'C', 'C', 'C', 'C', 'C', 'C', 'C', 'C', 'C', 'C', 'C', 'C', 'C', 'C', 'C', 'C']","[2205733, 2206080, 2206459, 2206881, 2207300, 2207700, 2208100, 2208515, 2208932, 2209339, 2209740, 2210123, 2210512, 2210896, 2211284, 2211675, 2212058, 2212450, 2212845, 2213232, 2213626, 2214026, 2214424]","[2205856, 2206204, 2206601, 2207030, 2207444, 2207838, 2208233, 2208671, 2209087, 2209496, 2209855, 2210247, 2210637, 2211035, 2211398, 2211814, 2212200, 2212581, 2212980, 2213388, 2213767, 2214170, 2214590]","[2205385, 2205786, 2206185, 2206585, 2206985, 2207385, 2207785, 2208185, 2208540, 2208958, 2209364, 2209766, 2210149, 2210538, 2210922, 2211310, 2211700, 2212083, 2212475, 2212871, 2213258, 2213652, 2214051, 2214450]",25,R,ITM,1.1,
7,600,trial,0,120,120,120,trial,"['S', 'S', 'S', 'S', 'S', 'S', 'S', 'S', 'C', 'C', 'C', 'C', 'C', 'C', 'C', 'C', 'C', 'C', 'C', 'C', 'C', 'C', 'C', 'C']","[2220070, 2220361, 2220933, 2221593, 2222191, 2222794, 2223435, 2224020, 2224659, 2225265, 2225859, 2226465, 2227100, 2227712, 2228316, 2228939, 2229552, 2230172, 2230830, 2231473, 2232096, 2232715, 2233339, 2233978]","[2220189, 2220590, 2221158, 2221803, 2222353, 2222939, 2223537, 2224118, 2224717, 2225324, 2225923, 2226532, 2227151, 2227775, 2228384, 2229002, 2229623, 2230244, 2230895, 2231560, 2232175, 2232788, 2233422, 2234054]","[2219836, 2220435, 2221035, 2221635, 2222235, 2222835, 2223435, 2224035, 2224687, 2225293, 2225886, 2226492, 2227128, 2227738, 2228342, 2228966, 2229578, 2230200, 2230856, 2231500, 2232123, 2232741, 2233367, 2234005]",25,R,ITM,1.1,
5,600,trial,0,121,121,121,trial,"['S', 'S', 'S', 'S', 'S', 'S', 'S', 'C', 'C', 'C', 'C', 'C', 'C', 'C', 'C', 'C', 'C', 'C', 'C', 'C', 'C', 'C', 'C']","[2239741, 2240458, 2241072, 2241702, 2242311, 2242913, 2243523, 2244131, 2244720, 2245299, 2245905, 2246517, 2247101, 2247744, 2248363, 2248951, 2249562, 2250165, 2250761, 2251356, 2251956, 2252567, 2253172]","[2239886, 2240628, 2241198, 2241809, 2242412, 2242987, 2243607, 2244210, 2244804, 2245402, 2245999, 2246610, 2247212, 2247831, 2248451, 2249038, 2249637, 2250252, 2250833, 2251452, 2252057, 2252676, 2253286]","[2239364, 2239963, 2240562, 2241162, 2241762, 2242362, 2242962, 2243562, 2244158, 2244746, 2245324, 2245931, 2246543, 2247127, 2247770, 2248389, 2248978, 2249587, 2250190, 2250786, 2251382, 2251982, 2252593, 2253199]",25,R,ITM,1.1,
3,600,trial,0,122,122,122,trial,"['S', 'S', 'S', 'S', 'S', 'S', 'S', 'C', 'C', 'C', 'C', 'C', 'C', 'C', 'C', 'C', 'C', 'C', 'C', 'C', 'C', 'C', 'C']","[2258856, 2259606, 2260203, 2260860, 2261443, 2262086, 2262690, 2263285, 2263879, 2264479, 2265059, 2265639, 2266216, 2266788, 2267378, 2267983, 2268541, 2269146, 2269713, 2270300, 2270883, 2271465, 2272054]","[2258947, 2259747, 2260332, 2260998, 2261591, 2262187, 2262776, 2263385, 2264015, 2264603, 2265206, 2265754, 2266333, 2266926, 2267529, 2268162, 2268720, 2269323, 2269914, 2270525, 2271100, 2271704, 2272260]","[2258548, 2259147, 2259747, 2260347, 2260947, 2261548, 2262148, 2262748, 2263311, 2263905, 2264505, 2265084, 2265665, 2266242, 2266814, 2267404, 2268010, 2268567, 2269171, 2269739, 2270325, 2270909, 2271491, 2272079]",25,R,ITM,1.1,
4,400,trial,0,123,123,123,trial,"['B', 'S', 'S', 'S', 'S', 'S', 'S', 'S', 'C', 'C', 'C', 'C', 'C', 'C', 'C', 'C', 'C', 'C', 'C', 'C', 'C', 'C', 'C', 'C']","[2277758, 2278118, 2278494, 2278842, 2279266, 2279708, 2280114, 2280518, 2280927, 2281323, 2281751, 2282126, 2282550, 2282945, 2283360, 2283749, 2284163, 2284585, 2284983, 2285370, 2285768, 2286170, 2286573, 2286964]","[2277911, 2278310, 2278624, 2279012, 2279454, 2279869, 2280285, 2280678, 2281081, 2281474, 2281825, 2282262, 2282673, 2283083, 2283480, 2283885, 2284306, 2284700, 2285117, 2285512, 2285883, 2286259, 2286698, 2287085]","[2277770, 2278170, 2278571, 2278970, 2279370, 2279771, 2280170, 2280570, 2280952, 2281349, 2281777, 2282152, 2282575, 2282972, 2283385, 2283774, 2284188, 2284611, 2285008, 2285395, 2285795, 2286195, 2286599, 2286990]",25,R,ITM,1.1,
2,400,trial,0,124,124,124,trial,"['S', 'S', 'S', 'S', 'S', 'S', 'S', 'C', 'C', 'C', 'C', 'C', 'C', 'C', 'C', 'C', 'C', 'C', 'C', 'C', 'C', 'C', 'C']","[2292757, 2293115, 2293468, 2293899, 2294363, 2294758, 2295150, 2295547, 2295960, 2296360, 2296758, 2297151, 2297560, 2297965, 2298347, 2298754, 2299149, 2299538, 2299911, 2300315, 2300731, 2301134, 2301509]","[2292884, 2293223, 2293592, 2294088, 2294516, 2294906, 2295296, 2295693, 2296113, 2296521, 2296906, 2297299, 2297702, 2298051, 2298462, 2298882, 2299295, 2299652, 2300057, 2300486, 2300880, 2301280, 2301642]","[2292405, 2292805, 2293204, 2293605, 2294004, 2294406, 2294805, 2295205, 2295574, 2295987, 2296387, 2296784, 2297179, 2297586, 2297992, 2298374, 2298781, 2299175, 2299566, 2299938, 2300343, 2300759, 2301161, 2301537]",25,R,ITM,1.1,
3,600,trial,0,125,125,125,trial,"['S', 'S', 'S', 'S', 'S', 'S', 'S', 'C', 'C', 'C', 'C', 'C', 'C', 'C', 'C', 'C', 'C', 'C', 'C', 'C', 'C', 'C', 'C']","[2307311, 2308093, 2308749, 2309319, 2309956, 2310507, 2311147, 2311686, 2312288, 2312849, 2313453, 2314052, 2314633, 2315216, 2315828, 2316404, 2316996, 2317599, 2318190, 2318774, 2319370, 2319975, 2320536]","[2307431, 2308315, 2308928, 2309484, 2310122, 2310681, 2311294, 2311882, 2312454, 2313040, 2313647, 2314272, 2314849, 2315457, 2316032, 2316652, 2317267, 2317853, 2318441, 2319050, 2319646, 2320220, 2320775]","[2306999, 2307598, 2308198, 2308798, 2309398, 2309998, 2310598, 2311198, 2311711, 2312313, 2312875, 2313479, 2314078, 2314658, 2315242, 2315853, 2316431, 2317022, 2317625, 2318216, 2318799, 2319395, 2320001, 2320562]",25,R,ITM,1.1,
