octave,ioi,event,.thisRepN,.thisTrialN,.thisN,.thisIndex,event,tap_types,tap_times,release_times,tone_times,subject,handedness,experiment,version,
,,SPR,0,-1,-1,0,SPR,"['P', 'P', 'P', 'P', 'P', 'P', 'P', 'P', 'P', 'P', 'P', 'P', 'P', 'P', 'P', 'P', 'P', 'P', 'P', 'P', 'P', 'P', 'P', 'P', 'P', 'P', 'P', 'P', 'P', 'P']","[35558, 36457, 37330, 38227, 39168, 40064, 40935, 41780, 42643, 43540, 44494, 45408, 46247, 47147, 48025, 48850, 49738, 50606, 51464, 52350, 53244, 54121, 55000, 55845, 56770, 57652, 58557, 59432, 60333, 61209]","[35808, 36654, 37480, 38345, 39262, 40157, 41021, 41873, 42723, 43620, 44570, 45485, 46316, 47233, 48114, 48944, 49828, 50708, 51547, 52447, 53339, 54208, 55091, 55943, 56862, 57737, 58641, 59510, 60403, 61301]",,49,L,ITM,1.1,
5,500,practice,0,0,0,0,practice,"['S', 'S', 'S', 'S', 'C', 'C', 'C', 'C', 'C', 'C', 'C', 'C', 'C', 'C', 'C', 'C', 'C', 'C', 'C', 'C']","[184138, 185186, 185643, 186128, 186643, 187105, 187590, 188036, 188448, 188855, 189284, 189723, 190212, 190701, 191184, 191685, 192169, 192673, 193140, 193623]","[184215, 185239, 185698, 186186, 186693, 187162, 187640, 188095, 188504, 188921, 189358, 189787, 190263, 190754, 191237, 191747, 192232, 192731, 193206, 193687]","[182657, 183155, 183655, 184156, 184655, 185155, 185655, 186156, 186669, 187130, 187616, 188061, 188475, 188880, 189309, 189750, 190237, 190727, 191211, 191711, 192195, 192699, 193166, 193648]",49,L,ITM,1.1,
3,500,practice,0,1,1,1,practice,"['S', 'S', 'S', 'S', 'S', 'S', 'S', 'C', 'C', 'C', 'C', 'C', 'C', 'C', 'C', 'C', 'C', 'C', 'C', 'C', 'C', 'C', 'C']","[199356, 199918, 200435, 200951, 201428, 201929, 202431, 202961, 203462, 203945, 204472, 204969, 205487, 206018, 206498, 207003, 207527, 208003, 208526, 209024, 209572, 210062, 210572]","[199392, 199968, 200484, 200981, 201493, 201988, 202493, 203014, 203521, 204010, 204537, 205039, 205560, 206084, 206574, 207088, 207601, 208088, 208593, 209065, 209612, 210129, 210649]","[198969, 199469, 199968, 200468, 200968, 201468, 201968, 202468, 202987, 203488, 203970, 204497, 204994, 205513, 206044, 206524, 207029, 207553, 208028, 208551, 209049, 209598, 210087, 210597]",49,L,ITM,1.1,
2,500,practice,0,2,2,2,practice,"['S', 'S', 'S', 'S', 'S', 'S', 'S', 'C', 'C', 'C', 'C', 'C', 'C', 'C', 'C', 'C', 'C', 'C', 'C', 'C', 'C', 'C', 'C']","[216881, 217288, 217731, 218229, 218715, 219234, 219722, 220217, 220706, 221195, 221672, 222177, 222713, 223220, 223715, 224223, 224739, 225269, 225719, 226246, 226784, 227274, 227808]","[216927, 217348, 217799, 218296, 218795, 219300, 219789, 220279, 220782, 221266, 221749, 222254, 222800, 223309, 223803, 224304, 224829, 225371, 225855, 226362, 226888, 227395, 227907]","[216256, 216755, 217255, 217756, 218256, 218757, 219256, 219756, 220244, 220734, 221222, 221700, 222203, 222741, 223247, 223742, 224249, 224765, 225296, 225745, 226274, 226810, 227302, 227834]",49,L,ITM,1.1,
6,500,practice,0,3,3,3,practice,"['S', 'S', 'S', 'S', 'S', 'S', 'S', 'C', 'C', 'C', 'C', 'C', 'C', 'C', 'C', 'C', 'C', 'C', 'C', 'C', 'C', 'C', 'C']","[233554, 234095, 234635, 235141, 235678, 236158, 236701, 237207, 237706, 238182, 238705, 239229, 239728, 240246, 240758, 241276, 241763, 242311, 242844, 243377, 243906, 244431, 244931]","[233608, 234173, 234714, 235208, 235748, 236249, 236784, 237304, 237798, 238282, 238796, 239313, 239803, 240318, 240841, 241372, 241878, 242442, 242961, 243512, 244047, 244560, 245052]","[233228, 233729, 234228, 234728, 235229, 235728, 236228, 236728, 237234, 237733, 238209, 238733, 239256, 239755, 240273, 240785, 241303, 241789, 242338, 242872, 243403, 243934, 244459, 244958]",49,L,ITM,1.1,
7,500,practice,0,4,4,4,practice,"['S', 'S', 'S', 'S', 'S', 'S', 'S', 'C', 'C', 'C', 'C', 'C', 'C', 'C', 'C', 'C', 'C', 'C', 'C', 'C', 'C', 'C', 'C']","[250870, 251373, 251913, 252462, 252961, 253476, 253964, 254462, 254977, 255486, 255985, 256521, 257031, 257538, 258042, 258538, 259074, 259585, 260089, 260562, 261075, 261599, 262097]","[250952, 251487, 252008, 252564, 253061, 253578, 254063, 254573, 255099, 255576, 256097, 256619, 257117, 257616, 258128, 258641, 259172, 259705, 260169, 260688, 261192, 261721, 262209]","[250499, 250997, 251497, 251998, 252498, 252998, 253498, 253999, 254489, 255004, 255513, 256013, 256548, 257057, 257564, 258070, 258565, 259100, 259612, 260116, 260589, 261102, 261625, 262124]",49,L,ITM,1.1,
4,500,practice,0,5,5,5,practice,"['S', 'S', 'S', 'S', 'S', 'S', 'S', 'C', 'C', 'C', 'C', 'C', 'C', 'C', 'C', 'C', 'C', 'C', 'C', 'C', 'C', 'C', 'C']","[267966, 268490, 268979, 269480, 270006, 270508, 270995, 271509, 272018, 272514, 273017, 273520, 274028, 274543, 275037, 275529, 276049, 276533, 277008, 277529, 278037, 278551, 279103]","[268050, 268573, 269069, 269589, 270104, 270611, 271097, 271622, 272124, 272637, 273119, 273608, 274138, 274643, 275135, 275628, 276149, 276648, 277115, 277641, 278156, 278668, 279197]","[267545, 268044, 268545, 269044, 269544, 270045, 270545, 271045, 271535, 272044, 272539, 273043, 273546, 274054, 274570, 275062, 275555, 276075, 276558, 277033, 277555, 278063, 278577, 279130]",49,L,ITM,1.1,
5,600,trial,0,6,6,6,trial,"['S', 'S', 'S', 'S', 'S', 'S', 'S', 'C', 'C', 'C', 'C', 'C', 'C', 'C', 'C', 'C', 'C', 'C', 'C', 'C', 'C', 'C', 'C']","[292093, 292668, 293302, 293941, 294605, 295226, 295876, 296438, 297007, 297606, 298176, 298771, 299367, 299940, 300531, 301097, 301715, 302303, 302897, 303478, 304046, 304613, 305171]","[292174, 292759, 293387, 294032, 294686, 295323, 295961, 296535, 297107, 297699, 298273, 298862, 299469, 300043, 300616, 301172, 301785, 302388, 302979, 303576, 304149, 304701, 305259]","[291687, 292286, 292886, 293486, 294086, 294686, 295286, 295886, 296464, 297032, 297631, 298203, 298797, 299393, 299966, 300557, 301123, 301742, 302328, 302922, 303504, 304071, 304638, 305197]",49,L,ITM,1.1,
3,600,trial,0,7,7,7,trial,"['S', 'S', 'S', 'S', 'S', 'S', 'S', 'S', 'C', 'C', 'C', 'C', 'C', 'C', 'C', 'C', 'C', 'C', 'C', 'C', 'C', 'C', 'C', 'C']","[310993, 311314, 311880, 312433, 313052, 313692, 314296, 314944, 315509, 316064, 316654, 317233, 317809, 318383, 318988, 319570, 320157, 320745, 321371, 321941, 322506, 323126, 323710, 324310]","[311050, 311389, 311955, 312544, 313142, 313782, 314399, 315030, 315609, 316180, 316748, 317341, 317904, 318479, 319072, 319657, 320246, 320834, 321460, 322030, 322606, 323222, 323803, 324408]","[310756, 311355, 311955, 312555, 313155, 313755, 314355, 314955, 315535, 316090, 316680, 317258, 317835, 318408, 319013, 319596, 320183, 320771, 321396, 321967, 322532, 323151, 323736, 324335]",49,L,ITM,1.1,
3,400,trial,0,8,8,8,trial,"['S', 'S', 'S', 'S', 'S', 'S', 'C', 'C', 'C', 'C', 'C', 'C', 'C', 'C', 'C', 'C', 'C', 'C', 'C', 'C', 'C', 'C']","[330589, 330925, 331310, 331707, 332093, 332499, 332895, 333263, 333647, 334017, 334401, 334775, 335175, 335514, 335919, 336258, 336638, 336994, 337380, 337731, 338093, 338463]","[330646, 330986, 331374, 331766, 332157, 332563, 332963, 333331, 333713, 334075, 334465, 334848, 335237, 335592, 335980, 336334, 336711, 337056, 337432, 337786, 338157, 338527]","[329776, 330174, 330574, 330974, 331374, 331774, 332174, 332574, 332920, 333289, 333673, 334044, 334427, 334800, 335201, 335540, 335944, 336283, 336664, 337019, 337405, 337757, 338118, 338489]",49,L,ITM,1.1,
2,600,trial,0,9,9,9,trial,"['S', 'S', 'S', 'S', 'S', 'S', 'C', 'C', 'C', 'C', 'C', 'C', 'C', 'C', 'C', 'C', 'C', 'C', 'C', 'C', 'C', 'C']","[345142, 345751, 346337, 346923, 347530, 348116, 348723, 349326, 349913, 350498, 351073, 351671, 352254, 352839, 353393, 354018, 354576, 355173, 355742, 356311, 356900, 357468]","[345207, 345820, 346407, 346992, 347615, 348191, 348797, 349401, 349993, 350569, 351149, 351739, 352331, 352916, 353479, 354086, 354660, 355251, 355813, 356379, 356963, 357539]","[344007, 344607, 345206, 345807, 346407, 347008, 347608, 348208, 348750, 349353, 349940, 350526, 351100, 351697, 352282, 352867, 353420, 354045, 354604, 355201, 355770, 356337, 356927, 357495]",49,L,ITM,1.1,
6,400,trial,0,10,10,10,trial,"['S', 'S', 'S', 'S', 'S', 'S', 'C', 'C', 'C', 'C', 'C', 'C', 'C', 'C', 'C', 'C', 'C', 'C', 'C', 'C', 'C', 'C']","[363692, 364063, 364473, 364858, 365245, 365639, 366034, 366444, 366838, 367214, 367601, 367997, 368366, 368747, 369144, 369523, 369902, 370312, 370679, 371080, 371441, 371836]","[363753, 364112, 364534, 364935, 365309, 365698, 366093, 366513, 366894, 367271, 367653, 368050, 368424, 368801, 369196, 369583, 369968, 370365, 370727, 371132, 371508, 371897]","[362935, 363334, 363735, 364134, 364534, 364935, 365334, 365734, 366061, 366471, 366865, 367241, 367628, 368025, 368394, 368775, 369171, 369550, 369929, 370339, 370706, 371106, 371468, 371863]",49,L,ITM,1.1,
6,600,trial,0,11,11,11,trial,"['S', 'S', 'S', 'S', 'S', 'S', 'S', 'C', 'C', 'C', 'C', 'C', 'C', 'C', 'C', 'C', 'C', 'C', 'C', 'C', 'C', 'C', 'C']","[378164, 378721, 379312, 379888, 380507, 381080, 381704, 382317, 382945, 383556, 384158, 384721, 385345, 385950, 386585, 387149, 387759, 388342, 388948, 389565, 390156, 390795, 391394]","[378233, 378788, 379361, 379952, 380574, 381157, 381763, 382384, 383011, 383628, 384227, 384792, 385402, 386010, 386636, 387205, 387813, 388406, 389014, 389633, 390233, 390861, 391467]","[377575, 378174, 378774, 379374, 379974, 380574, 381174, 381774, 382344, 382972, 383584, 384185, 384749, 385372, 385977, 386612, 387176, 387785, 388370, 388976, 389592, 390182, 390822, 391420]",49,L,ITM,1.1,
4,600,trial,0,12,12,12,trial,"['S', 'S', 'S', 'S', 'S', 'S', 'C', 'C', 'C', 'C', 'C', 'C', 'C', 'C', 'C', 'C', 'C', 'C', 'C', 'C', 'C', 'C']","[397746, 398385, 398997, 399602, 400217, 400800, 401372, 401983, 402581, 403177, 403763, 404346, 404933, 405551, 406142, 406747, 407297, 407936, 408516, 409115, 409728, 410337]","[397817, 398440, 399043, 399681, 400276, 400873, 401442, 402048, 402634, 403221, 403822, 404416, 404985, 405586, 406206, 406792, 407360, 407992, 408583, 409179, 409801, 410387]","[396712, 397312, 397912, 398512, 399111, 399711, 400311, 400911, 401397, 402009, 402607, 403203, 403788, 404372, 404960, 405576, 406169, 406772, 407323, 407961, 408542, 409142, 409753, 410362]",49,L,ITM,1.1,
6,400,trial,0,13,13,13,trial,"['S', 'S', 'S', 'S', 'S', 'S', 'C', 'C', 'C', 'C', 'C', 'C', 'C', 'C', 'C', 'C', 'C', 'C', 'C', 'C', 'C', 'C']","[416864, 417244, 417642, 418017, 418434, 418820, 419222, 419569, 419977, 420352, 420742, 421113, 421516, 421898, 422319, 422724, 423122, 423526, 423928, 424303, 424706, 425084]","[416931, 417285, 417698, 418078, 418493, 418889, 419277, 419622, 420030, 420417, 420787, 421187, 421579, 421958, 422362, 422771, 423189, 423583, 423993, 424365, 424762, 425143]","[416077, 416478, 416878, 417278, 417678, 418078, 418479, 418878, 419249, 419596, 420003, 420378, 420768, 421140, 421542, 421924, 422346, 422751, 423149, 423553, 423956, 424331, 424732, 425112]",49,L,ITM,1.1,
3,400,trial,0,14,14,14,trial,"['S', 'S', 'S', 'S', 'S', 'S', 'C', 'C', 'C', 'C', 'C', 'C', 'C', 'C', 'C', 'C', 'C', 'C', 'C', 'C', 'C', 'C']","[431208, 431574, 431974, 432384, 432820, 433205, 433625, 433980, 434397, 434838, 435225, 435633, 436042, 436470, 436895, 437300, 437715, 438122, 438524, 438966, 439368, 439824]","[431266, 431634, 432026, 432446, 432878, 433276, 433686, 434053, 434453, 434888, 435287, 435696, 436107, 436530, 436940, 437362, 437766, 438191, 438583, 439028, 439446, 439890]","[430419, 430819, 431219, 431620, 432019, 432419, 432819, 433219, 433650, 434006, 434422, 434864, 435251, 435658, 436068, 436496, 436921, 437325, 437741, 438148, 438550, 438991, 439394, 439849]",49,L,ITM,1.1,
7,600,trial,0,15,15,15,trial,"['S', 'S', 'S', 'S', 'S', 'S', 'C', 'C', 'C', 'C', 'C', 'C', 'C', 'C', 'C', 'C', 'C', 'C', 'C', 'C', 'C', 'C']","[446755, 447383, 447973, 448614, 449214, 449814, 450402, 451017, 451640, 452251, 452841, 453433, 454040, 454611, 455205, 455835, 456432, 457015, 457641, 458266, 458867, 459488]","[446814, 447438, 448038, 448676, 449289, 449878, 450470, 451092, 451707, 452302, 452897, 453491, 454094, 454676, 455280, 455899, 456498, 457079, 457717, 458332, 458948, 459550]","[445616, 446215, 446814, 447414, 448014, 448614, 449214, 449814, 450428, 451045, 451666, 452278, 452869, 453459, 454068, 454638, 455233, 455862, 456459, 457041, 457667, 458294, 458895, 459514]",49,L,ITM,1.1,
7,400,trial,0,16,16,16,trial,"['S', 'S', 'S', 'S', 'S', 'S', 'C', 'C', 'C', 'C', 'C', 'C', 'C', 'C', 'C', 'C', 'C', 'C', 'C', 'C', 'C', 'C']","[465870, 466215, 466635, 467048, 467445, 467863, 468283, 468702, 469114, 469512, 469934, 470362, 470761, 471196, 471600, 472033, 472433, 472862, 473285, 473695, 474124, 474559]","[465934, 466274, 466691, 467112, 467517, 467917, 468350, 468750, 469167, 469575, 469982, 470424, 470835, 471263, 471657, 472086, 472503, 472919, 473353, 473752, 474188, 474610]","[465087, 465486, 465886, 466286, 466686, 467086, 467486, 467887, 468310, 468729, 469141, 469539, 469960, 470388, 470788, 471223, 471626, 472059, 472461, 472889, 473312, 473722, 474150, 474586]",49,L,ITM,1.1,
2,400,trial,0,17,17,17,trial,"['S', 'S', 'S', 'S', 'S', 'S', 'C', 'C', 'C', 'C', 'C', 'C', 'C', 'C', 'C', 'C', 'C', 'C', 'C', 'C', 'C', 'C']","[480775, 481161, 481571, 481985, 482394, 482804, 483196, 483612, 484025, 484469, 484867, 485275, 485721, 486133, 486561, 486959, 487398, 487804, 488214, 488627, 489076, 489499]","[480838, 481220, 481631, 482048, 482462, 482867, 483261, 483665, 484085, 484526, 484931, 485350, 485779, 486198, 486612, 487023, 487461, 487859, 488279, 488694, 489142, 489560]","[480004, 480403, 480803, 481203, 481604, 482003, 482404, 482804, 483224, 483639, 484051, 484497, 484894, 485303, 485748, 486161, 486588, 486985, 487426, 487832, 488241, 488654, 489103, 489526]",49,L,ITM,1.1,
7,400,trial,0,18,18,18,trial,"['S', 'S', 'S', 'S', 'S', 'S', 'C', 'C', 'C', 'C', 'C', 'C', 'C', 'C', 'C', 'C', 'C', 'C', 'C', 'C', 'C', 'C']","[499357, 499650, 500086, 500514, 500897, 501343, 501720, 502103, 502493, 502876, 503248, 503640, 504064, 504460, 504854, 505269, 505661, 506080, 506469, 506862, 507276, 507674]","[499404, 499723, 500144, 500554, 500959, 501394, 501768, 502154, 502541, 502925, 503307, 503695, 504120, 504509, 504908, 505321, 505712, 506131, 506521, 506930, 507327, 507734]","[498525, 498923, 499323, 499723, 500123, 500524, 500923, 501323, 501746, 502130, 502520, 502902, 503275, 503666, 504091, 504486, 504882, 505296, 505689, 506107, 506497, 506890, 507302, 507701]",49,L,ITM,1.1,
2,400,trial,0,19,19,19,trial,"['S', 'S', 'S', 'S', 'S', 'S', 'C', 'C', 'C', 'C', 'C', 'C', 'C', 'C', 'C', 'C', 'C', 'C', 'C', 'C', 'C', 'C']","[514098, 514533, 514941, 515320, 515694, 516159, 516497, 516921, 517294, 517725, 518118, 518554, 518946, 519359, 519762, 520174, 520591, 520992, 521419, 521819, 522240, 522617]","[514148, 514583, 514992, 515366, 515748, 516180, 516556, 516972, 517361, 517783, 518184, 518608, 518998, 519419, 519816, 520236, 520643, 521057, 521470, 521870, 522289, 522691]","[513333, 513732, 514134, 514533, 514932, 515334, 515732, 516132, 516524, 516948, 517321, 517751, 518145, 518581, 518973, 519386, 519790, 520202, 520619, 521020, 521447, 521845, 522267, 522644]",49,L,ITM,1.1,
4,400,trial,0,20,20,20,trial,"['S', 'S', 'S', 'S', 'S', 'S', 'C', 'C', 'C', 'C', 'C', 'C', 'C', 'C', 'C', 'C', 'C', 'C', 'C', 'C', 'C', 'C']","[528898, 529320, 529717, 530131, 530530, 530938, 531321, 531699, 532115, 532519, 532941, 533316, 533735, 534097, 534506, 534905, 535332, 535673, 536086, 536512, 536922, 537328]","[528959, 529381, 529768, 530186, 530586, 531007, 531388, 531772, 532179, 532593, 533006, 533391, 533794, 534161, 534583, 534972, 535388, 535772, 536161, 536578, 536996, 537394]","[528168, 528568, 528968, 529369, 529768, 530168, 530568, 530968, 531347, 531725, 532141, 532546, 532967, 533342, 533761, 534123, 534532, 534931, 535358, 535699, 536112, 536538, 536947, 537354]",49,L,ITM,1.1,
5,600,trial,0,21,21,21,trial,"['S', 'S', 'S', 'S', 'S', 'S', 'C', 'C', 'C', 'C', 'C', 'C', 'C', 'C', 'C', 'C', 'C', 'C', 'C', 'C', 'C', 'C']","[543927, 544552, 545160, 545756, 546365, 546957, 547563, 548140, 548751, 549364, 549947, 550578, 551153, 551732, 552275, 552922, 553520, 554117, 554727, 555322, 555948, 556556]","[543993, 544610, 545226, 545817, 546425, 547022, 547629, 548216, 548836, 549426, 550014, 550646, 551227, 551784, 552358, 552985, 553587, 554187, 554793, 555383, 556016, 556618]","[542786, 543385, 543985, 544585, 545185, 545785, 546385, 546985, 547589, 548165, 548776, 549390, 549972, 550603, 551179, 551757, 552301, 552947, 553545, 554142, 554753, 555348, 555973, 556581]",49,L,ITM,1.1,
6,600,trial,0,22,22,22,trial,"['S', 'S', 'S', 'S', 'S', 'S', 'C', 'C', 'C', 'C', 'C', 'C', 'C', 'C', 'C', 'C', 'C', 'C', 'C', 'C', 'C', 'C']","[563417, 564042, 564656, 565285, 565859, 566462, 567048, 567662, 568268, 568867, 569486, 570117, 570698, 571300, 571928, 572580, 573179, 573785, 574435, 575078, 575676, 576381]","[563480, 564088, 564708, 565351, 565921, 566510, 567102, 567711, 568334, 568937, 569544, 570179, 570763, 571375, 571993, 572620, 573242, 573833, 574507, 575127, 575742, 576434]","[562281, 562880, 563480, 564080, 564680, 565280, 565880, 566480, 567074, 567689, 568295, 568894, 569512, 570143, 570725, 571328, 571955, 572607, 573206, 573811, 574461, 575106, 575703, 576408]",49,L,ITM,1.1,
2,600,trial,0,23,23,23,trial,"['S', 'S', 'S', 'S', 'S', 'S', 'C', 'C', 'C', 'C', 'C', 'C', 'C', 'C', 'C', 'C', 'C', 'C', 'C', 'C', 'C', 'C']","[583193, 583825, 584421, 585019, 585616, 586200, 586841, 587472, 588066, 588666, 589265, 589918, 590527, 591155, 591771, 592390, 593038, 593638, 594270, 594916, 595523, 596156]","[583236, 583878, 584481, 585067, 585669, 586249, 586900, 587524, 588130, 588719, 589329, 589973, 590593, 591207, 591828, 592457, 593096, 593704, 594327, 594959, 595575, 596211]","[582036, 582636, 583235, 583836, 584436, 585035, 585636, 586236, 586868, 587499, 588093, 588694, 589293, 589944, 590554, 591181, 591799, 592417, 593064, 593666, 594297, 594944, 595551, 596184]",49,L,ITM,1.1,
5,400,trial,0,24,24,24,trial,"['S', 'S', 'S', 'S', 'S', 'S', 'C', 'C', 'C', 'C', 'C', 'C', 'C', 'C', 'C', 'C', 'C', 'C', 'C', 'C', 'C', 'C']","[602379, 602764, 603164, 603554, 603942, 604372, 604785, 605155, 605523, 605939, 606316, 606716, 607116, 607520, 607936, 608287, 608693, 609107, 609455, 609876, 610274, 610649]","[602436, 602814, 603214, 603615, 603988, 604417, 604835, 605212, 605589, 605987, 606389, 606780, 607182, 607591, 607986, 608364, 608746, 609161, 609534, 609925, 610337, 610714]","[601615, 602014, 602415, 602814, 603214, 603614, 604014, 604414, 604812, 605181, 605549, 605966, 606342, 606742, 607141, 607546, 607962, 608313, 608718, 609133, 609480, 609903, 610300, 610674]",49,L,ITM,1.1,
4,600,trial,0,25,25,25,trial,"['S', 'S', 'S', 'S', 'S', 'S', 'C', 'C', 'C', 'C', 'C', 'C', 'C', 'C', 'C', 'C', 'C', 'C', 'C', 'C', 'C', 'C']","[617131, 617713, 618336, 618921, 619499, 620118, 620699, 621306, 621857, 622431, 623026, 623607, 624225, 624788, 625390, 625939, 626583, 627170, 627725, 628344, 628947, 629512]","[617187, 617773, 618390, 618980, 619554, 620184, 620766, 621365, 621919, 622490, 623074, 623659, 624258, 624820, 625418, 625994, 626635, 627216, 627773, 628370, 628998, 629573]","[616027, 616626, 617226, 617826, 618426, 619026, 619626, 620226, 620725, 621333, 621883, 622456, 623051, 623634, 624250, 624814, 625416, 625965, 626609, 627195, 627750, 628370, 628974, 629537]",49,L,ITM,1.1,
4,400,trial,0,26,26,26,trial,"['S', 'S', 'S', 'S', 'S', 'S', 'C', 'C', 'C', 'C', 'C', 'C', 'C', 'C', 'C', 'C', 'C', 'C', 'C', 'C', 'C', 'C']","[635743, 636075, 636452, 636888, 637291, 637673, 638080, 638489, 638896, 639296, 639698, 640134, 640544, 640961, 641367, 641798, 642217, 642634, 643054, 643517, 643898, 644313]","[635797, 636134, 636531, 636943, 637343, 637728, 638138, 638558, 638955, 639357, 639768, 640197, 640590, 641017, 641435, 641864, 642290, 642699, 643117, 643574, 643966, 644376]","[634943, 635343, 635743, 636143, 636544, 636943, 637343, 637744, 638105, 638515, 638921, 639322, 639724, 640159, 640570, 640987, 641392, 641823, 642243, 642660, 643080, 643543, 643923, 644338]",49,L,ITM,1.1,
7,600,trial,0,27,27,27,trial,"['S', 'S', 'S', 'S', 'S', 'S', 'C', 'C', 'C', 'C', 'C', 'C', 'C', 'C', 'C', 'C', 'C', 'C', 'C', 'C', 'C', 'C']","[651235, 651786, 652388, 652987, 653609, 654230, 654829, 655406, 655990, 656569, 657159, 657746, 658364, 658976, 659534, 660195, 660795, 661351, 661946, 662522, 663128, 663699]","[651293, 651848, 652460, 653051, 653654, 654281, 654876, 655462, 656045, 656622, 657223, 657809, 658420, 659028, 659608, 660249, 660864, 661420, 662013, 662614, 663199, 663775]","[650094, 650693, 651293, 651893, 652493, 653093, 653693, 654294, 654856, 655432, 656017, 656596, 657186, 657773, 658391, 659004, 659561, 660222, 660822, 661378, 661974, 662549, 663154, 663726]",49,L,ITM,1.1,
3,600,trial,0,28,28,28,trial,"['S', 'S', 'S', 'S', 'S', 'S', 'C', 'C', 'C', 'C', 'C', 'C', 'C', 'C', 'C', 'C', 'C', 'C', 'C', 'C', 'C', 'C']","[670369, 670908, 671481, 672080, 672676, 673286, 673896, 674507, 675116, 675700, 676304, 676931, 677500, 678127, 678697, 679316, 679901, 680545, 681105, 681711, 682304, 682910]","[670419, 670965, 671553, 672143, 672738, 673355, 673947, 674576, 675177, 675762, 676384, 676993, 677574, 678193, 678760, 679377, 679977, 680603, 681176, 681764, 682372, 682972]","[669166, 669765, 670365, 670965, 671565, 672165, 672765, 673366, 673922, 674533, 675141, 675726, 676330, 676957, 677526, 678154, 678723, 679342, 679926, 680570, 681131, 681737, 682330, 682936]",49,L,ITM,1.1,
5,400,trial,0,29,29,29,trial,"['S', 'S', 'S', 'S', 'S', 'S', 'C', 'C', 'C', 'C', 'C', 'C', 'C', 'C', 'C', 'C', 'C', 'C', 'C', 'C', 'C', 'C']","[689154, 689446, 689826, 690181, 690598, 691004, 691416, 691837, 692220, 692622, 693037, 693402, 693820, 694187, 694589, 695005, 695387, 695759, 696160, 696535, 696947, 697291]","[689200, 689506, 689885, 690256, 690655, 691073, 691485, 691899, 692305, 692684, 693085, 693490, 693882, 694257, 694653, 695061, 695472, 695829, 696218, 696608, 696974, 697378]","[688273, 688672, 689073, 689472, 689872, 690272, 690672, 691073, 691442, 691863, 692246, 692647, 693062, 693429, 693846, 694212, 694615, 695030, 695412, 695785, 696186, 696560, 696974, 697317]",49,L,ITM,1.1,
6,400,trial,0,30,30,30,trial,"['S', 'S', 'S', 'S', 'S', 'S', 'C', 'C', 'C', 'C', 'C', 'C', 'C', 'C', 'C', 'C', 'C', 'C', 'C', 'C', 'C', 'C']","[710420, 710764, 711152, 711532, 711950, 712349, 712773, 713166, 713619, 714013, 714452, 714865, 715265, 715664, 716122, 716520, 716954, 717352, 717785, 718175, 718587, 719006]","[710491, 710825, 711215, 711609, 712009, 712415, 712842, 713252, 713675, 714078, 714509, 714933, 715340, 715742, 716188, 716593, 717022, 717420, 717838, 718242, 718667, 719067]","[709584, 709983, 710383, 710784, 711183, 711583, 711984, 712383, 712800, 713193, 713646, 714040, 714479, 714892, 715291, 715692, 716148, 716547, 716981, 717379, 717812, 718201, 718615, 719033]",49,L,ITM,1.1,
3,400,trial,0,31,31,31,trial,"['S', 'S', 'S', 'S', 'S', 'S', 'C', 'C', 'C', 'C', 'C', 'C', 'C', 'C', 'C', 'C', 'C', 'C', 'C', 'C', 'C', 'C']","[725079, 725485, 725873, 726288, 726706, 727127, 727519, 727886, 728278, 728663, 729085, 729491, 729892, 730279, 730665, 731042, 731478, 731867, 732301, 732681, 733111, 733524]","[725145, 725550, 725951, 726369, 726786, 727200, 727581, 727969, 728357, 728759, 729156, 729572, 729977, 730363, 730727, 731129, 731551, 731970, 732366, 732761, 733191, 733579]","[724337, 724738, 725137, 725537, 725938, 726338, 726738, 727138, 727544, 727912, 728303, 728688, 729111, 729517, 729919, 730305, 730691, 731068, 731503, 731893, 732326, 732706, 733136, 733550]",49,L,ITM,1.1,
3,400,trial,0,32,32,32,trial,"['S', 'S', 'S', 'S', 'S', 'S', 'C', 'C', 'C', 'C', 'C', 'C', 'C', 'C', 'C', 'C', 'C', 'C', 'C', 'C', 'C', 'C']","[739895, 740269, 740662, 741054, 741469, 741858, 742234, 742657, 743034, 743439, 743848, 744252, 744637, 745027, 745442, 745859, 746228, 746627, 747016, 747462, 747797, 748241]","[739951, 740332, 740725, 741132, 741544, 741933, 742298, 742725, 743119, 743513, 743920, 744337, 744711, 745097, 745508, 745920, 746308, 746695, 747095, 747515, 747881, 748301]","[739104, 739505, 739904, 740304, 740704, 741104, 741505, 741904, 742259, 742682, 743060, 743464, 743874, 744278, 744663, 745053, 745467, 745884, 746255, 746652, 747041, 747488, 747823, 748267]",49,L,ITM,1.1,
2,400,trial,0,33,33,33,trial,"['S', 'S', 'S', 'S', 'S', 'C', 'C', 'C', 'C', 'C', 'C', 'C', 'C', 'C', 'C', 'C', 'C', 'C', 'C', 'C', 'C']","[755212, 755641, 756044, 756447, 756844, 757254, 757643, 758043, 758428, 758836, 759248, 759602, 760014, 760401, 760821, 761212, 761588, 762002, 762372, 762778, 763148]","[755272, 755694, 756117, 756517, 756922, 757320, 757719, 758130, 758503, 758908, 759324, 759701, 760100, 760473, 760899, 761296, 761664, 762045, 762469, 762870, 763234]","[754057, 754456, 754857, 755257, 755657, 756058, 756457, 756857, 757281, 757669, 758070, 758455, 758863, 759275, 759629, 760041, 760428, 760848, 761240, 761616, 762029, 762398, 762806, 763175]",49,L,ITM,1.1,
4,600,trial,0,34,34,34,trial,"['S', 'S', 'S', 'S', 'S', 'S', 'C', 'C', 'C', 'C', 'C', 'C', 'C', 'C', 'C', 'C', 'C', 'C', 'C', 'C', 'C', 'C']","[770049, 770632, 771255, 771854, 772487, 773128, 773679, 774270, 774875, 775482, 776084, 776694, 777294, 777935, 778561, 779163, 779747, 780358, 780951, 781539, 782160, 782744]","[770115, 770717, 771331, 771934, 772571, 773210, 773766, 774361, 774941, 775555, 776153, 776778, 777379, 778010, 778639, 779233, 779816, 780413, 781028, 781624, 782242, 782830]","[768915, 769515, 770115, 770715, 771315, 771915, 772515, 773115, 773704, 774297, 774900, 775507, 776110, 776720, 777320, 777961, 778587, 779189, 779772, 780384, 780977, 781564, 782186, 782770]",49,L,ITM,1.1,
6,400,trial,0,35,35,35,trial,"['S', 'S', 'S', 'S', 'S', 'S', 'C', 'C', 'C', 'C', 'C', 'C', 'C', 'C', 'C', 'C', 'C', 'C', 'C', 'C', 'C', 'C']","[788977, 789372, 789767, 790177, 790590, 791002, 791427, 791841, 792247, 792653, 793095, 793515, 793919, 794342, 794775, 795187, 795623, 796034, 796474, 796912, 797316, 797731]","[789044, 789436, 789836, 790249, 790668, 791058, 791471, 791915, 792309, 792730, 793160, 793582, 793990, 794419, 794838, 795256, 795708, 796137, 796549, 796987, 797394, 797819]","[788201, 788600, 789000, 789400, 789800, 790200, 790600, 791001, 791453, 791868, 792273, 792680, 793121, 793541, 793947, 794369, 794802, 795213, 795650, 796060, 796502, 796940, 797343, 797758]",49,L,ITM,1.1,
3,600,trial,0,36,36,36,trial,"['S', 'S', 'S', 'S', 'S', 'S', 'C', 'C', 'C', 'C', 'C', 'C', 'C', 'C', 'C', 'C', 'C', 'C', 'C', 'C', 'C', 'C']","[804588, 805143, 805797, 806413, 806996, 807586, 808205, 808844, 809445, 810041, 810640, 811236, 811867, 812452, 813062, 813684, 814268, 814851, 815448, 816038, 816681, 817258]","[804647, 805211, 805858, 806476, 807078, 807672, 808285, 808901, 809522, 810118, 810715, 811311, 811944, 812530, 813135, 813751, 814345, 814921, 815523, 816117, 816751, 817329]","[803447, 804047, 804647, 805248, 805848, 806448, 807047, 807647, 808231, 808869, 809470, 810066, 810665, 811261, 811892, 812478, 813087, 813710, 814294, 814876, 815474, 816064, 816707, 817284]",49,L,ITM,1.1,
3,600,trial,0,37,37,37,trial,"['S', 'S', 'S', 'S', 'S', 'S', 'C', 'C', 'C', 'C', 'C', 'C', 'C', 'C', 'C', 'C', 'C', 'C', 'C', 'C', 'C', 'C']","[823932, 824529, 825079, 825707, 826338, 826986, 827546, 828192, 828797, 829419, 830001, 830581, 831176, 831782, 832379, 832985, 833611, 834225, 834821, 835408, 836056, 836655]","[824028, 824631, 825190, 825814, 826437, 827081, 827670, 828319, 828921, 829523, 830133, 830683, 831276, 831887, 832473, 833100, 833687, 834294, 834894, 835478, 836129, 836741]","[822787, 823387, 823986, 824586, 825186, 825786, 826386, 826986, 827572, 828218, 828823, 829445, 830026, 830607, 831202, 831808, 832405, 833010, 833637, 834250, 834846, 835434, 836082, 836680]",49,L,ITM,1.1,
4,600,trial,0,38,38,38,trial,"['S', 'S', 'S', 'S', 'S', 'S', 'C', 'C', 'C', 'C', 'C', 'C', 'C', 'C', 'C', 'C', 'C', 'C', 'C', 'C', 'C', 'C']","[843479, 844061, 844645, 845316, 845870, 846459, 847043, 847633, 848240, 848799, 849383, 850004, 850624, 851210, 851792, 852374, 852929, 853548, 854133, 854739, 855356, 855963]","[843553, 844146, 844725, 845379, 845962, 846553, 847129, 847718, 848327, 848877, 849490, 850105, 850721, 851307, 851893, 852464, 853056, 853691, 854306, 854887, 855502, 856094]","[842361, 842961, 843561, 844162, 844762, 845362, 845962, 846562, 847070, 847659, 848267, 848825, 849409, 850030, 850651, 851235, 851819, 852400, 852955, 853573, 854159, 854765, 855382, 855989]",49,L,ITM,1.1,
7,400,trial,0,39,39,39,trial,"['S', 'S', 'S', 'S', 'S', 'S', 'C', 'C', 'C', 'C', 'C', 'C', 'C', 'C', 'C', 'C', 'C', 'C', 'C', 'C', 'C', 'C']","[862602, 862935, 863352, 863766, 864141, 864543, 864951, 865386, 865751, 866151, 866552, 866931, 867365, 867743, 868147, 868557, 868946, 869339, 869713, 870154, 870535, 870934]","[862654, 863023, 863420, 863821, 864215, 864618, 865029, 865462, 865837, 866227, 866622, 867026, 867432, 867826, 868214, 868645, 869035, 869409, 869792, 870220, 870598, 871003]","[861767, 862167, 862566, 862966, 863367, 863766, 864166, 864566, 864977, 865413, 865777, 866178, 866579, 866959, 867393, 867770, 868173, 868585, 868973, 869366, 869741, 870180, 870561, 870961]",49,L,ITM,1.1,
7,600,trial,0,40,40,40,trial,"['S', 'S', 'S', 'S', 'S', 'S', 'S', 'C', 'C', 'C', 'C', 'C', 'C', 'C', 'C', 'C', 'C', 'C', 'C', 'C', 'C', 'C', 'C']","[877108, 877536, 878174, 878744, 879298, 879885, 880483, 881082, 881679, 882255, 882829, 883432, 884046, 884641, 885230, 885859, 886471, 887051, 887652, 888258, 888838, 889449, 890029]","[877174, 877621, 878243, 878809, 879382, 879972, 880572, 881168, 881742, 882333, 882891, 883510, 884123, 884716, 885316, 885946, 886562, 887128, 887731, 888342, 888925, 889518, 890099]","[876337, 876936, 877536, 878136, 878736, 879336, 879936, 880536, 881108, 881707, 882283, 882856, 883460, 884073, 884669, 885258, 885885, 886498, 887077, 887680, 888286, 888864, 889476, 890055]",49,L,ITM,1.1,
5,600,trial,0,41,41,41,trial,"['S', 'S', 'S', 'S', 'S', 'S', 'C', 'C', 'C', 'C', 'C', 'C', 'C', 'C', 'C', 'C', 'C', 'C', 'C', 'C', 'C', 'C']","[896558, 897158, 897777, 898421, 899018, 899624, 900227, 900865, 901494, 902112, 902689, 903280, 903915, 904537, 905134, 905773, 906384, 906963, 907572, 908179, 908749, 909412]","[896637, 897258, 897876, 898515, 899101, 899733, 900316, 900973, 901598, 902200, 902777, 903368, 904011, 904640, 905234, 905875, 906498, 907067, 907671, 908264, 908854, 909505]","[895453, 896051, 896651, 897251, 897851, 898451, 899051, 899651, 900253, 900891, 901520, 902138, 902715, 903306, 903941, 904562, 905159, 905798, 906409, 906989, 907597, 908205, 908775, 909437]",49,L,ITM,1.1,
5,400,trial,0,42,42,42,trial,"['S', 'S', 'S', 'S', 'S', 'S', 'S', 'C', 'C', 'C', 'C', 'C', 'C', 'C', 'C', 'C', 'C', 'C', 'C', 'C', 'C', 'C', 'C']","[916905, 917244, 917549, 917944, 918348, 918773, 919184, 919577, 919996, 920404, 920809, 921208, 921615, 922007, 922432, 922807, 923241, 923649, 924042, 924495, 924878, 925255, 925680]","[917001, 917311, 917633, 918034, 918446, 918862, 919262, 919663, 920081, 920487, 920891, 921300, 921700, 922110, 922513, 922887, 923323, 923740, 924131, 924580, 924959, 925333, 925761]","[916429, 916829, 917229, 917629, 918029, 918429, 918830, 919229, 919603, 920022, 920431, 920835, 921235, 921640, 922034, 922459, 922832, 923267, 923675, 924067, 924521, 924904, 925282, 925707]",49,L,ITM,1.1,
2,600,trial,0,43,43,43,trial,"['S', 'S', 'S', 'S', 'S', 'S', 'S', 'C', 'C', 'C', 'C', 'C', 'C', 'C', 'C', 'C', 'C', 'C', 'C', 'C', 'C', 'C', 'C']","[931886, 932643, 933243, 933834, 934456, 935040, 935625, 936187, 936809, 937411, 937997, 938591, 939185, 939796, 940400, 941006, 941624, 942245, 942837, 943460, 944041, 944694, 945316]","[931978, 932725, 933323, 933915, 934537, 935120, 935683, 936265, 936868, 937472, 938060, 938655, 939252, 939862, 940487, 941081, 941706, 942313, 942906, 943525, 944133, 944791, 945403]","[931480, 932079, 932680, 933279, 933880, 934479, 935080, 935680, 936215, 936837, 937438, 938024, 938618, 939212, 939823, 940428, 941034, 941650, 942273, 942865, 943488, 944069, 944720, 945344]",49,L,ITM,1.1,
7,600,trial,0,44,44,44,trial,"['S', 'S', 'S', 'S', 'S', 'S', 'S', 'C', 'C', 'C', 'C', 'C', 'C', 'C', 'C', 'C', 'C', 'C', 'C', 'C', 'C', 'C', 'C']","[951536, 952232, 952862, 953501, 954078, 954704, 955290, 955878, 956438, 957047, 957659, 958211, 958871, 959467, 960081, 960647, 961293, 961922, 962502, 963155, 963776, 964373, 964980]","[951617, 952306, 952950, 953562, 954156, 954790, 955377, 955972, 956532, 957145, 957735, 958305, 958960, 959558, 960179, 960729, 961373, 962015, 962606, 963227, 963854, 964452, 965056]","[951102, 951701, 952301, 952901, 953501, 954101, 954701, 955301, 955905, 956466, 957074, 957685, 958238, 958898, 959494, 960108, 960673, 961320, 961948, 962529, 963183, 963803, 964400, 965008]",49,L,ITM,1.1,
6,600,trial,0,45,45,45,trial,"['S', 'S', 'S', 'S', 'S', 'S', 'C', 'C', 'C', 'C', 'C', 'C', 'C', 'C', 'C', 'C', 'C', 'C', 'C', 'C', 'C', 'C']","[971768, 972342, 972914, 973524, 974106, 974713, 975310, 975923, 976553, 977155, 977765, 978390, 979026, 979619, 980253, 980870, 981512, 982149, 982740, 983385, 984043, 984690]","[971832, 972412, 972982, 973595, 974194, 974795, 975399, 976003, 976635, 977251, 977857, 978483, 979126, 979715, 980341, 980950, 981605, 982233, 982830, 983475, 984121, 984753]","[970568, 971168, 971768, 972368, 972968, 973569, 974169, 974769, 975337, 975949, 976579, 977182, 977792, 978416, 979054, 979646, 980280, 980896, 981538, 982176, 982767, 983412, 984070, 984718]",49,L,ITM,1.1,
7,400,trial,0,46,46,46,trial,"['S', 'S', 'S', 'S', 'S', 'C', 'C', 'C', 'C', 'C', 'C', 'C', 'C', 'C', 'C', 'C', 'C', 'C', 'C', 'C', 'C']","[991502, 991928, 992328, 992727, 993130, 993542, 993940, 994335, 994724, 995124, 995508, 995900, 996273, 996682, 997062, 997464, 997831, 998237, 998623, 998998, 999405]","[991569, 991996, 992405, 992814, 993206, 993616, 994011, 994405, 994803, 995205, 995575, 995976, 996355, 996752, 997139, 997539, 997899, 998300, 998691, 999084, 999464]","[990406, 990806, 991205, 991605, 992006, 992405, 992805, 993205, 993569, 993968, 994362, 994751, 995150, 995534, 995927, 996300, 996710, 997090, 997491, 997858, 998263, 998649, 999024, 999432]",49,L,ITM,1.1,
4,400,trial,0,47,47,47,trial,"['S', 'S', 'S', 'S', 'S', 'S', 'C', 'C', 'C', 'C', 'C', 'C', 'C', 'C', 'C', 'C', 'C', 'C', 'C', 'C', 'C', 'C']","[1005719, 1006107, 1006512, 1006931, 1007349, 1007754, 1008160, 1008538, 1008907, 1009295, 1009694, 1010063, 1010457, 1010814, 1011227, 1011613, 1011997, 1012378, 1012767, 1013125, 1013515, 1013880]","[1005808, 1006190, 1006587, 1007017, 1007424, 1007819, 1008247, 1008624, 1008998, 1009380, 1009774, 1010149, 1010527, 1010917, 1011296, 1011680, 1012084, 1012454, 1012820, 1013204, 1013574, 1013949]","[1004987, 1005387, 1005788, 1006187, 1006587, 1006987, 1007387, 1007788, 1008187, 1008564, 1008932, 1009320, 1009720, 1010088, 1010483, 1010840, 1011253, 1011639, 1012023, 1012405, 1012793, 1013150, 1013540, 1013906]",49,L,ITM,1.1,
5,400,trial,0,48,48,48,trial,"['S', 'S', 'S', 'S', 'S', 'S', 'C', 'C', 'C', 'C', 'C', 'C', 'C', 'C', 'C', 'C', 'C', 'C', 'C', 'C', 'C', 'C']","[1020199, 1020589, 1020996, 1021401, 1021779, 1022178, 1022612, 1022999, 1023367, 1023775, 1024144, 1024541, 1024933, 1025316, 1025688, 1026103, 1026514, 1026868, 1027250, 1027705, 1028079, 1028472]","[1020282, 1020662, 1021073, 1021475, 1021865, 1022266, 1022693, 1023084, 1023457, 1023850, 1024226, 1024626, 1025018, 1025401, 1025759, 1026178, 1026593, 1026935, 1027320, 1027772, 1028155, 1028530]","[1019457, 1019856, 1020256, 1020656, 1021057, 1021456, 1021856, 1022257, 1022638, 1023025, 1023392, 1023801, 1024169, 1024568, 1024959, 1025343, 1025714, 1026128, 1026540, 1026893, 1027276, 1027732, 1028105, 1028498]",49,L,ITM,1.1,
5,600,trial,0,49,49,49,trial,"['S', 'S', 'S', 'S', 'S', 'S', 'C', 'C', 'C', 'C', 'C', 'C', 'C', 'C', 'C', 'C', 'C', 'C', 'C', 'C', 'C', 'C']","[1035314, 1035928, 1036518, 1037110, 1037742, 1038367, 1038929, 1039489, 1040116, 1040732, 1041359, 1041976, 1042575, 1043201, 1043777, 1044405, 1044994, 1045664, 1046252, 1046878, 1047516, 1048135]","[1035398, 1035997, 1036593, 1037190, 1037825, 1038440, 1038997, 1039583, 1040186, 1040800, 1041423, 1042041, 1042650, 1043270, 1043865, 1044483, 1045076, 1045730, 1046323, 1046950, 1047589, 1048195]","[1034156, 1034755, 1035355, 1035954, 1036554, 1037154, 1037754, 1038354, 1038955, 1039514, 1040142, 1040758, 1041385, 1042001, 1042600, 1043226, 1043804, 1044431, 1045019, 1045690, 1046278, 1046903, 1047541, 1048161]",49,L,ITM,1.1,
4,400,trial,0,50,50,50,trial,"['S', 'S', 'S', 'S', 'S', 'S', 'C', 'C', 'C', 'C', 'C', 'C', 'C', 'C', 'C', 'C', 'C', 'C', 'C', 'C', 'C', 'C']","[1054353, 1054716, 1055109, 1055515, 1055909, 1056320, 1056737, 1057148, 1057575, 1057991, 1058387, 1058782, 1059224, 1059611, 1060056, 1060455, 1060866, 1061299, 1061709, 1062136, 1062537, 1062946]","[1054431, 1054795, 1055190, 1055597, 1055986, 1056404, 1056808, 1057230, 1057652, 1058072, 1058469, 1058861, 1059315, 1059724, 1060114, 1060529, 1060962, 1061377, 1061792, 1062226, 1062638, 1063043]","[1053580, 1053979, 1054380, 1054779, 1055179, 1055580, 1055979, 1056379, 1056763, 1057174, 1057601, 1058017, 1058413, 1058807, 1059250, 1059637, 1060082, 1060481, 1060892, 1061324, 1061736, 1062162, 1062562, 1062972]",49,L,ITM,1.1,
2,400,trial,0,51,51,51,trial,"['S', 'S', 'S', 'S', 'S', 'S', 'C', 'C', 'C', 'C', 'C', 'C', 'C', 'C', 'C', 'C', 'C', 'C', 'C', 'C', 'C', 'C']","[1069127, 1069528, 1069887, 1070276, 1070728, 1071104, 1071513, 1071925, 1072327, 1072759, 1073181, 1073553, 1073965, 1074369, 1074762, 1075152, 1075562, 1075981, 1076365, 1076748, 1077160, 1077555]","[1069209, 1069598, 1069962, 1070351, 1070791, 1071183, 1071579, 1071997, 1072403, 1072826, 1073233, 1073638, 1074020, 1074439, 1074837, 1075221, 1075635, 1076062, 1076452, 1076853, 1077232, 1077621]","[1068327, 1068727, 1069127, 1069527, 1069927, 1070326, 1070727, 1071127, 1071541, 1071951, 1072355, 1072787, 1073209, 1073581, 1073992, 1074397, 1074789, 1075179, 1075590, 1076007, 1076392, 1076774, 1077188, 1077582]",49,L,ITM,1.1,
2,600,trial,0,52,52,52,trial,"['S', 'S', 'S', 'S', 'S', 'S', 'C', 'C', 'C', 'C', 'C', 'C', 'C', 'C', 'C', 'C', 'C', 'C', 'C', 'C', 'C', 'C']","[1084497, 1085083, 1085696, 1086283, 1086893, 1087468, 1088065, 1088642, 1089217, 1089825, 1090388, 1090966, 1091587, 1092185, 1092777, 1093368, 1093968, 1094600, 1095186, 1095777, 1096377, 1097006]","[1084585, 1085163, 1085798, 1086373, 1086972, 1087552, 1088162, 1088732, 1089309, 1089915, 1090478, 1091059, 1091677, 1092272, 1092862, 1093450, 1094067, 1094679, 1095268, 1095876, 1096472, 1097079]","[1083313, 1083913, 1084513, 1085113, 1085712, 1086313, 1086912, 1087513, 1088092, 1088669, 1089245, 1089852, 1090416, 1090993, 1091614, 1092211, 1092803, 1093395, 1093996, 1094628, 1095213, 1095803, 1096404, 1097032]",49,L,ITM,1.1,
6,600,trial,0,53,53,53,trial,"['S', 'S', 'S', 'S', 'S', 'S', 'C', 'C', 'C', 'C', 'C', 'C', 'C', 'C', 'C', 'C', 'C', 'C', 'C', 'C', 'C', 'C']","[1103540, 1104145, 1104796, 1105364, 1105953, 1106541, 1107141, 1107784, 1108358, 1108952, 1109516, 1110109, 1110702, 1111270, 1111857, 1112460, 1113075, 1113658, 1114242, 1114869, 1115470, 1116062]","[1103717, 1104331, 1104908, 1105482, 1106078, 1106667, 1107253, 1107895, 1108492, 1109087, 1109664, 1110224, 1110810, 1111372, 1111975, 1112569, 1113184, 1113764, 1114363, 1114991, 1115608, 1116173]","[1102365, 1102964, 1103564, 1104164, 1104764, 1105364, 1105965, 1106565, 1107168, 1107811, 1108385, 1108978, 1109542, 1110135, 1110728, 1111297, 1111884, 1112486, 1113102, 1113686, 1114268, 1114896, 1115498, 1116090]",49,L,ITM,1.1,
6,400,trial,0,54,54,54,trial,"['S', 'S', 'S', 'S', 'S', 'S', 'S', 'C', 'C', 'C', 'C', 'C', 'C', 'C', 'C', 'C', 'C', 'C', 'C', 'C', 'C', 'C', 'C']","[1123591, 1123898, 1124250, 1124638, 1125029, 1125438, 1125834, 1126242, 1126626, 1127009, 1127429, 1127817, 1128223, 1128632, 1129037, 1129431, 1129830, 1130229, 1130620, 1131037, 1131438, 1131846, 1132260]","[1123664, 1123976, 1124333, 1124727, 1125115, 1125526, 1125926, 1126312, 1126709, 1127093, 1127515, 1127897, 1128300, 1128702, 1129101, 1129491, 1129904, 1130292, 1130700, 1131113, 1131512, 1131918, 1132332]","[1123109, 1123508, 1123908, 1124308, 1124708, 1125108, 1125509, 1125908, 1126268, 1126653, 1127036, 1127455, 1127843, 1128250, 1128658, 1129065, 1129458, 1129857, 1130257, 1130648, 1131065, 1131465, 1131874, 1132288]",49,L,ITM,1.1,
2,400,trial,0,55,55,55,trial,"['S', 'S', 'S', 'S', 'S', 'S', 'C', 'C', 'C', 'C', 'C', 'C', 'C', 'C', 'C', 'C', 'C', 'C', 'C', 'C', 'C', 'C']","[1138754, 1139189, 1139614, 1140025, 1140419, 1140817, 1141195, 1141593, 1142033, 1142401, 1142821, 1143186, 1143629, 1144030, 1144465, 1144855, 1145268, 1145669, 1146076, 1146473, 1146861, 1147253]","[1138846, 1139274, 1139704, 1140107, 1140495, 1140909, 1141284, 1141684, 1142112, 1142496, 1142888, 1143286, 1143700, 1144120, 1144546, 1144937, 1145348, 1145750, 1146157, 1146548, 1146948, 1147348]","[1138046, 1138445, 1138846, 1139246, 1139646, 1140045, 1140447, 1140846, 1141222, 1141620, 1142060, 1142427, 1142848, 1143213, 1143657, 1144056, 1144493, 1144882, 1145295, 1145696, 1146102, 1146500, 1146888, 1147281]",49,L,ITM,1.1,
7,400,trial,0,56,56,56,trial,"['S', 'S', 'S', 'S', 'S', 'C', 'C', 'C', 'C', 'C', 'C', 'C', 'C', 'C', 'C', 'C', 'C', 'C', 'C', 'C', 'C']","[1153935, 1154326, 1154725, 1155133, 1155555, 1155964, 1156341, 1156749, 1157152, 1157541, 1157963, 1158352, 1158737, 1159175, 1159508, 1159929, 1160372, 1160763, 1161176, 1161601, 1162006]","[1154026, 1154417, 1154816, 1155231, 1155638, 1156045, 1156427, 1156830, 1157228, 1157636, 1158059, 1158438, 1158821, 1159240, 1159595, 1160015, 1160453, 1160833, 1161267, 1161692, 1162084]","[1152779, 1153178, 1153579, 1153978, 1154378, 1154779, 1155178, 1155578, 1155991, 1156368, 1156776, 1157179, 1157568, 1157991, 1158380, 1158765, 1159201, 1159536, 1159956, 1160399, 1160790, 1161203, 1161627, 1162033]",49,L,ITM,1.1,
5,400,trial,0,57,57,57,trial,"['S', 'S', 'S', 'S', 'S', 'S', 'C', 'C', 'C', 'C', 'C', 'C', 'C', 'C', 'C', 'C', 'C', 'C', 'C', 'C', 'C', 'C']","[1168503, 1168889, 1169277, 1169675, 1170089, 1170469, 1170865, 1171261, 1171658, 1172079, 1172438, 1172855, 1173257, 1173668, 1174050, 1174454, 1174864, 1175267, 1175690, 1176073, 1176492, 1176930]","[1168590, 1168971, 1169374, 1169760, 1170181, 1170560, 1170953, 1171346, 1171746, 1172170, 1172528, 1172943, 1173349, 1173748, 1174137, 1174544, 1174942, 1175358, 1175770, 1176161, 1176565, 1177004]","[1167690, 1168090, 1168489, 1168889, 1169289, 1169689, 1170089, 1170489, 1170890, 1171287, 1171684, 1172106, 1172463, 1172881, 1173282, 1173694, 1174076, 1174479, 1174890, 1175293, 1175716, 1176098, 1176517, 1176955]",49,L,ITM,1.1,
4,400,trial,0,58,58,58,trial,"['S', 'S', 'S', 'S', 'S', 'S', 'C', 'C', 'C', 'C', 'C', 'C', 'C', 'C', 'C', 'C', 'C', 'C', 'C', 'C', 'C', 'C']","[1183165, 1183564, 1183975, 1184376, 1184778, 1185173, 1185568, 1185953, 1186361, 1186738, 1187168, 1187551, 1187952, 1188339, 1188733, 1189153, 1189526, 1189940, 1190337, 1190720, 1191103, 1191535]","[1183238, 1183642, 1184056, 1184463, 1184869, 1185261, 1185647, 1186046, 1186455, 1186836, 1187253, 1187645, 1188067, 1188442, 1188830, 1189264, 1189639, 1190033, 1190428, 1190812, 1191201, 1191626]","[1182414, 1182813, 1183213, 1183613, 1184013, 1184413, 1184814, 1185213, 1185594, 1185979, 1186386, 1186763, 1187193, 1187577, 1187978, 1188365, 1188759, 1189179, 1189552, 1189965, 1190364, 1190746, 1191129, 1191561]",49,L,ITM,1.1,
6,600,trial,0,59,59,59,trial,"['S', 'S', 'S', 'S', 'S', 'S', 'C', 'C', 'C', 'C', 'C', 'C', 'C', 'C', 'C', 'C', 'C', 'C', 'C', 'C', 'C', 'C']","[1198196, 1198774, 1199378, 1199982, 1200605, 1201202, 1201831, 1202434, 1203021, 1203585, 1204175, 1204753, 1205303, 1205910, 1206489, 1207053, 1207644, 1208203, 1208787, 1209351, 1209933, 1210534]","[1198284, 1198856, 1199465, 1200078, 1200693, 1201282, 1201906, 1202522, 1203119, 1203680, 1204279, 1204842, 1205410, 1205982, 1206593, 1207154, 1207734, 1208283, 1208857, 1209435, 1210025, 1210603]","[1197079, 1197678, 1198278, 1198878, 1199478, 1200078, 1200678, 1201278, 1201859, 1202461, 1203048, 1203611, 1204203, 1204780, 1205330, 1205938, 1206515, 1207080, 1207670, 1208229, 1208815, 1209377, 1209960, 1210561]",49,L,ITM,1.1,
3,400,trial,0,60,60,60,trial,"['S', 'S', 'S', 'S', 'S', 'S', 'C', 'C', 'C', 'C', 'C', 'C', 'C', 'C', 'C', 'C', 'C', 'C', 'C', 'C', 'C', 'C']","[1216826, 1217196, 1217576, 1217987, 1218385, 1218781, 1219189, 1219563, 1219979, 1220381, 1220776, 1221173, 1221553, 1221953, 1222333, 1222755, 1223110, 1223564, 1223937, 1224369, 1224726, 1225124]","[1216909, 1217282, 1217670, 1218078, 1218476, 1218879, 1219274, 1219661, 1220077, 1220489, 1220868, 1221271, 1221647, 1222041, 1222413, 1222833, 1223225, 1223618, 1224026, 1224441, 1224822, 1225205]","[1216036, 1216436, 1216836, 1217236, 1217636, 1218036, 1218437, 1218836, 1219215, 1219589, 1220004, 1220407, 1220802, 1221198, 1221578, 1221979, 1222359, 1222780, 1223136, 1223589, 1223962, 1224394, 1224752, 1225150]",49,L,ITM,1.1,
2,600,trial,0,61,61,61,trial,"['S', 'S', 'S', 'S', 'S', 'S', 'S', 'C', 'C', 'C', 'C', 'C', 'C', 'C', 'C', 'C', 'C', 'C', 'C', 'C', 'C', 'C', 'C']","[1231510, 1231875, 1232387, 1232945, 1233554, 1234155, 1234770, 1235349, 1235952, 1236577, 1237169, 1237733, 1238352, 1238940, 1239563, 1240159, 1240757, 1241379, 1241971, 1242532, 1243160, 1243758, 1244363]","[1231569, 1231967, 1232489, 1233039, 1233627, 1234239, 1234846, 1235441, 1236034, 1236659, 1237258, 1237815, 1238420, 1239022, 1239630, 1240260, 1240859, 1241485, 1242051, 1242637, 1243238, 1243845, 1244454]","[1230639, 1231239, 1231839, 1232439, 1233039, 1233639, 1234239, 1234838, 1235377, 1235980, 1236603, 1237195, 1237760, 1238379, 1238968, 1239590, 1240185, 1240784, 1241406, 1241998, 1242560, 1243187, 1243786, 1244390]",49,L,ITM,1.1,
6,600,trial,0,62,62,62,trial,"['S', 'S', 'S', 'S', 'S', 'S', 'S', 'C', 'C', 'C', 'C', 'C', 'C', 'C', 'C', 'C', 'C', 'C', 'C', 'C', 'C', 'C', 'C']","[1250132, 1250872, 1251466, 1252065, 1252636, 1253266, 1253848, 1254456, 1255077, 1255699, 1256306, 1256909, 1257504, 1258096, 1258708, 1259273, 1259910, 1260490, 1261110, 1261727, 1262332, 1262922, 1263557]","[1250248, 1250987, 1251629, 1252239, 1252795, 1253410, 1253998, 1254565, 1255169, 1255818, 1256418, 1257015, 1257614, 1258223, 1258820, 1259374, 1260015, 1260619, 1261216, 1261831, 1262471, 1263065, 1263682]","[1249727, 1250327, 1250927, 1251527, 1252127, 1252727, 1253327, 1253927, 1254482, 1255104, 1255727, 1256333, 1256937, 1257531, 1258124, 1258736, 1259299, 1259936, 1260518, 1261137, 1261754, 1262359, 1262949, 1263585]",49,L,ITM,1.1,
3,600,trial,0,63,63,63,trial,"['S', 'S', 'S', 'S', 'S', 'S', 'C', 'C', 'C', 'C', 'C', 'C', 'C', 'C', 'C', 'C', 'C', 'C', 'C', 'C', 'C', 'C']","[1270428, 1271013, 1271601, 1272207, 1272823, 1273412, 1274018, 1274663, 1275218, 1275810, 1276381, 1276951, 1277578, 1278200, 1278794, 1279404, 1280006, 1280618, 1281220, 1281817, 1282461, 1283036]","[1270578, 1271194, 1271769, 1272361, 1272938, 1273525, 1274138, 1274780, 1275338, 1275933, 1276485, 1277073, 1277716, 1278297, 1278906, 1279506, 1280120, 1280720, 1281333, 1281930, 1282554, 1283144]","[1269312, 1269912, 1270512, 1271112, 1271712, 1272312, 1272912, 1273512, 1274044, 1274689, 1275244, 1275836, 1276406, 1276977, 1277603, 1278226, 1278820, 1279429, 1280031, 1280644, 1281246, 1281843, 1282487, 1283061]",49,L,ITM,1.1,
5,400,trial,0,64,64,64,trial,"['S', 'S', 'S', 'S', 'S', 'C', 'C', 'C', 'C', 'C', 'C', 'C', 'C', 'C', 'C', 'C', 'C', 'C', 'C', 'C', 'C']","[1289594, 1289991, 1290382, 1290770, 1291173, 1291596, 1291966, 1292352, 1292756, 1293162, 1293540, 1293985, 1294322, 1294730, 1295106, 1295527, 1295903, 1296313, 1296671, 1297082, 1297485]","[1289683, 1290087, 1290476, 1290874, 1291287, 1291691, 1292057, 1292456, 1292854, 1293256, 1293645, 1294060, 1294432, 1294798, 1295191, 1295597, 1295990, 1296382, 1296762, 1297174, 1297575]","[1288456, 1288855, 1289255, 1289655, 1290055, 1290456, 1290855, 1291255, 1291623, 1291992, 1292378, 1292781, 1293188, 1293565, 1294011, 1294348, 1294755, 1295131, 1295553, 1295929, 1296338, 1296697, 1297107, 1297511]",49,L,ITM,1.1,
5,600,trial,0,65,65,65,trial,"['S', 'S', 'S', 'S', 'S', 'S', 'C', 'C', 'C', 'C', 'C', 'C', 'C', 'C', 'C', 'C', 'C', 'C', 'C', 'C', 'C', 'C']","[1304409, 1304982, 1305568, 1306169, 1306777, 1307394, 1307994, 1308590, 1309168, 1309784, 1310366, 1310967, 1311541, 1312168, 1312729, 1313330, 1313937, 1314491, 1315113, 1315696, 1316298, 1316894]","[1304532, 1305078, 1305662, 1306255, 1306889, 1307501, 1308098, 1308687, 1309262, 1309875, 1310465, 1311057, 1311632, 1312256, 1312828, 1313434, 1314035, 1314606, 1315219, 1315811, 1316379, 1316974]","[1303278, 1303878, 1304478, 1305078, 1305678, 1306278, 1306878, 1307479, 1308020, 1308616, 1309194, 1309809, 1310392, 1310993, 1311566, 1312194, 1312754, 1313355, 1313963, 1314516, 1315139, 1315722, 1316324, 1316920]",49,L,ITM,1.1,
4,400,trial,0,66,66,66,trial,"['S', 'S', 'S', 'S', 'S', 'S', 'C', 'C', 'C', 'C', 'C', 'C', 'C', 'C', 'C', 'C', 'C', 'C', 'C', 'C', 'C', 'C']","[1323118, 1323503, 1323887, 1324295, 1324684, 1325068, 1325443, 1325843, 1326230, 1326652, 1327038, 1327448, 1327874, 1328256, 1328650, 1329003, 1329437, 1329842, 1330208, 1330625, 1330989, 1331423]","[1323203, 1323577, 1323970, 1324384, 1324775, 1325155, 1325550, 1325930, 1326323, 1326734, 1327125, 1327535, 1327951, 1328352, 1328721, 1329111, 1329510, 1329935, 1330302, 1330709, 1331083, 1331493]","[1322337, 1322736, 1323137, 1323536, 1323936, 1324337, 1324736, 1325136, 1325468, 1325869, 1326256, 1326678, 1327064, 1327473, 1327899, 1328281, 1328676, 1329029, 1329463, 1329868, 1330234, 1330651, 1331014, 1331448]",49,L,ITM,1.1,
7,400,trial,0,67,67,67,trial,"['S', 'S', 'S', 'S', 'S', 'S', 'S', 'S', 'C', 'C', 'C', 'C', 'C', 'C', 'C', 'C', 'C', 'C', 'C', 'C', 'C', 'C', 'C', 'C']","[1337210, 1337448, 1337707, 1338090, 1338506, 1338915, 1339299, 1339718, 1340108, 1340524, 1340913, 1341303, 1341703, 1342108, 1342496, 1342877, 1343312, 1343720, 1344124, 1344534, 1344947, 1345342, 1345758, 1346157]","[1337277, 1337515, 1337803, 1338194, 1338611, 1339005, 1339405, 1339802, 1340204, 1340602, 1340999, 1341373, 1341794, 1342177, 1342582, 1342956, 1343373, 1343797, 1344215, 1344610, 1345028, 1345417, 1345837, 1346243]","[1336928, 1337327, 1337728, 1338127, 1338527, 1338928, 1339327, 1339727, 1340135, 1340552, 1340941, 1341331, 1341730, 1342135, 1342523, 1342904, 1343339, 1343748, 1344151, 1344561, 1344973, 1345370, 1345784, 1346185]",49,L,ITM,1.1,
3,400,trial,0,68,68,68,trial,"['S', 'S', 'S', 'S', 'S', 'S', 'C', 'C', 'C', 'C', 'C', 'C', 'C', 'C', 'C', 'C', 'C', 'C', 'C', 'C', 'C', 'C']","[1352438, 1352832, 1353227, 1353618, 1354048, 1354440, 1354864, 1355269, 1355665, 1356053, 1356449, 1356846, 1357242, 1357652, 1358066, 1358436, 1358860, 1359251, 1359684, 1360092, 1360491, 1360892]","[1352526, 1352918, 1353316, 1353709, 1354129, 1354532, 1354939, 1355351, 1355745, 1356132, 1356527, 1356928, 1357310, 1357730, 1358142, 1358527, 1358940, 1359347, 1359762, 1360178, 1360585, 1360975]","[1351665, 1352066, 1352465, 1352865, 1353266, 1353666, 1354066, 1354466, 1354890, 1355294, 1355691, 1356079, 1356475, 1356871, 1357267, 1357678, 1358092, 1358461, 1358885, 1359277, 1359710, 1360117, 1360517, 1360918]",49,L,ITM,1.1,
7,600,trial,0,69,69,69,trial,"['S', 'S', 'S', 'S', 'S', 'S', 'C', 'C', 'C', 'C', 'C', 'C', 'C', 'C', 'C', 'C', 'C', 'C', 'C', 'C', 'C', 'C']","[1367728, 1368284, 1368881, 1369491, 1370051, 1370670, 1371272, 1371865, 1372440, 1373024, 1373564, 1374172, 1374772, 1375387, 1375984, 1376581, 1377140, 1377735, 1378291, 1378878, 1379475, 1380082]","[1367834, 1368371, 1368973, 1369575, 1370140, 1370744, 1371359, 1371956, 1372531, 1373105, 1373662, 1374246, 1374852, 1375451, 1376031, 1376614, 1377189, 1377793, 1378365, 1378947, 1379530, 1380130]","[1366540, 1367139, 1367739, 1368339, 1368939, 1369539, 1370139, 1370739, 1371299, 1371892, 1372467, 1373050, 1373592, 1374199, 1374798, 1375414, 1376011, 1376609, 1377168, 1377762, 1378318, 1378905, 1379502, 1380109]",49,L,ITM,1.1,
2,600,trial,0,70,70,70,trial,"['S', 'S', 'S', 'S', 'S', 'S', 'S', 'C', 'C', 'C', 'C', 'C', 'C', 'C', 'C', 'C', 'C', 'C', 'C', 'C', 'C', 'C', 'C']","[1386179, 1386791, 1387351, 1387942, 1388552, 1389186, 1389782, 1390398, 1390976, 1391569, 1392172, 1392766, 1393379, 1393993, 1394610, 1395203, 1395849, 1396433, 1397050, 1397621, 1398226, 1398856, 1399457]","[1386274, 1386885, 1387435, 1388024, 1388635, 1389265, 1389869, 1390473, 1391040, 1391650, 1392253, 1392844, 1393448, 1394068, 1394685, 1395278, 1395917, 1396508, 1397116, 1397695, 1398288, 1398930, 1399530]","[1385634, 1386233, 1386834, 1387435, 1388035, 1388635, 1389235, 1389834, 1390426, 1391003, 1391596, 1392198, 1392792, 1393406, 1394021, 1394637, 1395230, 1395875, 1396460, 1397078, 1397648, 1398254, 1398883, 1399485]",49,L,ITM,1.1,
6,400,trial,0,71,71,71,trial,"['S', 'S', 'S', 'S', 'S', 'S', 'C', 'C', 'C', 'C', 'C', 'C', 'C', 'C', 'C', 'C', 'C', 'C', 'C', 'C', 'C', 'C']","[1405624, 1405972, 1406369, 1406751, 1407172, 1407562, 1407968, 1408361, 1408742, 1409137, 1409517, 1409898, 1410326, 1410685, 1411081, 1411469, 1411858, 1412210, 1412621, 1412987, 1413396, 1413774]","[1405697, 1406056, 1406445, 1406824, 1407240, 1407644, 1408043, 1408430, 1408821, 1409211, 1409593, 1409984, 1410394, 1410777, 1411159, 1411551, 1411945, 1412303, 1412707, 1413062, 1413477, 1413850]","[1404806, 1405204, 1405604, 1406004, 1406404, 1406804, 1407204, 1407604, 1407994, 1408388, 1408770, 1409164, 1409544, 1409925, 1410353, 1410713, 1411107, 1411495, 1411886, 1412237, 1412647, 1413014, 1413424, 1413800]",49,L,ITM,1.1,
4,600,trial,0,72,72,72,trial,"['S', 'S', 'S', 'S', 'S', 'S', 'C', 'C', 'C', 'C', 'C', 'C', 'C', 'C', 'C', 'C', 'C', 'C', 'C', 'C', 'C', 'C']","[1420570, 1421167, 1421753, 1422347, 1422947, 1423559, 1424159, 1424732, 1425291, 1425895, 1426476, 1427062, 1427657, 1428251, 1428842, 1429445, 1430025, 1430629, 1431222, 1431788, 1432412, 1432971]","[1420659, 1421259, 1421840, 1422432, 1423031, 1423641, 1424248, 1424820, 1425381, 1425963, 1426556, 1427135, 1427740, 1428329, 1428899, 1429528, 1430088, 1430690, 1431286, 1431869, 1432475, 1433042]","[1419458, 1420058, 1420658, 1421258, 1421858, 1422458, 1423058, 1423659, 1424185, 1424758, 1425317, 1425921, 1426501, 1427088, 1427683, 1428277, 1428868, 1429471, 1430050, 1430654, 1431247, 1431814, 1432437, 1432997]",49,L,ITM,1.1,
7,600,trial,0,73,73,73,trial,"['S', 'S', 'S', 'S', 'S', 'S', 'C', 'C', 'C', 'C', 'C', 'C', 'C', 'C', 'C', 'C', 'C', 'C', 'C', 'C', 'C', 'C']","[1439572, 1440151, 1440747, 1441364, 1442004, 1442613, 1443233, 1443816, 1444412, 1445024, 1445605, 1446196, 1446790, 1447415, 1447973, 1448593, 1449202, 1449803, 1450459, 1451058, 1451663, 1452271]","[1439721, 1440287, 1440857, 1441460, 1442107, 1442714, 1443335, 1443903, 1444514, 1445110, 1445689, 1446272, 1446876, 1447501, 1448067, 1448693, 1449283, 1449893, 1450521, 1451142, 1451758, 1452357]","[1438478, 1439077, 1439677, 1440277, 1440877, 1441477, 1442077, 1442677, 1443260, 1443843, 1444439, 1445051, 1445633, 1446223, 1446817, 1447443, 1448000, 1448620, 1449229, 1449830, 1450485, 1451084, 1451689, 1452298]",49,L,ITM,1.1,
4,600,trial,0,74,74,74,trial,"['S', 'S', 'S', 'S', 'S', 'S', 'S', 'C', 'C', 'C', 'C', 'C', 'C', 'C', 'C', 'C', 'C', 'C', 'C', 'C', 'C', 'C', 'C']","[1458427, 1459100, 1459691, 1460294, 1460872, 1461468, 1462068, 1462666, 1463268, 1463842, 1464444, 1465030, 1465617, 1466203, 1466777, 1467386, 1468022, 1468634, 1469257, 1469885, 1470448, 1471051, 1471671]","[1458530, 1459193, 1459788, 1460385, 1460967, 1461567, 1462148, 1462767, 1463354, 1463931, 1464538, 1465126, 1465709, 1466292, 1466880, 1467472, 1468105, 1468730, 1469349, 1469974, 1470546, 1471151, 1471755]","[1457968, 1458567, 1459167, 1459767, 1460367, 1460967, 1461567, 1462167, 1462691, 1463293, 1463868, 1464470, 1465056, 1465643, 1466228, 1466803, 1467412, 1468049, 1468659, 1469283, 1469912, 1470474, 1471078, 1471696]",49,L,ITM,1.1,
5,600,trial,0,75,75,75,trial,"['S', 'S', 'S', 'S', 'S', 'S', 'C', 'C', 'C', 'C', 'C', 'C', 'C', 'C', 'C', 'C', 'C', 'C', 'C', 'C', 'C', 'C']","[1478521, 1479131, 1479725, 1480323, 1480929, 1481547, 1482143, 1482774, 1483347, 1483960, 1484532, 1485116, 1485753, 1486342, 1486927, 1487536, 1488145, 1488753, 1489337, 1489948, 1490569, 1491188]","[1478601, 1479218, 1479806, 1480406, 1481015, 1481630, 1482220, 1482848, 1483419, 1484038, 1484611, 1485194, 1485827, 1486410, 1486992, 1487603, 1488216, 1488815, 1489402, 1490019, 1490619, 1491233]","[1477428, 1478027, 1478627, 1479227, 1479827, 1480427, 1481027, 1481627, 1482170, 1482800, 1483374, 1483985, 1484558, 1485142, 1485779, 1486367, 1486953, 1487561, 1488171, 1488779, 1489363, 1489974, 1490595, 1491214]",49,L,ITM,1.1,
3,600,trial,0,76,76,76,trial,"['S', 'S', 'S', 'S', 'S', 'S', 'C', 'C', 'C', 'C', 'C', 'C', 'C', 'C', 'C', 'C', 'C', 'C', 'C', 'C', 'C', 'C']","[1498032, 1498645, 1499223, 1499806, 1500413, 1501010, 1501605, 1502171, 1502787, 1503393, 1503990, 1504566, 1505148, 1505717, 1506297, 1506860, 1507489, 1508101, 1508662, 1509218, 1509817, 1510412]","[1498181, 1498807, 1499337, 1499901, 1500522, 1501107, 1501696, 1502265, 1502872, 1503481, 1504056, 1504627, 1505215, 1505782, 1506361, 1506924, 1507552, 1508155, 1508719, 1509292, 1509891, 1510473]","[1496901, 1497501, 1498101, 1498701, 1499301, 1499901, 1500502, 1501102, 1501631, 1502196, 1502813, 1503419, 1504016, 1504591, 1505174, 1505742, 1506323, 1506886, 1507515, 1508126, 1508687, 1509243, 1509842, 1510437]",49,L,ITM,1.1,
2,400,trial,0,77,77,77,trial,"['S', 'S', 'S', 'S', 'S', 'S', 'S', 'C', 'C', 'C', 'C', 'C', 'C', 'C', 'C', 'C', 'C', 'C', 'C', 'C', 'C', 'C', 'C']","[1516439, 1516732, 1517078, 1517452, 1517851, 1518253, 1518650, 1519076, 1519488, 1519867, 1520233, 1520652, 1521043, 1521453, 1521853, 1522232, 1522627, 1523000, 1523406, 1523792, 1524185, 1524548, 1524972]","[1516512, 1516807, 1517156, 1517527, 1517928, 1518339, 1518740, 1519147, 1519565, 1519947, 1520345, 1520721, 1521126, 1521539, 1521939, 1522321, 1522715, 1523094, 1523477, 1523868, 1524271, 1524640, 1525051]","[1515907, 1516305, 1516705, 1517107, 1517506, 1517906, 1518306, 1518706, 1519104, 1519515, 1519895, 1520261, 1520678, 1521070, 1521480, 1521880, 1522259, 1522654, 1523026, 1523434, 1523819, 1524211, 1524575, 1524999]",49,L,ITM,1.1,
4,400,trial,0,78,78,78,trial,"['S', 'S', 'S', 'S', 'S', 'S', 'S', 'C', 'C', 'C', 'C', 'C', 'C', 'C', 'C', 'C', 'C', 'C', 'C', 'C', 'C', 'C', 'C']","[1531016, 1531284, 1531646, 1532044, 1532390, 1532798, 1533196, 1533602, 1533989, 1534422, 1534807, 1535213, 1535638, 1536030, 1536436, 1536842, 1537266, 1537654, 1538087, 1538497, 1538896, 1539298, 1539685]","[1531082, 1531363, 1531745, 1532111, 1532493, 1532876, 1533281, 1533691, 1534090, 1534495, 1534892, 1535298, 1535724, 1536120, 1536532, 1536939, 1537368, 1537725, 1538174, 1538576, 1538976, 1539380, 1539789]","[1530469, 1530868, 1531269, 1531668, 1532068, 1532468, 1532868, 1533268, 1533628, 1534015, 1534447, 1534832, 1535239, 1535664, 1536056, 1536461, 1536868, 1537292, 1537680, 1538113, 1538523, 1538922, 1539323, 1539710]",49,L,ITM,1.1,
7,600,trial,0,79,79,79,trial,"['S', 'S', 'S', 'S', 'S', 'S', 'C', 'C', 'C', 'C', 'C', 'C', 'C', 'C', 'C', 'C', 'C', 'C', 'C', 'C', 'C', 'C']","[1546257, 1546855, 1547462, 1548079, 1548668, 1549282, 1549871, 1550459, 1551041, 1551634, 1552237, 1552835, 1553457, 1554014, 1554614, 1555227, 1555803, 1556439, 1557025, 1557637, 1558245, 1558830]","[1546350, 1546950, 1547557, 1548165, 1548751, 1549365, 1549959, 1550547, 1551138, 1551718, 1552301, 1552907, 1553539, 1554100, 1554704, 1555306, 1555892, 1556508, 1557115, 1557730, 1558322, 1558899]","[1545150, 1545750, 1546350, 1546950, 1547550, 1548150, 1548750, 1549350, 1549897, 1550487, 1551068, 1551662, 1552264, 1552863, 1553483, 1554040, 1554640, 1555255, 1555829, 1556466, 1557053, 1557664, 1558272, 1558856]",49,L,ITM,1.1,
3,400,trial,0,80,80,80,trial,"['S', 'S', 'S', 'S', 'S', 'S', 'S', 'C', 'C', 'C', 'C', 'C', 'C', 'C', 'C', 'C', 'C', 'C', 'C', 'C', 'C', 'C', 'C']","[1565056, 1565321, 1565706, 1566078, 1566477, 1566859, 1567264, 1567633, 1568040, 1568414, 1568802, 1569208, 1569584, 1569994, 1570384, 1570787, 1571196, 1571568, 1571959, 1572343, 1572773, 1573136, 1573544]","[1565129, 1565393, 1565779, 1566159, 1566563, 1566954, 1567354, 1567729, 1568124, 1568494, 1568883, 1569277, 1569678, 1570068, 1570481, 1570865, 1571271, 1571664, 1572039, 1572412, 1572847, 1573232, 1573625]","[1564530, 1564931, 1565330, 1565730, 1566130, 1566530, 1566930, 1567330, 1567659, 1568066, 1568441, 1568828, 1569233, 1569609, 1570021, 1570410, 1570812, 1571222, 1571594, 1571985, 1572369, 1572799, 1573161, 1573570]",49,L,ITM,1.1,
4,600,trial,0,81,81,81,trial,"['S', 'S', 'S', 'S', 'S', 'S', 'S', 'C', 'C', 'C', 'C', 'C', 'C', 'C', 'C', 'C', 'C', 'C', 'C', 'C', 'C', 'C', 'C']","[1579472, 1580224, 1580801, 1581432, 1582029, 1582621, 1583208, 1583792, 1584370, 1584991, 1585548, 1586140, 1586719, 1587321, 1587920, 1588518, 1589110, 1589714, 1590330, 1590918, 1591520, 1592076, 1592730]","[1579546, 1580326, 1580909, 1581527, 1582129, 1582709, 1583309, 1583876, 1584458, 1585073, 1585642, 1586212, 1586806, 1587402, 1588007, 1588595, 1589191, 1589787, 1590400, 1590992, 1591587, 1592152, 1592794]","[1579110, 1579709, 1580309, 1580909, 1581509, 1582109, 1582709, 1583309, 1583817, 1584396, 1585016, 1585573, 1586165, 1586745, 1587348, 1587946, 1588544, 1589136, 1589740, 1590355, 1590943, 1591545, 1592101, 1592756]",49,L,ITM,1.1,
7,600,trial,0,82,82,82,trial,"['S', 'S', 'S', 'S', 'S', 'S', 'C', 'C', 'C', 'C', 'C', 'C', 'C', 'C', 'C', 'C', 'C', 'C', 'C', 'C', 'C', 'C']","[1599524, 1600166, 1600714, 1601333, 1601928, 1602547, 1603138, 1603757, 1604360, 1604961, 1605555, 1606162, 1606754, 1607372, 1608005, 1608627, 1609196, 1609797, 1610412, 1611024, 1611644, 1612249]","[1599634, 1600256, 1600803, 1601430, 1602015, 1602635, 1603224, 1603843, 1604462, 1605044, 1605646, 1606242, 1606840, 1607455, 1608084, 1608713, 1609279, 1609884, 1610485, 1611106, 1611713, 1612323]","[1598385, 1598984, 1599584, 1600184, 1600784, 1601384, 1601984, 1602584, 1603166, 1603783, 1604387, 1604987, 1605581, 1606189, 1606780, 1607400, 1608032, 1608653, 1609223, 1609825, 1610438, 1611051, 1611672, 1612276]",49,L,ITM,1.1,
7,400,trial,0,83,83,83,trial,"['S', 'S', 'S', 'S', 'S', 'S', 'C', 'C', 'C', 'C', 'C', 'C', 'C', 'C', 'C', 'C', 'C', 'C', 'C', 'C', 'C', 'C']","[1618617, 1619043, 1619471, 1619914, 1620345, 1620715, 1621134, 1621514, 1621903, 1622268, 1622680, 1623067, 1623464, 1623826, 1624229, 1624617, 1625021, 1625393, 1625774, 1626146, 1626541, 1626943]","[1618690, 1619120, 1619543, 1619990, 1620420, 1620799, 1621210, 1621594, 1621990, 1622352, 1622747, 1623149, 1623544, 1623912, 1624298, 1624681, 1625097, 1625463, 1625849, 1626222, 1626611, 1627022]","[1617965, 1618363, 1618763, 1619164, 1619563, 1619963, 1620363, 1620763, 1621160, 1621540, 1621931, 1622295, 1622707, 1623094, 1623492, 1623854, 1624256, 1624645, 1625049, 1625419, 1625800, 1626174, 1626568, 1626971]",49,L,ITM,1.1,
5,600,trial,0,84,84,84,trial,"['S', 'S', 'S', 'S', 'S', 'S', 'S', 'C', 'C', 'C', 'C', 'C', 'C', 'C', 'C', 'C', 'C', 'C', 'C', 'C', 'C', 'C', 'C']","[1632840, 1633451, 1634022, 1634609, 1635217, 1635799, 1636423, 1637047, 1637664, 1638260, 1638867, 1639439, 1640037, 1640621, 1641211, 1641798, 1642406, 1642977, 1643582, 1644207, 1644839, 1645422, 1646041]","[1632903, 1633531, 1634098, 1634700, 1635295, 1635879, 1636508, 1637126, 1637739, 1638326, 1638926, 1639502, 1640098, 1640684, 1641280, 1641864, 1642473, 1643046, 1643656, 1644272, 1644904, 1645504, 1646103]","[1632327, 1632926, 1633526, 1634126, 1634726, 1635326, 1635927, 1636527, 1637072, 1637690, 1638286, 1638894, 1639464, 1640062, 1640646, 1641237, 1641825, 1642432, 1643002, 1643608, 1644232, 1644865, 1645448, 1646066]",49,L,ITM,1.1,
2,400,trial,0,85,85,85,trial,"['S', 'S', 'S', 'S', 'S', 'S', 'C', 'C', 'C', 'C', 'C', 'C', 'C', 'C', 'C', 'C', 'C', 'C', 'C', 'C', 'C', 'C']","[1652168, 1652577, 1652983, 1653380, 1653792, 1654180, 1654568, 1654983, 1655368, 1655805, 1656189, 1656587, 1656978, 1657377, 1657772, 1658183, 1658578, 1658977, 1659366, 1659784, 1660190, 1660605]","[1652249, 1652654, 1653054, 1653462, 1653871, 1654241, 1654646, 1655058, 1655445, 1655862, 1656276, 1656659, 1657054, 1657460, 1657853, 1658259, 1658660, 1659052, 1659453, 1659855, 1660271, 1660681]","[1651411, 1651810, 1652211, 1652612, 1653011, 1653411, 1653812, 1654211, 1654596, 1655011, 1655395, 1655833, 1656217, 1656614, 1657006, 1657405, 1657799, 1658211, 1658605, 1659004, 1659394, 1659810, 1660217, 1660632]",49,L,ITM,1.1,
3,400,trial,0,86,86,86,trial,"['S', 'S', 'S', 'S', 'C', 'C', 'C', 'C', 'C', 'C', 'C', 'C', 'C', 'C', 'C', 'C', 'C', 'C', 'C', 'C']","[1667853, 1668273, 1668674, 1669092, 1669510, 1669895, 1670258, 1670666, 1671058, 1671436, 1671848, 1672233, 1672641, 1673015, 1673389, 1673802, 1674177, 1674578, 1674966, 1675350]","[1667932, 1668349, 1668751, 1669175, 1669590, 1669965, 1670351, 1670745, 1671132, 1671519, 1671937, 1672312, 1672723, 1673097, 1673494, 1673875, 1674259, 1674658, 1675041, 1675448]","[1666342, 1666742, 1667142, 1667543, 1667942, 1668342, 1668743, 1669143, 1669535, 1669920, 1670284, 1670691, 1671084, 1671461, 1671874, 1672258, 1672667, 1673040, 1673414, 1673828, 1674203, 1674604, 1674991, 1675375]",49,L,ITM,1.1,
2,600,trial,0,87,87,87,trial,"['S', 'S', 'S', 'S', 'S', 'S', 'C', 'C', 'C', 'C', 'C', 'C', 'C', 'C', 'C', 'C', 'C', 'C', 'C', 'C', 'C', 'C']","[1681983, 1682592, 1683144, 1683749, 1684313, 1684923, 1685505, 1686100, 1686689, 1687246, 1687849, 1688469, 1689048, 1689659, 1690238, 1690840, 1691429, 1692015, 1692604, 1693182, 1693814, 1694407]","[1682073, 1682659, 1683221, 1683844, 1684396, 1684997, 1685592, 1686189, 1686773, 1687332, 1687921, 1688542, 1689136, 1689734, 1690322, 1690923, 1691497, 1692093, 1692688, 1693268, 1693889, 1694487]","[1680843, 1681443, 1682043, 1682643, 1683244, 1683844, 1684444, 1685044, 1685532, 1686127, 1686717, 1687274, 1687877, 1688497, 1689075, 1689687, 1690265, 1690867, 1691456, 1692042, 1692632, 1693210, 1693842, 1694435]",49,L,ITM,1.1,
2,400,trial,0,88,88,88,trial,"['S', 'S', 'S', 'S', 'S', 'S', 'S', 'C', 'C', 'C', 'C', 'C', 'C', 'C', 'C', 'C', 'C', 'C', 'C', 'C', 'C', 'C', 'C']","[1700588, 1700889, 1701255, 1701633, 1702025, 1702425, 1702848, 1703236, 1703643, 1704042, 1704448, 1704841, 1705240, 1705621, 1706019, 1706470, 1706858, 1707268, 1707657, 1708046, 1708478, 1708882, 1709287]","[1700656, 1700957, 1701319, 1701701, 1702103, 1702499, 1702933, 1703315, 1703724, 1704128, 1704523, 1704911, 1705327, 1705712, 1706103, 1706542, 1706937, 1707333, 1707719, 1708128, 1708554, 1708965, 1709349]","[1700089, 1700488, 1700889, 1701288, 1701689, 1702089, 1702490, 1702888, 1703264, 1703670, 1704069, 1704475, 1704868, 1705268, 1705649, 1706047, 1706498, 1706886, 1707294, 1707683, 1708073, 1708506, 1708909, 1709315]",49,L,ITM,1.1,
6,400,trial,0,89,89,89,trial,"['S', 'S', 'S', 'S', 'S', 'S', 'C', 'C', 'C', 'C', 'C', 'C', 'C', 'C', 'C', 'C', 'C', 'C', 'C', 'C', 'C', 'C']","[1715538, 1715909, 1716295, 1716689, 1717085, 1717480, 1717918, 1718335, 1718701, 1719138, 1719559, 1719991, 1720364, 1720773, 1721183, 1721640, 1722035, 1722438, 1722858, 1723281, 1723696, 1724111]","[1715625, 1715991, 1716370, 1716769, 1717163, 1717562, 1717988, 1718405, 1718794, 1719215, 1719628, 1720059, 1720440, 1720843, 1721245, 1721709, 1722102, 1722511, 1722925, 1723361, 1723780, 1724201]","[1714763, 1715163, 1715562, 1715962, 1716362, 1716762, 1717163, 1717562, 1717945, 1718362, 1718727, 1719165, 1719586, 1720018, 1720390, 1720801, 1721210, 1721667, 1722062, 1722466, 1722885, 1723309, 1723723, 1724139]",49,L,ITM,1.1,
3,600,trial,0,90,90,90,trial,"['S', 'S', 'S', 'S', 'S', 'S', 'C', 'C', 'C', 'C', 'C', 'C', 'C', 'C', 'C', 'C', 'C', 'C', 'C', 'C', 'C', 'C']","[1730714, 1731290, 1731876, 1732458, 1733033, 1733632, 1734242, 1734831, 1735355, 1735886, 1736487, 1737039, 1737636, 1738247, 1738831, 1739397, 1739980, 1740579, 1741161, 1741746, 1742355, 1742955]","[1730775, 1731356, 1731949, 1732534, 1733105, 1733692, 1734306, 1734906, 1735434, 1735971, 1736547, 1737109, 1737710, 1738309, 1738905, 1739461, 1740054, 1740641, 1741238, 1741827, 1742434, 1743019]","[1729564, 1730164, 1730764, 1731364, 1731964, 1732564, 1733165, 1733765, 1734267, 1734856, 1735380, 1735912, 1736513, 1737065, 1737662, 1738272, 1738857, 1739422, 1740006, 1740605, 1741187, 1741771, 1742381, 1742981]",49,L,ITM,1.1,
5,400,trial,0,91,91,91,trial,"['S', 'S', 'S', 'S', 'S', 'S', 'S', 'C', 'C', 'C', 'C', 'C', 'C', 'C', 'C', 'C', 'C', 'C', 'C', 'C', 'C', 'C', 'C']","[1749172, 1749476, 1749834, 1750219, 1750615, 1751015, 1751412, 1751820, 1752226, 1752650, 1753054, 1753420, 1753815, 1754219, 1754618, 1754988, 1755379, 1755758, 1756171, 1756549, 1756956, 1757330, 1757737]","[1749229, 1749554, 1749917, 1750294, 1750688, 1751094, 1751476, 1751876, 1752307, 1752721, 1753124, 1753496, 1753907, 1754296, 1754695, 1755058, 1755467, 1755849, 1756240, 1756627, 1757029, 1757419, 1757812]","[1748675, 1749075, 1749475, 1749875, 1750276, 1750675, 1751075, 1751475, 1751845, 1752253, 1752677, 1753079, 1753446, 1753840, 1754245, 1754645, 1755015, 1755405, 1755784, 1756196, 1756574, 1756982, 1757356, 1757763]",49,L,ITM,1.1,
6,600,trial,0,92,92,92,trial,"['S', 'S', 'S', 'S', 'S', 'S', 'S', 'C', 'C', 'C', 'C', 'C', 'C', 'C', 'C', 'C', 'C', 'C', 'C', 'C', 'C', 'C', 'C']","[1764147, 1764612, 1765235, 1765804, 1766384, 1767002, 1767567, 1768176, 1768730, 1769345, 1769919, 1770491, 1771070, 1771634, 1772214, 1772769, 1773347, 1773924, 1774502, 1775070, 1775661, 1776235, 1776784]","[1764214, 1764685, 1765321, 1765888, 1766465, 1767063, 1767639, 1768240, 1768801, 1769399, 1769977, 1770556, 1771131, 1771717, 1772284, 1772846, 1773420, 1773986, 1774569, 1775136, 1775728, 1776297, 1776858]","[1763486, 1764085, 1764685, 1765285, 1765885, 1766486, 1767086, 1767686, 1768204, 1768757, 1769371, 1769947, 1770518, 1771098, 1771661, 1772240, 1772796, 1773375, 1773950, 1774529, 1775096, 1775688, 1776262, 1776811]",49,L,ITM,1.1,
2,600,trial,0,93,93,93,trial,"['S', 'S', 'S', 'S', 'S', 'S', 'S', 'C', 'C', 'C', 'C', 'C', 'C', 'C', 'C', 'C', 'C', 'C', 'C', 'C', 'C', 'C', 'C']","[1783072, 1783693, 1784278, 1784895, 1785518, 1786105, 1786690, 1787308, 1787908, 1788506, 1789100, 1789672, 1790284, 1790863, 1791455, 1792051, 1792638, 1793256, 1793833, 1794424, 1795003, 1795644, 1796244]","[1783156, 1783764, 1784348, 1784975, 1785598, 1786203, 1786782, 1787392, 1788005, 1788588, 1789179, 1789772, 1790360, 1790944, 1791539, 1792116, 1792721, 1793321, 1793924, 1794502, 1795077, 1795722, 1796346]","[1782575, 1783175, 1783775, 1784375, 1784975, 1785575, 1786174, 1786775, 1787334, 1787934, 1788533, 1789127, 1789699, 1790312, 1790889, 1791481, 1792078, 1792665, 1793284, 1793859, 1794451, 1795030, 1795671, 1796272]",49,L,ITM,1.1,
6,600,trial,0,94,94,94,trial,"['S', 'S', 'S', 'S', 'S', 'S', 'C', 'C', 'C', 'C', 'C', 'C', 'C', 'C', 'C', 'C', 'C', 'C', 'C', 'C', 'C', 'C']","[1802831, 1803465, 1804046, 1804678, 1805260, 1805840, 1806444, 1807005, 1807606, 1808168, 1808758, 1809337, 1809897, 1810454, 1810988, 1811574, 1812190, 1812793, 1813339, 1813940, 1814538, 1815110]","[1802927, 1803560, 1804140, 1804761, 1805361, 1805923, 1806525, 1807095, 1807692, 1808280, 1808845, 1809425, 1809995, 1810560, 1811092, 1811685, 1812293, 1812888, 1813444, 1814049, 1814646, 1815215]","[1801761, 1802360, 1802960, 1803560, 1804161, 1804761, 1805361, 1805960, 1806472, 1807032, 1807633, 1808195, 1808786, 1809363, 1809924, 1810481, 1811014, 1811601, 1812217, 1812820, 1813365, 1813967, 1814564, 1815137]",49,L,ITM,1.1,
4,600,trial,0,95,95,95,trial,"['S', 'S', 'S', 'S', 'S', 'S', 'S', 'C', 'C', 'C', 'C', 'C', 'C', 'C', 'C', 'C', 'C', 'C', 'C', 'C', 'C', 'C', 'C']","[1821161, 1821749, 1822315, 1822924, 1823565, 1824120, 1824769, 1825359, 1825942, 1826494, 1827056, 1827630, 1828219, 1828801, 1829404, 1829980, 1830554, 1831133, 1831702, 1832290, 1832842, 1833476, 1834049]","[1821238, 1821836, 1822401, 1823022, 1823664, 1824221, 1824863, 1825453, 1826030, 1826607, 1827133, 1827710, 1828293, 1828883, 1829466, 1830060, 1830639, 1831204, 1831787, 1832365, 1832914, 1833541, 1834110]","[1820664, 1821263, 1821863, 1822464, 1823064, 1823664, 1824263, 1824863, 1825385, 1825968, 1826520, 1827082, 1827655, 1828245, 1828827, 1829430, 1830005, 1830580, 1831159, 1831728, 1832315, 1832867, 1833501, 1834075]",49,L,ITM,1.1,
7,400,trial,0,96,96,96,trial,"['S', 'S', 'S', 'S', 'S', 'S', 'C', 'C', 'C', 'C', 'C', 'C', 'C', 'C', 'C', 'C', 'C', 'C', 'C', 'C', 'C', 'C']","[1840300, 1840681, 1841091, 1841479, 1841885, 1842281, 1842712, 1843109, 1843529, 1843930, 1844358, 1844754, 1845172, 1845574, 1845975, 1846354, 1846755, 1847200, 1847616, 1848003, 1848384, 1848823]","[1840382, 1840764, 1841170, 1841552, 1841953, 1842352, 1842772, 1843187, 1843609, 1844014, 1844423, 1844825, 1845250, 1845648, 1846044, 1846433, 1846836, 1847280, 1847689, 1848085, 1848481, 1848875]","[1839522, 1839922, 1840321, 1840721, 1841121, 1841521, 1841922, 1842321, 1842739, 1843136, 1843557, 1843957, 1844385, 1844782, 1845199, 1845601, 1846001, 1846381, 1846782, 1847228, 1847644, 1848031, 1848411, 1848850]",49,L,ITM,1.1,
4,400,trial,0,97,97,97,trial,"['S', 'S', 'S', 'S', 'S', 'S', 'C', 'C', 'C', 'C', 'C', 'C', 'C', 'C', 'C', 'C', 'C', 'C', 'C', 'C', 'C', 'C']","[1855432, 1855765, 1856146, 1856560, 1856951, 1857350, 1857773, 1858178, 1858588, 1858965, 1859353, 1859741, 1860141, 1860519, 1860937, 1861355, 1861698, 1862149, 1862552, 1862956, 1863348, 1863753]","[1855492, 1855833, 1856215, 1856622, 1857015, 1857432, 1857841, 1858255, 1858658, 1859051, 1859424, 1859820, 1860219, 1860597, 1861007, 1861435, 1861794, 1862219, 1862618, 1863025, 1863425, 1863831]","[1854633, 1855032, 1855432, 1855833, 1856232, 1856632, 1857032, 1857432, 1857799, 1858203, 1858614, 1858992, 1859379, 1859767, 1860166, 1860545, 1860963, 1861381, 1861724, 1862175, 1862578, 1862981, 1863373, 1863779]",49,L,ITM,1.1,
5,400,trial,0,98,98,98,trial,"['S', 'S', 'S', 'S', 'C', 'C', 'C', 'C', 'C', 'C', 'C', 'C', 'C', 'C', 'C', 'C', 'C', 'C', 'C', 'C']","[1870822, 1871246, 1871637, 1872023, 1872429, 1872816, 1873229, 1873583, 1873982, 1874334, 1874753, 1875105, 1875506, 1875865, 1876251, 1876577, 1876980, 1877374, 1877757, 1878150]","[1870905, 1871322, 1871710, 1872096, 1872510, 1872896, 1873308, 1873674, 1874060, 1874424, 1874830, 1875182, 1875575, 1875935, 1876321, 1876665, 1877057, 1877446, 1877839, 1878222]","[1869306, 1869705, 1870105, 1870505, 1870905, 1871305, 1871706, 1872105, 1872455, 1872841, 1873255, 1873608, 1874008, 1874360, 1874779, 1875131, 1875531, 1875891, 1876277, 1876603, 1877007, 1877401, 1877783, 1878175]",49,L,ITM,1.1,
5,600,trial,0,99,99,99,trial,"['S', 'S', 'S', 'S', 'S', 'S', 'S', 'C', 'C', 'C', 'C', 'C', 'C', 'C', 'C', 'C', 'C', 'C', 'C', 'C', 'C', 'C', 'C']","[1884368, 1885028, 1885597, 1886156, 1886763, 1887364, 1887974, 1888586, 1889146, 1889724, 1890300, 1890867, 1891427, 1892011, 1892614, 1893172, 1893773, 1894366, 1894991, 1895606, 1896178, 1896761, 1897356]","[1884434, 1885108, 1885683, 1886247, 1886851, 1887448, 1888055, 1888666, 1889231, 1889809, 1890387, 1890930, 1891506, 1892089, 1892675, 1893239, 1893824, 1894434, 1895036, 1895664, 1896257, 1896849, 1897422]","[1883884, 1884483, 1885083, 1885683, 1886283, 1886883, 1887483, 1888083, 1888612, 1889173, 1889751, 1890327, 1890892, 1891452, 1892037, 1892639, 1893198, 1893798, 1894392, 1895018, 1895631, 1896204, 1896786, 1897381]",49,L,ITM,1.1,
6,400,trial,0,100,100,100,trial,"['S', 'S', 'S', 'S', 'S', 'S', 'S', 'C', 'C', 'C', 'C', 'C', 'C', 'C', 'C', 'C', 'C', 'C', 'C', 'C', 'C', 'C', 'C']","[1903150, 1903470, 1903873, 1904294, 1904629, 1905017, 1905433, 1905868, 1906275, 1906666, 1907023, 1907431, 1907822, 1908206, 1908611, 1908995, 1909362, 1909793, 1910184, 1910595, 1910996, 1911368, 1911798]","[1903209, 1903550, 1903942, 1904345, 1904706, 1905082, 1905519, 1905934, 1906345, 1906741, 1907113, 1907493, 1907890, 1908299, 1908698, 1909069, 1909449, 1909869, 1910283, 1910679, 1911074, 1911463, 1911890]","[1902695, 1903094, 1903495, 1903894, 1904294, 1904694, 1905094, 1905495, 1905896, 1906301, 1906694, 1907050, 1907458, 1907849, 1908233, 1908638, 1909022, 1909390, 1909821, 1910212, 1910622, 1911024, 1911395, 1911825]",49,L,ITM,1.1,
3,600,trial,0,101,101,101,trial,"['S', 'S', 'S', 'S', 'S', 'S', 'S', 'C', 'C', 'C', 'C', 'C', 'C', 'C', 'C', 'C', 'C', 'C', 'C', 'C', 'C', 'C', 'C']","[1917850, 1918610, 1919205, 1919797, 1920390, 1920983, 1921558, 1922183, 1922784, 1923375, 1923949, 1924534, 1925108, 1925724, 1926304, 1926888, 1927459, 1928075, 1928674, 1929249, 1929848, 1930431, 1931026]","[1917920, 1918700, 1919292, 1919882, 1920488, 1921054, 1921648, 1922271, 1922882, 1923448, 1924026, 1924601, 1925189, 1925797, 1926370, 1926959, 1927534, 1928158, 1928728, 1929317, 1929911, 1930478, 1931076]","[1917475, 1918075, 1918675, 1919276, 1919876, 1920476, 1921075, 1921675, 1922208, 1922809, 1923400, 1923975, 1924559, 1925134, 1925749, 1926330, 1926914, 1927485, 1928100, 1928699, 1929275, 1929874, 1930457, 1931052]",49,L,ITM,1.1,
3,600,trial,0,102,102,102,trial,"['S', 'S', 'S', 'S', 'S', 'S', 'S', 'C', 'C', 'C', 'C', 'C', 'C', 'C', 'C', 'C', 'C', 'C', 'C', 'C', 'C', 'C', 'C']","[1937277, 1937844, 1938460, 1939107, 1939694, 1940296, 1940916, 1941519, 1942097, 1942692, 1943315, 1943926, 1944531, 1945170, 1945789, 1946366, 1946968, 1947546, 1948148, 1948759, 1949407, 1949973, 1950585]","[1937389, 1937944, 1938551, 1939175, 1939768, 1940378, 1940994, 1941591, 1942179, 1942767, 1943393, 1943976, 1944606, 1945232, 1945851, 1946430, 1947038, 1947619, 1948215, 1948823, 1949464, 1950042, 1950638]","[1936789, 1937389, 1937989, 1938589, 1939189, 1939789, 1940389, 1940989, 1941544, 1942123, 1942718, 1943341, 1943953, 1944557, 1945196, 1945815, 1946392, 1946993, 1947572, 1948174, 1948784, 1949432, 1949999, 1950611]",49,L,ITM,1.1,
5,400,trial,0,103,103,103,trial,"['S', 'S', 'S', 'S', 'S', 'S', 'S', 'C', 'C', 'C', 'C', 'C', 'C', 'C', 'C', 'C', 'C', 'C', 'C', 'C', 'C', 'C', 'C']","[1956411, 1956754, 1957149, 1957537, 1957917, 1958322, 1958697, 1959100, 1959501, 1959894, 1960271, 1960665, 1961057, 1961416, 1961811, 1962173, 1962589, 1962975, 1963363, 1963758, 1964149, 1964558, 1964947]","[1956485, 1956834, 1957231, 1957612, 1957995, 1958390, 1958785, 1959190, 1959590, 1959979, 1960356, 1960745, 1961148, 1961511, 1961890, 1962255, 1962674, 1963064, 1963455, 1963843, 1964240, 1964643, 1965030]","[1955970, 1956368, 1956768, 1957169, 1957568, 1957968, 1958368, 1958768, 1959126, 1959527, 1959919, 1960297, 1960690, 1961083, 1961443, 1961837, 1962199, 1962614, 1963000, 1963389, 1963784, 1964175, 1964584, 1964973]",49,L,ITM,1.1,
2,600,trial,0,104,104,104,trial,"['S', 'S', 'S', 'S', 'S', 'S', 'S', 'C', 'C', 'C', 'C', 'C', 'C', 'C', 'C', 'C', 'C', 'C', 'C', 'C', 'C', 'C', 'C']","[1970800, 1971589, 1972163, 1972795, 1973383, 1973971, 1974580, 1975153, 1975740, 1976325, 1976909, 1977477, 1978052, 1978630, 1979241, 1979812, 1980390, 1981016, 1981596, 1982189, 1982809, 1983389, 1984007]","[1970874, 1971731, 1972298, 1972922, 1973465, 1974049, 1974666, 1975248, 1975824, 1976423, 1977003, 1977556, 1978129, 1978719, 1979304, 1979877, 1980461, 1981086, 1981668, 1982261, 1982869, 1983460, 1984073]","[1970446, 1971045, 1971646, 1972246, 1972845, 1973446, 1974045, 1974646, 1975181, 1975768, 1976351, 1976936, 1977503, 1978079, 1978656, 1979268, 1979840, 1980418, 1981042, 1981624, 1982217, 1982835, 1983417, 1984034]",49,L,ITM,1.1,
3,600,trial,0,105,105,105,trial,"['S', 'S', 'S', 'S', 'S', 'S', 'S', 'C', 'C', 'C', 'C', 'C', 'C', 'C', 'C', 'C', 'C', 'C', 'C', 'C', 'C', 'C', 'C']","[1990002, 1990697, 1991274, 1991868, 1992452, 1993062, 1993666, 1994261, 1994844, 1995456, 1996029, 1996611, 1997175, 1997746, 1998324, 1998901, 1999474, 2000061, 2000662, 2001243, 2001850, 2002473, 2003063]","[1990068, 1990780, 1991354, 1991943, 1992518, 1993140, 1993740, 1994340, 1994905, 1995532, 1996099, 1996666, 1997237, 1997807, 1998388, 1998971, 1999536, 2000122, 2000731, 2001311, 2001913, 2002555, 2003128]","[1989554, 1990154, 1990754, 1991354, 1991954, 1992554, 1993154, 1993754, 1994287, 1994869, 1995482, 1996055, 1996637, 1997201, 1997771, 1998350, 1998926, 1999500, 2000087, 2000688, 2001268, 2001875, 2002499, 2003089]",49,L,ITM,1.1,
7,400,trial,0,106,106,106,trial,"['S', 'S', 'S', 'S', 'S', 'S', 'S', 'C', 'C', 'C', 'C', 'C', 'C', 'C', 'C', 'C', 'C', 'C', 'C', 'C', 'C', 'C', 'C']","[2009092, 2009400, 2009758, 2010164, 2010550, 2010939, 2011348, 2011735, 2012147, 2012549, 2012934, 2013337, 2013713, 2014108, 2014521, 2014902, 2015300, 2015699, 2016074, 2016482, 2016891, 2017252, 2017666]","[2009161, 2009465, 2009840, 2010229, 2010613, 2011010, 2011414, 2011803, 2012217, 2012616, 2013014, 2013407, 2013791, 2014183, 2014588, 2014980, 2015374, 2015780, 2016160, 2016562, 2016954, 2017346, 2017750]","[2008601, 2009000, 2009400, 2009800, 2010201, 2010600, 2011000, 2011400, 2011762, 2012174, 2012575, 2012960, 2013364, 2013740, 2014135, 2014547, 2014929, 2015327, 2015727, 2016101, 2016509, 2016918, 2017280, 2017692]",49,L,ITM,1.1,
2,600,trial,0,107,107,107,trial,"['S', 'S', 'S', 'S', 'S', 'S', 'C', 'C', 'C', 'C', 'C', 'C', 'C', 'C', 'C', 'C', 'C', 'C', 'C', 'C', 'C', 'C']","[2024494, 2025068, 2025666, 2026270, 2026852, 2027462, 2028037, 2028637, 2029249, 2029816, 2030390, 2030955, 2031534, 2032111, 2032704, 2033320, 2033892, 2034522, 2035090, 2035673, 2036249, 2036826]","[2024589, 2025138, 2025750, 2026338, 2026933, 2027543, 2028112, 2028707, 2029316, 2029880, 2030455, 2031008, 2031592, 2032168, 2032768, 2033388, 2033965, 2034581, 2035158, 2035730, 2036310, 2036889]","[2023368, 2023968, 2024568, 2025168, 2025768, 2026369, 2026968, 2027569, 2028063, 2028663, 2029277, 2029844, 2030417, 2030983, 2031561, 2032139, 2032731, 2033348, 2033918, 2034549, 2035118, 2035700, 2036277, 2036853]",49,L,ITM,1.1,
6,600,trial,0,108,108,108,trial,"['S', 'S', 'S', 'S', 'S', 'S', 'S', 'C', 'C', 'C', 'C', 'C', 'C', 'C', 'C', 'C', 'C', 'C', 'C', 'C', 'C', 'C', 'C']","[2042813, 2043464, 2044030, 2044634, 2045194, 2045797, 2046381, 2046997, 2047561, 2048144, 2048736, 2049313, 2049888, 2050470, 2051045, 2051634, 2052214, 2052810, 2053368, 2053940, 2054531, 2055104, 2055677]","[2042889, 2043543, 2044104, 2044704, 2045268, 2045864, 2046439, 2047065, 2047621, 2048214, 2048791, 2049380, 2049958, 2050533, 2051111, 2051704, 2052282, 2052878, 2053443, 2054027, 2054605, 2055174, 2055770]","[2042332, 2042931, 2043531, 2044131, 2044731, 2045331, 2045931, 2046531, 2047025, 2047588, 2048172, 2048763, 2049341, 2049914, 2050497, 2051072, 2051661, 2052241, 2052838, 2053396, 2053966, 2054557, 2055132, 2055704]",49,L,ITM,1.1,
5,600,trial,0,109,109,109,trial,"['S', 'S', 'S', 'S', 'S', 'S', 'S', 'C', 'C', 'C', 'C', 'C', 'C', 'C', 'C', 'C', 'C', 'C', 'C', 'C', 'C', 'C', 'C']","[2061588, 2062267, 2062844, 2063428, 2064023, 2064616, 2065239, 2065838, 2066435, 2066978, 2067517, 2068093, 2068708, 2069303, 2069892, 2070501, 2071086, 2071669, 2072279, 2072877, 2073456, 2074050, 2074655]","[2061654, 2062344, 2062923, 2063506, 2064099, 2064697, 2065307, 2065910, 2066493, 2067047, 2067604, 2068160, 2068770, 2069358, 2069939, 2070540, 2071140, 2071737, 2072340, 2072918, 2073521, 2074113, 2074717]","[2061138, 2061737, 2062338, 2062938, 2063538, 2064138, 2064738, 2065338, 2065863, 2066460, 2067004, 2067543, 2068119, 2068733, 2069328, 2069917, 2070526, 2071111, 2071696, 2072304, 2072902, 2073482, 2074076, 2074681]",49,L,ITM,1.1,
7,400,trial,0,110,110,110,trial,"['S', 'S', 'S', 'S', 'S', 'S', 'S', 'S', 'C', 'C', 'C', 'C', 'C', 'C', 'C', 'C', 'C', 'C', 'C', 'C', 'C', 'C', 'C', 'C']","[2080317, 2080565, 2080839, 2081202, 2081601, 2081960, 2082395, 2082769, 2083170, 2083568, 2083945, 2084349, 2084752, 2085155, 2085550, 2085924, 2086333, 2086693, 2087116, 2087504, 2087881, 2088284, 2088663, 2089085]","[2080337, 2080632, 2080914, 2081286, 2081661, 2082046, 2082456, 2082844, 2083251, 2083644, 2084037, 2084431, 2084827, 2085230, 2085618, 2086011, 2086411, 2086777, 2087189, 2087580, 2087961, 2088365, 2088758, 2089152]","[2080025, 2080424, 2080824, 2081224, 2081625, 2082024, 2082424, 2082824, 2083197, 2083596, 2083973, 2084377, 2084780, 2085183, 2085577, 2085951, 2086361, 2086720, 2087144, 2087531, 2087909, 2088311, 2088690, 2089113]",49,L,ITM,1.1,
6,400,trial,0,111,111,111,trial,"['S', 'S', 'S', 'S', 'S', 'S', 'S', 'C', 'C', 'C', 'C', 'C', 'C', 'C', 'C', 'C', 'C', 'C', 'C', 'C', 'C', 'C', 'C']","[2095237, 2095510, 2095877, 2096283, 2096669, 2097088, 2097495, 2097890, 2098271, 2098672, 2099080, 2099463, 2099865, 2100250, 2100659, 2101058, 2101437, 2101846, 2102234, 2102650, 2103033, 2103450, 2103848]","[2095279, 2095582, 2095948, 2096352, 2096724, 2097150, 2097553, 2097956, 2098340, 2098747, 2099151, 2099526, 2099937, 2100322, 2100733, 2101139, 2101517, 2101925, 2102316, 2102708, 2103111, 2103519, 2103920]","[2094726, 2095124, 2095524, 2095924, 2096324, 2096724, 2097124, 2097524, 2097916, 2098297, 2098699, 2099106, 2099489, 2099892, 2100277, 2100685, 2101085, 2101464, 2101872, 2102260, 2102677, 2103061, 2103477, 2103876]",49,L,ITM,1.1,
5,600,trial,0,112,112,112,trial,"['S', 'S', 'S', 'S', 'S', 'S', 'S', 'C', 'C', 'C', 'C', 'C', 'C', 'C', 'C', 'C', 'C', 'C', 'C', 'C', 'C', 'C', 'C']","[2109799, 2110609, 2111215, 2111776, 2112367, 2112990, 2113540, 2114111, 2114729, 2115330, 2115940, 2116466, 2117032, 2117629, 2118226, 2118817, 2119401, 2119994, 2120584, 2121172, 2121778, 2122370, 2122941]","[2109872, 2110687, 2111300, 2111855, 2112438, 2113047, 2113601, 2114191, 2114793, 2115399, 2115999, 2116534, 2117103, 2117694, 2118288, 2118883, 2119460, 2120057, 2120652, 2121249, 2121842, 2122435, 2123024]","[2109455, 2110055, 2110655, 2111255, 2111855, 2112455, 2113055, 2113655, 2114137, 2114755, 2115355, 2115965, 2116492, 2117058, 2117655, 2118252, 2118843, 2119427, 2120019, 2120610, 2121199, 2121804, 2122395, 2122967]",49,L,ITM,1.1,
6,600,trial,0,113,113,113,trial,"['S', 'S', 'S', 'S', 'S', 'S', 'S', 'C', 'C', 'C', 'C', 'C', 'C', 'C', 'C', 'C', 'C', 'C', 'C', 'C', 'C', 'C', 'C']","[2129175, 2129854, 2130458, 2131061, 2131619, 2132179, 2132777, 2133365, 2133975, 2134587, 2135144, 2135763, 2136344, 2136935, 2137525, 2138122, 2138728, 2139335, 2139935, 2140551, 2141174, 2141742, 2142325]","[2129247, 2129933, 2130522, 2131128, 2131680, 2132243, 2132839, 2133429, 2134037, 2134642, 2135206, 2135815, 2136404, 2136986, 2137585, 2138196, 2138795, 2139390, 2139991, 2140610, 2141238, 2141811, 2142397]","[2128715, 2129315, 2129915, 2130515, 2131116, 2131716, 2132316, 2132915, 2133393, 2134001, 2134614, 2135171, 2135790, 2136371, 2136962, 2137552, 2138149, 2138756, 2139362, 2139962, 2140577, 2141201, 2141769, 2142352]",49,L,ITM,1.1,
3,400,trial,0,114,114,114,trial,"['S', 'S', 'S', 'S', 'S', 'S', 'S', 'C', 'C', 'C', 'C', 'C', 'C', 'C', 'C', 'C', 'C', 'C', 'C', 'C', 'C', 'C', 'C']","[2148369, 2148691, 2149023, 2149410, 2149823, 2150226, 2150601, 2151005, 2151400, 2151786, 2152180, 2152565, 2152970, 2153369, 2153762, 2154155, 2154566, 2154966, 2155397, 2155752, 2156156, 2156532, 2156941]","[2148449, 2148761, 2149096, 2149485, 2149895, 2150298, 2150681, 2151079, 2151474, 2151861, 2152257, 2152638, 2153046, 2153450, 2153850, 2154235, 2154646, 2155047, 2155472, 2155844, 2156246, 2156612, 2157026]","[2147878, 2148278, 2148678, 2149079, 2149478, 2149878, 2150279, 2150679, 2151030, 2151426, 2151812, 2152206, 2152591, 2152995, 2153395, 2153788, 2154180, 2154592, 2154991, 2155422, 2155778, 2156182, 2156558, 2156966]",49,L,ITM,1.1,
3,400,trial,0,115,115,115,trial,"['S', 'S', 'S', 'S', 'S', 'S', 'C', 'C', 'C', 'C', 'C', 'C', 'C', 'C', 'C', 'C', 'C', 'C', 'C', 'C', 'C', 'C']","[2163273, 2163672, 2164057, 2164464, 2164865, 2165269, 2165647, 2166048, 2166430, 2166828, 2167211, 2167586, 2167981, 2168369, 2168763, 2169148, 2169531, 2169948, 2170308, 2170736, 2171104, 2171539]","[2163366, 2163753, 2164137, 2164545, 2164950, 2165350, 2165733, 2166131, 2166528, 2166915, 2167285, 2167683, 2168074, 2168462, 2168837, 2169236, 2169623, 2170029, 2170409, 2170818, 2171200, 2171636]","[2162495, 2162894, 2163294, 2163694, 2164094, 2164494, 2164894, 2165295, 2165672, 2166074, 2166456, 2166853, 2167236, 2167612, 2168006, 2168394, 2168788, 2169175, 2169556, 2169973, 2170334, 2170762, 2171129, 2171565]",49,L,ITM,1.1,
2,400,trial,0,116,116,116,trial,"['S', 'S', 'S', 'S', 'S', 'S', 'C', 'C', 'C', 'C', 'C', 'C', 'C', 'C', 'C', 'C', 'C', 'C', 'C', 'C', 'C', 'C']","[2178154, 2178537, 2178924, 2179315, 2179721, 2180131, 2180502, 2180898, 2181282, 2181719, 2182131, 2182521, 2182912, 2183310, 2183693, 2184088, 2184489, 2184881, 2185293, 2185683, 2186113, 2186502]","[2178229, 2178618, 2179012, 2179410, 2179813, 2180210, 2180597, 2180986, 2181377, 2181803, 2182224, 2182612, 2183005, 2183413, 2183780, 2184189, 2184581, 2184986, 2185372, 2185785, 2186199, 2186601]","[2177353, 2177755, 2178154, 2178554, 2178954, 2179353, 2179755, 2180154, 2180530, 2180925, 2181310, 2181746, 2182159, 2182548, 2182938, 2183337, 2183720, 2184115, 2184516, 2184907, 2185321, 2185711, 2186139, 2186528]",49,L,ITM,1.1,
6,400,trial,0,117,117,117,trial,"['S', 'S', 'S', 'S', 'S', 'S', 'S', 'C', 'C', 'C', 'C', 'C', 'C', 'C', 'C', 'C', 'C', 'C', 'C', 'C', 'C', 'C', 'C']","[2192231, 2192611, 2192958, 2193370, 2193745, 2194134, 2194544, 2194936, 2195376, 2195742, 2196161, 2196550, 2196974, 2197359, 2197771, 2198181, 2198587, 2199000, 2199371, 2199798, 2200199, 2200631, 2201048]","[2192304, 2192677, 2193064, 2193458, 2193838, 2194231, 2194612, 2195032, 2195456, 2195824, 2196256, 2196636, 2197048, 2197428, 2197843, 2198273, 2198664, 2199095, 2199475, 2199882, 2200288, 2200722, 2201148]","[2191830, 2192228, 2192628, 2193029, 2193428, 2193828, 2194228, 2194628, 2194963, 2195402, 2195769, 2196188, 2196577, 2197001, 2197386, 2197797, 2198209, 2198615, 2199026, 2199398, 2199825, 2200226, 2200658, 2201074]",49,L,ITM,1.1,
4,600,trial,0,118,118,118,trial,"['S', 'S', 'S', 'S', 'S', 'S', 'S', 'C', 'C', 'C', 'C', 'C', 'C', 'C', 'C', 'C', 'C', 'C', 'C', 'C', 'C', 'C', 'C']","[2206819, 2207486, 2208069, 2208697, 2209288, 2209922, 2210532, 2211101, 2211693, 2212303, 2212873, 2213453, 2214019, 2214597, 2215203, 2215813, 2216453, 2217016, 2217597, 2218225, 2218840, 2219424, 2220010]","[2206891, 2207580, 2208157, 2208775, 2209373, 2209996, 2210628, 2211192, 2211774, 2212381, 2212955, 2213535, 2214095, 2214682, 2215283, 2215898, 2216552, 2217102, 2217693, 2218310, 2218925, 2219515, 2220103]","[2206410, 2207009, 2207609, 2208209, 2208809, 2209410, 2210010, 2210610, 2211127, 2211719, 2212330, 2212898, 2213479, 2214044, 2214623, 2215229, 2215838, 2216478, 2217041, 2217624, 2218251, 2218865, 2219450, 2220036]",49,L,ITM,1.1,
4,400,trial,0,119,119,119,trial,"['S', 'S', 'S', 'S', 'S', 'S', 'S', 'C', 'C', 'C', 'C', 'C', 'C', 'C', 'C', 'C', 'C', 'C', 'C', 'C', 'C', 'C', 'C']","[2225979, 2226265, 2226585, 2226995, 2227400, 2227811, 2228219, 2228614, 2229029, 2229411, 2229822, 2230194, 2230591, 2231009, 2231397, 2231827, 2232215, 2232647, 2233040, 2233445, 2233827, 2234226, 2234645]","[2226039, 2226333, 2226679, 2227081, 2227492, 2227890, 2228301, 2228699, 2229114, 2229492, 2229911, 2230269, 2230678, 2231088, 2231483, 2231917, 2232311, 2232729, 2233132, 2233530, 2233930, 2234318, 2234741]","[2225465, 2225864, 2226265, 2226664, 2227064, 2227464, 2227864, 2228264, 2228639, 2229055, 2229437, 2229848, 2230220, 2230617, 2231034, 2231422, 2231853, 2232241, 2232673, 2233066, 2233470, 2233852, 2234252, 2234671]",49,L,ITM,1.1,
5,400,trial,0,120,120,120,trial,"['S', 'S', 'S', 'S', 'S', 'S', 'S', 'C', 'C', 'C', 'C', 'C', 'C', 'C', 'C', 'C', 'C', 'C', 'C', 'C', 'C', 'C', 'C']","[2240722, 2241083, 2241472, 2241860, 2242256, 2242662, 2243069, 2243470, 2243834, 2244230, 2244636, 2245048, 2245434, 2245836, 2246242, 2246660, 2247010, 2247432, 2247805, 2248204, 2248585, 2249025, 2249383]","[2240805, 2241158, 2241553, 2241950, 2242344, 2242759, 2243163, 2243562, 2243932, 2244331, 2244723, 2245136, 2245525, 2245931, 2246338, 2246740, 2247117, 2247520, 2247895, 2248295, 2248690, 2249104, 2249472]","[2240320, 2240720, 2241120, 2241520, 2241921, 2242320, 2242720, 2243121, 2243495, 2243861, 2244255, 2244662, 2245073, 2245460, 2245863, 2246267, 2246686, 2247035, 2247457, 2247831, 2248230, 2248610, 2249052, 2249409]",49,L,ITM,1.1,
4,600,trial,0,121,121,121,trial,"['S', 'S', 'S', 'S', 'S', 'S', 'S', 'C', 'C', 'C', 'C', 'C', 'C', 'C', 'C', 'C', 'C', 'C', 'C', 'C', 'C', 'C', 'C']","[2255259, 2256005, 2256630, 2257254, 2257831, 2258437, 2259031, 2259635, 2260234, 2260823, 2261415, 2261959, 2262549, 2263124, 2263688, 2264288, 2264871, 2265473, 2266056, 2266614, 2267210, 2267876, 2268457]","[2255363, 2256191, 2256797, 2257385, 2257953, 2258544, 2259134, 2259744, 2260350, 2260921, 2261519, 2262060, 2262659, 2263217, 2263788, 2264385, 2264972, 2265572, 2266152, 2266729, 2267325, 2267970, 2268561]","[2254906, 2255506, 2256106, 2256706, 2257306, 2257906, 2258506, 2259106, 2259660, 2260259, 2260848, 2261441, 2261985, 2262575, 2263150, 2263713, 2264313, 2264897, 2265498, 2266082, 2266640, 2267236, 2267902, 2268483]",49,L,ITM,1.1,
4,400,trial,0,122,122,122,trial,"['S', 'S', 'S', 'S', 'S', 'S', 'S', 'C', 'C', 'C', 'C', 'C', 'C', 'C', 'C', 'C', 'C', 'C', 'C', 'C', 'C', 'C', 'C']","[2274434, 2274692, 2275031, 2275420, 2275779, 2276208, 2276595, 2277011, 2277388, 2277788, 2278171, 2278578, 2278946, 2279357, 2279717, 2280104, 2280444, 2280859, 2281241, 2281659, 2282018, 2282421, 2282802]","[2274506, 2274777, 2275132, 2275521, 2275904, 2276305, 2276699, 2277099, 2277504, 2277874, 2278272, 2278678, 2279059, 2279455, 2279833, 2280186, 2280532, 2280944, 2281330, 2281720, 2282098, 2282511, 2282904]","[2273881, 2274279, 2274679, 2275079, 2275479, 2275879, 2276279, 2276679, 2277037, 2277413, 2277814, 2278197, 2278603, 2278972, 2279383, 2279743, 2280130, 2280470, 2280885, 2281267, 2281686, 2282044, 2282446, 2282827]",49,L,ITM,1.1,
7,600,trial,0,123,123,123,trial,"['S', 'S', 'S', 'S', 'S', 'S', 'S', 'C', 'C', 'C', 'C', 'C', 'C', 'C', 'C', 'C', 'C', 'C', 'C', 'C', 'C', 'C', 'C']","[2289090, 2289504, 2290077, 2290652, 2291267, 2291852, 2292450, 2293057, 2293658, 2294217, 2294789, 2295357, 2295959, 2296514, 2297091, 2297657, 2298223, 2298820, 2299369, 2299933, 2300491, 2301037, 2301598]","[2289178, 2289635, 2290188, 2290751, 2291365, 2291946, 2292550, 2293164, 2293763, 2294316, 2294899, 2295454, 2296053, 2296611, 2297183, 2297775, 2298323, 2298921, 2299472, 2300044, 2300602, 2301149, 2301698]","[2288335, 2288935, 2289536, 2290136, 2290736, 2291336, 2291936, 2292536, 2293085, 2293686, 2294245, 2294815, 2295384, 2295986, 2296541, 2297117, 2297684, 2298250, 2298847, 2299397, 2299960, 2300518, 2301065, 2301625]",49,L,ITM,1.1,
2,400,trial,0,124,124,124,trial,"['S', 'S', 'S', 'S', 'S', 'S', 'S', 'C', 'C', 'C', 'C', 'C', 'C', 'C', 'C', 'C', 'C', 'C', 'C', 'C', 'C', 'C', 'C']","[2307535, 2307853, 2308228, 2308636, 2309006, 2309415, 2309828, 2310227, 2310644, 2311017, 2311438, 2311836, 2312229, 2312625, 2313034, 2313463, 2313826, 2314260, 2314645, 2315049, 2315424, 2315850, 2316226]","[2307620, 2307941, 2308326, 2308744, 2309113, 2309524, 2309934, 2310339, 2310755, 2311150, 2311546, 2311959, 2312340, 2312739, 2313144, 2313570, 2313950, 2314374, 2314772, 2315163, 2315566, 2315955, 2316353]","[2307078, 2307477, 2307877, 2308277, 2308677, 2309078, 2309477, 2309877, 2310255, 2310671, 2311045, 2311464, 2311863, 2312256, 2312652, 2313061, 2313491, 2313853, 2314287, 2314672, 2315077, 2315451, 2315878, 2316253]",49,L,ITM,1.1,
7,600,trial,0,125,125,125,trial,"['S', 'S', 'S', 'S', 'S', 'S', 'C', 'C', 'C', 'C', 'C', 'C', 'C', 'C', 'C', 'C', 'C', 'C', 'C', 'C', 'C', 'C']","[2322805, 2323337, 2323936, 2324546, 2325202, 2325757, 2326359, 2326956, 2327516, 2328086, 2328656, 2329247, 2329812, 2330389, 2330939, 2331593, 2332154, 2332756, 2333356, 2333952, 2334496, 2335054]","[2322907, 2323451, 2324049, 2324653, 2325301, 2325896, 2326473, 2327063, 2327629, 2328197, 2328784, 2329368, 2329945, 2330518, 2331083, 2331708, 2332267, 2332866, 2333486, 2334055, 2334603, 2335152]","[2321625, 2322224, 2322824, 2323424, 2324024, 2324624, 2325224, 2325824, 2326385, 2326983, 2327543, 2328113, 2328684, 2329274, 2329839, 2330417, 2330967, 2331621, 2332182, 2332784, 2333383, 2333978, 2334523, 2335081]",49,L,ITM,1.1,
