octave,ioi,event,.thisRepN,.thisTrialN,.thisN,.thisIndex,event,tap_types,tap_times,release_times,tone_times,subject,handedness,experiment,version,
,,SPR,0,-1,-1,0,SPR,"['P', 'P', 'P', 'P', 'P', 'P', 'P', 'P', 'P', 'P', 'P', 'P', 'P', 'P', 'P', 'P', 'P', 'P', 'P', 'P', 'P', 'P', 'P', 'P', 'P', 'P', 'P', 'P', 'P', 'P']","[43597, 44138, 44687, 45223, 45697, 46228, 46806, 47351, 47890, 48403, 48939, 49456, 49970, 50493, 51003, 51542, 52105, 52636, 53191, 53694, 54264, 54817, 55367, 55889, 56397, 56935, 57407, 57897, 58398, 58905]","[43776, 44289, 44877, 45409, 45923, 46474, 47066, 47580, 48159, 48700, 49176, 49726, 50259, 50765, 51221, 51840, 52401, 52932, 53455, 53958, 54502, 55041, 55630, 56125, 56609, 57168, 57674, 58137, 58650, 59165]",,30,R,ITM,1.1,
3,500,practice,0,0,0,0,practice,"['S', 'S', 'S', 'S', 'S', 'S', 'S', 'C', 'C', 'C', 'C', 'C', 'C', 'C', 'C', 'C', 'C', 'C', 'C', 'C', 'C', 'C', 'C', 'C', 'C']","[112356, 112913, 113388, 113870, 114373, 114890, 115388, 115883, 116299, 116682, 117014, 117346, 117629, 117899, 118144, 138986, 142044, 142582, 142986, 143428, 143742, 144007, 144373, 144700, 145027]","[112424, 113010, 113499, 113979, 114473, 114989, 115488, 115971, 116386, 116790, 117134, 117438, 117733, 117988, 118219, 139106, 142146, 142722, 143132, 143576, 143854, 144112, 144475, 144844, 145145]","[111970, 112471, 112970, 113470, 113970, 114470, 114970, 115470, 115908, 116325, 116708, 117040, 117371, 117655, 117924, 139012, 142069, 142608, 143011, 143454, 143768, 144399, 144726, 145052]",30,R,ITM,1.1,
6,500,practice,0,1,1,1,practice,"['S', 'S', 'S', 'S', 'S', 'S', 'S', 'C', 'C', 'C', 'C', 'C', 'C', 'C', 'C', 'C', 'C', 'C', 'C', 'C', 'C', 'C', 'C']","[150917, 151318, 151815, 152290, 152832, 153322, 153834, 154314, 154820, 155297, 155789, 156273, 156755, 157230, 157698, 158174, 158664, 159130, 159619, 160107, 160581, 161073, 161573]","[151010, 151448, 151938, 152455, 152971, 153458, 153999, 154533, 155040, 155521, 156014, 156488, 156957, 157426, 157886, 158388, 158905, 159355, 159820, 160350, 160821, 161326, 161793]","[150403, 150902, 151402, 151902, 152402, 152902, 153402, 153903, 154341, 154847, 155324, 155815, 156300, 156782, 157256, 157725, 158200, 158691, 159157, 159645, 160134, 160608, 161099, 161600]",30,R,ITM,1.1,
5,500,practice,0,2,2,2,practice,"['S', 'S', 'S', 'S', 'S', 'S', 'C', 'C', 'C', 'C', 'C', 'C', 'C', 'C', 'C', 'C', 'C', 'C', 'C', 'C', 'C', 'C']","[167988, 168478, 169019, 169517, 170054, 170562, 171054, 171521, 171997, 172470, 172939, 173381, 173883, 174353, 174824, 175318, 175822, 176275, 176756, 177211, 177678, 178113]","[168136, 168640, 169147, 169655, 170176, 170690, 171185, 171659, 172133, 172590, 173074, 173554, 174061, 174500, 174990, 175496, 176017, 176485, 176965, 177384, 177821, 178252]","[167112, 167611, 168112, 168611, 169111, 169611, 170112, 170611, 171079, 171547, 172023, 172495, 172964, 173407, 173908, 174379, 174850, 175344, 175849, 176301, 176783, 177236, 177703, 178139]",30,R,ITM,1.1,
4,500,practice,0,3,3,3,practice,"['S', 'S', 'S', 'S', 'S', 'C', 'C', 'C', 'C', 'C', 'C', 'C', 'C', 'C', 'C', 'C', 'C', 'C', 'C', 'C', 'C']","[185104, 185631, 186159, 186656, 187126, 187618, 188146, 188621, 189101, 189622, 190143, 190631, 191117, 191594, 192096, 192583, 193052, 193541, 194020, 194484, 194959]","[185235, 185758, 186267, 186768, 187234, 187723, 188268, 188765, 189250, 189748, 190332, 190803, 191261, 191742, 192223, 192743, 193225, 193703, 194178, 194643, 195146]","[183721, 184220, 184720, 185221, 185720, 186220, 186720, 187220, 187644, 188172, 188647, 189126, 189648, 190169, 190657, 191142, 191620, 192121, 192609, 193078, 193566, 194045, 194509, 194984]",30,R,ITM,1.1,
7,500,practice,0,4,4,4,practice,"['S', 'S', 'S', 'S', 'S', 'S', 'C', 'C', 'C', 'C', 'C', 'C', 'C', 'C', 'C', 'C', 'C', 'C', 'C', 'C', 'C', 'C']","[201441, 202019, 202525, 203077, 203565, 204041, 204537, 205032, 205519, 206047, 206531, 207000, 207478, 208009, 208490, 208991, 209444, 209946, 210449, 210939, 211449, 211997]","[201577, 202132, 202674, 203197, 203706, 204224, 204701, 205217, 205742, 206258, 206776, 207186, 207676, 208193, 208739, 209244, 209690, 210210, 210691, 211209, 211683, 212190]","[200578, 201076, 201576, 202077, 202576, 203076, 203576, 204077, 204564, 205059, 205546, 206074, 206558, 207027, 207505, 208035, 208518, 209017, 209472, 209973, 210476, 210967, 211476, 212024]",30,R,ITM,1.1,
2,500,practice,0,5,5,5,practice,"['S', 'S', 'S', 'S', 'S', 'S', 'C', 'C', 'C', 'C', 'C', 'C', 'C', 'C', 'C', 'C', 'C', 'C', 'C', 'C', 'C', 'C']","[218380, 218936, 219449, 219963, 220462, 220974, 221473, 221956, 222454, 222938, 223411, 223922, 224384, 224846, 225328, 225825, 226311, 226808, 227303, 227757, 228289, 228773]","[218542, 219090, 219624, 220086, 220554, 221044, 221571, 222066, 222570, 223045, 223515, 224039, 224506, 224988, 225480, 225952, 226447, 226949, 227418, 227890, 228418, 228930]","[217506, 218006, 218506, 219006, 219506, 220005, 220506, 221006, 221501, 221982, 222482, 222965, 223437, 223948, 224410, 224873, 225355, 225853, 226338, 226835, 227330, 227783, 228317, 228800]",30,R,ITM,1.1,
7,400,trial,0,6,6,6,trial,"['S', 'S', 'S', 'S', 'S', 'S', 'C', 'C', 'C', 'C', 'C', 'C', 'C', 'C', 'C', 'C', 'C', 'C', 'C', 'C', 'C', 'C']","[263468, 263868, 264250, 264983, 265411, 265788, 266184, 266551, 266945, 267328, 267727, 268144, 268553, 268943, 269336, 269704, 270054, 270442, 270820, 271205, 271660, 272048]","[263587, 263994, 264369, 265102, 265533, 265930, 266319, 266690, 267085, 267486, 267913, 268311, 268725, 269082, 269452, 269818, 270198, 270565, 270941, 271337, 271761, 272181]","[263084, 263482, 263882, 264283, 264682, 265082, 265482, 265882, 266211, 266577, 266973, 267356, 267755, 268171, 268580, 268969, 269363, 269731, 270082, 270469, 270848, 271232, 271686, 272075]",30,R,ITM,1.1,
4,600,trial,0,7,7,7,trial,"['S', 'S', 'S', 'S', 'S', 'S', 'S', 'C', 'C', 'C', 'C', 'C', 'C', 'C', 'C', 'C', 'C', 'C', 'C', 'C', 'C', 'C', 'C']","[278116, 278861, 279622, 280219, 280728, 281342, 281894, 282526, 283112, 283705, 284305, 284879, 285467, 286103, 286699, 287276, 287904, 288466, 289074, 289684, 290299, 290886, 291468]","[278225, 278958, 279708, 280271, 280852, 281470, 282046, 282671, 283260, 283872, 284450, 285028, 285572, 286272, 286894, 287489, 288105, 288668, 289316, 289909, 290509, 291100, 291703]","[277795, 278394, 278994, 279595, 280195, 280795, 281394, 281994, 282552, 283138, 283730, 284331, 284905, 285494, 286130, 286726, 287301, 287930, 288492, 289099, 289710, 290325, 290912, 291493]",30,R,ITM,1.1,
7,400,trial,0,8,8,8,trial,"['S', 'S', 'S', 'S', 'S', 'S', 'C', 'C', 'C', 'C', 'C', 'C', 'C', 'C', 'C', 'C', 'C', 'C', 'C', 'C', 'C', 'C']","[297687, 298102, 298496, 298899, 299335, 299766, 300121, 300469, 300845, 301178, 301551, 301907, 302271, 302624, 302969, 303312, 303620, 303968, 304309, 304669, 305050, 305426]","[297800, 298217, 298614, 299028, 299418, 299854, 300213, 300596, 300935, 301312, 301665, 302041, 302396, 302757, 303105, 303444, 303768, 304123, 304456, 304819, 305215, 305561]","[296986, 297387, 297786, 298186, 298587, 298986, 299386, 299786, 300147, 300495, 300871, 301206, 301579, 301934, 302298, 302651, 302996, 303339, 303647, 303995, 304336, 304697, 305077, 305453]",30,R,ITM,1.1,
3,400,trial,0,9,9,9,trial,"['S', 'S', 'S', 'S', 'S', 'S', 'C', 'C', 'C', 'C', 'C', 'C', 'C', 'C', 'C', 'C', 'C', 'C', 'C', 'C', 'C', 'C']","[311599, 312017, 312419, 312824, 313223, 313613, 314029, 314387, 314760, 315107, 315431, 315757, 316079, 316381, 316704, 316990, 317339, 317657, 317977, 318303, 318623, 318935]","[311714, 312127, 312519, 312914, 313342, 313740, 314141, 314523, 314885, 315246, 315553, 315877, 316196, 316502, 316826, 317116, 317434, 317757, 318085, 318396, 318725, 319034]","[310890, 311290, 311690, 312090, 312491, 312890, 313290, 313691, 314054, 314413, 314785, 315132, 315457, 315784, 316104, 316406, 316730, 317016, 317365, 317682, 318003, 318328, 318649, 318960]",30,R,ITM,1.1,
3,600,trial,0,10,10,10,trial,"['S', 'S', 'S', 'S', 'S', 'S', 'S', 'C', 'C', 'C', 'C', 'C', 'C', 'C', 'C', 'C', 'C', 'C', 'C', 'C', 'C', 'C', 'C']","[324875, 325489, 326184, 326794, 327372, 327970, 328577, 329163, 329765, 330357, 330960, 331552, 332121, 332684, 333239, 333849, 334456, 335002, 335635, 336216, 336782, 337352, 337907]","[325001, 325634, 326319, 326940, 327540, 328112, 328755, 329321, 329974, 330547, 331126, 331703, 332271, 332817, 333389, 333966, 334582, 335198, 335755, 336364, 336954, 337512, 338085]","[324395, 324994, 325594, 326194, 326794, 327394, 327994, 328594, 329189, 329791, 330383, 330986, 331578, 332146, 332709, 333264, 333875, 334482, 335028, 335661, 336241, 336807, 337378, 337933]",30,R,ITM,1.1,
4,400,trial,0,11,11,11,trial,"['S', 'S', 'S', 'S', 'S', 'S', 'C', 'C', 'C', 'C', 'C', 'C', 'C', 'C', 'C', 'C', 'C', 'C', 'C', 'C', 'C', 'C']","[343991, 344375, 344782, 345161, 345576, 345994, 346389, 346780, 347133, 347501, 347888, 348289, 348638, 348983, 349358, 349708, 350048, 350427, 350813, 351177, 351539, 351889]","[344098, 344499, 344902, 345302, 345713, 346101, 346513, 346900, 347283, 347670, 348017, 348398, 348769, 349126, 349489, 349856, 350225, 350572, 350940, 351286, 351675, 351996]","[343277, 343677, 344077, 344477, 344878, 345277, 345677, 346077, 346415, 346807, 347159, 347527, 347914, 348314, 348664, 349008, 349383, 349733, 350073, 350453, 350838, 351203, 351564, 351915]",30,R,ITM,1.1,
6,600,trial,0,12,12,12,trial,"['S', 'S', 'S', 'S', 'S', 'S', 'C', 'C', 'C', 'C', 'C', 'C', 'C', 'C', 'C', 'C', 'C', 'C', 'C', 'C', 'C', 'C']","[358664, 359269, 359838, 360425, 360957, 361640, 362204, 362779, 363363, 364008, 364591, 365126, 365749, 366273, 366901, 367485, 368110, 368641, 369173, 369785, 370330, 370904]","[358780, 359398, 359963, 360561, 361114, 361744, 362334, 362938, 363508, 364164, 364735, 365302, 365922, 366479, 367054, 367661, 368226, 368805, 369383, 369976, 370538, 371113]","[357504, 358103, 358703, 359303, 359902, 360502, 361102, 361702, 362230, 362807, 363389, 364035, 364618, 365154, 365775, 366300, 366927, 367512, 368138, 368667, 369201, 369812, 370357, 370930]",30,R,ITM,1.1,
5,400,trial,0,13,13,13,trial,"['S', 'S', 'S', 'S', 'S', 'S', 'C', 'C', 'C', 'C', 'C', 'C', 'C', 'C', 'C', 'C', 'C', 'C', 'C', 'C', 'C', 'C']","[376996, 377456, 377819, 378194, 378600, 379004, 379383, 379794, 380193, 380574, 380949, 381334, 381712, 382082, 382443, 382781, 383153, 383525, 383892, 384267, 384647, 385048]","[377122, 377534, 377933, 378342, 378725, 379125, 379514, 379938, 380339, 380727, 381102, 381485, 381867, 382241, 382586, 382956, 383335, 383698, 384065, 384424, 384824, 385192]","[376287, 376686, 377086, 377486, 377886, 378287, 378686, 379086, 379409, 379820, 380219, 380601, 380975, 381360, 381737, 382107, 382469, 382807, 383179, 383551, 383918, 384292, 384672, 385074]",30,R,ITM,1.1,
6,400,trial,0,14,14,14,trial,"['S', 'S', 'S', 'S', 'S', 'S', 'C', 'C', 'C', 'C', 'C', 'C', 'C', 'C', 'C', 'C', 'C', 'C', 'C', 'C', 'C', 'C']","[391538, 391941, 392328, 392701, 393145, 393530, 393935, 394331, 394711, 395071, 395460, 395822, 396227, 396610, 396983, 397336, 397718, 398099, 398456, 398857, 399208, 399553]","[391689, 392086, 392494, 392893, 393277, 393690, 394080, 394486, 394896, 395256, 395608, 396033, 396379, 396766, 397121, 397500, 397859, 398216, 398607, 398980, 399332, 399705]","[390804, 391203, 391603, 392003, 392403, 392803, 393203, 393604, 393962, 394358, 394737, 395099, 395487, 395848, 396255, 396637, 397010, 397363, 397745, 398127, 398483, 398884, 399235, 399580]",30,R,ITM,1.1,
5,600,trial,0,15,15,15,trial,"['S', 'S', 'S', 'S', 'S', 'S', 'C', 'C', 'C', 'C', 'C', 'C', 'C', 'C', 'C', 'C', 'C', 'C', 'C', 'C', 'C', 'C']","[406206, 406774, 407346, 407905, 408524, 409065, 409665, 410196, 410734, 411278, 411838, 412323, 412839, 413361, 413883, 414382, 414930, 415453, 416001, 416526, 417061, 417571]","[406291, 406880, 407472, 408036, 408613, 409176, 409798, 410330, 410854, 411374, 411971, 412468, 412998, 413505, 414031, 414536, 415092, 415638, 416148, 416739, 417240, 417752]","[405023, 405623, 406223, 406823, 407424, 408024, 408624, 409223, 409691, 410222, 410761, 411304, 411864, 412350, 412865, 413386, 413908, 414407, 414956, 415478, 416026, 416551, 417088, 417597]",30,R,ITM,1.1,
4,600,trial,0,16,16,16,trial,"['S', 'S', 'S', 'S', 'S', 'S', 'C', 'C', 'C', 'C', 'C', 'C', 'C', 'C', 'C', 'C', 'C', 'C', 'C', 'C', 'C', 'C']","[423382, 424773, 425404, 425998, 426621, 427256, 427927, 428522, 429132, 429756, 430413, 431069, 431676, 432288, 432922, 433563, 434165, 434787, 435422, 436004, 436610, 437212]","[423557, 424897, 425536, 426165, 426799, 427412, 428042, 428674, 429303, 429932, 430544, 431211, 431769, 432450, 433074, 433710, 434309, 434923, 435561, 436194, 436791, 437440]","[423083, 423682, 424282, 424882, 425482, 426082, 426682, 427282, 427954, 428549, 429158, 429782, 430439, 431094, 431703, 432314, 432949, 433590, 434192, 434812, 435447, 436030, 436635, 437237]",30,R,ITM,1.1,
7,600,trial,0,17,17,17,trial,"['S', 'S', 'S', 'S', 'S', 'S', 'S', 'C', 'C', 'C', 'C', 'C', 'C', 'C', 'C', 'C', 'C', 'C', 'C', 'C', 'C', 'C', 'C']","[443275, 443790, 444443, 445015, 445684, 446303, 446857, 447452, 448041, 448658, 449171, 449848, 450393, 450941, 451519, 452085, 452674, 453282, 453889, 454451, 455051, 455588, 456163]","[443295, 443898, 444481, 445107, 445788, 446386, 446952, 447547, 448151, 448744, 449299, 449946, 450525, 451075, 451657, 452179, 452785, 453392, 454027, 454596, 455139, 455697, 456254]","[442720, 443319, 443919, 444519, 445119, 445719, 446319, 446919, 447478, 448069, 448685, 449198, 449875, 450419, 450969, 451547, 452113, 452702, 453310, 453916, 454478, 455077, 455615, 456189]",30,R,ITM,1.1,
2,600,trial,0,18,18,18,trial,"['S', 'S', 'S', 'S', 'S', 'S', 'C', 'C', 'C', 'C', 'C', 'C', 'C', 'C', 'C', 'C', 'C', 'C', 'C', 'C', 'C', 'C']","[465383, 465979, 466600, 467176, 467767, 468390, 469011, 469599, 470194, 470753, 471316, 471879, 472446, 472992, 473554, 474084, 474636, 475162, 475791, 476310, 476821, 477425]","[465483, 466081, 466700, 467299, 467876, 468500, 469130, 469720, 470326, 470851, 471430, 472001, 472582, 473115, 473677, 474218, 474777, 475315, 475902, 476492, 477033, 477548]","[464263, 464862, 465463, 466063, 466662, 467262, 467863, 468463, 469039, 469626, 470220, 470779, 471344, 471906, 472473, 473020, 473581, 474112, 474662, 475189, 475817, 476338, 476849, 477453]",30,R,ITM,1.1,
7,600,trial,0,19,19,19,trial,"['S', 'S', 'S', 'S', 'C', 'C', 'C', 'C', 'C', 'C', 'C', 'C', 'C', 'C', 'C', 'C', 'C', 'C', 'C', 'C']","[485258, 485855, 486466, 487103, 487771, 488381, 488993, 489590, 490218, 490799, 491351, 491921, 492468, 493076, 493645, 494220, 494786, 495347, 495879, 496441]","[485399, 486033, 486615, 487219, 487915, 488544, 489120, 489744, 490353, 490923, 491495, 492059, 492659, 493225, 493808, 494370, 494913, 495466, 496023, 496563]","[482977, 483576, 484176, 484776, 485377, 485977, 486577, 487176, 487798, 488408, 489021, 489618, 490245, 490825, 491378, 491948, 492495, 493104, 493673, 494246, 494814, 495374, 495906, 496468]",30,R,ITM,1.1,
3,400,trial,0,20,20,20,trial,"['S', 'S', 'S', 'S', 'S', 'S', 'S', 'C', 'C', 'C', 'C', 'C', 'C', 'C', 'C', 'C', 'C', 'C', 'C', 'C', 'C', 'C', 'C']","[502486, 502835, 503192, 503616, 503985, 504375, 504715, 505102, 505491, 505887, 506279, 506684, 507092, 507528, 507964, 508391, 508780, 509190, 509594, 509993, 510352, 510730, 511152]","[502590, 502964, 503351, 503732, 504143, 504529, 504892, 505265, 505647, 506061, 506447, 506847, 507296, 507689, 508165, 508549, 508973, 509375, 509798, 510163, 510564, 510954, 511347]","[502027, 502426, 502827, 503226, 503626, 504027, 504426, 504826, 505127, 505517, 505913, 506305, 506710, 507117, 507553, 507990, 508417, 508806, 509215, 509620, 510019, 510377, 510755, 511177]",30,R,ITM,1.1,
6,400,trial,0,21,21,21,trial,"['S', 'S', 'S', 'S', 'S', 'C', 'C', 'C', 'C', 'C', 'C', 'C', 'C', 'C', 'C', 'C', 'C', 'C', 'C', 'C', 'C']","[518062, 518475, 518884, 519321, 519758, 520131, 520517, 520898, 521274, 521661, 522095, 522475, 522860, 523247, 523634, 524023, 524397, 524783, 525213, 525629, 525986]","[518172, 518598, 519010, 519446, 519821, 520231, 520634, 521015, 521427, 521834, 522206, 522638, 523062, 523389, 523770, 524164, 524571, 524950, 525324, 525730, 526096]","[516959, 517358, 517758, 518158, 518558, 518959, 519358, 519758, 520158, 520544, 520925, 521300, 521688, 522123, 522502, 522887, 523275, 523662, 524051, 524424, 524810, 525240, 525657, 526014]",30,R,ITM,1.1,
3,600,trial,0,22,22,22,trial,"['S', 'S', 'S', 'S', 'C', 'C', 'C', 'C', 'C', 'C', 'C', 'C', 'C', 'C', 'C', 'C', 'C', 'C', 'C', 'C']","[533593, 534256, 534865, 535437, 536068, 536681, 537269, 537885, 538485, 539102, 539660, 540207, 540814, 541368, 541925, 542524, 543084, 543682, 544246, 544813]","[533711, 534368, 534977, 535574, 536202, 536818, 537438, 538008, 538620, 539202, 539782, 540414, 541009, 541513, 542047, 542688, 543262, 543840, 544393, 544963]","[531304, 531903, 532503, 533103, 533703, 534303, 534903, 535503, 536093, 536707, 537294, 537911, 538511, 539127, 539685, 540232, 540839, 541393, 541950, 542550, 543110, 543708, 544273, 544838]",30,R,ITM,1.1,
2,400,trial,0,23,23,23,trial,"['S', 'S', 'S', 'S', 'C', 'C', 'C', 'C', 'C', 'C', 'C', 'C', 'C', 'C', 'C', 'C', 'C', 'C', 'C', 'C']","[552062, 552471, 552879, 553289, 553693, 554094, 554486, 554923, 555331, 555703, 556106, 556509, 556924, 557324, 557712, 558106, 558530, 558932, 559345, 559744]","[552180, 552600, 553004, 553390, 553779, 554202, 554577, 555012, 555415, 555801, 556217, 556650, 557032, 557442, 557840, 558238, 558659, 559068, 559458, 559874]","[550544, 550944, 551345, 551744, 552143, 552544, 552943, 553345, 553719, 554122, 554514, 554950, 555359, 555729, 556133, 556535, 556952, 557351, 557739, 558133, 558557, 558958, 559373, 559771]",30,R,ITM,1.1,
4,400,trial,0,24,24,24,trial,"['S', 'S', 'S', 'S', 'S', 'S', 'C', 'C', 'C', 'C', 'C', 'C', 'C', 'C', 'C', 'C', 'C', 'C', 'C', 'C', 'C', 'C']","[565960, 566382, 566805, 567217, 567614, 567982, 568414, 568801, 569211, 569628, 570049, 570461, 570852, 571216, 571636, 572048, 572460, 572844, 573194, 573602, 574020, 574435]","[566079, 566521, 566957, 567351, 567745, 568124, 568505, 568914, 569367, 569759, 570153, 570588, 570981, 571371, 571788, 572221, 572581, 572962, 573345, 573759, 574211, 574642]","[565253, 565651, 566051, 566451, 566851, 567251, 567651, 568051, 568439, 568826, 569237, 569654, 570075, 570486, 570877, 571242, 571662, 572075, 572485, 572869, 573219, 573629, 574046, 574460]",30,R,ITM,1.1,
5,600,trial,0,25,25,25,trial,"['S', 'S', 'S', 'S', 'S', 'C', 'C', 'C', 'C', 'C', 'C', 'C', 'C', 'C', 'C', 'C', 'C', 'C', 'C', 'C', 'C']","[580448, 582413, 583040, 583612, 584243, 584905, 585485, 586086, 586689, 587252, 587898, 588465, 589070, 589702, 590303, 590836, 591473, 592047, 592649, 593284, 593874]","[580544, 582541, 583187, 583797, 584384, 585014, 585623, 586201, 586817, 587388, 588042, 588654, 589228, 589820, 590442, 591040, 591673, 592244, 592873, 593475, 594094]","[580119, 580718, 581318, 581918, 582518, 583118, 583718, 584318, 584931, 585510, 586112, 586715, 587278, 587924, 588491, 589096, 589727, 590328, 590862, 591500, 592072, 592674, 593309, 593900]",30,R,ITM,1.1,
5,400,trial,0,26,26,26,trial,"['S', 'S', 'S', 'S', 'S', 'C', 'C', 'C', 'C', 'C', 'C', 'C', 'C', 'C', 'C', 'C', 'C', 'C', 'C', 'C', 'C']","[599734, 600082, 600380, 601526, 601925, 602299, 602719, 603132, 603538, 603990, 604418, 604826, 605242, 605647, 606072, 606474, 606855, 607229, 607694, 608117, 608515]","[599797, 600181, 600500, 601643, 602054, 602457, 602877, 603288, 603688, 604161, 604624, 605001, 605396, 605827, 606260, 606651, 607011, 607434, 607886, 608283, 608680]","[599221, 599620, 600020, 600420, 600820, 601221, 601620, 602020, 602324, 602744, 603158, 603564, 604015, 604443, 604853, 605267, 605673, 606098, 606499, 606881, 607256, 607720, 608143, 608540]",30,R,ITM,1.1,
2,400,trial,0,27,27,27,trial,"['S', 'S', 'S', 'S', 'S', 'C', 'C', 'C', 'C', 'C', 'C', 'C', 'C', 'C', 'C', 'C', 'C', 'C', 'C', 'C', 'C']","[615034, 615791, 616214, 616591, 616968, 617369, 617754, 618164, 618539, 618915, 619286, 619698, 620073, 620487, 620884, 621291, 621714, 622100, 622521, 622883, 623305]","[615171, 615915, 616340, 616742, 617137, 617532, 617916, 618311, 618690, 619104, 619468, 619894, 620231, 620637, 621033, 621486, 621902, 622294, 622654, 623078, 623461]","[614270, 614670, 615070, 615471, 615870, 616270, 616670, 617071, 617397, 617782, 618191, 618565, 618942, 619314, 619725, 620101, 620514, 620912, 621319, 621742, 622127, 622547, 622910, 623333]",30,R,ITM,1.1,
6,600,trial,0,28,28,28,trial,"['S', 'S', 'S', 'S', 'C', 'C', 'C', 'C', 'C', 'C', 'C', 'C', 'C', 'C', 'C', 'C', 'C', 'C', 'C', 'C']","[631254, 631860, 632439, 633079, 633709, 634308, 634887, 635481, 636107, 636697, 637281, 637867, 638411, 638970, 639551, 640079, 640649, 641188, 641789, 642325]","[631435, 632089, 632705, 633296, 633853, 634526, 635057, 635623, 636269, 636879, 637434, 638025, 638605, 639176, 639724, 640287, 640800, 641402, 641960, 642500]","[628954, 629553, 630152, 630752, 631352, 631952, 632552, 633152, 633736, 634335, 634913, 635507, 636134, 636725, 637307, 637894, 638439, 638998, 639578, 640106, 640675, 641216, 641817, 642353]",30,R,ITM,1.1,
2,600,trial,0,29,29,29,trial,"['S', 'S', 'S', 'S', 'S', 'S', 'C', 'C', 'C', 'C', 'C', 'C', 'C', 'C', 'C', 'C', 'C', 'C', 'C', 'C', 'C', 'C']","[648718, 649344, 649965, 650591, 651194, 651767, 652419, 652968, 653524, 654069, 654575, 655097, 655637, 656138, 656616, 657115, 657591, 658075, 658551, 659027, 659484, 659899]","[648869, 649497, 650132, 650729, 651353, 652027, 652607, 653191, 653771, 654332, 654855, 655368, 655919, 656396, 656881, 657387, 657850, 658331, 658814, 659262, 659703, 660107]","[647641, 648241, 648841, 649441, 650041, 650640, 651241, 651840, 652445, 652996, 653552, 654097, 654603, 655125, 655665, 656165, 656644, 657142, 657617, 658102, 658578, 659055, 659512, 659927]",30,R,ITM,1.1,
5,600,trial,0,30,30,30,trial,"['S', 'S', 'S', 'S', 'S', 'S', 'S', 'C', 'C', 'C', 'C', 'C', 'C', 'C', 'C', 'C', 'C', 'C', 'C', 'C', 'C', 'C', 'C']","[667791, 668384, 669056, 669718, 670290, 670852, 671482, 672074, 672648, 673231, 673837, 674384, 674985, 675591, 676180, 676747, 677283, 677875, 678426, 678973, 679500, 680064, 680593]","[667958, 668613, 669218, 669898, 670492, 671038, 671724, 672264, 672857, 673406, 673961, 674563, 675123, 675722, 676357, 676916, 677474, 678060, 678600, 679226, 679736, 680333, 680833]","[667359, 667958, 668558, 669158, 669758, 670358, 670958, 671558, 672100, 672674, 673257, 673862, 674410, 675010, 675616, 676206, 676772, 677309, 677901, 678452, 678999, 679526, 680089, 680619]",30,R,ITM,1.1,
6,600,trial,0,31,31,31,trial,"['S', 'S', 'S', 'S', 'S', 'S', 'C', 'C', 'C', 'C', 'C', 'C', 'C', 'C', 'C', 'C', 'C', 'C', 'C', 'C', 'C', 'C']","[687239, 687904, 688508, 689182, 689707, 690281, 690846, 691421, 691999, 692578, 693106, 693680, 694248, 694821, 695427, 695977, 696534, 697098, 697673, 698232, 698790, 699379]","[687399, 688029, 688656, 689295, 689878, 690423, 691021, 691655, 692240, 692817, 693379, 693935, 694544, 695178, 695726, 696243, 696843, 697387, 697943, 698515, 699113]","[686167, 686766, 687366, 687966, 688566, 689166, 689766, 690366, 690874, 691447, 692027, 692604, 693133, 693707, 694276, 694849, 695453, 696003, 696561, 697125, 697701, 698259, 698818, 699406]",30,R,ITM,1.1,
5,400,trial,0,32,32,32,trial,"['S', 'S', 'S', 'S', 'S', 'S', 'S', 'C', 'C', 'C', 'C', 'C', 'C', 'C', 'C', 'C', 'C', 'C', 'C', 'C', 'C', 'C', 'C']","[705265, 705689, 706027, 706407, 706793, 707202, 707612, 708017, 708395, 708791, 709206, 709588, 709970, 710390, 710795, 711202, 711575, 712017, 712402, 712788, 713176, 713537, 713944]","[705402, 705804, 706170, 706544, 706954, 707356, 707751, 708171, 708560, 708952, 709352, 709757, 710123, 710540, 710928, 711343, 711720, 712098, 712546, 712928, 713312, 713726, 714104]","[704838, 705239, 705638, 706038, 706439, 706839, 707239, 707639, 708042, 708420, 708816, 709232, 709614, 709996, 710416, 710821, 711228, 711601, 712043, 712428, 712813, 713201, 713564, 713969]",30,R,ITM,1.1,
7,600,trial,0,33,33,33,trial,"['S', 'S', 'S', 'S', 'S', 'S', 'C', 'C', 'C', 'C', 'C', 'C', 'C', 'C', 'C', 'C', 'C', 'C', 'C', 'C', 'C', 'C']","[720882, 721490, 722074, 722663, 723230, 723782, 724442, 724980, 725533, 726107, 726700, 727225, 727759, 728297, 728817, 729325, 729835, 730324, 730841, 731363, 731907, 732400]","[721085, 721720, 722306, 722904, 723456, 724096, 724577, 725265, 725843, 726384, 726871, 727486, 727987, 728535, 729033, 729601, 730090, 730600, 731096, 731622, 732067, 732657]","[719751, 720350, 720950, 721550, 722150, 722750, 723350, 723950, 724469, 725007, 725560, 726134, 726726, 727252, 727786, 728324, 728844, 729352, 729862, 730350, 730867, 731389, 731933, 732427]",30,R,ITM,1.1,
7,400,trial,0,34,34,34,trial,"['S', 'S', 'S', 'S', 'C', 'C', 'C', 'C', 'C', 'C', 'C', 'C', 'C', 'C', 'C', 'C', 'C', 'C', 'C', 'C']","[739392, 739773, 740137, 740550, 740972, 741332, 741698, 742072, 742473, 742876, 743278, 743677, 744044, 744437, 744808, 745203, 745612, 745989, 746395, 746741]","[739492, 739905, 740276, 740676, 741109, 741469, 741846, 742200, 742615, 743020, 743413, 743817, 744171, 744576, 744943, 745363, 745769, 746172, 746519, 746906]","[737822, 738222, 738621, 739021, 739422, 739822, 740222, 740622, 740999, 741358, 741725, 742098, 742500, 742902, 743305, 743705, 744071, 744464, 744835, 745230, 745638, 746016, 746423, 746768]",30,R,ITM,1.1,
3,400,trial,0,35,35,35,trial,"['S', 'S', 'S', 'S', 'C', 'C', 'C', 'C', 'C', 'C', 'C', 'C', 'C', 'C', 'C', 'C', 'C', 'C', 'C', 'C']","[753859, 754291, 754718, 755127, 755546, 755969, 756374, 756789, 757199, 757590, 758010, 758433, 758827, 759235, 759636, 760074, 760486, 760893, 761280, 761705]","[753990, 754436, 754871, 755291, 755737, 756151, 756542, 756976, 757382, 757790, 758179, 758599, 759011, 759402, 759760, 760225, 760671, 761115, 761481, 761878]","[752327, 752728, 753127, 753527, 753927, 754327, 754727, 755127, 755571, 755994, 756400, 756814, 757225, 757615, 758036, 758459, 758852, 759261, 759662, 760099, 760512, 760919, 761306, 761731]",30,R,ITM,1.1,
7,600,trial,0,36,36,36,trial,"['S', 'S', 'S', 'S', 'S', 'S', 'C', 'C', 'C', 'C', 'C', 'C', 'C', 'C', 'C', 'C', 'C', 'C', 'C', 'C', 'C', 'C']","[768494, 769115, 769715, 770318, 770869, 771411, 771992, 772562, 773093, 773640, 774166, 774710, 775254, 775754, 776264, 776768, 777295, 777811, 778314, 778807, 779311, 779872]","[768632, 769203, 769900, 770505, 771051, 771625, 772160, 772780, 773283, 773854, 774356, 774929, 775425, 775963, 776444, 777003, 777505, 778060, 778528, 779046, 779553, 780121]","[767315, 767915, 768515, 769115, 769715, 770315, 770915, 771515, 772019, 772590, 773120, 773667, 774193, 774736, 775281, 775781, 776291, 776796, 777322, 777838, 778342, 778834, 779337, 779899]",30,R,ITM,1.1,
4,600,trial,0,37,37,37,trial,"['S', 'S', 'S', 'S', 'C', 'C', 'C', 'C', 'C', 'C', 'C', 'C', 'C', 'C', 'C', 'C', 'C', 'C', 'C', 'C']","[787597, 788216, 788818, 789488, 790013, 790562, 791149, 791741, 792382, 792938, 793510, 794072, 794638, 795222, 795751, 796298, 796880, 797467, 798012, 798524]","[787713, 788337, 788914, 789582, 790166, 790736, 791298, 791877, 792544, 793162, 793757, 794245, 794785, 795411, 795970, 796530, 797035, 797662, 798221, 798730]","[785299, 785898, 786498, 787098, 787698, 788298, 788898, 789498, 790039, 790588, 791175, 791767, 792408, 792964, 793536, 794097, 794663, 795247, 795777, 796323, 796906, 797493, 798038, 798550]",30,R,ITM,1.1,
5,600,trial,0,38,38,38,trial,"['S', 'S', 'S', 'S', 'C', 'C', 'C', 'C', 'C', 'C', 'C', 'C', 'C', 'C', 'C', 'C', 'C', 'C', 'C', 'C']","[806111, 806739, 807354, 807974, 808598, 809228, 809857, 810368, 810962, 811483, 812040, 812567, 813147, 813649, 814227, 814736, 815309, 815876, 816439, 816943]","[806251, 806907, 807541, 808154, 808723, 809388, 810020, 810582, 811157, 811685, 812237, 812769, 813344, 813839, 814398, 814912, 815517, 816054, 816617, 817108]","[803840, 804439, 805039, 805639, 806239, 806839, 807439, 808039, 808624, 809253, 809882, 810393, 810989, 811509, 812066, 812594, 813172, 813675, 814253, 814763, 815335, 815902, 816465, 816969]",30,R,ITM,1.1,
7,400,trial,0,39,39,39,trial,"['S', 'S', 'S', 'S', 'C', 'C', 'C', 'C', 'C', 'C', 'C', 'C', 'C', 'C', 'C', 'C', 'C', 'C', 'C', 'C']","[824156, 824589, 824982, 825403, 825804, 826228, 826634, 827057, 827451, 827846, 828251, 828669, 829084, 829474, 829874, 830272, 830627, 831078, 831497, 831904]","[824288, 824712, 825112, 825541, 825935, 826349, 826787, 827190, 827608, 828022, 828390, 828817, 829236, 829627, 830032, 830413, 830799, 831236, 831642, 832079]","[822640, 823040, 823439, 823839, 824240, 824639, 825039, 825439, 825831, 826255, 826660, 827084, 827478, 827873, 828278, 828696, 829112, 829502, 829901, 830300, 830654, 831105, 831523, 831931]",30,R,ITM,1.1,
2,400,trial,0,40,40,40,trial,"['S', 'S', 'S', 'S', 'C', 'C', 'C', 'C', 'C', 'C', 'C', 'C', 'C', 'C', 'C', 'C', 'C', 'C', 'C', 'C']","[838936, 839366, 839771, 840190, 840589, 840960, 841358, 841761, 842162, 842578, 842975, 843367, 843773, 844167, 844535, 844990, 845369, 845761, 846169, 846531]","[839077, 839538, 839929, 840356, 840745, 841137, 841522, 841943, 842317, 842707, 843110, 843505, 843936, 844326, 844716, 845115, 845576, 845942, 846297, 846680]","[837419, 837817, 838218, 838619, 839018, 839418, 839818, 840218, 840616, 840986, 841384, 841789, 842188, 842606, 843001, 843394, 843801, 844193, 844562, 845018, 845395, 845788, 846195, 846558]",30,R,ITM,1.1,
6,600,trial,0,41,41,41,trial,"['S', 'S', 'S', 'S', 'C', 'C', 'C', 'C', 'C', 'C', 'C', 'C', 'C', 'C', 'C', 'C', 'C', 'C', 'C', 'C']","[854277, 854893, 855504, 856057, 856727, 857305, 857931, 858585, 859197, 859750, 860333, 860911, 861457, 862051, 862603, 863177, 863755, 864267, 864859, 865460]","[854432, 855075, 855650, 856293, 856904, 857488, 858114, 858782, 859333, 859917, 860492, 861167, 861694, 862291, 862817, 863403, 863949, 864499, 865123, 865636]","[851945, 852544, 853144, 853744, 854344, 854944, 855544, 856144, 856754, 857331, 857959, 858611, 859225, 859777, 860359, 860938, 861485, 862077, 862630, 863204, 863781, 864293, 864886, 865487]",30,R,ITM,1.1,
4,600,trial,0,42,42,42,trial,"['S', 'S', 'S', 'S', 'C', 'C', 'C', 'C', 'C', 'C', 'C', 'C', 'C', 'C', 'C', 'C', 'C', 'C', 'C', 'C']","[878447, 879009, 879594, 880167, 880742, 881333, 881848, 882386, 882954, 883515, 884063, 884577, 885093, 885633, 886111, 886659, 887218, 887772, 888293, 888793]","[878595, 879187, 879770, 880357, 880928, 881556, 882113, 882648, 883191, 883740, 884298, 884754, 885355, 885898, 886408, 886931, 887492, 888048, 888482, 889018]","[876127, 876726, 877326, 877926, 878526, 879126, 879726, 880326, 880768, 881358, 881873, 882412, 882979, 883542, 884088, 884602, 885118, 885658, 886136, 886684, 887243, 887797, 888318, 888818]",30,R,ITM,1.1,
2,400,trial,0,43,43,43,trial,"['S', 'S', 'S', 'S', 'C', 'C', 'C', 'C', 'C', 'C', 'C', 'C', 'C', 'C', 'C', 'C', 'C', 'C', 'C', 'C']","[895741, 896186, 896581, 896983, 897375, 897774, 898173, 898542, 898974, 899380, 899787, 900201, 900581, 900976, 901380, 901784, 902200, 902619, 903064, 903458]","[895873, 896312, 896754, 897147, 897561, 897923, 898334, 898722, 899138, 899529, 899904, 900373, 900760, 901139, 901525, 901935, 902349, 902782, 903257, 903621]","[894211, 894609, 895010, 895410, 895810, 896210, 896610, 897009, 897401, 897802, 898200, 898569, 899001, 899407, 899815, 900228, 900608, 901003, 901407, 901812, 902226, 902646, 903092, 903485]",30,R,ITM,1.1,
4,400,trial,0,44,44,44,trial,"['S', 'S', 'S', 'S', 'C', 'C', 'C', 'C', 'C', 'C', 'C', 'C', 'C', 'C', 'C', 'C', 'C', 'C', 'C', 'C']","[910326, 910740, 911122, 911503, 911908, 912267, 912654, 913039, 913423, 913809, 914205, 914578, 914957, 915360, 915750, 916124, 916502, 916920, 917313, 917706]","[910467, 910916, 911291, 911674, 912088, 912450, 912836, 913233, 913601, 913984, 914328, 914751, 915141, 915529, 915934, 916318, 916700, 917089, 917475, 917913]","[908793, 909192, 909592, 909992, 910392, 910792, 911193, 911592, 911934, 912292, 912680, 913065, 913448, 913835, 914231, 914605, 914982, 915386, 915776, 916150, 916529, 916945, 917340, 917732]",30,R,ITM,1.1,
3,600,trial,0,45,45,45,trial,"['S', 'S', 'S', 'S', 'C', 'C', 'C', 'C', 'C', 'C', 'C', 'C', 'C', 'C', 'C', 'C', 'C', 'C', 'C', 'C']","[925372, 925947, 926526, 927106, 927703, 928309, 928861, 929433, 930002, 930565, 931122, 931691, 932272, 932818, 933380, 933928, 934439, 934995, 935525, 936089]","[925535, 926164, 926735, 927353, 927922, 928538, 929135, 929665, 930268, 930871, 931435, 931975, 932585, 933120, 933692, 934243, 934704, 935275, 935786, 936355]","[923027, 923627, 924227, 924827, 925427, 926027, 926627, 927227, 927728, 928334, 928886, 929459, 930028, 930590, 931147, 931718, 932297, 932844, 933405, 933954, 934465, 935021, 935550, 936115]",30,R,ITM,1.1,
4,400,trial,0,46,46,46,trial,"['S', 'S', 'S', 'S', 'C', 'C', 'C', 'C', 'C', 'C', 'C', 'C', 'C', 'C', 'C', 'C', 'C', 'C', 'C', 'C']","[943211, 943610, 944019, 944434, 944830, 945228, 945630, 946035, 946399, 946798, 947205, 947559, 947942, 948360, 948759, 949140, 949502, 949875, 950254, 950654]","[943324, 943781, 944196, 944595, 945004, 945438, 945813, 946194, 946593, 946987, 947388, 947756, 948197, 948560, 948973, 949329, 949700, 950065, 950407, 950852]","[941708, 942107, 942508, 942907, 943307, 943708, 944107, 944507, 944856, 945254, 945655, 946061, 946424, 946824, 947230, 947585, 947968, 948385, 948785, 949167, 949528, 949901, 950280, 950680]",30,R,ITM,1.1,
6,400,trial,0,47,47,47,trial,"['S', 'S', 'S', 'S', 'C', 'C', 'C', 'C', 'C', 'C', 'C', 'C', 'C', 'C', 'C', 'C', 'C', 'C', 'C', 'C']","[957704, 958131, 958538, 958957, 959339, 959735, 960138, 960506, 960880, 961281, 961687, 962046, 962437, 962824, 963209, 963606, 964001, 964402, 964803, 965159]","[957836, 958272, 958686, 959078, 959462, 959875, 960237, 960640, 961020, 961405, 961784, 962178, 962572, 962961, 963326, 963729, 964153, 964535, 964926, 965294]","[956196, 956595, 956995, 957395, 957795, 958195, 958596, 958995, 959366, 959763, 960164, 960533, 960907, 961307, 961714, 962074, 962463, 962850, 963235, 963633, 964029, 964428, 964830, 965186]",30,R,ITM,1.1,
5,400,trial,0,48,48,48,trial,"['S', 'S', 'S', 'S', 'C', 'C', 'C', 'C', 'C', 'C', 'C', 'C', 'C', 'C', 'C', 'C', 'C', 'C', 'C', 'C']","[971977, 972434, 972830, 973237, 973618, 973975, 974397, 974797, 975175, 975547, 975952, 976342, 976711, 977119, 977486, 977864, 978206, 978594, 979000, 979389]","[972101, 972559, 972955, 973358, 973742, 974106, 974514, 974941, 975328, 975668, 976089, 976463, 976883, 977259, 977649, 978003, 978363, 978755, 979137, 979545]","[970477, 970876, 971276, 971676, 972077, 972476, 972876, 973277, 973643, 974001, 974423, 974823, 975202, 975572, 975978, 976368, 976737, 977144, 977512, 977890, 978232, 978621, 979025, 979415]",30,R,ITM,1.1,
2,600,trial,0,49,49,49,trial,"['S', 'S', 'S', 'S', 'C', 'C', 'C', 'C', 'C', 'C', 'C', 'C', 'C', 'C', 'C', 'C', 'C', 'C', 'C', 'C']","[987506, 988172, 988720, 989301, 989925, 990503, 991082, 991638, 992212, 992784, 993329, 993913, 994445, 994989, 995566, 996124, 996671, 997229, 997836, 998353]","[987613, 988290, 988891, 989461, 990067, 990649, 991215, 991778, 992357, 992901, 993484, 994074, 994624, 995189, 995714, 996298, 996851, 997436, 998074, 998586]","[985196, 985796, 986396, 986996, 987596, 988195, 988796, 989395, 989953, 990530, 991110, 991665, 992240, 992811, 993356, 993941, 994472, 995016, 995594, 996152, 996699, 997257, 997864, 998381]",30,R,ITM,1.1,
6,400,trial,0,50,50,50,trial,"['S', 'S', 'S', 'S', 'C', 'C', 'C', 'C', 'C', 'C', 'C', 'C', 'C', 'C', 'C', 'C', 'C', 'C', 'C', 'C']","[1005219, 1005630, 1006030, 1006429, 1006818, 1007194, 1007614, 1007975, 1008417, 1008821, 1009220, 1009645, 1010034, 1010411, 1010798, 1011200, 1011622, 1012032, 1012439, 1012842]","[1005349, 1005785, 1006190, 1006563, 1006954, 1007326, 1007782, 1008129, 1008550, 1008969, 1009371, 1009782, 1010178, 1010558, 1010945, 1011322, 1011746, 1012200, 1012604, 1012978]","[1003692, 1004090, 1004490, 1004891, 1005290, 1005690, 1006090, 1006490, 1006844, 1007220, 1007640, 1008003, 1008445, 1008847, 1009247, 1009673, 1010061, 1010438, 1010826, 1011226, 1011649, 1012059, 1012466, 1012870]",30,R,ITM,1.1,
3,400,trial,0,51,51,51,trial,"['S', 'S', 'S', 'S', 'C', 'C', 'C', 'C', 'C', 'C', 'C', 'C', 'C', 'C', 'C', 'C', 'C', 'C', 'C', 'C']","[1020094, 1020500, 1020908, 1021314, 1021688, 1022094, 1022482, 1022885, 1023256, 1023650, 1024045, 1024427, 1024843, 1025286, 1025673, 1026058, 1026465, 1026855, 1027236, 1027662]","[1020215, 1020648, 1021056, 1021441, 1021821, 1022249, 1022656, 1023036, 1023423, 1023810, 1024229, 1024616, 1025003, 1025409, 1025850, 1026272, 1026611, 1027039, 1027412, 1027822]","[1018553, 1018953, 1019354, 1019753, 1020153, 1020553, 1020953, 1021353, 1021714, 1022119, 1022508, 1022911, 1023282, 1023676, 1024070, 1024452, 1024869, 1025311, 1025698, 1026083, 1026491, 1026881, 1027262, 1027688]",30,R,ITM,1.1,
2,600,trial,0,52,52,52,trial,"['S', 'S', 'S', 'S', 'C', 'C', 'C', 'C', 'C', 'C', 'C', 'C', 'C', 'C', 'C', 'C', 'C', 'C', 'C', 'C']","[1035616, 1036210, 1036784, 1037428, 1037997, 1038585, 1039156, 1039736, 1040285, 1040844, 1041391, 1041961, 1042525, 1043103, 1043605, 1044174, 1044724, 1045275, 1045769, 1046365]","[1035742, 1036374, 1036967, 1037597, 1038177, 1038770, 1039331, 1039881, 1040449, 1041001, 1041564, 1042092, 1042654, 1043283, 1043759, 1044368, 1044865, 1045468, 1045938, 1046569]","[1033289, 1033889, 1034489, 1035089, 1035689, 1036290, 1036890, 1037490, 1038024, 1038613, 1039182, 1039763, 1040313, 1040872, 1041418, 1041988, 1042551, 1043131, 1043633, 1044202, 1044751, 1045303, 1045796, 1046392]",30,R,ITM,1.1,
3,600,trial,0,53,53,53,trial,"['S', 'S', 'S', 'S', 'C', 'C', 'C', 'C', 'C', 'C', 'C', 'C', 'C', 'C', 'C', 'C', 'C', 'C', 'C', 'C']","[1054444, 1055043, 1055670, 1056256, 1056866, 1057418, 1058006, 1058545, 1059081, 1059676, 1060278, 1060816, 1061376, 1061927, 1062461, 1063022, 1063576, 1064079, 1064617, 1065178]","[1054595, 1055241, 1055840, 1056415, 1056994, 1057537, 1058098, 1058719, 1059252, 1059811, 1060417, 1060957, 1061527, 1062073, 1062603, 1063256, 1063715, 1064226, 1064836, 1065413]","[1052133, 1052732, 1053332, 1053932, 1054532, 1055132, 1055732, 1056332, 1056891, 1057443, 1058031, 1058571, 1059106, 1059701, 1060303, 1060842, 1061401, 1061953, 1062487, 1063048, 1063602, 1064104, 1064643, 1065203]",30,R,ITM,1.1,
5,600,trial,0,54,54,54,trial,"['S', 'S', 'S', 'S', 'C', 'C', 'C', 'C', 'C', 'C', 'C', 'C', 'C', 'C', 'C', 'C', 'C', 'C', 'C', 'C']","[1075191, 1075860, 1076486, 1077052, 1077693, 1078234, 1078799, 1079358, 1079953, 1080526, 1081073, 1081636, 1082248, 1082815, 1083401, 1083970, 1084581, 1085228, 1085853, 1086391]","[1075330, 1076014, 1076668, 1077215, 1077838, 1078477, 1079079, 1079595, 1080193, 1080798, 1081367, 1081907, 1082490, 1083063, 1083680, 1084265, 1084830, 1085405, 1086093]","[1072944, 1073543, 1074143, 1074743, 1075343, 1075943, 1076543, 1077143, 1077719, 1078259, 1078824, 1079385, 1079980, 1080553, 1081099, 1081662, 1082274, 1082841, 1083426, 1083996, 1084607, 1085253, 1085880, 1086416]",30,R,ITM,1.1,
7,600,trial,0,55,55,55,trial,"['S', 'S', 'S', 'S', 'C', 'C', 'C', 'C', 'C', 'C', 'C', 'C', 'C', 'C', 'C', 'C', 'C', 'C', 'C', 'C']","[1094061, 1094669, 1095274, 1095915, 1096452, 1097043, 1097694, 1098285, 1098912, 1099478, 1100062, 1100632, 1101214, 1101808, 1102405, 1102968, 1103552, 1104134, 1104724, 1105282]","[1094122, 1094745, 1095345, 1095962, 1096540, 1097136, 1097721, 1098351, 1098976, 1099548, 1100132, 1100718, 1101255, 1101882, 1102456, 1103046, 1103642, 1104208, 1104800, 1105353]","[1091707, 1092307, 1092908, 1093508, 1094108, 1094707, 1095307, 1095907, 1096478, 1097071, 1097721, 1098312, 1098939, 1099505, 1100089, 1100658, 1101241, 1101835, 1102432, 1102995, 1103579, 1104161, 1104752, 1105309]",30,R,ITM,1.1,
2,600,trial,0,56,56,56,trial,"['S', 'S', 'S', 'S', 'C', 'C', 'C', 'C', 'C', 'C', 'C', 'C', 'C', 'C', 'C', 'C', 'C', 'C', 'C', 'C']","[1112927, 1113542, 1114159, 1114782, 1115365, 1115936, 1116577, 1117139, 1117689, 1118298, 1118862, 1119442, 1120025, 1120589, 1121135, 1121729, 1122298, 1122828, 1123461, 1124080]","[1113024, 1113652, 1114268, 1114885, 1115486, 1116068, 1116681, 1117271, 1117836, 1118425, 1118980, 1119553, 1120128, 1120730, 1121276, 1121829, 1122425, 1122957, 1123537, 1124172]","[1110617, 1111216, 1111817, 1112417, 1113016, 1113617, 1114217, 1114817, 1115392, 1115964, 1116604, 1117167, 1117716, 1118325, 1118889, 1119470, 1120053, 1120616, 1121163, 1121757, 1122325, 1122854, 1123488, 1124107]",30,R,ITM,1.1,
3,600,trial,0,57,57,57,trial,"['S', 'S', 'S', 'S', 'C', 'C', 'C', 'C', 'C', 'C', 'C', 'C', 'C', 'C', 'C', 'C', 'C', 'C', 'C', 'C']","[1132030, 1132624, 1133196, 1133775, 1134385, 1134927, 1135485, 1136034, 1136625, 1137139, 1137709, 1138240, 1138868, 1139418, 1139959, 1140509, 1141023, 1141485, 1142040, 1142502]","[1132108, 1132697, 1133274, 1133871, 1134494, 1135058, 1135621, 1136157, 1136722, 1137245, 1137827, 1138352, 1138967, 1139540, 1140069, 1140643, 1141132, 1141637, 1142171, 1142606]","[1129667, 1130267, 1130867, 1131467, 1132067, 1132667, 1133267, 1133868, 1134410, 1134953, 1135511, 1136060, 1136651, 1137165, 1137734, 1138266, 1138893, 1139443, 1139985, 1140535, 1141049, 1141511, 1142066, 1142528]",30,R,ITM,1.1,
7,400,trial,0,58,58,58,trial,"['S', 'S', 'S', 'S', 'C', 'C', 'C', 'C', 'C', 'C', 'C', 'C', 'C', 'C', 'C', 'C', 'C', 'C', 'C', 'C', 'C']","[1149638, 1150055, 1150508, 1150901, 1151314, 1151678, 1152083, 1152471, 1152842, 1153248, 1153631, 1154031, 1154426, 1154822, 1155224, 1155585, 1156003, 1156365, 1156471, 1156756, 1157174]","[1149736, 1150174, 1150574, 1150967, 1151383, 1151773, 1152182, 1152557, 1152959, 1153342, 1153740, 1154140, 1154541, 1154944, 1155359, 1155706, 1156069, 1156391, 1156520, 1156890, 1157230]","[1148099, 1148498, 1148898, 1149298, 1149699, 1150098, 1150498, 1150899, 1151341, 1151705, 1152110, 1152497, 1152870, 1153275, 1153657, 1154058, 1154453, 1154849, 1155251, 1155612, 1156030, 1156391, 1156784, 1157200]",30,R,ITM,1.1,
4,600,trial,0,59,59,59,trial,"['S', 'S', 'S', 'S', 'C', 'C', 'C', 'C', 'C', 'C', 'C', 'C', 'C', 'C', 'C', 'C', 'C', 'C', 'C', 'C']","[1164829, 1165432, 1166071, 1166701, 1167328, 1167940, 1168541, 1169138, 1169763, 1170414, 1171016, 1171588, 1172238, 1172830, 1173467, 1174076, 1174650, 1175274, 1175922, 1176553]","[1164923, 1165520, 1166183, 1166812, 1167403, 1168014, 1168624, 1169217, 1169862, 1170519, 1171109, 1171744, 1172363, 1172981, 1173567, 1174185, 1174779, 1175422, 1176039, 1176678]","[1162520, 1163120, 1163720, 1164320, 1164920, 1165520, 1166120, 1166721, 1167353, 1167966, 1168567, 1169164, 1169788, 1170441, 1171043, 1171613, 1172263, 1172856, 1173492, 1174102, 1174676, 1175301, 1175948, 1176579]",30,R,ITM,1.1,
7,600,trial,0,60,60,60,trial,"['C', 'C', 'C', 'C', 'C', 'C', 'C', 'C', 'C', 'C', 'C', 'C', 'C', 'C', 'C', 'C']","[1187060, 1187650, 1188234, 1188780, 1189340, 1189954, 1190554, 1191206, 1191806, 1192340, 1192935, 1193489, 1194070, 1194580, 1195158, 1195717]","[1187139, 1187733, 1188325, 1188866, 1189438, 1190080, 1190656, 1191267, 1191912, 1192467, 1193011, 1193582, 1194168, 1194705, 1195264, 1195809]","[1182302, 1182900, 1183500, 1184100, 1184700, 1185300, 1185900, 1186500, 1187087, 1187678, 1188260, 1188807, 1189366, 1189981, 1190582, 1191233, 1191833, 1192368, 1192963, 1193516, 1194097, 1194607, 1195186, 1195745]",30,R,ITM,1.1,
4,400,trial,0,61,61,61,trial,"['S', 'S', 'S', 'S', 'C', 'C', 'C', 'C', 'C', 'C', 'C', 'C', 'C', 'C', 'C', 'C', 'C', 'C', 'C', 'C']","[1202595, 1203038, 1203436, 1203845, 1204253, 1204649, 1205049, 1205479, 1205866, 1206239, 1206647, 1207051, 1207452, 1207901, 1208296, 1208715, 1209080, 1209481, 1209873, 1210272]","[1202698, 1203111, 1203523, 1203931, 1204335, 1204758, 1205152, 1205582, 1205971, 1206364, 1206760, 1207147, 1207548, 1207974, 1208384, 1208824, 1209205, 1209620, 1210008, 1210408]","[1201096, 1201496, 1201895, 1202295, 1202695, 1203095, 1203495, 1203895, 1204279, 1204674, 1205074, 1205505, 1205892, 1206264, 1206673, 1207076, 1207478, 1207926, 1208322, 1208740, 1209106, 1209506, 1209900, 1210298]",30,R,ITM,1.1,
2,400,trial,0,62,62,62,trial,"['S', 'S', 'S', 'S', 'C', 'C', 'C', 'C', 'C', 'C', 'C', 'C', 'C', 'C', 'C', 'C', 'C', 'C', 'C', 'C']","[1217605, 1218022, 1218423, 1218833, 1219190, 1219577, 1219992, 1220400, 1220757, 1221167, 1221570, 1221953, 1222347, 1222751, 1223143, 1223549, 1223941, 1224316, 1224695, 1225120]","[1217683, 1218099, 1218495, 1218915, 1219289, 1219651, 1220019, 1220478, 1220862, 1221265, 1221675, 1222060, 1222491, 1222899, 1223258, 1223667, 1224067, 1224449, 1224816, 1225230]","[1216033, 1216434, 1216832, 1217233, 1217633, 1218033, 1218434, 1218833, 1219217, 1219604, 1220019, 1220427, 1220785, 1221194, 1221597, 1221981, 1222374, 1222778, 1223171, 1223577, 1223967, 1224343, 1224722, 1225147]",30,R,ITM,1.1,
6,600,trial,0,63,63,63,trial,"['S', 'S', 'S', 'S', 'C', 'C', 'C', 'C', 'C', 'C', 'C', 'C', 'C', 'C', 'C', 'C', 'C', 'C', 'C', 'C']","[1233181, 1233802, 1234403, 1234985, 1235566, 1236188, 1236749, 1237361, 1237931, 1238494, 1239059, 1239643, 1240322, 1240907, 1241447, 1242031, 1242558, 1243126, 1243644, 1244171]","[1233313, 1233944, 1234586, 1235149, 1235739, 1236347, 1236936, 1237565, 1238124, 1238688, 1239250, 1239830, 1240491, 1241119, 1241637, 1242235, 1242787, 1243369, 1243864]","[1230849, 1231449, 1232049, 1232648, 1233248, 1233848, 1234448, 1235048, 1235593, 1236215, 1236776, 1237388, 1237958, 1238520, 1239086, 1239669, 1240348, 1240935, 1241474, 1242057, 1242585, 1243154, 1243672, 1244197]",30,R,ITM,1.1,
5,400,trial,0,64,64,64,trial,"['S', 'C', 'C', 'C', 'C', 'C', 'C', 'C', 'C', 'C', 'C', 'C', 'C', 'C', 'C', 'C', 'C']","[1252159, 1253093, 1253493, 1253886, 1254277, 1254662, 1255063, 1255450, 1255844, 1256250, 1256658, 1257055, 1257425, 1257826, 1258224, 1258605, 1258979]","[1252222, 1253189, 1253602, 1254020, 1254396, 1254788, 1255192, 1255592, 1255973, 1256383, 1256796, 1257176, 1257559, 1257993, 1258366, 1258727, 1259120]","[1249942, 1250341, 1250741, 1251141, 1251542, 1251941, 1252341, 1252742, 1253118, 1253520, 1253912, 1254302, 1254687, 1255089, 1255476, 1255870, 1256275, 1256684, 1257080, 1257451, 1257852, 1258250, 1258631, 1259004]",30,R,ITM,1.1,
3,400,trial,0,65,65,65,trial,"['C', 'C', 'C', 'C', 'C', 'C', 'C', 'C', 'C', 'C', 'C', 'C', 'C', 'C', 'C', 'C']","[1267683, 1268087, 1268473, 1268889, 1269288, 1269694, 1270095, 1270503, 1270915, 1271294, 1271709, 1272117, 1272526, 1272925, 1273325, 1273732]","[1267776, 1268202, 1268588, 1269016, 1269440, 1269836, 1270226, 1270620, 1271008, 1271443, 1271833, 1272238, 1272652, 1273056, 1273497, 1273867]","[1264528, 1264927, 1265328, 1265727, 1266127, 1266527, 1266927, 1267328, 1267708, 1268114, 1268499, 1268915, 1269314, 1269720, 1270121, 1270529, 1270940, 1271320, 1271735, 1272142, 1272552, 1272950, 1273351, 1273757]",30,R,ITM,1.1,
4,600,trial,0,66,66,66,trial,"['C', 'C', 'C', 'C', 'C', 'C', 'C', 'C', 'C', 'C', 'C', 'C', 'C', 'C', 'C', 'C']","[1284254, 1284840, 1285441, 1286075, 1286668, 1287278, 1287880, 1288465, 1289092, 1289646, 1290288, 1290889, 1291475, 1292097, 1292666, 1293260]","[1284389, 1285018, 1285595, 1286215, 1286829, 1287444, 1288018, 1288657, 1289260, 1289839, 1290459, 1291080, 1291654, 1292259, 1292874, 1293479]","[1279539, 1280138, 1280738, 1281338, 1281938, 1282538, 1283138, 1283738, 1284280, 1284867, 1285467, 1286100, 1286693, 1287304, 1287906, 1288491, 1289117, 1289671, 1290313, 1290914, 1291501, 1292123, 1292692, 1293286]",30,R,ITM,1.1,
2,400,trial,0,67,67,67,trial,"['C', 'C', 'C', 'C', 'C', 'C', 'C', 'C', 'C', 'C', 'C', 'C', 'C', 'C', 'C', 'C']","[1302011, 1302413, 1302801, 1303198, 1303620, 1304019, 1304452, 1304875, 1305287, 1305665, 1306079, 1306497, 1306889, 1307284, 1307706, 1308120]","[1302126, 1302540, 1302937, 1303313, 1303746, 1304144, 1304572, 1305022, 1305440, 1305831, 1306247, 1306626, 1307052, 1307447, 1307877, 1308233]","[1298880, 1299279, 1299680, 1300080, 1300480, 1300879, 1301279, 1301681, 1302038, 1302440, 1302829, 1303225, 1303647, 1304046, 1304479, 1304901, 1305314, 1305693, 1306106, 1306523, 1306915, 1307312, 1307734, 1308146]",30,R,ITM,1.1,
6,400,trial,0,68,68,68,trial,"['C', 'C', 'C', 'C', 'C', 'C', 'C', 'C', 'C', 'C', 'C', 'C', 'C', 'C', 'C', 'C']","[1316943, 1317355, 1317772, 1318171, 1318564, 1318975, 1319389, 1319801, 1320199, 1320632, 1321059, 1321470, 1321882, 1322283, 1322691, 1323111]","[1317039, 1317465, 1317819, 1318274, 1318696, 1319084, 1319515, 1319897, 1320329, 1320760, 1321180, 1321603, 1322011, 1322408, 1322813, 1323217]","[1313814, 1314213, 1314613, 1315013, 1315414, 1315813, 1316213, 1316614, 1316971, 1317382, 1317799, 1318199, 1318591, 1319002, 1319415, 1319828, 1320225, 1320659, 1321085, 1321497, 1321909, 1322309, 1322718, 1323138]",30,R,ITM,1.1,
4,400,trial,0,69,69,69,trial,"['C', 'C', 'C', 'C', 'C', 'C', 'C', 'C', 'C', 'C', 'C', 'C', 'C', 'C', 'C', 'C']","[1331867, 1332256, 1332658, 1333056, 1333445, 1333852, 1334237, 1334618, 1335025, 1335430, 1335804, 1336193, 1336570, 1336965, 1337384, 1337736]","[1331988, 1332391, 1332763, 1333178, 1333561, 1333972, 1334376, 1334737, 1335164, 1335565, 1335925, 1336293, 1336701, 1337092, 1337488, 1337892]","[1328728, 1329126, 1329526, 1329927, 1330327, 1330727, 1331127, 1331527, 1331893, 1332282, 1332683, 1333082, 1333471, 1333878, 1334262, 1334643, 1335051, 1335455, 1335830, 1336218, 1336596, 1336990, 1337411, 1337761]",30,R,ITM,1.1,
5,400,trial,0,70,70,70,trial,"['C', 'C', 'C', 'C', 'C', 'C', 'C', 'C', 'C', 'C', 'C', 'C', 'C', 'C', 'C', 'C']","[1346469, 1346845, 1347226, 1347585, 1347969, 1348367, 1348750, 1349139, 1349551, 1349935, 1350337, 1350736, 1351086, 1351472, 1351874, 1352274]","[1346594, 1346984, 1347359, 1347748, 1348139, 1348542, 1348939, 1349337, 1349691, 1350084, 1350505, 1350854, 1351236, 1351620, 1352008, 1352394]","[1343350, 1343750, 1344149, 1344549, 1344949, 1345349, 1345750, 1346149, 1346495, 1346872, 1347252, 1347610, 1347994, 1348392, 1348775, 1349165, 1349576, 1349961, 1350364, 1350763, 1351111, 1351497, 1351900, 1352300]",30,R,ITM,1.1,
6,400,trial,0,71,71,71,trial,"['C', 'C', 'C', 'C', 'C', 'C', 'C', 'C', 'C', 'C', 'C', 'C', 'C', 'C', 'C', 'C']","[1360946, 1361321, 1361717, 1362100, 1362473, 1362869, 1363265, 1363680, 1364070, 1364455, 1364865, 1365253, 1365601, 1366013, 1366401, 1366755]","[1360973, 1361457, 1361820, 1362180, 1362575, 1362988, 1363376, 1363786, 1364186, 1364567, 1364946, 1365347, 1365711, 1366103, 1366521, 1366879]","[1357834, 1358233, 1358633, 1359033, 1359433, 1359834, 1360233, 1360633, 1360973, 1361348, 1361743, 1362126, 1362500, 1362896, 1363292, 1363706, 1364097, 1364483, 1364891, 1365280, 1365627, 1366040, 1366427, 1366781]",30,R,ITM,1.1,
3,600,trial,0,72,72,72,trial,"['C', 'C', 'C', 'C', 'C', 'C', 'C', 'C', 'C', 'C', 'C', 'C', 'C', 'C', 'C', 'C']","[1377303, 1377888, 1378487, 1379147, 1379762, 1380354, 1381010, 1381624, 1382233, 1382809, 1383395, 1384001, 1384542, 1385217, 1385778, 1386451]","[1377397, 1378024, 1378650, 1379282, 1379977, 1380555, 1381154, 1381784, 1382411, 1383036, 1383578, 1384240, 1384786, 1385426, 1386044, 1386663]","[1372522, 1373122, 1373722, 1374322, 1374922, 1375522, 1376122, 1376722, 1377329, 1377913, 1378512, 1379173, 1379787, 1380379, 1381036, 1381650, 1382258, 1382835, 1383420, 1384027, 1384567, 1385242, 1385803, 1386477]",30,R,ITM,1.1,
3,400,trial,0,73,73,73,trial,"['C', 'C', 'C', 'C', 'C', 'C', 'C', 'C', 'C', 'C', 'C', 'C', 'C', 'C', 'C', 'C']","[1394922, 1395316, 1395684, 1396058, 1396457, 1396889, 1397274, 1397691, 1398056, 1398423, 1398815, 1399215, 1399607, 1399999, 1400394, 1400804]","[1395045, 1395453, 1395837, 1396213, 1396619, 1397043, 1397489, 1397833, 1398217, 1398618, 1398965, 1399369, 1399735, 1400138, 1400525, 1400911]","[1391790, 1392189, 1392589, 1392989, 1393389, 1393789, 1394189, 1394589, 1394948, 1395342, 1395709, 1396083, 1396483, 1396915, 1397300, 1397716, 1398082, 1398449, 1398841, 1399240, 1399632, 1400025, 1400420, 1400829]",30,R,ITM,1.1,
5,600,trial,0,74,74,74,trial,"['C', 'C', 'C', 'C', 'C', 'C', 'C', 'C', 'C', 'C', 'C', 'C', 'C', 'C', 'C', 'C']","[1411025, 1411568, 1412145, 1412723, 1413303, 1413848, 1414415, 1414904, 1415482, 1415985, 1416515, 1416994, 1417583, 1418098, 1418681, 1419198]","[1411180, 1411819, 1412401, 1412956, 1413508, 1414095, 1414618, 1415144, 1415732, 1416217, 1416798, 1417303, 1417835, 1418344, 1418928]","[1406272, 1406871, 1407471, 1408071, 1408671, 1409271, 1409871, 1410471, 1411051, 1411594, 1412170, 1412749, 1413328, 1413873, 1414441, 1414930, 1415508, 1416010, 1416541, 1417021, 1417609, 1418125, 1418706, 1419224]",30,R,ITM,1.1,
2,600,trial,0,75,75,75,trial,"['C', 'C', 'C', 'C', 'C', 'C', 'C', 'C', 'C', 'C', 'C', 'C', 'C', 'C', 'C', 'C', 'C']","[1429337, 1429894, 1430437, 1430965, 1431506, 1431991, 1432428, 1432740, 1432958, 1433158, 1434178, 1434727, 1435195, 1435714, 1436223, 1436739, 1437275]","[1429466, 1430088, 1430575, 1431179, 1431680, 1432218, 1432589, 1432811, 1432978, 1433186, 1434269, 1434904, 1435426, 1435970, 1436463, 1437006, 1437532]","[1424634, 1425233, 1425835, 1426434, 1427034, 1427634, 1428234, 1428834, 1429364, 1429921, 1430464, 1430992, 1431534, 1432018, 1432456, 1432767, 1433186, 1434205, 1434755, 1435223, 1435742, 1436250, 1436767, 1437302]",30,R,ITM,1.1,
6,600,trial,0,76,76,76,trial,"['C', 'C', 'C', 'C', 'C', 'C', 'C', 'C', 'C', 'C', 'C', 'C', 'C', 'C', 'C', 'C']","[1447379, 1447915, 1448451, 1449046, 1449625, 1450206, 1450808, 1451398, 1451994, 1452599, 1453173, 1453771, 1454317, 1454881, 1455470, 1456069]","[1447483, 1448076, 1448636, 1449242, 1449802, 1450416, 1451033, 1451577, 1452174, 1452769, 1453434, 1453999, 1454522, 1455158, 1455690, 1456225]","[1442634, 1443233, 1443833, 1444433, 1445033, 1445634, 1446234, 1446834, 1447407, 1447942, 1448478, 1449072, 1449653, 1450232, 1450834, 1451424, 1452020, 1452625, 1453200, 1453799, 1454345, 1454908, 1455497, 1456097]",30,R,ITM,1.1,
7,400,trial,0,77,77,77,trial,"['C', 'C', 'C', 'C', 'C', 'C', 'C', 'C', 'C', 'C', 'C', 'C', 'C', 'C', 'C', 'C']","[1464909, 1465312, 1465762, 1466202, 1466594, 1467006, 1467424, 1467832, 1468249, 1468689, 1469140, 1469529, 1469940, 1470366, 1470819, 1471194]","[1465015, 1465446, 1465839, 1466294, 1466722, 1467128, 1467520, 1467940, 1468347, 1468783, 1469244, 1469705, 1470125, 1470489, 1470928, 1471314]","[1461758, 1462157, 1462557, 1462958, 1463357, 1463757, 1464158, 1464558, 1464936, 1465339, 1465790, 1466228, 1466620, 1467032, 1467452, 1467858, 1468276, 1468716, 1469167, 1469555, 1469968, 1470393, 1470846, 1471221]",30,R,ITM,1.1,
4,400,trial,0,78,78,78,trial,"['C', 'C', 'C', 'C', 'C', 'C', 'C', 'C', 'C', 'C', 'C', 'C', 'C', 'C', 'C', 'C']","[1480066, 1480444, 1480856, 1481250, 1481652, 1482059, 1482431, 1482833, 1483242, 1483638, 1484046, 1484431, 1484845, 1485210, 1485633, 1486044]","[1480174, 1480576, 1480977, 1481403, 1481789, 1482190, 1482575, 1482980, 1483381, 1483759, 1484188, 1484606, 1485012, 1485403, 1485812, 1486187]","[1476905, 1477305, 1477705, 1478106, 1478505, 1478905, 1479305, 1479705, 1480092, 1480470, 1480882, 1481276, 1481677, 1482085, 1482457, 1482860, 1483268, 1483664, 1484071, 1484456, 1484870, 1485236, 1485659, 1486069]",30,R,ITM,1.1,
4,600,trial,0,79,79,79,trial,"['C', 'C', 'C', 'C', 'C', 'C', 'C', 'C', 'C', 'C', 'C', 'C', 'C', 'C', 'C', 'C']","[1496181, 1496792, 1497382, 1497946, 1498568, 1499216, 1499791, 1500392, 1500998, 1501629, 1502224, 1502797, 1503429, 1504057, 1504637, 1505266]","[1496347, 1496985, 1497543, 1498181, 1498781, 1499437, 1500033, 1500632, 1501243, 1501877, 1502484, 1503084, 1503649, 1504258, 1504823, 1505423]","[1491415, 1492015, 1492615, 1493215, 1493815, 1494415, 1495015, 1495615, 1496207, 1496817, 1497408, 1497971, 1498594, 1499242, 1499816, 1500418, 1501024, 1501655, 1502249, 1502823, 1503455, 1504082, 1504664, 1505292]",30,R,ITM,1.1,
4,600,trial,0,80,80,80,trial,"['C', 'C', 'C', 'C', 'C', 'C', 'C', 'C', 'C', 'C', 'C', 'C', 'C', 'C', 'C', 'C']","[1515801, 1516386, 1516991, 1517561, 1518200, 1518771, 1519381, 1519948, 1520540, 1521125, 1521729, 1522305, 1522873, 1523513, 1524105, 1524711]","[1515948, 1516567, 1517126, 1517775, 1518425, 1519038, 1519613, 1520141, 1520782, 1521355, 1521986, 1522566, 1523139, 1523786, 1524381]","[1511037, 1511636, 1512237, 1512837, 1513437, 1514037, 1514637, 1515237, 1515827, 1516411, 1517017, 1517587, 1518226, 1518796, 1519407, 1519974, 1520567, 1521150, 1521755, 1522330, 1522899, 1523539, 1524130, 1524737]",30,R,ITM,1.1,
7,600,trial,0,81,81,81,trial,"['C', 'C', 'C', 'C', 'C', 'C', 'C', 'C', 'C', 'C', 'C', 'C', 'C', 'C', 'C', 'C']","[1535167, 1535787, 1536427, 1537021, 1537678, 1538347, 1538966, 1539527, 1540119, 1540777, 1541409, 1542021, 1542645, 1543285, 1543898, 1544479]","[1535294, 1535945, 1536582, 1537183, 1537810, 1538470, 1539143, 1539707, 1540355, 1540938, 1541534, 1542173, 1542794, 1543424, 1544014, 1544632]","[1530357, 1530956, 1531556, 1532156, 1532756, 1533357, 1533957, 1534557, 1535195, 1535813, 1536453, 1537049, 1537704, 1538374, 1538993, 1539555, 1540147, 1540804, 1541436, 1542047, 1542672, 1543313, 1543925, 1544506]",30,R,ITM,1.1,
3,400,trial,0,82,82,82,trial,"['C', 'C', 'C', 'C', 'C', 'C', 'C', 'C', 'C', 'C', 'C', 'C', 'C', 'C', 'C', 'C']","[1553378, 1553783, 1554188, 1554608, 1555018, 1555469, 1555896, 1556296, 1556696, 1557103, 1557506, 1557941, 1558359, 1558814, 1559200, 1559589]","[1553482, 1553920, 1554347, 1554762, 1555167, 1555580, 1556009, 1556444, 1556854, 1557288, 1557660, 1558105, 1558559, 1558930, 1559340, 1559771]","[1550166, 1550564, 1550964, 1551365, 1551764, 1552164, 1552564, 1552964, 1553403, 1553809, 1554213, 1554633, 1555045, 1555494, 1555921, 1556322, 1556721, 1557129, 1557531, 1557966, 1558384, 1558840, 1559226, 1559615]",30,R,ITM,1.1,
6,600,trial,0,83,83,83,trial,"['C', 'C', 'C', 'C', 'C', 'C', 'C', 'C', 'C', 'C', 'C', 'C', 'C', 'C', 'C', 'C']","[1569725, 1570351, 1570951, 1571492, 1572134, 1572756, 1573360, 1573943, 1574551, 1575100, 1575705, 1576294, 1576896, 1577499, 1578062, 1578616]","[1569852, 1570524, 1571096, 1571663, 1572297, 1572905, 1573506, 1574098, 1574722, 1575283, 1575874, 1576457, 1577064, 1577651, 1578245, 1578820]","[1564965, 1565564, 1566164, 1566765, 1567365, 1567965, 1568564, 1569164, 1569752, 1570377, 1570978, 1571520, 1572161, 1572783, 1573387, 1573969, 1574579, 1575127, 1575732, 1576322, 1576924, 1577526, 1578089, 1578644]",30,R,ITM,1.1,
7,400,trial,0,84,84,84,trial,"['C', 'C', 'C', 'C', 'C', 'C', 'C', 'C', 'C', 'C', 'C', 'C', 'C', 'C', 'C', 'C']","[1587595, 1588013, 1588412, 1588804, 1589213, 1589621, 1590080, 1590493, 1590906, 1591311, 1591717, 1592103, 1592484, 1592862, 1593268, 1593630]","[1587700, 1588111, 1588536, 1588920, 1589346, 1589760, 1590168, 1590662, 1591064, 1591475, 1591894, 1592267, 1592653, 1593056, 1593423, 1593805]","[1584425, 1584824, 1585224, 1585625, 1586024, 1586424, 1586824, 1587224, 1587622, 1588040, 1588439, 1588831, 1589239, 1589649, 1590108, 1590519, 1590933, 1591337, 1591745, 1592131, 1592511, 1592889, 1593294, 1593657]",30,R,ITM,1.1,
2,400,trial,0,85,85,85,trial,"['C', 'C', 'C', 'C', 'C', 'C', 'C', 'C', 'C', 'C', 'C', 'C', 'C', 'C', 'C', 'C']","[1602432, 1602843, 1603229, 1603615, 1604019, 1604381, 1604773, 1605172, 1605547, 1605952, 1606342, 1606727, 1607130, 1607536, 1607916, 1608320]","[1602539, 1602962, 1603357, 1603783, 1604175, 1604585, 1604960, 1605339, 1605744, 1606119, 1606534, 1606862, 1607246, 1607639, 1608080, 1608444]","[1599271, 1599671, 1600070, 1600472, 1600871, 1601271, 1601672, 1602071, 1602459, 1602870, 1603256, 1603642, 1604046, 1604408, 1604801, 1605198, 1605574, 1605979, 1606370, 1606755, 1607157, 1607563, 1607944, 1608347]",30,R,ITM,1.1,
7,400,trial,0,86,86,86,trial,"['C', 'C', 'C', 'C', 'C', 'C', 'C', 'C', 'C', 'C', 'C', 'C', 'C', 'C', 'C', 'C']","[1617170, 1617589, 1617965, 1618360, 1618771, 1619181, 1619577, 1619970, 1620362, 1620745, 1621134, 1621523, 1621878, 1622277, 1622662, 1623061]","[1617302, 1617702, 1618108, 1618515, 1618897, 1619329, 1619705, 1620141, 1620523, 1620936, 1621306, 1621685, 1622054, 1622414, 1622791, 1623183]","[1614021, 1614420, 1614820, 1615220, 1615621, 1616020, 1616420, 1616820, 1617197, 1617615, 1617991, 1618387, 1618798, 1619208, 1619604, 1619996, 1620388, 1620771, 1621160, 1621550, 1621906, 1622303, 1622689, 1623089]",30,R,ITM,1.1,
6,400,trial,0,87,87,87,trial,"['C', 'C', 'C', 'C', 'C', 'C', 'C', 'C', 'C', 'C', 'C', 'C', 'C', 'C', 'C', 'C']","[1631792, 1632172, 1632572, 1632934, 1633312, 1633696, 1634080, 1634480, 1634882, 1635255, 1635643, 1636039, 1636428, 1636830, 1637220, 1637598]","[1631937, 1632317, 1632705, 1633098, 1633470, 1633864, 1634273, 1634643, 1635082, 1635460, 1635836, 1636233, 1636630, 1637022, 1637416, 1637760]","[1628634, 1629032, 1629432, 1629832, 1630232, 1630632, 1631032, 1631432, 1631818, 1632199, 1632599, 1632961, 1633340, 1633724, 1634108, 1634507, 1634910, 1635282, 1635671, 1636066, 1636455, 1636856, 1637248, 1637624]",30,R,ITM,1.1,
5,600,trial,0,88,88,88,trial,"['S', 'S', 'S', 'S', 'C', 'C', 'C', 'C', 'C', 'C', 'C', 'C', 'C', 'C', 'C', 'C', 'C', 'C', 'C', 'C']","[1645772, 1646321, 1646904, 1647537, 1648186, 1648798, 1649374, 1650006, 1650619, 1651194, 1651800, 1652409, 1653063, 1653709, 1654285, 1654876, 1655463, 1656059, 1656614, 1657201]","[1645885, 1646512, 1647111, 1647694, 1648366, 1649014, 1649601, 1650225, 1650854, 1651471, 1652100, 1652744, 1653403, 1654016, 1654578, 1655212, 1655786, 1656321, 1656833, 1657446]","[1643388, 1643988, 1644589, 1645189, 1645789, 1646389, 1646989, 1647589, 1648211, 1648824, 1649399, 1650032, 1650644, 1651221, 1651825, 1652434, 1653089, 1653735, 1654311, 1654901, 1655489, 1656085, 1656640, 1657227]",30,R,ITM,1.1,
2,600,trial,0,89,89,89,trial,"['C', 'C', 'C', 'C', 'C', 'C', 'C', 'C', 'C', 'C', 'C', 'C', 'C', 'C', 'C', 'C']","[1667459, 1668085, 1668706, 1669305, 1669903, 1670578, 1671195, 1671743, 1672341, 1672919, 1673491, 1674074, 1674674, 1675277, 1675857, 1676438]","[1667575, 1668222, 1668796, 1669445, 1670087, 1670733, 1671399, 1671964, 1672648, 1673184, 1673768, 1674359, 1674963, 1675550, 1676157]","[1662675, 1663276, 1663876, 1664476, 1665075, 1665675, 1666276, 1666876, 1667485, 1668113, 1668732, 1669331, 1669931, 1670604, 1671223, 1671771, 1672369, 1672946, 1673519, 1674100, 1674701, 1675303, 1675885, 1676465]",30,R,ITM,1.1,
5,400,trial,0,90,90,90,trial,"['C', 'C', 'C', 'C', 'C', 'C', 'C', 'C', 'C', 'C', 'C', 'C', 'C', 'C', 'C', 'C']","[1685141, 1685517, 1685914, 1686308, 1686709, 1687090, 1687515, 1687916, 1688305, 1688742, 1689134, 1689531, 1689936, 1690344, 1690719, 1691091]","[1685278, 1685688, 1686078, 1686491, 1686885, 1687277, 1687658, 1688093, 1688509, 1688922, 1689372, 1689728, 1690151, 1690504, 1690925, 1691279]","[1681981, 1682380, 1682781, 1683181, 1683581, 1683981, 1684381, 1684782, 1685167, 1685542, 1685940, 1686334, 1686734, 1687116, 1687540, 1687942, 1688332, 1688768, 1689160, 1689558, 1689962, 1690370, 1690744, 1691118]",30,R,ITM,1.1,
6,400,trial,0,91,91,91,trial,"['C', 'C', 'C', 'C', 'C', 'C', 'C', 'C', 'C', 'C', 'C', 'C', 'C', 'C', 'C', 'C']","[1699609, 1699989, 1700380, 1700786, 1701177, 1701565, 1701927, 1702332, 1702743, 1703119, 1703493, 1703898, 1704276, 1704645, 1705064, 1705467]","[1699749, 1700153, 1700537, 1700942, 1701305, 1701709, 1702110, 1702497, 1702908, 1703290, 1703671, 1704043, 1704443, 1704836, 1705244, 1705607]","[1696484, 1696883, 1697284, 1697683, 1698083, 1698483, 1698883, 1699283, 1699636, 1700017, 1700407, 1700813, 1701204, 1701593, 1701954, 1702359, 1702770, 1703146, 1703520, 1703925, 1704303, 1704672, 1705091, 1705495]",30,R,ITM,1.1,
5,600,trial,0,92,92,92,trial,"['C', 'C', 'C', 'C', 'C', 'C', 'C', 'C', 'C', 'C', 'C', 'C', 'C', 'C', 'C', 'C']","[1715869, 1716491, 1717066, 1717645, 1718193, 1718819, 1719372, 1719934, 1720580, 1721225, 1721763, 1722298, 1722878, 1723442, 1724004, 1724589]","[1715997, 1716628, 1717271, 1717863, 1718457, 1719071, 1719682, 1720249, 1720888, 1721466, 1721985, 1722514, 1723164, 1723744, 1724269]","[1711084, 1711683, 1712283, 1712883, 1713483, 1714083, 1714683, 1715283, 1715895, 1716516, 1717093, 1717670, 1718219, 1718846, 1719399, 1719960, 1720605, 1721250, 1721789, 1722323, 1722904, 1723468, 1724029, 1724615]",30,R,ITM,1.1,
2,600,trial,0,93,93,93,trial,"['C', 'C', 'C', 'C', 'C', 'C', 'C', 'C', 'C', 'C', 'C', 'C', 'C', 'C', 'C', 'C']","[1734838, 1735491, 1736155, 1736834, 1737472, 1738098, 1738701, 1739314, 1739895, 1740521, 1741112, 1741674, 1742201, 1742777, 1743363, 1743937]","[1735006, 1735675, 1736334, 1737037, 1737647, 1738249, 1738841, 1739402, 1740005, 1740634, 1741229, 1741796, 1742383, 1742949, 1743519, 1744089]","[1730078, 1730678, 1731278, 1731878, 1732477, 1733079, 1733678, 1734279, 1734865, 1735518, 1736182, 1736861, 1737498, 1738126, 1738729, 1739340, 1739922, 1740548, 1741139, 1741702, 1742229, 1742803, 1743390, 1743964]",30,R,ITM,1.1,
4,400,trial,0,94,94,94,trial,"['C', 'C', 'C', 'C', 'C', 'C', 'C', 'C', 'C', 'C', 'C', 'C', 'C', 'C', 'C', 'C']","[1752459, 1752842, 1753220, 1753614, 1753976, 1754337, 1754703, 1755073, 1755437, 1755826, 1756199, 1756573, 1756945, 1757312, 1757690, 1758053]","[1752555, 1752936, 1753314, 1753704, 1754070, 1754444, 1754826, 1755200, 1755586, 1755938, 1756327, 1756707, 1757073, 1757455, 1757832, 1758177]","[1749328, 1749728, 1750128, 1750529, 1750928, 1751328, 1751729, 1752128, 1752485, 1752867, 1753246, 1753640, 1754002, 1754362, 1754729, 1755100, 1755462, 1755851, 1756225, 1756599, 1756972, 1757337, 1757716, 1758078]",30,R,ITM,1.1,
3,600,trial,0,95,95,95,trial,"['C', 'C', 'C', 'C', 'C', 'C', 'C', 'C', 'C', 'C', 'C', 'C', 'C', 'C', 'C', 'C']","[1768444, 1769015, 1769644, 1770219, 1770818, 1771451, 1772061, 1772678, 1773267, 1773841, 1774415, 1775034, 1775561, 1776115, 1776683, 1777229]","[1768562, 1769157, 1769760, 1770362, 1770961, 1771560, 1772171, 1772813, 1773430, 1774030, 1774578, 1775176, 1775728, 1776304, 1776834, 1777395]","[1763692, 1764291, 1764891, 1765491, 1766091, 1766691, 1767291, 1767891, 1768470, 1769040, 1769669, 1770245, 1770844, 1771476, 1772087, 1772703, 1773293, 1773867, 1774441, 1775059, 1775587, 1776141, 1776708, 1777255]",30,R,ITM,1.1,
3,400,trial,0,96,96,96,trial,"['C', 'C', 'C', 'C', 'C', 'C', 'C', 'C', 'C', 'C', 'C', 'C', 'C', 'C', 'C', 'C']","[1786135, 1786532, 1786947, 1787373, 1787780, 1788149, 1788559, 1788968, 1789405, 1789817, 1790235, 1790620, 1791005, 1791447, 1791851, 1792247]","[1786234, 1786653, 1787074, 1787484, 1787899, 1788309, 1788713, 1789117, 1789552, 1789976, 1790374, 1790765, 1791163, 1791571, 1791976, 1792382]","[1782949, 1783348, 1783748, 1784148, 1784548, 1784948, 1785349, 1785748, 1786161, 1786558, 1786973, 1787399, 1787805, 1788175, 1788584, 1788994, 1789430, 1789843, 1790261, 1790646, 1791031, 1791472, 1791877, 1792273]",30,R,ITM,1.1,
2,400,trial,0,97,97,97,trial,"['C', 'C', 'C', 'C', 'C', 'C', 'C', 'C', 'C', 'C', 'C', 'C', 'C', 'C', 'C', 'C']","[1801084, 1801492, 1801903, 1802302, 1802681, 1803100, 1803499, 1803902, 1804293, 1804710, 1805117, 1805526, 1805992, 1806386, 1806812, 1807235]","[1801194, 1801629, 1802037, 1802430, 1802821, 1803260, 1803656, 1804058, 1804430, 1804856, 1805259, 1805630, 1806082, 1806523, 1806937, 1807330]","[1797900, 1798300, 1798701, 1799100, 1799500, 1799901, 1800300, 1800699, 1801112, 1801519, 1801929, 1802329, 1802707, 1803127, 1803526, 1803930, 1804319, 1804738, 1805145, 1805553, 1806020, 1806412, 1806838, 1807261]",30,R,ITM,1.1,
3,600,trial,0,98,98,98,trial,"['C', 'C', 'C', 'C', 'C', 'C', 'C', 'C', 'C', 'C', 'C', 'C', 'C', 'C', 'C', 'C']","[1817913, 1818489, 1819143, 1819715, 1820311, 1820900, 1821471, 1822098, 1822712, 1823299, 1823905, 1824489, 1825115, 1825691, 1826275, 1826820]","[1817956, 1818633, 1819233, 1819857, 1820442, 1821029, 1821605, 1822208, 1822836, 1823430, 1824045, 1824627, 1825229, 1825869, 1826439, 1827000]","[1812615, 1813213, 1813813, 1814413, 1815013, 1815613, 1816213, 1816813, 1817938, 1818515, 1819168, 1819741, 1820337, 1820925, 1821497, 1822124, 1822738, 1823325, 1823931, 1824515, 1825140, 1825717, 1826300, 1826846]",30,R,ITM,1.1,
6,600,trial,0,99,99,99,trial,"['C', 'C', 'C', 'C', 'C', 'C', 'C', 'C', 'C', 'C', 'C', 'C', 'C', 'C', 'C', 'C']","[1837007, 1837503, 1838040, 1838553, 1839100, 1839685, 1840220, 1840752, 1841275, 1841809, 1842369, 1842852, 1843415, 1843947, 1844532, 1845065]","[1837135, 1837713, 1838268, 1838844, 1839395, 1839934, 1840515, 1841024, 1841536, 1842041, 1842578, 1843055, 1843634, 1844145, 1844717, 1845260]","[1832305, 1832905, 1833505, 1834105, 1834705, 1835305, 1835906, 1836506, 1837034, 1837530, 1838066, 1838579, 1839127, 1839712, 1840246, 1840779, 1841302, 1841837, 1842397, 1842880, 1843441, 1843974, 1844559, 1845092]",30,R,ITM,1.1,
7,600,trial,0,100,100,100,trial,"['C', 'C', 'C', 'C', 'C', 'C', 'C', 'C', 'C', 'C', 'C', 'C', 'C', 'C', 'C', 'C']","[1855176, 1855793, 1856372, 1856926, 1857525, 1858073, 1858669, 1859237, 1859812, 1860370, 1860954, 1861467, 1862008, 1862576, 1863155, 1863725]","[1855314, 1855950, 1856542, 1857157, 1857725, 1858280, 1858854, 1859428, 1860008, 1860541, 1861147, 1861665, 1862182, 1862740, 1863336, 1863883]","[1850403, 1851002, 1851602, 1852203, 1852803, 1853403, 1854003, 1854603, 1855203, 1855820, 1856399, 1856954, 1857553, 1858100, 1858696, 1859265, 1859840, 1860397, 1860981, 1861494, 1862036, 1862602, 1863182, 1863751]",30,R,ITM,1.1,
5,400,trial,0,101,101,101,trial,"['C', 'C', 'C', 'C', 'C', 'C', 'C', 'C', 'C', 'C', 'C', 'C', 'C', 'C', 'C', 'C']","[1872279, 1872674, 1873086, 1873477, 1873915, 1874342, 1874750, 1875146, 1875566, 1875978, 1876415, 1876889, 1877318, 1877747, 1878142, 1878528]","[1872356, 1872771, 1873158, 1873575, 1873971, 1874415, 1874872, 1875290, 1875693, 1876111, 1876512, 1876971, 1877427, 1877827, 1878251, 1878631]","[1869102, 1869501, 1869901, 1870301, 1870701, 1871101, 1871501, 1871901, 1872306, 1872700, 1873113, 1873504, 1873941, 1874368, 1874776, 1875172, 1875592, 1876003, 1876441, 1876915, 1877344, 1877773, 1878168, 1878553]",30,R,ITM,1.1,
2,400,trial,0,102,102,102,trial,"['C', 'C', 'C', 'C', 'C', 'C', 'C', 'C', 'C', 'C', 'C', 'C', 'C', 'C', 'C', 'C']","[1887320, 1887739, 1888171, 1888585, 1888991, 1889415, 1889841, 1890244, 1890670, 1891064, 1891475, 1891930, 1892357, 1892803, 1893215, 1893659]","[1887432, 1887873, 1888282, 1888714, 1889112, 1889552, 1889950, 1890390, 1890843, 1891193, 1891643, 1892085, 1892531, 1892990, 1893401, 1893816]","[1884129, 1884529, 1884929, 1885329, 1885728, 1886130, 1886528, 1886929, 1887347, 1887767, 1888197, 1888612, 1889018, 1889442, 1889867, 1890271, 1890698, 1891092, 1891502, 1891956, 1892384, 1892830, 1893241, 1893687]",30,R,ITM,1.1,
5,600,trial,0,103,103,103,trial,"['C', 'C', 'C', 'C', 'C', 'C', 'C', 'C', 'C', 'C', 'C', 'C', 'C', 'C', 'C', 'C']","[1903758, 1904329, 1904928, 1905533, 1906129, 1906674, 1907303, 1907890, 1908485, 1909062, 1909621, 1910222, 1910819, 1911411, 1912008, 1912564]","[1903947, 1904595, 1905224, 1905792, 1906350, 1906977, 1907532, 1908166, 1908763, 1909324, 1909886, 1910496, 1911044, 1911663, 1912176, 1912814]","[1899017, 1899616, 1900216, 1900816, 1901416, 1902016, 1902616, 1903216, 1903783, 1904355, 1904954, 1905559, 1906155, 1906700, 1907329, 1907915, 1908510, 1909089, 1909648, 1910249, 1910846, 1911437, 1912035, 1912590]",30,R,ITM,1.1,
3,400,trial,0,104,104,104,trial,"['C', 'C', 'C', 'C', 'C', 'C', 'C', 'C', 'C', 'C', 'C', 'C', 'C', 'C', 'C', 'C']","[1921426, 1921843, 1922271, 1922696, 1923118, 1923529, 1923943, 1924314, 1924732, 1925161, 1925576, 1925994, 1926348, 1926781, 1927193, 1927588]","[1921513, 1921954, 1922405, 1922778, 1923226, 1923628, 1924067, 1924518, 1924910, 1925307, 1925746, 1926134, 1926543, 1926921, 1927325, 1927744]","[1918254, 1918652, 1919052, 1919453, 1919853, 1920253, 1920653, 1921053, 1921452, 1921868, 1922296, 1922721, 1923143, 1923555, 1923969, 1924339, 1924758, 1925187, 1925602, 1926020, 1926374, 1926807, 1927219, 1927614]",30,R,ITM,1.1,
2,400,trial,0,105,105,105,trial,"['C', 'C', 'C', 'C', 'C', 'C', 'C', 'C', 'C', 'C', 'C', 'C', 'C', 'C', 'C', 'C']","[1936260, 1936647, 1937060, 1937475, 1937900, 1938294, 1938709, 1939115, 1939545, 1939973, 1940388, 1940789, 1941195, 1941608, 1942022, 1942417]","[1936427, 1936805, 1937178, 1937612, 1938068, 1938418, 1938850, 1939301, 1939689, 1940112, 1940573, 1940904, 1941319, 1941725, 1942132, 1942573]","[1933123, 1933522, 1933923, 1934323, 1934724, 1935122, 1935523, 1935924, 1936287, 1936673, 1937087, 1937503, 1937928, 1938321, 1938736, 1939142, 1939572, 1940000, 1940415, 1940815, 1941222, 1941636, 1942048, 1942444]",30,R,ITM,1.1,
5,600,trial,0,106,106,106,trial,"['C', 'C', 'C', 'C', 'C', 'C', 'C', 'C', 'C', 'C', 'C', 'C', 'C', 'C', 'C', 'C']","[1952704, 1953253, 1953848, 1954459, 1955022, 1955589, 1956193, 1956786, 1957358, 1957922, 1958487, 1959033, 1959597, 1960167, 1960761, 1961300]","[1952849, 1953420, 1954016, 1954586, 1955170, 1955748, 1956316, 1956937, 1957513, 1958066, 1958696, 1959216, 1959769, 1960398, 1960967, 1961509]","[1947975, 1948575, 1949175, 1949775, 1950375, 1950976, 1951576, 1952176, 1952730, 1953278, 1953873, 1954485, 1955048, 1955614, 1956219, 1956811, 1957385, 1957948, 1958512, 1959060, 1959622, 1960193, 1960787, 1961326]",30,R,ITM,1.1,
6,600,trial,0,107,107,107,trial,"['C', 'C', 'C', 'C', 'C', 'C', 'C', 'C', 'C', 'C', 'C', 'C', 'C', 'C', 'C', 'C']","[1971500, 1972060, 1972628, 1973202, 1973795, 1974366, 1974944, 1975499, 1976055, 1976619, 1977199, 1977771, 1978355, 1978908, 1979457, 1980043]","[1971657, 1972256, 1972851, 1973390, 1973995, 1974542, 1975138, 1975706, 1976315, 1976893, 1977487, 1978091, 1978635, 1979198, 1979746]","[1966753, 1967352, 1967952, 1968552, 1969153, 1969753, 1970353, 1970952, 1971526, 1972086, 1972655, 1973230, 1973822, 1974392, 1974971, 1975526, 1976083, 1976646, 1977226, 1977797, 1978382, 1978936, 1979485, 1980069]",30,R,ITM,1.1,
6,400,trial,0,108,108,108,trial,"['C', 'C', 'C', 'C', 'C', 'C', 'C', 'C', 'C', 'C', 'C', 'C', 'C', 'C', 'C', 'C']","[1988648, 1989031, 1989429, 1989814, 1990215, 1990614, 1991011, 1991391, 1991779, 1992170, 1992620, 1993016, 1993450, 1993878, 1994257, 1994643]","[1988765, 1989188, 1989572, 1990018, 1990389, 1990764, 1991177, 1991571, 1991979, 1992419, 1992819, 1993219, 1993652, 1994066, 1994459, 1994792]","[1985470, 1985870, 1986270, 1986670, 1987070, 1987470, 1987870, 1988271, 1988675, 1989058, 1989455, 1989840, 1990243, 1990640, 1991037, 1991417, 1991806, 1992198, 1992647, 1993043, 1993477, 1993906, 1994285, 1994670]",30,R,ITM,1.1,
5,400,trial,0,109,109,109,trial,"['C', 'C', 'C', 'C', 'C', 'C', 'C', 'C', 'C', 'C', 'C', 'C', 'C', 'C', 'C', 'C']","[2003171, 2003578, 2003986, 2004377, 2004790, 2005221, 2005635, 2006041, 2006427, 2006852, 2007289, 2007684, 2008075, 2008474, 2008883, 2009271]","[2003256, 2003722, 2004118, 2004532, 2004936, 2005357, 2005800, 2006201, 2006609, 2007023, 2007414, 2007862, 2008243, 2008620, 2008996, 2009420]","[1999991, 2000391, 2000791, 2001191, 2001591, 2001991, 2002392, 2002791, 2003196, 2003604, 2004013, 2004403, 2004815, 2005246, 2005660, 2006067, 2006453, 2006878, 2007316, 2007709, 2008100, 2008500, 2008908, 2009296]",30,R,ITM,1.1,
7,400,trial,0,110,110,110,trial,"['C', 'C', 'C', 'C', 'C', 'C', 'C', 'C', 'C', 'C', 'C', 'C', 'C', 'C', 'C', 'C']","[2018192, 2018592, 2018989, 2019397, 2019813, 2020230, 2020630, 2021046, 2021432, 2021825, 2022199, 2022638, 2023044, 2023439, 2023847, 2024230]","[2018341, 2018779, 2019210, 2019616, 2020012, 2020374, 2020799, 2021191, 2021599, 2022042, 2022404, 2022845, 2023259, 2023618, 2023972, 2024391]","[2015038, 2015438, 2015838, 2016238, 2016638, 2017038, 2017438, 2017839, 2018219, 2018620, 2019015, 2019424, 2019841, 2020256, 2020658, 2021072, 2021458, 2021852, 2022226, 2022665, 2023070, 2023465, 2023875, 2024257]",30,R,ITM,1.1,
5,400,trial,0,111,111,111,trial,"['C', 'C', 'C', 'C', 'C', 'C', 'C', 'C', 'C', 'C', 'C', 'C', 'C', 'C', 'C', 'C']","[2032802, 2033170, 2033567, 2033959, 2034357, 2034769, 2035178, 2035578, 2035974, 2036384, 2036791, 2037219, 2037633, 2038112, 2038548, 2038915]","[2032937, 2033340, 2033734, 2034128, 2034534, 2034948, 2035352, 2035733, 2036149, 2036564, 2036961, 2037368, 2037800, 2038257, 2038677, 2039071]","[2029687, 2030087, 2030487, 2030887, 2031287, 2031687, 2032088, 2032487, 2032828, 2033196, 2033593, 2033986, 2034382, 2034796, 2035204, 2035604, 2035999, 2036410, 2036816, 2037244, 2037658, 2038137, 2038575, 2038941]",30,R,ITM,1.1,
6,400,trial,0,112,112,112,trial,"['C', 'C', 'C', 'C', 'C', 'C', 'C', 'C', 'C', 'C', 'C', 'C', 'C', 'C', 'C', 'C']","[2047752, 2048131, 2048521, 2048910, 2049311, 2049701, 2050107, 2050502, 2050900, 2051279, 2051688, 2052084, 2052463, 2052839, 2053276, 2053664]","[2047892, 2048301, 2048688, 2049102, 2049480, 2049864, 2050254, 2050653, 2051072, 2051468, 2051848, 2052235, 2052617, 2053000, 2053395, 2053806]","[2044589, 2044987, 2045387, 2045788, 2046187, 2046587, 2046987, 2047387, 2047779, 2048158, 2048547, 2048936, 2049338, 2049728, 2050134, 2050530, 2050927, 2051306, 2051715, 2052111, 2052490, 2052867, 2053303, 2053691]",30,R,ITM,1.1,
4,400,trial,0,113,113,113,trial,"['C', 'C', 'C', 'C', 'C', 'C', 'C', 'C', 'C', 'C', 'C', 'C', 'C', 'C', 'C', 'C']","[2062485, 2062873, 2063257, 2063675, 2064059, 2064459, 2064872, 2065284, 2065679, 2066059, 2066459, 2066842, 2067217, 2067614, 2067992, 2068388]","[2062653, 2063037, 2063428, 2063838, 2064215, 2064621, 2065016, 2065423, 2065829, 2066230, 2066614, 2066999, 2067367, 2067765, 2068142, 2068540]","[2059339, 2059740, 2060139, 2060539, 2060939, 2061339, 2061740, 2062139, 2062511, 2062899, 2063283, 2063700, 2064084, 2064485, 2064898, 2065310, 2065704, 2066084, 2066485, 2066868, 2067243, 2067640, 2068018, 2068414]",30,R,ITM,1.1,
3,600,trial,0,114,114,114,trial,"['C', 'C', 'C', 'C', 'C', 'C', 'C', 'C', 'C', 'C', 'C', 'C', 'C', 'C', 'C', 'C']","[2078686, 2079249, 2079838, 2080427, 2081019, 2081619, 2082221, 2082786, 2083404, 2083993, 2084577, 2085143, 2085723, 2086345, 2086908, 2087499]","[2078840, 2079442, 2079998, 2080606, 2081208, 2081799, 2082384, 2083057, 2083577, 2084220, 2084800, 2085392, 2085963, 2086601, 2087156]","[2073908, 2074508, 2075108, 2075708, 2076308, 2076908, 2077508, 2078108, 2078711, 2079275, 2079863, 2080452, 2081045, 2081646, 2082246, 2082811, 2083430, 2084019, 2084602, 2085169, 2085748, 2086371, 2086934, 2087525]",30,R,ITM,1.1,
4,600,trial,0,115,115,115,trial,"['C', 'C', 'C', 'C', 'C', 'C', 'C', 'C', 'C', 'C', 'C', 'C', 'C', 'C', 'C', 'C']","[2097658, 2098194, 2098740, 2099313, 2099903, 2100478, 2101073, 2101646, 2102237, 2102818, 2103447, 2104027, 2104598, 2105129, 2105706, 2106265]","[2097831, 2098469, 2099054, 2099639, 2100211, 2100803, 2101385, 2101993, 2102615, 2103170, 2103758, 2104347, 2104940, 2105485, 2106021]","[2092936, 2093536, 2094136, 2094736, 2095336, 2095936, 2096536, 2097136, 2097684, 2098220, 2098765, 2099339, 2099929, 2100504, 2101099, 2101671, 2102262, 2102844, 2103473, 2104052, 2104624, 2105155, 2105732, 2106292]",30,R,ITM,1.1,
2,600,trial,0,116,116,116,trial,"['C', 'C', 'C', 'C', 'C', 'C', 'C', 'C', 'C', 'C', 'C', 'C', 'C', 'C', 'C', 'C']","[2116419, 2117006, 2117597, 2118169, 2118766, 2119375, 2120007, 2120586, 2121154, 2121760, 2122373, 2122923, 2123524, 2124129, 2124707, 2125284]","[2116547, 2117147, 2117741, 2118291, 2118912, 2119542, 2120152, 2120773, 2121318, 2121964, 2122557, 2123087, 2123708, 2124335, 2124940, 2125522]","[2111632, 2112231, 2112832, 2113432, 2114032, 2114631, 2115231, 2115832, 2116447, 2117033, 2117624, 2118197, 2118794, 2119402, 2120035, 2120613, 2121182, 2121788, 2122400, 2122950, 2123551, 2124155, 2124735, 2125310]",30,R,ITM,1.1,
3,400,trial,0,117,117,117,trial,"['C', 'C', 'C', 'C', 'C', 'C', 'C', 'C', 'C', 'C', 'C', 'C', 'C', 'C', 'C', 'C']","[2133852, 2134261, 2134667, 2135067, 2135471, 2135903, 2136323, 2136765, 2137198, 2137604, 2137998, 2138412, 2138811, 2139233, 2139652, 2140045]","[2133943, 2134371, 2134798, 2135241, 2135629, 2136027, 2136523, 2136904, 2137347, 2137786, 2138155, 2138540, 2138947, 2139341, 2139772, 2140192]","[2130660, 2131060, 2131461, 2131860, 2132260, 2132660, 2133060, 2133460, 2133877, 2134287, 2134692, 2135093, 2135496, 2135928, 2136348, 2136791, 2137224, 2137629, 2138023, 2138437, 2138836, 2139258, 2139677, 2140070]",30,R,ITM,1.1,
7,400,trial,0,118,118,118,trial,"['C', 'C', 'C', 'C', 'C', 'C', 'C', 'C', 'C', 'C', 'C', 'C', 'C', 'C', 'C', 'C']","[2148843, 2149245, 2149657, 2150075, 2150512, 2150920, 2151320, 2151739, 2152145, 2152541, 2152937, 2153329, 2153723, 2154140, 2154541, 2154956]","[2148964, 2149393, 2149796, 2150203, 2150629, 2151045, 2151451, 2151860, 2152272, 2152673, 2153063, 2153450, 2153866, 2154268, 2154683, 2155085]","[2145650, 2146050, 2146449, 2146849, 2147250, 2147649, 2148049, 2148449, 2148870, 2149272, 2149684, 2150102, 2150540, 2150946, 2151348, 2151766, 2152173, 2152567, 2152964, 2153357, 2153751, 2154168, 2154568, 2154984]",30,R,ITM,1.1,
4,600,trial,0,119,119,119,trial,"['C', 'C', 'C', 'C', 'C', 'C', 'C', 'C', 'C', 'C', 'C', 'C', 'C', 'C', 'C', 'C']","[2165466, 2166079, 2166653, 2167237, 2167818, 2168414, 2169020, 2169595, 2170191, 2170795, 2171376, 2171924, 2172482, 2173011, 2173581, 2174110]","[2165615, 2166277, 2166815, 2167465, 2168031, 2168645, 2169243, 2169832, 2170401, 2170999, 2171533, 2172091, 2172666, 2173166, 2173747, 2174354]","[2160670, 2161269, 2161869, 2162469, 2163069, 2163670, 2164270, 2164870, 2165491, 2166105, 2166680, 2167263, 2167843, 2168440, 2169046, 2169621, 2170217, 2170820, 2171402, 2171950, 2172508, 2173037, 2173606, 2174136]",30,R,ITM,1.1,
2,600,trial,0,120,120,120,trial,"['C', 'C', 'C', 'C', 'C', 'C', 'C', 'C', 'C', 'C', 'C', 'C', 'C', 'C', 'C', 'C']","[2184276, 2184886, 2185488, 2186092, 2186662, 2187243, 2187858, 2188446, 2189022, 2189630, 2190202, 2190792, 2191350, 2191926, 2192490, 2193051]","[2184505, 2185169, 2185810, 2186407, 2186966, 2187574, 2188084, 2188746, 2189295, 2189893, 2190457, 2191076, 2191554, 2192175, 2192757]","[2179483, 2180083, 2180683, 2181283, 2181882, 2182483, 2183083, 2183683, 2184304, 2184912, 2185516, 2186119, 2186689, 2187271, 2187885, 2188473, 2189049, 2189657, 2190229, 2190820, 2191377, 2191953, 2192517, 2193078]",30,R,ITM,1.1,
6,600,trial,0,121,121,121,trial,"['C', 'C', 'C', 'C', 'C', 'C', 'C', 'C', 'C', 'C', 'C', 'C', 'C', 'C', 'C', 'C', 'C']","[2203479, 2204046, 2204620, 2205190, 2205296, 2205790, 2206347, 2206913, 2207504, 2208058, 2208653, 2209257, 2209814, 2210374, 2210915, 2211451, 2212025]","[2203627, 2204267, 2204877, 2205216, 2205420, 2206035, 2206610, 2207155, 2207730, 2208324, 2208886, 2209526, 2210098, 2210616, 2211144, 2211682]","[2198788, 2199387, 2199987, 2200587, 2201187, 2201787, 2202387, 2202987, 2203505, 2204072, 2204647, 2205216, 2205816, 2206373, 2206940, 2207531, 2208084, 2208679, 2209285, 2209841, 2210401, 2210942, 2211478, 2212051]",30,R,ITM,1.1,
3,600,trial,0,122,122,122,trial,"['C', 'C', 'C', 'C', 'C', 'C', 'C', 'C', 'C', 'C', 'C', 'C', 'C', 'C', 'C', 'C']","[2222353, 2222886, 2223453, 2224017, 2224591, 2225116, 2225698, 2226296, 2226846, 2227374, 2227920, 2228458, 2228978, 2229479, 2229960, 2230469]","[2222522, 2223160, 2223706, 2224309, 2224838, 2225404, 2225875, 2226477, 2227132, 2227655, 2228157, 2228731, 2229170, 2229706, 2230183]","[2217627, 2218227, 2218827, 2219427, 2220027, 2220627, 2221228, 2221828, 2222379, 2222912, 2223478, 2224043, 2224617, 2225141, 2225724, 2226322, 2226872, 2227399, 2227946, 2228484, 2229004, 2229505, 2229986, 2230495]",30,R,ITM,1.1,
7,600,trial,0,123,123,123,trial,"['C', 'C', 'C', 'C', 'C', 'C', 'C', 'C', 'C', 'C', 'C', 'C', 'C', 'C', 'C', 'C']","[2240952, 2241506, 2242116, 2242708, 2243315, 2243911, 2244505, 2245128, 2245718, 2246255, 2246867, 2247426, 2247996, 2248582, 2249198, 2249758]","[2241128, 2241756, 2242332, 2242929, 2243540, 2244182, 2244726, 2245361, 2245932, 2246515, 2247077, 2247648, 2248200, 2248826, 2249330, 2250004]","[2236154, 2236753, 2237353, 2237954, 2238554, 2239154, 2239753, 2240353, 2240978, 2241533, 2242144, 2242735, 2243343, 2243938, 2244533, 2245155, 2245744, 2246283, 2246895, 2247453, 2248024, 2248608, 2249225, 2249786]",30,R,ITM,1.1,
4,400,trial,0,124,124,124,trial,"['C', 'C', 'C', 'C', 'C', 'C', 'C', 'C', 'C', 'C', 'C', 'C', 'C', 'C', 'C', 'C']","[2258406, 2258791, 2259204, 2259611, 2260051, 2260468, 2260861, 2261267, 2261671, 2262080, 2262490, 2262896, 2263312, 2263705, 2264119, 2264522]","[2258510, 2258936, 2259356, 2259761, 2260172, 2260618, 2261022, 2261423, 2261819, 2262241, 2262647, 2263064, 2263436, 2263867, 2264266, 2264660]","[2255242, 2255641, 2256041, 2256441, 2256841, 2257242, 2257641, 2258041, 2258432, 2258817, 2259229, 2259637, 2260077, 2260494, 2260887, 2261293, 2261697, 2262107, 2262515, 2262922, 2263337, 2263731, 2264144, 2264548]",30,R,ITM,1.1,
7,600,trial,0,125,125,125,trial,"['C', 'C', 'C', 'C', 'C', 'C', 'C', 'C', 'C', 'C', 'C', 'C', 'C', 'C', 'C', 'C']","[2274971, 2275609, 2276219, 2276808, 2277392, 2277984, 2278579, 2279147, 2279760, 2280320, 2280918, 2281477, 2282076, 2282636, 2283230, 2283806]","[2275141, 2275854, 2276457, 2277086, 2277678, 2278192, 2278864, 2279476, 2280068, 2280644, 2281209, 2281823, 2282414, 2282958, 2283577]","[2270148, 2270747, 2271347, 2271947, 2272547, 2273147, 2273747, 2274348, 2274998, 2275636, 2276247, 2276835, 2277420, 2278010, 2278605, 2279175, 2279788, 2280347, 2280945, 2281503, 2282103, 2282663, 2283257, 2283833]",30,R,ITM,1.1,
