octave,ioi,event,.thisRepN,.thisTrialN,.thisN,.thisIndex,event,tap_types,tap_times,release_times,tone_times,subject,handedness,experiment,version,
,,SPR,0,-1,-1,0,SPR,"['P', 'P', 'P', 'P', 'P', 'P', 'P', 'P', 'P', 'P', 'P', 'P', 'P', 'P', 'P', 'P', 'P', 'P', 'P', 'P', 'P', 'P', 'P', 'P', 'P', 'P', 'P', 'P', 'P', 'P']","[39198, 39677, 40150, 40638, 41221, 41721, 42235, 42721, 43282, 43807, 44390, 44865, 45359, 45875, 46370, 46904, 47427, 47935, 48427, 48937, 49445, 49927, 50423, 50924, 51403, 51913, 52392, 52891, 53363, 53849]","[39326, 39770, 40265, 40741, 41326, 41837, 42357, 42840, 43401, 43923, 44503, 44966, 45490, 46004, 46510, 47012, 47543, 48038, 48535, 49054, 49548, 50021, 50523, 51035, 51512, 52033, 52502, 52996, 53462, 53954]",,31,R,ITM,1.1,
4,500,practice,0,0,0,0,practice,"['B', 'S', 'S', 'S', 'S', 'S', 'S', 'S', 'C', 'C', 'C', 'C', 'C', 'C', 'C', 'C', 'C', 'C', 'C', 'C', 'C', 'C', 'C', 'C']","[108226, 108675, 109192, 109677, 110164, 110705, 111200, 111677, 112162, 112676, 113191, 113697, 114226, 114719, 115195, 115699, 116218, 116759, 117275, 117762, 118247, 118725, 119201, 119688]","[108259, 108796, 109314, 109790, 110284, 110816, 111302, 111773, 112247, 112778, 113290, 113807, 114359, 114831, 115320, 115812, 116317, 116860, 117389, 117862, 118333, 118839, 119335, 119811]","[108238, 108737, 109237, 109737, 110237, 110737, 111238, 111737, 112188, 112702, 113217, 113723, 114251, 114745, 115222, 115725, 116244, 116785, 117301, 117787, 118273, 118752, 119227, 119713]",31,R,ITM,1.1,
3,500,practice,0,1,1,1,practice,"['S', 'S', 'S', 'S', 'S', 'S', 'S', 'C', 'C', 'C', 'C', 'C', 'C', 'C', 'C', 'C', 'C', 'C', 'C', 'C', 'C', 'C', 'C']","[125447, 126123, 126754, 127273, 127757, 128258, 128760, 129240, 129720, 130239, 130747, 131232, 131745, 132260, 132744, 133255, 133703, 134263, 134816, 135303, 135786, 136303, 136854]","[125565, 126275, 126888, 127406, 127864, 128363, 128865, 129337, 129854, 130339, 130849, 131353, 131864, 132374, 132849, 133347, 133808, 134370, 134907, 135394, 135882, 136403, 136957]","[125295, 125794, 126295, 126794, 127294, 127794, 128294, 128794, 129265, 129745, 130265, 130772, 131258, 131771, 132286, 132769, 133280, 133729, 134289, 134842, 135328, 135812, 136329, 136880]",31,R,ITM,1.1,
2,500,practice,0,2,2,2,practice,"['S', 'S', 'S', 'S', 'S', 'S', 'S', 'C', 'C', 'C', 'C', 'C', 'C', 'C', 'C', 'C', 'C', 'C', 'C', 'C', 'C', 'C', 'C']","[143033, 143489, 143966, 144501, 145008, 145492, 145996, 146470, 146982, 147483, 147976, 148489, 148999, 149474, 149945, 150466, 150966, 151464, 151963, 152452, 152934, 153490, 153957]","[143113, 143595, 144072, 144618, 145117, 145601, 146111, 146581, 147095, 147590, 148080, 148580, 149109, 149571, 150070, 150561, 151084, 151581, 152065, 152556, 153050, 153588, 154052]","[142525, 143026, 143525, 144025, 144525, 145026, 145524, 146024, 146498, 147010, 147510, 148002, 148515, 149026, 149501, 149972, 150493, 150993, 151491, 151991, 152479, 152962, 153518, 153984]",31,R,ITM,1.1,
7,500,practice,0,3,3,3,practice,"['B', 'S', 'S', 'S', 'S', 'S', 'S', 'C', 'C', 'C', 'C', 'C', 'C', 'C', 'C', 'C', 'C', 'C', 'C', 'C', 'C', 'C', 'C']","[159491, 160037, 160583, 161185, 161816, 162410, 162973, 163615, 164082, 164573, 165023, 165558, 166066, 166564, 167073, 167511, 167997, 168493, 169026, 169506, 170014, 170567, 171074]","[159537, 160154, 160738, 161349, 161951, 162515, 163077, 163748, 164180, 164667, 165125, 165651, 166168, 166685, 167173, 167617, 168094, 168597, 169127, 169622, 170135, 170681, 171173]","[159504, 160004, 160503, 161003, 161503, 162003, 162503, 163003, 163642, 164110, 164600, 165050, 165584, 166093, 166591, 167101, 167538, 168024, 168519, 169054, 169533, 170041, 170595, 171102]",31,R,ITM,1.1,
5,500,practice,0,4,4,4,practice,"['S', 'S', 'S', 'S', 'S', 'S', 'S', 'C', 'C', 'C', 'C', 'C', 'C', 'C', 'C', 'C', 'C', 'C', 'C', 'C', 'C', 'C', 'C']","[176655, 177252, 177806, 178395, 178916, 179460, 179980, 180754, 181243, 181716, 182257, 182803, 183280, 183820, 184317, 184822, 185330, 185817, 186332, 186827, 187292, 187819, 188309]","[176757, 177354, 177933, 178494, 179077, 179582, 180131, 180881, 181349, 181842, 182386, 182930, 183397, 183943, 184451, 184958, 185474, 185936, 186516, 186947, 187419, 187935, 188421]","[176395, 176894, 177394, 177894, 178395, 178894, 179394, 179894, 180781, 181270, 181742, 182283, 182830, 183306, 183845, 184343, 184848, 185357, 185842, 186358, 186853, 187318, 187844, 188336]",31,R,ITM,1.1,
6,500,practice,0,5,5,5,practice,"['S', 'S', 'S', 'S', 'S', 'S', 'S', 'C', 'C', 'C', 'C', 'C', 'C', 'C', 'C', 'C', 'C', 'C', 'C', 'C', 'C', 'C', 'C']","[193866, 194538, 195172, 195768, 196310, 196879, 197421, 198057, 198561, 199030, 199554, 200036, 200554, 201033, 201461, 202015, 202586, 203122, 203617, 204188, 204716, 205179, 205767]","[193973, 194623, 195283, 195872, 196405, 196986, 197570, 198197, 198671, 199134, 199706, 200133, 200695, 201152, 201590, 202128, 202697, 203229, 203747, 204317, 204819, 205292, 205870]","[193853, 194353, 194852, 195352, 195852, 196353, 196852, 197352, 198084, 198589, 199058, 199580, 200062, 200582, 201060, 201488, 202043, 202612, 203150, 203643, 204216, 204742, 205207, 205794]",31,R,ITM,1.1,
7,600,trial,0,6,6,6,trial,"['S', 'S', 'S', 'S', 'S', 'S', 'S', 'C', 'C', 'C', 'C', 'C', 'C', 'C', 'C', 'C', 'C', 'C', 'C', 'C', 'C', 'C', 'C', 'C']","[236208, 236844, 237506, 238132, 238796, 239373, 240020, 240602, 241141, 241842, 242603, 243089, 243557, 244064, 244604, 245073, 245595, 246073, 246578, 247085, 247554, 247815, 248105, 248562]","[236310, 236934, 237605, 238270, 238904, 239477, 240095, 240700, 241241, 241937, 242696, 243162, 243666, 244167, 244697, 245186, 245715, 246224, 246696, 247180, 247735, 247960, 248250, 248681]","[235923, 236522, 237122, 237722, 238322, 238922, 239522, 240122, 240629, 241168, 241869, 242629, 243117, 243585, 244091, 244631, 245100, 245622, 246099, 246604, 247112, 247580, 248133, 248590]",31,R,ITM,1.1,
7,600,trial,0,7,7,7,trial,"['B', 'S', 'S', 'S', 'S', 'S', 'S', 'S', 'C', 'C', 'C', 'C', 'C', 'C', 'C', 'C', 'C', 'C', 'C', 'C', 'C', 'C', 'C', 'C']","[254336, 254851, 255312, 255951, 256734, 257161, 257756, 258327, 258900, 259559, 260166, 260687, 261315, 261883, 262456, 263043, 263612, 264129, 264644, 265244, 265845, 266342, 266878, 267438]","[254370, 254993, 255442, 256059, 256851, 257291, 257850, 258441, 259023, 259689, 260301, 260830, 261409, 261965, 262553, 263119, 263692, 264211, 264759, 265320, 265920, 266446, 266963, 267503]","[254349, 254948, 255548, 256148, 256748, 257348, 257948, 258548, 258928, 259586, 260193, 260715, 261342, 261910, 262483, 263069, 263639, 264157, 264671, 265271, 265872, 266369, 266904, 267465]",31,R,ITM,1.1,
2,400,trial,0,8,8,8,trial,"['B', 'S', 'S', 'S', 'S', 'S', 'S', 'S', 'C', 'C', 'C', 'C', 'C', 'C', 'C', 'C', 'C', 'C', 'C', 'C', 'C', 'C', 'C', 'C', 'C']","[272933, 273564, 274217, 274671, 274947, 275225, 275601, 275901, 276216, 276653, 277013, 277324, 277613, 277943, 278233, 278506, 278740, 279099, 279483, 279877, 280222, 280563, 280941, 281243, 281661]","[273013, 273654, 274297, 274752, 275019, 275324, 275687, 275996, 276320, 276741, 277099, 277411, 277700, 278023, 278332, 278589, 278816, 279196, 279559, 279963, 280322, 280660, 281023, 281336, 281729]","[272947, 273346, 273745, 274146, 274545, 274947, 275346, 275745, 276243, 276679, 277041, 277352, 277641, 277969, 278259, 278533, 279126, 279511, 279904, 280249, 280590, 280969, 281271, 281689]",31,R,ITM,1.1,
6,600,trial,0,9,9,9,trial,"['S', 'S', 'S', 'S', 'S', 'S', 'S', 'S', 'C', 'C', 'C', 'C', 'C', 'C', 'C', 'C', 'C', 'C', 'C', 'C', 'C', 'C', 'C', 'C']","[287454, 288097, 288743, 289263, 289814, 290329, 290910, 291582, 292225, 292993, 293523, 293994, 294600, 295086, 295540, 296046, 296544, 297031, 297545, 298097, 298585, 299088, 299611, 300080]","[287523, 288158, 288784, 289319, 289885, 290421, 291018, 291667, 292360, 293079, 293647, 294080, 294681, 295180, 295652, 296130, 296641, 297121, 297627, 298173, 298673, 299165, 299698, 300175]","[287173, 287772, 288372, 288972, 289572, 290172, 290772, 291373, 292251, 293019, 293550, 294021, 294627, 295112, 295567, 296074, 296570, 297059, 297573, 298125, 298611, 299116, 299637, 300106]",31,R,ITM,1.1,
2,600,trial,0,10,10,10,trial,"['S', 'S', 'S', 'S', 'S', 'S', 'C', 'C', 'C', 'C', 'C', 'C', 'C', 'C', 'C', 'C', 'C', 'C', 'C', 'C', 'C', 'C']","[306384, 307122, 308162, 308815, 309443, 310040, 310659, 311250, 311870, 312451, 313055, 313595, 314219, 314804, 315381, 315943, 316520, 317083, 317604, 318169, 318710, 319241]","[306404, 307187, 308229, 308885, 309502, 310118, 310742, 311346, 311961, 312528, 313135, 313676, 314311, 314896, 315475, 316056, 316619, 317160, 317703, 318246, 318801, 319316]","[305867, 306467, 307067, 307667, 308268, 308868, 309468, 310068, 310685, 311278, 311898, 312477, 313081, 313623, 314246, 314831, 315409, 315970, 316547, 317111, 317632, 318196, 318738, 319268]",31,R,ITM,1.1,
3,600,trial,0,11,11,11,trial,"['S', 'S', 'S', 'S', 'S', 'S', 'S', 'S', 'C', 'C', 'C', 'C', 'C', 'C', 'C', 'C', 'C', 'C', 'C', 'C', 'C', 'C', 'C', 'C']","[324913, 325344, 325946, 326519, 327144, 327723, 328363, 328943, 329527, 330077, 330659, 331243, 331756, 332291, 332849, 333381, 333891, 334402, 334904, 335385, 335931, 336452, 337001, 337514]","[325003, 325429, 326041, 326635, 327239, 327812, 328453, 329070, 329610, 330145, 330735, 331312, 331826, 332343, 332900, 333449, 333980, 334492, 335003, 335472, 336018, 336529, 337107, 337616]","[324866, 325465, 326065, 326664, 327264, 327864, 328464, 329064, 329552, 330102, 330685, 331269, 331782, 332316, 332874, 333407, 333917, 334428, 334929, 335411, 335958, 336478, 337028, 337540]",31,R,ITM,1.1,
7,400,trial,0,12,12,12,trial,"['S', 'S', 'S', 'S', 'S', 'S', 'S', 'C', 'C', 'C', 'C', 'C', 'C', 'C', 'C', 'C', 'C', 'C', 'C', 'C', 'C', 'C', 'C']","[343403, 343852, 344189, 344528, 344913, 345332, 345762, 346176, 346503, 346887, 347237, 347610, 347918, 348285, 348648, 349024, 349383, 349766, 350105, 350453, 350854, 351235, 351668]","[343512, 343916, 344252, 344597, 345005, 345431, 345842, 346264, 346582, 346948, 347315, 347669, 347998, 348352, 348708, 349077, 349459, 349844, 350185, 350537, 350921, 351313, 351731]","[343081, 343480, 343880, 344281, 344680, 345080, 345480, 345880, 346203, 346530, 346914, 347265, 347636, 347945, 348313, 348675, 349050, 349410, 349793, 350133, 350481, 350881, 351261, 351695]",31,R,ITM,1.1,
4,600,trial,0,13,13,13,trial,"['S', 'S', 'S', 'S', 'S', 'S', 'S', 'C', 'C', 'C', 'C', 'C', 'C', 'C', 'C', 'C', 'C', 'C', 'C', 'C', 'C', 'C', 'C']","[357430, 357903, 358752, 359392, 359988, 360602, 361155, 361773, 362307, 362791, 363273, 363741, 364182, 364638, 365062, 365483, 365899, 366295, 366701, 367076, 367473, 367864, 368310]","[357485, 357975, 358808, 359471, 360058, 360697, 361245, 361856, 362394, 362871, 363362, 363820, 364273, 364729, 365160, 365581, 365993, 366391, 366798, 367176, 367566, 367949, 368362]","[357057, 357657, 358257, 358857, 359457, 360057, 360657, 361257, 361798, 362334, 362817, 363298, 363766, 364208, 364663, 365087, 365508, 365925, 366320, 366727, 367102, 367499, 367890, 368335]",31,R,ITM,1.1,
3,400,trial,0,14,14,14,trial,"['S', 'S', 'S', 'S', 'S', 'S', 'S', 'S', 'C', 'C', 'C', 'C', 'C', 'C', 'C', 'C', 'C', 'C', 'C', 'C', 'C', 'C', 'C', 'C']","[374280, 374742, 375106, 375490, 375871, 376255, 376608, 376977, 377332, 377781, 378153, 378525, 378888, 379210, 379520, 379885, 380218, 380550, 380955, 381328, 381708, 382076, 382497, 382878]","[374374, 374824, 375190, 375579, 375958, 376337, 376694, 377081, 377432, 377866, 378251, 378616, 378969, 379312, 379623, 379974, 380317, 380620, 381034, 381450, 381818, 382173, 382589, 382968]","[374003, 374403, 374802, 375202, 375602, 376002, 376402, 376802, 377358, 377806, 378179, 378551, 378913, 379236, 379545, 379911, 380243, 380575, 380981, 381353, 381733, 382102, 382523, 382904]",31,R,ITM,1.1,
5,600,trial,0,15,15,15,trial,"['S', 'S', 'S', 'S', 'S', 'S', 'S', 'S', 'C', 'C', 'C', 'C', 'C', 'C', 'C', 'C', 'C', 'C', 'C', 'C', 'C', 'C', 'C', 'C']","[388632, 389230, 389706, 390176, 390724, 391317, 391864, 392451, 393075, 393499, 393988, 394354, 394715, 395036, 395365, 395682, 395986, 396302, 396681, 397101, 397524, 398006, 398427, 398922]","[388697, 389269, 389777, 390241, 390799, 391395, 391954, 392544, 393199, 393792, 394058, 394468, 394805, 395141, 395463, 395779, 396077, 396404, 396801, 397201, 397639, 398105, 398525, 399019]","[388413, 389012, 389612, 390212, 390812, 391412, 392012, 392612, 393101, 393526, 394013, 394380, 394740, 395062, 395390, 395708, 396013, 396328, 396707, 397126, 397550, 398031, 398452, 398948]",31,R,ITM,1.1,
4,400,trial,0,16,16,16,trial,"['S', 'S', 'S', 'S', 'S', 'S', 'S', 'S', 'C', 'C', 'C', 'C', 'C', 'C', 'C', 'C', 'C', 'C', 'C', 'C', 'C', 'C', 'C', 'C']","[404736, 405146, 405430, 405836, 406140, 406471, 406795, 407119, 407524, 407875, 408261, 408607, 409019, 409397, 409730, 410093, 410466, 410788, 411096, 411444, 411787, 412105, 412481, 412870]","[404808, 405225, 405532, 405926, 406234, 406565, 406886, 407224, 407614, 407972, 408358, 408707, 409104, 409487, 409829, 410183, 410557, 410885, 411192, 411525, 411872, 412205, 412579, 412954]","[404425, 404825, 405224, 405624, 406024, 406424, 406824, 407224, 407549, 407902, 408288, 408633, 409044, 409422, 409755, 410119, 410491, 410814, 411121, 411469, 411812, 412131, 412507, 412896]",31,R,ITM,1.1,
6,400,trial,0,17,17,17,trial,"['S', 'S', 'S', 'S', 'S', 'S', 'S', 'S', 'C', 'C', 'C', 'C', 'C', 'C', 'C', 'C', 'C', 'C', 'C', 'C', 'C', 'C', 'C', 'C']","[418495, 418878, 419197, 419544, 419914, 420275, 420620, 421014, 421390, 421774, 422184, 422573, 422972, 423394, 423767, 424169, 424561, 424934, 425314, 425710, 426068, 426422, 426814, 427188]","[418581, 418956, 419305, 419635, 419998, 420372, 420714, 421093, 421476, 421861, 422265, 422637, 423058, 423491, 423846, 424258, 424635, 425009, 425389, 425801, 426174, 426520, 426908, 427277]","[418315, 418714, 419115, 419514, 419914, 420315, 420714, 421114, 421416, 421800, 422211, 422600, 422999, 423420, 423793, 424196, 424588, 424961, 425341, 425737, 426096, 426449, 426841, 427214]",31,R,ITM,1.1,
5,400,trial,0,18,18,18,trial,"['S', 'S', 'S', 'S', 'S', 'S', 'S', 'C', 'C', 'C', 'C', 'C', 'C', 'C', 'C', 'C', 'C', 'C', 'C', 'C', 'C', 'C', 'C']","[443663, 443990, 444390, 444768, 445130, 445518, 445958, 446386, 446794, 447196, 447503, 447868, 448247, 448617, 448973, 449331, 449698, 450041, 450378, 450746, 451059, 451431, 451796]","[443749, 444070, 444489, 444889, 445244, 445645, 446067, 446487, 446883, 447283, 447630, 447982, 448340, 448701, 449065, 449423, 449789, 450151, 450475, 450829, 451152, 451501, 451935]","[443260, 443660, 444060, 444461, 444860, 445260, 445661, 446061, 446412, 446820, 447222, 447528, 447894, 448273, 448643, 448999, 449356, 449724, 450067, 450404, 450771, 451085, 451457, 451822]",31,R,ITM,1.1,
4,400,trial,0,19,19,19,trial,"['S', 'S', 'S', 'S', 'S', 'S', 'S', 'S', 'C', 'C', 'C', 'C', 'C', 'C', 'C', 'C', 'C', 'C', 'C', 'C', 'C', 'C', 'C', 'C']","[457583, 457859, 458250, 458564, 458924, 459276, 459659, 460060, 460457, 460851, 461224, 461581, 461970, 462301, 462718, 463094, 463475, 463822, 464197, 464588, 464900, 465267, 465745, 466140]","[457657, 457953, 458318, 458629, 458988, 459361, 459730, 460142, 460542, 460930, 461309, 461675, 462026, 462365, 462796, 463161, 463543, 463895, 464263, 464673, 464994, 465348, 465803, 466202]","[457314, 457714, 458115, 458514, 458914, 459314, 459714, 460114, 460482, 460877, 461250, 461606, 461997, 462326, 462744, 463120, 463501, 463848, 464223, 464614, 464925, 465293, 465771, 466165]",31,R,ITM,1.1,
6,600,trial,0,20,20,20,trial,"['S', 'S', 'S', 'S', 'S', 'S', 'S', 'S', 'C', 'C', 'C', 'C', 'C', 'C', 'C', 'C', 'C', 'C', 'C', 'C', 'C', 'C', 'C', 'C']","[471870, 472394, 472850, 473364, 473921, 474513, 475143, 475726, 476322, 476821, 477358, 477937, 478484, 479065, 479643, 480198, 480707, 481281, 481768, 482367, 482892, 483389, 483896, 484487]","[471949, 472465, 472906, 473428, 474004, 474572, 475215, 475785, 476374, 476894, 477411, 477990, 478559, 479131, 479703, 480274, 480804, 481332, 481842, 482414, 482929, 483448, 483966, 484551]","[471601, 472200, 472800, 473400, 474000, 474600, 475200, 475800, 476349, 476848, 477384, 477964, 478511, 479091, 479670, 480225, 480734, 481307, 481795, 482394, 482919, 483416, 483922, 484514]",31,R,ITM,1.1,
4,600,trial,0,21,21,21,trial,"['S', 'S', 'S', 'S', 'S', 'S', 'S', 'C', 'C', 'C', 'C', 'C', 'C', 'C', 'C', 'C', 'C', 'C', 'C', 'C', 'C', 'C', 'C']","[490585, 491212, 491884, 492493, 493040, 493658, 494226, 494858, 495322, 495822, 496336, 496854, 497348, 497862, 498378, 498853, 499309, 499840, 500282, 500752, 501204, 501747, 502232]","[490686, 491290, 491978, 492588, 493118, 493727, 494310, 494951, 495409, 495897, 496431, 496941, 497438, 497955, 498455, 498926, 499389, 499908, 500359, 500819, 501277, 501824, 502328]","[490179, 490778, 491378, 491978, 492578, 493178, 493778, 494379, 494883, 495347, 495848, 496362, 496879, 497374, 497888, 498405, 498879, 499335, 499865, 500307, 500777, 501229, 501773, 502257]",31,R,ITM,1.1,
5,400,trial,0,22,22,22,trial,"['S', 'S', 'S', 'S', 'S', 'S', 'S', 'C', 'C', 'C', 'C', 'C', 'C', 'C', 'C', 'C', 'C', 'C', 'C', 'C', 'C', 'C', 'C']","[507958, 508317, 508686, 509011, 509474, 509959, 510384, 510801, 511138, 511480, 511810, 512193, 512535, 512857, 513261, 513618, 514007, 514415, 514783, 515146, 515491, 515901, 516289]","[508049, 508421, 508786, 509124, 509586, 510039, 510461, 510889, 511229, 511562, 511895, 512283, 512628, 512948, 513362, 513711, 514087, 514493, 514870, 515219, 515616, 515990, 516375]","[507675, 508075, 508474, 508874, 509275, 509674, 510074, 510474, 510827, 511164, 511506, 511837, 512219, 512561, 512882, 513287, 513645, 514032, 514441, 514808, 515172, 515517, 515927, 516316]",31,R,ITM,1.1,
2,600,trial,0,23,23,23,trial,"['S', 'S', 'S', 'S', 'S', 'S', 'S', 'S', 'C', 'C', 'C', 'C', 'C', 'C', 'C', 'C', 'C', 'C', 'C', 'C', 'C', 'C', 'C', 'C']","[521971, 522520, 522894, 523422, 524056, 524630, 525252, 525774, 526375, 526858, 527365, 527863, 528345, 528808, 529274, 529748, 530203, 530660, 531155, 531571, 532024, 532472, 532966, 533409]","[522064, 522609, 522993, 523518, 524132, 524712, 525376, 525860, 526462, 526932, 527416, 527939, 528438, 528891, 529374, 529859, 530298, 530763, 531255, 531706, 532123, 532587, 533050, 533523]","[521710, 522310, 522910, 523510, 524110, 524709, 525310, 525911, 526402, 526884, 527391, 527890, 528371, 528835, 529301, 529774, 530230, 530686, 531183, 531599, 532051, 532499, 532993, 533437]",31,R,ITM,1.1,
2,400,trial,0,24,24,24,trial,"['S', 'S', 'S', 'S', 'S', 'S', 'S', 'C', 'C', 'C', 'C', 'C', 'C', 'C', 'C', 'C', 'C', 'C', 'C', 'C', 'C', 'C', 'C']","[539265, 539675, 540035, 540427, 540827, 541132, 541537, 541962, 542270, 542616, 542946, 543338, 543734, 544150, 544508, 544885, 545252, 545627, 546017, 546390, 546775, 547154, 547551]","[539353, 539758, 540119, 540532, 540925, 541258, 541628, 542041, 542354, 542674, 543032, 543416, 543806, 544204, 544594, 544969, 545339, 545701, 546109, 546478, 546857, 547236, 547634]","[538910, 539310, 539710, 540109, 540511, 540910, 541312, 541711, 541989, 542298, 542644, 542972, 543365, 543761, 544177, 544535, 544912, 545280, 545653, 546044, 546417, 546802, 547181, 547577]",31,R,ITM,1.1,
6,400,trial,0,25,25,25,trial,"['S', 'S', 'S', 'S', 'S', 'S', 'S', 'C', 'C', 'C', 'C', 'C', 'C', 'C', 'C', 'C', 'C', 'C', 'C', 'C', 'C', 'C', 'C']","[553430, 553878, 554290, 554694, 555104, 555490, 555874, 556278, 556638, 557058, 557446, 557913, 558299, 558701, 559052, 559475, 559840, 560148, 560586, 561013, 561455, 561811, 562259]","[553512, 553961, 554374, 554780, 555179, 555584, 555966, 556367, 556730, 557150, 557532, 557993, 558381, 558753, 559156, 559558, 559902, 560264, 560668, 561082, 561541, 561921, 562368]","[553128, 553528, 553928, 554329, 554728, 555128, 555528, 555928, 556306, 556664, 557085, 557472, 557939, 558325, 558728, 559079, 559503, 559866, 560176, 560613, 561040, 561481, 561838, 562286]",31,R,ITM,1.1,
7,400,trial,0,26,26,26,trial,"['S', 'S', 'S', 'S', 'S', 'S', 'S', 'C', 'C', 'C', 'C', 'C', 'C', 'C', 'C', 'C', 'C', 'C', 'C', 'C', 'C', 'C', 'C']","[567971, 568430, 568802, 569149, 569600, 569974, 570308, 570720, 571102, 571542, 571953, 572341, 572740, 573087, 573551, 573978, 574355, 574772, 575174, 575497, 575954, 576334, 576754]","[568049, 568501, 568872, 569243, 569677, 570052, 570389, 570796, 571179, 571586, 572018, 572529, 572809, 573180, 573607, 574034, 574434, 574831, 575222, 575571, 575990, 576406, 576813]","[567601, 567999, 568399, 568799, 569199, 569600, 569999, 570399, 570747, 571128, 571569, 571980, 572368, 572768, 573114, 573578, 574006, 574382, 574799, 575201, 575524, 575981, 576361, 576782]",31,R,ITM,1.1,
3,600,trial,0,27,27,27,trial,"['S', 'S', 'S', 'S', 'S', 'S', 'S', 'C', 'C', 'C', 'C', 'C', 'C', 'C', 'C', 'C', 'C', 'C', 'C', 'C', 'C', 'C', 'C']","[582612, 583407, 584012, 584598, 585222, 585830, 586419, 586982, 587448, 587939, 588396, 588856, 589370, 589847, 590306, 590769, 591202, 591647, 592087, 592591, 592979, 593461, 593970]","[582654, 583489, 584077, 584687, 585307, 585943, 586504, 587089, 587533, 588021, 588481, 588926, 589498, 589920, 590380, 590844, 591275, 591698, 592156, 592650, 593093, 593527, 593995]","[582268, 582867, 583468, 584068, 584668, 585267, 585867, 586467, 587008, 587473, 587965, 588422, 588881, 589395, 589873, 590331, 590794, 591227, 591673, 592112, 592617, 593005, 593486, 593995]",31,R,ITM,1.1,
3,400,trial,0,28,28,28,trial,"['S', 'S', 'S', 'S', 'S', 'S', 'S', 'S', 'C', 'C', 'C', 'C', 'C', 'C', 'C', 'C', 'C', 'C', 'C', 'C', 'C', 'C', 'C', 'C']","[600024, 600491, 600836, 601194, 601550, 601924, 602224, 602650, 603047, 603410, 603795, 604156, 604509, 604872, 605219, 605649, 605975, 606380, 606786, 607155, 607542, 607849, 608246, 608606]","[600111, 600566, 600896, 601271, 601641, 601998, 602327, 602754, 603164, 603517, 603881, 604238, 604589, 604952, 605319, 605718, 606085, 606468, 606859, 607253, 607649, 607953, 608324, 608692]","[599686, 600084, 600484, 600884, 601284, 601684, 602084, 602484, 603073, 603436, 603821, 604182, 604535, 604898, 605245, 605675, 606001, 606405, 606812, 607180, 607567, 607875, 608272, 608631]",31,R,ITM,1.1,
5,600,trial,0,29,29,29,trial,"['S', 'S', 'S', 'S', 'S', 'S', 'S', 'S', 'C', 'C', 'C', 'C', 'C', 'C', 'C', 'C', 'C', 'C', 'C', 'C', 'C', 'C', 'C', 'C']","[614634, 615106, 615511, 615985, 616594, 617174, 617753, 618320, 618962, 619420, 619825, 620332, 620825, 621290, 621819, 622289, 622751, 623223, 623687, 624143, 624586, 625034, 625510, 625969]","[614718, 615185, 615581, 616059, 616672, 617246, 617827, 618388, 619022, 619511, 619910, 620382, 620897, 621364, 621881, 622356, 622827, 623287, 623747, 624217, 624656, 625117, 625567, 626050]","[614273, 614873, 615473, 616072, 616672, 617272, 617872, 618472, 618989, 619446, 619850, 620357, 620851, 621316, 621846, 622315, 622777, 623250, 623713, 624169, 624613, 625059, 625536, 625995]",31,R,ITM,1.1,
2,400,trial,0,30,30,30,trial,"['S', 'S', 'S', 'S', 'S', 'S', 'S', 'C', 'C', 'C', 'C', 'C', 'C', 'C', 'C', 'C', 'C', 'C', 'C', 'C', 'C', 'C', 'C']","[643107, 643492, 643895, 644312, 644713, 645134, 645586, 645941, 646306, 646687, 647074, 647438, 647782, 648148, 648508, 648900, 649226, 649675, 650035, 650433, 650788, 651187, 651490]","[643239, 643576, 643973, 644376, 644777, 645199, 645662, 646007, 646369, 646758, 647116, 647492, 647849, 648200, 648555, 648938, 649296, 649709, 650086, 650475, 650840, 651230, 651566]","[642799, 643200, 643599, 643999, 644400, 644799, 645199, 645599, 645968, 646333, 646714, 647102, 647465, 647810, 648175, 648536, 648928, 649253, 649702, 650062, 650460, 650815, 651213, 651516]",31,R,ITM,1.1,
7,600,trial,0,31,31,31,trial,"['S', 'S', 'S', 'S', 'S', 'S', 'S', 'S', 'C', 'C', 'C', 'C', 'C', 'C', 'C', 'C', 'C', 'C', 'C', 'C', 'C', 'C', 'C', 'C']","[657078, 657651, 658110, 658590, 659251, 659795, 660414, 661036, 661536, 662081, 662584, 663114, 663622, 664153, 664657, 665147, 665620, 666078, 666551, 666994, 667421, 667960, 668446, 668930]","[657155, 657716, 658170, 658652, 659293, 659859, 660491, 661099, 661618, 662136, 662661, 663204, 663713, 664217, 664723, 665222, 665687, 666141, 666602, 667055, 667484, 667997, 668497, 668982]","[656851, 657451, 658051, 658651, 659251, 659851, 660451, 661051, 661563, 662109, 662611, 663141, 663649, 664179, 664684, 665174, 665648, 666104, 666577, 667021, 667448, 667986, 668474, 668956]",31,R,ITM,1.1,
5,600,trial,0,32,32,32,trial,"['S', 'S', 'S', 'S', 'S', 'S', 'S', 'C', 'C', 'C', 'C', 'C', 'C', 'C', 'C', 'C', 'C', 'C', 'C', 'C', 'C', 'C', 'C']","[674830, 675537, 676114, 676740, 677346, 677981, 678428, 679052, 679510, 679993, 680442, 680885, 681353, 681824, 682271, 682726, 683216, 683712, 684156, 684701, 685166, 685658, 686088]","[674937, 675593, 676180, 676826, 677416, 678052, 678492, 679115, 679583, 680067, 680516, 680970, 681420, 681890, 682345, 682800, 683278, 683762, 684232, 684789, 685255, 685704, 686176]","[674405, 675004, 675604, 676204, 676804, 677404, 678004, 678604, 679077, 679536, 680018, 680468, 680911, 681378, 681849, 682297, 682752, 683242, 683739, 684182, 684727, 685193, 685683, 686113]",31,R,ITM,1.1,
5,400,trial,0,33,33,33,trial,"['S', 'S', 'S', 'S', 'S', 'S', 'S', 'C', 'C', 'C', 'C', 'C', 'C', 'C', 'C', 'C', 'C', 'C', 'C', 'C', 'C', 'C', 'C']","[691723, 692143, 692568, 692979, 693390, 693796, 694145, 694554, 695007, 695397, 695769, 696132, 696476, 696847, 697239, 697573, 697955, 698400, 698734, 699095, 699429, 699802, 700085]","[691787, 692215, 692635, 693066, 693462, 693875, 694232, 694649, 695088, 695482, 695829, 696202, 696567, 696941, 697327, 697684, 698049, 698466, 698825, 699171, 699516, 699876, 700184]","[691411, 691810, 692210, 692611, 693010, 693410, 693810, 694210, 694580, 695032, 695422, 695795, 696159, 696503, 696872, 697265, 697598, 697980, 698427, 698760, 699121, 699456, 699828, 700110]",31,R,ITM,1.1,
3,600,trial,0,34,34,34,trial,"['S', 'S', 'S', 'S', 'S', 'S', 'S', 'S', 'C', 'C', 'C', 'C', 'C', 'C', 'C', 'C', 'C', 'C', 'C', 'C', 'C', 'C', 'C', 'C']","[706057, 706608, 706991, 707516, 708156, 708654, 709262, 709858, 710453, 710970, 711460, 711929, 712386, 712855, 713284, 713774, 714269, 714729, 715222, 715699, 716114, 716654, 717078, 717569]","[706116, 706659, 707056, 707562, 708208, 708734, 709316, 709945, 710508, 711012, 711505, 711982, 712445, 712910, 713372, 713836, 714342, 714802, 715303, 715767, 716195, 716680, 717152, 717615]","[705790, 706391, 706991, 707591, 708191, 708791, 709391, 709991, 710479, 710995, 711486, 711955, 712412, 712881, 713310, 713799, 714295, 714755, 715247, 715724, 716140, 716680, 717104, 717594]",31,R,ITM,1.1,
2,600,trial,0,35,35,35,trial,"['S', 'S', 'S', 'S', 'S', 'S', 'S', 'S', 'C', 'C', 'C', 'C', 'C', 'C', 'C', 'C', 'C', 'C', 'C', 'C', 'C', 'C', 'C', 'C']","[723219, 723586, 724199, 724789, 725433, 726033, 726634, 727198, 727711, 728256, 728756, 729320, 729973, 730471, 730923, 731539, 732062, 732579, 733087, 733582, 734055, 734551, 735040, 735527]","[723291, 723663, 724261, 724851, 725507, 726126, 726691, 727254, 727777, 728340, 728869, 729414, 730060, 730559, 731020, 731604, 732125, 732663, 733208, 733657, 734132, 734593, 735110, 735609]","[723033, 723633, 724233, 724833, 725433, 726033, 726633, 727233, 727738, 728284, 728782, 729347, 730001, 730499, 730949, 731567, 732089, 732606, 733115, 733609, 734082, 734577, 735067, 735554]",31,R,ITM,1.1,
6,600,trial,0,36,36,36,trial,"['S', 'S', 'S', 'S', 'S', 'S', 'S', 'C', 'C', 'C', 'C', 'C', 'C', 'C', 'C', 'C', 'C', 'C', 'C', 'C', 'C', 'C', 'C']","[741243, 741993, 742532, 743132, 743780, 744343, 744982, 745545, 746048, 746590, 747177, 747729, 748390, 748871, 749381, 749926, 750422, 750948, 751437, 751986, 752481, 752969, 753455]","[741315, 742040, 742612, 743211, 743810, 744363, 745003, 745591, 746099, 746634, 747234, 747756, 748417, 748922, 749434, 749960, 750485, 751022, 751528, 752092, 752530, 753017, 753551]","[740864, 741463, 742063, 742663, 743262, 743862, 744462, 745062, 745573, 746075, 746617, 747204, 747756, 748417, 748898, 749408, 749954, 750448, 750974, 751465, 752013, 752508, 752996, 753482]",31,R,ITM,1.1,
4,600,trial,0,37,37,37,trial,"['S', 'S', 'S', 'S', 'S', 'S', 'S', 'C', 'C', 'C', 'C', 'C', 'C', 'C', 'C', 'C', 'C', 'C', 'C', 'C', 'C', 'C', 'C']","[759280, 759849, 760570, 761137, 761756, 762406, 762934, 763596, 764128, 764748, 765320, 765967, 766498, 767066, 767590, 768214, 768729, 769266, 769788, 770350, 770907, 771368, 771966]","[759341, 759928, 760590, 761196, 761839, 762467, 763011, 763667, 764206, 764815, 765407, 766012, 766562, 767138, 767677, 768273, 768816, 769346, 769927, 770406, 770966, 771488, 772043]","[758868, 759468, 760068, 760668, 761267, 761867, 762467, 763067, 763622, 764153, 764774, 765345, 765992, 766524, 767091, 767616, 768240, 768754, 769292, 769814, 770375, 770932, 771394, 771993]",31,R,ITM,1.1,
3,400,trial,0,38,38,38,trial,"['S', 'S', 'S', 'S', 'S', 'S', 'S', 'C', 'C', 'C', 'C', 'C', 'C', 'C', 'C', 'C', 'C', 'C', 'C', 'C', 'C', 'C', 'C']","[778091, 778610, 778973, 779352, 779752, 780169, 780552, 780925, 781263, 781631, 782006, 782431, 782829, 783206, 783562, 783987, 784368, 784833, 785183, 785555, 785933, 786295, 786665]","[778169, 778684, 779052, 779435, 779840, 780244, 780648, 780999, 781350, 781713, 782085, 782509, 782914, 783291, 783654, 784081, 784453, 784914, 785256, 785638, 786020, 786392, 786762]","[777769, 778169, 778569, 778970, 779369, 779769, 780169, 780569, 780951, 781289, 781657, 782031, 782456, 782855, 783232, 783588, 784013, 784394, 784859, 785209, 785581, 785958, 786321, 786691]",31,R,ITM,1.1,
5,600,trial,0,39,39,39,trial,"['S', 'S', 'S', 'S', 'S', 'S', 'S', 'S', 'C', 'C', 'C', 'C', 'C', 'C', 'C', 'C', 'C', 'C', 'C', 'C', 'C', 'C', 'C', 'C']","[792563, 793104, 793687, 794208, 794768, 795279, 795844, 796307, 796729, 797133, 797540, 797942, 798307, 798693, 799066, 799482, 799889, 800274, 800679, 801063, 801446, 801846, 802256, 802688]","[792658, 793407, 793765, 794320, 794847, 795370, 795939, 796399, 796794, 797216, 797609, 798020, 798393, 798757, 799144, 799546, 799965, 800348, 800760, 801156, 801533, 801946, 802331, 802749]","[792006, 792605, 793205, 793805, 794405, 795005, 795606, 796206, 796754, 797159, 797565, 797968, 798332, 798720, 799091, 799508, 799915, 800300, 800705, 801089, 801473, 801871, 802282, 802713]",31,R,ITM,1.1,
4,400,trial,0,40,40,40,trial,"['S', 'S', 'S', 'S', 'S', 'S', 'S', 'C', 'C', 'C', 'C', 'C', 'C', 'C', 'C', 'C', 'C', 'C', 'C', 'C', 'C', 'C', 'C']","[808411, 808795, 809190, 809590, 809949, 810319, 810739, 811154, 811529, 811890, 812265, 812633, 812999, 813368, 813727, 814067, 814538, 814959, 815312, 815684, 816083, 816429, 816776]","[808493, 808847, 809249, 809635, 809969, 810403, 810820, 811213, 811593, 811958, 812333, 812705, 813068, 813423, 813792, 814151, 814643, 815038, 815383, 815767, 816156, 816498, 816801]","[808064, 808463, 808863, 809264, 809663, 810063, 810463, 810863, 811180, 811554, 811916, 812291, 812658, 813025, 813393, 813753, 814093, 814564, 814985, 815338, 815711, 816109, 816454, 816801]",31,R,ITM,1.1,
2,600,trial,0,41,41,41,trial,"['S', 'S', 'S', 'S', 'S', 'S', 'S', 'S', 'C', 'C', 'C', 'C', 'C', 'C', 'C', 'C', 'C', 'C', 'C', 'C', 'C', 'C', 'C', 'C']","[822627, 823168, 823560, 824054, 824656, 825240, 825895, 826461, 827092, 827641, 828156, 828631, 829100, 829537, 829930, 830356, 830759, 831217, 831616, 832030, 832437, 832904, 833344, 833825]","[822708, 823227, 823620, 824143, 824759, 825350, 825982, 826550, 827167, 827723, 828242, 828710, 829175, 829626, 830029, 830440, 830840, 831281, 831694, 832104, 832523, 832990, 833425, 833913]","[822343, 822942, 823543, 824143, 824743, 825344, 825944, 826543, 827120, 827669, 828183, 828658, 829126, 829564, 829958, 830384, 830787, 831245, 831643, 832057, 832464, 832931, 833371, 833852]",31,R,ITM,1.1,
6,400,trial,0,42,42,42,trial,"['S', 'S', 'S', 'S', 'S', 'S', 'S', 'S', 'S', 'C', 'C', 'C', 'C', 'C', 'C', 'C', 'C', 'C', 'C', 'C', 'C', 'C', 'C', 'C', 'C']","[847117, 847538, 847883, 848209, 848470, 848755, 849026, 849399, 849758, 850153, 850527, 850881, 851206, 851502, 851854, 852256, 852615, 852958, 853395, 853762, 854184, 854563, 854906, 855266, 855692]","[847207, 847617, 847942, 848275, 848521, 848819, 849134, 849494, 849846, 850234, 850601, 850957, 851280, 851584, 851933, 852331, 852688, 853044, 853454, 853839, 854256, 854632, 854962, 855330, 855739]","[846733, 847133, 847534, 847933, 848333, 848734, 849134, 849534, 850181, 850554, 850908, 851233, 851528, 851880, 852284, 852641, 852984, 853422, 853788, 854211, 854590, 854933, 855292, 855718]",31,R,ITM,1.1,
7,400,trial,0,43,43,43,trial,"['S', 'S', 'S', 'S', 'S', 'S', 'S', 'C', 'C', 'C', 'C', 'C', 'C', 'C', 'C', 'C', 'C', 'C', 'C', 'C', 'C', 'C', 'C']","[861341, 861726, 862180, 862579, 862967, 863418, 863826, 864224, 864637, 865080, 865481, 865888, 866310, 866706, 867139, 867538, 867909, 868353, 868761, 869151, 869571, 869979, 870363]","[861431, 861796, 862251, 862657, 863060, 863478, 863846, 864292, 864681, 865132, 865548, 865946, 866365, 866766, 867190, 867595, 867964, 868412, 868833, 869218, 869628, 870028, 870422]","[861158, 861557, 861958, 862357, 862757, 863157, 863557, 863958, 864251, 864665, 865107, 865508, 865915, 866337, 866734, 867166, 867565, 867936, 868379, 868789, 869179, 869599, 870006, 870389]",31,R,ITM,1.1,
7,600,trial,0,44,44,44,trial,"['S', 'S', 'S', 'S', 'S', 'S', 'S', 'S', 'C', 'C', 'C', 'C', 'C', 'C', 'C', 'C', 'C', 'C', 'C', 'C', 'C', 'C', 'C', 'C', 'C']","[876467, 876993, 877585, 878205, 878821, 879509, 880115, 880219, 880800, 881341, 881908, 882412, 882970, 883474, 883990, 884482, 884589, 884963, 885441, 885907, 886343, 886856, 887370, 887799, 888260]","[876576, 877074, 877701, 878229, 878949, 879616, 880139, 880239, 880857, 881399, 881998, 882528, 883041, 883537, 884047, 884509, 884609, 884989, 885469, 885935, 886419, 886884, 887402, 887827, 888288]","[876145, 876745, 877345, 877945, 878545, 879145, 879746, 880346, 880827, 881369, 881936, 882440, 882997, 883501, 884017, 884508, 884989, 885469, 885935, 886370, 886884, 887397, 887827, 888288]",31,R,ITM,1.1,
4,600,trial,0,45,45,45,trial,"['S', 'S', 'S', 'S', 'S', 'S', 'S', 'S', 'C', 'C', 'C', 'C', 'C', 'C', 'C', 'C', 'C', 'C', 'C', 'C', 'C', 'C', 'C', 'C']","[893966, 894559, 895155, 895795, 896338, 896916, 897512, 898099, 898679, 899402, 899927, 900477, 900985, 901446, 901936, 902462, 902943, 903435, 903923, 904421, 904923, 905405, 905924, 906390]","[893986, 894615, 895227, 895874, 896438, 897008, 897597, 898193, 898852, 899495, 900006, 900558, 901060, 901530, 902034, 902544, 903046, 903518, 904017, 904502, 905010, 905495, 905994, 906493]","[893663, 894262, 894862, 895462, 896062, 896662, 897262, 897862, 898705, 899428, 899953, 900503, 901012, 901472, 901961, 902488, 902969, 903461, 903949, 904446, 904948, 905431, 905950, 906416]",31,R,ITM,1.1,
7,400,trial,0,46,46,46,trial,"['S', 'S', 'S', 'S', 'S', 'S', 'S', 'C', 'C', 'C', 'C', 'C', 'C', 'C', 'C', 'C', 'C', 'C', 'C', 'C', 'C', 'C', 'C']","[912032, 912431, 912872, 913324, 913770, 914159, 914558, 914937, 915368, 915763, 916162, 916539, 916972, 917384, 917755, 918126, 918577, 918949, 919377, 919779, 920165, 920547, 920968]","[912106, 912514, 912958, 913393, 913827, 914229, 914607, 915018, 915422, 915822, 916216, 916626, 917047, 917468, 917805, 918189, 918636, 919036, 919460, 919833, 920247, 920614, 921032]","[911795, 912193, 912593, 912993, 913393, 913794, 914193, 914593, 914964, 915395, 915789, 916189, 916566, 916999, 917411, 917783, 918153, 918603, 918977, 919404, 919805, 920193, 920573, 920995]",31,R,ITM,1.1,
3,600,trial,0,47,47,47,trial,"['S', 'S', 'S', 'S', 'S', 'S', 'S', 'C', 'C', 'C', 'C', 'C', 'C', 'C', 'C', 'C', 'C', 'C', 'C', 'C', 'C', 'C', 'C']","[926995, 927706, 928351, 928923, 929509, 930115, 930675, 931274, 931836, 932368, 932884, 933429, 933943, 934468, 934989, 935514, 936014, 936505, 936975, 937493, 937960, 938458, 938945]","[927062, 927793, 928428, 929028, 929588, 930195, 930761, 931344, 931901, 932441, 932955, 933502, 934030, 934534, 935069, 935565, 936083, 936588, 937067, 937555, 938033, 938535, 939026]","[926627, 927227, 927827, 928428, 929028, 929628, 930227, 930827, 931300, 931862, 932393, 932910, 933454, 933968, 934494, 935015, 935540, 936040, 936530, 937000, 937519, 937986, 938483, 938971]",31,R,ITM,1.1,
2,400,trial,0,48,48,48,trial,"['S', 'S', 'S', 'S', 'S', 'S', 'S', 'S', 'C', 'C', 'C', 'C', 'C', 'C', 'C', 'C', 'C', 'C', 'C', 'C', 'C', 'C', 'C', 'C']","[944931, 945469, 945764, 946083, 946406, 946783, 947100, 947426, 947710, 948029, 948358, 948808, 949171, 949562, 949961, 950289, 950732, 951154, 951517, 951859, 952259, 952616, 953026, 953414]","[945009, 945527, 945832, 946164, 946481, 946852, 947186, 947503, 947796, 948101, 948436, 948865, 949243, 949637, 950034, 950404, 950791, 951205, 951588, 951939, 952311, 952679, 953077, 953479]","[944596, 944996, 945396, 945797, 946196, 946596, 946996, 947396, 947738, 948056, 948384, 948836, 949198, 949588, 949989, 950316, 950759, 951181, 951544, 951886, 952286, 952643, 953053, 953442]",31,R,ITM,1.1,
3,400,trial,0,49,49,49,trial,"['S', 'S', 'S', 'S', 'S', 'S', 'S', 'C', 'C', 'C', 'C', 'C', 'C', 'C', 'C', 'C', 'C', 'C', 'C', 'C', 'C', 'C', 'C']","[959472, 959861, 960281, 960697, 961076, 961476, 961850, 962251, 962567, 962876, 963293, 963743, 964127, 964502, 964913, 965275, 965642, 966070, 966482, 966831, 967255, 967641, 968091]","[959541, 959917, 960332, 960717, 961096, 961531, 961870, 962305, 962634, 962964, 963318, 963769, 964183, 964575, 964938, 965318, 965707, 966095, 966508, 966901, 967280, 967716, 968139]","[959116, 959516, 959917, 960316, 960716, 961117, 961517, 961917, 962277, 962592, 962902, 963318, 963769, 964153, 964528, 964938, 965301, 965667, 966095, 966508, 966856, 967280, 967666, 968117]",31,R,ITM,1.1,
6,400,trial,0,50,50,50,trial,"['B', 'S', 'S', 'S', 'S', 'S', 'S', 'S', 'C', 'C', 'C', 'C', 'C', 'C', 'C', 'C', 'C', 'C', 'C', 'C', 'C', 'C', 'C', 'C']","[973796, 974190, 974593, 974979, 975353, 975787, 976181, 976553, 976912, 977342, 977729, 978110, 978504, 978883, 979279, 979655, 980013, 980418, 980829, 981228, 981600, 982040, 982397, 982810]","[973856, 974210, 974657, 975038, 975373, 975850, 976226, 976573, 976982, 977369, 977794, 978179, 978569, 978950, 979331, 979737, 980118, 980516, 980927, 981340, 981694, 982122, 982481, 982896]","[973809, 974209, 974608, 975008, 975409, 975808, 976208, 976608, 976939, 977369, 977756, 978137, 978532, 978910, 979307, 979683, 980040, 980446, 980856, 981256, 981626, 982067, 982424, 982838]",31,R,ITM,1.1,
6,600,trial,0,51,51,51,trial,"['S', 'S', 'S', 'S', 'S', 'S', 'S', 'S', 'C', 'C', 'C', 'C', 'C', 'C', 'C', 'C', 'C', 'C', 'C', 'C', 'C', 'C', 'C', 'C']","[988694, 989193, 989765, 990194, 990751, 991394, 991948, 992544, 993140, 993699, 994216, 994768, 995267, 995841, 996399, 996947, 997489, 998079, 998581, 999143, 999678, 1000214, 1000726, 1001379]","[988783, 989279, 989884, 990290, 990840, 991484, 992054, 992652, 993235, 993820, 994384, 994859, 995364, 995919, 996486, 997036, 997575, 998157, 998679, 999218, 999779, 1000331, 1000850, 1001454]","[988395, 988994, 989594, 990194, 990794, 991394, 991994, 992594, 993167, 993726, 994243, 994795, 995294, 995868, 996426, 996974, 997516, 998106, 998608, 999171, 999705, 1000241, 1000753, 1001406]",31,R,ITM,1.1,
5,400,trial,0,52,52,52,trial,"['S', 'S', 'S', 'S', 'S', 'S', 'S', 'C', 'C', 'C', 'C', 'C', 'C', 'C', 'C', 'C', 'C', 'C', 'C', 'C', 'C', 'C', 'C']","[1007101, 1007490, 1007867, 1008292, 1008658, 1009114, 1009495, 1009867, 1010212, 1010740, 1011144, 1011509, 1011895, 1012313, 1012666, 1013053, 1013511, 1013866, 1014256, 1014679, 1015089, 1015500, 1015881]","[1007174, 1007554, 1007912, 1008317, 1008731, 1009193, 1009561, 1009894, 1010284, 1010766, 1011191, 1011560, 1011960, 1012369, 1012741, 1013130, 1013562, 1013947, 1014343, 1014752, 1015174, 1015575, 1015962]","[1006789, 1007188, 1007588, 1007988, 1008389, 1008788, 1009188, 1009588, 1009893, 1010239, 1010765, 1011170, 1011535, 1011921, 1012338, 1012692, 1013080, 1013536, 1013892, 1014282, 1014705, 1015114, 1015527, 1015907]",31,R,ITM,1.1,
4,400,trial,0,53,53,53,trial,"['S', 'S', 'S', 'S', 'S', 'S', 'S', 'C', 'C', 'C', 'C', 'C', 'C', 'C', 'C', 'C', 'C', 'C', 'C', 'C', 'C', 'C', 'C']","[1021966, 1022358, 1022743, 1023179, 1023612, 1024007, 1024411, 1024798, 1025240, 1025639, 1026055, 1026482, 1026836, 1027315, 1027718, 1028079, 1028542, 1028967, 1029324, 1029711, 1030164, 1030579, 1030991]","[1021986, 1022423, 1022764, 1023253, 1023635, 1024072, 1024485, 1024878, 1025309, 1025713, 1026131, 1026568, 1026961, 1027382, 1027806, 1028187, 1028595, 1029033, 1029392, 1029792, 1030213, 1030638, 1031055]","[1021686, 1022086, 1022485, 1022885, 1023285, 1023685, 1024086, 1024485, 1024824, 1025265, 1025665, 1026080, 1026507, 1026863, 1027341, 1027744, 1028105, 1028569, 1028993, 1029350, 1029737, 1030190, 1030604, 1031018]",31,R,ITM,1.1,
4,600,trial,0,54,54,54,trial,"['S', 'S', 'S', 'S', 'S', 'S', 'S', 'S', 'C', 'C', 'C', 'C', 'C', 'C', 'C', 'C', 'C', 'C', 'C', 'C', 'C', 'C', 'C', 'C']","[1039380, 1039968, 1040419, 1040926, 1041451, 1042082, 1042551, 1043179, 1043820, 1044321, 1044823, 1045315, 1045858, 1046362, 1046843, 1047331, 1047860, 1048332, 1048866, 1049330, 1049904, 1050369, 1050857, 1051378]","[1039479, 1040036, 1040720, 1041039, 1041542, 1042181, 1042632, 1043246, 1043887, 1044402, 1044896, 1045392, 1045935, 1046438, 1046920, 1047401, 1047947, 1048419, 1048930, 1049393, 1049982, 1050452, 1050937, 1051480]","[1039136, 1039735, 1040335, 1040935, 1041536, 1042136, 1042736, 1043335, 1043846, 1044347, 1044849, 1045341, 1045884, 1046387, 1046868, 1047357, 1047885, 1048357, 1048892, 1049356, 1049929, 1050394, 1050883, 1051404]",31,R,ITM,1.1,
6,600,trial,0,55,55,55,trial,"['S', 'S', 'S', 'S', 'S', 'S', 'S', 'C', 'C', 'C', 'C', 'C', 'C', 'C', 'C', 'C', 'C', 'C', 'C', 'C', 'C', 'C', 'C']","[1057429, 1058034, 1058636, 1059185, 1059830, 1060397, 1061023, 1061613, 1062113, 1062650, 1063203, 1063701, 1064190, 1064706, 1065211, 1065767, 1066253, 1066774, 1067268, 1067770, 1068242, 1068733, 1069189]","[1057488, 1058104, 1058703, 1059256, 1059888, 1060496, 1061090, 1061682, 1062185, 1062711, 1063255, 1063763, 1064265, 1064785, 1065289, 1065856, 1066279, 1066801, 1067369, 1067849, 1068328, 1068760, 1069289]","[1057020, 1057619, 1058220, 1058820, 1059420, 1060019, 1060619, 1061219, 1061640, 1062139, 1062677, 1063230, 1063728, 1064218, 1064732, 1065238, 1065795, 1066279, 1066801, 1067294, 1067797, 1068269, 1068760, 1069215]",31,R,ITM,1.1,
4,600,trial,0,56,56,56,trial,"['S', 'S', 'S', 'S', 'S', 'S', 'S', 'C', 'C', 'C', 'C', 'C', 'C', 'C', 'C', 'C', 'C', 'C', 'C', 'C', 'C', 'C', 'C']","[1075067, 1075743, 1076315, 1076899, 1077500, 1078013, 1078651, 1079225, 1079780, 1080346, 1080887, 1081464, 1082022, 1082633, 1083171, 1083671, 1084198, 1084677, 1085237, 1085764, 1086307, 1086791, 1087314]","[1075139, 1075806, 1076377, 1076986, 1077576, 1078099, 1078733, 1079308, 1079831, 1080423, 1080954, 1081518, 1082098, 1082703, 1083236, 1083740, 1084275, 1084740, 1085300, 1085838, 1086360, 1086876, 1087393]","[1074573, 1075172, 1075772, 1076372, 1076972, 1077572, 1078172, 1078772, 1079250, 1079805, 1080372, 1080912, 1081490, 1082048, 1082658, 1083197, 1083697, 1084225, 1084702, 1085262, 1085790, 1086332, 1086817, 1087340]",31,R,ITM,1.1,
7,600,trial,0,57,57,57,trial,"['S', 'S', 'S', 'S', 'S', 'S', 'S', 'C', 'C', 'C', 'C', 'C', 'C', 'C', 'C', 'C', 'C', 'C', 'C', 'C', 'C', 'C', 'C']","[1092997, 1093670, 1094265, 1094896, 1095561, 1096246, 1096837, 1097428, 1097971, 1098587, 1099241, 1099837, 1100421, 1100981, 1101547, 1102145, 1102724, 1103304, 1103852, 1104453, 1104984, 1105600, 1106109]","[1093017, 1093727, 1094323, 1094966, 1095628, 1096302, 1096912, 1097487, 1098043, 1098664, 1099284, 1099901, 1100489, 1101049, 1101605, 1102203, 1102778, 1103381, 1103924, 1104530, 1105077, 1105658, 1106211]","[1092825, 1093424, 1094024, 1094624, 1095224, 1095824, 1096424, 1097024, 1097454, 1097999, 1098613, 1099268, 1099865, 1100447, 1101008, 1101574, 1102172, 1102750, 1103331, 1103879, 1104480, 1105010, 1105627, 1106137]",31,R,ITM,1.1,
3,600,trial,0,58,58,58,trial,"['S', 'S', 'S', 'S', 'S', 'S', 'S', 'S', 'C', 'C', 'C', 'C', 'C', 'C', 'C', 'C', 'C', 'C', 'C', 'C', 'C', 'C', 'C', 'C']","[1111936, 1112492, 1112870, 1113349, 1113904, 1114435, 1115092, 1115701, 1116288, 1116815, 1117336, 1117892, 1118418, 1118988, 1119535, 1119986, 1120481, 1121015, 1121498, 1122017, 1122511, 1122946, 1123412, 1123891]","[1111957, 1112553, 1112939, 1113419, 1113988, 1114526, 1115146, 1115768, 1116362, 1116871, 1117410, 1117954, 1118494, 1119049, 1119592, 1120067, 1120556, 1121062, 1121571, 1122078, 1122566, 1123010, 1123478, 1123916]","[1111645, 1112243, 1112843, 1113443, 1114043, 1114643, 1115243, 1115843, 1116313, 1116840, 1117362, 1117918, 1118444, 1119013, 1119560, 1120013, 1120506, 1121041, 1121523, 1122042, 1122537, 1122971, 1123438, 1123916]",31,R,ITM,1.1,
4,400,trial,0,59,59,59,trial,"['S', 'S', 'S', 'S', 'S', 'S', 'S', 'C', 'C', 'C', 'C', 'C', 'C', 'C', 'C', 'C', 'C', 'C', 'C', 'C', 'C', 'C', 'C']","[1129848, 1130374, 1130814, 1131273, 1131724, 1132120, 1132518, 1132881, 1133309, 1133725, 1134078, 1134447, 1134906, 1135328, 1135716, 1136067, 1136492, 1136898, 1137317, 1137736, 1138178, 1138562, 1138989]","[1129922, 1130416, 1130862, 1131322, 1131748, 1132172, 1132566, 1132937, 1133371, 1133751, 1134131, 1134529, 1134931, 1135353, 1135770, 1136140, 1136535, 1136946, 1137368, 1137806, 1138233, 1138634, 1139039]","[1129712, 1130113, 1130512, 1130912, 1131313, 1131712, 1132112, 1132512, 1132908, 1133335, 1133751, 1134104, 1134473, 1134931, 1135353, 1135742, 1136093, 1136518, 1136923, 1137343, 1137762, 1138203, 1138587, 1139014]",31,R,ITM,1.1,
4,400,trial,0,60,60,60,trial,"['S', 'S', 'S', 'S', 'S', 'S', 'S', 'C', 'C', 'C', 'C', 'C', 'C', 'C', 'C', 'C', 'C', 'C', 'C', 'C', 'C', 'C', 'C']","[1145057, 1145490, 1145896, 1146301, 1146739, 1147141, 1147523, 1147892, 1148318, 1148673, 1149064, 1149438, 1149744, 1150259, 1150663, 1151071, 1151481, 1151781, 1152209, 1152538, 1153012, 1153418, 1153789]","[1145134, 1145534, 1145949, 1146361, 1146799, 1147193, 1147594, 1147972, 1148385, 1148742, 1149129, 1149501, 1149828, 1150324, 1150732, 1151128, 1151507, 1151874, 1152278, 1152620, 1153081, 1153470, 1153862]","[1144733, 1145134, 1145533, 1145933, 1146333, 1146733, 1147133, 1147533, 1147918, 1148344, 1148698, 1149089, 1149464, 1149769, 1150284, 1150689, 1151096, 1151507, 1151807, 1152235, 1152564, 1153038, 1153443, 1153815]",31,R,ITM,1.1,
7,400,trial,0,61,61,61,trial,"['S', 'S', 'S', 'S', 'S', 'S', 'S', 'C', 'C', 'C', 'C', 'C', 'C', 'C', 'C', 'C', 'C', 'C', 'C', 'C', 'C', 'C', 'C']","[1159749, 1160212, 1160619, 1161023, 1161502, 1161901, 1162260, 1162600, 1162963, 1163333, 1163668, 1164027, 1164392, 1164699, 1165030, 1165381, 1165740, 1166064, 1166455, 1166830, 1167224, 1167572, 1167931]","[1159769, 1160296, 1160692, 1161330, 1161584, 1161961, 1162327, 1162677, 1163029, 1163388, 1163738, 1164093, 1164440, 1164764, 1165097, 1165434, 1165812, 1166155, 1166504, 1166899, 1167272, 1167629, 1167993]","[1159473, 1159871, 1160271, 1160671, 1161071, 1161472, 1161871, 1162271, 1162627, 1162990, 1163360, 1163695, 1164054, 1164420, 1164726, 1165057, 1165408, 1165766, 1166091, 1166482, 1166858, 1167252, 1167599, 1167958]",31,R,ITM,1.1,
5,600,trial,0,62,62,62,trial,"['S', 'S', 'S', 'S', 'S', 'S', 'S', 'S', 'C', 'C', 'C', 'C', 'C', 'C', 'C', 'C', 'C', 'C', 'C', 'C', 'C', 'C', 'C', 'C']","[1173581, 1173977, 1174616, 1175218, 1175844, 1176509, 1177015, 1177609, 1178247, 1178857, 1179503, 1180137, 1180762, 1181369, 1181969, 1182590, 1183182, 1183776, 1184422, 1185048, 1185630, 1186224, 1186917, 1187562]","[1173654, 1174066, 1174682, 1175285, 1175906, 1176561, 1177092, 1177681, 1178321, 1178923, 1179563, 1180203, 1180831, 1181437, 1182047, 1182653, 1183267, 1183838, 1184488, 1185127, 1185720, 1186297, 1186975, 1187631]","[1173467, 1174066, 1174666, 1175266, 1175866, 1176466, 1177066, 1177666, 1178272, 1178883, 1179529, 1180164, 1180787, 1181395, 1181995, 1182616, 1183209, 1183802, 1184448, 1185075, 1185655, 1186249, 1186942, 1187588]",31,R,ITM,1.1,
7,600,trial,0,63,63,63,trial,"['S', 'S', 'S', 'S', 'S', 'S', 'S', 'S', 'C', 'C', 'C', 'C', 'C', 'C', 'C', 'C', 'C', 'C', 'C', 'C', 'C', 'C', 'C', 'C']","[1193552, 1194127, 1194692, 1195111, 1195715, 1196270, 1196917, 1197487, 1198049, 1198636, 1199219, 1199817, 1200407, 1200965, 1201522, 1202084, 1202629, 1203167, 1203716, 1204272, 1204820, 1205400, 1205913, 1206544]","[1193635, 1194208, 1194778, 1195185, 1195781, 1196311, 1196971, 1197507, 1198115, 1198703, 1199300, 1199898, 1200474, 1201022, 1201598, 1202148, 1202703, 1203241, 1203785, 1204331, 1204880, 1205451, 1206000, 1206608]","[1193287, 1193886, 1194486, 1195086, 1195686, 1196286, 1196887, 1197487, 1198075, 1198662, 1199246, 1199844, 1200434, 1200992, 1201549, 1202111, 1202656, 1203193, 1203742, 1204299, 1204847, 1205427, 1205941, 1206572]",31,R,ITM,1.1,
3,400,trial,0,64,64,64,trial,"['S', 'S', 'S', 'S', 'S', 'S', 'S', 'C', 'C', 'C', 'C', 'C', 'C', 'C', 'C', 'C', 'C', 'C', 'C', 'C', 'C', 'C', 'C']","[1212409, 1212847, 1213238, 1213628, 1213980, 1214396, 1214784, 1215213, 1215585, 1215983, 1216392, 1216830, 1217220, 1217591, 1218034, 1218451, 1218891, 1219265, 1219613, 1220079, 1220529, 1220953, 1221342]","[1212465, 1212901, 1213277, 1213680, 1214062, 1214452, 1214804, 1215282, 1215629, 1216031, 1216438, 1216856, 1217276, 1217658, 1218087, 1218516, 1218961, 1219338, 1219710, 1220125, 1220579, 1221022, 1221415]","[1212123, 1212521, 1212921, 1213321, 1213721, 1214121, 1214521, 1214921, 1215239, 1215610, 1216009, 1216417, 1216856, 1217246, 1217616, 1218060, 1218477, 1218917, 1219291, 1219639, 1220105, 1220554, 1220978, 1221367]",31,R,ITM,1.1,
5,400,trial,0,65,65,65,trial,"['S', 'S', 'S', 'S', 'S', 'S', 'S', 'S', 'C', 'C', 'C', 'C', 'C', 'C', 'C', 'C', 'C', 'C', 'C', 'C', 'C', 'C', 'C', 'C']","[1227081, 1227571, 1227955, 1228335, 1228724, 1229096, 1229507, 1229833, 1230211, 1230577, 1230941, 1231353, 1231758, 1232139, 1232523, 1232919, 1233336, 1233745, 1234160, 1234545, 1234899, 1235312, 1235691, 1236094]","[1227138, 1227621, 1228014, 1228390, 1228786, 1229116, 1229528, 1229894, 1230236, 1230624, 1231006, 1231411, 1231833, 1232215, 1232568, 1232993, 1233409, 1233848, 1234248, 1234592, 1234968, 1235339, 1235772, 1236168]","[1227033, 1227433, 1227833, 1228233, 1228634, 1229033, 1229433, 1229833, 1230236, 1230603, 1230966, 1231379, 1231783, 1232164, 1232548, 1232945, 1233361, 1233771, 1234186, 1234571, 1234925, 1235339, 1235717, 1236120]",31,R,ITM,1.1,
7,400,trial,0,66,66,66,trial,"['S', 'S', 'S', 'S', 'S', 'S', 'S', 'C', 'C', 'C', 'C', 'C', 'C', 'C', 'C', 'C', 'C', 'C', 'C', 'C', 'C', 'C', 'C']","[1241886, 1242271, 1242711, 1243180, 1243612, 1244023, 1244416, 1244836, 1245206, 1245649, 1246083, 1246496, 1246824, 1247233, 1247675, 1248074, 1248521, 1248975, 1249396, 1249826, 1250230, 1250641, 1250992]","[1241906, 1242346, 1242731, 1243200, 1243632, 1244075, 1244436, 1244911, 1245293, 1245677, 1246140, 1246543, 1246910, 1247259, 1247703, 1248120, 1248548, 1249003, 1249423, 1249867, 1250257, 1250686, 1251053]","[1241647, 1242045, 1242445, 1242846, 1243246, 1243646, 1244046, 1244446, 1244863, 1245234, 1245677, 1246110, 1246524, 1246852, 1247259, 1247703, 1248101, 1248548, 1249003, 1249423, 1249854, 1250257, 1250669, 1251019]",31,R,ITM,1.1,
2,400,trial,0,67,67,67,trial,"['S', 'S', 'S', 'S', 'S', 'S', 'S', 'C', 'C', 'C', 'C', 'C', 'C', 'C', 'C', 'C', 'C', 'C', 'C', 'C', 'C', 'C', 'C']","[1257024, 1257513, 1257938, 1258355, 1258753, 1259120, 1259534, 1260039, 1260437, 1260892, 1261304, 1261690, 1262143, 1262530, 1262934, 1263399, 1263792, 1264208, 1264567, 1264985, 1265337, 1265738, 1266072]","[1257107, 1257588, 1258004, 1258411, 1258785, 1259204, 1259622, 1260122, 1260528, 1260959, 1261377, 1261752, 1262215, 1262611, 1263024, 1263443, 1263878, 1264245, 1264645, 1265050, 1265404, 1265813, 1266197]","[1256804, 1257204, 1257604, 1258004, 1258403, 1258804, 1259204, 1259603, 1260066, 1260464, 1260918, 1261332, 1261718, 1262171, 1262557, 1262960, 1263427, 1263818, 1264235, 1264593, 1265011, 1265364, 1265766, 1266100]",31,R,ITM,1.1,
6,600,trial,0,68,68,68,trial,"['S', 'S', 'S', 'S', 'S', 'S', 'S', 'C', 'C', 'C', 'C', 'C', 'C', 'C', 'C', 'C', 'C', 'C', 'C', 'C', 'C', 'C', 'C']","[1271979, 1272485, 1273263, 1273910, 1274582, 1275150, 1275760, 1276390, 1276946, 1277506, 1278029, 1278537, 1279041, 1279580, 1280105, 1280626, 1281116, 1281660, 1282217, 1282729, 1283272, 1283785, 1284267]","[1272046, 1272570, 1273319, 1273979, 1274646, 1275232, 1275832, 1276441, 1277025, 1277574, 1278111, 1278612, 1279108, 1279661, 1280174, 1280702, 1281199, 1281753, 1282288, 1282813, 1283344, 1283871, 1284382]","[1271633, 1272232, 1272833, 1273433, 1274033, 1274632, 1275232, 1275832, 1276418, 1276974, 1277533, 1278057, 1278564, 1279068, 1279606, 1280132, 1280654, 1281142, 1281687, 1282243, 1282757, 1283299, 1283812, 1284293]",31,R,ITM,1.1,
2,600,trial,0,69,69,69,trial,"['S', 'S', 'S', 'S', 'S', 'S', 'S', 'C', 'C', 'C', 'C', 'C', 'C', 'C', 'C', 'C', 'C', 'C', 'C', 'C', 'C', 'C', 'C', 'C', 'C', 'C']","[1289962, 1290701, 1291374, 1292011, 1292599, 1293197, 1293896, 1294457, 1295039, 1295632, 1296217, 1296823, 1297378, 1297961, 1298433, 1298973, 1299578, 1300136, 1300689, 1301274, 1301861, 1301970, 1302427, 1302535, 1302962, 1303069]","[1290013, 1290784, 1291458, 1292092, 1292685, 1293277, 1293967, 1294559, 1295134, 1295719, 1296386, 1297029, 1297509, 1298100, 1298711, 1299332, 1299866, 1300428, 1300965, 1301515, 1301889, 1302057, 1302455, 1302606, 1302989, 1303141]","[1289712, 1290312, 1290912, 1291511, 1292111, 1292712, 1293313, 1293913, 1294485, 1295066, 1295659, 1296244, 1296850, 1297405, 1297989, 1298460, 1299001, 1299606, 1300164, 1300716, 1301302, 1301888, 1302455, 1302989]",31,R,ITM,1.1,
5,600,trial,0,70,70,70,trial,"['B', 'S', 'S', 'S', 'S', 'S', 'S', 'S', 'C', 'C', 'C', 'C', 'C', 'C', 'C', 'C', 'C', 'C', 'C', 'C', 'C', 'C', 'C', 'C']","[1308593, 1309024, 1309615, 1310161, 1310793, 1311336, 1311982, 1312513, 1313323, 1313890, 1314426, 1314998, 1315531, 1316111, 1316624, 1317216, 1317765, 1318233, 1318782, 1319309, 1319799, 1320322, 1320796, 1321340]","[1308613, 1309180, 1309728, 1310283, 1310891, 1311458, 1312095, 1312732, 1313469, 1313988, 1314537, 1315096, 1315636, 1316182, 1316729, 1317313, 1317867, 1318332, 1318858, 1319385, 1319897, 1320406, 1320882, 1321410]","[1308605, 1309204, 1309804, 1310404, 1311004, 1311604, 1312204, 1312804, 1313348, 1313915, 1314452, 1315023, 1315557, 1316136, 1316649, 1317242, 1317790, 1318258, 1318808, 1319334, 1319825, 1320347, 1320821, 1321366]",31,R,ITM,1.1,
6,400,trial,0,71,71,71,trial,"['B', 'S', 'S', 'S', 'S', 'S', 'S', 'C', 'C', 'C', 'C', 'C', 'C', 'C', 'C', 'C', 'C', 'C', 'C', 'C', 'C', 'C', 'C']","[1326731, 1327350, 1327766, 1328266, 1328656, 1329084, 1329483, 1329897, 1330202, 1330608, 1331024, 1331405, 1331873, 1332236, 1332696, 1333069, 1333455, 1333851, 1334244, 1334645, 1335054, 1335482, 1335852]","[1326785, 1327425, 1327839, 1328307, 1328722, 1329153, 1329549, 1329975, 1330302, 1330649, 1331064, 1331464, 1331920, 1332310, 1332748, 1333128, 1333504, 1333901, 1334320, 1334727, 1335131, 1335530, 1335932]","[1326743, 1327143, 1327543, 1327943, 1328344, 1328743, 1329143, 1329544, 1329925, 1330229, 1330634, 1331051, 1331432, 1331900, 1332262, 1332723, 1333097, 1333482, 1333877, 1334272, 1334672, 1335081, 1335508, 1335878]",31,R,ITM,1.1,
3,400,trial,0,72,72,72,trial,"['S', 'S', 'S', 'S', 'S', 'S', 'S', 'C', 'C', 'C', 'C', 'C', 'C', 'C', 'C', 'C', 'C', 'C', 'C', 'C', 'C', 'C', 'C']","[1341968, 1342415, 1342819, 1343243, 1343571, 1343971, 1344379, 1344758, 1345186, 1345583, 1345964, 1346375, 1346772, 1347156, 1347574, 1347937, 1348299, 1348717, 1349092, 1349440, 1349879, 1350264, 1350673]","[1341988, 1342435, 1342876, 1343287, 1343648, 1344029, 1344429, 1344828, 1345228, 1345632, 1346034, 1346433, 1346841, 1347231, 1347629, 1348011, 1348374, 1348776, 1349161, 1349537, 1349949, 1350319, 1350747]","[1341644, 1342044, 1342443, 1342843, 1343243, 1343643, 1344044, 1344443, 1344784, 1345212, 1345608, 1345989, 1346401, 1346798, 1347182, 1347600, 1347962, 1348326, 1348743, 1349117, 1349466, 1349905, 1350290, 1350699]",31,R,ITM,1.1,
3,600,trial,0,73,73,73,trial,"['S', 'S', 'S', 'S', 'S', 'S', 'S', 'S', 'C', 'C', 'C', 'C', 'C', 'C', 'C', 'C', 'C', 'C', 'C', 'C', 'C', 'C', 'C', 'C']","[1356008, 1356395, 1357165, 1357731, 1358364, 1358969, 1359624, 1360248, 1360780, 1361343, 1361898, 1362530, 1363075, 1363640, 1364154, 1364734, 1365232, 1365790, 1366309, 1366840, 1367410, 1367899, 1368401, 1368948]","[1356062, 1356416, 1357212, 1357775, 1358420, 1359038, 1359691, 1360319, 1360850, 1361409, 1361942, 1362555, 1363138, 1363747, 1364207, 1364790, 1365310, 1365866, 1366378, 1366913, 1367461, 1367956, 1368463, 1369018]","[1356008, 1356608, 1357208, 1357808, 1358408, 1359008, 1359608, 1360208, 1360805, 1361369, 1361924, 1362555, 1363100, 1363665, 1364179, 1364760, 1365258, 1365816, 1366335, 1366865, 1367436, 1367924, 1368427, 1368974]",31,R,ITM,1.1,
6,400,trial,0,74,74,74,trial,"['S', 'S', 'S', 'S', 'S', 'S', 'S', 'C', 'C', 'C', 'C', 'C', 'C', 'C', 'C', 'C', 'C', 'C', 'C', 'C', 'C', 'C', 'C']","[1374871, 1375376, 1375869, 1376311, 1376735, 1377186, 1377526, 1377901, 1378274, 1378616, 1378952, 1379400, 1379826, 1380239, 1380643, 1381047, 1381422, 1381820, 1382203, 1382649, 1383068, 1383471, 1383916]","[1374891, 1375396, 1375909, 1376372, 1376794, 1377241, 1377585, 1377964, 1378322, 1378669, 1379034, 1379453, 1379854, 1380281, 1380690, 1381087, 1381475, 1381896, 1382279, 1382703, 1383134, 1383540, 1384002]","[1374708, 1375108, 1375507, 1375907, 1376307, 1376707, 1377107, 1377507, 1377928, 1378300, 1378643, 1378978, 1379427, 1379853, 1380267, 1380670, 1381074, 1381448, 1381847, 1382230, 1382676, 1383095, 1383498, 1383943]",31,R,ITM,1.1,
2,600,trial,0,75,75,75,trial,"['S', 'S', 'S', 'S', 'S', 'S', 'S', 'S', 'C', 'C', 'C', 'C', 'C', 'C', 'C', 'C', 'C', 'C', 'C', 'C', 'C', 'C', 'C', 'C']","[1389589, 1389998, 1390684, 1391269, 1391835, 1392433, 1393059, 1393581, 1394191, 1394756, 1395271, 1395773, 1396260, 1396817, 1397298, 1397809, 1398312, 1398874, 1399376, 1399898, 1400390, 1400958, 1401368, 1401980]","[1389644, 1390067, 1390744, 1391323, 1391906, 1392476, 1393124, 1393655, 1394266, 1394833, 1395359, 1395851, 1396342, 1396897, 1397382, 1397869, 1398389, 1398939, 1399455, 1399974, 1400480, 1401023, 1401459, 1402063]","[1389494, 1390094, 1390694, 1391294, 1391894, 1392494, 1393093, 1393694, 1394217, 1394784, 1395298, 1395801, 1396287, 1396845, 1397324, 1397835, 1398340, 1398901, 1399404, 1399924, 1400418, 1400985, 1401395, 1402008]",31,R,ITM,1.1,
5,400,trial,0,76,76,76,trial,"['S', 'S', 'S', 'S', 'S', 'S', 'S', 'S', 'C', 'C', 'C', 'C', 'C', 'C', 'C', 'C', 'C', 'C', 'C', 'C', 'C', 'C', 'C', 'C']","[1407783, 1408354, 1408775, 1409206, 1409582, 1409850, 1410109, 1410459, 1410806, 1411163, 1411539, 1411898, 1412277, 1412665, 1413088, 1413498, 1413856, 1414257, 1414657, 1415057, 1415415, 1415800, 1416219, 1416582]","[1407855, 1408429, 1408845, 1409267, 1409669, 1409927, 1410172, 1410519, 1410892, 1411241, 1411601, 1411944, 1412334, 1412723, 1413131, 1413538, 1413907, 1414284, 1414682, 1415083, 1415469, 1415865, 1416245, 1416656]","[1407731, 1408132, 1408531, 1408931, 1409331, 1409731, 1410131, 1410531, 1410832, 1411188, 1411565, 1411924, 1412302, 1412691, 1413113, 1413524, 1413881, 1414283, 1414682, 1415083, 1415441, 1415826, 1416245, 1416607]",31,R,ITM,1.1,
2,400,trial,0,77,77,77,trial,"['S', 'S', 'S', 'S', 'S', 'S', 'S', 'C', 'C', 'C', 'C', 'C', 'C', 'C', 'C', 'C', 'C', 'C', 'C', 'C', 'C', 'C', 'C']","[1422477, 1422831, 1423227, 1423585, 1423974, 1424366, 1424741, 1425163, 1425507, 1425899, 1426284, 1426620, 1427026, 1427365, 1427753, 1428137, 1428548, 1428929, 1429291, 1429688, 1430115, 1430466, 1430846]","[1422497, 1422898, 1423247, 1423636, 1423994, 1424410, 1424761, 1425208, 1425589, 1425956, 1426321, 1426698, 1427073, 1427433, 1427808, 1428204, 1428591, 1428988, 1429344, 1429756, 1430178, 1430549, 1430930]","[1422027, 1422427, 1422827, 1423227, 1423626, 1424026, 1424427, 1424827, 1425190, 1425534, 1425926, 1426311, 1426647, 1427053, 1427392, 1427781, 1428165, 1428576, 1428957, 1429318, 1429715, 1430141, 1430493, 1430873]",31,R,ITM,1.1,
7,400,trial,0,78,78,78,trial,"['S', 'S', 'S', 'S', 'S', 'S', 'S', 'C', 'C', 'C', 'C', 'C', 'C', 'C', 'C', 'C', 'C', 'C', 'C', 'C', 'C', 'C', 'C']","[1436431, 1436868, 1437271, 1437681, 1438071, 1438468, 1438951, 1439325, 1439728, 1440106, 1440584, 1440918, 1441338, 1441764, 1442149, 1442583, 1442953, 1443305, 1443728, 1444123, 1444445, 1444947, 1445340]","[1436451, 1436911, 1437291, 1437701, 1438091, 1438529, 1438978, 1439384, 1439775, 1440187, 1440628, 1441009, 1441366, 1441792, 1442177, 1442629, 1442980, 1443371, 1443785, 1444151, 1444531, 1444975, 1445367]","[1436178, 1436577, 1436978, 1437377, 1437777, 1438177, 1438577, 1438978, 1439351, 1439755, 1440133, 1440611, 1440946, 1441366, 1441792, 1442176, 1442610, 1442980, 1443333, 1443755, 1444151, 1444471, 1444975, 1445367]",31,R,ITM,1.1,
3,400,trial,0,79,79,79,trial,"['S', 'S', 'S', 'S', 'S', 'S', 'S', 'C', 'C', 'C', 'C', 'C', 'C', 'C', 'C', 'C', 'C', 'C', 'C', 'C', 'C', 'C', 'C']","[1451151, 1451554, 1451992, 1452360, 1452769, 1453166, 1453642, 1453937, 1454352, 1454660, 1455162, 1455560, 1455966, 1456390, 1456772, 1457213, 1457571, 1457968, 1458385, 1458791, 1459202, 1459561, 1459981]","[1451171, 1451574, 1452027, 1452428, 1452791, 1453233, 1453662, 1454026, 1454418, 1454745, 1455187, 1455610, 1456032, 1456415, 1456825, 1457309, 1457655, 1458040, 1458435, 1458874, 1459261, 1459641, 1460042]","[1450792, 1451191, 1451591, 1451992, 1452391, 1452791, 1453191, 1453591, 1453963, 1454377, 1454686, 1455187, 1455586, 1455991, 1456415, 1456797, 1457239, 1457597, 1457993, 1458411, 1458817, 1459228, 1459587, 1460006]",31,R,ITM,1.1,
2,400,trial,0,80,80,80,trial,"['S', 'S', 'S', 'S', 'S', 'S', 'S', 'C', 'C', 'C', 'C', 'C', 'C', 'C', 'C', 'C', 'C', 'C', 'C', 'C', 'C', 'C', 'C']","[1465870, 1466498, 1466867, 1467342, 1467691, 1468105, 1468556, 1468931, 1469360, 1469757, 1470104, 1470566, 1470953, 1471345, 1471747, 1472268, 1472634, 1473006, 1473374, 1473782, 1474186, 1474566, 1474964]","[1465890, 1466518, 1466887, 1467362, 1467711, 1468171, 1468576, 1469020, 1469387, 1469785, 1470190, 1470593, 1470995, 1471372, 1471774, 1472295, 1472661, 1473061, 1473434, 1473809, 1474212, 1474592, 1475013]","[1465736, 1466134, 1466534, 1466935, 1467335, 1467736, 1468135, 1468534, 1468958, 1469387, 1469785, 1470131, 1470593, 1470980, 1471372, 1471774, 1472295, 1472661, 1473034, 1473401, 1473809, 1474212, 1474592, 1474991]",31,R,ITM,1.1,
4,600,trial,0,81,81,81,trial,"['S', 'S', 'S', 'S', 'S', 'S', 'S', 'C', 'C', 'C', 'C', 'C', 'C', 'C', 'C', 'C', 'C', 'C', 'C', 'C', 'C', 'C', 'C']","[1480949, 1481496, 1482118, 1482708, 1483373, 1484004, 1484643, 1485272, 1485891, 1486420, 1487017, 1487657, 1488196, 1488773, 1489331, 1489852, 1490478, 1491023, 1491544, 1492072, 1492640, 1493128, 1493685]","[1480969, 1481552, 1482162, 1482762, 1483419, 1484063, 1484694, 1485322, 1485932, 1486485, 1487068, 1487697, 1488263, 1488819, 1489392, 1489898, 1490536, 1491049, 1491605, 1492125, 1492683, 1493176, 1493710]","[1480524, 1481124, 1481724, 1482324, 1482925, 1483525, 1484125, 1484725, 1485297, 1485917, 1486445, 1487044, 1487682, 1488222, 1488798, 1489356, 1489878, 1490503, 1491049, 1491569, 1492098, 1492666, 1493153, 1493710]",31,R,ITM,1.1,
3,400,trial,0,82,82,82,trial,"['S', 'S', 'S', 'S', 'S', 'S', 'S', 'C', 'C', 'C', 'C', 'C', 'C', 'C', 'C', 'C', 'C', 'C', 'C', 'C', 'C', 'C', 'C']","[1499732, 1500088, 1500480, 1500824, 1501281, 1501697, 1502092, 1502474, 1502874, 1503253, 1503526, 1503938, 1504356, 1504804, 1505213, 1505719, 1506120, 1506486, 1506950, 1507382, 1507809, 1508242, 1508707]","[1499815, 1500174, 1500526, 1500844, 1501301, 1501719, 1502112, 1502561, 1502936, 1503326, 1503589, 1504013, 1504414, 1504888, 1505316, 1505826, 1506230, 1506603, 1506975, 1507407, 1507874, 1508330, 1508732]","[1499344, 1499743, 1500143, 1500544, 1500943, 1501343, 1501744, 1502143, 1502499, 1502900, 1503279, 1503552, 1503964, 1504381, 1504830, 1505239, 1505744, 1506146, 1506511, 1506975, 1507407, 1507834, 1508268, 1508732]",31,R,ITM,1.1,
2,600,trial,0,83,83,83,trial,"['S', 'S', 'S', 'S', 'S', 'S', 'S', 'C', 'C', 'C', 'C', 'C', 'C', 'C', 'C', 'C', 'C', 'C', 'C', 'C', 'C', 'C', 'C']","[1514499, 1515314, 1515922, 1516549, 1517094, 1517716, 1518376, 1518907, 1519437, 1519997, 1520550, 1521100, 1521639, 1522168, 1522697, 1523180, 1523741, 1524277, 1524843, 1525395, 1525967, 1526493, 1526965]","[1514555, 1515364, 1515999, 1516621, 1517169, 1517767, 1518451, 1518958, 1519510, 1520057, 1520614, 1521169, 1521722, 1522255, 1522779, 1523277, 1523800, 1524371, 1524908, 1525451, 1526081, 1526594, 1527105]","[1514185, 1514786, 1515386, 1515986, 1516587, 1517187, 1517787, 1518387, 1518935, 1519465, 1520024, 1520578, 1521128, 1521666, 1522196, 1522724, 1523207, 1523769, 1524304, 1524871, 1525422, 1525994, 1526519, 1526992]",31,R,ITM,1.1,
6,400,trial,0,84,84,84,trial,"['S', 'S', 'S', 'S', 'S', 'S', 'S', 'C', 'C', 'C', 'C', 'C', 'C', 'C', 'C', 'C', 'C', 'C', 'C', 'C', 'C', 'C', 'C']","[1533201, 1533636, 1534025, 1534404, 1534753, 1535121, 1535529, 1535894, 1536309, 1536708, 1537120, 1537530, 1537953, 1538363, 1538760, 1539170, 1539545, 1539964, 1540388, 1540789, 1541184, 1541616, 1542005]","[1533257, 1533657, 1534045, 1534469, 1534795, 1535178, 1535549, 1535945, 1536355, 1536765, 1537146, 1537585, 1537995, 1538416, 1538835, 1539225, 1539618, 1540031, 1540447, 1540849, 1541267, 1541671, 1542075]","[1532773, 1533173, 1533574, 1533973, 1534373, 1534773, 1535173, 1535574, 1535921, 1536335, 1536735, 1537146, 1537558, 1537980, 1538391, 1538787, 1539197, 1539571, 1539992, 1540415, 1540815, 1541212, 1541643, 1542033]",31,R,ITM,1.1,
5,400,trial,0,85,85,85,trial,"['S', 'S', 'S', 'S', 'S', 'S', 'S', 'C', 'C', 'C', 'C', 'C', 'C', 'C', 'C', 'C', 'C', 'C', 'C', 'C', 'C', 'C', 'C']","[1547930, 1548410, 1548812, 1549231, 1549634, 1550048, 1550434, 1550820, 1551196, 1551621, 1552048, 1552440, 1552856, 1553255, 1553619, 1553934, 1554371, 1554818, 1555112, 1555597, 1555982, 1556339, 1556653]","[1548016, 1548474, 1548867, 1549308, 1549707, 1550134, 1550515, 1550900, 1551264, 1551691, 1552103, 1552498, 1552926, 1553343, 1553705, 1554012, 1554446, 1554887, 1555194, 1555655, 1556060, 1556418, 1556753]","[1547760, 1548160, 1548559, 1548959, 1549360, 1549759, 1550159, 1550559, 1550845, 1551222, 1551646, 1552073, 1552465, 1552882, 1553281, 1553645, 1553959, 1554397, 1554843, 1555138, 1555623, 1556007, 1556365, 1556679]",31,R,ITM,1.1,
3,600,trial,0,86,86,86,trial,"['S', 'S', 'S', 'S', 'S', 'S', 'S', 'S', 'C', 'C', 'C', 'C', 'C', 'C', 'C', 'C', 'C', 'C', 'C', 'C', 'C', 'C', 'C', 'C']","[1562435, 1562842, 1563409, 1564027, 1564644, 1565275, 1565841, 1566440, 1567020, 1567542, 1568048, 1568556, 1569081, 1569613, 1570184, 1570700, 1571186, 1571702, 1572209, 1572722, 1573284, 1573768, 1574233, 1574770]","[1562508, 1562899, 1563464, 1564102, 1564728, 1565373, 1565938, 1566525, 1567113, 1567617, 1568130, 1568632, 1569168, 1569716, 1570265, 1570820, 1571302, 1571788, 1572286, 1572786, 1573360, 1573899, 1574368, 1574903]","[1562324, 1562925, 1563525, 1564125, 1564725, 1565325, 1565925, 1566525, 1567045, 1567567, 1568073, 1568581, 1569106, 1569639, 1570209, 1570725, 1571212, 1571728, 1572235, 1572748, 1573310, 1573793, 1574258, 1574796]",31,R,ITM,1.1,
5,600,trial,0,87,87,87,trial,"['S', 'S', 'S', 'S', 'S', 'S', 'S', 'C', 'C', 'C', 'C', 'C', 'C', 'C', 'C', 'C', 'C', 'C', 'C', 'C', 'C', 'C', 'C']","[1580777, 1581389, 1582027, 1582707, 1583270, 1583934, 1584520, 1585134, 1585648, 1586154, 1586653, 1587197, 1587846, 1588352, 1588892, 1589423, 1590127, 1590675, 1591146, 1591659, 1592104, 1592587, 1593027]","[1580801, 1581409, 1582047, 1582739, 1583290, 1583975, 1584570, 1585201, 1585691, 1586180, 1586744, 1587243, 1587885, 1588436, 1588977, 1589497, 1590172, 1590732, 1591215, 1591732, 1592181, 1592613, 1593057]","[1580438, 1581037, 1581637, 1582237, 1582837, 1583437, 1584037, 1584637, 1585160, 1585675, 1586180, 1586678, 1587224, 1587871, 1588377, 1588919, 1589448, 1590153, 1590701, 1591172, 1591685, 1592130, 1592613, 1593053]",31,R,ITM,1.1,
4,400,trial,0,88,88,88,trial,"['S', 'S', 'S', 'S', 'S', 'S', 'S', 'C', 'C', 'C', 'C', 'C', 'C', 'C', 'C', 'C', 'C', 'C', 'C', 'C', 'C', 'C', 'C']","[1598827, 1599289, 1599799, 1600268, 1600758, 1601102, 1601479, 1601896, 1602243, 1602620, 1602972, 1603333, 1603706, 1604035, 1604440, 1604806, 1605140, 1605574, 1605982, 1606340, 1606676, 1607022, 1607410]","[1598849, 1599342, 1599851, 1600359, 1600806, 1601166, 1601539, 1601946, 1602293, 1602651, 1603022, 1603398, 1603763, 1604108, 1604491, 1604880, 1605208, 1605644, 1606051, 1606397, 1606755, 1607084, 1607487]","[1598778, 1599177, 1599578, 1599977, 1600377, 1600777, 1601177, 1601577, 1601922, 1602269, 1602646, 1602998, 1603358, 1603732, 1604061, 1604466, 1604833, 1605167, 1605600, 1606008, 1606366, 1606702, 1607048, 1607437]",31,R,ITM,1.1,
6,600,trial,0,89,89,89,trial,"['S', 'S', 'S', 'S', 'S', 'S', 'S', 'C', 'C', 'C', 'C', 'C', 'C', 'C', 'C', 'C', 'C', 'C', 'C', 'C', 'C', 'C', 'C']","[1613116, 1613777, 1614502, 1615190, 1615867, 1616390, 1616898, 1617442, 1618013, 1618558, 1619062, 1619548, 1620034, 1620540, 1620976, 1621497, 1621941, 1622419, 1622863, 1623327, 1623788, 1624265, 1624699]","[1613185, 1613840, 1614563, 1615272, 1615966, 1616448, 1616943, 1617501, 1618055, 1618596, 1619113, 1619620, 1620103, 1620611, 1621055, 1621556, 1621996, 1622474, 1622928, 1623390, 1623832, 1624328, 1624760]","[1612849, 1613448, 1614048, 1614648, 1615248, 1615848, 1616448, 1617048, 1617469, 1618039, 1618586, 1619089, 1619574, 1620061, 1620568, 1621004, 1621524, 1621967, 1622446, 1622890, 1623354, 1623816, 1624292, 1624726]",31,R,ITM,1.1,
2,600,trial,0,90,90,90,trial,"['S', 'S', 'S', 'S', 'S', 'S', 'S', 'C', 'C', 'C', 'C', 'C', 'C', 'C', 'C', 'C', 'C', 'C', 'C', 'C', 'C', 'C', 'C']","[1630711, 1631518, 1632141, 1632798, 1633323, 1633925, 1634483, 1635082, 1635619, 1636150, 1636664, 1637184, 1637693, 1638215, 1638692, 1639198, 1639701, 1640209, 1640710, 1641249, 1641695, 1642198, 1642663]","[1630769, 1631582, 1632179, 1632842, 1633400, 1633982, 1634540, 1635156, 1635697, 1636231, 1636742, 1637259, 1637766, 1638283, 1638769, 1639273, 1639770, 1640272, 1640770, 1641317, 1641763, 1642263, 1642742]","[1630398, 1630998, 1631598, 1632198, 1632798, 1633397, 1633998, 1634598, 1635109, 1635647, 1636177, 1636691, 1637212, 1637721, 1638242, 1638720, 1639226, 1639729, 1640236, 1640736, 1641276, 1641722, 1642225, 1642691]",31,R,ITM,1.1,
5,400,trial,0,91,91,91,trial,"['S', 'S', 'S', 'S', 'S', 'S', 'S', 'C', 'C', 'C', 'C', 'C', 'C', 'C', 'C', 'C', 'C', 'C', 'C', 'C', 'C', 'C', 'C']","[1648397, 1648878, 1649295, 1649718, 1650096, 1650475, 1650861, 1651334, 1651724, 1652129, 1652536, 1652951, 1653336, 1653680, 1654109, 1654535, 1654960, 1655324, 1655849, 1656261, 1656598, 1656967, 1657392]","[1648454, 1648952, 1649362, 1649789, 1650166, 1650515, 1650907, 1651379, 1651778, 1652191, 1652611, 1653021, 1653388, 1653754, 1654177, 1654609, 1655038, 1655435, 1655917, 1656347, 1656669, 1657042, 1657465]","[1648136, 1648535, 1648935, 1649335, 1649735, 1650136, 1650535, 1650935, 1651359, 1651749, 1652155, 1652562, 1652977, 1653362, 1653705, 1654135, 1654560, 1654986, 1655351, 1655876, 1656287, 1656625, 1656993, 1657417]",31,R,ITM,1.1,
4,400,trial,0,92,92,92,trial,"['S', 'S', 'S', 'S', 'S', 'S', 'S', 'S', 'S', 'C', 'C', 'C', 'C', 'C', 'C', 'C', 'C', 'C', 'C', 'C', 'C', 'C', 'C', 'C', 'C']","[1662895, 1663234, 1663565, 1663944, 1664302, 1664683, 1665011, 1665416, 1665752, 1665852, 1666120, 1666502, 1666936, 1667329, 1667702, 1668086, 1668428, 1668801, 1669208, 1669513, 1669974, 1670360, 1670716, 1671064, 1671495]","[1662977, 1663316, 1663648, 1664040, 1664391, 1664822, 1665074, 1665503, 1665772, 1665878, 1666224, 1666577, 1666962, 1667372, 1667728, 1668112, 1668478, 1668827, 1669233, 1669609, 1669999, 1670405, 1670789, 1671148, 1671521]","[1662766, 1663165, 1663565, 1663965, 1664365, 1664765, 1665165, 1665565, 1665878, 1666146, 1666528, 1666962, 1667354, 1667728, 1668112, 1668454, 1668827, 1669233, 1669538, 1669999, 1670385, 1670742, 1671090, 1671521]",31,R,ITM,1.1,
7,400,trial,0,93,93,93,trial,"['S', 'S', 'S', 'S', 'S', 'C', 'C', 'C', 'C', 'C', 'C', 'C', 'C', 'C', 'C', 'C', 'C', 'C', 'C', 'C', 'C']","[1677718, 1678152, 1679008, 1679431, 1679834, 1680212, 1680615, 1681007, 1681390, 1681808, 1682185, 1682562, 1683002, 1683417, 1683789, 1684173, 1684575, 1684962, 1685342, 1685699, 1686098]","[1677739, 1678172, 1679028, 1679451, 1679892, 1680274, 1680648, 1681052, 1681436, 1681838, 1682228, 1682589, 1683053, 1683453, 1683816, 1684236, 1684633, 1685032, 1685420, 1685773, 1686141]","[1676996, 1677395, 1677795, 1678195, 1678596, 1678995, 1679395, 1679795, 1680238, 1680643, 1681034, 1681418, 1681835, 1682212, 1682589, 1683028, 1683444, 1683816, 1684201, 1684601, 1684989, 1685369, 1685726, 1686125]",31,R,ITM,1.1,
6,600,trial,0,94,94,94,trial,"['B', 'S', 'S', 'S', 'S', 'S', 'S', 'S', 'C', 'C', 'C', 'C', 'C', 'C', 'C', 'C', 'C', 'C', 'C', 'C', 'C', 'C', 'C', 'C']","[1691782, 1692186, 1692994, 1693562, 1694166, 1694754, 1695394, 1695938, 1696557, 1697088, 1697647, 1698211, 1698733, 1699280, 1699823, 1700377, 1700897, 1701383, 1701899, 1702381, 1702886, 1703432, 1703948, 1704445]","[1691802, 1692206, 1693014, 1693635, 1694242, 1694835, 1695475, 1696020, 1696635, 1697169, 1697731, 1698306, 1698828, 1699375, 1699900, 1700448, 1700975, 1701475, 1701965, 1702462, 1702969, 1703508, 1704034, 1704531]","[1691795, 1692394, 1692994, 1693594, 1694194, 1694794, 1695394, 1695994, 1696583, 1697116, 1697674, 1698238, 1698760, 1699307, 1699850, 1700404, 1700925, 1701409, 1701926, 1702408, 1702913, 1703458, 1703974, 1704472]",31,R,ITM,1.1,
3,600,trial,0,95,95,95,trial,"['S', 'S', 'S', 'S', 'S', 'S', 'S', 'C', 'C', 'C', 'C', 'C', 'C', 'C', 'C', 'C', 'C', 'C', 'C', 'C', 'C', 'C', 'C']","[1710371, 1710976, 1711488, 1712174, 1712751, 1713433, 1713999, 1714669, 1715196, 1715778, 1716261, 1716775, 1717305, 1717823, 1718336, 1718799, 1719297, 1719764, 1720379, 1721040, 1721591, 1722128, 1722635]","[1710434, 1710996, 1711589, 1712223, 1712771, 1713498, 1714019, 1714726, 1715267, 1715832, 1716313, 1716848, 1717378, 1717906, 1718362, 1718824, 1719377, 1719790, 1720404, 1721150, 1721661, 1722195, 1722660]","[1710127, 1710727, 1711327, 1711927, 1712527, 1713127, 1713727, 1714327, 1714695, 1715222, 1715804, 1716287, 1716801, 1717330, 1717849, 1718362, 1718824, 1719322, 1719790, 1720404, 1721066, 1721617, 1722153, 1722660]",31,R,ITM,1.1,
5,600,trial,0,96,96,96,trial,"['S', 'S', 'S', 'S', 'S', 'S', 'C', 'C', 'C', 'C', 'C', 'C', 'C', 'C', 'C', 'C', 'C', 'C', 'C', 'C', 'C', 'C']","[1728436, 1729020, 1729686, 1730188, 1731091, 1731552, 1732798, 1733229, 1733694, 1734091, 1734557, 1735074, 1735629, 1736161, 1736644, 1737124, 1737519, 1737995, 1738511, 1738928, 1739523, 1739991]","[1728505, 1729098, 1729756, 1730270, 1731150, 1731620, 1732824, 1733314, 1733769, 1734231, 1734671, 1735154, 1735730, 1736211, 1736729, 1737190, 1737624, 1738061, 1738593, 1739112, 1739603, 1740088]","[1728092, 1728691, 1729291, 1729891, 1730491, 1731091, 1731691, 1732291, 1732824, 1733255, 1733720, 1734118, 1734583, 1735100, 1735655, 1736186, 1736670, 1737150, 1737544, 1738020, 1738536, 1738954, 1739548, 1740016]",31,R,ITM,1.1,
7,600,trial,0,97,97,97,trial,"['S', 'S', 'S', 'S', 'S', 'S', 'S', 'C', 'C', 'C', 'C', 'C', 'C', 'C', 'C', 'C', 'C', 'C', 'C', 'C', 'C', 'C', 'C']","[1745801, 1746466, 1747188, 1747856, 1748431, 1749084, 1749642, 1750263, 1750899, 1751443, 1752023, 1752531, 1753046, 1753554, 1754103, 1754679, 1755181, 1755683, 1756286, 1756901, 1757409, 1757865, 1758402]","[1745821, 1746511, 1747249, 1747904, 1748501, 1749161, 1749723, 1750329, 1750971, 1751538, 1752102, 1752644, 1753122, 1753640, 1754130, 1754752, 1755239, 1755756, 1756313, 1756982, 1757445, 1757891, 1758430]","[1745479, 1746078, 1746678, 1747278, 1747878, 1748478, 1749079, 1749679, 1750290, 1750926, 1751471, 1752049, 1752558, 1753073, 1753581, 1754130, 1754706, 1755207, 1755711, 1756313, 1756929, 1757436, 1757891, 1758430]",31,R,ITM,1.1,
4,600,trial,0,98,98,98,trial,"['S', 'S', 'S', 'S', 'S', 'S', 'S', 'S', 'C', 'C', 'C', 'C', 'C', 'C', 'C', 'C', 'C', 'C', 'C', 'C', 'C', 'C', 'C', 'C', 'C', 'C']","[1764327, 1765091, 1765765, 1766219, 1766718, 1766818, 1767473, 1768007, 1768559, 1769072, 1769635, 1770081, 1770593, 1771097, 1771548, 1772029, 1772514, 1773019, 1773474, 1773927, 1774034, 1774502, 1774608, 1775014, 1775559, 1776164]","[1764393, 1765174, 1765841, 1766239, 1766738, 1766838, 1767493, 1768027, 1768585, 1769098, 1769661, 1770106, 1770618, 1771122, 1771574, 1772055, 1772613, 1773044, 1773500, 1773953, 1774054, 1774528, 1774628, 1775040, 1775585, 1776190]","[1764057, 1764657, 1765256, 1765856, 1766456, 1767056, 1767656, 1768256, 1768585, 1769098, 1769661, 1770106, 1770618, 1771122, 1771574, 1772055, 1772539, 1773044, 1773500, 1773953, 1774528, 1775040, 1775585, 1776190]",31,R,ITM,1.1,
2,400,trial,0,99,99,99,trial,"['B', 'S', 'S', 'S', 'S', 'S', 'S', 'S', 'S', 'C', 'C', 'C', 'C', 'C', 'C', 'C', 'C', 'C', 'C', 'C', 'C', 'C', 'C', 'C', 'C', 'C']","[1781680, 1782337, 1782604, 1782901, 1783260, 1783571, 1783956, 1784332, 1784695, 1785084, 1785438, 1785768, 1786099, 1786427, 1786761, 1787130, 1787454, 1787787, 1788050, 1788377, 1788778, 1789057, 1789342, 1789637, 1789948, 1790244]","[1781706, 1782393, 1782673, 1782963, 1783300, 1783639, 1783993, 1784390, 1784779, 1785144, 1785498, 1785819, 1786155, 1786490, 1786812, 1787177, 1787523, 1787847, 1788129, 1788451, 1788841, 1789134, 1789424, 1789709, 1790012, 1790319]","[1781693, 1782093, 1782494, 1782893, 1783292, 1783692, 1784092, 1784494, 1785112, 1785464, 1785796, 1786126, 1786455, 1786787, 1787158, 1787482, 1787814, 1788403, 1788805, 1789084, 1789370, 1789665, 1789976, 1790271]",31,R,ITM,1.1,
7,600,trial,0,100,100,100,trial,"['S', 'S', 'S', 'S', 'S', 'S', 'S', 'C', 'C', 'C', 'C', 'C', 'C', 'C', 'C', 'C', 'C', 'C', 'C', 'C', 'C', 'C', 'C']","[1795870, 1796733, 1797385, 1797981, 1798624, 1799163, 1799814, 1800347, 1800887, 1801398, 1801942, 1802458, 1802938, 1803436, 1803880, 1804350, 1804781, 1805301, 1805733, 1806179, 1806648, 1807099, 1807545]","[1795932, 1796756, 1797450, 1798037, 1798691, 1799231, 1799875, 1800429, 1800940, 1801466, 1802000, 1802535, 1802982, 1803493, 1803947, 1804409, 1804839, 1805352, 1805789, 1806246, 1806714, 1807167, 1807609]","[1795741, 1796340, 1796940, 1797540, 1798140, 1798740, 1799341, 1799941, 1800375, 1800913, 1801425, 1801968, 1802484, 1802966, 1803463, 1803907, 1804377, 1804809, 1805329, 1805761, 1806205, 1806674, 1807126, 1807571]",31,R,ITM,1.1,
6,400,trial,0,101,101,101,trial,"['S', 'S', 'S', 'S', 'S', 'S', 'S', 'C', 'C', 'C', 'C', 'C', 'C', 'C', 'C', 'C', 'C', 'C', 'C', 'C', 'C', 'C', 'C']","[1813452, 1813870, 1814298, 1814696, 1815059, 1815451, 1815800, 1816214, 1816564, 1817000, 1817365, 1817733, 1818162, 1818532, 1818963, 1819362, 1819720, 1820122, 1820511, 1820887, 1821308, 1821657, 1822035]","[1813512, 1813926, 1814362, 1814762, 1815133, 1815496, 1815877, 1816282, 1816623, 1817028, 1817413, 1817797, 1818208, 1818586, 1818993, 1819413, 1819778, 1820171, 1820567, 1820952, 1821362, 1821724, 1822082]","[1813150, 1813550, 1813949, 1814349, 1814750, 1815150, 1815550, 1815950, 1816241, 1816592, 1817028, 1817393, 1817759, 1818189, 1818559, 1818990, 1819388, 1819747, 1820149, 1820537, 1820913, 1821335, 1821683, 1822062]",31,R,ITM,1.1,
4,600,trial,0,102,102,102,trial,"['S', 'S', 'S', 'S', 'S', 'S', 'S', 'S', 'C', 'C', 'C', 'C', 'C', 'C', 'C', 'C', 'C', 'C', 'C', 'C', 'C', 'C', 'C', 'C']","[1827690, 1828232, 1828557, 1829189, 1829738, 1830277, 1830916, 1831464, 1832087, 1832559, 1833321, 1833807, 1834276, 1834723, 1835163, 1835602, 1836063, 1836490, 1836918, 1837345, 1837748, 1838158, 1838561, 1839023]","[1827752, 1828300, 1828639, 1829254, 1829788, 1830384, 1831000, 1831556, 1832183, 1832619, 1833420, 1833862, 1834330, 1834787, 1835236, 1835662, 1836105, 1836546, 1836986, 1837398, 1837800, 1838212, 1838615, 1839074]","[1827439, 1828038, 1828638, 1829238, 1829838, 1830438, 1831038, 1831639, 1832113, 1832585, 1833347, 1833833, 1834302, 1834748, 1835189, 1835628, 1836089, 1836516, 1836944, 1837372, 1837773, 1838184, 1838586, 1839048]",31,R,ITM,1.1,
7,400,trial,0,103,103,103,trial,"['S', 'S', 'S', 'S', 'S', 'S', 'S', 'C', 'C', 'C', 'C', 'C', 'C', 'C', 'C', 'C', 'C', 'C', 'C', 'C', 'C', 'C', 'C']","[1844973, 1845339, 1845729, 1846165, 1846534, 1847002, 1847398, 1847769, 1848186, 1848576, 1848981, 1849352, 1849747, 1850121, 1850504, 1850919, 1851309, 1851664, 1852051, 1852416, 1852762, 1853104, 1853442]","[1845045, 1845394, 1845779, 1846209, 1846620, 1847073, 1847471, 1847828, 1848220, 1848619, 1849036, 1849414, 1849810, 1850180, 1850586, 1850999, 1851362, 1851726, 1852114, 1852469, 1852831, 1853187, 1853505]","[1844594, 1844994, 1845393, 1845793, 1846194, 1846593, 1846993, 1847393, 1847795, 1848214, 1848602, 1849008, 1849378, 1849774, 1850147, 1850531, 1850946, 1851335, 1851691, 1852079, 1852442, 1852789, 1853131, 1853468]",31,R,ITM,1.1,
6,600,trial,0,104,104,104,trial,"['S', 'S', 'S', 'S', 'S', 'S', 'S', 'C', 'C', 'C', 'C', 'C', 'C', 'C', 'C', 'C', 'C', 'C', 'C', 'C', 'C', 'C', 'C']","[1859537, 1860314, 1860933, 1861568, 1862051, 1862608, 1863211, 1863803, 1864354, 1864840, 1865292, 1865736, 1866270, 1866777, 1867315, 1867827, 1868337, 1868851, 1869385, 1869871, 1870323, 1870817, 1871245]","[1859595, 1860364, 1860992, 1861619, 1862113, 1862657, 1863250, 1863858, 1864406, 1864914, 1865352, 1865793, 1866315, 1866842, 1867387, 1867893, 1868425, 1868930, 1869452, 1869920, 1870393, 1870877, 1871335]","[1859115, 1859714, 1860314, 1860914, 1861513, 1862113, 1862713, 1863313, 1863831, 1864382, 1864867, 1865319, 1865762, 1866297, 1866804, 1867342, 1867853, 1868363, 1868878, 1869412, 1869898, 1870350, 1870844, 1871271]",31,R,ITM,1.1,
3,400,trial,0,105,105,105,trial,"['B', 'S', 'S', 'S', 'S', 'S', 'S', 'S', 'S', 'C', 'C', 'C', 'C', 'C', 'C', 'C', 'C', 'C', 'C', 'C', 'C', 'C', 'C', 'C', 'C']","[1876573, 1877207, 1877514, 1877614, 1877988, 1878352, 1878771, 1879075, 1879475, 1879783, 1880161, 1880528, 1880921, 1881302, 1881713, 1882103, 1882470, 1882892, 1883318, 1883721, 1884089, 1884512, 1884804, 1885260, 1885606]","[1876593, 1877252, 1877534, 1877634, 1878036, 1878401, 1878852, 1879162, 1879535, 1879849, 1880216, 1880587, 1880953, 1881361, 1881760, 1882150, 1882548, 1882944, 1883372, 1883765, 1884163, 1884575, 1884886, 1885306, 1885700]","[1876585, 1876985, 1877385, 1877785, 1878185, 1878585, 1878985, 1879386, 1879809, 1880186, 1880554, 1880946, 1881327, 1881739, 1882129, 1882496, 1882917, 1883343, 1883747, 1884114, 1884537, 1884829, 1885286, 1885632]",31,R,ITM,1.1,
4,400,trial,0,106,106,106,trial,"['S', 'S', 'S', 'S', 'S', 'S', 'S', 'S', 'C', 'C', 'C', 'C', 'C', 'C', 'C', 'C', 'C', 'C', 'C', 'C', 'C', 'C', 'C', 'C']","[1891411, 1891831, 1892211, 1892584, 1892988, 1893362, 1893768, 1894117, 1894502, 1894925, 1895366, 1895761, 1896163, 1896560, 1896939, 1897313, 1897721, 1898100, 1898423, 1898847, 1899273, 1899634, 1900085, 1900419]","[1891457, 1891906, 1892259, 1892639, 1893048, 1893437, 1893829, 1894201, 1894575, 1894974, 1895408, 1895809, 1896233, 1896628, 1897016, 1897384, 1897794, 1898162, 1898491, 1898872, 1899324, 1899722, 1900110, 1900498]","[1891411, 1891811, 1892211, 1892612, 1893011, 1893411, 1893811, 1894211, 1894528, 1894950, 1895392, 1895787, 1896188, 1896586, 1896965, 1897338, 1897747, 1898126, 1898449, 1898872, 1899298, 1899660, 1900110, 1900444]",31,R,ITM,1.1,
5,600,trial,0,107,107,107,trial,"['S', 'S', 'S', 'S', 'S', 'S', 'S', 'S', 'C', 'C', 'C', 'C', 'C', 'C', 'C', 'C', 'C', 'C', 'C', 'C', 'C', 'C', 'C', 'C']","[1905948, 1906426, 1906879, 1907617, 1908232, 1908825, 1909406, 1909949, 1910546, 1911097, 1911600, 1912131, 1912634, 1913133, 1913603, 1914087, 1914559, 1915018, 1915539, 1915965, 1916433, 1916892, 1917312, 1917817]","[1905968, 1906446, 1906954, 1907686, 1908302, 1908908, 1909493, 1910038, 1910627, 1911184, 1911688, 1912205, 1912719, 1913209, 1913697, 1914174, 1914640, 1915104, 1915596, 1916050, 1916500, 1916971, 1917413, 1917882]","[1905920, 1906519, 1907119, 1907719, 1908319, 1908919, 1909519, 1910119, 1910572, 1911123, 1911625, 1912157, 1912659, 1913158, 1913628, 1914113, 1914585, 1915043, 1915565, 1915991, 1916459, 1916918, 1917337, 1917843]",31,R,ITM,1.1,
7,400,trial,0,108,108,108,trial,"['B', 'S', 'S', 'S', 'S', 'S', 'S', 'S', 'C', 'C', 'C', 'C', 'C', 'C', 'C', 'C', 'C', 'C', 'C', 'C', 'C', 'C', 'C', 'C', 'C']","[1923480, 1923942, 1924373, 1924753, 1925126, 1925563, 1925931, 1926348, 1926735, 1927312, 1927784, 1928085, 1928432, 1928748, 1929214, 1929686, 1930138, 1930523, 1930951, 1931359, 1931729, 1932181, 1932530, 1932637, 1933105]","[1923645, 1924021, 1924425, 1924823, 1925195, 1925627, 1926022, 1926432, 1926798, 1927392, 1927848, 1928227, 1928547, 1928886, 1929242, 1929769, 1930221, 1930611, 1931037, 1931451, 1931835, 1932275, 1932557, 1932698, 1933132]","[1923493, 1923892, 1924292, 1924692, 1925092, 1925492, 1925893, 1926292, 1926762, 1927339, 1927812, 1928112, 1928460, 1928774, 1929242, 1929712, 1930165, 1930551, 1930978, 1931385, 1931756, 1932209, 1932557, 1933132]",31,R,ITM,1.1,
3,600,trial,0,109,109,109,trial,"['S', 'S', 'S', 'S', 'S', 'S', 'S', 'C', 'C', 'C', 'C', 'C', 'C', 'C', 'C', 'C', 'C', 'C', 'C', 'C', 'C', 'C', 'C']","[1939023, 1939880, 1940493, 1941161, 1941700, 1942299, 1942862, 1943454, 1943970, 1944492, 1945047, 1945538, 1946035, 1946574, 1947101, 1947601, 1948124, 1948590, 1949080, 1949564, 1949995, 1950545, 1951026]","[1939076, 1939948, 1940558, 1941212, 1941767, 1942361, 1942920, 1943506, 1944033, 1944561, 1945086, 1945615, 1946093, 1946627, 1947162, 1947679, 1948174, 1948658, 1949143, 1949607, 1950070, 1950596, 1951093]","[1938748, 1939348, 1939948, 1940548, 1941148, 1941748, 1942348, 1942948, 1943480, 1943996, 1944517, 1945072, 1945564, 1946060, 1946600, 1947126, 1947627, 1948149, 1948615, 1949106, 1949590, 1950020, 1950571, 1951051]",31,R,ITM,1.1,
2,400,trial,0,110,110,110,trial,"['S', 'S', 'S', 'S', 'S', 'S', 'S', 'C', 'C', 'C', 'C', 'C', 'C', 'C', 'C', 'C', 'C', 'C', 'C', 'C', 'C', 'C', 'C']","[1957060, 1957502, 1957843, 1958285, 1958668, 1959090, 1959545, 1959982, 1960398, 1960792, 1961194, 1961580, 1961979, 1962383, 1962722, 1963079, 1963484, 1963856, 1964206, 1964608, 1964976, 1965323, 1965687]","[1957136, 1957566, 1957934, 1958335, 1958730, 1959173, 1959623, 1960037, 1960459, 1960883, 1961263, 1961649, 1962040, 1962444, 1962790, 1963146, 1963541, 1963904, 1964261, 1964636, 1965023, 1965387, 1965728]","[1956790, 1957190, 1957590, 1957990, 1958390, 1958791, 1959190, 1959589, 1960009, 1960426, 1960819, 1961222, 1961607, 1962006, 1962411, 1962748, 1963107, 1963511, 1963884, 1964232, 1964635, 1965003, 1965350, 1965714]",31,R,ITM,1.1,
2,400,trial,0,111,111,111,trial,"['S', 'S', 'S', 'S', 'S', 'S', 'S', 'S', 'C', 'C', 'C', 'C', 'C', 'C', 'C', 'C', 'C', 'C', 'C', 'C', 'C', 'C', 'C', 'C']","[1971578, 1971926, 1972331, 1972748, 1973103, 1973479, 1973839, 1974165, 1974463, 1974865, 1975183, 1975631, 1975994, 1976422, 1976790, 1977200, 1977539, 1978000, 1978406, 1978750, 1979133, 1979530, 1979892, 1980302]","[1971627, 1971989, 1972352, 1972768, 1973123, 1973541, 1973859, 1974185, 1974531, 1974926, 1975247, 1975700, 1976072, 1976502, 1976867, 1977267, 1977621, 1978044, 1978455, 1978825, 1979197, 1979595, 1979976, 1980367]","[1971213, 1971613, 1972014, 1972412, 1972813, 1973213, 1973613, 1974013, 1974490, 1974892, 1975211, 1975659, 1976020, 1976449, 1976817, 1977227, 1977566, 1978027, 1978434, 1978778, 1979161, 1979557, 1979920, 1980329]",31,R,ITM,1.1,
7,600,trial,0,112,112,112,trial,"['S', 'S', 'S', 'S', 'S', 'S', 'S', 'S', 'C', 'C', 'C', 'C', 'C', 'C', 'C', 'C', 'C', 'C', 'C', 'C', 'C', 'C', 'C', 'C']","[1986306, 1986796, 1987247, 1987771, 1988302, 1988965, 1989565, 1990064, 1990886, 1991391, 1991861, 1992407, 1992965, 1993464, 1994023, 1994460, 1994960, 1995481, 1996004, 1996531, 1997009, 1997542, 1998055, 1998553]","[1986326, 1986874, 1987353, 1987836, 1988365, 1989023, 1989626, 1990154, 1990944, 1991460, 1991924, 1992458, 1993012, 1993545, 1994093, 1994552, 1995022, 1995532, 1996055, 1996574, 1997087, 1997598, 1998112, 1998592]","[1985941, 1986540, 1987140, 1987740, 1988340, 1988940, 1989540, 1990140, 1990914, 1991418, 1991888, 1992434, 1992991, 1993491, 1994051, 1994487, 1994988, 1995507, 1996030, 1996558, 1997037, 1997570, 1998082, 1998579]",31,R,ITM,1.1,
2,600,trial,0,113,113,113,trial,"['S', 'S', 'S', 'S', 'S', 'S', 'S', 'S', 'C', 'C', 'C', 'C', 'C', 'C', 'C', 'C', 'C', 'C', 'C', 'C', 'C', 'C', 'C', 'C']","[2004295, 2004741, 2005382, 2005921, 2006492, 2007106, 2007755, 2008381, 2008965, 2009501, 2010046, 2010553, 2011042, 2011553, 2012040, 2012547, 2013024, 2013491, 2014094, 2014615, 2015041, 2015457, 2015990, 2016451]","[2004371, 2004813, 2005451, 2006006, 2006550, 2007174, 2007825, 2008448, 2009023, 2009558, 2010108, 2010619, 2011117, 2011614, 2012104, 2012598, 2013094, 2013561, 2014139, 2014672, 2015101, 2015528, 2016031, 2016520]","[2004277, 2004877, 2005477, 2006077, 2006677, 2007277, 2007877, 2008477, 2008992, 2009528, 2010073, 2010580, 2011070, 2011580, 2012066, 2012573, 2013050, 2013517, 2014121, 2014642, 2015069, 2015484, 2016017, 2016479]",31,R,ITM,1.1,
7,600,trial,0,114,114,114,trial,"['S', 'S', 'S', 'S', 'S', 'S', 'S', 'S', 'C', 'C', 'C', 'C', 'C', 'C', 'C', 'C', 'C', 'C', 'C', 'C', 'C', 'C', 'C', 'C']","[2021946, 2022390, 2022893, 2023409, 2024051, 2024681, 2025321, 2026100, 2026590, 2027107, 2027682, 2028196, 2028716, 2029232, 2029743, 2030365, 2030884, 2031390, 2031880, 2032374, 2032871, 2033354, 2033816, 2034155]","[2022024, 2022465, 2022941, 2023460, 2024110, 2024742, 2025374, 2026171, 2026647, 2027161, 2027740, 2028259, 2028785, 2029293, 2029792, 2030460, 2030980, 2031471, 2031971, 2032466, 2032983, 2033444, 2033892, 2034249]","[2021860, 2022459, 2023059, 2023659, 2024259, 2024859, 2025459, 2026059, 2026616, 2027133, 2027709, 2028223, 2028742, 2029259, 2029770, 2030393, 2030911, 2031418, 2031906, 2032402, 2032899, 2033382, 2033843, 2034182]",31,R,ITM,1.1,
3,400,trial,0,115,115,115,trial,"['S', 'S', 'S', 'S', 'S', 'S', 'S', 'C', 'C', 'C', 'C', 'C', 'C', 'C', 'C', 'C', 'C', 'C', 'C', 'C', 'C', 'C', 'C']","[2040220, 2040527, 2040848, 2041223, 2041621, 2041997, 2042398, 2042817, 2043187, 2043554, 2043927, 2044247, 2044605, 2044996, 2045329, 2045729, 2046058, 2046366, 2046675, 2047098, 2047460, 2047885, 2048283]","[2040291, 2040611, 2040911, 2041280, 2041690, 2042062, 2042468, 2042899, 2043269, 2043634, 2044010, 2044332, 2044686, 2045065, 2045418, 2045798, 2046139, 2046471, 2046763, 2047161, 2047549, 2047960, 2048381]","[2039681, 2040080, 2040480, 2040881, 2041280, 2041680, 2042080, 2042480, 2042843, 2043212, 2043580, 2043953, 2044272, 2044631, 2045022, 2045355, 2045755, 2046084, 2046392, 2046702, 2047124, 2047485, 2047910, 2048309]",31,R,ITM,1.1,
2,600,trial,0,116,116,116,trial,"['S', 'S', 'S', 'S', 'S', 'S', 'S', 'C', 'C', 'C', 'C', 'C', 'C', 'C', 'C', 'C', 'C', 'C', 'C', 'C', 'C', 'C', 'C']","[2054316, 2055181, 2055836, 2056413, 2057019, 2057600, 2058150, 2058727, 2059284, 2059841, 2060377, 2060899, 2061477, 2062014, 2062548, 2063050, 2063565, 2064067, 2064580, 2065089, 2065590, 2066076, 2066581]","[2054390, 2055267, 2055928, 2056486, 2057093, 2057669, 2058235, 2058822, 2059362, 2059919, 2060462, 2060997, 2061575, 2062096, 2062621, 2063138, 2063621, 2064153, 2064661, 2065154, 2065655, 2066141, 2066638]","[2054084, 2054684, 2055284, 2055884, 2056484, 2057084, 2057684, 2058285, 2058754, 2059312, 2059869, 2060404, 2060926, 2061504, 2062042, 2062576, 2063078, 2063593, 2064094, 2064608, 2065117, 2065617, 2066104, 2066609]",31,R,ITM,1.1,
4,600,trial,0,117,117,117,trial,"['S', 'S', 'S', 'S', 'S', 'S', 'S', 'C', 'C', 'C', 'C', 'C', 'C', 'C', 'C', 'C', 'C', 'C', 'C', 'C', 'C', 'C', 'C']","[2072386, 2073109, 2073629, 2074284, 2074835, 2075487, 2076114, 2076687, 2077191, 2077643, 2078112, 2078626, 2079082, 2079576, 2080004, 2080476, 2080966, 2081398, 2081754, 2082247, 2082756, 2083221, 2083647]","[2072467, 2073152, 2073717, 2074362, 2074928, 2075532, 2076205, 2076766, 2077246, 2077732, 2078205, 2078682, 2079170, 2079649, 2080119, 2080553, 2081012, 2081432, 2081835, 2082292, 2082782, 2083279, 2083708]","[2072172, 2072771, 2073371, 2073971, 2074571, 2075171, 2075771, 2076371, 2076712, 2077216, 2077669, 2078138, 2078653, 2079108, 2079601, 2080029, 2080501, 2080992, 2081425, 2081779, 2082273, 2082782, 2083247, 2083673]",31,R,ITM,1.1,
4,400,trial,0,118,118,118,trial,"['S', 'S', 'S', 'S', 'S', 'S', 'S', 'C', 'C', 'C', 'C', 'C', 'C', 'C', 'C', 'C', 'C', 'C', 'C', 'C', 'C', 'C', 'C']","[2089422, 2089837, 2090221, 2090598, 2091015, 2091432, 2091812, 2092182, 2092451, 2092728, 2093067, 2093449, 2093790, 2094208, 2094594, 2094997, 2095285, 2095682, 2096093, 2096440, 2096760, 2097134, 2097579]","[2089494, 2089924, 2090271, 2090675, 2091061, 2091498, 2091886, 2092253, 2092533, 2092816, 2093117, 2093488, 2093853, 2094259, 2094637, 2095041, 2095348, 2095753, 2096154, 2096512, 2096864, 2097192, 2097604]","[2089086, 2089486, 2089886, 2090287, 2090686, 2091086, 2091486, 2091886, 2092208, 2092477, 2092753, 2093092, 2093474, 2093815, 2094233, 2094619, 2095023, 2095310, 2095708, 2096118, 2096465, 2096786, 2097160, 2097604]",31,R,ITM,1.1,
6,400,trial,0,119,119,119,trial,"['S', 'S', 'S', 'S', 'S', 'S', 'S', 'S', 'C', 'C', 'C', 'C', 'C', 'C', 'C', 'C', 'C', 'C', 'C', 'C', 'C', 'C', 'C', 'C']","[2103489, 2103953, 2104318, 2104696, 2105164, 2105530, 2105861, 2106230, 2106608, 2107066, 2107419, 2107753, 2108182, 2108553, 2108932, 2109326, 2109754, 2110162, 2110511, 2110968, 2111333, 2111741, 2112109, 2112462]","[2103561, 2104027, 2104380, 2104755, 2105210, 2105587, 2105926, 2106250, 2106685, 2107092, 2107494, 2107825, 2108239, 2108613, 2109004, 2109375, 2109805, 2110248, 2110631, 2110995, 2111377, 2111768, 2112160, 2112528]","[2103226, 2103626, 2104027, 2104426, 2104826, 2105226, 2105626, 2106027, 2106636, 2107092, 2107447, 2107780, 2108209, 2108579, 2108959, 2109353, 2109782, 2110189, 2110538, 2110995, 2111360, 2111768, 2112136, 2112489]",31,R,ITM,1.1,
3,600,trial,0,120,120,120,trial,"['S', 'S', 'S', 'S', 'S', 'S', 'S', 'C', 'C', 'C', 'C', 'C', 'C', 'C', 'C', 'C', 'C', 'C', 'C', 'C', 'C', 'C', 'C']","[2118082, 2119019, 2119585, 2120137, 2120757, 2121396, 2122050, 2122554, 2123033, 2123525, 2124017, 2125082, 2125634, 2126139, 2126589, 2127067, 2127523, 2127976, 2128455, 2128924, 2129379, 2129880, 2130323]","[2118144, 2119052, 2119650, 2120205, 2120823, 2121450, 2122070, 2122594, 2123107, 2123566, 2124057, 2125167, 2125697, 2126200, 2126660, 2127158, 2127612, 2128083, 2128545, 2129002, 2129471, 2129955, 2130433]","[2117851, 2118450, 2119050, 2119650, 2120250, 2120850, 2121450, 2122050, 2122579, 2123060, 2123550, 2124043, 2125108, 2125660, 2126164, 2126615, 2127092, 2127549, 2128002, 2128481, 2128950, 2129404, 2129905, 2130349]",31,R,ITM,1.1,
6,600,trial,0,121,121,121,trial,"['S', 'S', 'S', 'S', 'S', 'S', 'S', 'S', 'C', 'C', 'C', 'C', 'C', 'C', 'C', 'C', 'C', 'C', 'C', 'C', 'C', 'C', 'C', 'C']","[2136181, 2136921, 2137610, 2138090, 2138455, 2138952, 2139522, 2140126, 2140727, 2141298, 2141853, 2142406, 2142871, 2143392, 2143896, 2144396, 2144942, 2145426, 2145910, 2146425, 2146914, 2147404, 2147866, 2148388]","[2136201, 2137046, 2137750, 2138281, 2138590, 2139031, 2139618, 2140205, 2140779, 2141335, 2141933, 2142483, 2142963, 2143478, 2143983, 2144486, 2144988, 2145496, 2145974, 2146494, 2146971, 2147473, 2147939, 2148453]","[2136070, 2136669, 2137268, 2137868, 2138468, 2139068, 2139668, 2140268, 2140753, 2141325, 2141880, 2142433, 2142898, 2143420, 2143923, 2144422, 2144968, 2145454, 2145937, 2146452, 2146941, 2147431, 2147894, 2148415]",31,R,ITM,1.1,
5,400,trial,0,122,122,122,trial,"['S', 'S', 'S', 'S', 'S', 'S', 'S', 'C', 'C', 'C', 'C', 'C', 'C', 'C', 'C', 'C', 'C', 'C', 'C', 'C', 'C', 'C', 'C']","[2154506, 2154890, 2155348, 2155754, 2156146, 2156538, 2156916, 2157270, 2157697, 2158050, 2158433, 2158840, 2159233, 2159614, 2160012, 2160404, 2160814, 2161226, 2161639, 2162038, 2162443, 2162812, 2163227]","[2154564, 2154958, 2155412, 2155822, 2156206, 2156606, 2156964, 2157344, 2157737, 2158111, 2158492, 2158920, 2159307, 2159705, 2160097, 2160489, 2160894, 2161311, 2161723, 2162128, 2162541, 2162897, 2163300]","[2154146, 2154546, 2154946, 2155346, 2155746, 2156146, 2156547, 2156946, 2157295, 2157723, 2158075, 2158458, 2158867, 2159258, 2159641, 2160037, 2160430, 2160839, 2161253, 2161665, 2162064, 2162468, 2162839, 2163253]",31,R,ITM,1.1,
5,600,trial,0,123,123,123,trial,"['B', 'S', 'S', 'S', 'S', 'S', 'S', 'S', 'C', 'C', 'C', 'C', 'C', 'C', 'C', 'C', 'C', 'C', 'C', 'C', 'C', 'C', 'C', 'C']","[2169036, 2169468, 2170123, 2170634, 2171224, 2171793, 2172449, 2172945, 2173568, 2174025, 2174550, 2175042, 2175549, 2176009, 2176454, 2176927, 2177398, 2177859, 2178269, 2178733, 2179182, 2179594, 2180077, 2180481]","[2169088, 2169488, 2170161, 2170689, 2171270, 2171852, 2172469, 2173039, 2173632, 2174126, 2174601, 2175119, 2175637, 2176091, 2176507, 2177010, 2177447, 2177930, 2178352, 2178809, 2179274, 2179695, 2180130, 2180568]","[2169049, 2169648, 2170247, 2170847, 2171447, 2172047, 2172647, 2173247, 2173594, 2174051, 2174576, 2175068, 2175576, 2176034, 2176480, 2176954, 2177424, 2177885, 2178294, 2178759, 2179209, 2179619, 2180103, 2180506]",31,R,ITM,1.1,
5,400,trial,0,124,124,124,trial,"['B', 'S', 'S', 'S', 'S', 'S', 'S', 'S', 'C', 'C', 'C', 'C', 'C', 'C', 'C', 'C', 'C', 'C', 'C', 'C', 'C', 'C', 'C', 'C']","[2186067, 2186566, 2186901, 2187250, 2187616, 2188090, 2188484, 2188862, 2189229, 2189620, 2189990, 2190389, 2190769, 2191177, 2191551, 2191911, 2192308, 2192695, 2193108, 2193442, 2193778, 2194181, 2194605, 2195035]","[2186087, 2186621, 2186961, 2187304, 2187636, 2188144, 2188551, 2188905, 2189285, 2189683, 2190039, 2190440, 2190828, 2191230, 2191610, 2191973, 2192363, 2192735, 2193150, 2193527, 2193854, 2194246, 2194679, 2195123]","[2186080, 2186480, 2186881, 2187280, 2187680, 2188081, 2188480, 2188880, 2189255, 2189645, 2190017, 2190414, 2190795, 2191203, 2191578, 2191937, 2192333, 2192720, 2193135, 2193468, 2193805, 2194206, 2194630, 2195060]",31,R,ITM,1.1,
6,400,trial,0,125,125,125,trial,"['S', 'S', 'S', 'S', 'S', 'S', 'S', 'S', 'C', 'C', 'C', 'C', 'C', 'C', 'C', 'C', 'C', 'C', 'C', 'C', 'C', 'C', 'C', 'C']","[2200839, 2201224, 2201578, 2201888, 2202292, 2202611, 2203003, 2203404, 2203814, 2204162, 2204576, 2204998, 2205388, 2205766, 2206083, 2206545, 2206906, 2207311, 2207706, 2208119, 2208521, 2208934, 2209351, 2209730]","[2200890, 2201303, 2201648, 2201959, 2202335, 2202671, 2203059, 2203451, 2203884, 2204188, 2204611, 2205025, 2205449, 2205846, 2206222, 2206613, 2207008, 2207404, 2207803, 2208236, 2208619, 2209025, 2209444, 2209819]","[2200689, 2201089, 2201488, 2201888, 2202289, 2202688, 2203088, 2203488, 2203841, 2204188, 2204604, 2205025, 2205415, 2205794, 2206109, 2206573, 2206934, 2207339, 2207733, 2208147, 2208547, 2208962, 2209378, 2209758]",31,R,ITM,1.1,
