octave,ioi,event,.thisRepN,.thisTrialN,.thisN,.thisIndex,tap_types,tap_times,release_times,tone_times,subject,handedness,experiment,version
,,SPR,0,-1,-1,0,"[b'P', b'P', b'P', b'P', b'P', b'P', b'P', b'P', b'P', b'P', b'P', b'P', b'P', b'P', b'P', b'P', b'P', b'P', b'P', b'P', b'P', b'P', b'P', b'P', b'P', b'P', b'P', b'P', b'P', b'P']","[674.6190416193452, 675.1146065332006, 675.5815068073786, 676.0361644529871, 676.4989833790886, 677.0068114485848, 677.4573187326869, 677.9078444203703, 678.3952264649163, 678.8867118002702, 679.3413213134353, 679.8532788634515, 680.3283754557099, 680.8157794429873, 681.2827030755569, 681.741386150668, 682.2206738046608, 682.7120501341869, 683.1380116416808, 683.6130962008284, 684.1004768297141, 684.5633056654364, 685.0301985073987, 685.4889304227834, 685.9435724961309, 686.4063514298344, 686.8855608686066, 687.331970524541, 687.8193196549895, 688.2493713584356]","[674.6394879982106, 675.1309768727148, 675.5978640520368, 676.0362009062349, 676.4990619482244, 677.0190731885656, 677.4818836207064, 677.9282982314512, 678.4361921291422, 678.9071857845075, 679.3904620608402, 679.8696722074424, 680.3488416538166, 680.8362353775583, 681.2990426244639, 681.7577444570713, 682.2369556654187, 682.7284289676617, 683.1871375246546, 683.6499394628348, 684.116855309274, 684.5796745892904, 685.0465805261089, 685.5052749265006, 685.9599120450378, 686.4431723951942, 686.9059994613414, 687.348323168304, 687.8357045050197, 688.2657639945965]",,5,R,ITM,1
7,500,practice,0,0,0,0,"['S', 'S', 'S', 'S', 'S', 'C', 'C', 'C', 'C', 'C', 'C', 'C', 'C', 'C', 'C', 'C', 'C', 'C', 'C', 'C', 'C']","[766.1406812227198, 766.652652929337, 767.135934514395, 767.6314994282503, 768.1270671734258, 768.6308269897014, 769.1223165720357, 769.613794121259, 770.0725143574479, 770.5639773961551, 771.0513813834326, 771.534641379674, 772.0220481982717, 772.4807723275258, 772.9435820518365, 773.4432357459839, 773.9551915264249, 774.4507709507963, 774.9463305559262, 775.4296347915458, 775.9252053680416]","[766.1897989656479, 766.6773002795575, 767.176929553568, 767.6642535560497, 768.1475294784673, 768.659494460699, 769.1469087115122, 769.638405372147, 770.1011892606609, 770.5926441593226, 771.0800828302727, 771.5592384739609, 772.0466449386436, 772.5094305967326, 772.9722658029252, 773.4719021552363, 773.9797900363718, 774.4794338208985, 774.9750461593673, 775.4583079251838, 775.9498282981252]","[764.6744371069994, 765.1741116821333, 765.6778768071343, 766.1775237768962, 766.6772489618787, 767.1768711575888, 767.6765372387621, 768.1762234930918, 768.655392939466, 769.1468835835453, 769.6383459144226, 770.0970728749969, 770.5885436998348, 771.0800251421234, 771.5592154694842, 772.0466028227555, 772.5094068844259, 772.9722247487823, 773.4677935557029, 773.9797571222745, 774.4753319457504, 774.9750217392304, 775.4582849207071, 775.9497865361523]",5,R,ITM,1
2,500,practice,0,1,1,1,"['S', 'S', 'S', 'S', 'S', 'S', 'C', 'C', 'C', 'C', 'C', 'C', 'C', 'C', 'C', 'C', 'C', 'C', 'C', 'C', 'C', 'C', 'C']","[782.5151325217118, 783.0271070596492, 783.5185570035005, 784.0550999686077, 784.5465633612301, 785.0380727628058, 785.5582025646806, 786.0988134290933, 786.2216860016343, 786.5902909783167, 787.0613147164592, 787.5241283338353, 788.0442751236313, 788.5521300906695, 789.0231446270213, 789.5392068835057, 790.0347664886356, 790.5139497376958, 791.0341028979624, 791.5091775474892, 791.9679218498997, 792.5126629026624, 793.0450576297532]","[782.5684130131724, 783.051635494421, 783.5431240150102, 784.1083210023439, 784.6489555790633, 785.2141628299329, 785.7629654115307, 786.1234597175687, 786.2339753469871, 786.7254405091846, 787.1637083499526, 787.6469874576054, 788.1548923266622, 788.6012733154795, 789.0845510074722, 789.5638039777925, 790.1125708139728, 790.5385652355641, 791.0586999922492, 791.554215358001, 792.0498273425547, 792.5372670752498, 793.0697180748297]","[781.5690734186103, 782.0687108326665, 782.5683553250232, 783.0680327314773, 783.5676977509054, 784.0673719721242, 784.5670415924477, 785.06669422485, 785.5827770084059, 786.12340839989, 786.6149199249559, 787.0859132264062, 787.5486914522797, 788.0688969919701, 788.5766988717543, 789.0476939427797, 789.5637636314796, 790.0593274835899, 790.5385121483102, 791.0586603537664, 791.5337420815937, 791.9924881535793, 792.5372168193161, 793.0696660493209]",5,R,ITM,1
5,500,practice,0,2,2,2,"['S', 'S', 'S', 'S', 'S', 'S', 'C', 'C', 'C', 'C', 'C', 'C', 'C', 'C', 'C', 'C', 'C', 'C', 'C', 'C', 'C', 'C', 'C']","[799.3319216842674, 799.831578917565, 800.2943751931049, 800.8063479614672, 801.3100943289718, 801.8138668861884, 802.3135584492435, 802.7968308325108, 803.3087816581415, 803.7756875949598, 804.267203367006, 804.803715895421, 805.282910469762, 805.4057635769767, 805.7538966929118, 806.2453632707694, 806.7205094111314, 807.2201592122135, 807.6829452242175, 808.1744397613621, 808.6700138770082, 809.1328317413646, 809.6079138231069]","[799.3523510752116, 799.8520376834563, 800.3476117991023, 800.896440924327, 801.4821235750939, 801.9490316354024, 802.4364193425887, 802.9524589485114, 803.4357479657849, 803.9436415095608, 804.4351250753397, 804.889697073512, 805.3075234902251, 805.413944676711, 805.8726525258738, 806.3313819638532, 806.7860066953644, 807.2447120671221, 807.7443862883409, 808.2522667372609, 808.7437234054978, 809.1860502976956, 809.6652452259517]","[798.3694883485865, 798.8691006346758, 799.3687493740129, 799.8684381057477, 800.368077643294, 800.8677713298392, 801.3674359953524, 801.8711912107327, 802.3381282920733, 802.8213812100142, 803.3333582253568, 803.8002542525545, 804.2917381722483, 804.8283363480995, 805.3074728803764, 805.7784654739967, 806.2699331135993, 806.7450597886349, 807.2406101919742, 807.7075727551967, 808.1990120815973, 808.690468042004, 809.1573867197634, 809.6283824986189]",5,R,ITM,1
3,500,practice,0,3,3,3,"['S', 'S', 'S', 'S', 'S', 'S', 'S', 'S', 'C', 'C', 'C', 'C', 'C', 'C', 'C', 'C', 'C', 'C', 'C', 'C', 'C', 'C', 'C', 'C']","[815.4115044326087, 815.9070583750982, 816.4067396746176, 816.9023070658781, 817.4060534333828, 817.9180152303792, 818.4135861607899, 818.5323996819012, 818.9296738991561, 819.4416024281402, 819.9125974991656, 820.4286756818261, 820.940614828261, 821.4402791398591, 821.9604337157857, 822.4355221679986, 822.9556732047748, 823.4635384353487, 823.9509155250843, 824.4383039401006, 824.9297878597945, 825.4212877056644, 825.9537107459573, 826.4574610065273]","[815.4319472723238, 816.0462719122064, 816.5828400052804, 817.0947876456759, 817.594451603359, 818.1227862172748, 818.4299759656307, 818.5774003313353, 819.0197254539579, 819.5398754289893, 820.100997438717, 820.588354355296, 821.096249668647, 821.5098942254162, 822.0669051582054, 822.5420095365943, 823.0990317946641, 823.5863940199686, 824.061490612227, 824.5570604808927, 825.0690123682684, 825.5768945867635, 826.1216108654744, 826.5926073521599]","[814.9487074492389, 815.4442263541408, 815.9479939565471, 816.4476681777659, 816.9473455842199, 817.447022636759, 817.9466625282203, 818.4463940836733, 818.9501185084464, 819.4620629636065, 819.937160263695, 820.453232075885, 820.9651701605748, 821.4648429661336, 821.980894251252, 822.4559819956348, 822.9802451710949, 823.4840010943053, 823.9754860757441, 824.462895371747, 824.954339299043, 825.4458373753379, 825.9782689095913, 826.4820496068535]",5,R,ITM,1
6,500,practice,0,4,4,4,"['S', 'S', 'S', 'S', 'S', 'S', 'S', 'S', 'S', 'C', 'C', 'C', 'C', 'C', 'C', 'C', 'C', 'C', 'C', 'C', 'C', 'C', 'C', 'C', 'C']","[832.203690130407, 832.7770586617694, 833.2480742598664, 833.7600204846017, 834.2924601589008, 834.4071403064268, 834.8003565339969, 834.9191268774749, 835.2999882854126, 835.828384480543, 836.3116451846145, 836.8112925082913, 837.3273745840171, 837.8188231122084, 838.3143954582793, 838.7977053565393, 839.2686869787938, 839.8052256969206, 840.2803091943231, 840.7595161556901, 841.2755777043443, 841.7383700868189, 842.2380538637434, 842.7090453956187, 843.1923383059574]","[832.4043433159785, 832.9408961907064, 833.4241816688296, 833.9566117874231, 834.3088471324212, 834.452184841324, 834.8167038690344, 834.9436804402137, 835.4556185249035, 835.918425771809, 836.4959152897308, 836.9751339302936, 837.4911664579158, 837.94989412632, 838.4454969090831, 838.949218148621, 839.4611845465128, 839.9567526456033, 840.4441431841097, 840.9397236702263, 841.4434902108874, 841.8858089630396, 842.3363105845012, 842.860582961752, 843.3152069854332]","[831.8309995586679, 832.3306790886122, 832.8303083626228, 833.329975505541, 833.8296476032698, 834.329314038358, 834.8289932143872, 835.3286486781096, 835.8528980508838, 836.3361842368371, 836.8358542110757, 837.3519217762854, 837.8434039264041, 838.3389667167693, 838.822245470507, 839.2932610686039, 839.829788815365, 840.3048786832379, 840.7840821054547, 841.300130205338, 841.7629349748385, 842.2626484806251, 842.7336230245791, 843.2169106261924]",5,R,ITM,1
4,500,practice,0,5,5,5,"['S', 'S', 'S', 'S', 'S', 'S', 'S', 'S', 'S', 'S', 'S', 'C', 'C', 'C', 'C', 'C', 'C', 'C', 'C', 'C', 'C', 'C', 'C', 'C', 'C', 'C', 'C']","[849.2293422453856, 849.331736232794, 849.778153674859, 849.901012090799, 850.2737189426293, 850.3884061684557, 850.7938855516668, 851.2894444489667, 851.7891126536301, 852.2928781325461, 852.4116527230045, 852.8171193652746, 853.3291190311788, 853.7959796668739, 854.3407334605776, 854.7953288171417, 855.3113871805607, 855.7946853996249, 856.2943334311318, 856.7858307995966, 857.3100851271811, 857.7687975772393, 858.2807611438109, 858.7107955054207, 859.1981814430319, 859.7265210117581, 860.1975210375939]","[849.229375867313, 849.364471957012, 849.7986127946652, 849.9296898253323, 850.2901059161497, 850.4539593712628, 850.9700032241659, 851.4696693053392, 851.9324751365847, 852.313414405828, 852.4894740362629, 852.9850754033658, 853.4314857671303, 853.9966845240391, 854.5045426763126, 855.0042154818713, 855.4956725040231, 855.9667057978713, 856.4827832727018, 856.9537811750474, 857.4124539866227, 857.8793631086763, 858.4159184608094, 858.9278774264857, 859.39479645816, 859.8576210469018, 860.3941183569707]","[848.81161704837, 849.3112314579494, 849.8109361158605, 850.3105837934523, 850.8143414862378, 851.3140454363188, 851.8136853277801, 852.3133645038093, 852.8416838993792, 853.3536679930222, 853.8205452627235, 854.3652728667153, 854.819904676527, 855.3318530247525, 855.8192623207553, 856.3189011504716, 856.8103960415312, 857.3346666492068, 857.7933571565334, 858.3053175378698, 858.7353812744268, 859.222741730156, 859.7510837762875, 860.2220862795284]",5,R,ITM,1
3,400,trial,0,6,6,6,"['S', 'S', 'S', 'S', 'S', 'S', 'S', 'C', 'C', 'C', 'C', 'C', 'C', 'C', 'C', 'C', 'C', 'C', 'C', 'C', 'C', 'C', 'C']","[909.5338316220952, 909.9311015923698, 910.2219047211203, 910.5741361730531, 910.9755189898416, 911.3891738101465, 911.7946344358612, 912.1796246164888, 912.5605214159291, 912.9619148501683, 913.3346061297375, 913.7278489009345, 914.0923190883715, 914.4978296161048, 914.8909541796834, 915.2718474399734, 915.6650463257073, 916.0418511596203, 916.4228176803206, 916.8199998796689, 917.1681574157408, 917.6104995262847, 917.9790960090064]","[909.660802176719, 910.0007347275933, 910.2956326531912, 910.7010932789059, 911.0820084819275, 911.4956601169972, 911.913441586502, 912.2984222114238, 912.6833908032349, 913.0356112838019, 913.3592032240243, 913.8055902293971, 914.1742263506017, 914.5469052431449, 914.9401097915193, 915.3250957251665, 915.6896561609351, 916.1155585646197, 916.4718773811845, 916.8446259949878, 917.2459606793328, 917.6514319224983, 918.0323145653375]","[909.054649080865, 909.4560241115229, 909.8533344281104, 910.2546595567497, 910.6560508674988, 911.0533388874398, 911.4546859588106, 911.8560758538996, 912.2000943537458, 912.5850873656937, 912.9864836312531, 913.3591798656327, 913.7523585782101, 914.1169034417175, 914.518246266108, 914.9155441956697, 915.2964190523784, 915.6896228929227, 916.0664082615092, 916.4472933817536, 916.8445768007992, 917.1927824693147, 917.6309639548164, 918.0036916876331]",5,R,ITM,1
4,600,trial,0,7,7,7,"['S', 'S', 'S', 'S', 'S', 'S', 'S', 'C', 'C', 'C', 'C', 'C', 'C', 'C', 'C', 'C', 'C', 'C', 'C', 'C', 'C', 'C', 'C']","[923.8850151316369, 924.6099555588902, 925.2406894689399, 925.826388399798, 926.4284509457848, 927.0509881838391, 927.62846779214, 928.205947046526, 928.8326045633096, 929.401886083955, 929.9998800228063, 930.5855761223442, 931.1671084116045, 931.7978334737786, 932.309806949971, 932.8955313627109, 933.4647739527035, 934.0177003521809, 934.5828955699394, 935.2136238173487, 935.7911112117803, 936.3849944276079, 936.946092725029]","[923.9505669187839, 924.8474990771666, 925.4946617227097, 926.084396346606, 926.7110372293834, 927.2926158815121, 927.8701174325447, 928.4762599109479, 929.0578619214684, 929.6353486080699, 930.2456028712418, 930.8599285728695, 931.4538206365728, 932.0435970224421, 932.6128615551663, 933.1657900781338, 933.6982421394588, 934.3043626751304, 934.8695787738756, 935.4552723960082, 936.0860034747377, 936.6471017721587]","[923.4959705004748, 924.093935772209, 924.6959756676341, 925.2939742073808, 925.8960374611977, 926.4939931772261, 927.0960302413312, 927.6940277193327, 928.2305129962906, 928.8530640370309, 929.4264456632492, 930.0243985479574, 930.6100907544301, 931.1916842709899, 931.8183258615973, 932.3343750232257, 932.9200463487118, 933.4893413181283, 934.0423091256636, 934.6074976190366, 935.2381894131983, 935.8156824702703, 936.4095426816212, 936.97067884795]",5,R,ITM,1
4,600,trial,0,8,8,8,"['S', 'S', 'S', 'S', 'S', 'S', 'S', 'S', 'S', 'S', 'C', 'C', 'C', 'C', 'C', 'C', 'C', 'C', 'C', 'C', 'C', 'C', 'C', 'C', 'C', 'C']","[943.2370239710186, 943.8677451401273, 944.4984610005107, 945.0800665501814, 945.6739267615324, 945.7886008925029, 946.2678067921248, 946.3824872935658, 946.9082308955784, 947.0214143364607, 947.4883245202593, 948.1026792429192, 948.6965263594142, 949.3027134311106, 949.929326708516, 950.5314023493587, 951.1293626662825, 951.7068525381193, 952.3170990151607, 952.9642266231162, 953.5498993642624, 954.1028165619491, 954.6925894086681, 955.3151638078001, 955.8844286944393, 956.5151710984496]","[943.5114418958237, 944.142156694462, 944.7237505649368, 945.3626556651001, 945.686200888539, 945.9565254321568, 946.2841916421551, 946.5790888599229, 946.9231137302396, 947.1565504185576, 947.7586225202501, 948.3197232950763, 948.9094954339653, 949.5975685329904, 950.1832649864433, 950.8098917126196, 951.395567639001, 951.9812545367482, 952.6037861121621, 953.2304323036648, 953.8365719507477, 954.3854099238481, 954.9915555874866, 955.5731929895096, 956.1711501211983, 956.7404001434064]","[942.7169047865946, 943.3148290041858, 943.9169085380938, 944.5148479740311, 945.1169214913838, 945.7148934875034, 946.3169549717452, 946.9149407705509, 947.5128855152136, 948.1231433175358, 948.7210993874793, 949.3231665343615, 949.9539439759593, 950.5559799783192, 951.1539742710854, 951.7313951294922, 952.3375779542083, 952.9887819554301, 953.5744755775628, 954.1232827600559, 954.7171652680535, 955.3396883495067, 955.9089889815635, 956.5397090889271]",5,R,ITM,1
4,400,trial,0,9,9,9,"['B', 'S', 'S', 'S', 'S', 'S', 'S', 'C', 'C', 'C', 'C', 'C', 'C', 'C', 'C', 'C', 'C', 'C', 'C', 'C', 'C', 'C', 'C']","[962.2040833300007, 962.9166657523862, 963.3671988722851, 963.7480914247451, 964.1208170340717, 964.5344715004617, 964.9235706345378, 965.34537788746, 965.7058116740287, 966.0908096407869, 966.4962716821617, 966.8648936467652, 967.2293985178746, 967.6512666441813, 968.0403555147217, 968.4580722177767, 968.8758689056275, 969.2362835807849, 969.654043461473, 970.0308748390129, 970.3994433624475, 970.7844416831208, 971.1653229102999]","[962.3473619350941, 962.9781160183003, 963.3835787675051, 963.7603630743466, 964.1371710934948, 964.5753985879498, 964.9726774061002, 965.3822636192696, 965.7549895825113, 966.1399847179492, 966.5209200941273, 966.8895250708096, 967.2744338509813, 967.6758658619583, 968.077211871584, 968.4785897335621, 968.9004589216138, 969.2731151635954, 969.6786242756687, 970.0554107060003, 970.4240666464464, 970.809085140276, 971.2103635521319]","[962.2163337447006, 962.61360123757, 963.0149454776207, 963.4163293561543, 963.8136248083108, 964.215018596465, 964.6163607130255, 965.0136497947116, 965.3699799365572, 965.7303762081332, 966.1153745288063, 966.5208429406516, 966.8894737531308, 967.2539644676392, 967.6758092355542, 968.0649494237732, 968.4785600047, 968.9004316701569, 969.2567434084211, 969.6785984398717, 970.051304937787, 970.4240132052774, 970.8090182503362, 971.1898948766199]",5,R,ITM,1
5,600,trial,0,10,10,10,"['S', 'S', 'S', 'S', 'S', 'S', 'S', 'S', 'S', 'S', 'S', 'S', 'C', 'C', 'C', 'C', 'C', 'C', 'C', 'C', 'C', 'C', 'C', 'C', 'C', 'C', 'C', 'C', 'C']","[977.2678835916854, 977.8740289014088, 977.984596202421, 978.5129382485524, 978.6235062573946, 979.1068009373085, 979.6924995142516, 979.8030841571001, 980.2658945892409, 980.3764562276126, 980.896607972219, 981.0071929689825, 981.5273408205237, 982.1130270104409, 982.7192147899674, 983.2762257227564, 983.8782737582272, 984.484424376676, 985.0291583511382, 985.6066691039615, 985.7295020380196, 986.2046687054532, 986.8394485720768, 987.4005309433215, 988.0312598985608, 988.5841877136983, 989.1862637084562, 989.7432551759188, 990.3330128042917]","[977.276054781799, 977.8822004454374, 978.0911033902582, 978.5252148529643, 978.738191713646, 979.3115744016093, 979.7047545298469, 979.9382237783473, 980.2781630536072, 980.5361787865457, 980.9088920088465, 981.1628426737997, 981.7526063187281, 982.3587576450069, 982.9198626668134, 983.4891657762754, 984.0994253481728, 984.693317411876, 985.3035384070356, 985.6271646770153, 985.8728390390924, 986.4708074960619, 987.064713008536, 987.6708455773186, 988.2687956307067, 988.8626664595084, 989.3992083628705, 989.9807916158946, 990.5173204244007]","[976.7191118006949, 977.3210897609906, 977.9190872389921, 978.5211136856464, 979.1231836638486, 979.7211620304388, 980.3232242225106, 980.921192325565, 981.5519195112292, 982.1334939163777, 982.7397135482565, 983.300764067149, 983.9028184730903, 984.508995989081, 985.0537062512365, 985.627117960232, 986.2291521930167, 986.8598843334913, 987.4251046792167, 988.0558180621949, 988.6087614495934, 989.2067118568966, 989.7636965999737, 990.3575801697164]",5,R,ITM,1
3,400,trial,0,11,11,11,"['S', 'S', 'S', 'S', 'S', 'S', 'S', 'S', 'S', 'S', 'C', 'C', 'C', 'C', 'C', 'C', 'C', 'C', 'C', 'C', 'C', 'C', 'C', 'C', 'C', 'C']","[995.8908603922016, 996.3945883561249, 996.6771941050498, 997.0458153618232, 997.4307981102353, 997.8157794429873, 997.9345391690146, 998.2499301902611, 998.364608922127, 998.6513076983242, 999.0322186543656, 999.4254508081119, 999.8226832633939, 1000.2322124962441, 1000.6131673377486, 1001.022700109749, 1001.4117624366625, 1001.78856125402, 1002.1817771276752, 1002.6077035975816, 1002.9804132807321, 1003.3981586509042, 1003.7667926486187, 1004.1886267990828, 1004.540863205826, 1004.9463528525728]","[996.1448032710242, 996.4478585840496, 996.7795841993928, 997.0621680055862, 997.5536473243847, 997.8321773878736, 997.9836923034453, 998.2662938053899, 998.3686800066678, 998.6635697922201, 999.1140862781128, 999.5523558884558, 999.9496159491099, 1000.3100454886983, 1000.7400763111578, 1001.0882324315696, 1001.436397045942, 1001.9073953022028, 1002.329204678615, 1002.7019111765303, 1003.1442433774536, 1003.52102803821, 1003.9511250427795, 1004.2582563951561, 1004.7128871432227, 1005.0814864572645]","[995.8826428392196, 996.284011499407, 996.6853645873333, 997.086749173697, 997.4881196034595, 997.8854653115496, 998.2867961028293, 998.6881403428799, 999.0567846041301, 999.449967917603, 999.8472184225512, 1000.2567844625642, 1000.6377067438862, 1001.0472519029126, 1001.43223925222, 1001.8131254342095, 1002.2063866089879, 1002.6322783952219, 1003.004983477477, 1003.4227444199103, 1003.7913600140433, 1004.209125557372, 1004.5654553453026, 1004.9667928609676]",5,R,ITM,1
7,600,trial,0,12,12,12,"['B', 'S', 'S', 'S', 'S', 'S', 'S', 'S', 'S', 'S', 'S', 'S', 'S', 'S', 'C', 'C', 'C', 'C', 'C', 'C', 'C', 'C', 'C', 'C', 'C', 'C', 'C', 'C', 'C', 'C']","[1010.7335288831822, 1011.282318369924, 1011.3928920414066, 1011.9253571975876, 1012.0400599956752, 1012.4864547871786, 1013.0721126638937, 1013.186784671374, 1013.6905820026424, 1013.797040350206, 1014.276262176004, 1014.3868089499447, 1014.8660364383832, 1014.9765941836897, 1015.4435206475796, 1016.0332662428416, 1016.6148728542574, 1017.1637044568873, 1017.7247765645964, 1018.2982003067027, 1018.8757156604214, 1019.4449755922502, 1019.9814983842009, 1020.5385163952906, 1021.1119125320249, 1021.6771176594042, 1022.2095442388473, 1022.7665714517276, 1023.2949205761595, 1023.8436962602153]","[1010.9874292922018, 1011.29458329514, 1011.5731006176879, 1011.9376192914833, 1012.1792558370321, 1012.7526696695177, 1013.0884996374141, 1013.3670013877008, 1013.6987570858212, 1013.9936511183538, 1014.2885391343309, 1014.575222692182, 1014.8742129372222, 1015.1445746419176, 1015.7424885959731, 1016.299511207958, 1016.8687792798324, 1017.4217184202507, 1017.9500463097811, 1018.5193324313219, 1019.1459924255106, 1019.6907409104889, 1020.2763952480537, 1020.8170061124664, 1021.4108960526795, 1021.9146452515045, 1022.5003275483563, 1023.0450593993284, 1023.6307328483045]","[1010.7457969936335, 1011.3437293512702, 1011.9458078234333, 1012.5437692021021, 1013.1458370568143, 1013.7438048059537, 1014.3458825702867, 1014.9438276688644, 1015.4680586380571, 1016.057843163972, 1016.6394126143101, 1017.1882520030706, 1017.7493425143609, 1018.3227765200031, 1018.9002451569384, 1019.4695210149433, 1020.0061181290495, 1020.5630901311857, 1021.140574694297, 1021.7016761769532, 1022.234110896442, 1022.7911097961202, 1023.3194635214475, 1023.8682678726203]",5,R,ITM,1
5,600,trial,0,13,13,13,"['B', 'S', 'S', 'S', 'S', 'S', 'S', 'S', 'S', 'S', 'S', 'S', 'S', 'S', 'S', 'C', 'C', 'C', 'C', 'C', 'C', 'C', 'C', 'C', 'C', 'C', 'C', 'C', 'C', 'C', 'C', 'C', 'C', 'C', 'C', 'C', 'C', 'C']","[1029.475917321203, 1029.995386363725, 1030.101933897875, 1030.6302118853866, 1030.7366861591265, 1031.2445524514455, 1031.3510511453221, 1031.83432919123, 1031.9408246998712, 1032.4200058254414, 1032.5264942557822, 1033.0303011427561, 1033.1367524120194, 1033.595457075947, 1033.7019578933136, 1034.2016310527874, 1034.7832033344457, 1035.332038122311, 1035.9545806690905, 1036.5361472881084, 1036.6590340172506, 1037.109560412764, 1037.6788352090239, 1037.801719460761, 1038.309575135629, 1038.4365283484167, 1038.874815654511, 1039.4358750212791, 1039.5587865244731, 1040.013392144573, 1040.6318335240346, 1040.7546742442232, 1041.225686657085, 1041.348546488685, 1041.7908818748435, 1041.9137378133785, 1042.3356636278343, 1042.8926370456306]","[1029.7701612118333, 1030.003566047799, 1030.3107501335144, 1030.638379890265, 1030.933276754118, 1031.252748415611, 1031.531267507734, 1031.8425297562906, 1032.137391582556, 1032.4240995605437, 1032.6780530568171, 1033.0384574684388, 1033.26780926953, 1033.5995543501997, 1033.861682575737, 1034.4719467485295, 1034.9921027401163, 1035.5777705264522, 1036.167553282792, 1036.5607642016366, 1036.7736915142148, 1037.3675963188591, 1037.7034708800486, 1037.9450649557944, 1038.3341987735428, 1038.522552704141, 1039.1164114998317, 1039.4605290958852, 1039.6693456854396, 1040.2796003025267, 1040.6564479601577, 1040.8243073794467, 1041.2503056941034, 1041.4140865966363, 1041.8114241646808, 1042.0448169675358, 1042.5936733442174, 1043.1465321459248]","[1029.4875607716338, 1030.0854821579048, 1030.687563815303, 1031.2896228221396, 1031.8875820773185, 1032.4896230344887, 1033.0875872444778, 1033.685568442388, 1034.22210822226, 1034.8077738851057, 1035.3566051338205, 1035.9791490962602, 1036.560713237873, 1037.1341302555938, 1037.7034245171803, 1038.3341396697335, 1038.8993433814528, 1039.460474239056, 1040.0338533878694, 1040.6563923954986, 1041.2502529607646, 1041.8113732009172, 1042.360164457234, 1042.9171902544542]",5,R,ITM,1
7,600,trial,0,14,14,14,"['B', 'S', 'S', 'S', 'S', 'S', 'S', 'S', 'S', 'S', 'S', 'S', 'S', 'S', 'C', 'C', 'C', 'C', 'C', 'C', 'C', 'C', 'C', 'C', 'C', 'C', 'C', 'C', 'C', 'C', 'C', 'C']","[1048.229456913854, 1048.8722770220315, 1049.4292822921802, 1049.5439553614056, 1050.0231694010731, 1050.1296390739176, 1050.6170504934107, 1050.7235148575298, 1051.194519838176, 1051.305087493103, 1051.7720461632603, 1051.8784977864384, 1052.40684124823, 1052.5092200172924, 1052.959749598041, 1053.0867435110565, 1053.5167686708758, 1053.6437300237087, 1054.6922584981191, 1055.2737929108696, 1055.8349138588524, 1056.3509442629843, 1056.89159688937, 1057.473190759845, 1058.022000419743, 1058.6117658342466, 1059.1769483110645, 1059.7258089347265, 1060.3033221649548, 1060.8644438207675, 1061.4459683238974, 1062.023456426159]","[1048.7002736117063, 1049.1384972130961, 1049.4416608241195, 1049.6750419477785, 1050.031343068592, 1050.2525236795695, 1050.6252241609295, 1050.8218023688949, 1051.20269881442, 1051.4197740110994, 1051.7801869166817, 1051.9931938601405, 1052.4109321520123, 1052.587076722053, 1052.988423085594, 1053.1153586026303, 1053.54140151058, 1053.660100717138, 1054.9420810982124, 1055.4990421289829, 1056.035598896776, 1056.551628239163, 1057.092257861072, 1057.6124053586982, 1058.2431520096889, 1058.8165531012335, 1059.4390899853727, 1060.000179081003, 1060.5162448766375, 1061.0937421806898, 1061.6711909983837, 1062.2487095373376]","[1048.2415954914056, 1048.8436318476806, 1049.4416226012968, 1050.0436302904545, 1050.6415948543586, 1051.2436729726066, 1051.8416371825958, 1052.4436947737722, 1052.9843279348315, 1053.5413551477118, 1054.7167851633158, 1055.298353905824, 1055.8595070600738, 1056.3755176449645, 1056.916155053004, 1057.497749631309, 1058.0465599990373, 1058.6363250596257, 1059.2015432818612, 1059.7544537551623, 1060.3278382127007, 1060.888926600501, 1061.4705296727666, 1062.0521079709804]",5,R,ITM,1
3,600,trial,0,15,15,15,"['S', 'S', 'S', 'S', 'S', 'S', 'S', 'S', 'S', 'C', 'C', 'C', 'C', 'C', 'C', 'C', 'C', 'C', 'C', 'C', 'C', 'C', 'C', 'C', 'C']","[1067.532106286345, 1067.9416790507432, 1068.5068678980315, 1069.1294203544317, 1069.7273813791855, 1069.8461520765786, 1070.2802858359314, 1070.8823639541793, 1071.4926090155607, 1072.0537207617526, 1072.6844571492074, 1073.245551907478, 1073.818942735487, 1074.4046335262997, 1074.994395755568, 1075.6333217367176, 1076.2231013078222, 1076.7801787766361, 1077.3821716013629, 1078.000632800066, 1078.5781587712354, 1079.1310260669034, 1079.7084883333682, 1080.3146746972345, 1080.8962402545073]","[1067.6222088049103, 1068.1833134728017, 1068.7813236917443, 1069.3956462081367, 1069.7437658753008, 1069.9936047554854, 1070.5833814952698, 1071.1649495299478, 1071.7629140938518, 1072.3568029723199, 1072.934283288451, 1073.5076677459895, 1074.0523985352165, 1074.6544398463018, 1075.2402116836552, 1075.8585812183667, 1076.460678801941, 1077.0258573856934, 1077.6320221607432, 1078.2422622673141, 1078.8361391126714, 1079.434153578594, 1079.9911719435986, 1080.5317389225481, 1081.1419903544]","[1067.3724184110843, 1067.9744172523665, 1068.5724062364075, 1069.1744680745642, 1069.7724068026714, 1070.3745019088408, 1070.9724547935489, 1071.5745222943463, 1072.078271139256, 1072.7090177902467, 1073.2660138586045, 1073.8434959443107, 1074.4292164639855, 1075.0149051313078, 1075.6578901638875, 1076.2476824759328, 1076.8046732355656, 1077.406731534572, 1078.0251895480399, 1078.6026599545503, 1079.1514915571802, 1079.733167889856, 1080.339226844313, 1080.920805142527]",5,R,ITM,1
2,600,trial,0,16,16,16,"['B', 'S', 'S', 'S', 'S', 'S', 'S', 'S', 'S', 'C', 'C', 'C', 'C', 'C', 'C', 'C', 'C', 'C', 'C', 'C', 'C', 'C', 'C', 'C', 'C']","[1086.4827652230356, 1086.7038679727075, 1087.080692625862, 1087.670494847528, 1088.2315609386817, 1088.8254837929924, 1089.4275502320445, 1090.0091097727618, 1090.6234659110817, 1091.2132044280431, 1091.7702220852177, 1092.34365750652, 1092.9333797433903, 1093.531336875079, 1094.1415957391462, 1094.7395666735208, 1095.3293621708015, 1095.9068683227295, 1096.5170992275096, 1097.0782141589368, 1097.6475098361834, 1098.2290899039722, 1098.8434255152206, 1099.4618969774594, 1100.0434522711967]","[1086.6055850622377, 1086.744840361319, 1087.3060317383918, 1087.9080192543931, 1088.4937036747351, 1089.0998606636545, 1089.6896246624979, 1090.2916893319748, 1090.8937458614062, 1091.5040210055647, 1092.0323453559447, 1092.5770694207863, 1093.1873180213177, 1093.7566055585187, 1094.3463861913683, 1094.8829280947302, 1095.5177727278035, 1096.1075073517, 1096.7136859294358, 1097.274856071607, 1097.893234100279, 1098.4952916914556, 1099.0891596889371, 1099.7076074388692]","[1086.4950414735322, 1087.092997897391, 1087.6950459328616, 1088.2930076654454, 1088.8950415443153, 1089.4930496397676, 1090.0950729011865, 1090.6930487903714, 1091.2377650690823, 1091.7947844958321, 1092.3640684938828, 1092.9579616193312, 1093.5559194588498, 1094.166178676832, 1094.7600303942224, 1095.3539224579256, 1095.9313964035864, 1096.5416524363334, 1097.1027503798393, 1097.6720672919873, 1098.2536519606715, 1098.8679957119655, 1099.4864247044013, 1100.063954922551]",5,R,ITM,1
7,400,trial,0,17,17,17,"['S', 'S', 'S', 'S', 'S', 'S', 'S', 'S', 'S', 'S', 'C', 'C', 'C', 'C', 'C', 'C', 'C', 'C', 'C', 'C', 'C', 'C', 'C', 'C', 'C', 'C']","[1105.8388005536647, 1105.9452925231558, 1106.1910295281923, 1106.3016753983402, 1106.5555520950531, 1106.9610194451532, 1107.3501185792293, 1107.4565840050936, 1107.7842824213592, 1108.1528290020622, 1108.5173713881645, 1108.9146498523996, 1109.266873164287, 1109.6846394154456, 1110.057375642223, 1110.4341595951496, 1110.8150394066686, 1111.2000210933356, 1111.5522635166342, 1111.9496095786394, 1112.342736619623, 1112.731791868236, 1113.116786295844, 1113.5058903847305, 1113.8990733442881, 1114.2799620036828]","[1105.8470113822611, 1105.9698772304168, 1106.1992092122666, 1106.3056979965224, 1106.776706870234, 1107.0757041935744, 1107.3582837527874, 1107.5016657010685, 1107.8784478844198, 1108.1610327523583, 1108.6361442090476, 1109.0006777472743, 1109.3651727087629, 1109.7829209102554, 1110.2170642253136, 1110.5692864754558, 1110.9460913093687, 1111.29423681233, 1111.6914940416636, 1112.0601227306527, 1112.4574139358288, 1112.8464911271733, 1113.2601572727592, 1113.6328503219033, 1114.0137421665333, 1114.394644274699]","[1105.3719466423552, 1105.7692028099436, 1106.1705590831052, 1106.5719139406067, 1106.9733126835713, 1107.3705854851662, 1107.7719537914386, 1108.173333776907, 1108.5419391075043, 1108.9392214648046, 1109.2914451306071, 1109.70920253389, 1110.0819093857203, 1110.4627973372849, 1110.8396209286943, 1111.2286843173529, 1111.5768319438039, 1111.9741012062486, 1112.367307170283, 1112.7563716206867, 1113.1413564925888, 1113.530510129579, 1113.923643894948, 1114.3004320948548]",5,R,ITM,1
6,600,trial,0,18,18,18,"['B', 'S', 'S', 'S', 'S', 'S', 'S', 'S', 'C', 'C', 'C', 'C', 'C', 'C', 'C', 'C', 'C', 'C', 'C', 'C', 'C', 'C', 'C', 'C']","[1127.0052418354458, 1127.4680225387244, 1128.1724500510877, 1128.7745125970744, 1129.3765613403752, 1129.9581619352357, 1130.5561353470155, 1131.1622863193793, 1131.7438561236324, 1132.3295370048243, 1132.8947566427196, 1133.4804035480688, 1134.0579348279637, 1134.6435980134042, 1135.2415625773083, 1135.8395250177223, 1136.4334011552494, 1137.0518375799008, 1137.6334427756565, 1138.22727007291, 1138.8252951562836, 1139.3986555476004, 1140.004805104304, 1140.602755865522]","[1127.2755270944956, 1127.8570830960628, 1128.442740618863, 1129.0530040838255, 1129.6345983082153, 1130.2284624126316, 1130.8223353649234, 1131.448963152845, 1132.0346659767683, 1132.5916546129108, 1133.169165365734, 1133.7507362317322, 1134.3159417130266, 1134.9056975718245, 1135.4995758328416, 1136.1098428369546, 1136.6995965722622, 1137.305790368344, 1137.920173404206, 1138.4976108966189, 1139.111953940083, 1139.730400274355, 1140.3324557420412]","[1127.013421873435, 1127.6154228382075, 1128.2134114683333, 1128.811368246107, 1129.413418405068, 1130.0113765985016, 1130.6134437453836, 1131.2155112461808, 1131.768423135142, 1132.354104724164, 1132.919305958478, 1133.5049712674086, 1134.0824685714608, 1134.6640550097202, 1135.2620195736245, 1135.8640906135718, 1136.4579554258182, 1137.0723200580987, 1137.657980766134, 1138.2477638763887, 1138.8498058953041, 1139.4232268060903, 1140.029373177559, 1140.6273306631624]",5,R,ITM,1
6,600,trial,0,19,19,19,"['B', 'S', 'S', 'S', 'S', 'S', 'S', 'S', 'S', 'C', 'C', 'C', 'C', 'C', 'C', 'C', 'C', 'C', 'C', 'C', 'C', 'C', 'C', 'C', 'C', 'C', 'C']","[1146.2466196691107, 1146.7544452612017, 1147.3729018590095, 1147.9750252783806, 1148.548350278195, 1149.1832150844245, 1149.7524782014889, 1150.3955021647212, 1150.5060733587986, 1150.9524908008636, 1151.525996651256, 1152.1402508620486, 1152.7505072487106, 1153.340270893639, 1153.9505244489808, 1154.0733998528422, 1154.5484851198196, 1155.1587400908218, 1155.723932123345, 1156.3833370435425, 1156.9526567870107, 1157.546521599257, 1158.0953641732526, 1158.218198169056, 1158.7219724958477, 1159.3240339800896, 1159.8892415848738]","[1146.4268307227971, 1147.0247690969893, 1147.6513901605251, 1148.24936392622, 1148.859645440849, 1149.4494112092675, 1150.047367279211, 1150.4077731064926, 1150.6576155258274, 1151.2064312022812, 1151.8003137102787, 1152.3941732137996, 1152.9716652091265, 1153.5860344423024, 1153.9751307450583, 1154.1921613484446, 1154.802420566427, 1155.4454381591888, 1156.0597932357637, 1156.6618667531163, 1157.247506580165, 1157.8618828916415, 1158.1239902361922, 1158.4148411434712, 1159.0209553086722, 1159.5984593371102]","[1146.25480253842, 1146.85683712512, 1147.4548254013307, 1148.056879099442, 1148.6548602973523, 1149.2569309833848, 1149.8548615714465, 1150.4569927769483, 1150.9770563967134, 1151.5504482864674, 1152.1648058404473, 1152.7750739063054, 1153.3648329503383, 1153.9750918144055, 1154.5730567322248, 1155.1833063945012, 1155.7485047974951, 1156.407915734248, 1156.9772365394613, 1157.5710804707212, 1158.1198890688743, 1158.7465582648538, 1159.348599575939, 1159.913800456338]",5,R,ITM,1
3,600,trial,0,20,20,20,"['B', 'S', 'S', 'S', 'S', 'S', 'S', 'S', 'S', 'S', 'S', 'C', 'C', 'C', 'C', 'C', 'C', 'C', 'C', 'C', 'C', 'C', 'C', 'C', 'C', 'C', 'C', 'C', 'C', 'C', 'C', 'C', 'C', 'C', 'C', 'C', 'C', 'C', 'C', 'C']","[1165.488015198527, 1166.0286380960504, 1166.6388909435623, 1167.2368335647348, 1167.8594012394813, 1168.469722038678, 1168.5884039033997, 1169.0143728431092, 1169.1372397530097, 1169.5959447708524, 1169.7147147604155, 1170.2102924152116, 1170.3331763130336, 1170.7836981076518, 1171.3775469937218, 1171.5045104700453, 1171.9714323330397, 1172.0942868559146, 1172.5734906320463, 1172.6963628506724, 1173.1796635471417, 1173.302510991716, 1173.7489563930678, 1173.871815516838, 1174.314158689127, 1174.4370125041717, 1174.8916322808727, 1175.0145706816086, 1175.4895968447768, 1175.6124655242525, 1176.0916597446785, 1176.7100947536699, 1176.8329790054067, 1177.3285605532683, 1177.4514416197699, 1177.9101346045018, 1178.4876358016193, 1178.6105090819904, 1179.0405448592603, 1179.1634149543963]","[1165.6887221791822, 1166.2538805897782, 1166.8723354180108, 1167.4375285122792, 1168.0354909526932, 1168.4901199311848, 1168.6293685058804, 1169.0389246362727, 1169.2518993734643, 1169.6123289130526, 1169.8334889969587, 1170.2349263166611, 1170.4191677546605, 1171.0089551118956, 1171.4062247282552, 1171.5823328450485, 1171.9960520778882, 1172.1843989301856, 1172.5980710923268, 1172.7741731925648, 1173.2042429456772, 1173.318903981792, 1173.7736313486605, 1173.892284546265, 1174.3387101283756, 1174.502581633155, 1174.916237515205, 1175.0636452469034, 1175.5142162357101, 1175.6288340941917, 1176.1162741808018, 1176.7347410421453, 1176.8452602107138, 1177.3531233177976, 1177.504659468271, 1178.0698546860297, 1178.512231480246, 1178.6145840595964, 1179.0651702667492, 1179.1961510325293]","[1165.4961966521762, 1166.0982379632615, 1166.6962520752693, 1167.2982654270675, 1167.8962306988017, 1168.4982907673834, 1169.0962663026532, 1169.6983341573655, 1170.2348721676624, 1170.8082658269914, 1171.4021242687672, 1171.9959996984644, 1172.5939667397738, 1173.2042171098803, 1173.7735800309817, 1174.3346064836526, 1174.916196461062, 1175.514170226757, 1176.1162310031687, 1176.7346900783816, 1177.3490653281128, 1177.9347009081814, 1178.512190426103, 1179.0651306282664]",5,R,ITM,1
5,400,trial,0,21,21,21,"['B', 'S', 'S', 'S', 'S', 'S', 'S', 'S', 'C', 'C', 'C', 'C', 'C', 'C', 'C', 'C', 'C', 'C', 'C', 'C', 'C', 'C', 'C', 'C']","[1184.775330848614, 1185.3232543052877, 1185.6017836609465, 1185.9621955047837, 1186.3635616875658, 1186.7690711535543, 1187.1417528774177, 1187.5554979460542, 1187.9567972388966, 1188.329506568132, 1188.7349806426178, 1189.1363372696942, 1189.5336274131253, 1189.9349734227512, 1190.3568422568878, 1190.7459120160167, 1191.1350111500929, 1191.5077116314528, 1191.8886611642317, 1192.2818044853068, 1192.646307940756, 1193.023125161695, 1193.3876402963401, 1193.8095055913266]","[1185.0324837367198, 1185.3806090665244, 1185.6877797034688, 1186.056410869863, 1186.4987236054599, 1186.8837144939175, 1187.2851026194312, 1187.6496078444557, 1188.0715000369842, 1188.4564604887496, 1188.808673183186, 1189.27558726005, 1189.6441929445623, 1190.0209899923448, 1190.4551241056124, 1190.8646929769457, 1191.2374058453313, 1191.5937320941116, 1191.995098276894, 1192.3800902270966, 1192.7609859647919, 1193.10502923869, 1193.4859203754897, 1193.8709158648426]","[1184.7867775222905, 1185.1840227185132, 1185.585408720537, 1185.986769948509, 1186.3840625693451, 1186.7854422008984, 1187.1868048445303, 1187.5881706733976, 1187.9772620213432, 1188.3540544682303, 1188.7595327896963, 1189.156803467801, 1189.5581901776548, 1189.9554813828308, 1190.3814103301424, 1190.7704825666767, 1191.1596032895693, 1191.5322906760732, 1191.9131757963175, 1192.3022742225637, 1192.6667950198494, 1193.0476946506099, 1193.412263580339, 1193.834044643549]",5,R,ITM,1
4,400,trial,0,22,22,22,"['B', 'S', 'S', 'S', 'S', 'S', 'S', 'S', 'C', 'C', 'C', 'C', 'C', 'C', 'C', 'C', 'C', 'C', 'C', 'C', 'C', 'C', 'C', 'C']","[1199.326366634024, 1199.8628529727268, 1200.1864088136167, 1200.514157131901, 1200.8499722353663, 1201.2840458291646, 1201.7100444977361, 1202.078627885602, 1202.4595186684867, 1202.8691123138717, 1203.241792622075, 1203.618610196929, 1204.0241359430083, 1204.417248473476, 1204.8145379090772, 1205.187239098267, 1205.572223262339, 1205.9490634877548, 1206.3503995877597, 1206.7681686702385, 1207.165434747448, 1207.5340524650712, 1207.9190345056534, 1208.3122280826617]","[1199.4983534103428, 1199.9120280498894, 1200.2355633637076, 1200.5591397316687, 1200.936019241652, 1201.3373634817028, 1201.726381569238, 1202.0908998891184, 1202.5004832709676, 1202.893700560283, 1203.2868247699464, 1203.6841244690831, 1204.0772978729353, 1204.45818511667, 1204.8513659527375, 1205.240456238938, 1205.6172769990271, 1206.0268501173405, 1206.4036319467768, 1206.7927431139638, 1207.1900849289887, 1207.5586527445932, 1207.9436404478158, 1208.3408838744635]","[1199.3345604746992, 1199.735935505357, 1200.13318282507, 1200.5345617487933, 1200.9359735866137, 1201.337311456194, 1201.7345651463775, 1202.1359539797213, 1202.4841185940938, 1202.89366233746, 1203.2663578640095, 1203.6431428786811, 1204.04453135811, 1204.4418161928158, 1204.8390868709205, 1205.211797261901, 1205.5967920434239, 1205.9735855520562, 1206.3749619983741, 1206.7927126772715, 1207.190033257395, 1207.5586123982805, 1207.9436057641433, 1208.3367961559165]",5,R,ITM,1
2,400,trial,0,23,23,23,"['S', 'S', 'S', 'S', 'S', 'S', 'S', 'S', 'C', 'C', 'C', 'C', 'C', 'C', 'C', 'C', 'C', 'C', 'C', 'C', 'C', 'C', 'C', 'C']","[1214.209966813388, 1214.5294122851692, 1214.820193825103, 1215.1888306541375, 1215.598404480281, 1215.9465361805562, 1216.3642889829437, 1216.7697478390833, 1217.2080047084855, 1217.576651801056, 1217.9779818845054, 1218.346574120247, 1218.7807227440305, 1219.1493372764187, 1219.5670759222053, 1219.9398372769494, 1220.3165876079486, 1220.6852269143883, 1221.0783886390445, 1221.475641621398, 1221.8729335344042, 1222.2538289181844, 1222.6429195582998, 1223.0402043930058]","[1214.2263413998826, 1214.5744727462425, 1214.902115243934, 1215.2461719666032, 1215.6106842699282, 1216.0202269515494, 1216.3806416267066, 1216.8270831349935, 1217.2326124202232, 1217.617548451852, 1218.018912157229, 1218.3712041286312, 1218.8217007952824, 1219.2107748013918, 1219.6080638830779, 1219.980769673163, 1220.3412133693525, 1220.7507489726731, 1221.1357193340593, 1221.52481174375, 1221.897501961574, 1222.3029763899747, 1222.692065968345, 1223.0647703427703]","[1214.0051951186624, 1214.406592445967, 1214.803827732569, 1215.2051871909657, 1215.6066110618972, 1216.0038909417926, 1216.4052199634973, 1216.8066448961738, 1217.232555793819, 1217.6011774045076, 1218.0025425255446, 1218.3711687371285, 1218.8011885882224, 1219.169839573858, 1219.5916500120154, 1219.960273038364, 1220.341167006484, 1220.7098048972637, 1221.098878549458, 1221.4961393179422, 1221.8934213213277, 1222.2783913287988, 1222.6674844463193, 1223.0606691754524]",5,R,ITM,1
2,400,trial,0,24,24,24,"['B', 'S', 'S', 'S', 'S', 'S', 'S', 'S', 'C', 'C', 'C', 'C', 'C', 'C', 'C', 'C', 'C', 'C', 'C', 'C', 'C', 'C', 'C', 'C']","[1228.4183544579314, 1228.8314596482014, 1229.1796242625737, 1229.5686791572716, 1229.9741652648681, 1230.379668714301, 1230.772826191977, 1231.1455114549906, 1231.5509858833914, 1231.9523665766897, 1232.300486597769, 1232.7059688123002, 1233.0786657545098, 1233.4800351225272, 1233.8691356722634, 1234.25824046898, 1234.6554909739282, 1235.0323004087365, 1235.4131823437456, 1235.7736030354583, 1236.1708822075238, 1236.5517779452189, 1236.9204593675468, 1237.3463472607154]","[1228.5898185017575, 1228.880598626031, 1229.2369280600467, 1229.5809539921083, 1229.9905232173567, 1230.3959983535874, 1230.8178647103189, 1231.1578008003435, 1231.6328973926018, 1231.9769870293683, 1232.366011487374, 1232.7305333464046, 1233.1401131891034, 1233.5291829482326, 1233.9223542285945, 1234.2828499502925, 1234.6801383241486, 1235.0773736107508, 1235.4378105825547, 1235.8145701153444, 1236.1955008906273, 1236.5763615907347, 1236.9450132842005, 1237.3709082556695]","[1228.430120009046, 1228.827365913099, 1229.2287359889465, 1229.6301552589825, 1230.031495252053, 1230.4287669919029, 1230.8301795375535, 1231.231507497513, 1231.5755486479206, 1231.9769473908852, 1232.3209648289865, 1232.7264353643218, 1233.1032819602078, 1233.5046088584222, 1233.8936786175514, 1234.2828035874243, 1234.6800855908098, 1235.0568691898213, 1235.4377663431765, 1235.7981679234779, 1236.1954492190334, 1236.5722505137962, 1236.9449732918026, 1237.3668311545734]",5,R,ITM,1
2,600,trial,0,25,25,25,"['S', 'S', 'S', 'S', 'S', 'S', 'S', 'S', 'S', 'S', 'S', 'C', 'C', 'C', 'C', 'C', 'C', 'C', 'C', 'C', 'C', 'C', 'C', 'C', 'C', 'C', 'C', 'C', 'C', 'C', 'C', 'C', 'C', 'C']","[1243.0434384685107, 1243.4120186711411, 1243.8543416702737, 1244.4728173794929, 1244.583427504223, 1245.0830918158213, 1245.2018363235024, 1245.746535614292, 1245.861212930498, 1246.2380113939403, 1246.8237255431445, 1247.409403239101, 1247.9377286512263, 1248.060582820186, 1248.5193681767396, 1249.076358582457, 1249.1991586024178, 1249.6374098091796, 1250.2272091995255, 1250.3500661998055, 1250.80060675192, 1251.382159568252, 1251.951476126485, 1252.5330554864438, 1253.1105202303138, 1253.6716542731524, 1253.7945112734324, 1254.2204667643707, 1254.3433096080498, 1254.7733846698875, 1254.8962526415332, 1255.3672608074146, 1255.4942518891098, 1255.9447351069903]","[1243.0925501948834, 1243.428439620504, 1244.0263542823895, 1244.4850823047088, 1244.6653060993362, 1245.0994203933624, 1245.3001248966125, 1245.7629250652176, 1245.8694000467876, 1246.451001349478, 1247.0776199356087, 1247.601886296304, 1247.9623278690033, 1248.1097281684863, 1248.6872215794733, 1249.1008767536932, 1249.2319615704907, 1249.8094256065308, 1250.2518413314, 1250.4073862773696, 1251.021749847905, 1251.5951289967181, 1252.1603323545223, 1252.7173595674026, 1253.2907334074903, 1253.6962977303076, 1253.8395582857347, 1254.2451144685062, 1254.412940619783, 1254.7980001677556, 1255.027310206874, 1255.3918724122175, 1255.5515348055962, 1256.1331477874826]","[1242.7116976348213, 1243.3137078013842, 1243.9116865218896, 1244.5137264173147, 1245.1117178787608, 1245.7138023674793, 1246.311761622658, 1246.9138107198737, 1247.433944060899, 1247.9622878766054, 1248.5397731475468, 1249.0967904508063, 1249.6619955781857, 1250.2517825815057, 1250.8210605630009, 1251.4067290571668, 1251.9760505702102, 1252.5535340715765, 1253.1351258185612, 1253.6962708327655, 1254.2450327141355, 1254.7979562822925, 1255.391821802369, 1255.96524306707]",5,R,ITM,1
5,400,trial,0,26,26,26,"['B', 'S', 'S', 'S', 'S', 'S', 'S', 'S', 'C', 'C', 'C', 'C', 'C', 'C', 'C', 'C', 'C', 'C', 'C', 'C', 'C', 'C', 'C', 'C']","[1261.6172642580862, 1262.1005051429163, 1262.3872042730284, 1262.7394743016991, 1263.1531344307296, 1263.5545083996424, 1263.964046480368, 1264.381787957475, 1264.7872595545555, 1265.1804718890603, 1265.5695596978558, 1265.9545381992875, 1266.3108315339703, 1266.6712585961536, 1267.076759214266, 1267.4535413976175, 1267.8221676092014, 1268.203058038171, 1268.5798536702935, 1268.9402672837057, 1269.3416175403117, 1269.7061542637737, 1270.0993304989458, 1270.4802081869748]","[1261.8998317841883, 1262.1169048573774, 1262.448633657956, 1262.800854846353, 1263.1653830758542, 1263.5545384824195, 1263.9763163603945, 1264.3899899381959, 1264.8118463853066, 1265.2051284410716, 1265.594150421672, 1265.979159005881, 1266.3354583571195, 1266.6958776331721, 1267.0972565568952, 1267.4944943209025, 1267.8467710739587, 1268.2317088751624, 1268.6167245376719, 1268.9648870285541, 1269.3743780385817, 1269.7634785883179, 1270.1402954553419, 1270.5211699581355]","[1261.6254354481998, 1262.026776503015, 1262.4241353059613, 1262.8255029044037, 1263.226802905076, 1263.624118176474, 1264.025507363733, 1264.4268285993069, 1264.81182338083, 1265.205092695654, 1265.5941100753591, 1265.979104502967, 1266.3354321674074, 1266.6958202989379, 1267.0972176262424, 1267.478105931722, 1267.846719402365, 1268.2276225722755, 1268.6044245748685, 1268.9648342952155, 1269.3661962310173, 1269.730771531217, 1270.1197977587976, 1270.500695973898]",5,R,ITM,1
6,400,trial,0,27,27,27,"['B', 'S', 'S', 'S', 'S', 'S', 'S', 'S', 'C', 'C', 'C', 'C', 'C', 'C', 'C', 'C', 'C', 'C', 'C', 'C', 'C', 'C', 'C', 'C']","[1276.1159379615274, 1276.484465430819, 1276.861268141242, 1277.2503630283377, 1277.6517554008317, 1278.0490391737924, 1278.4503791668628, 1278.8476618780785, 1279.2490669915135, 1279.593061071223, 1279.9985443474993, 1280.375345288347, 1280.7685250626696, 1281.1453252956871, 1281.5385047160946, 1281.8866314615593, 1282.2757302417203, 1282.6566185472, 1283.041613328723, 1283.4225395031103, 1283.8075024322811, 1284.176117672499, 1284.5611283801982, 1284.9215427014406]","[1276.255090979166, 1276.5009037220182, 1276.930884996374, 1277.2626247683183, 1277.664039791374, 1278.0653695209087, 1278.4667537533574, 1278.8640155835865, 1279.2981599603897, 1279.6176549802744, 1280.0272114645818, 1280.4040003723187, 1280.79317453638, 1281.1698724879554, 1281.5630734971794, 1281.9112993388514, 1282.3003620196798, 1282.6812400616236, 1283.0662429831923, 1283.447119609476, 1283.8525359958126, 1284.2047716947257, 1284.5856851281721, 1284.9706554895583]","[1276.1281774048614, 1276.525404197503, 1276.9267891377815, 1277.3281790328706, 1277.7254228134334, 1278.1268721662466, 1278.5281785373895, 1278.9254626642653, 1279.2735922410502, 1279.6176319757978, 1280.0231212686297, 1280.39988787972, 1280.7930991524797, 1281.1658222844012, 1281.5589726837766, 1281.9112451898525, 1282.300310348086, 1282.6812011309707, 1283.066184233298, 1283.447079263163, 1283.832071213366, 1284.2006868074989, 1284.5815867921744, 1284.9461029885647]",5,R,ITM,1
6,400,trial,0,28,28,28,"['S', 'S', 'S', 'S', 'S', 'S', 'S', 'S', 'C', 'C', 'C', 'C', 'C', 'C', 'C', 'C', 'C', 'C', 'C', 'C', 'C', 'C', 'C', 'C']","[1290.4752215242625, 1290.7414491475427, 1291.0609172698853, 1291.470479416833, 1291.855474906186, 1292.224090500319, 1292.6336820222139, 1293.0268780766276, 1293.40367583224, 1293.7804424433302, 1294.153141862945, 1294.5299417420476, 1294.927221975858, 1295.3122008312048, 1295.6890049572878, 1296.0494256490006, 1296.4262354377238, 1296.803016913245, 1297.171645602234, 1297.5525523112951, 1297.9498629817979, 1298.322582928484, 1298.6911178299913, 1299.0392481146062]","[1290.4793223376653, 1290.7537154884187, 1291.11005660163, 1291.4827623917154, 1291.8677490331927, 1292.2404495145524, 1292.6951096375662, 1293.0841574539636, 1293.4855363776867, 1293.805065019499, 1294.181789868616, 1294.5545427293998, 1294.9518279180206, 1295.336858091046, 1295.7136377969923, 1296.0985780756012, 1296.4753563658874, 1296.8276465677143, 1297.2002978548855, 1297.5975798582713, 1297.974435655948, 1298.3471478165036, 1298.7156905041413, 1299.0802176718973]","[1290.3278293648252, 1290.7250575731268, 1291.126449945621, 1291.5278083422727, 1291.925089637828, 1292.3264887347077, 1292.7278612879604, 1293.1251344434704, 1293.4240917744132, 1293.8050087470099, 1294.177725154546, 1294.5545006135117, 1294.9517861560475, 1295.3368004028969, 1295.7135864793136, 1296.0740011544708, 1296.4508396103113, 1296.8275959578657, 1297.196214029404, 1297.5771133062494, 1297.974383984354, 1298.3470947292496, 1298.7115882750784, 1299.0638232661615]",5,R,ITM,1
7,400,trial,0,29,29,29,"['S', 'S', 'S', 'S', 'S', 'S', 'S', 'S', 'C', 'C', 'C', 'C', 'C', 'C', 'C', 'C', 'C', 'C', 'C', 'C', 'C', 'C', 'C', 'C']","[1304.7608847450945, 1305.0394335660797, 1305.2769657590752, 1305.6250705618083, 1306.0182701553722, 1306.4564888019515, 1306.821017385368, 1307.267437658753, 1307.6401476958185, 1308.0169436818558, 1308.4265238784699, 1308.7705657367078, 1309.2005972669974, 1309.5896794131522, 1309.9541987947778, 1310.3596643753028, 1310.7446552637605, 1311.1460271091833, 1311.5269433739497, 1311.9160081782684, 1312.3337701824466, 1312.694183441944, 1313.070988275857, 1313.455997567896]","[1304.7609141200417, 1305.080350390032, 1305.33842876593, 1305.6374257353557, 1306.0305410971437, 1306.4605924466748, 1306.8824343832694, 1307.2797057692042, 1307.6851819671801, 1308.0456150459188, 1308.4511333597825, 1308.8278720115857, 1309.2251964847744, 1309.6142715526287, 1309.9788185396262, 1310.4128949647447, 1310.7692831486545, 1311.170650747097, 1311.5678874493592, 1311.944688390207, 1312.3624546413655, 1312.718825483439, 1313.0956211155615, 1313.4846349561162]","[1304.4906122269856, 1304.8919600061865, 1305.289213342455, 1305.690618101975, 1306.0919736673063, 1306.4892358514505, 1306.8906391953105, 1307.2919979458773, 1307.6647104603478, 1308.041519541241, 1308.4510763794635, 1308.7992112649738, 1309.2251554306315, 1309.614247132492, 1309.9787672219475, 1310.3842366955378, 1310.769232538806, 1311.1705923511176, 1311.551490212303, 1311.9405854533138, 1312.3583435644268, 1312.7187745196754, 1313.0955630734973, 1313.4805613941703]",5,R,ITM,1
5,400,trial,0,30,30,30,"['S', 'S', 'S', 'S', 'S', 'S', 'S', 'S', 'C', 'C', 'C', 'C', 'C', 'C', 'C', 'C', 'C', 'C', 'C', 'C', 'C', 'C', 'C', 'C', 'C']","[1330.5226181784205, 1330.9116762583537, 1331.2762282001615, 1331.7021490074276, 1332.0871292784345, 1332.500803210151, 1332.8816918695454, 1333.0004799087749, 1333.3117205685148, 1333.4346108368072, 1333.7090266381222, 1334.0980974589963, 1334.4585503569765, 1334.8394209667047, 1335.2244224726132, 1335.6053401530398, 1335.998486305435, 1336.375292201093, 1336.7439265527225, 1337.1329980814266, 1337.5057021019368, 1337.8947792932813, 1338.28797640944, 1338.6729485404014, 1339.0538959496903]","[1330.5226659569491, 1330.9608173596737, 1331.2762710238796, 1331.7144181796239, 1332.0994115454866, 1332.5171647017894, 1332.9021591293974, 1333.0332513784106, 1333.3363190784619, 1333.4387056336548, 1333.733651337781, 1334.1226871210677, 1334.4831255085317, 1334.8640194766517, 1335.2490149660048, 1335.629981486705, 1336.0231110050938, 1336.399957954895, 1336.7685438201659, 1337.1575583685508, 1337.5671148528581, 1337.9521089265509, 1338.3412112458623, 1338.738510237169, 1339.1398746503762]","[1330.174504527812, 1330.575827532961, 1330.9731113059217, 1331.3744622703578, 1331.7758666759628, 1332.1772643571824, 1332.57450636817, 1332.9758881232133, 1333.332204816288, 1333.7335986044422, 1334.1226641165908, 1334.4830858700489, 1334.8639954104299, 1335.248963648326, 1335.629924152471, 1336.02305791784, 1336.3999243329674, 1336.7684978112125, 1337.153472773494, 1337.5261583904228, 1337.9152444296428, 1338.3125434209496, 1338.6975321859172, 1339.0784173061616]",5,R,ITM,1
4,600,trial,0,31,31,31,"['S', 'S', 'S', 'S', 'S', 'S', 'S', 'S', 'S', 'S', 'C', 'C', 'C', 'C', 'C', 'C', 'C', 'C', 'C', 'C', 'C', 'C', 'C', 'C', 'C', 'C', 'C', 'C', 'C', 'C', 'C', 'C', 'C', 'C']","[1344.8328119575147, 1345.0990505521606, 1345.778937950556, 1346.3932710843992, 1347.0117581188993, 1347.642452390466, 1347.757162266854, 1348.1667442330431, 1348.2813461653484, 1348.781044806704, 1349.374962706204, 1349.5018755726787, 1349.919635807282, 1350.4643573947183, 1351.0213885006638, 1351.586575932292, 1351.7053261026135, 1352.172249381268, 1352.7292631453772, 1352.8521282857027, 1353.2781170446538, 1353.4009319290458, 1353.8351318705081, 1353.9579566645207, 1354.404404897193, 1354.5272562348325, 1354.9613938872506, 1355.506117244262, 1356.034454335583, 1356.157296471432, 1356.5832788599123, 1357.1648486641654, 1357.2877077879355, 1357.7013912753575]","[1344.8778674637776, 1345.152274063302, 1345.889503481993, 1346.62261580719, 1347.2410578944816, 1347.6588170673397, 1347.8390755456396, 1348.1830710410093, 1348.42473802325, 1349.03496538888, 1349.3995364420994, 1349.579694762447, 1350.1449009515713, 1350.6732461829379, 1351.2138666030564, 1351.6111443594616, 1351.7872429205493, 1352.3688261735733, 1352.7538581161741, 1352.884892323123, 1353.302690780549, 1353.4705540929035, 1353.8555909903143, 1354.027640409593, 1354.4290076541204, 1354.5681981867517, 1355.1866537228145, 1355.6904213252208, 1356.059039750674, 1356.2351754728393, 1356.7757789050365, 1357.1894071817144, 1357.3368626919414, 1357.9348509681522]","[1344.6526699172582, 1345.25466380373, 1345.8526304911243, 1346.4547694827568, 1347.0526572471003, 1347.6547357192633, 1348.2527321355196, 1348.8547812327356, 1349.3994960957864, 1349.9441883082757, 1350.4889488263648, 1351.0459119806253, 1351.6070400069084, 1352.1927244272504, 1352.7538347577822, 1353.302651142066, 1353.8555520596615, 1354.4289687234675, 1354.9818508835665, 1355.5306739922357, 1356.059012499217, 1356.607845871422, 1357.1853031830763, 1357.7218769387907]",5,R,ITM,1
3,400,trial,0,32,32,32,"['S', 'S', 'S', 'S', 'S', 'S', 'S', 'C', 'C', 'C', 'C', 'C', 'C', 'C', 'C', 'C', 'C', 'C', 'C', 'C', 'C', 'C', 'C']","[1363.734283076102, 1364.0660529308234, 1364.4223646690878, 1364.8155582460963, 1365.233298307543, 1365.6182902577457, 1366.0524611781761, 1366.4538071878019, 1366.826512977887, 1367.2320008550587, 1367.6087879932204, 1367.985599905434, 1368.366479009123, 1368.747399166955, 1369.1324056276735, 1369.5009890155393, 1369.8859809657422, 1370.2750680667073, 1370.6723695354192, 1371.0368733447838, 1371.4382285562, 1371.8232190907427, 1372.2205021558734]","[1363.8079933124218, 1364.0824862672123, 1364.4756391439928, 1364.8770304547418, 1365.249679618423, 1365.675653159028, 1366.0647250416469, 1366.474346646319, 1366.8756484165665, 1367.2729378521676, 1367.6661123177648, 1368.0470285825313, 1368.3910998157164, 1368.7720036934572, 1369.156982194889, 1369.5256154847734, 1369.9106053114858, 1370.2996241068513, 1370.696966275791, 1371.0614810565212, 1371.4791864342956, 1371.8478664409633, 1372.2696421954481]","[1363.275626190703, 1363.6769502575971, 1364.0742304914074, 1364.475615431686, 1364.8769791370632, 1365.2742540621482, 1365.675626615401, 1366.076975810262, 1366.4742956825553, 1366.8510760963313, 1367.2565441542617, 1367.6334144624543, 1368.0101637317084, 1368.391054160678, 1368.7719474209682, 1369.1569315850402, 1369.5255609818594, 1369.9105536398922, 1370.295546297925, 1370.6969149581123, 1371.0614403562934, 1371.462813617376, 1371.8478222015851, 1372.2450645664878]",5,R,ITM,1
6,400,trial,0,33,33,33,"['S', 'S', 'S', 'S', 'S', 'S', 'S', 'C', 'C', 'C', 'C', 'C', 'C', 'C', 'C', 'C', 'C', 'C', 'C', 'C', 'C', 'C', 'C']","[1378.1264524230262, 1378.5769851890102, 1378.9783219968451, 1379.4042721790584, 1379.7892751006268, 1380.1906444686445, 1380.612524628062, 1381.0343559472058, 1381.415249207496, 1381.7920497944285, 1382.1647665558794, 1382.5579342970912, 1382.9429619927114, 1383.3156359304444, 1383.6760513134318, 1384.1020209609712, 1384.478820840074, 1384.8637926171202, 1385.228341373693, 1385.6174249355079, 1386.0064872624212, 1386.370995672681, 1386.7314439697657]","[1378.1632900223922, 1378.5933427875834, 1378.9906148813482, 1379.4165509069603, 1379.8056503949515, 1380.2029246122065, 1380.6288811648901, 1381.0957973652442, 1381.4889750160767, 1381.8821873505815, 1382.2343855345018, 1382.6070807071364, 1382.9716053974873, 1383.3811456017033, 1383.770279773367, 1384.1266297344541, 1384.5238423704945, 1384.92112225039, 1385.2897268731572, 1385.6706424300937, 1386.0311579710335, 1386.395581441687, 1386.7560407101375]","[1377.8684080229705, 1378.2697837614585, 1378.6670841684254, 1379.0684319476263, 1379.4698218427152, 1379.8712113838892, 1380.2684618888375, 1380.66983161077, 1381.0589190656501, 1381.4398197581556, 1381.816615744193, 1382.189332151729, 1382.5825059094961, 1382.9675035223393, 1383.3402107280847, 1383.7006208023465, 1384.1265893881412, 1384.5033744028126, 1384.8842924371545, 1385.2528829033206, 1385.6419820373967, 1386.0311066533548, 1386.391466117768, 1386.755989038544]",5,R,ITM,1
2,400,trial,0,34,34,34,"['S', 'S', 'S', 'S', 'S', 'S', 'S', 'S', 'S', 'S', 'C', 'C', 'C', 'C', 'C', 'C', 'C', 'C', 'C', 'C', 'C', 'C', 'C', 'C', 'C', 'C']","[1392.4448428741157, 1392.9200031710786, 1393.3172303176352, 1393.4278209770391, 1393.751380710994, 1393.8619816339337, 1394.1855130546867, 1394.2961083149858, 1394.5991721219718, 1394.9964696976185, 1395.3937853229315, 1395.7664688163702, 1396.1473528748695, 1396.5651127555577, 1396.9459876122662, 1397.335095240303, 1397.7159849614427, 1398.100983989946, 1398.4859614296327, 1398.8545625132497, 1399.2477628146437, 1399.6163780548618, 1399.997259635956, 1400.3658819544744, 1400.7344869311569, 1401.1112737154035]","[1392.4571336351285, 1392.9322528779485, 1393.3295104611973, 1393.4564842010564, 1393.7595540245977, 1393.878340648167, 1394.1937461799298, 1394.3206862978614, 1394.6115053527878, 1395.012898787027, 1395.4633497986401, 1395.8524390230955, 1396.1719276725096, 1396.5897116194196, 1397.0279260190187, 1397.3801305734096, 1397.7774175316056, 1398.1255867468733, 1398.5105893145267, 1398.8873368142056, 1399.2723822055773, 1399.6409645316978, 1400.021930344568, 1400.3904981601727, 1400.7631590030496, 1401.1726956681155]","[1392.2114284824443, 1392.608698452719, 1393.0100575572005, 1393.4114301104532, 1393.8087262704398, 1394.2100712183205, 1394.6114572203444, 1395.0128488850085, 1395.414221084346, 1395.7909940659067, 1396.1677960684995, 1396.5896719809368, 1396.9705698421221, 1397.3555554218544, 1397.7405434789919, 1398.1255354291945, 1398.510538350763, 1398.8791295247593, 1399.2723330113886, 1399.6368959245624, 1400.0218769033993, 1400.390447196409, 1400.7590539426665, 1401.1358619618147]",5,R,ITM,1
3,600,trial,0,35,35,35,"['S', 'S', 'S', 'S', 'S', 'S', 'S', 'S', 'S', 'S', 'S', 'S', 'C', 'C', 'C', 'C', 'C', 'C', 'C', 'C', 'C', 'C', 'C', 'C', 'C', 'C', 'C', 'C', 'C', 'C']","[1406.685456251325, 1406.9230153418625, 1407.6151874847153, 1407.7257501848321, 1408.2090809640788, 1408.8479750928761, 1408.9585491182738, 1409.4500486102288, 1409.5606116642607, 1410.0152501984578, 1410.12581749947, 1410.6050000407001, 1411.2521205703554, 1411.7804870366235, 1412.3211085184869, 1412.8740257161735, 1413.4351116265686, 1413.9962378832768, 1414.5737036888918, 1415.1716799319918, 1415.7819242855428, 1416.384003819451, 1416.9451123804076, 1417.5636287898549, 1418.1164667105757, 1418.685774067018, 1418.8086009845208, 1419.2591716194124, 1419.3820119856862, 1419.8817215984077]","[1406.6977668315792, 1406.9721610440777, 1407.6233799097304, 1407.8158619051883, 1408.4507344975486, 1408.8561466369047, 1409.0568624654359, 1409.4623468034572, 1409.6302476308044, 1410.0275239715495, 1410.1667633444545, 1410.6173056661441, 1411.2767611961904, 1411.833724704366, 1412.374329198308, 1412.9559099739272, 1413.5907386808242, 1414.184649855939, 1414.7538924459316, 1415.3109200127267, 1415.8065840227894, 1416.50684949445, 1416.969730709596, 1417.6618242833133, 1418.2393194638753, 1418.7103506342335, 1418.837277303394, 1419.283789594686, 1419.427064306714, 1419.9063105526488]","[1406.46843980454, 1407.0704563415734, 1407.6684325846734, 1408.2704848671244, 1408.8725424583008, 1409.4705045447997, 1410.0725755847473, 1410.670547934782, 1411.276702446296, 1411.8050285662514, 1412.3456758839116, 1412.8985824641475, 1413.4596835928887, 1414.020787199035, 1414.5982692847413, 1415.1962250007698, 1415.8065150093594, 1416.4086143625088, 1416.9696800997474, 1417.5881165243986, 1418.141030182935, 1418.7103244445216, 1419.283748540543, 1419.9062595888852]",5,R,ITM,1
4,600,trial,0,36,36,36,"['S', 'S', 'S', 'S', 'S', 'S', 'S', 'C', 'C', 'C', 'C', 'C', 'C', 'C', 'C', 'C', 'C', 'C', 'C', 'C', 'C', 'C', 'C']","[1425.6770447529088, 1426.397880119779, 1427.0122337806938, 1427.6634430906408, 1428.2164370878882, 1428.8061299498113, 1429.4205009525622, 1430.0143944319257, 1430.542680205568, 1431.0956041276402, 1431.7509046952844, 1432.348887308855, 1432.9304638374936, 1433.5529971824824, 1434.1059090714439, 1434.687507188899, 1435.2854763536984, 1435.8547522117035, 1436.4568172350955, 1436.99745216573, 1437.5995125882266, 1438.1237701010464, 1438.7422666912519]","[1425.8162933276046, 1426.5985481697815, 1427.2129174029574, 1427.679867579154, 1428.2286248596286, 1428.8184100933734, 1429.4327665856083, 1430.075781700965, 1430.5836448080488, 1431.1488442727878, 1431.775496480846, 1432.3735059919584, 1432.955043236029, 1433.5775553461165, 1434.1305022726654, 1434.71209189616, 1435.3100833576061, 1435.924411890554, 1436.4814585687604, 1437.0547895851303, 1437.6241249008594, 1438.189287912351, 1438.766772121547]","[1425.2797974331959, 1425.8777159881467, 1426.479785258519, 1427.0777501763382, 1427.6798162614753, 1428.2777787018892, 1428.8798454948565, 1429.4819009625428, 1430.0348305472553, 1430.5672486327378, 1431.1201814026856, 1431.7754639206635, 1432.3734553821096, 1432.9550202315525, 1433.573457717949, 1434.1304778525287, 1434.712067476023, 1435.3100313320972, 1435.8793393963697, 1436.4814352103688, 1437.0220216546447, 1437.6240820771413, 1438.1483066758638, 1438.7626688307391]",5,R,ITM,1
6,600,trial,0,37,37,37,"['S', 'S', 'S', 'S', 'S', 'S', 'S', 'S', 'S', 'S', 'C', 'C', 'C', 'C', 'C', 'C', 'C', 'C', 'C', 'C', 'C', 'C', 'C', 'C', 'C', 'C', 'C', 'C', 'C', 'C']","[1444.8938757482206, 1445.4877497622576, 1445.6024292019536, 1446.097985975763, 1446.21267603291, 1446.7041404872773, 1447.28584265575, 1447.8386572180793, 1448.4489199752118, 1448.5676956274153, 1449.0919478315095, 1449.640731301696, 1449.763616261263, 1450.2510736897093, 1450.3738652157094, 1450.8530569587303, 1450.9800437934452, 1451.4960809219629, 1451.6189499553536, 1452.0653645660984, 1452.6428554996803, 1453.1998933300113, 1453.7691709575913, 1454.3671610033773, 1454.961016613833, 1455.538508255245, 1456.12423372973, 1456.6934777353827, 1457.2504741576556, 1457.8279788939235]","[1445.0290337730492, 1445.5000295519046, 1445.6843492051246, 1446.1143556074474, 1446.2495376984978, 1446.8311163506264, 1447.4167770586619, 1448.0434462546411, 1448.4652666024192, 1448.6045257945657, 1449.1165332466005, 1449.6653503387145, 1449.7963880848135, 1450.275629729853, 1450.4271074843473, 1450.881726199303, 1451.012786949879, 1451.520680493655, 1451.6476082245606, 1452.2620758461135, 1452.8272070052524, 1453.3718832915654, 1453.9371139008267, 1454.5309875609487, 1455.1166415445985, 1455.7268947460252, 1456.3207503564809, 1456.8941797612276, 1457.4921245058904, 1458.032762975675]","[1444.2836321024995, 1444.8856801379702, 1445.4836468253645, 1446.085717511397, 1446.6836746430856, 1447.2857534691636, 1447.883695382506, 1448.4857635911333, 1449.116497855098, 1449.6653266264077, 1450.2755844287299, 1450.8776204310898, 1451.5206451021522, 1452.08583041029, 1452.6674324208107, 1453.2244568023707, 1453.7937337221208, 1454.391701117345, 1454.9855815018525, 1455.5630777441597, 1456.1487490696459, 1456.7180213885006, 1457.2750553257663, 1457.852541658453]",5,R,ITM,1
2,400,trial,0,38,38,38,"['S', 'S', 'S', 'S', 'S', 'S', 'S', 'S', 'C', 'C', 'C', 'C', 'C', 'C', 'C', 'C', 'C', 'C', 'C', 'C', 'C', 'C', 'C', 'C']","[1463.7625753971722, 1464.086117789291, 1464.3810273940846, 1464.75373318417, 1465.1714704142964, 1465.5564690888848, 1465.9373779214359, 1466.3264597136756, 1466.7238004669555, 1467.1333151892898, 1467.5264797452662, 1467.9033160776164, 1468.3210632173636, 1468.689696153333, 1469.0787609576516, 1469.4760259731158, 1469.8528364696692, 1470.2296275008962, 1470.639203804445, 1471.0159990826523, 1471.388725753724, 1471.7941743463277, 1472.1832508298423, 1472.5723538569837]","[1463.7748597877146, 1464.1393830624054, 1464.4301684954046, 1464.8110433521133, 1465.1919666951803, 1465.5688026736157, 1465.9496513406125, 1466.338796129727, 1466.7646875620458, 1467.1579434280989, 1467.5511161241209, 1467.9401366890613, 1468.3578884297037, 1468.7306430600627, 1469.1647977004018, 1469.5702080701828, 1469.9265520147144, 1470.331998129913, 1470.7170159159127, 1471.089722059913, 1471.458309340844, 1471.8514784977156, 1472.232374589326, 1472.62557842987]","[1463.590610563585, 1463.9878426649518, 1464.38922123476, 1464.790569013961, 1465.1878637582874, 1465.589220739279, 1465.9906279762042, 1466.3919771710653, 1466.7483140372963, 1467.1578977730605, 1467.5510665760173, 1467.9278760108255, 1468.3456316445333, 1468.7142214028697, 1469.1033169977954, 1469.5005777662795, 1469.8773988802836, 1470.2541969898111, 1470.6638090387773, 1471.0405476905805, 1471.4132577276462, 1471.8147070804594, 1472.2037212749294, 1472.5928058984894]",5,R,ITM,1
6,400,trial,0,39,39,39,"['S', 'S', 'S', 'S', 'S', 'S', 'S', 'S', 'S', 'C', 'C', 'C', 'C', 'C', 'C', 'C', 'C', 'C', 'C', 'C', 'C', 'C', 'C', 'C', 'C']","[1478.5028608721104, 1478.8673646814748, 1479.2564599224854, 1479.641446563963, 1479.756173074357, 1480.038737769139, 1480.403234146288, 1480.5220108602364, 1480.7964171058456, 1481.1977875356083, 1481.6073634852419, 1482.0210289229976, 1482.4265376811559, 1482.8483332548822, 1483.208766687536, 1483.5773844051591, 1483.982846800449, 1484.367842997632, 1484.7569361151527, 1485.1501505731476, 1485.563770355865, 1485.940561387092, 1486.3255611234254, 1486.7023801139394, 1487.0791651286108]","[1478.5151279208164, 1478.9779595878588, 1479.272821414124, 1479.6578105330066, 1479.780701863044, 1480.051015435296, 1480.4196069632073, 1480.5342966664389, 1480.8127810748895, 1481.3329462682668, 1481.6360143222332, 1482.09064790162, 1482.48791964147, 1482.9015748156899, 1483.3029643568639, 1483.7084249825784, 1484.0893401856001, 1484.4865995384241, 1484.879800547648, 1485.2811812409464, 1485.5883996564194, 1486.0347477311393, 1486.391090967841, 1486.7801720522507, 1487.144690726046]","[1478.085138506415, 1478.4864685898644, 1478.8837505932502, 1479.2851132368821, 1479.6864875597098, 1480.0878848870143, 1480.4851860018114, 1480.8865532463387, 1481.222357024523, 1481.631937928967, 1482.0455938110172, 1482.4469702573351, 1482.872900974222, 1483.2333326373005, 1483.601955309734, 1484.0074283224747, 1484.3924100091417, 1484.7815084353877, 1485.1705909354575, 1485.5883469230805, 1485.961058021891, 1486.3501178713993, 1486.7269350923382, 1487.103739572336]",5,R,ITM,1
3,600,trial,0,40,40,40,"['B', 'S', 'S', 'S', 'S', 'S', 'S', 'S', 'S', 'S', 'S', 'S', 'S', 'C', 'C', 'C', 'C', 'C', 'C', 'C', 'C', 'C', 'C', 'C', 'C', 'C', 'C', 'C', 'C', 'C', 'C', 'C', 'C', 'C', 'C', 'C', 'C', 'C', 'C', 'C', 'C']","[1492.727111695936, 1493.1038949410324, 1493.2062790188202, 1493.8779580660243, 1494.4718359731264, 1495.0452222002402, 1495.163975555797, 1495.7128177758777, 1495.8233960482555, 1496.3066776333135, 1496.4213570730094, 1496.8473019464973, 1496.9578993302866, 1497.4452934079434, 1497.5681518238835, 1498.0391550349543, 1498.6412731456003, 1499.2146062854601, 1499.337463639655, 1499.8125577545084, 1500.3900504576652, 1500.5129428494477, 1500.959337287036, 1501.082235341459, 1501.5327458107963, 1501.6556084737167, 1502.1102289582475, 1502.2331040081938, 1502.6713269017534, 1502.7941987664647, 1503.220195665461, 1503.343054081401, 1503.785354783887, 1503.908197627566, 1504.3546646177347, 1504.477514539714, 1504.9403260336, 1505.0632226723628, 1505.505526913999, 1506.0297904433742, 1506.1526400114385]","[1492.89090958639, 1493.1039374108354, 1493.2103571816615, 1494.1277905757383, 1494.7339599516836, 1495.061587231029, 1495.3605912787552, 1495.7250965037797, 1495.9463075514495, 1496.3230762860298, 1496.5319349914723, 1496.8595806743992, 1497.1053870467808, 1497.469930494628, 1497.7196748795009, 1498.2766943062504, 1498.8541923181328, 1499.2392267381385, 1499.4275612034103, 1500.0296407373182, 1500.4146854208598, 1500.603043598438, 1500.9839856990016, 1501.2051125148953, 1501.5573644938997, 1501.753896692912, 1502.1348522422463, 1502.3027364355873, 1502.6959020533088, 1502.9171092079134, 1503.2447849736175, 1503.4536107649626, 1503.8099865618465, 1504.0065215921788, 1504.3792464936753, 1504.6044801395274, 1504.9648905677045, 1505.1328190004235, 1505.702210942557, 1506.0543992168568, 1506.2714273428378]","[1492.7352797008143, 1493.3373588808074, 1493.9353499883384, 1494.5373629862218, 1495.1353233031455, 1495.7373950509232, 1496.3353613844024, 1496.937422868644, 1497.4698788230344, 1498.0596205252311, 1498.661680593813, 1499.2391757743749, 1499.837123704273, 1500.414633041436, 1500.9839425213686, 1501.557312468391, 1502.1348002167376, 1502.6917920381152, 1503.2447325941937, 1503.8099458616184, 1504.3792192422184, 1504.9608354093398, 1505.5302139027024, 1506.054359932289]",5,R,ITM,1
4,400,trial,0,41,41,41,"['B', 'S', 'S', 'S', 'S', 'S', 'S', 'S', 'C', 'C', 'C', 'C', 'C', 'C', 'C', 'C', 'C', 'C', 'C', 'C', 'C', 'C', 'C', 'C']","[1511.6203886199332, 1512.0913649334623, 1512.3862366693481, 1512.7425629181284, 1513.152134620782, 1513.5862814749905, 1513.9835613548858, 1514.372648455851, 1514.782213788034, 1515.138522694978, 1515.5112369790238, 1515.8880230554405, 1516.2976358122366, 1516.7030596307889, 1517.0634969565078, 1517.4607803755534, 1517.8417051342806, 1518.202091850151, 1518.5911499300842, 1518.996667536118, 1519.3898218285585, 1519.7584243278357, 1520.1557059773063, 1520.503847941117]","[1511.8865812056256, 1512.1773634533895, 1512.4640424103454, 1512.8408412277029, 1513.2463089317182, 1513.655888420502, 1514.0490575773738, 1514.4300265754794, 1514.847737615894, 1515.1876715824285, 1515.5603752490235, 1515.9576480506184, 1516.3426290294553, 1516.7399740297153, 1517.1167275459497, 1517.5262946477076, 1517.8785271613856, 1518.243019645469, 1518.6525955951029, 1519.0212561364442, 1519.443058788471, 1519.787100646709, 1520.1803267838998, 1520.5652773260447]","[1511.6326627469398, 1512.0299199762735, 1512.4313063322122, 1512.8326601279687, 1513.229940361779, 1513.6313107915416, 1514.0326975013952, 1514.429996846617, 1514.8067616881322, 1515.1630982004483, 1515.5357993896382, 1515.9126052852962, 1516.3221589382833, 1516.723545648137, 1517.088043794861, 1517.4853247365015, 1517.866238877778, 1518.2267084097643, 1518.6157162337638, 1519.0212218066868, 1519.4143913174735, 1519.7829945245805, 1520.180275466221, 1520.5284138908817]",5,R,ITM,1
7,600,trial,0,42,42,42,"['S', 'S', 'S', 'S', 'S', 'S', 'S', 'S', 'S', 'S', 'S', 'S', 'C', 'C', 'C', 'C', 'C', 'C', 'C', 'C', 'C', 'C', 'C', 'C', 'C', 'C', 'C', 'C']","[1560.715012402952, 1561.4563306019352, 1562.1116570053764, 1562.2263113171055, 1562.7137223826833, 1562.828370677857, 1563.340340968814, 1563.4468163042989, 1563.9055390178928, 1564.0161116276304, 1564.4912291008754, 1564.6018087889133, 1565.1096641098666, 1565.7076240728754, 1566.2646516396705, 1566.8339423621067, 1567.427805758693, 1568.0134845163946, 1568.5787349448972, 1569.1521162172005, 1569.737766307785, 1570.3193375276983, 1570.9295999309159, 1571.50299465199, 1572.0518128058488, 1572.6170589873711, 1573.1863118408996, 1573.7433054318524]","[1561.0263022568806, 1561.7225486695095, 1562.1280503493672, 1562.3696660139294, 1562.7301005083282, 1562.9594565563998, 1563.3485514434956, 1563.5451239888205, 1563.9178237623503, 1564.1512809777398, 1564.5034975652416, 1564.732865292509, 1565.3513349851728, 1565.9492814994105, 1566.530853427154, 1567.1247391203867, 1567.6940358593783, 1568.2469442091892, 1568.8449130200738, 1569.401926784183, 1570.0039875605946, 1570.5691710991575, 1571.1589535015821, 1571.7650977495605, 1572.3466923278654, 1572.8914326727981, 1573.4730509634098]","[1560.3259780353258, 1560.9279977575943, 1561.5259524118778, 1562.1280167274397, 1562.7300785655966, 1563.328060825252, 1563.9301081528927, 1564.528074132457, 1565.1342481092975, 1565.7321999322608, 1566.285154998855, 1566.8585203449823, 1567.4523798485031, 1568.0380497583292, 1568.6073553451963, 1569.176640404992, 1569.7623170392035, 1570.3439017078877, 1570.9541662345955, 1571.5275754661857, 1572.0763752164632, 1572.6415757429472, 1573.2108834533046, 1573.7679092505248]",5,R,ITM,1
2,600,trial,0,43,43,43,"['S', 'S', 'S', 'S', 'S', 'S', 'S', 'S', 'C', 'C', 'C', 'C', 'C', 'C', 'C', 'C', 'C', 'C', 'C', 'C', 'C', 'C', 'C', 'C']","[1579.7885138294066, 1580.4602006627413, 1580.5749215104952, 1581.058200618148, 1581.64794550558, 1582.2377268462596, 1582.8070048277548, 1583.4008908749026, 1583.9865724639246, 1584.5886268698657, 1585.1906872923626, 1585.7845457341384, 1586.3743461862293, 1586.972290223062, 1587.537505260062, 1588.1313601626878, 1588.6883831285877, 1589.3027902306712, 1589.8679387316465, 1590.4290352594924, 1590.994247111257, 1591.5840224353813, 1592.1737683845583, 1592.7553803046997]","[1580.107977704769, 1580.4766000232876, 1580.677267719375, 1581.1155405149534, 1581.6602348509327, 1582.2950327672227, 1582.819299835748, 1583.4131671253995, 1584.088938138131, 1584.6541468046605, 1585.2153282721126, 1585.8418951866495, 1586.4357476118698, 1587.0255285986345, 1587.6358150680737, 1588.2173742548762, 1588.7743646605936, 1589.3682496459965, 1589.9293482973326, 1590.494555194287, 1591.0843326419013, 1591.624957309, 1592.202436917301, 1592.8045125581439]","[1579.276590609148, 1579.8745176580594, 1580.476578080556, 1581.0745451218654, 1581.6766083756822, 1582.2745715239262, 1582.8766262837826, 1583.4745759832556, 1584.0070308759007, 1584.6131680455785, 1585.2152730613684, 1585.8091293796542, 1586.3988877158572, 1586.996834937925, 1587.5620705019967, 1588.1518245912193, 1588.712946600947, 1589.327279380875, 1589.8924749525488, 1590.4536019170869, 1591.0188116453617, 1591.6085830764205, 1592.198334334323, 1592.7758351775256]",5,R,ITM,1
7,600,trial,0,44,44,44,"['B', 'S', 'S', 'S', 'S', 'S', 'S', 'S', 'S', 'S', 'S', 'S', 'S', 'S', 'C', 'C', 'C', 'C', 'C', 'C', 'C', 'C', 'C', 'C', 'C', 'C', 'C', 'C', 'C', 'C', 'C', 'C', 'C', 'C', 'C', 'C']","[1598.104331672174, 1598.5753083396182, 1598.6940723126258, 1599.2756598126302, 1599.3862264058125, 1599.849048871064, 1599.9637212324594, 1600.447022282844, 1600.5616723475928, 1601.0408860333453, 1601.1555962636482, 1601.6306801149658, 1601.745335842355, 1602.2122283304022, 1602.8347776015673, 1603.4532380924404, 1604.0512129198803, 1604.6778247816255, 1604.8006835514807, 1605.2635237124837, 1605.8942300171614, 1606.0171121454082, 1606.5045133013655, 1606.6314962430151, 1607.0696858685624, 1607.1966482831406, 1607.6512868173377, 1608.2328806878127, 1608.8308339264358, 1608.953692696291, 1609.4124617727532, 1609.5352688710145, 1609.9776226607544, 1610.5510212748939, 1611.1325970957025, 1611.718273729914]","[1598.3213728930111, 1598.5957656898495, 1598.8783594056633, 1599.2879516353883, 1599.4149119264762, 1599.8654238114736, 1600.0906822313775, 1600.4593119821118, 1600.7132244242423, 1601.0572669903102, 1601.3153046659804, 1601.647050808395, 1601.9009791767016, 1602.503091270792, 1603.1132595326128, 1603.6702924081335, 1604.2682559102925, 1604.7024420490688, 1604.915369715562, 1605.5010424567083, 1605.9188717047414, 1606.14405509466, 1606.5331768792976, 1606.7133564345468, 1607.0984050111535, 1607.3318077236293, 1607.9011072939409, 1608.4826905469652, 1608.8554841079767, 1609.0478751472729, 1609.4370266607727, 1609.6417626100808, 1610.235613619641, 1610.7639570814326, 1611.34145403157, 1611.963991269624]","[1598.112506047523, 1598.7145374489876, 1599.312506259872, 1599.9146102139168, 1600.5125949509775, 1601.114599100985, 1601.7125696814446, 1602.3146237334709, 1602.8593523992076, 1603.4777838690486, 1604.0798573864013, 1604.702399933181, 1605.2880673656016, 1605.9188299427683, 1606.529052707503, 1607.0983639570106, 1607.6758449809718, 1608.2574777820994, 1608.8554607495848, 1609.436975343094, 1610.0021808243885, 1610.5755610349465, 1611.1571545515064, 1611.7428354326983]",5,R,ITM,1
4,400,trial,0,45,45,45,"['S', 'S', 'S', 'S', 'S', 'S', 'S', 'C', 'C', 'C', 'C', 'C', 'C', 'C', 'C', 'C', 'C', 'C', 'C', 'C', 'C', 'C', 'C']","[1617.5709491682467, 1617.8863200163366, 1618.279552170083, 1618.668605295206, 1619.0535848583827, 1619.4426953177397, 1619.8604095433896, 1620.2577722394008, 1620.6509084821753, 1621.023622412306, 1621.4003922086315, 1621.7895090384588, 1622.1703796481872, 1622.5635689782155, 1622.9362846779213, 1623.3335489855556, 1623.726741146904, 1624.0912594667845, 1624.488525543994, 1624.8489968455553, 1625.2585122757196, 1625.672202487527, 1626.0571852359392]","[1617.5873418044075, 1617.9395675936998, 1618.2959104764864, 1618.6849788199552, 1619.0699739553932, 1619.4590458380123, 1619.8767954551647, 1620.2823452674659, 1620.675515132168, 1621.0482046421619, 1621.4250172622053, 1621.814108610151, 1622.1990563209754, 1622.5881968631095, 1622.9854151617906, 1623.3581535120582, 1623.7513715092034, 1624.1322152213897, 1624.5131442270974, 1624.947265599424, 1625.2831376832085, 1625.6967932113434, 1626.1063079336777]","[1617.128666869342, 1617.5300114633076, 1617.9273256729605, 1618.3286801765469, 1618.7300375114535, 1619.127290847722, 1619.5286881750264, 1619.9300462177632, 1620.282305275068, 1620.6754811563253, 1621.048177390705, 1621.4249673601867, 1621.814052337662, 1622.1949586928079, 1622.5881572246267, 1622.9567586621588, 1623.3581177666404, 1623.7513148827993, 1624.1117154013555, 1624.5130925555036, 1624.873509354151, 1625.2830867194448, 1625.6967422475798, 1626.0776450635756]",5,R,ITM,1
3,400,trial,0,46,46,46,"['S', 'S', 'S', 'S', 'S', 'S', 'S', 'S', 'C', 'C', 'C', 'C', 'C', 'C', 'C', 'C', 'C', 'C', 'C', 'C', 'C', 'C', 'C', 'C', 'C']","[1632.2457040909392, 1632.565188139458, 1632.9583668520356, 1633.3843234047192, 1633.7447147214848, 1634.1501923351207, 1634.527044239732, 1634.6416720078344, 1634.9406399562279, 1635.0635401341408, 1635.3502137823714, 1635.772083678253, 1636.1734332270291, 1636.546146803245, 1636.9352487686413, 1637.3366046878878, 1637.725706299369, 1638.1147725193478, 1638.5079922860682, 1638.8888770523974, 1639.2533872322324, 1639.6670484230078, 1640.056151096234, 1640.4534185891036, 1640.8711834246021]","[1632.2620747843685, 1632.6307724867875, 1632.9747191418835, 1633.4006852502728, 1633.8348076843447, 1634.2689602011935, 1634.5433767103386, 1634.6785276568667, 1634.9652653637168, 1635.0798973787992, 1635.3748137079783, 1635.7967023613564, 1636.1939691463958, 1636.5748149820724, 1637.0171330263947, 1637.4349056480237, 1637.8239973498844, 1638.2294544364488, 1638.565311301887, 1638.9134875954553, 1639.2820387770537, 1639.7858244291263, 1640.1871920275685, 1640.5680729008327, 1640.994040424882]","[1631.8279902192044, 1632.2293231339743, 1632.6307123212332, 1633.0279837071678, 1633.4293605074008, 1633.8307351841438, 1634.228052225117, 1634.629388679037, 1634.9652243095736, 1635.3706856431183, 1635.7966485662726, 1636.193930215743, 1636.5707162921597, 1636.9598122410005, 1637.3611741768025, 1637.7502729569635, 1638.139351210053, 1638.532549387957, 1638.9134444178221, 1639.2779620298725, 1639.691610125792, 1640.0807124451032, 1640.477967904862, 1640.8957210611647]",5,R,ITM,1
5,400,trial,0,47,47,47,"['S', 'S', 'S', 'S', 'S', 'S', 'S', 'S', 'C', 'C', 'C', 'C', 'C', 'C', 'C', 'C', 'C', 'C', 'C', 'C', 'C', 'C', 'C', 'C']","[1646.7566356412958, 1647.1661712446164, 1647.5880411404983, 1648.0222010895627, 1648.4440288695564, 1648.5546202367905, 1648.837222446565, 1649.2427096159067, 1649.6276944878089, 1650.037233984195, 1650.4181548498568, 1650.83591508446, 1651.2413845580504, 1651.6591320517127, 1652.0400599956752, 1652.4495899363556, 1652.834594981414, 1653.2154751468481, 1653.612760335469, 1653.9608846035285, 1654.3786384676612, 1654.763631125694, 1655.1527376919855, 1655.5459213593736]","[1646.8303373836548, 1647.3054251280375, 1647.7805305681716, 1648.206499507881, 1648.456316445334, 1648.5873874594458, 1648.9928887853885, 1649.3778595006895, 1649.7792224982365, 1650.147812256573, 1650.5492067525572, 1650.8604877586101, 1651.3478535230647, 1651.7656215437985, 1652.1547574850374, 1652.4742029568185, 1652.9410897822254, 1653.2401171883432, 1653.6373223921682, 1653.9855114266775, 1654.40326245949, 1654.7882593645031, 1655.177354605514, 1655.5705053588044]","[1646.4863549831412, 1646.8836061959196, 1647.284975563937, 1647.6863491789347, 1648.0836110091639, 1648.4850001964228, 1648.8863564695844, 1649.283640242545, 1649.6481645789809, 1650.057789368888, 1650.4427774260255, 1650.8563749120963, 1651.2618440317717, 1651.6837691383973, 1652.0645972783227, 1652.474169334891, 1652.8591545607082, 1653.2400662245796, 1653.6332261796608, 1653.9854615246588, 1654.403220343602, 1654.7882076929093, 1655.1773047034953, 1655.5704816464977]",5,R,ITM,1
6,600,trial,0,48,48,48,"['S', 'S', 'S', 'S', 'S', 'S', 'S', 'S', 'S', 'S', 'S', 'S', 'S', 'S', 'C', 'C', 'C', 'C', 'C', 'C', 'C', 'C', 'C', 'C', 'C', 'C', 'C', 'C', 'C', 'C', 'C', 'C', 'C']","[1661.3084974643757, 1661.644338757553, 1662.1030703190224, 1662.21777099362, 1662.7501929721677, 1662.8689413729142, 1663.3686378907796, 1663.483308128685, 1663.978881536501, 1664.0894523766633, 1664.568669601566, 1664.6833249750403, 1665.1584466952654, 1665.277197927332, 1665.7400164995186, 1666.3420960334265, 1666.9113446399747, 1667.4806597825475, 1668.062259315663, 1668.6397884720675, 1669.2008513779858, 1669.782477808643, 1670.3517561440533, 1670.9538101960795, 1671.0766597641439, 1671.5026145472525, 1672.067850819154, 1672.6739664000154, 1672.8009040405416, 1673.2432634929219, 1673.8084583567654, 1673.9313949879263, 1674.3695598394218]","[1661.320793534114, 1661.6607197145179, 1662.1153515243298, 1662.365203145455, 1662.766577822198, 1663.0041068299583, 1663.384983810157, 1663.6061679602851, 1663.9911588487428, 1664.2164317791626, 1664.5809324032919, 1664.7979955668604, 1665.1748060634138, 1665.40415751059, 1665.985740409699, 1666.5632207258302, 1667.128418774909, 1667.7182241818105, 1668.2997688580967, 1668.8895622318873, 1669.471155748447, 1670.0363647688916, 1670.6015514926896, 1670.978426755693, 1671.174945859849, 1671.7524474108816, 1672.3422188419404, 1672.7026186526668, 1672.8869499850825, 1673.4603241790853, 1673.8330830564244, 1674.0214228304212, 1674.6153102932292]","[1661.0177392828336, 1661.6157102172083, 1662.2177458656531, 1662.8157075982372, 1663.4177563415378, 1664.015747095154, 1664.617786636664, 1665.219850598311, 1665.7645803257928, 1666.3666556127207, 1666.931846229584, 1667.5052310410374, 1668.0868298663227, 1668.6602061838157, 1669.2254707689194, 1669.806993148559, 1670.3762987354262, 1670.9783680057985, 1671.5271762500367, 1672.092424555049, 1672.6985174853487, 1673.267822718301, 1673.8330320926607, 1674.3941257891863]",5,R,ITM,1
7,400,trial,0,49,49,49,"['B', 'S', 'S', 'S', 'S', 'S', 'S', 'S', 'C', 'C', 'C', 'C', 'C', 'C', 'C', 'C', 'C', 'C', 'C', 'C', 'C', 'C', 'C', 'C']","[1679.9274074273314, 1680.3574007347984, 1680.713747156735, 1681.0618664699844, 1681.471444897023, 1681.8769012757575, 1682.294665049511, 1682.6673761483216, 1683.081053973103, 1683.4578258929187, 1683.859245162955, 1684.2360220375808, 1684.625106307226, 1685.0224052985327, 1685.3869222027529, 1685.7636792581375, 1686.1650787089322, 1686.5336836856145, 1686.9023028188979, 1687.2831847539069, 1687.6436008447245, 1688.0449825997678, 1688.442246907402, 1688.8026640599646]","[1680.001088288704, 1680.5048396110192, 1680.7137928117734, 1681.1151140473476, 1681.524660975949, 1681.926049101463, 1682.306942715668, 1682.7001129342848, 1683.1056316020636, 1683.4824194480555, 1683.8878574232085, 1684.2728504351562, 1684.6578540645548, 1685.0469875283884, 1685.4360112785641, 1685.8087305174201, 1686.1937677687463, 1686.5991937107885, 1686.9555192517387, 1687.328228227059, 1687.7009219840336, 1688.073632021099, 1688.4668662983354, 1688.831331177047]","[1679.9396882787237, 1680.3369748830046, 1680.7383138143298, 1681.1355890933298, 1681.5369485517267, 1681.9383405703059, 1682.3396989669575, 1682.7369884025586, 1683.1056057662668, 1683.4823964435786, 1683.8837838612624, 1684.2605617976335, 1684.6496658865199, 1685.0469528447159, 1685.4114715185115, 1685.7882533479476, 1686.193736270309, 1686.558248573634, 1686.9268432867805, 1687.3118348830683, 1687.66817811977, 1688.069529084206, 1688.466816396317, 1688.8272314253893]",5,R,ITM,1
5,600,trial,0,50,50,50,"['S', 'S', 'S', 'S', 'S', 'S', 'S', 'S', 'S', 'C', 'C', 'C', 'C', 'C', 'C', 'C', 'C', 'C', 'C', 'C', 'C', 'C', 'C', 'C', 'C']","[1694.43010620636, 1694.6922262918517, 1695.3721207685478, 1696.0069314257785, 1696.6417569474404, 1696.7605322457289, 1697.2028725866976, 1697.8008350271116, 1698.3824189879658, 1698.9517178504475, 1699.5005490991623, 1700.0575642789317, 1700.6473162446644, 1701.22073220064, 1701.8186872088386, 1702.4084331580157, 1702.9736453636954, 1703.6084684079522, 1704.169605989941, 1704.7184039706435, 1705.2836073284477, 1705.861091537644, 1706.4058739984648, 1706.979225895821, 1707.5444101422136]","[1694.4874323004794, 1695.0321659210267, 1695.6506065926583, 1696.2322043561985, 1696.6581255173796, 1696.8383273692752, 1697.43629971931, 1698.046556105972, 1698.6445369499675, 1699.185174004092, 1699.7421686567898, 1700.3073812163848, 1700.8602984140714, 1701.4500613511698, 1702.039852247555, 1702.6091380151809, 1703.2029999961069, 1703.821435359013, 1704.4357879581828, 1704.9723337546102, 1705.5211678346452, 1706.0617606493915, 1706.6515469448816, 1707.196269240148, 1707.810638473324]","[1694.2335439245708, 1694.8355470128333, 1695.4335490917301, 1696.03558367843, 1696.63356062936, 1697.2356214057718, 1697.8376853674185, 1698.4356601948584, 1698.9721999747305, 1699.5251044314762, 1700.0820891745534, 1700.6718793631087, 1701.2452793929083, 1701.8432566977533, 1702.4330203426819, 1702.9982162682704, 1703.6330527612981, 1704.1941669848952, 1704.7429759369634, 1705.3081718625522, 1705.8856578413236, 1706.4303613790937, 1707.0037762733243, 1707.5689697215078]",5,R,ITM,1
5,600,trial,0,51,51,51,"['S', 'S', 'S', 'S', 'S', 'S', 'S', 'S', 'S', 'C', 'C', 'C', 'C', 'C', 'C', 'C', 'C', 'C', 'C', 'C', 'C', 'C', 'C', 'C', 'C']","[1713.3193021361958, 1713.7042763906472, 1714.277664387336, 1714.8756491243964, 1715.4736264292417, 1716.0674767309717, 1716.1821526315175, 1716.6572594873116, 1717.2307026947444, 1717.7877111501282, 1718.2995904849238, 1718.8320404227586, 1719.4136601290304, 1720.011660792267, 1720.6218517046493, 1721.2116309218388, 1721.7727263879397, 1722.346120401184, 1722.8786184714622, 1723.4888001820539, 1724.0704216579009, 1724.6396893758601, 1725.2335771925832, 1725.7905810470718, 1726.3516871306233]","[1713.4216734730426, 1713.978759435817, 1714.5397933207032, 1715.1664225242848, 1715.7398218462542, 1716.07976926156, 1716.354147901797, 1716.9357502662326, 1717.509120213255, 1718.0538732991286, 1718.5453345682608, 1719.0777926461412, 1719.671662767113, 1720.2450376689458, 1720.8266336629108, 1721.400012103894, 1721.9775005600704, 1722.5263449036413, 1723.1120176447876, 1723.7140600176178, 1724.2792562971215, 1724.8690698440687, 1725.4260637889365, 1726.0281125322372, 1726.5687439237215]","[1713.1596174461704, 1713.7616138100475, 1714.3595748348014, 1714.9616508295592, 1715.559624595254, 1716.1575944678834, 1716.7597129324442, 1717.361691246655, 1717.8122328605148, 1718.32417979308, 1718.8566902503842, 1719.4341153557714, 1720.0361442798308, 1720.6464137613486, 1721.236177052362, 1721.7972980003447, 1722.3706849352884, 1722.9031104529865, 1723.513373210119, 1724.0949571709732, 1724.6642532021347, 1725.2540327732393, 1725.8151225766997, 1726.376243170767]",5,R,ITM,1
2,600,trial,0,52,52,52,"['B', 'S', 'S', 'S', 'S', 'S', 'S', 'S', 'S', 'S', 'S', 'S', 'C', 'C', 'C', 'C', 'C', 'C', 'C', 'C', 'C', 'C', 'C', 'C', 'C', 'C', 'C', 'C']","[1732.1227249899753, 1732.5893477947732, 1733.2487619167614, 1733.8590236121488, 1734.4692884927715, 1734.5798437606727, 1735.1081875763794, 1735.2187683261625, 1735.7144103934934, 1735.8208319338944, 1736.312298157837, 1736.4187954360534, 1736.8857119903225, 1737.483681155122, 1738.081658459967, 1738.679607097695, 1739.3267378908859, 1739.8673653893047, 1740.4530314060655, 1741.0469071896775, 1741.6039043197807, 1742.2100722800658, 1742.7793591094367, 1743.3609628895322, 1743.9179632048704, 1744.4585949502696, 1745.0238082176945, 1745.6053606801115]","[1732.2862786790618, 1732.9334512342255, 1733.5559346771959, 1734.1415936156561, 1734.4815381996414, 1734.7559582479366, 1735.1204716130067, 1735.3621120516207, 1735.7225125701768, 1735.9395994460522, 1736.3205142951588, 1736.533470628769, 1737.1109605006056, 1737.7417103368316, 1738.3437548331522, 1738.9540459034868, 1739.5560642100952, 1740.1253758135178, 1740.6783078756357, 1741.2721882601431, 1741.8209756233948, 1742.4394152332814, 1743.0169012120527, 1743.569811685354, 1744.1473082815762, 1744.66336062844, 1745.22857849676, 1745.814245929181]","[1732.1347694261303, 1732.7326993063618, 1733.3347710541395, 1733.9327377415336, 1734.5347992257755, 1735.1327627279345, 1735.734831290477, 1736.332794792636, 1736.9102782940022, 1737.5082428579062, 1738.1062134383658, 1738.7042034841518, 1739.3513289686173, 1739.8878061055298, 1740.473496896342, 1741.0714536741157, 1741.6284688538851, 1742.234647785536, 1742.8039282444363, 1743.3855267158067, 1743.9384325882124, 1744.483158068714, 1745.048344084682, 1745.6299315846863]",5,R,ITM,1
7,400,trial,0,53,53,53,"['S', 'S', 'S', 'S', 'S', 'S', 'S', 'S', 'S', 'S', 'S', 'S', 'C', 'C', 'C', 'C', 'C', 'C', 'C', 'C', 'C', 'C', 'C', 'C', 'C', 'C', 'C', 'C']","[1751.2860493421251, 1751.6177891140692, 1751.8840567297473, 1752.281285645879, 1752.707232642857, 1752.8178233022609, 1753.116870881535, 1753.2232881749558, 1753.5263583524122, 1753.6369511353064, 1753.919552637251, 1754.0219218506074, 1754.2758675607504, 1754.6690777717652, 1755.0499621841795, 1755.4554235177243, 1755.852695611489, 1756.2499609808683, 1756.630861319459, 1757.0199756718812, 1757.4090769294473, 1757.8186153640884, 1758.2077021111386, 1758.576353450689, 1758.9613248738206, 1759.3626868096223, 1759.7353876448972, 1760.1531468177554]","[1751.3966240753527, 1751.6955987481317, 1752.04783409313, 1752.4615076709313, 1752.7195110168439, 1752.8587549906442, 1753.1208825083515, 1753.2888059862603, 1753.5427502807431, 1753.6656249767743, 1753.9236336314123, 1754.0301493132101, 1754.4192088088034, 1754.787845991753, 1755.1933009548272, 1755.6233558435088, 1755.9960534935483, 1756.3728342612396, 1756.7373575359304, 1757.1469571978707, 1757.5524029591543, 1757.9046237936363, 1758.3428760621432, 1758.7320151886172, 1759.100545489229, 1759.4855455794775, 1759.8746199395018, 1760.2678188252357]","[1751.1181669183593, 1751.5153979579811, 1751.9167825443446, 1752.3181473114669, 1752.715409849526, 1753.1168117777258, 1753.5181822074883, 1753.9154574864883, 1754.3004437740508, 1754.6977264852662, 1755.0745100842778, 1755.4799731873977, 1755.8813761773426, 1756.2745506429396, 1756.655433285779, 1757.0445511773514, 1757.4336365087415, 1757.847298407347, 1758.2363876318025, 1758.6008705601803, 1758.9858738356638, 1759.3872626690077, 1759.764043436699, 1760.1777198458205]",5,R,ITM,1
5,600,trial,0,54,54,54,"['S', 'S', 'S', 'S', 'S', 'S', 'S', 'S', 'S', 'C', 'C', 'C', 'C', 'C', 'C', 'C', 'C', 'C', 'C', 'C', 'C', 'C', 'C', 'C', 'C']","[1780.5331892663235, 1780.795265466352, 1781.4833283018413, 1782.1181481608628, 1782.769371627411, 1783.363258736304, 1783.953058480565, 1784.5345918315704, 1784.6533919039107, 1785.1202893467685, 1785.6855054455136, 1786.2916475700017, 1786.9182948232494, 1787.5490174080185, 1788.122401157727, 1788.6998920913086, 1789.306065360319, 1789.89173491623, 1790.4365361345472, 1791.030338303834, 1791.6323987263306, 1792.2016759999958, 1792.8037771227205, 1793.3812340804598, 1793.9546362337496]","[1780.6109557227528, 1781.1474905478144, 1781.7823189007966, 1782.3598162048488, 1782.9946516361315, 1783.6048949279375, 1784.2069351772777, 1784.555108285611, 1784.7803624585345, 1785.3578293258945, 1785.9516994468663, 1786.5619459239076, 1787.1681252094734, 1787.7906408587112, 1788.4050086762268, 1788.9702191123315, 1789.539526114859, 1790.1375012962137, 1790.7108638110208, 1791.2678814681954, 1791.865842846864, 1792.4433270560605, 1793.0617702050972, 1793.6310457091872]","[1780.3529615786308, 1780.9509070311237, 1781.552950111784, 1782.1509164452634, 1782.752992793936, 1783.3550627721386, 1783.9530213194873, 1784.5550845733042, 1785.1448365390368, 1785.7100639630626, 1786.3162312155175, 1786.942832105897, 1787.573568139437, 1788.1469667535764, 1788.7203508572, 1789.330621400463, 1789.912202176082, 1790.4569372122892, 1791.0548741708212, 1791.652860323542, 1792.2262437193356, 1792.828312989708, 1793.4057784414078, 1793.9750932300656]",5,R,ITM,1
5,400,trial,0,55,55,55,"['B', 'S', 'S', 'S', 'S', 'S', 'S', 'S', 'S', 'C', 'C', 'C', 'C', 'C', 'C', 'C', 'C', 'C', 'C', 'C', 'C', 'C', 'C', 'C', 'C']","[1799.336390569297, 1799.7704468212592, 1800.1390638310522, 1800.5281459772073, 1800.9213530029867, 1801.322706444828, 1801.4333147999832, 1801.7281791036535, 1802.0926910530636, 1802.4981647736342, 1802.8831627403924, 1803.2640538771923, 1803.6736146084797, 1804.0667876584168, 1804.4476897665825, 1804.8286017843689, 1805.2300065438887, 1805.610875384042, 1806.0040519731294, 1806.389070466959, 1806.7740422440054, 1807.1754080728724, 1807.5603986074152, 1807.937213350949, 1808.3099088774984]","[1799.4059688476916, 1799.9383656982725, 1800.2783332867346, 1800.6592130982535, 1801.0769740406868, 1801.3350481696045, 1801.4743080695812, 1801.871511503831, 1802.277017784584, 1802.6374207805454, 1803.02650009538, 1803.4155910894106, 1803.7923845980429, 1804.2306329734843, 1804.6197158274692, 1804.988312664106, 1805.3733552241574, 1805.778788598415, 1806.1514936806702, 1806.5528605712825, 1806.9419692610643, 1807.3228402247078, 1807.6627872860981, 1808.0969408646922, 1808.4696413460522]","[1799.3445288453133, 1799.745857513103, 1800.1472410377214, 1800.5445258724271, 1800.9458927630394, 1801.34730601652, 1801.744564661514, 1802.1459311982112, 1802.5227402791045, 1802.907727628412, 1803.2886240739372, 1803.6981869287147, 1804.091375904828, 1804.4722663337977, 1804.853174812434, 1805.2545710779932, 1805.6354218684803, 1806.0286235855344, 1806.4135978399859, 1806.7986173955605, 1807.1999757922122, 1807.5849606641145, 1807.9617793007135, 1808.3344656254721]",5,R,ITM,1
4,600,trial,0,56,56,56,"['S', 'S', 'S', 'S', 'S', 'S', 'S', 'S', 'C', 'C', 'C', 'C', 'C', 'C', 'C', 'C', 'C', 'C', 'C', 'C', 'C', 'C', 'C', 'C']","[1813.929134886572, 1814.1831067864268, 1814.8547780475003, 1815.45681121854, 1816.0302229275355, 1816.6445822510907, 1817.2466716946194, 1817.8487009725939, 1818.4466690756483, 1819.02416071706, 1819.6180234058163, 1820.175041416906, 1820.7402352190045, 1821.313636310549, 1821.8870005949311, 1822.4276645465977, 1822.98465247491, 1823.5580316237233, 1824.1191706213722, 1824.688459574233, 1825.2741365623597, 1825.839340274079, 1826.4168386398762, 1826.9615573959923]","[1814.0111132857223, 1814.5148426653057, 1815.1578553032573, 1815.7394229840204, 1816.3537716901246, 1816.9681402154706, 1817.5456474291436, 1818.1558751486884, 1818.6882988968114, 1819.2780742209357, 1819.8473801617179, 1820.4330670594652, 1820.961417599557, 1821.5348579756699, 1822.0754292015995, 1822.644697981304, 1823.2017241324393, 1823.7833088011234, 1824.32397346062, 1824.9219518272103, 1825.4789560356137, 1826.056411577693, 1826.6543428735847]","[1813.7653861903066, 1814.3632877573361, 1814.9653584433684, 1815.5633152211421, 1816.1653908619849, 1816.7633462240983, 1817.3653903665038, 1817.9633945688909, 1818.4712403341382, 1819.0487627661573, 1819.6425879399208, 1820.1996034736053, 1820.7607056640916, 1821.3381990750784, 1821.911568668186, 1822.4522297885321, 1823.0051540645195, 1823.5785233037118, 1824.1437231223658, 1824.7130060586712, 1825.2987081747647, 1825.8639048081834, 1826.4414017583206, 1826.9861052960907]",5,R,ITM,1
6,600,trial,0,57,57,57,"['B', 'S', 'S', 'S', 'S', 'S', 'S', 'S', 'S', 'S', 'S', 'S', 'C', 'C', 'C', 'C', 'C', 'C', 'C', 'C', 'C', 'C', 'C', 'C', 'C', 'C', 'C', 'C']","[1832.5849185482264, 1833.0272319916533, 1833.7316708292972, 1834.33780481374, 1834.4484096297447, 1834.911210860095, 1835.0217940872833, 1835.5747576478382, 1836.1521823993103, 1836.266875287777, 1836.7747440575013, 1836.8812335495873, 1837.3153860664363, 1837.9338037335913, 1838.515398665811, 1839.1092610006522, 1839.7195464083466, 1840.3379796477625, 1840.899070512968, 1841.4806629677828, 1842.0458772969528, 1842.6233484112931, 1843.1926536442454, 1843.7578318740827, 1844.3230394788673, 1844.8882329270507, 1845.4452566007806, 1846.0063768409332]","[1832.7569035549702, 1833.4039964792532, 1834.038848190627, 1834.350113624419, 1834.583563407593, 1834.9234938349773, 1835.222491866148, 1835.8204677553329, 1836.1685665415105, 1836.381554727473, 1836.78291630936, 1837.0287332991923, 1837.5815860843443, 1838.1549811593336, 1838.777550603655, 1839.3509194889325, 1839.9652611167364, 1840.5509465988234, 1841.1489076235773, 1841.7263875857934, 1842.3079563283015, 1842.8445067256241, 1843.4588423368725, 1844.0077054379396, 1844.5974577575873, 1845.1216766936693, 1845.690977679641]","[1832.593089384425, 1833.1910327134276, 1833.7931002142248, 1834.3951595749763, 1834.9931273241157, 1835.595196948403, 1836.1931625740524, 1836.795196099007, 1837.33994210658, 1837.9583700372707, 1838.5399610764255, 1839.1338273043318, 1839.744097847595, 1840.3625601080432, 1840.92366937683, 1841.5011263345693, 1842.070426258796, 1842.6478998505418, 1843.2172093304741, 1843.782409856958, 1844.3476114451873, 1844.9128041855406, 1845.469847678512, 1846.0309240332015]",5,R,ITM,1
