octave,ioi,event,.thisRepN,.thisTrialN,.thisN,.thisIndex,event,tap_types,tap_times,release_times,tone_times,subject,handedness,experiment,version,
,,SPR,0,-1,-1,0,SPR,"['P', 'P', 'P', 'P', 'P', 'P', 'P', 'P', 'P', 'P', 'P', 'P', 'P', 'P', 'P', 'P', 'P', 'P', 'P', 'P', 'P', 'P', 'P', 'P', 'P', 'P', 'P', 'P', 'P', 'P']","[36244, 36820, 37395, 37988, 38573, 39177, 39757, 40355, 40952, 41577, 42188, 42804, 43435, 44036, 44656, 45287, 45904, 46554, 47166, 47773, 48427, 49045, 49704, 50347, 50970, 51575, 52195, 52836, 53459, 54065]","[36379, 37004, 37654, 38296, 38895, 39440, 40022, 40616, 41278, 41912, 42549, 43162, 43783, 44403, 45006, 45655, 46292, 46901, 47529, 48038, 48712, 49316, 49929, 50611, 51306, 51957, 52552, 53140, 53784, 54430]",,33,R,ITM,1.1,
2,500,practice,0,0,0,0,practice,"['S', 'S', 'S', 'S', 'S', 'S', 'S', 'C', 'C', 'C', 'C', 'C', 'C', 'C', 'C', 'C', 'C', 'C', 'C', 'C', 'C', 'C', 'C']","[116028, 116543, 117003, 117506, 118039, 118509, 119042, 119530, 119954, 120420, 120902, 121383, 121848, 122333, 122799, 123231, 123686, 124137, 124614, 125067, 125520, 125991, 126446]","[116120, 116659, 117125, 117603, 118120, 118627, 119140, 119638, 120045, 120519, 120974, 121459, 121917, 122393, 122877, 123302, 123762, 124231, 124680, 125153, 125595, 126051, 126512]","[115603, 116104, 116603, 117103, 117603, 118103, 118602, 119103, 119558, 119981, 120446, 120930, 121410, 121875, 122360, 122825, 123257, 123713, 124164, 124641, 125093, 125548, 126019, 126473]",33,R,ITM,1.1,
7,500,practice,0,1,1,1,practice,"['S', 'S', 'S', 'S', 'S', 'S', 'S', 'S', 'C', 'C', 'C', 'C', 'C', 'C', 'C', 'C', 'C', 'C', 'C', 'C', 'C', 'C', 'C', 'C']","[132318, 132705, 133139, 133505, 134025, 134531, 135029, 135502, 136019, 136573, 137121, 137689, 138240, 138845, 139387, 139876, 140393, 140907, 141442, 141996, 142573, 143167, 143785, 144347]","[132383, 132761, 133209, 133590, 134100, 134626, 135113, 135578, 136095, 136642, 137197, 137755, 138347, 138959, 139571, 139963, 140521, 141008, 141537, 142069, 142640, 143229, 143840, 144412]","[131996, 132495, 132996, 133495, 133995, 134495, 134995, 135495, 136046, 136600, 137148, 137715, 138267, 138871, 139414, 139902, 140420, 140934, 141468, 142022, 142601, 143195, 143812, 144373]",33,R,ITM,1.1,
4,500,practice,0,2,2,2,practice,"['S', 'S', 'S', 'S', 'S', 'S', 'S', 'C', 'C', 'C', 'C', 'C', 'C', 'C', 'C', 'C', 'C', 'C', 'C', 'C', 'C', 'C', 'C', 'C', 'C', 'C', 'C', 'C']","[150014, 150574, 151024, 151555, 152047, 152579, 153060, 153587, 153959, 154172, 154689, 154797, 155166, 155583, 155953, 156278, 156503, 156932, 157370, 157785, 158116, 158343, 158503, 159029, 159408, 159729, 159990, 164324]","[150081, 150636, 151093, 151627, 152101, 152645, 153131, 153655, 154017, 154248, 154717, 154826, 155240, 155672, 156053, 156352, 156574, 157036, 157471, 157872, 158201, 158410, 158552, 159164, 159524, 159823, 160082, 164451]","[149673, 150172, 150672, 151173, 151672, 152172, 152672, 153172, 153613, 153985, 154715, 155193, 155609, 155979, 156304, 156957, 157395, 157810, 158142, 158529, 159055, 159433, 159755, 164349]",33,R,ITM,1.1,
6,500,practice,0,3,3,3,practice,"['S', 'S', 'S', 'S', 'S', 'S', 'S', 'S', 'C', 'C', 'C', 'C', 'C', 'C', 'C', 'C', 'C', 'C', 'C', 'C', 'C', 'C', 'C', 'C']","[169929, 170300, 170672, 171158, 171632, 172137, 172640, 173125, 173639, 174090, 174514, 175025, 175506, 176029, 176553, 177036, 177499, 177948, 178435, 178891, 179341, 179806, 180281, 180749]","[169986, 170372, 170746, 171247, 171719, 172219, 172702, 173191, 173691, 174152, 174597, 175088, 175570, 176106, 176608, 177091, 177551, 178023, 178516, 178975, 179426, 179881, 180346, 180811]","[169672, 170171, 170672, 171171, 171671, 172171, 172672, 173171, 173667, 174116, 174541, 175051, 175534, 176056, 176579, 177063, 177525, 177976, 178462, 178918, 179367, 179832, 180307, 180775]",33,R,ITM,1.1,
5,500,practice,0,4,4,4,practice,"['S', 'S', 'S', 'S', 'S', 'S', 'S', 'S', 'C', 'C', 'C', 'C', 'C', 'C', 'C', 'C', 'C', 'C', 'C', 'C', 'C', 'C', 'C', 'C']","[186458, 186840, 187183, 187672, 188172, 188653, 189126, 189597, 190120, 190588, 191054, 191516, 192025, 192528, 193041, 193562, 194074, 194608, 195130, 195634, 196234, 196819, 197449, 198046]","[186528, 186899, 187255, 187759, 188252, 188736, 189212, 189689, 190201, 190650, 191127, 191597, 192103, 192595, 193115, 193637, 194141, 194674, 195198, 195721, 196305, 196882, 197531, 198110]","[186172, 186673, 187172, 187672, 188172, 188673, 189172, 189672, 190146, 190614, 191080, 191542, 192052, 192555, 193067, 193588, 194100, 194633, 195155, 195659, 196260, 196845, 197475, 198073]",33,R,ITM,1.1,
3,500,practice,0,5,5,5,practice,"['S', 'S', 'S', 'S', 'S', 'S', 'S', 'S', 'C', 'C', 'C', 'C', 'C', 'C', 'C', 'C', 'C', 'C', 'C', 'C', 'C', 'C', 'C', 'C']","[203846, 204261, 204710, 205207, 205578, 206032, 206516, 207000, 207503, 207977, 208461, 208931, 209397, 209916, 210382, 210900, 211383, 211898, 212372, 212892, 213406, 213936, 214425, 214893]","[203891, 204326, 204784, 205268, 205652, 206110, 206602, 207079, 207579, 208073, 208537, 209014, 209465, 209978, 210459, 210968, 211468, 211948, 212452, 212966, 213470, 213968, 214495, 214947]","[203622, 204123, 204622, 205122, 205622, 206123, 206622, 207122, 207529, 208003, 208487, 208957, 209423, 209942, 210408, 210926, 211408, 211923, 212398, 212918, 213432, 213961, 214451, 214919]",33,R,ITM,1.1,
6,600,trial,0,6,6,6,trial,"['S', 'S', 'S', 'S', 'S', 'S', 'S', 'S', 'C', 'C', 'C', 'C', 'C', 'C', 'C', 'C', 'C', 'C', 'C', 'C', 'C', 'C', 'C', 'C']","[271447, 271828, 272293, 272869, 273472, 274094, 274660, 275222, 275855, 276423, 276977, 277585, 278192, 278794, 279390, 279960, 280535, 281158, 281741, 282332, 282917, 283560, 284181, 284750]","[271521, 271920, 272392, 272969, 273561, 274187, 274755, 275316, 275942, 276534, 277089, 277671, 278278, 278872, 279463, 280050, 280630, 281251, 281822, 282421, 283003, 283643, 284250, 284857]","[271179, 271779, 272379, 272979, 273580, 274180, 274780, 275379, 275881, 276451, 277004, 277612, 278218, 278820, 279416, 279987, 280561, 281186, 281768, 282358, 282944, 283587, 284208, 284778]",33,R,ITM,1.1,
2,600,trial,0,7,7,7,trial,"['S', 'S', 'S', 'S', 'S', 'S', 'S', 'S', 'C', 'C', 'C', 'C', 'C', 'C', 'C', 'C', 'C', 'C', 'C', 'C', 'C', 'C', 'C', 'C']","[290461, 290914, 291451, 292041, 292579, 293196, 293791, 294390, 294993, 295473, 295971, 296524, 297086, 297636, 298201, 298747, 299334, 299918, 300473, 301044, 301599, 302153, 302701, 303261]","[290531, 291028, 291544, 292146, 292686, 293286, 293882, 294482, 295065, 295561, 296051, 296582, 297150, 297695, 298254, 298803, 299400, 299965, 300550, 301109, 301654, 302223, 302769, 303326]","[290280, 290880, 291480, 292080, 292680, 293279, 293880, 294479, 295020, 295499, 295998, 296552, 297112, 297664, 298227, 298775, 299362, 299944, 300500, 301071, 301626, 302180, 302729, 303288]",33,R,ITM,1.1,
3,400,trial,0,8,8,8,trial,"['S', 'S', 'S', 'S', 'S', 'S', 'S', 'C', 'C', 'C', 'C', 'C', 'C', 'C', 'C', 'C', 'C', 'C', 'C', 'C', 'C', 'C', 'C']","[309028, 309521, 310156, 310575, 310968, 311317, 311742, 312147, 312491, 312808, 313156, 313541, 313909, 314272, 314642, 315008, 315406, 315786, 316154, 316533, 316900, 317233, 317667]","[309067, 309591, 310234, 310644, 311046, 311402, 311837, 312228, 312569, 312887, 313232, 313607, 313981, 314354, 314715, 315086, 315483, 315867, 316247, 316650, 317006, 317353, 317759]","[308746, 309145, 309545, 309945, 310345, 310746, 311145, 311545, 312173, 312516, 312834, 313182, 313567, 313934, 314298, 314668, 315033, 315431, 315811, 316180, 316559, 316925, 317258, 317692]",33,R,ITM,1.1,
2,600,trial,0,9,9,9,trial,"['S', 'S', 'S', 'S', 'S', 'S', 'S', 'S', 'C', 'C', 'C', 'C', 'C', 'C', 'C', 'C', 'C', 'C', 'C', 'C', 'C', 'C', 'C', 'C']","[323182, 323636, 324210, 324791, 325399, 326011, 326673, 327176, 327795, 328424, 329113, 329731, 330399, 331036, 331691, 332324, 332919, 333585, 334194, 334810, 335429, 336056, 336669, 337272]","[323255, 323732, 324290, 324873, 325471, 326116, 326747, 327250, 327871, 328499, 329201, 329820, 330477, 331111, 331735, 332393, 332985, 333651, 334261, 334876, 335513, 336123, 336752, 337375]","[323037, 323636, 324236, 324835, 325436, 326036, 326636, 327236, 327822, 328452, 329141, 329757, 330426, 331064, 331718, 332352, 332946, 333612, 334222, 334837, 335456, 336082, 336697, 337300]",33,R,ITM,1.1,
5,600,trial,0,10,10,10,trial,"['S', 'S', 'S', 'S', 'S', 'S', 'S', 'S', 'C', 'C', 'C', 'C', 'C', 'C', 'C', 'C', 'C', 'C', 'C', 'C', 'C', 'C', 'C', 'C']","[343116, 343525, 343963, 344542, 345142, 345709, 346319, 346972, 347549, 348141, 348726, 349389, 350002, 350574, 351195, 351772, 352346, 353003, 353639, 354227, 354837, 355440, 356020, 356610]","[343154, 343583, 344036, 344611, 345206, 345781, 346393, 347040, 347634, 348212, 348806, 349453, 350065, 350650, 351254, 351826, 352457, 353087, 353707, 354289, 354905, 355505, 356160, 356734]","[342782, 343382, 343982, 344582, 345181, 345781, 346381, 346981, 347575, 348168, 348751, 349415, 350027, 350601, 351220, 351798, 352371, 353029, 353665, 354252, 354863, 355466, 356046, 356636]",33,R,ITM,1.1,
4,400,trial,0,11,11,11,trial,"['S', 'S', 'S', 'S', 'S', 'S', 'C', 'C', 'C', 'C', 'C', 'C', 'C', 'C', 'C', 'C', 'C', 'C', 'C', 'C', 'C', 'C']","[362525, 362895, 363811, 364188, 364617, 365007, 365416, 365736, 366233, 366681, 367105, 367512, 367918, 368357, 368787, 369201, 369630, 370081, 370513, 370953, 371411, 371841]","[362580, 362978, 363878, 364270, 364709, 365103, 365505, 365844, 366323, 366802, 367209, 367627, 368015, 368447, 368866, 369283, 369715, 370146, 370573, 371017, 371466, 371918]","[362302, 362702, 363102, 363502, 363902, 364302, 364702, 365103, 365442, 365762, 366260, 366706, 367130, 367538, 367943, 368384, 368813, 369226, 369655, 370107, 370539, 370978, 371437, 371866]",33,R,ITM,1.1,
7,600,trial,0,12,12,12,trial,"['S', 'S', 'S', 'S', 'S', 'S', 'S', 'S', 'C', 'C', 'C', 'C', 'C', 'C', 'C', 'C', 'C', 'C', 'C', 'C', 'C', 'C', 'C', 'C']","[377493, 377918, 378516, 379114, 379657, 380223, 380841, 381485, 382024, 382649, 383254, 383890, 384509, 385110, 385736, 386349, 386941, 387527, 388151, 388737, 389345, 389966, 390587, 391229]","[377543, 378003, 378598, 379181, 379756, 380378, 380961, 381563, 382117, 382713, 383323, 383939, 384568, 385187, 385795, 386404, 387000, 387602, 388227, 388803, 389477, 390087, 390720, 391354]","[377257, 377857, 378457, 379057, 379656, 380256, 380856, 381456, 382051, 382675, 383282, 383917, 384536, 385137, 385763, 386376, 386968, 387555, 388177, 388764, 389371, 389994, 390615, 391257]",33,R,ITM,1.1,
5,400,trial,0,13,13,13,trial,"['S', 'S', 'S', 'S', 'S', 'C', 'C', 'C', 'C', 'C', 'C', 'C', 'C', 'C', 'C', 'C', 'C', 'C', 'C', 'C', 'C']","[396944, 398200, 398550, 398954, 399371, 399790, 400100, 400494, 400878, 401284, 401656, 402061, 402453, 402878, 403273, 403684, 404116, 404548, 404965, 405362, 405784]","[397001, 398275, 398646, 399046, 399461, 399875, 400203, 400593, 400959, 401360, 401753, 402145, 402533, 402955, 403350, 403765, 404208, 404640, 405053, 405453, 405870]","[396711, 397110, 397510, 397911, 398310, 398710, 399111, 399511, 399815, 400125, 400520, 400905, 401309, 401682, 402086, 402480, 402904, 403299, 403710, 404142, 404574, 404990, 405388, 405811]",33,R,ITM,1.1,
2,400,trial,0,14,14,14,trial,"['S', 'S', 'S', 'S', 'S', 'S', 'C', 'C', 'C', 'C', 'C', 'C', 'C', 'C', 'C', 'C', 'C', 'C', 'C', 'C', 'C', 'C']","[411436, 412282, 412719, 413090, 413473, 413913, 414330, 414716, 415116, 415507, 415901, 416300, 416673, 417099, 417507, 417938, 418305, 418676, 419087, 419500, 419860, 420277]","[411520, 412375, 412797, 413163, 413560, 413999, 414417, 414811, 415202, 415587, 415979, 416379, 416770, 417171, 417585, 418009, 418405, 418775, 419175, 419574, 419943, 420340]","[411174, 411574, 411974, 412375, 412774, 413174, 413575, 413973, 414358, 414744, 415142, 415534, 415929, 416327, 416701, 417126, 417534, 417965, 418331, 418704, 419115, 419527, 419888, 420303]",33,R,ITM,1.1,
5,600,trial,0,15,15,15,trial,"['S', 'S', 'S', 'S', 'S', 'S', 'S', 'S', 'C', 'C', 'C', 'C', 'C', 'C', 'C', 'C', 'C', 'C', 'C', 'C', 'C', 'C', 'C', 'C']","[426114, 426438, 427049, 427707, 428321, 428886, 429477, 430043, 430662, 431283, 431846, 432500, 433085, 433695, 434292, 434900, 435492, 436145, 436751, 437278, 437965, 438614, 439209, 439819]","[426177, 426507, 427138, 427784, 428379, 428955, 429550, 430112, 430721, 431340, 431916, 432566, 433167, 433766, 434357, 434969, 435581, 436212, 436815, 437350, 438046, 438705, 439326, 439964]","[425908, 426507, 427107, 427707, 428307, 428907, 429507, 430107, 430688, 431309, 431872, 432527, 433111, 433721, 434319, 434926, 435518, 436170, 436776, 437305, 437991, 438639, 439235, 439845]",33,R,ITM,1.1,
7,400,trial,0,16,16,16,trial,"['S', 'S', 'S', 'S', 'S', 'S', 'S', 'C', 'C', 'C', 'C', 'C', 'C', 'C', 'C', 'C', 'C', 'C', 'C', 'C', 'C', 'C', 'C']","[445798, 446151, 446603, 446985, 447411, 447842, 448289, 448689, 449113, 449550, 449959, 450352, 450779, 451191, 451607, 452029, 452488, 452942, 453360, 453798, 454220, 454634, 455240]","[445858, 446221, 446684, 447086, 447519, 447943, 448391, 448802, 449202, 449649, 450065, 450467, 450887, 451283, 451717, 452153, 452599, 453055, 453473, 453915, 454352, 454767, 455327]","[445556, 445956, 446355, 446755, 447155, 447555, 447955, 448355, 448715, 449139, 449576, 449987, 450379, 450805, 451218, 451635, 452056, 452514, 452969, 453387, 453826, 454247, 454662, 455267]",33,R,ITM,1.1,
3,400,trial,0,17,17,17,trial,"['S', 'S', 'S', 'S', 'S', 'S', 'S', 'S', 'C', 'C', 'C', 'C', 'C', 'C', 'C', 'C', 'C', 'C', 'C', 'C', 'C', 'C', 'C', 'C']","[461027, 461248, 461622, 461847, 462196, 462612, 462984, 463382, 463794, 464133, 464532, 464934, 465299, 465683, 466079, 466475, 466855, 467228, 467647, 468029, 468433, 468820, 469185, 469587]","[461080, 461319, 461679, 461926, 462280, 462705, 463083, 463466, 463870, 464227, 464617, 465013, 465375, 465779, 466180, 466565, 466947, 467322, 467728, 468126, 468539, 468947, 469318, 469691]","[460646, 461046, 461447, 461847, 462247, 462647, 463047, 463448, 463819, 464158, 464558, 464961, 465325, 465709, 466105, 466500, 466881, 467254, 467673, 468055, 468459, 468846, 469211, 469613]",33,R,ITM,1.1,
4,600,trial,0,18,18,18,trial,"['S', 'S', 'S', 'S', 'S', 'S', 'S', 'S', 'C', 'C', 'C', 'C', 'C', 'C', 'C', 'C', 'C', 'C', 'C', 'C', 'C', 'C', 'C', 'C']","[479155, 479472, 480060, 480691, 481321, 481900, 482523, 483130, 483708, 484294, 484895, 485501, 486061, 486678, 487304, 487910, 488510, 489147, 489780, 490398, 490996, 491662, 492268, 492873]","[479217, 479682, 480404, 481056, 481656, 482256, 482905, 483460, 483987, 484587, 485212, 485761, 486369, 487014, 487602, 488174, 488765, 489457, 490119, 490755, 491192, 491998, 492621]","[478921, 479521, 480121, 480721, 481321, 481922, 482522, 483122, 483735, 484320, 484922, 485527, 486086, 486704, 487329, 487936, 488536, 489172, 489806, 490424, 491022, 491687, 492294, 492899]",33,R,ITM,1.1,
7,400,trial,0,19,19,19,trial,"['S', 'S', 'S', 'S', 'S', 'S', 'S', 'C', 'C', 'C', 'C', 'C', 'C', 'C', 'C', 'C', 'C', 'C', 'C', 'C', 'C', 'C', 'C']","[498513, 498863, 499338, 499825, 500222, 500623, 501050, 501466, 501884, 502303, 502720, 503179, 503603, 504022, 504470, 504898, 505357, 505795, 506204, 506636, 507086, 507516, 507942]","[498575, 498944, 499442, 499909, 500294, 500700, 501131, 501528, 501940, 502360, 502776, 503243, 503668, 504122, 504568, 504977, 505466, 505886, 506324, 506759, 507202, 507630, 508054]","[498276, 498675, 499076, 499475, 499875, 500275, 500675, 501075, 501492, 501911, 502331, 502747, 503205, 503630, 504048, 504498, 504926, 505383, 505823, 506231, 506663, 507114, 507543, 507969]",33,R,ITM,1.1,
7,600,trial,0,20,20,20,trial,"['S', 'S', 'S', 'S', 'S', 'S', 'S', 'S', 'C', 'C', 'C', 'C', 'C', 'C', 'C', 'C', 'C', 'C', 'C', 'C', 'C', 'C', 'C', 'C']","[513545, 513844, 514344, 514958, 515578, 516211, 516860, 517475, 518072, 518678, 519297, 519939, 520563, 521189, 521794, 522421, 523022, 523643, 524259, 524890, 525475, 526074, 526623, 527277]","[513626, 513993, 514460, 515137, 515846, 516540, 517212, 517771, 518381, 519047, 519663, 520294, 520912, 521528, 522143, 522735, 523437, 523987, 524560, 525202, 525770, 526355, 526932]","[513261, 513860, 514460, 515060, 515660, 516260, 516860, 517460, 518098, 518706, 519324, 519966, 520591, 521216, 521822, 522447, 523048, 523671, 524285, 524916, 525502, 526102, 526650, 527304]",33,R,ITM,1.1,
2,400,trial,0,21,21,21,trial,"['S', 'S', 'S', 'S', 'S', 'S', 'S', 'C', 'C', 'C', 'C', 'C', 'C', 'C', 'C', 'C', 'C', 'C', 'C', 'C', 'C', 'C', 'C']","[532893, 533350, 533737, 534133, 534523, 534952, 535389, 535797, 536215, 536623, 537036, 537455, 537843, 538289, 538732, 539132, 539560, 539986, 540407, 540817, 541264, 541703, 542096]","[533001, 533441, 533827, 534217, 534633, 535067, 535498, 535902, 536336, 536718, 537136, 537537, 537943, 538378, 538816, 539232, 539679, 540096, 540532, 540952, 541378, 541817, 542264]","[532601, 533000, 533401, 533800, 534201, 534600, 535002, 535401, 535825, 536242, 536649, 537063, 537482, 537871, 538316, 538760, 539160, 539588, 540014, 540434, 540844, 541292, 541729, 542124]",33,R,ITM,1.1,
4,400,trial,0,22,22,22,trial,"['S', 'S', 'S', 'S', 'S', 'S', 'S', 'S', 'C', 'C', 'C', 'C', 'C', 'C', 'C', 'C', 'C', 'C', 'C', 'C', 'C', 'C', 'C', 'C']","[547972, 548329, 548627, 548932, 549308, 549689, 550091, 550498, 550893, 551297, 551739, 552150, 552513, 552913, 553328, 553701, 554116, 554570, 554980, 555375, 555800, 556231, 556628, 557086]","[548043, 548415, 548700, 549050, 549444, 549863, 550214, 550616, 551003, 551390, 551839, 552239, 552611, 553010, 553431, 553857, 554254, 554685, 555086, 555493, 555908, 556339, 556738, 557157]","[547744, 548144, 548543, 548943, 549343, 549743, 550144, 550543, 550919, 551323, 551764, 552175, 552540, 552939, 553354, 553726, 554141, 554596, 555006, 555402, 555826, 556257, 556655, 557112]",33,R,ITM,1.1,
3,600,trial,0,23,23,23,trial,"['S', 'S', 'S', 'S', 'S', 'S', 'S', 'S', 'C', 'C', 'C', 'C', 'C', 'C', 'C', 'C', 'C', 'C', 'C', 'C', 'C', 'C', 'C', 'C']","[563060, 563382, 563946, 564578, 565210, 565796, 566358, 566952, 567545, 568185, 568802, 569417, 570056, 570657, 571284, 571893, 572476, 573091, 573698, 574284, 574908, 575504, 576100, 576664]","[563135, 563642, 564382, 565025, 565571, 566155, 566704, 567304, 567997, 568610, 569206, 569788, 570469, 571054, 571645, 572255, 572903, 573464, 574043, 574658, 575247, 575844, 576399]","[562779, 563378, 563978, 564578, 565178, 565778, 566378, 566978, 567571, 568211, 568827, 569443, 570082, 570683, 571310, 571919, 572502, 573117, 573723, 574310, 574934, 575529, 576125, 576690]",33,R,ITM,1.1,
4,600,trial,0,24,24,24,trial,"['S', 'S', 'S', 'S', 'S', 'S', 'S', 'S', 'C', 'C', 'C', 'C', 'C', 'C', 'C', 'C', 'C', 'C', 'C', 'C', 'C', 'C', 'C', 'C']","[582325, 582701, 583279, 583854, 584468, 585079, 585674, 586260, 586873, 587491, 588124, 588749, 589360, 590009, 590654, 591270, 591902, 592510, 593162, 593799, 594435, 595068, 595686, 596350]","[582469, 583080, 583627, 584208, 584810, 585418, 586058, 586675, 587236, 587851, 588496, 589148, 589757, 590413, 591045, 591640, 592269, 592916, 593557, 594173, 594792, 595485, 596117]","[582098, 582697, 583298, 583898, 584498, 585098, 585698, 586298, 586899, 587516, 588149, 588775, 589385, 590034, 590680, 591296, 591928, 592536, 593187, 593825, 594460, 595094, 595712, 596377]",33,R,ITM,1.1,
6,600,trial,0,25,25,25,trial,"['S', 'S', 'S', 'S', 'S', 'S', 'S', 'S', 'C', 'C', 'C', 'C', 'C', 'C', 'C', 'C', 'C', 'C', 'C', 'C', 'C', 'C', 'C', 'C']","[602167, 602562, 603140, 603746, 604366, 604971, 605563, 606127, 606711, 607368, 607996, 608606, 609224, 609848, 610438, 611068, 611665, 612294, 612912, 613524, 614117, 614770, 615385, 615971]","[602253, 602950, 603559, 604133, 604649, 605321, 605875, 606356, 606961, 607634, 608328, 608860, 609519, 610152, 610715, 611367, 611914, 612617, 613297, 613952, 614589, 615149, 615734]","[601963, 602562, 603162, 603762, 604362, 604962, 605562, 606162, 606738, 607394, 608024, 608632, 609251, 609874, 610464, 611095, 611692, 612321, 612938, 613551, 614144, 614798, 615411, 615998]",33,R,ITM,1.1,
6,400,trial,0,26,26,26,trial,"['S', 'S', 'S', 'S', 'S', 'S', 'S', 'S', 'C', 'C', 'C', 'C', 'C', 'C', 'C', 'C', 'C', 'C', 'C', 'C', 'C', 'C', 'C', 'C']","[621545, 621957, 622288, 622514, 622891, 623253, 623659, 624078, 624498, 624863, 625230, 625644, 626032, 626432, 626833, 627244, 627653, 628064, 628459, 628868, 629273, 629701, 630126, 630535]","[621650, 622056, 622377, 622641, 623016, 623399, 623800, 624208, 624642, 624996, 625384, 625772, 626156, 626569, 626959, 627383, 627777, 628173, 628571, 629021, 629420, 629830, 630276, 630672]","[621341, 621741, 622140, 622540, 622941, 623340, 623740, 624140, 624525, 624889, 625257, 625672, 626060, 626459, 626860, 627270, 627680, 628090, 628486, 628895, 629300, 629728, 630153, 630562]",33,R,ITM,1.1,
6,400,trial,0,27,27,27,trial,"['S', 'S', 'S', 'S', 'S', 'S', 'S', 'S', 'C', 'C', 'C', 'C', 'C', 'C', 'C', 'C', 'C', 'C', 'C', 'C', 'C', 'C', 'C', 'C']","[636482, 636864, 637171, 637552, 637920, 638289, 638672, 639049, 639480, 639840, 640228, 640643, 641050, 641479, 641867, 642277, 642652, 643061, 643473, 643875, 644312, 644709, 645109, 645493]","[636581, 636963, 637262, 637670, 638038, 638423, 638780, 639150, 639566, 639920, 640334, 640734, 641175, 641601, 642000, 642411, 642799, 643180, 643564, 643991, 644429, 644836, 645236, 645628]","[636316, 636717, 637116, 637516, 637917, 638316, 638716, 639116, 639508, 639866, 640256, 640669, 641078, 641507, 641895, 642304, 642678, 643088, 643500, 643902, 644339, 644737, 645136, 645520]",33,R,ITM,1.1,
5,400,trial,0,28,28,28,trial,"['S', 'S', 'S', 'S', 'S', 'S', 'S', 'S', 'C', 'C', 'C', 'C', 'C', 'C', 'C', 'C', 'C', 'C', 'C', 'C', 'C', 'C', 'C', 'C']","[651483, 651814, 652132, 652503, 652902, 653289, 653668, 654047, 654464, 654868, 655250, 655659, 656078, 656472, 656889, 657258, 657707, 658172, 658618, 659034, 659434, 659879, 660326, 660724]","[651574, 651908, 652225, 652618, 652995, 653388, 653777, 654148, 654550, 654990, 655397, 655779, 656222, 656587, 656999, 657442, 657885, 658320, 658767, 659192, 659595, 660037, 660427, 660885]","[651290, 651689, 652089, 652489, 652890, 653289, 653689, 654089, 654489, 654894, 655276, 655684, 656105, 656497, 656916, 657284, 657733, 658198, 658643, 659059, 659460, 659905, 660352, 660750]",33,R,ITM,1.1,
3,600,trial,0,29,29,29,trial,"['S', 'S', 'S', 'S', 'S', 'S', 'S', 'S', 'C', 'C', 'C', 'C', 'C', 'C', 'C', 'C', 'C', 'C', 'C', 'C', 'C', 'C', 'C', 'C']","[666504, 666808, 667403, 668059, 668672, 669243, 669864, 670448, 671051, 671670, 672269, 672869, 673457, 674083, 674712, 675340, 675956, 676586, 677175, 677774, 678382, 678955, 679613, 680189]","[666589, 667201, 667889, 668454, 669030, 669607, 670256, 670821, 671458, 672041, 672606, 673252, 673851, 674486, 675088, 675736, 676317, 676925, 677496, 678085, 678711, 679286, 679982]","[666259, 666859, 667459, 668059, 668659, 669259, 669859, 670459, 671077, 671695, 672294, 672894, 673482, 674109, 674738, 675365, 675982, 676612, 677200, 677799, 678408, 678980, 679639, 680215]",33,R,ITM,1.1,
3,400,trial,0,30,30,30,trial,"['S', 'S', 'S', 'S', 'S', 'S', 'S', 'S', 'C', 'C', 'C', 'C', 'C', 'C', 'C', 'C', 'C', 'C', 'C', 'C', 'C', 'C', 'C', 'C']","[690394, 690726, 691022, 691351, 691720, 692101, 692510, 692915, 693291, 693701, 694102, 694479, 694906, 695326, 695687, 696072, 696509, 696928, 697347, 697774, 698207, 698622, 698996, 699410]","[690506, 690843, 691128, 691488, 691842, 692231, 692637, 693038, 693408, 693822, 694217, 694596, 695011, 695432, 695797, 696198, 696627, 697056, 697478, 697868, 698295, 698714, 699122, 699534]","[690171, 690571, 690971, 691372, 691771, 692171, 692572, 692971, 693316, 693727, 694127, 694505, 694932, 695352, 695712, 696097, 696535, 696953, 697372, 697799, 698232, 698647, 699022, 699436]",33,R,ITM,1.1,
7,600,trial,0,31,31,31,trial,"['S', 'S', 'S', 'S', 'S', 'S', 'S', 'S', 'C', 'C', 'C', 'C', 'C', 'C', 'C', 'C', 'C', 'C', 'C', 'C', 'C', 'C', 'C', 'C']","[705277, 705716, 706317, 706931, 707504, 708094, 708716, 709299, 709909, 710504, 711095, 711717, 712357, 712963, 713582, 714201, 715205, 715897, 716522, 717157, 717806, 718426, 719094, 719715]","[705368, 705988, 706622, 707165, 707795, 708441, 709019, 709610, 710236, 710848, 711457, 712064, 712700, 713385, 713997, 714636, 715559, 716268, 716925, 717552, 718187, 718779, 719459]","[705118, 705716, 706316, 706916, 707516, 708116, 708716, 709316, 709937, 710531, 711121, 711744, 712385, 712990, 713609, 714227, 715232, 715924, 716549, 717184, 717834, 718453, 719121, 719742]",33,R,ITM,1.1,
7,400,trial,0,32,32,32,trial,"['S', 'S', 'S', 'S', 'S', 'S', 'S', 'C', 'C', 'C', 'C', 'C', 'C', 'C', 'C', 'C', 'C', 'C', 'C', 'C', 'C', 'C', 'C']","[725341, 725744, 726151, 726591, 726961, 727404, 727812, 728233, 728642, 729019, 729416, 729815, 730207, 730591, 730981, 731353, 731742, 732179, 732552, 732938, 733332, 733722, 734077]","[725428, 725884, 726276, 726707, 727090, 727490, 727925, 728378, 728739, 729149, 729535, 729906, 730317, 730717, 731091, 731464, 731865, 732278, 732678, 733071, 733445, 733834, 734201]","[725107, 725507, 725906, 726306, 726707, 727107, 727507, 727907, 728261, 728669, 729046, 729444, 729841, 730233, 730617, 731008, 731380, 731769, 732207, 732579, 732965, 733360, 733749, 734104]",33,R,ITM,1.1,
4,600,trial,0,33,33,33,trial,"['S', 'S', 'S', 'S', 'S', 'S', 'S', 'S', 'C', 'C', 'C', 'C', 'C', 'C', 'C', 'C', 'C', 'C', 'C', 'C', 'C', 'C', 'C', 'C']","[739725, 740120, 740710, 741302, 741922, 742511, 743080, 743662, 744274, 744879, 745474, 746044, 746655, 747241, 747855, 748494, 749085, 749707, 750344, 750875, 751500, 752111, 752726, 753303]","[739801, 740485, 741000, 741622, 742182, 742802, 743350, 743968, 744578, 745190, 745814, 746405, 747024, 747586, 748197, 748833, 749417, 750023, 750631, 751214, 751813, 752406, 753092]","[739521, 740120, 740720, 741320, 741920, 742520, 743120, 743720, 744300, 744904, 745499, 746070, 746681, 747267, 747882, 748521, 749111, 749732, 750369, 750901, 751525, 752137, 752751, 753330]",33,R,ITM,1.1,
2,400,trial,0,34,34,34,trial,"['S', 'S', 'S', 'S', 'S', 'S', 'S', 'S', 'C', 'C', 'C', 'C', 'C', 'C', 'C', 'C', 'C', 'C', 'C', 'C', 'C', 'C', 'C', 'C']","[759129, 759490, 759778, 760098, 760482, 760868, 761300, 761673, 762083, 762469, 762860, 763264, 763661, 764058, 764442, 764864, 765262, 765700, 766091, 766488, 766874, 767282, 767671, 768079]","[759220, 759564, 759906, 760212, 760607, 760999, 761392, 761778, 762192, 762592, 762978, 763370, 763784, 764186, 764581, 764990, 765344, 765787, 766225, 766606, 767009, 767387, 767750, 768173]","[758930, 759330, 759730, 760130, 760529, 760929, 761330, 761731, 762110, 762497, 762887, 763291, 763688, 764085, 764469, 764892, 765290, 765726, 766118, 766516, 766901, 767308, 767698, 768106]",33,R,ITM,1.1,
2,400,trial,0,35,35,35,trial,"['S', 'S', 'S', 'S', 'S', 'S', 'S', 'S', 'C', 'C', 'C', 'C', 'C', 'C', 'C', 'C', 'C', 'C', 'C', 'C', 'C', 'C', 'C', 'C']","[773837, 774161, 774404, 774796, 775181, 775588, 775952, 776359, 776753, 777167, 777579, 777961, 778365, 778767, 779157, 779531, 779968, 780388, 780781, 781199, 781591, 781980, 782393, 782779]","[773907, 774231, 774533, 774909, 775290, 775692, 776081, 776482, 776893, 777295, 777694, 778089, 778500, 778890, 779298, 779698, 780108, 780539, 780882, 781292, 781737, 782113, 782517, 782931]","[773613, 774014, 774414, 774814, 775214, 775614, 776013, 776415, 776780, 777195, 777607, 777988, 778392, 778795, 779185, 779557, 779996, 780414, 780809, 781227, 781619, 782008, 782420, 782806]",33,R,ITM,1.1,
7,400,trial,0,36,36,36,trial,"['S', 'S', 'S', 'S', 'S', 'S', 'S', 'S', 'C', 'C', 'C', 'C', 'C', 'C', 'C', 'C', 'C', 'C', 'C', 'C', 'C', 'C', 'C', 'C']","[788387, 788722, 789081, 789455, 789835, 790241, 790631, 791017, 791393, 791806, 792216, 792606, 793006, 793436, 793849, 794260, 794664, 795124, 795495, 795918, 796340, 796727, 797155, 797504]","[788457, 788819, 789199, 789544, 789924, 790340, 790744, 791114, 791502, 791908, 792335, 792738, 793147, 793586, 793984, 794394, 794782, 795225, 795663, 796066, 796484, 796859, 797276, 797644]","[788232, 788630, 789030, 789430, 789830, 790231, 790630, 791030, 791419, 791833, 792244, 792633, 793032, 793463, 793876, 794288, 794691, 795151, 795523, 795945, 796366, 796753, 797181, 797531]",33,R,ITM,1.1,
3,400,trial,0,37,37,37,trial,"['S', 'S', 'S', 'S', 'S', 'S', 'S', 'S', 'C', 'C', 'C', 'C', 'C', 'C', 'C', 'C', 'C', 'C', 'C', 'C', 'C', 'C', 'C', 'C']","[803084, 803363, 803715, 804109, 804481, 804870, 805276, 805629, 806062, 806414, 806821, 807202, 807592, 807994, 808408, 808798, 809212, 809637, 809998, 810421, 810847, 811260, 811652, 812040]","[803142, 803468, 803847, 804214, 804591, 804981, 805349, 805709, 806134, 806499, 806896, 807299, 807686, 808102, 808521, 808913, 809318, 809729, 810125, 810526, 810948, 811370, 811792, 812197]","[802909, 803309, 803709, 804109, 804509, 804910, 805309, 805709, 806087, 806439, 806847, 807228, 807618, 808019, 808433, 808823, 809238, 809663, 810023, 810446, 810872, 811286, 811677, 812065]",33,R,ITM,1.1,
4,600,trial,0,38,38,38,trial,"['S', 'S', 'S', 'S', 'S', 'S', 'S', 'S', 'C', 'C', 'C', 'C', 'C', 'C', 'C', 'C', 'C', 'C', 'C', 'C', 'C', 'C', 'C', 'C']","[817825, 818071, 818665, 819318, 819933, 820575, 821178, 821777, 822387, 823019, 823618, 824215, 824785, 825400, 826046, 826668, 827297, 827887, 828511, 829103, 829681, 830264, 830906, 831495]","[817902, 818236, 819043, 819702, 820356, 820941, 821556, 822119, 822687, 823333, 823963, 824547, 825140, 825787, 826402, 827039, 827588, 828143, 828774, 829427, 830038, 830558, 831188]","[817586, 818186, 818786, 819386, 819986, 820586, 821186, 821786, 822413, 823045, 823644, 824241, 824811, 825425, 826072, 826693, 827323, 827914, 828537, 829129, 829707, 830289, 830931, 831520]",33,R,ITM,1.1,
7,600,trial,0,39,39,39,trial,"['S', 'S', 'S', 'S', 'S', 'S', 'S', 'S', 'C', 'C', 'C', 'C', 'C', 'C', 'C', 'C', 'C', 'C', 'C', 'C', 'C', 'C', 'C', 'C']","[837430, 837761, 838345, 838985, 839604, 840212, 840806, 841408, 842025, 842599, 843208, 843804, 844414, 845011, 845590, 846177, 846817, 847380, 847955, 848543, 849148, 849690, 850361, 850958]","[837501, 837958, 838701, 839313, 839828, 840390, 841007, 841674, 842248, 842828, 843445, 843998, 844612, 845246, 845790, 846388, 847011, 847605, 848189, 848731, 849355, 849931, 850614]","[837223, 837822, 838422, 839022, 839622, 840222, 840822, 841422, 842051, 842627, 843235, 843831, 844442, 845039, 845617, 846203, 846843, 847408, 847983, 848571, 849176, 849718, 850387, 850984]",33,R,ITM,1.1,
6,400,trial,0,40,40,40,trial,"['S', 'S', 'S', 'S', 'S', 'S', 'S', 'S', 'C', 'C', 'C', 'C', 'C', 'C', 'C', 'C', 'C', 'C', 'C', 'C', 'C', 'C', 'C', 'C']","[856944, 857243, 857530, 857864, 858254, 858657, 859068, 859458, 859862, 860216, 860574, 860950, 861372, 861783, 862177, 862579, 862990, 863368, 863813, 864223, 864624, 865002, 865447, 865855]","[857019, 857321, 857622, 857975, 858352, 858757, 859144, 859531, 859932, 860294, 860680, 861059, 861458, 861872, 862301, 862686, 863080, 863468, 863902, 864305, 864729, 865121, 865580, 865976]","[856692, 857093, 857492, 857892, 858292, 858692, 859092, 859492, 859888, 860242, 860602, 860977, 861399, 861809, 862203, 862606, 863016, 863395, 863840, 864249, 864652, 865030, 865474, 865882]",33,R,ITM,1.1,
2,600,trial,0,41,41,41,trial,"['S', 'S', 'S', 'S', 'S', 'S', 'S', 'S', 'C', 'C', 'C', 'C', 'C', 'C', 'C', 'C', 'C', 'C', 'C', 'C', 'C', 'C', 'C', 'C']","[871513, 871906, 872494, 873054, 873661, 874266, 874882, 875493, 876073, 876654, 877268, 877840, 878425, 879035, 879594, 880188, 880769, 881354, 881960, 882514, 883118, 883707, 884288, 884884]","[871606, 872165, 872706, 873341, 873947, 874557, 875086, 875720, 876313, 876819, 877385, 878078, 878623, 879182, 879815, 880334, 880905, 881494, 882077, 882661, 883236, 883824, 884449, 885046]","[871293, 871894, 872494, 873094, 873694, 874293, 874893, 875493, 876099, 876681, 877296, 877868, 878452, 879063, 879621, 880215, 880796, 881382, 881987, 882542, 883145, 883735, 884315, 884911]",33,R,ITM,1.1,
5,600,trial,0,42,42,42,trial,"['S', 'S', 'S', 'S', 'S', 'S', 'S', 'S', 'C', 'C', 'C', 'C', 'C', 'C', 'C', 'C', 'C', 'C', 'C', 'C', 'C', 'C', 'C', 'C']","[893721, 894166, 894704, 895292, 895849, 896498, 897073, 897679, 898286, 898875, 899436, 900043, 900625, 901210, 901816, 902384, 902976, 903562, 904134, 904733, 905317, 905899, 906481, 907076]","[893816, 894337, 894946, 895466, 896027, 896661, 897231, 897812, 898406, 898982, 899547, 900164, 900737, 901324, 901919, 902480, 903078, 903691, 904241, 904833, 905437, 906041, 906643, 907259]","[893576, 894176, 894776, 895376, 895976, 896576, 897176, 897776, 898312, 898900, 899462, 900069, 900651, 901235, 901841, 902410, 903002, 903587, 904160, 904760, 905342, 905924, 906508, 907102]",33,R,ITM,1.1,
6,600,trial,0,43,43,43,trial,"['S', 'S', 'S', 'S', 'S', 'S', 'S', 'S', 'C', 'C', 'C', 'C', 'C', 'C', 'C', 'C', 'C', 'C', 'C', 'C', 'C', 'C', 'C', 'C']","[912805, 913216, 913757, 914355, 914961, 915589, 916244, 916878, 917464, 918092, 918719, 919350, 919980, 920600, 921197, 921842, 922431, 923075, 923639, 924274, 924814, 925494, 926075, 926681]","[912912, 913383, 913931, 914573, 915203, 915825, 916462, 917066, 917614, 918252, 918904, 919505, 920092, 920769, 921299, 921952, 922522, 923169, 923771, 924418, 924999, 925673, 926228, 926829]","[912646, 913245, 913844, 914444, 915044, 915644, 916244, 916844, 917491, 918120, 918746, 919376, 920006, 920627, 921224, 921870, 922459, 923103, 923667, 924301, 924840, 925520, 926102, 926708]",33,R,ITM,1.1,
5,400,trial,0,44,44,44,trial,"['S', 'S', 'S', 'S', 'S', 'S', 'S', 'C', 'C', 'C', 'C', 'C', 'C', 'C', 'C', 'C', 'C', 'C', 'C', 'C', 'C', 'C', 'C']","[932704, 933194, 933511, 933900, 934318, 934734, 935178, 935578, 935938, 936379, 936788, 937190, 937604, 937996, 938387, 938787, 939223, 939631, 940060, 940477, 940899, 941285, 941741]","[932796, 933303, 933608, 933995, 934407, 934837, 935278, 935669, 936052, 936480, 936873, 937280, 937712, 938112, 938497, 938881, 939320, 939743, 940157, 940552, 941019, 941410, 941832]","[932395, 932794, 933194, 933595, 933994, 934394, 934794, 935194, 935604, 935963, 936404, 936814, 937216, 937630, 938021, 938413, 938813, 939248, 939657, 940086, 940503, 940924, 941310, 941766]",33,R,ITM,1.1,
6,400,trial,0,45,45,45,trial,"['S', 'S', 'S', 'S', 'S', 'S', 'S', 'S', 'C', 'C', 'C', 'C', 'C', 'C', 'C', 'C', 'C', 'C', 'C', 'C', 'C', 'C', 'C', 'C']","[947791, 948096, 948434, 948738, 949094, 949493, 949856, 950215, 950566, 950950, 951326, 951745, 952131, 952554, 952961, 953344, 953739, 954149, 954527, 954929, 955331, 955740, 956091, 956503]","[947866, 948186, 948502, 948823, 949182, 949564, 949929, 950290, 950652, 951031, 951415, 951824, 952205, 952644, 953048, 953424, 953816, 954210, 954597, 955009, 955422, 955821, 956175, 956577]","[947486, 947886, 948285, 948685, 949086, 949486, 949886, 950286, 950593, 950977, 951353, 951773, 952158, 952582, 952987, 953370, 953765, 954177, 954554, 954955, 955359, 955766, 956119, 956529]",33,R,ITM,1.1,
3,600,trial,0,46,46,46,trial,"['S', 'S', 'S', 'S', 'S', 'S', 'S', 'S', 'C', 'C', 'C', 'C', 'C', 'C', 'C', 'C', 'C', 'C', 'C', 'C', 'C', 'C', 'C', 'C']","[962161, 962530, 963167, 963760, 964385, 964983, 965588, 966137, 966722, 967341, 967934, 968525, 969132, 969739, 970315, 970892, 971454, 972040, 972625, 973195, 973809, 974410, 974986, 975556]","[962224, 962646, 963435, 963880, 964528, 965114, 965702, 966256, 966839, 967435, 968085, 968656, 969228, 969849, 970437, 970990, 971577, 972158, 972766, 973312, 973913, 974502, 975102, 975649]","[962006, 962605, 963205, 963805, 964405, 965005, 965605, 966205, 966748, 967366, 967960, 968551, 969157, 969764, 970341, 970917, 971480, 972065, 972651, 973220, 973835, 974436, 975011, 975582]",33,R,ITM,1.1,
4,400,trial,0,47,47,47,trial,"['S', 'S', 'S', 'S', 'S', 'S', 'S', 'S', 'C', 'C', 'C', 'C', 'C', 'C', 'C', 'C', 'C', 'C', 'C', 'C', 'C', 'C', 'C', 'C']","[981561, 981926, 982223, 982562, 982944, 983335, 983734, 984152, 984570, 984968, 985384, 985801, 986215, 986611, 987046, 987438, 987843, 988272, 988734, 989188, 989655, 990089, 990481, 990902]","[981644, 982018, 982300, 982645, 983023, 983403, 983810, 984214, 984644, 985037, 985457, 985876, 986286, 986694, 987139, 987539, 987922, 988372, 988838, 989297, 989749, 990191, 990581, 991006]","[981362, 981763, 982162, 982562, 982962, 983362, 983762, 984162, 984596, 984993, 985410, 985828, 986241, 986638, 987072, 987463, 987869, 988298, 988761, 989213, 989680, 990114, 990507, 990927]",33,R,ITM,1.1,
6,600,trial,0,48,48,48,trial,"['S', 'S', 'S', 'S', 'S', 'S', 'S', 'S', 'C', 'C', 'C', 'C', 'C', 'C', 'C', 'C', 'C', 'C', 'C', 'C', 'C', 'C', 'C', 'C']","[996879, 997201, 997827, 998463, 999090, 999684, 1000292, 1000880, 1001468, 1002095, 1002689, 1003284, 1003850, 1004464, 1005042, 1005632, 1006182, 1006822, 1007477, 1008059, 1008684, 1009321, 1009965, 1010604]","[996950, 997443, 998177, 998838, 999371, 1000023, 1000551, 1001060, 1001671, 1002284, 1002865, 1003478, 1004060, 1004659, 1005176, 1005809, 1006368, 1007048, 1007710, 1008279, 1008944, 1009637, 1010289]","[996680, 997279, 997879, 998479, 999079, 999680, 1000280, 1000880, 1001495, 1002122, 1002717, 1003311, 1003877, 1004491, 1005069, 1005659, 1006209, 1006850, 1007504, 1008086, 1008710, 1009348, 1009991, 1010630]",33,R,ITM,1.1,
5,600,trial,0,49,49,49,trial,"['S', 'S', 'S', 'S', 'S', 'S', 'S', 'S', 'C', 'C', 'C', 'C', 'C', 'C', 'C', 'C', 'C', 'C', 'C', 'C', 'C', 'C', 'C', 'C']","[1016235, 1016610, 1017162, 1017771, 1018335, 1018903, 1019517, 1020129, 1020782, 1021386, 1021975, 1022563, 1023177, 1023720, 1024357, 1024988, 1025646, 1026285, 1026918, 1027519, 1028174, 1028744, 1029454, 1030128]","[1016318, 1016797, 1017318, 1017933, 1018540, 1019251, 1019851, 1020355, 1020946, 1021563, 1022176, 1022764, 1023433, 1024044, 1024736, 1025275, 1025907, 1026539, 1027163, 1027762, 1028460, 1029114, 1029798]","[1016025, 1016625, 1017224, 1017824, 1018424, 1019024, 1019624, 1020224, 1020808, 1021412, 1022001, 1022588, 1023204, 1023746, 1024382, 1025014, 1025672, 1026311, 1026944, 1027545, 1028200, 1028769, 1029480, 1030154]",33,R,ITM,1.1,
5,400,trial,0,50,50,50,trial,"['S', 'S', 'S', 'S', 'S', 'S', 'S', 'C', 'C', 'C', 'C', 'C', 'C', 'C', 'C', 'C', 'C', 'C', 'C', 'C', 'C', 'C', 'C']","[1036173, 1036561, 1036955, 1037388, 1037764, 1038135, 1038536, 1038949, 1039287, 1039691, 1040068, 1040468, 1040856, 1041240, 1041623, 1042041, 1042428, 1042825, 1043252, 1043679, 1044049, 1044483, 1044864]","[1036249, 1036664, 1037034, 1037474, 1037833, 1038204, 1038610, 1039012, 1039365, 1039776, 1040156, 1040573, 1040969, 1041329, 1041747, 1042164, 1042550, 1042934, 1043355, 1043790, 1044173, 1044599, 1044980]","[1035844, 1036243, 1036643, 1037043, 1037444, 1037843, 1038243, 1038643, 1038974, 1039313, 1039717, 1040095, 1040494, 1040881, 1041265, 1041648, 1042067, 1042454, 1042851, 1043277, 1043704, 1044075, 1044508, 1044889]",33,R,ITM,1.1,
4,400,trial,0,51,51,51,trial,"['S', 'S', 'S', 'S', 'S', 'S', 'S', 'S', 'C', 'C', 'C', 'C', 'C', 'C', 'C', 'C', 'C', 'C', 'C', 'C', 'C', 'C', 'C', 'C']","[1050691, 1051121, 1051420, 1051740, 1052058, 1052420, 1052828, 1053219, 1053646, 1053963, 1054344, 1054688, 1055065, 1055440, 1055810, 1056206, 1056609, 1056988, 1057370, 1057746, 1058124, 1058503, 1058859, 1059254]","[1050798, 1051231, 1051517, 1051835, 1052184, 1052514, 1052921, 1053313, 1053721, 1054039, 1054426, 1054793, 1055161, 1055535, 1055922, 1056301, 1056707, 1057086, 1057479, 1057852, 1058211, 1058597, 1058982, 1059371]","[1050532, 1050931, 1051331, 1051731, 1052131, 1052531, 1052932, 1053331, 1053672, 1053988, 1054370, 1054713, 1055090, 1055466, 1055836, 1056232, 1056634, 1057013, 1057395, 1057772, 1058150, 1058529, 1058884, 1059279]",33,R,ITM,1.1,
2,600,trial,0,52,52,52,trial,"['S', 'S', 'S', 'S', 'S', 'S', 'S', 'S', 'C', 'C', 'C', 'C', 'C', 'C', 'C', 'C', 'C', 'C', 'C', 'C', 'C', 'C', 'C', 'C']","[1065271, 1065616, 1066185, 1066793, 1067410, 1068020, 1068633, 1069179, 1069802, 1070406, 1071013, 1071620, 1072228, 1072852, 1073458, 1074068, 1074682, 1075310, 1075945, 1076558, 1077158, 1077772, 1078344, 1078982]","[1065346, 1065854, 1066497, 1067155, 1067726, 1068293, 1068773, 1069443, 1070042, 1070659, 1071244, 1071923, 1072599, 1073200, 1073793, 1074407, 1075011, 1075581, 1076212, 1076870, 1077403, 1077988, 1078758]","[1065043, 1065643, 1066244, 1066844, 1067444, 1068043, 1068644, 1069244, 1069829, 1070434, 1071041, 1071646, 1072254, 1072880, 1073484, 1074095, 1074710, 1075338, 1075972, 1076586, 1077186, 1077799, 1078371, 1079009]",33,R,ITM,1.1,
3,600,trial,0,53,53,53,trial,"['S', 'S', 'S', 'S', 'S', 'S', 'S', 'S', 'C', 'C', 'C', 'C', 'C', 'C', 'C', 'C', 'C', 'C', 'C', 'C', 'C', 'C', 'C', 'C']","[1084810, 1085176, 1085689, 1086278, 1086893, 1087508, 1088126, 1088698, 1089307, 1089917, 1090523, 1091132, 1091743, 1092334, 1092956, 1093557, 1094179, 1094813, 1095455, 1096076, 1096707, 1097299, 1097943, 1098602]","[1084910, 1085372, 1085984, 1086558, 1087128, 1087803, 1088407, 1088997, 1089585, 1090230, 1090844, 1091489, 1092090, 1092643, 1093236, 1093853, 1094511, 1095138, 1095793, 1096420, 1097007, 1097663, 1098267]","[1084553, 1085153, 1085753, 1086353, 1086953, 1087553, 1088153, 1088753, 1089333, 1089943, 1090548, 1091158, 1091769, 1092360, 1092981, 1093582, 1094205, 1094839, 1095481, 1096101, 1096732, 1097325, 1097968, 1098628]",33,R,ITM,1.1,
7,600,trial,0,54,54,54,trial,"['S', 'S', 'S', 'S', 'S', 'S', 'S', 'S', 'C', 'C', 'C', 'C', 'C', 'C', 'C', 'C', 'C', 'C', 'C', 'C', 'C', 'C', 'C', 'C']","[1106694, 1107064, 1107585, 1108164, 1108774, 1109378, 1109987, 1110598, 1111201, 1111827, 1112433, 1113046, 1113713, 1114338, 1114940, 1115589, 1116226, 1116839, 1117440, 1118027, 1118636, 1119251, 1119902, 1120492]","[1106808, 1107313, 1107895, 1108434, 1109033, 1109624, 1110219, 1110825, 1111400, 1112043, 1112643, 1113330, 1113933, 1114545, 1115159, 1115822, 1116382, 1117048, 1117644, 1118234, 1118838, 1119462, 1120064, 1120695]","[1106419, 1107019, 1107619, 1108219, 1108819, 1109420, 1110020, 1110620, 1111229, 1111854, 1112460, 1113072, 1113741, 1114365, 1114968, 1115616, 1116253, 1116866, 1117467, 1118055, 1118663, 1119278, 1119930, 1120520]",33,R,ITM,1.1,
4,600,trial,0,55,55,55,trial,"['S', 'S', 'S', 'S', 'S', 'S', 'S', 'S', 'C', 'C', 'C', 'C', 'C', 'C', 'C', 'C', 'C', 'C', 'C', 'C', 'C', 'C', 'C', 'C']","[1126209, 1126551, 1127130, 1127724, 1128309, 1128909, 1129535, 1130130, 1130726, 1131318, 1131942, 1132554, 1133146, 1133746, 1134410, 1135041, 1135662, 1136240, 1136875, 1137471, 1138054, 1138692, 1139311, 1139899]","[1126331, 1126907, 1127486, 1128046, 1128612, 1129252, 1129812, 1130459, 1131073, 1131719, 1132335, 1132891, 1133446, 1134073, 1134657, 1135283, 1135844, 1136444, 1137056, 1137718, 1138328, 1138979, 1139567]","[1125964, 1126563, 1127163, 1127763, 1128364, 1128964, 1129564, 1130163, 1130752, 1131343, 1131968, 1132580, 1133171, 1133771, 1134436, 1135067, 1135687, 1136266, 1136901, 1137497, 1138079, 1138717, 1139337, 1139924]",33,R,ITM,1.1,
2,600,trial,0,56,56,56,trial,"['S', 'S', 'S', 'S', 'S', 'S', 'S', 'S', 'C', 'C', 'C', 'C', 'C', 'C', 'C', 'C', 'C', 'C', 'C', 'C', 'C', 'C', 'C', 'C']","[1145672, 1146106, 1146649, 1147308, 1147879, 1148492, 1149043, 1149668, 1150267, 1150917, 1151526, 1152156, 1152775, 1153423, 1154026, 1154637, 1155217, 1155838, 1156433, 1157042, 1157657, 1158281, 1158859, 1159465]","[1145774, 1146373, 1147012, 1147629, 1148192, 1148795, 1149390, 1149932, 1150554, 1151225, 1151898, 1152545, 1153175, 1153751, 1154302, 1154985, 1155614, 1156188, 1156707, 1157328, 1157970, 1158599, 1159174, 1159721]","[1145492, 1146092, 1146692, 1147292, 1147892, 1148491, 1149092, 1149692, 1150294, 1150945, 1151554, 1152184, 1152802, 1153451, 1154053, 1154664, 1155245, 1155866, 1156461, 1157069, 1157684, 1158307, 1158887, 1159493]",33,R,ITM,1.1,
3,400,trial,0,57,57,57,trial,"['S', 'S', 'S', 'S', 'S', 'S', 'S', 'S', 'C', 'C', 'C', 'C', 'C', 'C', 'C', 'C', 'C', 'C', 'C', 'C', 'C', 'C', 'C', 'C']","[1165050, 1165461, 1165757, 1166093, 1166444, 1166855, 1167240, 1167640, 1168062, 1168459, 1168859, 1169241, 1169667, 1170078, 1170457, 1170873, 1171253, 1171676, 1172092, 1172477, 1172873, 1173335, 1173712, 1174094]","[1165185, 1165575, 1165844, 1166190, 1166524, 1166939, 1167328, 1167721, 1168133, 1168536, 1168944, 1169328, 1169747, 1170158, 1170568, 1170979, 1171349, 1171774, 1172187, 1172578, 1172972, 1173427, 1173825, 1174208]","[1164884, 1165283, 1165683, 1166084, 1166483, 1166883, 1167283, 1167683, 1168088, 1168485, 1168884, 1169266, 1169692, 1170104, 1170484, 1170898, 1171278, 1171701, 1172118, 1172503, 1172898, 1173360, 1173738, 1174120]",33,R,ITM,1.1,
3,400,trial,0,58,58,58,trial,"['S', 'S', 'S', 'S', 'S', 'S', 'S', 'S', 'C', 'C', 'C', 'C', 'C', 'C', 'C', 'C', 'C', 'C', 'C', 'C', 'C', 'C', 'C', 'C']","[1179953, 1180292, 1180550, 1180900, 1181303, 1181726, 1182104, 1182533, 1182910, 1183302, 1183705, 1184093, 1184502, 1184913, 1185337, 1185722, 1186163, 1186577, 1186972, 1187350, 1187771, 1188202, 1188626, 1189036]","[1180037, 1180363, 1180646, 1181005, 1181402, 1181812, 1182190, 1182617, 1182999, 1183395, 1183816, 1184200, 1184610, 1185014, 1185479, 1185856, 1186287, 1186710, 1187134, 1187492, 1187905, 1188319, 1188734, 1189179]","[1179762, 1180163, 1180562, 1180962, 1181362, 1181762, 1182162, 1182562, 1182936, 1183328, 1183730, 1184118, 1184528, 1184939, 1185362, 1185748, 1186189, 1186603, 1186998, 1187376, 1187796, 1188228, 1188652, 1189062]",33,R,ITM,1.1,
5,600,trial,0,59,59,59,trial,"['S', 'S', 'S', 'S', 'S', 'S', 'S', 'S', 'C', 'C', 'C', 'C', 'C', 'C', 'C', 'C', 'C', 'C', 'C', 'C', 'C', 'C', 'C', 'C']","[1195037, 1195370, 1195972, 1196609, 1197218, 1197839, 1198433, 1198996, 1199590, 1200180, 1200763, 1201377, 1202002, 1202615, 1203220, 1203845, 1204485, 1205116, 1205728, 1206375, 1207019, 1207648, 1208291, 1208918]","[1195108, 1195705, 1196407, 1196966, 1197504, 1198153, 1198731, 1199306, 1199905, 1200502, 1201073, 1201702, 1202323, 1202934, 1203511, 1204112, 1204815, 1205492, 1206139, 1206752, 1207390, 1208032, 1208638]","[1194819, 1195418, 1196018, 1196618, 1197218, 1197818, 1198418, 1199019, 1199616, 1200206, 1200789, 1201402, 1202028, 1202640, 1203246, 1203870, 1204510, 1205142, 1205754, 1206402, 1207045, 1207673, 1208316, 1208943]",33,R,ITM,1.1,
4,600,trial,0,60,60,60,trial,"['S', 'S', 'S', 'S', 'S', 'S', 'S', 'S', 'C', 'C', 'C', 'C', 'C', 'C', 'C', 'C', 'C', 'C', 'C', 'C', 'C', 'C', 'C', 'C']","[1214852, 1215217, 1215756, 1216284, 1216887, 1217500, 1218098, 1218697, 1219330, 1219919, 1220520, 1221106, 1221716, 1222295, 1222906, 1223494, 1224102, 1224685, 1225306, 1225897, 1226438, 1227120, 1227744, 1228380]","[1214949, 1215410, 1215920, 1216471, 1217046, 1217751, 1218315, 1218955, 1219533, 1220112, 1220734, 1221287, 1221907, 1222477, 1223062, 1223634, 1224224, 1224827, 1225486, 1226095, 1226648, 1227329, 1227947, 1228597]","[1214587, 1215186, 1215787, 1216387, 1216987, 1217586, 1218186, 1218786, 1219355, 1219945, 1220546, 1221132, 1221741, 1222321, 1222932, 1223521, 1224128, 1224711, 1225332, 1225924, 1226464, 1227147, 1227769, 1228406]",33,R,ITM,1.1,
3,600,trial,0,61,61,61,trial,"['S', 'S', 'S', 'S', 'S', 'S', 'S', 'S', 'C', 'C', 'C', 'C', 'C', 'C', 'C', 'C', 'C', 'C', 'C', 'C', 'C', 'C', 'C', 'C']","[1234180, 1234631, 1235208, 1235768, 1236372, 1236992, 1237555, 1238157, 1238746, 1239360, 1239964, 1240537, 1241122, 1241711, 1242311, 1242896, 1243480, 1244068, 1244658, 1245251, 1245862, 1246494, 1247072, 1247716]","[1234276, 1234785, 1235322, 1235912, 1236514, 1237159, 1237721, 1238324, 1239068, 1239645, 1240285, 1240847, 1241428, 1241989, 1242572, 1243109, 1243693, 1244293, 1244845, 1245471, 1246061, 1246660, 1247261, 1247932]","[1233992, 1234591, 1235191, 1235791, 1236391, 1236992, 1237592, 1238192, 1238771, 1239386, 1239990, 1240563, 1241148, 1241737, 1242337, 1242923, 1243506, 1244094, 1244684, 1245277, 1245888, 1246520, 1247097, 1247741]",33,R,ITM,1.1,
5,400,trial,0,62,62,62,trial,"['S', 'S', 'S', 'S', 'S', 'S', 'S', 'C', 'C', 'C', 'C', 'C', 'C', 'C', 'C', 'C', 'C', 'C', 'C', 'C', 'C', 'C', 'C']","[1253731, 1254075, 1254510, 1254938, 1255375, 1255821, 1256199, 1256594, 1256994, 1257414, 1257796, 1258208, 1258620, 1258989, 1259420, 1259843, 1260273, 1260687, 1261100, 1261538, 1261943, 1262364, 1262788]","[1253840, 1254215, 1254636, 1255032, 1255468, 1255901, 1256309, 1256711, 1257114, 1257523, 1257894, 1258329, 1258757, 1259114, 1259540, 1259964, 1260369, 1260818, 1261263, 1261658, 1262107, 1262509, 1262959]","[1253469, 1253867, 1254267, 1254667, 1255067, 1255468, 1255867, 1256267, 1256620, 1257021, 1257440, 1257823, 1258233, 1258646, 1259016, 1259447, 1259869, 1260300, 1260712, 1261125, 1261563, 1261969, 1262391, 1262815]",33,R,ITM,1.1,
6,400,trial,0,63,63,63,trial,"['S', 'S', 'S', 'S', 'S', 'S', 'S', 'S', 'C', 'C', 'C', 'C', 'C', 'C', 'C', 'C', 'C', 'C', 'C', 'C', 'C', 'C', 'C', 'C']","[1268397, 1268750, 1269049, 1269403, 1269792, 1270188, 1270581, 1270939, 1271350, 1271687, 1272025, 1272399, 1272791, 1273167, 1273547, 1273926, 1274309, 1274712, 1275075, 1275450, 1275798, 1276200, 1276589, 1276993]","[1268483, 1268846, 1269171, 1269508, 1269910, 1270307, 1270675, 1271057, 1271437, 1271768, 1272136, 1272482, 1272871, 1273259, 1273641, 1274018, 1274402, 1274798, 1275181, 1275542, 1275924, 1276322, 1276711, 1277102]","[1268226, 1268624, 1269024, 1269425, 1269824, 1270224, 1270624, 1271024, 1271376, 1271713, 1272051, 1272426, 1272817, 1273195, 1273574, 1273953, 1274337, 1274738, 1275102, 1275478, 1275825, 1276228, 1276615, 1277020]",33,R,ITM,1.1,
7,400,trial,0,64,64,64,trial,"['S', 'S', 'S', 'S', 'S', 'S', 'S', 'S', 'C', 'C', 'C', 'C', 'C', 'C', 'C', 'C', 'C', 'C', 'C', 'C', 'C', 'C', 'C', 'C']","[1282990, 1283342, 1283627, 1284006, 1284427, 1284841, 1285249, 1285634, 1286028, 1286410, 1286820, 1287200, 1287619, 1288026, 1288462, 1288825, 1289244, 1289676, 1290078, 1290500, 1290872, 1291295, 1291708, 1292113]","[1283065, 1283418, 1283714, 1284094, 1284497, 1284901, 1285313, 1285706, 1286094, 1286473, 1286916, 1287288, 1287724, 1288133, 1288540, 1288940, 1289360, 1289772, 1290169, 1290602, 1291019, 1291414, 1291820, 1292219]","[1282796, 1283195, 1283595, 1283995, 1284396, 1284795, 1285195, 1285596, 1286054, 1286436, 1286848, 1287228, 1287647, 1288052, 1288488, 1288853, 1289271, 1289703, 1290105, 1290527, 1290900, 1291322, 1291736, 1292140]",33,R,ITM,1.1,
4,400,trial,0,65,65,65,trial,"['S', 'S', 'S', 'S', 'S', 'S', 'S', 'S', 'C', 'C', 'C', 'C', 'C', 'C', 'C', 'C', 'C', 'C', 'C', 'C', 'C', 'C', 'C', 'C']","[1298022, 1298359, 1298684, 1299047, 1299448, 1299846, 1300272, 1300660, 1301066, 1301433, 1301863, 1302272, 1302682, 1303090, 1303493, 1303887, 1304274, 1304694, 1305077, 1305481, 1305858, 1306281, 1306641, 1307077]","[1298109, 1298449, 1298786, 1299147, 1299558, 1299940, 1300374, 1300760, 1301158, 1301551, 1301980, 1302387, 1302810, 1303203, 1303620, 1304007, 1304403, 1304791, 1305185, 1305584, 1305972, 1306387, 1306737, 1307205]","[1297845, 1298245, 1298646, 1299045, 1299445, 1299846, 1300245, 1300645, 1301092, 1301458, 1301890, 1302297, 1302708, 1303115, 1303519, 1303914, 1304300, 1304720, 1305103, 1305506, 1305883, 1306307, 1306667, 1307103]",33,R,ITM,1.1,
2,400,trial,0,66,66,66,trial,"['S', 'S', 'S', 'S', 'S', 'S', 'S', 'S', 'C', 'C', 'C', 'C', 'C', 'C', 'C', 'C', 'C', 'C', 'C', 'C', 'C', 'C', 'C', 'C']","[1312812, 1313121, 1313432, 1313788, 1314189, 1314590, 1315000, 1315392, 1315777, 1316203, 1316625, 1317029, 1317482, 1317923, 1318325, 1318753, 1319205, 1319603, 1320033, 1320441, 1320869, 1321299, 1321723, 1322142]","[1312885, 1313198, 1313518, 1313869, 1314275, 1314693, 1315096, 1315477, 1315861, 1316301, 1316721, 1317130, 1317571, 1318004, 1318458, 1318865, 1319280, 1319696, 1320127, 1320565, 1320968, 1321378, 1321826, 1322236]","[1312576, 1312975, 1313376, 1313776, 1314177, 1314575, 1314976, 1315377, 1315805, 1316231, 1316653, 1317056, 1317509, 1317951, 1318352, 1318779, 1319232, 1319630, 1320059, 1320468, 1320896, 1321327, 1321750, 1322170]",33,R,ITM,1.1,
6,600,trial,0,67,67,67,trial,"['S', 'S', 'S', 'S', 'S', 'S', 'S', 'S', 'C', 'C', 'C', 'C', 'C', 'C', 'C', 'C', 'C', 'C', 'C', 'C', 'C', 'C', 'C', 'C']","[1327753, 1328031, 1328653, 1329311, 1329916, 1330542, 1331138, 1331739, 1332339, 1332997, 1333643, 1334266, 1334920, 1335586, 1336224, 1336899, 1337537, 1338173, 1338811, 1339450, 1340094, 1340729, 1341337, 1341977]","[1327832, 1328376, 1329068, 1329676, 1330293, 1330847, 1331520, 1332136, 1332723, 1333348, 1333991, 1334629, 1335294, 1335992, 1336621, 1337230, 1337911, 1338544, 1339116, 1339799, 1340412, 1341010, 1341686]","[1327539, 1328137, 1328737, 1329337, 1329937, 1330537, 1331137, 1331737, 1332367, 1333023, 1333670, 1334294, 1334946, 1335613, 1336251, 1336926, 1337564, 1338200, 1338839, 1339476, 1340121, 1340755, 1341364, 1342004]",33,R,ITM,1.1,
5,600,trial,0,68,68,68,trial,"['S', 'S', 'S', 'S', 'S', 'S', 'S', 'S', 'C', 'C', 'C', 'C', 'C', 'C', 'C', 'C', 'C', 'C', 'C', 'C', 'C', 'C', 'C', 'C']","[1347510, 1347881, 1348439, 1349001, 1349613, 1350227, 1350811, 1351402, 1352050, 1352649, 1353229, 1353856, 1354456, 1355079, 1355630, 1356260, 1356854, 1357454, 1357997, 1358635, 1359215, 1359833, 1360414, 1361015]","[1347598, 1348189, 1348755, 1349323, 1349939, 1350489, 1351021, 1351614, 1352263, 1352826, 1353443, 1354099, 1354676, 1355298, 1355854, 1356445, 1357086, 1357679, 1358234, 1358861, 1359474, 1360061, 1360718, 1361274]","[1347308, 1347907, 1348507, 1349107, 1349707, 1350307, 1350907, 1351507, 1352077, 1352675, 1353254, 1353881, 1354481, 1355105, 1355656, 1356286, 1356880, 1357479, 1358022, 1358661, 1359242, 1359858, 1360440, 1361041]",33,R,ITM,1.1,
7,600,trial,0,69,69,69,trial,"['S', 'S', 'S', 'S', 'S', 'S', 'S', 'S', 'C', 'C', 'C', 'C', 'C', 'C', 'C', 'C', 'C', 'C', 'C', 'C', 'C', 'C', 'C', 'C']","[1366668, 1366994, 1367583, 1368183, 1368769, 1369384, 1369981, 1370583, 1371194, 1371786, 1372360, 1372982, 1373548, 1374170, 1374758, 1375361, 1375955, 1376595, 1377202, 1377821, 1378435, 1379044, 1379595, 1380216]","[1366755, 1367164, 1367768, 1368298, 1368896, 1369498, 1370098, 1370699, 1371296, 1371896, 1372493, 1373107, 1373672, 1374325, 1374949, 1375564, 1376157, 1376776, 1377419, 1378039, 1378669, 1379241, 1379789, 1380432]","[1366439, 1367038, 1367639, 1368239, 1368839, 1369438, 1370038, 1370638, 1371220, 1371813, 1372388, 1373009, 1373576, 1374197, 1374785, 1375387, 1375982, 1376622, 1377229, 1377849, 1378461, 1379070, 1379621, 1380243]",33,R,ITM,1.1,
2,400,trial,0,70,70,70,trial,"['S', 'S', 'S', 'S', 'S', 'S', 'S', 'S', 'C', 'C', 'C', 'C', 'C', 'C', 'C', 'C', 'C', 'C', 'C', 'C', 'C', 'C', 'C', 'C']","[1386083, 1386467, 1386778, 1387113, 1387479, 1387865, 1388256, 1388661, 1389067, 1389442, 1389836, 1390254, 1390657, 1391063, 1391460, 1391859, 1392247, 1392653, 1393064, 1393475, 1393893, 1394292, 1394679, 1395100]","[1386167, 1386570, 1386894, 1387243, 1387603, 1387978, 1388361, 1388767, 1389177, 1389575, 1389961, 1390363, 1390770, 1391201, 1391594, 1391987, 1392372, 1392781, 1393212, 1393597, 1393992, 1394425, 1394812, 1395214]","[1385896, 1386296, 1386696, 1387097, 1387496, 1387896, 1388297, 1388697, 1389094, 1389468, 1389863, 1390281, 1390684, 1391090, 1391486, 1391886, 1392275, 1392679, 1393092, 1393503, 1393920, 1394319, 1394707, 1395128]",33,R,ITM,1.1,
6,400,trial,0,71,71,71,trial,"['S', 'S', 'S', 'S', 'S', 'S', 'S', 'S', 'C', 'C', 'C', 'C', 'C', 'C', 'C', 'C', 'C', 'C', 'C', 'C', 'C', 'C', 'C', 'C']","[1401072, 1401422, 1401702, 1402055, 1402424, 1402813, 1403198, 1403615, 1404006, 1404393, 1404794, 1405175, 1405554, 1405966, 1406372, 1406785, 1407173, 1407627, 1408005, 1408437, 1408864, 1409245, 1409659, 1410056]","[1401145, 1401515, 1401802, 1402165, 1402547, 1402946, 1403301, 1403707, 1404087, 1404490, 1404897, 1405279, 1405636, 1406057, 1406467, 1406878, 1407282, 1407720, 1408156, 1408576, 1408997, 1409392, 1409802, 1410189]","[1400848, 1401247, 1401648, 1402047, 1402447, 1402847, 1403247, 1403648, 1404033, 1404420, 1404821, 1405202, 1405581, 1405992, 1406399, 1406813, 1407200, 1407654, 1408031, 1408464, 1408891, 1409271, 1409687, 1410082]",33,R,ITM,1.1,
6,600,trial,0,72,72,72,trial,"['S', 'S', 'S', 'S', 'S', 'S', 'S', 'S', 'C', 'C', 'C', 'C', 'C', 'C', 'C', 'C', 'C', 'C', 'C', 'C', 'C', 'C', 'C', 'C']","[1415681, 1415998, 1416610, 1417233, 1417896, 1418506, 1419131, 1419728, 1420309, 1420920, 1421503, 1422118, 1422746, 1423384, 1423965, 1424605, 1425246, 1425910, 1426494, 1427168, 1427731, 1428399, 1429008, 1429622]","[1415780, 1416365, 1417008, 1417640, 1418300, 1418931, 1419493, 1420024, 1420653, 1421247, 1421841, 1422452, 1423096, 1423711, 1424262, 1424971, 1425632, 1426245, 1426844, 1427483, 1428127, 1428727, 1429367]","[1415491, 1416090, 1416690, 1417290, 1417890, 1418490, 1419090, 1419691, 1420337, 1420947, 1421530, 1422146, 1422773, 1423411, 1423991, 1424632, 1425273, 1425937, 1426521, 1427194, 1427758, 1428426, 1429035, 1429650]",33,R,ITM,1.1,
2,600,trial,0,73,73,73,trial,"['S', 'S', 'S', 'S', 'S', 'S', 'S', 'S', 'C', 'C', 'C', 'C', 'C', 'C', 'C', 'C', 'C', 'C', 'C', 'C', 'C', 'C', 'C', 'C']","[1435249, 1435571, 1436093, 1436663, 1437296, 1437895, 1438499, 1439114, 1439697, 1440299, 1440931, 1441552, 1442173, 1442817, 1443392, 1444057, 1444669, 1445306, 1445877, 1446501, 1447129, 1447717, 1448338, 1448958]","[1435340, 1435897, 1436454, 1437014, 1437588, 1438191, 1438791, 1439407, 1440025, 1440631, 1441253, 1441869, 1442449, 1443044, 1443715, 1444337, 1444958, 1445573, 1446139, 1446737, 1447409, 1447999, 1448643, 1449187]","[1434971, 1435570, 1436170, 1436770, 1437370, 1437970, 1438570, 1439170, 1439724, 1440325, 1440958, 1441579, 1442201, 1442844, 1443420, 1444083, 1444697, 1445332, 1445905, 1446528, 1447156, 1447745, 1448365, 1448984]",33,R,ITM,1.1,
4,400,trial,0,74,74,74,trial,"['S', 'S', 'S', 'S', 'S', 'S', 'S', 'S', 'C', 'C', 'C', 'C', 'C', 'C', 'C', 'C', 'C', 'C', 'C', 'C', 'C', 'C', 'C', 'C']","[1454673, 1454980, 1455302, 1455551, 1455911, 1456296, 1456692, 1457103, 1457515, 1457869, 1458273, 1458663, 1459061, 1459456, 1459844, 1460255, 1460684, 1461102, 1461488, 1461899, 1462292, 1462678, 1463105, 1463518]","[1454786, 1455076, 1455390, 1455674, 1456013, 1456395, 1456783, 1457177, 1457590, 1457971, 1458365, 1458771, 1459184, 1459575, 1459954, 1460366, 1460792, 1461233, 1461612, 1462022, 1462432, 1462797, 1463244, 1463650]","[1454371, 1454770, 1455170, 1455570, 1455970, 1456370, 1456771, 1457170, 1457541, 1457895, 1458298, 1458689, 1459088, 1459481, 1459869, 1460281, 1460710, 1461128, 1461514, 1461924, 1462318, 1462704, 1463131, 1463543]",33,R,ITM,1.1,
3,600,trial,0,75,75,75,trial,"['S', 'S', 'S', 'S', 'S', 'S', 'S', 'S', 'C', 'C', 'C', 'C', 'C', 'C', 'C', 'C', 'C', 'C', 'C', 'C', 'C', 'C', 'C', 'C']","[1469176, 1469513, 1470031, 1470655, 1471265, 1471889, 1472475, 1473123, 1473699, 1474293, 1474854, 1475471, 1476042, 1476674, 1477231, 1477835, 1478432, 1479018, 1479601, 1480158, 1480810, 1481423, 1481999, 1482546]","[1469267, 1469762, 1470372, 1470986, 1471545, 1472145, 1472703, 1473343, 1473897, 1474489, 1475105, 1475680, 1476241, 1476843, 1477517, 1478048, 1478685, 1479232, 1479815, 1480325, 1481062, 1481689, 1482228]","[1468923, 1469522, 1470123, 1470723, 1471323, 1471922, 1472522, 1473122, 1473725, 1474319, 1474880, 1475496, 1476068, 1476700, 1477257, 1477861, 1478458, 1479044, 1479626, 1480183, 1480836, 1481449, 1482024, 1482571]",33,R,ITM,1.1,
7,400,trial,0,76,76,76,trial,"['S', 'S', 'S', 'S', 'S', 'S', 'S', 'S', 'C', 'C', 'C', 'C', 'C', 'C', 'C', 'C', 'C', 'C', 'C', 'C', 'C', 'C', 'C', 'C']","[1488346, 1488663, 1488941, 1489277, 1489657, 1490070, 1490471, 1490826, 1491216, 1491647, 1492028, 1492425, 1492828, 1493220, 1493607, 1494017, 1494434, 1494857, 1495288, 1495685, 1496129, 1496504, 1496902, 1497323]","[1488442, 1488762, 1489047, 1489397, 1489778, 1490174, 1490604, 1490958, 1491334, 1491761, 1492196, 1492548, 1492938, 1493353, 1493757, 1494154, 1494580, 1494981, 1495416, 1495813, 1496251, 1496637, 1497056, 1497451]","[1488057, 1488456, 1488857, 1489256, 1489656, 1490056, 1490456, 1490856, 1491243, 1491674, 1492056, 1492452, 1492855, 1493246, 1493634, 1494043, 1494462, 1494885, 1495315, 1495711, 1496156, 1496531, 1496930, 1497351]",33,R,ITM,1.1,
5,400,trial,0,77,77,77,trial,"['S', 'S', 'S', 'S', 'S', 'S', 'S', 'S', 'C', 'C', 'C', 'C', 'C', 'C', 'C', 'C', 'C', 'C', 'C', 'C', 'C', 'C', 'C', 'C']","[1503294, 1503630, 1503936, 1504318, 1504720, 1505097, 1505494, 1505868, 1506251, 1506639, 1507057, 1507469, 1507863, 1508259, 1508675, 1509084, 1509495, 1509929, 1510334, 1510760, 1511175, 1511564, 1511963, 1512377]","[1503381, 1503717, 1504054, 1504406, 1504793, 1505176, 1505593, 1505984, 1506365, 1506780, 1507179, 1507577, 1507984, 1508401, 1508832, 1509266, 1509656, 1510073, 1510482, 1510902, 1511302, 1511706, 1512095, 1512479]","[1503093, 1503494, 1503893, 1504293, 1504693, 1505093, 1505494, 1505893, 1506277, 1506665, 1507083, 1507494, 1507889, 1508286, 1508701, 1509110, 1509521, 1509954, 1510361, 1510786, 1511200, 1511589, 1511990, 1512402]",33,R,ITM,1.1,
6,600,trial,0,78,78,78,trial,"['S', 'S', 'S', 'S', 'S', 'S', 'S', 'S', 'C', 'C', 'C', 'C', 'C', 'C', 'C', 'C', 'C', 'C', 'C', 'C', 'C', 'C', 'C', 'C']","[1518403, 1518765, 1519321, 1519971, 1520623, 1521240, 1521838, 1522390, 1522956, 1523563, 1524152, 1524764, 1525360, 1525933, 1526528, 1527146, 1527751, 1528353, 1528948, 1529603, 1530178, 1530818, 1531416, 1531992]","[1518469, 1519020, 1519723, 1520356, 1520969, 1521588, 1522164, 1522690, 1523279, 1523832, 1524424, 1525019, 1525622, 1526213, 1526818, 1527398, 1528061, 1528622, 1529257, 1529814, 1530422, 1531071, 1531644, 1532170]","[1518183, 1518782, 1519382, 1519982, 1520582, 1521182, 1521782, 1522382, 1522983, 1523590, 1524179, 1524791, 1525387, 1525959, 1526554, 1527174, 1527779, 1528381, 1528975, 1529629, 1530206, 1530845, 1531443, 1532018]",33,R,ITM,1.1,
5,600,trial,0,79,79,79,trial,"['S', 'S', 'S', 'S', 'S', 'S', 'S', 'S', 'C', 'C', 'C', 'C', 'C', 'C', 'C', 'C', 'C', 'C', 'C', 'C', 'C', 'C', 'C', 'C']","[1537704, 1538093, 1538632, 1539228, 1539836, 1540474, 1541050, 1541718, 1542272, 1542866, 1543476, 1544096, 1544699, 1545310, 1545880, 1546428, 1547113, 1547757, 1548379, 1548997, 1549566, 1550217, 1550866, 1551493]","[1537812, 1538442, 1539054, 1539620, 1540221, 1540802, 1541308, 1541979, 1542624, 1543198, 1543818, 1544404, 1545047, 1545558, 1546238, 1546810, 1547419, 1548077, 1548663, 1549350, 1549964, 1550545, 1551246]","[1537494, 1538093, 1538693, 1539293, 1539893, 1540493, 1541093, 1541693, 1542297, 1542892, 1543502, 1544123, 1544725, 1545335, 1545906, 1546455, 1547139, 1547783, 1548405, 1549023, 1549592, 1550243, 1550892, 1551518]",33,R,ITM,1.1,
7,400,trial,0,80,80,80,trial,"['S', 'S', 'S', 'S', 'S', 'S', 'S', 'S', 'C', 'C', 'C', 'C', 'C', 'C', 'C', 'C', 'C', 'C', 'C', 'C', 'C', 'C', 'C', 'C']","[1557204, 1557535, 1557797, 1558148, 1558488, 1558873, 1559275, 1559680, 1560076, 1560516, 1560930, 1561323, 1561737, 1562135, 1562525, 1562902, 1563289, 1563656, 1564054, 1564456, 1564846, 1565232, 1565615, 1566009]","[1557315, 1557617, 1557907, 1558254, 1558630, 1558989, 1559413, 1559824, 1560203, 1560646, 1561093, 1561497, 1561892, 1562298, 1562670, 1563048, 1563425, 1563797, 1564205, 1564610, 1565023, 1565385, 1565775, 1566141]","[1556948, 1557347, 1557747, 1558148, 1558547, 1558947, 1559347, 1559747, 1560102, 1560543, 1560957, 1561350, 1561763, 1562162, 1562552, 1562930, 1563317, 1563682, 1564081, 1564484, 1564873, 1565259, 1565642, 1566035]",33,R,ITM,1.1,
3,600,trial,0,81,81,81,trial,"['S', 'S', 'S', 'S', 'S', 'S', 'S', 'S', 'C', 'C', 'C', 'C', 'C', 'C', 'C', 'C', 'C', 'C', 'C', 'C', 'C', 'C', 'C', 'C']","[1571743, 1572233, 1572830, 1573384, 1573958, 1574575, 1575166, 1575761, 1576354, 1576986, 1577559, 1578202, 1578817, 1579413, 1580041, 1580663, 1581289, 1581860, 1582513, 1583142, 1583726, 1584319, 1584899, 1585491]","[1571867, 1572638, 1573144, 1573714, 1574371, 1574920, 1575537, 1576089, 1576722, 1577310, 1577982, 1578583, 1579113, 1579769, 1580378, 1580958, 1581609, 1582270, 1582909, 1583460, 1584064, 1584666, 1585259]","[1571584, 1572183, 1572783, 1573383, 1573983, 1574583, 1575183, 1575783, 1576380, 1577012, 1577584, 1578227, 1578843, 1579439, 1580066, 1580689, 1581315, 1581886, 1582538, 1583168, 1583752, 1584345, 1584924, 1585517]",33,R,ITM,1.1,
5,400,trial,0,82,82,82,trial,"['S', 'S', 'S', 'S', 'S', 'S', 'S', 'S', 'C', 'C', 'C', 'C', 'C', 'C', 'C', 'C', 'C', 'C', 'C', 'C', 'C', 'C', 'C', 'C']","[1591447, 1591799, 1592070, 1592419, 1592819, 1593207, 1593580, 1593969, 1594350, 1594767, 1595119, 1595526, 1595899, 1596315, 1596660, 1597056, 1597474, 1597884, 1598266, 1598649, 1599062, 1599474, 1599836, 1600272]","[1591544, 1591899, 1592197, 1592551, 1592950, 1593356, 1593723, 1594110, 1594481, 1594909, 1595262, 1595639, 1596050, 1596443, 1596875, 1597240, 1597624, 1598043, 1598474, 1598813, 1599247, 1599637, 1600002, 1600411]","[1591260, 1591659, 1592059, 1592459, 1592859, 1593260, 1593659, 1594059, 1594376, 1594792, 1595145, 1595551, 1595925, 1596342, 1596687, 1597081, 1597501, 1597910, 1598291, 1598674, 1599087, 1599500, 1599861, 1600297]",33,R,ITM,1.1,
5,600,trial,0,83,83,83,trial,"['S', 'S', 'S', 'S', 'S', 'S', 'S', 'S', 'C', 'C', 'C', 'C', 'C', 'C', 'C', 'C', 'C', 'C', 'C', 'C', 'C', 'C', 'C', 'C']","[1605936, 1606218, 1606887, 1607562, 1608116, 1608739, 1609347, 1609945, 1610545, 1611188, 1611831, 1612457, 1613054, 1613686, 1614292, 1614950, 1615531, 1616201, 1616813, 1617485, 1618117, 1618770, 1619334, 1619991]","[1606007, 1606625, 1607292, 1607754, 1608489, 1609115, 1609662, 1610247, 1610907, 1611506, 1612188, 1612848, 1613484, 1614070, 1614728, 1615312, 1615995, 1616594, 1617206, 1617851, 1618528, 1619159, 1619756]","[1605763, 1606362, 1606962, 1607562, 1608162, 1608762, 1609362, 1609962, 1610570, 1611213, 1611857, 1612484, 1613080, 1613713, 1614317, 1614976, 1615556, 1616227, 1616838, 1617511, 1618143, 1618796, 1619360, 1620017]",33,R,ITM,1.1,
6,400,trial,0,84,84,84,trial,"['S', 'S', 'S', 'S', 'S', 'S', 'S', 'S', 'C', 'C', 'C', 'C', 'C', 'C', 'C', 'C', 'C', 'C', 'C', 'C', 'C', 'C', 'C', 'C']","[1625589, 1625904, 1626171, 1626525, 1626901, 1627295, 1627728, 1628122, 1628512, 1628911, 1629303, 1629696, 1630130, 1630545, 1630963, 1631358, 1631785, 1632184, 1632579, 1633044, 1633479, 1633889, 1634343, 1634750]","[1625692, 1625992, 1626271, 1626596, 1626985, 1627376, 1627806, 1628216, 1628606, 1629009, 1629426, 1629819, 1630242, 1630648, 1631069, 1631476, 1631883, 1632344, 1632797, 1633217, 1633626, 1634028, 1634507, 1634907]","[1625348, 1625746, 1626146, 1626547, 1626947, 1627347, 1627747, 1628147, 1628538, 1628939, 1629330, 1629722, 1630156, 1630572, 1630991, 1631385, 1631812, 1632210, 1632606, 1633072, 1633507, 1633916, 1634370, 1634777]",33,R,ITM,1.1,
4,400,trial,0,85,85,85,trial,"['S', 'S', 'S', 'S', 'S', 'S', 'S', 'C', 'C', 'C', 'C', 'C', 'C', 'C', 'C', 'C', 'C', 'C', 'C', 'C', 'C', 'C', 'C']","[1640698, 1641032, 1641484, 1641919, 1642331, 1642761, 1643198, 1643564, 1643936, 1644346, 1644744, 1645152, 1645535, 1645971, 1646352, 1646781, 1647150, 1647584, 1647968, 1648402, 1648804, 1649258, 1649668]","[1640782, 1641131, 1641594, 1642032, 1642442, 1642868, 1643298, 1643691, 1644067, 1644489, 1644875, 1645312, 1645678, 1646108, 1646488, 1646931, 1647283, 1647731, 1648113, 1648546, 1648972, 1649398, 1649804]","[1640421, 1640821, 1641222, 1641621, 1642021, 1642421, 1642821, 1643222, 1643589, 1643962, 1644371, 1644771, 1645177, 1645560, 1645997, 1646377, 1646807, 1647175, 1647610, 1647993, 1648428, 1648830, 1649284, 1649693]",33,R,ITM,1.1,
6,600,trial,0,86,86,86,trial,"['S', 'S', 'S', 'S', 'S', 'S', 'S', 'S', 'C', 'C', 'C', 'C', 'C', 'C', 'C', 'C', 'C', 'C', 'C', 'C', 'C', 'C', 'C', 'C']","[1655725, 1655997, 1656614, 1657226, 1657838, 1658469, 1659036, 1659608, 1660196, 1660818, 1661387, 1662005, 1662586, 1663262, 1663832, 1664449, 1665072, 1665700, 1666315, 1666979, 1667557, 1668161, 1668763, 1669355]","[1655810, 1656169, 1656976, 1657600, 1658136, 1658748, 1659341, 1659926, 1660500, 1661086, 1661705, 1662292, 1662902, 1663509, 1664123, 1664728, 1665327, 1665930, 1666547, 1667151, 1667892, 1668412, 1668986, 1669566]","[1655482, 1656081, 1656681, 1657281, 1657881, 1658481, 1659081, 1659681, 1660224, 1660846, 1661414, 1662032, 1662613, 1663290, 1663858, 1664476, 1665099, 1665727, 1666341, 1667006, 1667584, 1668188, 1668791, 1669382]",33,R,ITM,1.1,
4,600,trial,0,87,87,87,trial,"['S', 'S', 'S', 'S', 'S', 'S', 'S', 'C', 'C', 'C', 'C', 'C', 'C', 'C', 'C', 'C', 'C', 'C', 'C', 'C', 'C', 'C', 'C']","[1675122, 1675844, 1676536, 1677196, 1677808, 1678395, 1679023, 1679662, 1680276, 1680831, 1681457, 1682073, 1682671, 1683212, 1683815, 1684353, 1684975, 1685562, 1686159, 1686756, 1687363, 1687960, 1688551]","[1675341, 1676210, 1676831, 1677528, 1678059, 1678635, 1679250, 1679791, 1680380, 1680963, 1681576, 1682197, 1682785, 1683336, 1683937, 1684472, 1685099, 1685693, 1686286, 1686900, 1687518, 1688091, 1688686]","[1674850, 1675449, 1676049, 1676649, 1677249, 1677849, 1678449, 1679049, 1679687, 1680302, 1680857, 1681482, 1682100, 1682698, 1683238, 1683841, 1684378, 1685001, 1685587, 1686184, 1686781, 1687389, 1687986, 1688577]",33,R,ITM,1.1,
5,400,trial,0,88,88,88,trial,"['S', 'S', 'S', 'S', 'S', 'S', 'S', 'S', 'C', 'C', 'C', 'C', 'C', 'C', 'C', 'C', 'C', 'C', 'C', 'C', 'C', 'C', 'C', 'C']","[1694458, 1694683, 1695039, 1695272, 1695595, 1695967, 1696356, 1696758, 1697144, 1697538, 1697916, 1698307, 1698728, 1699132, 1699546, 1699963, 1700331, 1700744, 1701158, 1701572, 1701984, 1702386, 1702825, 1703237]","[1694515, 1694766, 1695081, 1695331, 1695672, 1696053, 1696455, 1696826, 1697224, 1697623, 1698016, 1698398, 1698803, 1699202, 1699621, 1700015, 1700416, 1700823, 1701232, 1701640, 1702069, 1702455, 1702887, 1703303]","[1694017, 1694417, 1694817, 1695217, 1695618, 1696017, 1696417, 1696818, 1697170, 1697563, 1697943, 1698332, 1698754, 1699158, 1699571, 1699989, 1700357, 1700769, 1701184, 1701598, 1702009, 1702412, 1702852, 1703263]",33,R,ITM,1.1,
7,600,trial,0,89,89,89,trial,"['S', 'S', 'S', 'S', 'S', 'S', 'S', 'S', 'C', 'C', 'C', 'C', 'C', 'C', 'C', 'C', 'C', 'C', 'C', 'C', 'C', 'C', 'C', 'C']","[1709192, 1709563, 1710129, 1710728, 1711311, 1711926, 1712585, 1713106, 1713699, 1714318, 1714946, 1715620, 1716269, 1716879, 1717481, 1718079, 1718685, 1719344, 1719966, 1720620, 1721214, 1721903, 1722470, 1723172]","[1709262, 1709774, 1710402, 1711047, 1711619, 1712248, 1712724, 1713313, 1713894, 1714591, 1715281, 1715939, 1716529, 1717082, 1717691, 1718270, 1718929, 1719562, 1720169, 1720787, 1721368, 1722012, 1722614, 1723319]","[1708926, 1709527, 1710127, 1710727, 1711326, 1711926, 1712526, 1713126, 1713727, 1714345, 1714972, 1715648, 1716296, 1716907, 1717509, 1718106, 1718712, 1719370, 1719993, 1720647, 1721241, 1721930, 1722498, 1723200]",33,R,ITM,1.1,
4,600,trial,0,90,90,90,trial,"['S', 'S', 'S', 'S', 'S', 'S', 'S', 'S', 'C', 'C', 'C', 'C', 'C', 'C', 'C', 'C', 'C', 'C', 'C', 'C', 'C', 'C', 'C', 'C']","[1729114, 1729456, 1730002, 1730589, 1731185, 1731853, 1732376, 1732965, 1733597, 1734245, 1734844, 1735458, 1736022, 1736683, 1737277, 1737929, 1738464, 1739116, 1739717, 1740332, 1740902, 1741508, 1742142, 1742785]","[1729187, 1729651, 1730238, 1730680, 1731320, 1731962, 1732561, 1733143, 1733800, 1734458, 1735115, 1735698, 1736230, 1736875, 1737498, 1738080, 1738618, 1739309, 1740011, 1740512, 1741116, 1741717, 1742394, 1742952]","[1728821, 1729420, 1730020, 1730620, 1731220, 1731820, 1732420, 1733020, 1733622, 1734270, 1734870, 1735484, 1736047, 1736709, 1737303, 1737955, 1738489, 1739142, 1739743, 1740357, 1740928, 1741534, 1742168, 1742811]",33,R,ITM,1.1,
2,400,trial,0,91,91,91,trial,"['S', 'S', 'S', 'S', 'S', 'S', 'S', 'S', 'C', 'C', 'C', 'C', 'C', 'C', 'C', 'C', 'C', 'C', 'C', 'C', 'C', 'C', 'C', 'C']","[1748428, 1748732, 1749025, 1749310, 1749666, 1750066, 1750482, 1750855, 1751305, 1751664, 1752061, 1752461, 1752879, 1753270, 1753657, 1754038, 1754441, 1754828, 1755235, 1755643, 1756035, 1756421, 1756828, 1757237]","[1748513, 1748837, 1749105, 1749398, 1749765, 1750156, 1750565, 1750937, 1751367, 1751756, 1752151, 1752559, 1752982, 1753372, 1753779, 1754161, 1754557, 1754941, 1755343, 1755752, 1756127, 1756546, 1756906, 1757323]","[1748137, 1748537, 1748937, 1749337, 1749737, 1750136, 1750537, 1750937, 1751332, 1751691, 1752088, 1752488, 1752905, 1753297, 1753684, 1754065, 1754469, 1754856, 1755261, 1755670, 1756062, 1756447, 1756855, 1757263]",33,R,ITM,1.1,
7,400,trial,0,92,92,92,trial,"['S', 'S', 'S', 'S', 'S', 'S', 'S', 'S', 'C', 'C', 'C', 'C', 'C', 'C', 'C', 'C', 'C', 'C', 'C', 'C', 'C', 'C', 'C', 'C']","[1762854, 1763165, 1763450, 1763799, 1764206, 1764586, 1764977, 1765400, 1765784, 1766196, 1766584, 1766937, 1767310, 1767685, 1768071, 1768464, 1768840, 1769233, 1769606, 1769965, 1770356, 1770767, 1771127, 1771515]","[1762932, 1763246, 1763559, 1763907, 1764310, 1764764, 1765148, 1765534, 1765925, 1766311, 1766700, 1767056, 1767431, 1767802, 1768203, 1768586, 1768978, 1769350, 1769738, 1770094, 1770473, 1770884, 1771269, 1771630]","[1762630, 1763030, 1763429, 1763829, 1764230, 1764629, 1765029, 1765429, 1765811, 1766222, 1766611, 1766964, 1767337, 1767712, 1768097, 1768491, 1768866, 1769260, 1769633, 1769993, 1770383, 1770793, 1771155, 1771543]",33,R,ITM,1.1,
4,400,trial,0,93,93,93,trial,"['S', 'S', 'S', 'S', 'S', 'S', 'S', 'S', 'C', 'C', 'C', 'C', 'C', 'C', 'C', 'C', 'C', 'C', 'C', 'C', 'C', 'C', 'C', 'C']","[1777470, 1777801, 1778138, 1778551, 1778913, 1779316, 1779687, 1780068, 1780455, 1780840, 1781267, 1781681, 1782074, 1782478, 1782895, 1783287, 1783693, 1784108, 1784515, 1784924, 1785337, 1785761, 1786138, 1786555]","[1777549, 1777906, 1778266, 1778637, 1779012, 1779408, 1779804, 1780170, 1780548, 1780933, 1781363, 1781782, 1782171, 1782586, 1783016, 1783411, 1783804, 1784250, 1784653, 1785057, 1785470, 1785890, 1786264, 1786775]","[1777252, 1777651, 1778052, 1778451, 1778851, 1779251, 1779651, 1780051, 1780481, 1780866, 1781294, 1781706, 1782099, 1782504, 1782921, 1783313, 1783718, 1784133, 1784541, 1784949, 1785364, 1785787, 1786164, 1786580]",33,R,ITM,1.1,
2,600,trial,0,94,94,94,trial,"['S', 'S', 'S', 'S', 'S', 'S', 'S', 'S', 'C', 'C', 'C', 'C', 'C', 'C', 'C', 'C', 'C', 'C', 'C', 'C', 'C', 'C', 'C', 'C']","[1792321, 1792624, 1793223, 1793838, 1794482, 1795025, 1795612, 1796245, 1796844, 1797423, 1798018, 1798614, 1799203, 1799806, 1800373, 1801025, 1801638, 1802262, 1802888, 1803467, 1804062, 1804607, 1805152, 1805712]","[1792399, 1792973, 1793609, 1794170, 1794765, 1795359, 1795956, 1796520, 1797147, 1797746, 1798293, 1798834, 1799459, 1800055, 1800606, 1801333, 1801896, 1802533, 1803089, 1803654, 1804249, 1804888, 1805448, 1805959]","[1792074, 1792673, 1793274, 1793874, 1794475, 1795075, 1795675, 1796275, 1796872, 1797450, 1798044, 1798641, 1799231, 1799833, 1800400, 1801053, 1801665, 1802289, 1802914, 1803495, 1804089, 1804634, 1805179, 1805740]",33,R,ITM,1.1,
6,400,trial,0,95,95,95,trial,"['S', 'S', 'S', 'S', 'S', 'S', 'S', 'S', 'C', 'C', 'C', 'C', 'C', 'C', 'C', 'C', 'C', 'C', 'C', 'C', 'C', 'C', 'C', 'C']","[1811309, 1811637, 1811906, 1812252, 1812638, 1813032, 1813437, 1813847, 1814264, 1814649, 1815066, 1815478, 1815882, 1816298, 1816721, 1817134, 1817513, 1817963, 1818415, 1818823, 1819227, 1819657, 1820066, 1820455]","[1811429, 1811738, 1812046, 1812397, 1812766, 1813155, 1813551, 1813958, 1814350, 1814774, 1815200, 1815595, 1816022, 1816441, 1816887, 1817256, 1817688, 1818105, 1818543, 1818957, 1819376, 1819793, 1820203, 1820585]","[1811027, 1811426, 1811826, 1812227, 1812626, 1813026, 1813427, 1813827, 1814292, 1814676, 1815093, 1815504, 1815910, 1816325, 1816749, 1817160, 1817541, 1817991, 1818441, 1818851, 1819253, 1819683, 1820094, 1820483]",33,R,ITM,1.1,
7,600,trial,0,96,96,96,trial,"['S', 'S', 'S', 'S', 'S', 'S', 'S', 'S', 'C', 'C', 'C', 'C', 'C', 'C', 'C', 'C', 'C', 'C', 'C', 'C', 'C', 'C', 'C', 'C']","[1826013, 1826362, 1826949, 1827528, 1828109, 1828731, 1829330, 1829931, 1830546, 1831136, 1831732, 1832328, 1832955, 1833554, 1834155, 1834699, 1835327, 1835923, 1836446, 1837057, 1837662, 1838201, 1838777, 1839360]","[1826106, 1826715, 1827282, 1827875, 1828519, 1829015, 1829594, 1830243, 1830809, 1831341, 1831934, 1832553, 1833187, 1833753, 1834365, 1834905, 1835509, 1836139, 1836687, 1837341, 1837907, 1838433, 1838984, 1839546]","[1825783, 1826383, 1826983, 1827584, 1828184, 1828784, 1829384, 1829984, 1830574, 1831163, 1831759, 1832354, 1832983, 1833581, 1834182, 1834727, 1835354, 1835950, 1836473, 1837083, 1837689, 1838228, 1838803, 1839387]",33,R,ITM,1.1,
3,600,trial,0,97,97,97,trial,"['S', 'S', 'S', 'S', 'S', 'S', 'S', 'S', 'C', 'C', 'C', 'C', 'C', 'C', 'C', 'C', 'C', 'C', 'C', 'C', 'C', 'C', 'C', 'C']","[1845167, 1845557, 1846108, 1846675, 1847306, 1847940, 1848489, 1849095, 1849701, 1850308, 1850911, 1851532, 1852138, 1852743, 1853334, 1853944, 1854539, 1855173, 1855720, 1856393, 1856986, 1857572, 1858194, 1858769]","[1845256, 1845860, 1846421, 1847007, 1847665, 1848205, 1848726, 1849277, 1849920, 1850509, 1851136, 1851748, 1852318, 1852901, 1853466, 1854048, 1854661, 1855275, 1855849, 1856546, 1857172, 1857764, 1858340, 1858922]","[1844952, 1845551, 1846151, 1846751, 1847351, 1847951, 1848551, 1849151, 1849726, 1850334, 1850937, 1851557, 1852164, 1852770, 1853360, 1853970, 1854565, 1855199, 1855746, 1856418, 1857011, 1857599, 1858220, 1858795]",33,R,ITM,1.1,
2,600,trial,0,98,98,98,trial,"['S', 'S', 'S', 'S', 'S', 'S', 'S', 'S', 'C', 'C', 'C', 'C', 'C', 'C', 'C', 'C', 'C', 'C', 'C', 'C', 'C', 'C', 'C', 'C']","[1864373, 1864770, 1865357, 1865924, 1866563, 1867108, 1867711, 1868312, 1868881, 1869461, 1870061, 1870666, 1871244, 1871850, 1872466, 1873049, 1873647, 1874253, 1874855, 1875492, 1876061, 1876688, 1877227, 1877858]","[1864460, 1865084, 1865661, 1866210, 1866828, 1867427, 1868010, 1868578, 1869163, 1869863, 1870371, 1870942, 1871539, 1872128, 1872723, 1873287, 1873870, 1874502, 1875082, 1875683, 1876234, 1876900, 1877557]","[1864158, 1864756, 1865357, 1865957, 1866557, 1867157, 1867757, 1868357, 1868909, 1869488, 1870088, 1870694, 1871270, 1871877, 1872493, 1873076, 1873675, 1874280, 1874883, 1875520, 1876087, 1876716, 1877254, 1877885]",33,R,ITM,1.1,
3,400,trial,0,99,99,99,trial,"['S', 'S', 'S', 'S', 'S', 'S', 'S', 'S', 'C', 'C', 'C', 'C', 'C', 'C', 'C', 'C', 'C', 'C', 'C', 'C', 'C', 'C', 'C', 'C']","[1883806, 1884163, 1884442, 1884747, 1885112, 1885538, 1885928, 1886331, 1886751, 1887177, 1887581, 1887967, 1888361, 1888763, 1889160, 1889571, 1889989, 1890419, 1890828, 1891238, 1891604, 1892014, 1892438, 1892840]","[1883905, 1884249, 1884529, 1884861, 1885242, 1885680, 1886099, 1886465, 1886865, 1887269, 1887715, 1888128, 1888524, 1888918, 1889325, 1889720, 1890122, 1890551, 1890977, 1891385, 1891772, 1892169, 1892584, 1892988]","[1883571, 1883970, 1884370, 1884770, 1885170, 1885571, 1885970, 1886370, 1886777, 1887203, 1887606, 1887992, 1888387, 1888789, 1889185, 1889597, 1890015, 1890445, 1890853, 1891264, 1891630, 1892039, 1892463, 1892866]",33,R,ITM,1.1,
3,400,trial,0,100,100,100,trial,"['S', 'S', 'S', 'S', 'S', 'S', 'S', 'S', 'C', 'C', 'C', 'C', 'C', 'C', 'C', 'C', 'C', 'C', 'C', 'C', 'C', 'C', 'C', 'C']","[1898809, 1899097, 1899364, 1899725, 1900125, 1900519, 1900923, 1901312, 1901714, 1902117, 1902531, 1902949, 1903347, 1903755, 1904166, 1904570, 1904954, 1905350, 1905774, 1906205, 1906619, 1907037, 1907428, 1907827]","[1898887, 1899185, 1899511, 1899876, 1900259, 1900660, 1901067, 1901459, 1901853, 1902275, 1902669, 1903094, 1903499, 1903886, 1904307, 1904696, 1905092, 1905509, 1905945, 1906378, 1906776, 1907154, 1907595, 1907970]","[1898548, 1898947, 1899347, 1899747, 1900147, 1900548, 1900947, 1901347, 1901740, 1902143, 1902557, 1902974, 1903373, 1903780, 1904192, 1904595, 1904979, 1905376, 1905800, 1906231, 1906644, 1907062, 1907453, 1907853]",33,R,ITM,1.1,
2,400,trial,0,101,101,101,trial,"['S', 'S', 'S', 'S', 'S', 'S', 'S', 'S', 'C', 'C', 'C', 'C', 'C', 'C', 'C', 'C', 'C', 'C', 'C', 'C', 'C', 'C', 'C', 'C']","[1913710, 1914064, 1914413, 1914752, 1915133, 1915542, 1915915, 1916320, 1916700, 1917118, 1917514, 1917930, 1918355, 1918765, 1919165, 1919616, 1920013, 1920416, 1920820, 1921252, 1921659, 1922033, 1922479, 1922912]","[1913808, 1914173, 1914543, 1914874, 1915237, 1915648, 1916033, 1916414, 1916818, 1917232, 1917636, 1918040, 1918464, 1918893, 1919298, 1919721, 1920128, 1920533, 1920957, 1921368, 1921754, 1922156, 1922588, 1923037]","[1913516, 1913914, 1914315, 1914715, 1915114, 1915514, 1915915, 1916314, 1916727, 1917145, 1917542, 1917958, 1918382, 1918791, 1919193, 1919643, 1920040, 1920443, 1920846, 1921280, 1921687, 1922061, 1922506, 1922939]",33,R,ITM,1.1,
3,600,trial,0,102,102,102,trial,"['S', 'S', 'S', 'S', 'S', 'S', 'S', 'S', 'C', 'C', 'C', 'C', 'C', 'C', 'C', 'C', 'C', 'C', 'C', 'C', 'C', 'C', 'C', 'C']","[1928895, 1929274, 1929862, 1930472, 1931064, 1931664, 1932239, 1932848, 1933455, 1934069, 1934680, 1935296, 1935926, 1936544, 1937165, 1937833, 1938411, 1939064, 1939742, 1940386, 1940954, 1941645, 1942210, 1942817]","[1928972, 1929588, 1930242, 1930779, 1931329, 1931927, 1932446, 1933042, 1933606, 1934274, 1934940, 1935639, 1936233, 1936868, 1937458, 1938127, 1938734, 1939367, 1939968, 1940614, 1941336, 1941962, 1942546]","[1928648, 1929247, 1929847, 1930447, 1931047, 1931648, 1932248, 1932848, 1933480, 1934095, 1934705, 1935322, 1935952, 1936570, 1937190, 1937859, 1938437, 1939090, 1939768, 1940412, 1940979, 1941670, 1942236, 1942843]",33,R,ITM,1.1,
5,600,trial,0,103,103,103,trial,"['S', 'S', 'S', 'S', 'S', 'S', 'S', 'S', 'C', 'C', 'C', 'C', 'C', 'C', 'C', 'C', 'C', 'C', 'C', 'C', 'C', 'C', 'C', 'C']","[1948653, 1949018, 1949587, 1950193, 1950813, 1951430, 1952022, 1952626, 1953240, 1953852, 1954485, 1955055, 1955690, 1956261, 1956898, 1957477, 1958068, 1958690, 1959270, 1959860, 1960449, 1961015, 1961654, 1962241]","[1948747, 1949326, 1949872, 1950519, 1951110, 1951648, 1952282, 1952931, 1953561, 1954048, 1954652, 1955221, 1955892, 1956460, 1957101, 1957640, 1958317, 1958919, 1959492, 1960037, 1960611, 1961225, 1961887]","[1948413, 1949012, 1949613, 1950213, 1950813, 1951413, 1952013, 1952613, 1953265, 1953878, 1954510, 1955081, 1955716, 1956287, 1956924, 1957504, 1958093, 1958716, 1959296, 1959885, 1960474, 1961040, 1961679, 1962266]",33,R,ITM,1.1,
6,400,trial,0,104,104,104,trial,"['S', 'S', 'S', 'S', 'S', 'S', 'S', 'S', 'C', 'C', 'C', 'C', 'C', 'C', 'C', 'C', 'C', 'C', 'C', 'C', 'C', 'C', 'C', 'C']","[1968173, 1968499, 1968729, 1969091, 1969472, 1969874, 1970255, 1970657, 1971045, 1971429, 1971828, 1972225, 1972595, 1972980, 1973383, 1973761, 1974153, 1974560, 1974959, 1975341, 1975751, 1976159, 1976546, 1976944]","[1968251, 1968572, 1968850, 1969214, 1969599, 1969985, 1970390, 1970777, 1971145, 1971569, 1971961, 1972355, 1972729, 1973136, 1973520, 1973894, 1974296, 1974684, 1975094, 1975461, 1975835, 1976253, 1976692, 1977077]","[1967929, 1968328, 1968729, 1969128, 1969528, 1969928, 1970328, 1970728, 1971073, 1971457, 1971856, 1972252, 1972622, 1973007, 1973409, 1973788, 1974179, 1974587, 1974985, 1975368, 1975778, 1976186, 1976572, 1976971]",33,R,ITM,1.1,
2,400,trial,0,105,105,105,trial,"['S', 'S', 'S', 'S', 'S', 'S', 'S', 'S', 'C', 'C', 'C', 'C', 'C', 'C', 'C', 'C', 'C', 'C', 'C', 'C', 'C', 'C', 'C', 'C']","[1982542, 1982872, 1983140, 1983481, 1983864, 1984249, 1984624, 1985104, 1985483, 1985899, 1986302, 1986702, 1987102, 1987488, 1987897, 1988318, 1988700, 1989111, 1989531, 1989913, 1990309, 1990720, 1991130, 1991537]","[1982633, 1982955, 1983267, 1983627, 1983990, 1984364, 1984730, 1985209, 1985604, 1986021, 1986454, 1986834, 1987239, 1987657, 1988060, 1988459, 1988838, 1989219, 1989635, 1990043, 1990430, 1990849, 1991276, 1991682]","[1982281, 1982681, 1983080, 1983481, 1983881, 1984281, 1984681, 1985080, 1985511, 1985926, 1986330, 1986728, 1987130, 1987515, 1987924, 1988345, 1988727, 1989139, 1989559, 1989940, 1990336, 1990748, 1991156, 1991565]",33,R,ITM,1.1,
7,600,trial,0,106,106,106,trial,"['S', 'S', 'S', 'S', 'S', 'S', 'S', 'S', 'C', 'C', 'C', 'C', 'C', 'C', 'C', 'C', 'C', 'C', 'C', 'C', 'C', 'C', 'C', 'C']","[1997549, 1997849, 1998446, 1999072, 1999698, 2000269, 2000904, 2001523, 2002077, 2002704, 2003332, 2003934, 2004592, 2005226, 2005814, 2006385, 2006975, 2007585, 2008188, 2008795, 2009385, 2009994, 2010586, 2011192]","[1997622, 1998224, 1998884, 1999425, 1999971, 2000628, 2001191, 2001824, 2002387, 2003052, 2003650, 2004218, 2004942, 2005501, 2006137, 2006732, 2007345, 2007926, 2008531, 2009138, 2009734, 2010302, 2010893]","[1997286, 1997885, 1998485, 1999085, 1999685, 2000285, 2000885, 2001485, 2002104, 2002732, 2003359, 2003960, 2004620, 2005253, 2005840, 2006412, 2007003, 2007612, 2008215, 2008821, 2009411, 2010021, 2010612, 2011219]",33,R,ITM,1.1,
5,400,trial,0,107,107,107,trial,"['S', 'S', 'S', 'S', 'S', 'S', 'S', 'S', 'C', 'C', 'C', 'C', 'C', 'C', 'C', 'C', 'C', 'C', 'C', 'C', 'C', 'C', 'C', 'C']","[2017005, 2017379, 2017651, 2017988, 2018357, 2018736, 2019108, 2019482, 2019887, 2020264, 2020640, 2021035, 2021427, 2021810, 2022206, 2022585, 2022974, 2023364, 2023751, 2024154, 2024532, 2024915, 2025323, 2025692]","[2017114, 2017477, 2017763, 2018116, 2018481, 2018860, 2019226, 2019611, 2019995, 2020386, 2020797, 2021180, 2021575, 2021946, 2022328, 2022720, 2023110, 2023484, 2023883, 2024264, 2024649, 2025056, 2025443, 2025837]","[2016786, 2017186, 2017586, 2017986, 2018386, 2018786, 2019186, 2019587, 2019913, 2020290, 2020666, 2021060, 2021453, 2021835, 2022232, 2022610, 2023000, 2023390, 2023777, 2024179, 2024558, 2024941, 2025349, 2025717]",33,R,ITM,1.1,
6,400,trial,0,108,108,108,trial,"['S', 'S', 'S', 'S', 'S', 'S', 'S', 'S', 'C', 'C', 'C', 'C', 'C', 'C', 'C', 'C', 'C', 'C', 'C', 'C', 'C', 'C', 'C', 'C']","[2031497, 2031810, 2032103, 2032449, 2032826, 2033189, 2033607, 2034014, 2034406, 2034791, 2035169, 2035550, 2035951, 2036335, 2036732, 2037128, 2037502, 2037902, 2038286, 2038681, 2039066, 2039450, 2039872, 2040283]","[2031580, 2031928, 2032256, 2032607, 2032986, 2033364, 2033764, 2034140, 2034538, 2034923, 2035329, 2035690, 2036089, 2036476, 2036878, 2037273, 2037655, 2038036, 2038418, 2038797, 2039172, 2039591, 2039997, 2040393]","[2031249, 2031649, 2032050, 2032449, 2032849, 2033249, 2033649, 2034050, 2034433, 2034818, 2035196, 2035577, 2035979, 2036363, 2036760, 2037155, 2037529, 2037929, 2038312, 2038708, 2039093, 2039478, 2039899, 2040309]",33,R,ITM,1.1,
7,400,trial,0,109,109,109,trial,"['S', 'S', 'S', 'S', 'S', 'S', 'S', 'S', 'C', 'C', 'C', 'C', 'C', 'C', 'C', 'C', 'C', 'C', 'C', 'C', 'C', 'C', 'C', 'C']","[2046294, 2046633, 2046885, 2047233, 2047580, 2047958, 2048406, 2048812, 2049230, 2049630, 2050007, 2050391, 2050779, 2051168, 2051578, 2051966, 2052372, 2052768, 2053176, 2053588, 2053983, 2054378, 2054759, 2055164]","[2046366, 2046711, 2047012, 2047355, 2047697, 2048080, 2048529, 2048944, 2049348, 2049740, 2050117, 2050506, 2050904, 2051302, 2051727, 2052091, 2052497, 2052924, 2053314, 2053710, 2054122, 2054497, 2054908, 2055309]","[2046071, 2046472, 2046872, 2047272, 2047672, 2048072, 2048473, 2048872, 2049258, 2049657, 2050033, 2050418, 2050805, 2051195, 2051605, 2051993, 2052399, 2052795, 2053203, 2053615, 2054009, 2054406, 2054787, 2055191]",33,R,ITM,1.1,
2,600,trial,0,110,110,110,trial,"['S', 'S', 'S', 'S', 'S', 'S', 'S', 'S', 'C', 'C', 'C', 'C', 'C', 'C', 'C', 'C', 'C', 'C', 'C', 'C', 'C', 'C', 'C', 'C']","[2060929, 2061193, 2061862, 2062511, 2063093, 2063726, 2064307, 2064928, 2065543, 2066129, 2066749, 2067392, 2068016, 2068636, 2069258, 2069829, 2070436, 2071040, 2071664, 2072258, 2072867, 2073432, 2074046, 2074656]","[2061000, 2061611, 2062278, 2062839, 2063434, 2064073, 2064664, 2065280, 2065829, 2066488, 2067141, 2067755, 2068305, 2068978, 2069601, 2070204, 2070812, 2071419, 2072017, 2072568, 2073187, 2073743, 2074440]","[2060747, 2061347, 2061947, 2062547, 2063147, 2063748, 2064348, 2064947, 2065570, 2066157, 2066776, 2067420, 2068043, 2068664, 2069285, 2069856, 2070463, 2071067, 2071691, 2072285, 2072894, 2073459, 2074073, 2074683]",33,R,ITM,1.1,
7,400,trial,0,111,111,111,trial,"['S', 'S', 'S', 'S', 'S', 'S', 'S', 'S', 'C', 'C', 'C', 'C', 'C', 'C', 'C', 'C', 'C', 'C', 'C', 'C', 'C', 'C', 'C', 'C']","[2080432, 2080769, 2081056, 2081432, 2081819, 2082219, 2082593, 2082987, 2083408, 2083818, 2084232, 2084669, 2085090, 2085508, 2085943, 2086352, 2086769, 2087203, 2087624, 2088007, 2088431, 2088853, 2089284, 2089686]","[2080516, 2080858, 2081179, 2081568, 2081961, 2082344, 2082736, 2083125, 2083562, 2084006, 2084390, 2084807, 2085246, 2085652, 2086091, 2086520, 2086915, 2087341, 2087759, 2088158, 2088602, 2089006, 2089442, 2089844]","[2080231, 2080630, 2081031, 2081430, 2081830, 2082230, 2082630, 2083031, 2083436, 2083846, 2084259, 2084697, 2085117, 2085535, 2085969, 2086380, 2086796, 2087231, 2087651, 2088034, 2088458, 2088880, 2089312, 2089712]",33,R,ITM,1.1,
4,400,trial,0,112,112,112,trial,"['S', 'S', 'S', 'S', 'S', 'S', 'S', 'S', 'C', 'C', 'C', 'C', 'C', 'C', 'C', 'C', 'C', 'C', 'C', 'C', 'C', 'C', 'C', 'C']","[2095552, 2095878, 2096214, 2096576, 2096974, 2097386, 2097748, 2098134, 2098538, 2098935, 2099325, 2099724, 2100113, 2100525, 2100935, 2101331, 2101729, 2102153, 2102581, 2102970, 2103395, 2103801, 2104224, 2104649]","[2095630, 2095973, 2096363, 2096712, 2097100, 2097512, 2097883, 2098269, 2098678, 2099072, 2099466, 2099863, 2100246, 2100638, 2101045, 2101440, 2101849, 2102266, 2102716, 2103109, 2103549, 2103947, 2104356, 2104780]","[2095348, 2095749, 2096148, 2096548, 2096948, 2097348, 2097748, 2098148, 2098564, 2098961, 2099351, 2099749, 2100139, 2100550, 2100961, 2101357, 2101754, 2102178, 2102607, 2102995, 2103420, 2103827, 2104250, 2104675]",33,R,ITM,1.1,
5,400,trial,0,113,113,113,trial,"['S', 'S', 'S', 'S', 'S', 'S', 'S', 'S', 'C', 'C', 'C', 'C', 'C', 'C', 'C', 'C', 'C', 'C', 'C', 'C', 'C', 'C', 'C', 'C']","[2110614, 2110926, 2111237, 2111641, 2112012, 2112403, 2112790, 2113168, 2113603, 2114012, 2114428, 2114819, 2115213, 2115678, 2116055, 2116477, 2116903, 2117311, 2117716, 2118123, 2118523, 2118921, 2119341, 2119762]","[2110702, 2111034, 2111394, 2111773, 2112143, 2112532, 2112928, 2113301, 2113745, 2114139, 2114532, 2114951, 2115369, 2115791, 2116251, 2116656, 2117057, 2117468, 2117863, 2118283, 2118694, 2119067, 2119520, 2119945]","[2110402, 2110801, 2111201, 2111601, 2112002, 2112401, 2112801, 2113202, 2113629, 2114037, 2114455, 2114844, 2115238, 2115703, 2116080, 2116504, 2116929, 2117338, 2117742, 2118149, 2118550, 2118946, 2119366, 2119788]",33,R,ITM,1.1,
2,400,trial,0,114,114,114,trial,"['S', 'S', 'S', 'S', 'S', 'S', 'S', 'S', 'C', 'C', 'C', 'C', 'C', 'C', 'C', 'C', 'C', 'C', 'C', 'C', 'C', 'C', 'C', 'C']","[2125280, 2125635, 2125948, 2126300, 2126694, 2127092, 2127454, 2127862, 2128270, 2128676, 2129112, 2129494, 2129916, 2130334, 2130748, 2131154, 2131571, 2131983, 2132414, 2132823, 2133235, 2133655, 2134079, 2134510]","[2125359, 2125724, 2126085, 2126413, 2126780, 2127181, 2127582, 2127988, 2128399, 2128821, 2129229, 2129606, 2130049, 2130469, 2130893, 2131294, 2131708, 2132106, 2132536, 2132932, 2133335, 2133780, 2134207, 2134629]","[2125087, 2125487, 2125887, 2126286, 2126687, 2127087, 2127488, 2127887, 2128296, 2128703, 2129138, 2129521, 2129943, 2130362, 2130776, 2131181, 2131599, 2132011, 2132442, 2132850, 2133263, 2133683, 2134106, 2134538]",33,R,ITM,1.1,
4,600,trial,0,115,115,115,trial,"['S', 'S', 'S', 'S', 'S', 'S', 'S', 'S', 'C', 'C', 'C', 'C', 'C', 'C', 'C', 'C', 'C', 'C', 'C', 'C', 'C', 'C', 'C', 'C']","[2140492, 2140765, 2141382, 2142008, 2142600, 2143215, 2143827, 2144446, 2145072, 2145696, 2146270, 2146921, 2147548, 2148154, 2148755, 2149358, 2149967, 2150571, 2151137, 2151748, 2152342, 2152924, 2153541, 2154170]","[2140576, 2141151, 2141790, 2142388, 2142976, 2143585, 2144166, 2144815, 2145420, 2145976, 2146541, 2147169, 2147811, 2148472, 2149072, 2149595, 2150217, 2150808, 2151464, 2152075, 2152686, 2153218, 2153852]","[2140263, 2140863, 2141463, 2142063, 2142663, 2143263, 2143863, 2144463, 2145098, 2145722, 2146295, 2146947, 2147573, 2148179, 2148781, 2149384, 2149993, 2150597, 2151163, 2151774, 2152368, 2152949, 2153567, 2154195]",33,R,ITM,1.1,
2,600,trial,0,116,116,116,trial,"['S', 'S', 'S', 'S', 'S', 'S', 'S', 'S', 'C', 'C', 'C', 'C', 'C', 'C', 'C', 'C', 'C', 'C', 'C', 'C', 'C', 'C', 'C', 'C']","[2160016, 2160361, 2160861, 2161418, 2161997, 2162642, 2163205, 2163809, 2164431, 2164973, 2165515, 2166042, 2166580, 2167097, 2167620, 2168134, 2168660, 2169152, 2169632, 2170127, 2170591, 2171105, 2171600, 2172115]","[2160095, 2160591, 2161215, 2161755, 2162391, 2162959, 2163529, 2164137, 2164706, 2165242, 2165798, 2166330, 2166873, 2167396, 2167937, 2168408, 2168956, 2169382, 2169931, 2170427, 2170898, 2171398, 2171900]","[2159761, 2160361, 2160961, 2161561, 2162160, 2162761, 2163361, 2163961, 2164459, 2165001, 2165542, 2166069, 2166606, 2167123, 2167648, 2168162, 2168688, 2169180, 2169659, 2170155, 2170618, 2171131, 2171628, 2172142]",33,R,ITM,1.1,
7,600,trial,0,117,117,117,trial,"['S', 'S', 'S', 'S', 'S', 'S', 'S', 'S', 'C', 'C', 'C', 'C', 'C', 'C', 'C', 'C', 'C', 'C', 'C', 'C', 'C', 'C', 'C', 'C']","[2177760, 2178115, 2178717, 2179331, 2179921, 2180498, 2181150, 2181714, 2182321, 2182903, 2183534, 2184169, 2184787, 2185365, 2185960, 2186583, 2187189, 2187788, 2188394, 2189002, 2189621, 2190210, 2190788, 2191411]","[2177863, 2178498, 2179129, 2179667, 2180192, 2180868, 2181475, 2182062, 2182664, 2183226, 2183829, 2184449, 2185068, 2185650, 2186250, 2186824, 2187416, 2188029, 2188597, 2189212, 2189847, 2190453, 2191034, 2191674]","[2177550, 2178149, 2178749, 2179349, 2179949, 2180549, 2181149, 2181749, 2182347, 2182930, 2183562, 2184196, 2184814, 2185393, 2185988, 2186609, 2187216, 2187814, 2188421, 2189030, 2189648, 2190237, 2190816, 2191438]",33,R,ITM,1.1,
3,400,trial,0,118,118,118,trial,"['S', 'S', 'S', 'S', 'S', 'S', 'S', 'S', 'C', 'C', 'C', 'C', 'C', 'C', 'C', 'C', 'C', 'C', 'C', 'C', 'C', 'C', 'C', 'C']","[2197183, 2197495, 2197809, 2198140, 2198482, 2198848, 2199273, 2199660, 2200096, 2200472, 2200890, 2201271, 2201689, 2202074, 2202508, 2202907, 2203327, 2203717, 2204154, 2204573, 2204998, 2205385, 2205804, 2206208]","[2197274, 2197576, 2197916, 2198242, 2198599, 2198985, 2199380, 2199751, 2200183, 2200583, 2200993, 2201380, 2201791, 2202184, 2202628, 2203023, 2203420, 2203808, 2204269, 2204683, 2205113, 2205510, 2205932, 2206339]","[2196932, 2197331, 2197731, 2198131, 2198532, 2198931, 2199331, 2199731, 2200122, 2200498, 2200915, 2201296, 2201714, 2202099, 2202533, 2202933, 2203353, 2203743, 2204180, 2204599, 2205024, 2205411, 2205830, 2206233]",33,R,ITM,1.1,
4,600,trial,0,119,119,119,trial,"['S', 'S', 'S', 'S', 'S', 'S', 'S', 'S', 'C', 'C', 'C', 'C', 'C', 'C', 'C', 'C', 'C', 'C', 'C', 'C', 'C', 'C', 'C', 'C']","[2212143, 2212481, 2213042, 2213643, 2214234, 2214892, 2215489, 2216036, 2216614, 2217228, 2217844, 2218443, 2219038, 2219643, 2220236, 2220793, 2221423, 2222004, 2222577, 2223224, 2223798, 2224420, 2224983, 2225575]","[2212203, 2212795, 2213410, 2213996, 2214583, 2215222, 2215743, 2216322, 2216895, 2217511, 2218129, 2218716, 2219433, 2219960, 2220514, 2221113, 2221723, 2222237, 2222839, 2223501, 2224126, 2224694, 2225249]","[2211880, 2212481, 2213081, 2213681, 2214280, 2214880, 2215480, 2216080, 2216640, 2217253, 2217870, 2218469, 2219064, 2219669, 2220262, 2220819, 2221449, 2222029, 2222603, 2223250, 2223823, 2224446, 2225008, 2225601]",33,R,ITM,1.1,
4,400,trial,0,120,120,120,trial,"['S', 'S', 'S', 'S', 'S', 'S', 'S', 'S', 'C', 'C', 'C', 'C', 'C', 'C', 'C', 'C', 'C', 'C', 'C', 'C', 'C', 'C', 'C', 'C']","[2231204, 2231557, 2231849, 2232201, 2232571, 2232945, 2233326, 2233748, 2234182, 2234566, 2234960, 2235361, 2235771, 2236141, 2236512, 2236887, 2237284, 2237655, 2238040, 2238441, 2238853, 2239214, 2239604, 2240015]","[2231284, 2231640, 2231960, 2232295, 2232665, 2233043, 2233449, 2233883, 2234291, 2234702, 2235083, 2235478, 2235880, 2236254, 2236614, 2236999, 2237392, 2237758, 2238173, 2238547, 2238943, 2239336, 2239728, 2240150]","[2231044, 2231443, 2231843, 2232243, 2232643, 2233043, 2233443, 2233843, 2234208, 2234592, 2234986, 2235386, 2235797, 2236167, 2236537, 2236912, 2237309, 2237680, 2238065, 2238468, 2238878, 2239241, 2239630, 2240040]",33,R,ITM,1.1,
5,600,trial,0,121,121,121,trial,"['S', 'S', 'S', 'S', 'S', 'S', 'S', 'S', 'C', 'C', 'C', 'C', 'C', 'C', 'C', 'C', 'C', 'C', 'C', 'C', 'C', 'C', 'C', 'C']","[2245764, 2246063, 2246677, 2247280, 2247882, 2248522, 2249143, 2249694, 2250288, 2250880, 2251460, 2252022, 2252576, 2253148, 2253679, 2254261, 2254836, 2255472, 2256033, 2256603, 2257190, 2257744, 2258297, 2258927]","[2245847, 2246472, 2247100, 2247665, 2248272, 2248928, 2249509, 2250053, 2250653, 2251235, 2251801, 2252352, 2252929, 2253485, 2254044, 2254668, 2255220, 2255783, 2256443, 2256976, 2257522, 2258032, 2258635]","[2245574, 2246173, 2246773, 2247373, 2247973, 2248573, 2249174, 2249774, 2250313, 2250906, 2251486, 2252048, 2252602, 2253174, 2253705, 2254286, 2254862, 2255498, 2256060, 2256628, 2257216, 2257770, 2258323, 2258953]",33,R,ITM,1.1,
3,600,trial,0,122,122,122,trial,"['S', 'S', 'S', 'S', 'S', 'S', 'S', 'S', 'C', 'C', 'C', 'C', 'C', 'C', 'C', 'C', 'C', 'C', 'C', 'C', 'C', 'C', 'C', 'C']","[2264754, 2265137, 2265667, 2266254, 2266896, 2267527, 2268109, 2268680, 2269293, 2269915, 2270499, 2271127, 2271733, 2272387, 2272989, 2273589, 2274190, 2274867, 2275461, 2276080, 2276678, 2277350, 2277951, 2278592]","[2264839, 2265387, 2266032, 2266624, 2267298, 2267871, 2268406, 2269030, 2269640, 2270131, 2270728, 2271379, 2271951, 2272689, 2273244, 2273868, 2274588, 2275237, 2275808, 2276376, 2277078, 2277666, 2278266, 2278847]","[2264498, 2265096, 2265696, 2266296, 2266896, 2267496, 2268096, 2268696, 2269319, 2269940, 2270525, 2271153, 2271759, 2272412, 2273014, 2273614, 2274215, 2274892, 2275486, 2276106, 2276704, 2277376, 2277977, 2278618]",33,R,ITM,1.1,
6,600,trial,0,123,123,123,trial,"['S', 'S', 'S', 'S', 'S', 'S', 'S', 'S', 'C', 'C', 'C', 'C', 'C', 'C', 'C', 'C', 'C', 'C', 'C', 'C', 'C', 'C', 'C', 'C']","[2284396, 2284825, 2285410, 2286011, 2286583, 2287225, 2287863, 2288443, 2289039, 2289702, 2290348, 2290996, 2291639, 2292271, 2292920, 2293541, 2294114, 2294767, 2295404, 2296055, 2296632, 2297277, 2297895, 2298591]","[2284485, 2285175, 2285772, 2286332, 2286889, 2287525, 2288122, 2288702, 2289397, 2289998, 2290611, 2291241, 2291906, 2292545, 2293142, 2293756, 2294331, 2295037, 2295650, 2296353, 2296935, 2297600, 2298212]","[2284226, 2284825, 2285425, 2286025, 2286625, 2287225, 2287825, 2288425, 2289067, 2289730, 2290375, 2291023, 2291665, 2292297, 2292946, 2293568, 2294140, 2294794, 2295431, 2296082, 2296658, 2297304, 2297923, 2298617]",33,R,ITM,1.1,
3,400,trial,0,124,124,124,trial,"['S', 'S', 'S', 'S', 'S', 'S', 'S', 'S', 'C', 'C', 'C', 'C', 'C', 'C', 'C', 'C', 'C', 'C', 'C', 'C', 'C', 'C', 'C', 'C']","[2304266, 2304563, 2304807, 2305117, 2305538, 2305946, 2306368, 2306764, 2307163, 2307569, 2308005, 2308400, 2308816, 2309238, 2309629, 2310046, 2310462, 2310861, 2311268, 2311668, 2312083, 2312468, 2312888, 2313303]","[2304345, 2304641, 2304917, 2305227, 2305616, 2306059, 2306493, 2306877, 2307321, 2307702, 2308125, 2308492, 2308913, 2309361, 2309763, 2310174, 2310595, 2311000, 2311427, 2311808, 2312214, 2312599, 2313022, 2313442]","[2303997, 2304397, 2304797, 2305198, 2305597, 2305997, 2306397, 2306797, 2307188, 2307595, 2308031, 2308425, 2308842, 2309264, 2309655, 2310072, 2310488, 2310887, 2311293, 2311694, 2312109, 2312494, 2312913, 2313328]",33,R,ITM,1.1,
