octave,ioi,event,.thisRepN,.thisTrialN,.thisN,.thisIndex,event,tap_types,tap_times,release_times,tone_times,subject,handedness,experiment,version,
,,SPR,0,-1,-1,0,SPR,"['P', 'P', 'P', 'P', 'P', 'P', 'P', 'P', 'P', 'P', 'P', 'P', 'P', 'P', 'P', 'P', 'P', 'P', 'P', 'P', 'P', 'P', 'P', 'P', 'P', 'P', 'P', 'P', 'P', 'P']","[43842, 45492, 49846, 50704, 51526, 52262, 53106, 53963, 54872, 55699, 55799, 56604, 57447, 58423, 59382, 60192, 61028, 61874, 62666, 63645, 64439, 65304, 66157, 67104, 67953, 68787, 69579, 70478, 71462, 72406]","[44611, 49209, 50025, 50904, 51736, 52419, 53327, 54197, 55019, 55719, 55888, 56809, 57630, 58609, 59594, 60374, 61214, 62060, 62883, 63756, 64661, 65523, 66468, 67369, 68222, 69081, 69987, 70891, 71896, 72823]",,18,R,ITM,1.1,
6,500,practice,0,0,0,0,practice,"['S', 'S', 'S', 'S', 'S', 'S', 'S', 'C', 'C', 'C', 'C', 'C', 'C', 'C', 'C', 'C', 'C', 'C', 'C', 'C', 'C', 'C', 'C']","[138247, 139151, 139685, 140153, 140631, 141120, 141581, 142101, 142557, 143059, 143534, 143962, 144430, 144904, 145380, 145818, 146245, 146738, 147189, 147676, 148153, 148616, 149142]","[138510, 139312, 139824, 140291, 140694, 141184, 141631, 142141, 142626, 143105, 143585, 144015, 144482, 144950, 145416, 145871, 146301, 146791, 147235, 147715, 148199, 148662, 149194]","[138195, 138694, 139194, 139695, 140194, 140694, 141194, 141694, 142129, 142583, 143086, 143561, 143988, 144456, 144931, 145406, 145845, 146272, 146764, 147217, 147702, 148180, 148642, 149169]",18,R,ITM,1.1,
5,500,practice,0,1,1,1,practice,"['S', 'S', 'S', 'S', 'S', 'S', 'S', 'S', 'C', 'C', 'C', 'C', 'C', 'C', 'C', 'C', 'C', 'C', 'C', 'C', 'C', 'C', 'C', 'C']","[154648, 154979, 155418, 155897, 156409, 156907, 157394, 157892, 158440, 158922, 159420, 159888, 160390, 160862, 161390, 161872, 162402, 162857, 163365, 163843, 164391, 164879, 165369, 165877]","[154714, 155049, 155474, 155950, 156464, 156947, 157447, 157939, 158497, 158983, 159482, 159927, 160455, 160913, 161445, 161921, 162465, 162928, 163434, 163918, 164459, 164946, 165431, 165944]","[154503, 155001, 155501, 156001, 156502, 157001, 157501, 158002, 158467, 158949, 159446, 159913, 160416, 160887, 161417, 161898, 162427, 162883, 163391, 163868, 164417, 164904, 165395, 165904]",18,R,ITM,1.1,
2,500,practice,0,2,2,2,practice,"['S', 'S', 'S', 'S', 'S', 'S', 'S', 'S', 'C', 'C', 'C', 'C', 'C', 'C', 'C', 'C', 'C', 'C', 'C', 'C', 'C', 'C', 'C', 'C']","[171572, 171949, 172425, 172891, 173381, 173877, 174374, 174870, 175379, 175893, 176365, 176894, 177383, 177912, 178439, 178948, 179470, 179983, 180486, 180975, 181545, 182029, 182545, 183031]","[171639, 172049, 172489, 172954, 173441, 173930, 174444, 174935, 175448, 175953, 176424, 176960, 177434, 177976, 178515, 179012, 179536, 180056, 180562, 181062, 181608, 182109, 182600, 183101]","[171424, 171924, 172425, 172924, 173425, 173924, 174426, 174925, 175406, 175921, 176393, 176920, 177411, 177940, 178466, 178975, 179497, 180009, 180513, 181002, 181573, 182056, 182573, 183058]",18,R,ITM,1.1,
7,500,practice,0,3,3,3,practice,"['S', 'S', 'S', 'S', 'S', 'S', 'S', 'S', 'C', 'C', 'C', 'C', 'C', 'C', 'C', 'C', 'C', 'C', 'C', 'C', 'C', 'C', 'C', 'C']","[188700, 189094, 189511, 189970, 190497, 190982, 191493, 191950, 192479, 193032, 193497, 194017, 194481, 194975, 195464, 195950, 196482, 196968, 197449, 197946, 198462, 198892, 199380, 199905]","[188766, 189166, 189552, 190028, 190532, 191024, 191543, 192002, 192530, 193103, 193568, 194076, 194541, 195045, 195538, 196014, 196533, 197023, 197512, 198017, 198525, 198963, 199446, 199979]","[188553, 189052, 189552, 190052, 190553, 191052, 191552, 192052, 192505, 193059, 193524, 194044, 194508, 195003, 195491, 195978, 196509, 196996, 197476, 197972, 198490, 198919, 199407, 199931]",18,R,ITM,1.1,
3,500,practice,0,4,4,4,practice,"['S', 'S', 'S', 'S', 'S', 'S', 'S', 'S', 'C', 'C', 'C', 'C', 'C', 'C', 'C', 'C', 'C', 'C', 'C', 'C', 'C', 'C', 'C', 'C', 'C']","[205834, 206192, 206656, 207138, 207629, 208130, 208692, 209144, 209645, 210230, 210689, 211187, 211708, 212202, 212659, 212764, 213170, 213660, 214214, 214685, 215152, 215691, 216232, 216697, 217177]","[205895, 206247, 206693, 207198, 207692, 208174, 208736, 209222, 209700, 210265, 210740, 211241, 211771, 212251, 212684, 212784, 213225, 213731, 214261, 214726, 215226, 215727, 216281, 216741, 217236]","[205693, 206192, 206692, 207193, 207692, 208192, 208692, 209192, 209671, 210255, 210714, 211213, 211734, 212228, 212684, 213195, 213686, 214240, 214711, 215178, 215716, 216258, 216723, 217202]",18,R,ITM,1.1,
4,500,practice,0,5,5,5,practice,"['S', 'S', 'S', 'S', 'S', 'S', 'S', 'S', 'C', 'C', 'C', 'C', 'C', 'C', 'C', 'C', 'C', 'C', 'C', 'C', 'C', 'C', 'C', 'C']","[222993, 223330, 223761, 224247, 224789, 225292, 225780, 226267, 226791, 227255, 227776, 228242, 228768, 229262, 229795, 230259, 230752, 231262, 231728, 232240, 232727, 233218, 233732, 234208]","[223027, 223382, 223827, 224299, 224809, 225361, 225800, 226287, 226845, 227301, 227832, 228340, 228816, 229329, 229852, 230337, 230822, 231303, 231817, 232294, 232770, 233275, 233801, 234281]","[222826, 223325, 223825, 224325, 224825, 225326, 225825, 226325, 226817, 227280, 227802, 228268, 228794, 229287, 229821, 230285, 230777, 231287, 231753, 232266, 232753, 233243, 233757, 234233]",18,R,ITM,1.1,
2,600,trial,0,6,6,6,trial,"['S', 'S', 'S', 'S', 'S', 'S', 'S', 'S', 'C', 'C', 'C', 'C', 'C', 'C', 'C', 'C', 'C', 'C', 'C', 'C', 'C', 'C', 'C', 'C']","[289722, 290099, 290583, 291181, 291805, 292440, 293002, 293653, 294288, 294881, 295456, 296046, 296596, 297201, 297786, 298358, 298961, 299541, 300204, 300743, 301357, 301906, 302466, 303017]","[289796, 290158, 290637, 291230, 291856, 292509, 293103, 293728, 294361, 294937, 295516, 296111, 296665, 297261, 297850, 298444, 299048, 299633, 300264, 300827, 301434, 302007, 302584, 303134]","[289569, 290169, 290769, 291368, 291970, 292570, 293170, 293769, 294316, 294908, 295484, 296073, 296624, 297229, 297814, 298386, 298988, 299568, 300230, 300771, 301383, 301934, 302493, 303045]",18,R,ITM,1.1,
7,400,trial,0,7,7,7,trial,"['B', 'S', 'S', 'S', 'S', 'S', 'S', 'S', 'C', 'C', 'C', 'C', 'C', 'C', 'C', 'C', 'C', 'C', 'C', 'C', 'C', 'C', 'C', 'C']","[308346, 308803, 309251, 309588, 309927, 310282, 310697, 311109, 311528, 311913, 312293, 312658, 313035, 313434, 313838, 314243, 314621, 315034, 315474, 315853, 316225, 316645, 317041, 317463]","[308366, 308922, 309327, 309647, 309966, 310329, 310738, 311158, 311568, 311949, 312324, 312707, 313111, 313474, 313895, 314306, 314682, 315079, 315513, 315909, 316284, 316692, 317089, 317499]","[308360, 308758, 309158, 309558, 309958, 310359, 310758, 311158, 311556, 311940, 312321, 312685, 313062, 313461, 313865, 314270, 314648, 315062, 315501, 315880, 316252, 316673, 317068, 317491]",18,R,ITM,1.1,
4,600,trial,0,8,8,8,trial,"['S', 'S', 'S', 'S', 'S', 'S', 'S', 'S', 'C', 'C', 'C', 'C', 'C', 'C', 'C', 'C', 'C', 'C', 'C', 'C', 'C', 'C', 'C', 'C']","[323270, 323521, 323999, 324690, 325382, 325985, 326624, 327197, 327815, 328413, 328981, 329593, 330169, 330728, 331318, 331889, 332477, 333058, 333648, 334221, 334809, 335368, 335943, 336512]","[323324, 323597, 324058, 324772, 325463, 326105, 326644, 327308, 327922, 328489, 329101, 329655, 330257, 330853, 331417, 331975, 332577, 333182, 333776, 334359, 334989, 335479, 336098, 336628]","[323063, 323662, 324262, 324862, 325463, 326063, 326663, 327263, 327840, 328438, 329008, 329619, 330194, 330754, 331343, 331915, 332503, 333084, 333674, 334246, 334834, 335393, 335969, 336537]",18,R,ITM,1.1,
3,600,trial,0,9,9,9,trial,"['S', 'S', 'S', 'S', 'S', 'S', 'S', 'C', 'C', 'C', 'C', 'C', 'C', 'C', 'C', 'C', 'C', 'C', 'C', 'C', 'C', 'C', 'C', 'C']","[342234, 342919, 343630, 344190, 344795, 345413, 346034, 346693, 347286, 347888, 348461, 348566, 349044, 349642, 350269, 350819, 351439, 351992, 352589, 353152, 353735, 354266, 354871, 355437]","[342320, 342996, 343711, 344331, 344916, 345538, 346164, 346836, 347433, 348043, 348486, 348603, 349140, 349777, 350383, 350965, 351602, 352173, 352766, 353325, 353952, 354498, 355076]","[341869, 342469, 343069, 343669, 344269, 344869, 345469, 346070, 346719, 347313, 347914, 348486, 349070, 349668, 350295, 350844, 351465, 352018, 352615, 353177, 353761, 354291, 354896, 355463]",18,R,ITM,1.1,
6,400,trial,0,10,10,10,trial,"['S', 'S', 'S', 'S', 'S', 'S', 'S', 'C', 'C', 'C', 'C', 'C', 'C', 'C', 'C', 'C', 'C', 'C', 'C', 'C', 'C', 'C', 'C']","[361097, 361447, 361995, 362441, 362863, 363255, 363692, 364097, 364497, 364901, 365310, 365743, 366128, 366505, 366886, 367286, 367715, 368104, 368515, 368930, 369309, 369767, 370141]","[361169, 361500, 362066, 362496, 362911, 363313, 363751, 364161, 364541, 364949, 365374, 365770, 366173, 366550, 366943, 367340, 367758, 368141, 368566, 368993, 369373, 369832, 370207]","[360912, 361311, 361711, 362112, 362511, 362911, 363312, 363711, 364124, 364524, 364928, 365338, 365770, 366155, 366532, 366913, 367313, 367741, 368131, 368541, 368957, 369337, 369795, 370167]",18,R,ITM,1.1,
4,400,trial,0,11,11,11,trial,"['S', 'S', 'S', 'S', 'S', 'S', 'S', 'C', 'C', 'C', 'C', 'C', 'C', 'C', 'C', 'C', 'C', 'C', 'C', 'C', 'C', 'C', 'C']","[376120, 376627, 377046, 377472, 377918, 378352, 378714, 379105, 379499, 379884, 380279, 380704, 381101, 381517, 381914, 382296, 382703, 383086, 383480, 383910, 384312, 384733, 385146]","[376181, 376664, 377094, 377508, 377972, 378372, 378764, 379153, 379543, 379932, 380337, 380763, 381154, 381583, 381975, 382372, 382753, 383132, 383537, 383956, 384378, 384807, 385199]","[375928, 376327, 376727, 377127, 377527, 377927, 378328, 378727, 379131, 379525, 379910, 380305, 380731, 381126, 381543, 381939, 382321, 382729, 383112, 383506, 383936, 384337, 384758, 385172]",18,R,ITM,1.1,
4,400,trial,0,12,12,12,trial,"['S', 'S', 'S', 'S', 'S', 'S', 'S', 'C', 'C', 'C', 'C', 'C', 'C', 'C', 'C', 'C', 'C', 'C', 'C', 'C', 'C', 'C', 'C']","[390731, 391098, 391505, 392011, 392468, 392920, 393350, 393766, 394168, 394600, 394997, 395388, 395773, 396214, 396623, 397012, 397412, 397837, 398257, 398636, 399100, 399493, 399921]","[390780, 391149, 391572, 392076, 392529, 392993, 393416, 393823, 394224, 394644, 395062, 395441, 395837, 396268, 396677, 397083, 397486, 397895, 398312, 398681, 399181, 399547, 399983]","[390571, 390969, 391369, 391770, 392169, 392569, 392969, 393369, 393792, 394193, 394626, 395023, 395414, 395799, 396239, 396649, 397038, 397437, 397862, 398282, 398661, 399126, 399518, 399946]",18,R,ITM,1.1,
2,600,trial,0,13,13,13,trial,"['S', 'S', 'S', 'S', 'S', 'S', 'S', 'S', 'C', 'C', 'C', 'C', 'C', 'C', 'C', 'C', 'C', 'C', 'C', 'C', 'C', 'C', 'C', 'C']","[405556, 406044, 406510, 407034, 407610, 408209, 408819, 409379, 409961, 410524, 411119, 411676, 412251, 412802, 413404, 413972, 414567, 415176, 415650, 416199, 416808, 417361, 417922, 418492]","[405619, 406136, 406648, 407232, 407829, 408465, 409061, 409637, 410272, 410828, 411373, 411917, 412520, 413120, 413692, 414240, 414832, 415388, 415915, 416528, 417103, 417649, 418195]","[405293, 405892, 406492, 407092, 407692, 408291, 408892, 409492, 409989, 410552, 411146, 411704, 412277, 412829, 413431, 414000, 414594, 415204, 415677, 416227, 416836, 417389, 417948, 418519]",18,R,ITM,1.1,
2,400,trial,0,14,14,14,trial,"['S', 'S', 'S', 'S', 'S', 'S', 'S', 'C', 'C', 'C', 'C', 'C', 'C', 'C', 'C', 'C', 'C', 'C', 'C', 'C', 'C', 'C', 'C']","[424568, 425101, 425475, 425861, 426269, 426681, 427069, 427458, 427899, 428302, 428690, 429079, 429485, 429870, 430284, 430669, 431051, 431457, 431872, 432270, 432679, 433059, 433460]","[424651, 425178, 425540, 425915, 426312, 426727, 427100, 427509, 427951, 428359, 428747, 429131, 429548, 429937, 430343, 430733, 431123, 431532, 431940, 432331, 432745, 433123, 433539]","[424299, 424699, 425098, 425499, 425899, 426299, 426699, 427100, 427486, 427927, 428329, 428718, 429107, 429512, 429896, 430311, 430697, 431078, 431484, 431899, 432297, 432707, 433087, 433487]",18,R,ITM,1.1,
4,600,trial,0,15,15,15,trial,"['S', 'S', 'S', 'S', 'S', 'S', 'S', 'S', 'C', 'C', 'C', 'C', 'C', 'C', 'C', 'C', 'C', 'C', 'C', 'C', 'C', 'C', 'C', 'C']","[439336, 439717, 440244, 440861, 441479, 442082, 442745, 443242, 443853, 444377, 444890, 445431, 445937, 446456, 447004, 447519, 448084, 448570, 449116, 449617, 450187, 450679, 451215, 451747]","[439400, 439835, 440348, 440963, 441604, 442235, 442903, 443435, 444022, 444561, 445077, 445597, 446177, 446680, 447199, 447687, 448209, 448729, 449329, 449781, 450445, 450849, 451452, 452011]","[439163, 439762, 440363, 440963, 441563, 442162, 442762, 443362, 443879, 444402, 444915, 445457, 445963, 446482, 447030, 447545, 448110, 448595, 449141, 449643, 450212, 450705, 451241, 451773]",18,R,ITM,1.1,
6,600,trial,0,16,16,16,trial,"['S', 'S', 'S', 'S', 'S', 'S', 'S', 'S', 'C', 'C', 'C', 'C', 'C', 'C', 'C', 'C', 'C', 'C', 'C', 'C', 'C', 'C', 'C', 'C']","[457558, 457938, 458474, 459057, 459633, 460262, 460880, 461463, 462099, 462688, 463275, 463862, 464442, 465056, 465662, 466269, 466833, 467411, 468025, 468639, 469227, 469824, 470402, 471033]","[457653, 458090, 458665, 459258, 459899, 460534, 461174, 461760, 462393, 462972, 463594, 464166, 464765, 465389, 465950, 466574, 467144, 467759, 468340, 468940, 469496, 470117, 470757]","[457371, 457970, 458570, 459170, 459770, 460370, 460971, 461571, 462127, 462714, 463301, 463889, 464470, 465083, 465689, 466295, 466860, 467438, 468052, 468666, 469254, 469852, 470428, 471060]",18,R,ITM,1.1,
3,400,trial,0,17,17,17,trial,"['S', 'S', 'S', 'S', 'S', 'S', 'S', 'C', 'C', 'C', 'C', 'C', 'C', 'C', 'C', 'C', 'C', 'C', 'C', 'C', 'C', 'C', 'C']","[476569, 476960, 477337, 477810, 478307, 478718, 479138, 479554, 479928, 480319, 480703, 481086, 481467, 481860, 482259, 482631, 483031, 483428, 483809, 484191, 484581, 485000, 485396]","[476706, 477101, 477471, 477908, 478382, 478777, 479205, 479603, 479992, 480369, 480755, 481137, 481529, 481930, 482327, 482691, 483083, 483479, 483859, 484247, 484631, 485044, 485438]","[476404, 476805, 477204, 477604, 478004, 478404, 478804, 479204, 479580, 479953, 480345, 480729, 481112, 481492, 481886, 482285, 482657, 483056, 483453, 483834, 484216, 484606, 485025, 485422]",18,R,ITM,1.1,
2,400,trial,0,18,18,18,trial,"['S', 'S', 'S', 'S', 'S', 'S', 'S', 'S', 'C', 'C', 'C', 'C', 'C', 'C', 'C', 'C', 'C', 'C', 'C', 'C', 'C', 'C', 'C', 'C']","[511614, 511975, 512305, 512667, 513070, 513487, 513941, 514305, 514719, 515099, 515505, 515945, 516377, 516770, 517223, 517619, 518059, 518430, 518838, 519264, 519675, 520104, 520521, 520939]","[511676, 512026, 512352, 512739, 513134, 513544, 514007, 514383, 514796, 515163, 515572, 516008, 516443, 516843, 517301, 517691, 518128, 518504, 518897, 519321, 519744, 520177, 520607, 521018]","[511504, 511904, 512304, 512703, 513104, 513504, 513903, 514305, 514746, 515127, 515531, 515973, 516405, 516798, 517250, 517646, 518086, 518457, 518864, 519290, 519702, 520132, 520548, 520966]",18,R,ITM,1.1,
3,600,trial,0,19,19,19,trial,"['S', 'S', 'S', 'S', 'S', 'S', 'S', 'C', 'C', 'C', 'C', 'C', 'C', 'C', 'C', 'C', 'C', 'C', 'C', 'C', 'C', 'C', 'C']","[526517, 527113, 527904, 528537, 529200, 529807, 530460, 531074, 531654, 532251, 532867, 533440, 534021, 534563, 535156, 535762, 536289, 536910, 537466, 538092, 538682, 539279, 539848]","[526590, 527183, 527976, 528607, 529265, 529876, 530522, 531138, 531729, 532305, 532921, 533488, 534084, 534636, 535230, 535814, 536363, 536974, 537553, 538184, 538749, 539338, 539905]","[526309, 526908, 527508, 528108, 528708, 529308, 529908, 530508, 531099, 531680, 532277, 532892, 533466, 534046, 534589, 535183, 535788, 536314, 536936, 537492, 538118, 538707, 539304, 539874]",18,R,ITM,1.1,
5,600,trial,0,20,20,20,trial,"['S', 'S', 'S', 'S', 'S', 'S', 'S', 'S', 'S', 'C', 'C', 'C', 'C', 'C', 'C', 'C', 'C', 'C', 'C', 'C', 'C', 'C', 'C', 'C', 'C']","[545722, 546238, 547063, 547721, 548363, 548964, 549064, 549578, 549678, 550203, 550852, 551418, 552008, 552569, 553148, 553740, 554327, 554903, 555479, 556040, 556680, 557242, 557833, 558464, 559056]","[545795, 546385, 547201, 547906, 548534, 548984, 549136, 549598, 549799, 550471, 551002, 551634, 552236, 552792, 553387, 553965, 554559, 555154, 555766, 556322, 556950, 557538, 558144, 558702, 559312]","[545435, 546035, 546635, 547235, 547835, 548435, 549036, 549636, 550228, 550878, 551444, 552035, 552596, 553174, 553765, 554352, 554929, 555504, 556065, 556705, 557268, 557859, 558489, 559082]",18,R,ITM,1.1,
5,600,trial,0,21,21,21,trial,"['S', 'S', 'S', 'S', 'S', 'S', 'S', 'C', 'C', 'C', 'C', 'C', 'C', 'C', 'C', 'C', 'C', 'C', 'C', 'C', 'C', 'C', 'C']","[564845, 565389, 566174, 566844, 567521, 568093, 568682, 569308, 569915, 570491, 571128, 571678, 572271, 572812, 573443, 574012, 574600, 575172, 575771, 576377, 576952, 577522, 578162]","[564928, 565518, 566274, 566967, 567655, 568241, 568814, 569476, 570049, 570660, 571237, 571852, 572426, 572979, 573663, 574240, 574835, 575396, 576026, 576606, 577149, 577701, 578329]","[564567, 565167, 565767, 566367, 566967, 567567, 568167, 568767, 569333, 569942, 570518, 571154, 571705, 572297, 572837, 573468, 574039, 574625, 575198, 575797, 576403, 576978, 577549, 578188]",18,R,ITM,1.1,
7,600,trial,0,22,22,22,trial,"['S', 'S', 'S', 'S', 'S', 'S', 'S', 'S', 'C', 'C', 'C', 'C', 'C', 'C', 'C', 'C', 'C', 'C', 'C', 'C', 'C', 'C', 'C', 'C']","[583649, 584045, 584558, 585176, 585766, 586396, 586968, 587594, 588208, 588789, 589336, 589903, 590452, 591026, 591584, 592115, 592753, 593307, 593897, 594444, 595104, 595639, 596281, 596845]","[583730, 584131, 584638, 585260, 585842, 586457, 587083, 587682, 588277, 588859, 589433, 590016, 590594, 591155, 591720, 592244, 592932, 593437, 594026, 594591, 595192, 595806, 596397, 596995]","[583483, 584082, 584682, 585282, 585882, 586482, 587082, 587682, 588235, 588817, 589364, 589931, 590480, 591053, 591610, 592142, 592781, 593334, 593925, 594471, 595132, 595665, 596308, 596872]",18,R,ITM,1.1,
6,400,trial,0,23,23,23,trial,"['S', 'S', 'S', 'S', 'S', 'S', 'S', 'C', 'C', 'C', 'C', 'C', 'C', 'C', 'C', 'C', 'C', 'C', 'C', 'C', 'C', 'C', 'C']","[602762, 603128, 603499, 603915, 604402, 604887, 605333, 605737, 606111, 606501, 606913, 607296, 607702, 608080, 608461, 608842, 609229, 609635, 609991, 610365, 610717, 611111, 611483]","[602827, 603196, 603580, 603985, 604468, 604930, 605377, 605794, 606156, 606542, 606955, 607358, 607749, 608126, 608521, 608911, 609285, 609682, 610065, 610467, 610795, 611181, 611569]","[602593, 602992, 603393, 603792, 604192, 604593, 604992, 605392, 605765, 606138, 606528, 606940, 607323, 607728, 608108, 608488, 608869, 609256, 609661, 610018, 610392, 610744, 611138, 611510]",18,R,ITM,1.1,
7,400,trial,0,24,24,24,trial,"['S', 'S', 'S', 'S', 'S', 'S', 'S', 'C', 'C', 'C', 'C', 'C', 'C', 'C', 'C', 'C', 'C', 'C', 'C', 'C', 'C', 'C', 'C']","[617364, 617921, 618324, 618726, 619126, 619539, 619912, 620323, 620700, 621095, 621514, 621903, 622288, 622670, 623063, 623481, 623846, 624207, 624595, 624994, 625392, 625759, 626176]","[617457, 617998, 618344, 618746, 619146, 619559, 619932, 620391, 620741, 621142, 621568, 621975, 622340, 622713, 623118, 623536, 623908, 624253, 624673, 625034, 625499, 625839, 626216]","[617194, 617593, 617993, 618393, 618793, 619193, 619593, 619994, 620350, 620727, 621122, 621542, 621930, 622316, 622698, 623089, 623508, 623874, 624234, 624623, 625020, 625420, 625785, 626202]",18,R,ITM,1.1,
3,400,trial,0,25,25,25,trial,"['S', 'S', 'S', 'S', 'S', 'S', 'S', 'S', 'C', 'C', 'C', 'C', 'C', 'C', 'C', 'C', 'C', 'C', 'C', 'C', 'C', 'C', 'C', 'C']","[631753, 632112, 632409, 632758, 633143, 633498, 633921, 634308, 634717, 635131, 635484, 635905, 636316, 636689, 637129, 637488, 637901, 638295, 638697, 639081, 639470, 639828, 640232, 640631]","[631823, 632175, 632483, 632835, 633207, 633545, 633967, 634328, 634769, 635193, 635540, 635966, 636380, 636755, 637190, 637569, 637981, 638366, 638781, 639148, 639520, 639885, 640290, 640693]","[631578, 631979, 632378, 632778, 633179, 633578, 633978, 634378, 634742, 635157, 635509, 635930, 636342, 636715, 637155, 637513, 637927, 638320, 638723, 639107, 639496, 639853, 640258, 640657]",18,R,ITM,1.1,
6,600,trial,0,26,26,26,trial,"['S', 'S', 'S', 'S', 'S', 'S', 'S', 'S', 'C', 'C', 'C', 'C', 'C', 'C', 'C', 'C', 'C', 'C', 'C', 'C', 'C', 'C', 'C', 'C', 'C', 'C']","[646268, 646661, 647214, 647847, 648427, 649059, 649672, 650293, 650869, 650976, 651443, 652051, 652161, 652622, 653212, 653776, 654329, 654925, 655538, 656090, 656721, 657252, 657910, 658427, 658962, 659577]","[646320, 646734, 647280, 647927, 648448, 649079, 649692, 650377, 650896, 650996, 651596, 652079, 652209, 652796, 653417, 653950, 654516, 655138, 655779, 656313, 656977, 657519, 658113, 658751, 659270, 659815]","[646103, 646702, 647302, 647902, 648502, 649102, 649702, 650302, 650896, 651469, 652079, 652650, 653240, 653804, 654356, 654952, 655564, 656117, 656748, 657278, 657937, 658455, 658990, 659605]",18,R,ITM,1.1,
5,400,trial,0,27,27,27,trial,"['S', 'S', 'S', 'S', 'S', 'S', 'S', 'C', 'C', 'C', 'C', 'C', 'C', 'C', 'C', 'C', 'C', 'C', 'C', 'C', 'C', 'C', 'C']","[665217, 665636, 666043, 666479, 666871, 667271, 667703, 668113, 668514, 668895, 669303, 669702, 670096, 670487, 670892, 671280, 671720, 672110, 672509, 672925, 673311, 673705, 674136]","[665287, 665711, 666077, 666515, 666906, 667291, 667742, 668161, 668560, 668988, 669365, 669745, 670137, 670540, 670937, 671342, 671773, 672180, 672575, 672973, 673353, 673755, 674197]","[664903, 665304, 665703, 666103, 666503, 666903, 667303, 667703, 668139, 668539, 668920, 669329, 669727, 670123, 670513, 670917, 671305, 671746, 672136, 672535, 672952, 673337, 673731, 674161]",18,R,ITM,1.1,
7,600,trial,0,28,28,28,trial,"['S', 'S', 'S', 'S', 'S', 'S', 'S', 'S', 'C', 'C', 'C', 'C', 'C', 'C', 'C', 'C', 'C', 'C', 'C', 'C', 'C', 'C', 'C', 'C']","[680214, 680675, 681085, 681639, 682199, 682832, 683414, 684032, 684646, 685178, 685691, 686210, 686711, 687230, 687716, 688206, 688694, 689189, 689662, 690212, 690670, 691266, 691697, 692216]","[680269, 680723, 681147, 681659, 682238, 682852, 683495, 684092, 684688, 685238, 685763, 686276, 686786, 687325, 687779, 688250, 688764, 689250, 689744, 690258, 690742, 691318, 691770, 692280]","[679921, 680520, 681120, 681720, 682320, 682920, 683521, 684121, 684673, 685206, 685718, 686236, 686738, 687257, 687742, 688234, 688720, 689217, 689690, 690239, 690697, 691294, 691725, 692243]",18,R,ITM,1.1,
5,400,trial,0,29,29,29,trial,"['S', 'S', 'S', 'S', 'S', 'S', 'S', 'C', 'C', 'C', 'C', 'C', 'C', 'C', 'C', 'C', 'C', 'C', 'C', 'C', 'C', 'C', 'C']","[698023, 698426, 698896, 699326, 699717, 700107, 700506, 700907, 701306, 701724, 702134, 702524, 702929, 703352, 703780, 704168, 704585, 704971, 705437, 705808, 706226, 706622, 707027]","[698085, 698487, 698947, 699368, 699737, 700166, 700566, 700971, 701391, 701786, 702204, 702579, 702993, 703426, 703837, 704253, 704654, 705062, 705528, 705905, 706305, 706698, 707079]","[697759, 698160, 698559, 698959, 699359, 699759, 700160, 700559, 700933, 701332, 701750, 702159, 702550, 702956, 703378, 703807, 704194, 704612, 704997, 705464, 705835, 706252, 706648, 707053]",18,R,ITM,1.1,
4,600,trial,0,30,30,30,trial,"['S', 'S', 'S', 'S', 'S', 'S', 'S', 'S', 'C', 'C', 'C', 'C', 'C', 'C', 'C', 'C', 'C', 'C', 'C', 'C', 'C', 'C', 'C', 'C']","[717446, 717863, 718302, 718832, 719471, 720080, 720689, 721319, 721885, 722436, 723010, 723581, 724161, 724711, 725238, 725825, 726398, 726968, 727428, 728020, 728586, 729152, 729723, 730304]","[717534, 717927, 718370, 718928, 719622, 720256, 720875, 721506, 722062, 722688, 723246, 723827, 724415, 724907, 725361, 725991, 726593, 727143, 727595, 728247, 728834, 729446, 730007, 730560]","[717197, 717796, 718396, 718996, 719596, 720196, 720796, 721396, 721910, 722461, 723036, 723607, 724188, 724737, 725264, 725851, 726424, 726993, 727453, 728045, 728612, 729178, 729750, 730330]",18,R,ITM,1.1,
5,600,trial,0,31,31,31,trial,"['S', 'S', 'S', 'S', 'S', 'S', 'S', 'S', 'C', 'C', 'C', 'C', 'C', 'C', 'C', 'C', 'C', 'C', 'C', 'C', 'C', 'C', 'C', 'C']","[736176, 736553, 737038, 737609, 738182, 738820, 739415, 740016, 740642, 741212, 741785, 742346, 742922, 743519, 744034, 744628, 745184, 745753, 746310, 746891, 747466, 748044, 748576, 749190]","[736251, 736645, 737100, 737669, 738238, 738885, 739459, 740071, 740720, 741259, 741835, 742404, 743019, 743589, 744127, 744696, 745251, 745840, 746378, 746984, 747554, 748142, 748664, 749275]","[735942, 736541, 737141, 737741, 738341, 738941, 739542, 740142, 740668, 741237, 741811, 742372, 742947, 743544, 744059, 744653, 745209, 745779, 746337, 746916, 747492, 748069, 748602, 749215]",18,R,ITM,1.1,
3,400,trial,0,32,32,32,trial,"['S', 'S', 'S', 'S', 'S', 'S', 'S', 'C', 'C', 'C', 'C', 'C', 'C', 'C', 'C', 'C', 'C', 'C', 'C', 'C', 'C', 'C', 'C']","[754733, 755137, 755499, 755939, 756371, 756837, 757298, 757704, 758098, 758525, 758912, 759289, 759682, 760081, 760482, 760854, 761189, 761577, 762030, 762450, 762907, 763281, 763723]","[754790, 755197, 755550, 755995, 756444, 756900, 757344, 757755, 758164, 758578, 758974, 759344, 759739, 760150, 760550, 760918, 761283, 761687, 762087, 762513, 762966, 763338, 763785]","[754569, 754969, 755369, 755769, 756169, 756570, 756969, 757369, 757730, 758124, 758551, 758937, 759315, 759707, 760107, 760509, 760880, 761214, 761603, 762055, 762476, 762933, 763307, 763749]",18,R,ITM,1.1,
5,400,trial,0,33,33,33,trial,"['S', 'S', 'S', 'S', 'S', 'S', 'S', 'C', 'C', 'C', 'C', 'C', 'C', 'C', 'C', 'C', 'C', 'C', 'C', 'C', 'C', 'C', 'C']","[769328, 769689, 770158, 770617, 771044, 771425, 771859, 772269, 772631, 773009, 773390, 773807, 774172, 774589, 774968, 775360, 775749, 776143, 776530, 776891, 777306, 777679, 778055]","[769378, 769746, 770210, 770674, 771076, 771484, 771895, 772316, 772700, 773076, 773453, 773853, 774248, 774663, 775018, 775414, 775821, 776192, 776580, 776943, 777331, 777723, 778082]","[769115, 769513, 769913, 770313, 770713, 771113, 771513, 771913, 772294, 772657, 773035, 773415, 773832, 774198, 774616, 774993, 775386, 775775, 776169, 776556, 776918, 777331, 777705, 778081]",18,R,ITM,1.1,
2,600,trial,0,34,34,34,trial,"['S', 'S', 'S', 'S', 'S', 'S', 'S', 'S', 'C', 'C', 'C', 'C', 'C', 'C', 'C', 'C', 'C', 'C', 'C', 'C', 'C', 'C', 'C', 'C']","[783780, 784274, 784752, 785312, 785883, 786472, 787081, 787679, 788299, 788876, 789437, 789998, 790592, 791169, 791738, 792310, 792915, 793256, 793540, 794248, 794800, 795422, 795992, 796596]","[783830, 784349, 784838, 785410, 786002, 786577, 787264, 787817, 788429, 789036, 789644, 790247, 790872, 791415, 792018, 792596, 793170, 793283, 793862, 794493, 795052, 795648, 796255]","[783534, 784133, 784734, 785333, 785933, 786533, 787133, 787732, 788326, 788903, 789465, 790025, 790619, 791196, 791764, 792337, 792942, 793283, 793567, 794275, 794827, 795450, 796018, 796623]",18,R,ITM,1.1,
3,400,trial,0,35,35,35,trial,"['S', 'S', 'S', 'S', 'S', 'S', 'S', 'C', 'C', 'C', 'C', 'C', 'C', 'C', 'C', 'C', 'C', 'C', 'C', 'C', 'C', 'C', 'C']","[802448, 802761, 803205, 803643, 804056, 804471, 804889, 805306, 805702, 806095, 806503, 806901, 807343, 807739, 808167, 808599, 809051, 809488, 809930, 810313, 810803, 811209, 811646]","[802539, 802806, 803252, 803663, 804076, 804491, 804930, 805349, 805738, 806152, 806558, 806958, 807400, 807817, 808244, 808666, 809118, 809565, 809994, 810414, 810889, 811297, 811751]","[802150, 802550, 802951, 803351, 803751, 804151, 804551, 804952, 805331, 805728, 806121, 806529, 806927, 807368, 807764, 808193, 808625, 809076, 809513, 809956, 810339, 810828, 811235, 811672]",18,R,ITM,1.1,
7,400,trial,0,36,36,36,trial,"['S', 'S', 'S', 'S', 'S', 'S', 'S', 'C', 'C', 'C', 'C', 'C', 'C', 'C', 'C', 'C', 'C', 'C', 'C', 'C', 'C', 'C', 'C']","[817589, 817965, 818404, 818830, 819273, 819659, 820088, 820475, 820868, 821254, 821666, 822032, 822381, 822803, 823206, 823577, 823975, 824343, 824740, 825128, 825544, 825958, 826344]","[817649, 818027, 818443, 818865, 819328, 819717, 820127, 820532, 820927, 821302, 821711, 822084, 822461, 822847, 823255, 823644, 824052, 824412, 824812, 825199, 825612, 826025, 826404]","[817328, 817726, 818126, 818526, 818926, 819326, 819727, 820126, 820503, 820894, 821281, 821694, 822060, 822409, 822831, 823233, 823605, 824003, 824371, 824767, 825156, 825572, 825985, 826371]",18,R,ITM,1.1,
7,600,trial,0,37,37,37,trial,"['S', 'S', 'S', 'S', 'S', 'S', 'S', 'S', 'C', 'C', 'C', 'C', 'C', 'C', 'C', 'C', 'C', 'C', 'C', 'C', 'C', 'C', 'C', 'C']","[831990, 832323, 832852, 833471, 834095, 834676, 835267, 835892, 836573, 837153, 837706, 838324, 838876, 839533, 840091, 840667, 841214, 841798, 842381, 842920, 843520, 844087, 844633, 845238]","[832033, 832393, 832932, 833519, 834189, 834766, 835357, 836033, 836656, 837274, 837898, 838504, 839078, 839720, 840313, 840887, 841449, 842018, 842600, 843169, 843761, 844344, 844888, 845467]","[831776, 832375, 832975, 833575, 834176, 834776, 835376, 835976, 836600, 837181, 837734, 838350, 838903, 839560, 840118, 840693, 841242, 841826, 842407, 842948, 843546, 844114, 844659, 845264]",18,R,ITM,1.1,
2,400,trial,0,38,38,38,trial,"['S', 'S', 'S', 'S', 'S', 'S', 'S', 'C', 'C', 'C', 'C', 'C', 'C', 'C', 'C', 'C', 'C', 'C', 'C', 'C', 'C', 'C', 'C']","[850861, 851228, 851639, 852077, 852516, 852903, 853340, 853724, 854118, 854508, 854876, 855279, 855671, 856070, 856461, 856868, 857275, 857660, 858072, 858464, 858867, 859254, 859645]","[850927, 851281, 851701, 852115, 852585, 852985, 853390, 853782, 854173, 854565, 854953, 855343, 855735, 856131, 856530, 856935, 857349, 857739, 858135, 858532, 858942, 859318, 859709]","[850585, 850984, 851385, 851785, 852185, 852585, 852984, 853385, 853750, 854146, 854536, 854902, 855307, 855699, 856097, 856488, 856895, 857302, 857688, 858099, 858490, 858894, 859281, 859672]",18,R,ITM,1.1,
6,400,trial,0,39,39,39,trial,"['S', 'S', 'S', 'S', 'S', 'S', 'S', 'C', 'C', 'C', 'C', 'C', 'C', 'C', 'C', 'C', 'C', 'C', 'C', 'C', 'C', 'C', 'C']","[865584, 865915, 866418, 866861, 867293, 867712, 868122, 868521, 868899, 869287, 869658, 870059, 870438, 870837, 871259, 871649, 872033, 872442, 872830, 873221, 873605, 874022, 874411]","[865645, 865961, 866461, 866907, 867341, 867767, 868182, 868573, 868959, 869339, 869710, 870110, 870498, 870897, 871304, 871709, 872098, 872481, 872883, 873260, 873668, 874060, 874459]","[865382, 865781, 866182, 866581, 866981, 867381, 867781, 868182, 868549, 868927, 869314, 869685, 870085, 870465, 870863, 871285, 871676, 872060, 872469, 872857, 873247, 873631, 874050, 874438]",18,R,ITM,1.1,
6,600,trial,0,40,40,40,trial,"['S', 'S', 'S', 'S', 'S', 'S', 'S', 'S', 'C', 'C', 'C', 'C', 'C', 'C', 'C', 'C', 'C', 'C', 'C', 'C', 'C', 'C', 'C', 'C']","[880178, 880507, 881134, 881748, 882359, 882923, 883610, 884151, 884760, 885367, 885928, 886449, 887024, 887604, 888199, 888786, 889369, 889959, 890533, 891119, 891713, 892340, 893021, 893637]","[880234, 880578, 881191, 881801, 882409, 883027, 883630, 884209, 884854, 885444, 886062, 886596, 887207, 887767, 888357, 888954, 889546, 890163, 890764, 891341, 891956, 892569, 893248, 893828]","[880003, 880602, 881202, 881801, 882401, 883001, 883601, 884201, 884787, 885394, 885955, 886476, 887052, 887630, 888225, 888813, 889396, 889986, 890560, 891146, 891740, 892367, 893047, 893664]",18,R,ITM,1.1,
5,400,trial,0,41,41,41,trial,"['S', 'S', 'S', 'S', 'S', 'S', 'S', 'S', 'C', 'C', 'C', 'C', 'C', 'C', 'C', 'C', 'C', 'C', 'C', 'C', 'C', 'C', 'C', 'C']","[899271, 899605, 899932, 900244, 900615, 901028, 901447, 901837, 902250, 902620, 903022, 903418, 903826, 904225, 904612, 905012, 905424, 905820, 906234, 906680, 907107, 907527, 907945, 908348]","[899317, 899664, 899966, 900290, 900654, 901076, 901491, 901885, 902290, 902669, 903064, 903457, 903861, 904268, 904665, 905073, 905470, 905881, 906286, 906725, 907162, 907572, 908002, 908395]","[899085, 899484, 899885, 900284, 900684, 901085, 901485, 901885, 902277, 902645, 903048, 903444, 903852, 904251, 904638, 905037, 905450, 905845, 906260, 906705, 907132, 907552, 907971, 908374]",18,R,ITM,1.1,
4,400,trial,0,42,42,42,trial,"['S', 'S', 'S', 'S', 'S', 'S', 'S', 'S', 'C', 'C', 'C', 'C', 'C', 'C', 'C', 'C', 'C', 'C', 'C', 'C', 'C', 'C', 'C', 'C']","[923231, 923589, 923913, 924244, 924617, 925051, 925405, 925835, 926219, 926613, 927017, 927408, 927819, 928206, 928616, 929022, 929386, 929788, 930181, 930604, 930980, 931373, 931787, 932186]","[923287, 923634, 923948, 924264, 924648, 925089, 925425, 925880, 926262, 926663, 927068, 927459, 927878, 928252, 928667, 929078, 929473, 929858, 930249, 930666, 931047, 931435, 931841, 932243]","[923075, 923475, 923875, 924275, 924676, 925075, 925475, 925875, 926244, 926639, 927043, 927433, 927845, 928232, 928642, 929048, 929412, 929814, 930206, 930629, 931006, 931398, 931813, 932211]",18,R,ITM,1.1,
7,400,trial,0,43,43,43,trial,"['S', 'S', 'S', 'S', 'S', 'S', 'S', 'S', 'C', 'C', 'C', 'C', 'C', 'C', 'C', 'C', 'C', 'C', 'C', 'C', 'C', 'C', 'C', 'C']","[938143, 938436, 938742, 939087, 939505, 939901, 940341, 940722, 941110, 941445, 941846, 942226, 942603, 942990, 943396, 943778, 944162, 944542, 944914, 945298, 945697, 946074, 946464, 946871]","[938205, 938485, 938773, 939130, 939554, 939941, 940390, 940778, 941158, 941504, 941900, 942277, 942665, 943062, 943460, 943842, 944227, 944609, 944966, 945349, 945748, 946140, 946515, 946923]","[937943, 938341, 938741, 939142, 939541, 939941, 940341, 940741, 941136, 941471, 941873, 942254, 942629, 943017, 943423, 943806, 944190, 944570, 944942, 945326, 945725, 946101, 946492, 946897]",18,R,ITM,1.1,
4,600,trial,0,44,44,44,trial,"['S', 'S', 'S', 'S', 'S', 'S', 'S', 'S', 'C', 'C', 'C', 'C', 'C', 'C', 'C', 'C', 'C', 'C', 'C', 'C', 'C', 'C', 'C', 'C']","[952656, 952906, 953546, 954184, 954775, 955381, 956015, 956594, 957184, 957770, 958334, 958952, 959495, 960032, 960643, 961167, 961745, 962275, 962846, 963406, 963954, 964502, 965100, 965635]","[952711, 952966, 953610, 954234, 954856, 955474, 956101, 956698, 957280, 957938, 958513, 959107, 959681, 960247, 960834, 961371, 961993, 962538, 963079, 963612, 964199, 964746, 965270, 965835]","[952435, 953034, 953634, 954234, 954834, 955435, 956035, 956635, 957209, 957796, 958359, 958978, 959520, 960058, 960668, 961192, 961771, 962300, 962872, 963432, 963980, 964528, 965126, 965660]",18,R,ITM,1.1,
6,400,trial,0,45,45,45,trial,"['S', 'S', 'S', 'S', 'S', 'S', 'S', 'S', 'C', 'C', 'C', 'C', 'C', 'C', 'C', 'C', 'C', 'C', 'C', 'C', 'C', 'C', 'C', 'C']","[971246, 971619, 971950, 972288, 972651, 973025, 973455, 973810, 974208, 974598, 974972, 975365, 975731, 976161, 976563, 976932, 977331, 977698, 978105, 978502, 978895, 979280, 979678, 980055]","[971324, 971680, 971991, 972325, 972699, 973045, 973492, 973871, 974271, 974658, 975036, 975425, 975809, 976216, 976623, 977021, 977393, 977770, 978174, 978568, 978970, 979360, 979752, 980117]","[971067, 971466, 971867, 972266, 972666, 973066, 973466, 973867, 974234, 974625, 974999, 975391, 975759, 976189, 976589, 976960, 977357, 977726, 978131, 978529, 978922, 979308, 979704, 980081]",18,R,ITM,1.1,
3,600,trial,0,46,46,46,trial,"['S', 'S', 'S', 'S', 'S', 'S', 'S', 'S', 'C', 'C', 'C', 'C', 'C', 'C', 'C', 'C', 'C', 'C', 'C', 'C', 'C', 'C', 'C', 'C']","[985699, 986218, 986705, 987258, 987827, 988395, 989004, 989588, 990149, 990710, 991278, 991864, 992389, 992954, 993528, 994126, 994701, 995270, 995814, 996382, 996924, 997504, 998012, 998589]","[985776, 986281, 986781, 987343, 987930, 988495, 989159, 989754, 990295, 990913, 991478, 991993, 992550, 993141, 993694, 994298, 994862, 995457, 996043, 996587, 997169, 997732, 998213, 998849]","[985459, 986058, 986658, 987258, 987858, 988459, 989059, 989659, 990175, 990736, 991303, 991890, 992414, 992979, 993554, 994152, 994726, 995296, 995840, 996408, 996950, 997529, 998038, 998615]",18,R,ITM,1.1,
5,600,trial,0,47,47,47,trial,"['S', 'S', 'S', 'S', 'S', 'S', 'S', 'S', 'C', 'C', 'C', 'C', 'C', 'C', 'C', 'C', 'C', 'C', 'C', 'C', 'C', 'C', 'C', 'C']","[1004363, 1004840, 1005310, 1005832, 1006386, 1006968, 1007539, 1008181, 1008790, 1009374, 1009899, 1010470, 1011006, 1011564, 1012085, 1012628, 1013209, 1013740, 1014339, 1014866, 1015397, 1015931, 1016504, 1017056]","[1004437, 1004942, 1005406, 1005929, 1006552, 1007119, 1007733, 1008348, 1008961, 1009572, 1010117, 1010702, 1011273, 1011807, 1012375, 1012952, 1013517, 1014029, 1014603, 1015180, 1015736, 1016289, 1016829]","[1004066, 1004665, 1005265, 1005865, 1006466, 1007066, 1007666, 1008266, 1008817, 1009399, 1009926, 1010497, 1011033, 1011590, 1012111, 1012654, 1013235, 1013766, 1014365, 1014892, 1015424, 1015957, 1016530, 1017081]",18,R,ITM,1.1,
3,600,trial,0,48,48,48,trial,"['S', 'S', 'S', 'S', 'S', 'S', 'S', 'S', 'C', 'C', 'C', 'C', 'C', 'C', 'C', 'C', 'C', 'C', 'C', 'C', 'C', 'C', 'C', 'C']","[1022964, 1023326, 1023832, 1024396, 1025010, 1025642, 1026249, 1026904, 1027476, 1028152, 1028677, 1029174, 1029734, 1030205, 1030701, 1031200, 1031691, 1032158, 1032623, 1033074, 1033526, 1033986, 1034436, 1034895]","[1023045, 1023482, 1024067, 1024652, 1025260, 1025883, 1026538, 1027131, 1027752, 1028369, 1028913, 1029486, 1029986, 1030472, 1030939, 1031396, 1031875, 1032310, 1032786, 1033214, 1033730, 1034166, 1034625, 1035057]","[1022774, 1023373, 1023973, 1024573, 1025173, 1025773, 1026373, 1026973, 1027502, 1028177, 1028703, 1029199, 1029760, 1030231, 1030726, 1031226, 1031716, 1032183, 1032648, 1033100, 1033551, 1034011, 1034462, 1034920]",18,R,ITM,1.1,
4,400,trial,0,49,49,49,trial,"['S', 'S', 'S', 'S', 'S', 'S', 'S', 'C', 'C', 'C', 'C', 'C', 'C', 'C', 'C', 'C', 'C', 'C', 'C', 'C', 'C', 'C', 'C']","[1040579, 1040923, 1041338, 1041765, 1042183, 1042595, 1042959, 1043369, 1043739, 1044145, 1044546, 1044952, 1045380, 1045785, 1046216, 1046667, 1047081, 1047486, 1047903, 1048323, 1048738, 1049149, 1049568]","[1040667, 1040997, 1041378, 1041785, 1042220, 1042615, 1043006, 1043411, 1043790, 1044199, 1044591, 1045005, 1045444, 1045840, 1046263, 1046736, 1047137, 1047537, 1047961, 1048382, 1048800, 1049217, 1049622]","[1040237, 1040637, 1041037, 1041437, 1041838, 1042237, 1042637, 1043037, 1043395, 1043765, 1044170, 1044572, 1044978, 1045405, 1045811, 1046242, 1046693, 1047107, 1047512, 1047928, 1048348, 1048764, 1049175, 1049593]",18,R,ITM,1.1,
7,600,trial,0,50,50,50,trial,"['S', 'S', 'S', 'S', 'S', 'S', 'S', 'C', 'C', 'C', 'C', 'C', 'C', 'C', 'C', 'C', 'C', 'C', 'C', 'C', 'C', 'C', 'C']","[1055257, 1055832, 1056658, 1057257, 1057872, 1058477, 1059093, 1059671, 1060242, 1060811, 1061363, 1061921, 1062417, 1063005, 1063547, 1064068, 1064653, 1065190, 1065767, 1066276, 1066799, 1067370, 1067923]","[1055327, 1055898, 1056713, 1057315, 1057964, 1058558, 1059176, 1059744, 1060324, 1060915, 1061464, 1062069, 1062611, 1063174, 1063708, 1064248, 1064867, 1065326, 1065917, 1066509, 1067032, 1067611, 1068168]","[1054958, 1055557, 1056157, 1056757, 1057357, 1057957, 1058557, 1059158, 1059697, 1060269, 1060838, 1061390, 1061948, 1062444, 1063031, 1063574, 1064094, 1064680, 1065218, 1065794, 1066304, 1066825, 1067397, 1067951]",18,R,ITM,1.1,
6,600,trial,0,51,51,51,trial,"['S', 'S', 'S', 'S', 'S', 'S', 'S', 'C', 'C', 'C', 'C', 'C', 'C', 'C', 'C', 'C', 'C', 'C', 'C', 'C', 'C', 'C', 'C']","[1073875, 1074616, 1075152, 1075793, 1076418, 1076987, 1077620, 1078194, 1078737, 1079268, 1079790, 1080315, 1080848, 1081393, 1081923, 1082502, 1083061, 1083541, 1084123, 1084602, 1085173, 1085710, 1086232]","[1073984, 1074734, 1075244, 1075908, 1076503, 1077076, 1077714, 1078274, 1078824, 1079334, 1079864, 1080446, 1080934, 1081505, 1082002, 1082569, 1083164, 1083666, 1084232, 1084749, 1085274, 1085836, 1086325]","[1073534, 1074134, 1074734, 1075334, 1075934, 1076534, 1077134, 1077734, 1078220, 1078764, 1079294, 1079817, 1080343, 1080875, 1081419, 1081950, 1082528, 1083087, 1083568, 1084150, 1084628, 1085201, 1085736, 1086259]",18,R,ITM,1.1,
2,600,trial,0,52,52,52,trial,"['S', 'S', 'S', 'S', 'S', 'S', 'S', 'S', 'S', 'C', 'C', 'C', 'C', 'C', 'C', 'C', 'C', 'C', 'C', 'C', 'C', 'C', 'C', 'C', 'C']","[1092170, 1092760, 1092860, 1093400, 1093500, 1093982, 1094614, 1095231, 1095861, 1096455, 1097025, 1097610, 1098165, 1098788, 1099350, 1099976, 1100538, 1101131, 1101716, 1102353, 1102934, 1103548, 1104132, 1104684, 1105255]","[1092283, 1092780, 1092885, 1093420, 1093551, 1094131, 1094791, 1095368, 1096023, 1096556, 1097148, 1097751, 1098304, 1098934, 1099502, 1100115, 1100644, 1101262, 1101792, 1102439, 1103000, 1103647, 1104241, 1104837, 1105389]","[1091683, 1092283, 1092883, 1093482, 1094083, 1094683, 1095283, 1095882, 1096482, 1097053, 1097636, 1098192, 1098815, 1099377, 1100004, 1100566, 1101159, 1101744, 1102381, 1102961, 1103576, 1104158, 1104711, 1105283]",18,R,ITM,1.1,
2,400,trial,0,53,53,53,trial,"['S', 'S', 'S', 'S', 'S', 'S', 'S', 'C', 'C', 'C', 'C', 'C', 'C', 'C', 'C', 'C', 'C', 'C', 'C', 'C', 'C', 'C', 'C']","[1111217, 1111690, 1112046, 1112422, 1112816, 1113203, 1113653, 1114018, 1114385, 1114791, 1115163, 1115585, 1115965, 1116391, 1116783, 1117208, 1117659, 1118045, 1118455, 1118855, 1119228, 1119630, 1119989]","[1111306, 1111780, 1112100, 1112460, 1112851, 1113223, 1113676, 1114053, 1114447, 1114836, 1115245, 1115650, 1116080, 1116464, 1116845, 1117292, 1117733, 1118113, 1118527, 1118935, 1119316, 1119686, 1120075]","[1110877, 1111276, 1111676, 1112076, 1112476, 1112877, 1113276, 1113676, 1114045, 1114412, 1114818, 1115191, 1115612, 1115993, 1116419, 1116811, 1117236, 1117685, 1118071, 1118483, 1118882, 1119256, 1119657, 1120016]",18,R,ITM,1.1,
6,600,trial,0,54,54,54,trial,"['S', 'S', 'S', 'S', 'S', 'S', 'S', 'S', 'C', 'C', 'C', 'C', 'C', 'C', 'C', 'C', 'C', 'C', 'C', 'C', 'C', 'C', 'C', 'C']","[1135677, 1136081, 1136580, 1137169, 1137723, 1138295, 1138897, 1139550, 1140167, 1140685, 1141221, 1141786, 1142315, 1142872, 1143412, 1143936, 1144444, 1144995, 1145527, 1146039, 1146567, 1147082, 1147629, 1148209]","[1135756, 1136191, 1136676, 1137229, 1137793, 1138371, 1138959, 1139612, 1140243, 1140760, 1141303, 1141862, 1142462, 1143011, 1143523, 1144084, 1144594, 1145188, 1145660, 1146191, 1146717, 1147231, 1147746, 1148340]","[1135447, 1136046, 1136646, 1137246, 1137846, 1138446, 1139046, 1139646, 1140194, 1140712, 1141249, 1141813, 1142341, 1142899, 1143439, 1143963, 1144471, 1145023, 1145553, 1146066, 1146594, 1147109, 1147656, 1148236]",18,R,ITM,1.1,
3,600,trial,0,55,55,55,trial,"['S', 'S', 'S', 'S', 'S', 'S', 'S', 'C', 'C', 'C', 'C', 'C', 'C', 'C', 'C', 'C', 'C', 'C', 'C', 'C', 'C', 'C', 'C']","[1154040, 1154626, 1155284, 1155937, 1156513, 1157168, 1157770, 1158405, 1158976, 1159547, 1160076, 1160672, 1161241, 1161816, 1162378, 1162984, 1163518, 1164064, 1164576, 1165121, 1165715, 1166285, 1166807]","[1154125, 1154695, 1155380, 1156036, 1156603, 1157269, 1157858, 1158492, 1159060, 1159642, 1160183, 1160782, 1161387, 1161934, 1162529, 1163136, 1163651, 1164193, 1164719, 1165266, 1165820, 1166389, 1166912]","[1153655, 1154255, 1154855, 1155456, 1156056, 1156656, 1157255, 1157855, 1158430, 1159002, 1159573, 1160101, 1160697, 1161267, 1161841, 1162403, 1163010, 1163544, 1164090, 1164602, 1165147, 1165741, 1166311, 1166832]",18,R,ITM,1.1,
6,400,trial,0,56,56,56,trial,"['S', 'S', 'S', 'S', 'S', 'S', 'S', 'C', 'C', 'C', 'C', 'C', 'C', 'C', 'C', 'C', 'C', 'C', 'C', 'C', 'C', 'C', 'C']","[1172422, 1172872, 1173273, 1173667, 1174103, 1174494, 1174912, 1175311, 1175690, 1176140, 1176541, 1176920, 1177337, 1177755, 1178145, 1178554, 1178948, 1179351, 1179801, 1180176, 1180613, 1181043, 1181399]","[1172505, 1172922, 1173315, 1173712, 1174140, 1174540, 1174948, 1175362, 1175748, 1176187, 1176585, 1177000, 1177410, 1177802, 1178209, 1178631, 1179012, 1179429, 1179870, 1180246, 1180687, 1181129, 1181475]","[1172141, 1172540, 1172940, 1173341, 1173740, 1174140, 1174540, 1174940, 1175337, 1175717, 1176168, 1176568, 1176946, 1177364, 1177782, 1178172, 1178580, 1178976, 1179378, 1179828, 1180203, 1180640, 1181071, 1181426]",18,R,ITM,1.1,
2,600,trial,0,57,57,57,trial,"['S', 'S', 'S', 'S', 'S', 'S', 'S', 'C', 'C', 'C', 'C', 'C', 'C', 'C', 'C', 'C', 'C', 'C', 'C', 'C', 'C', 'C', 'C']","[1187507, 1188115, 1188741, 1189373, 1189952, 1190554, 1191139, 1191825, 1192378, 1192934, 1193496, 1194018, 1194564, 1195065, 1195573, 1196105, 1196610, 1197114, 1197647, 1198155, 1198697, 1199292, 1199813]","[1187589, 1188171, 1188824, 1189462, 1190036, 1190640, 1191208, 1191898, 1192468, 1192992, 1193563, 1194094, 1194659, 1195189, 1195706, 1196203, 1196701, 1197220, 1197711, 1198221, 1198761, 1199358, 1199905]","[1187093, 1187693, 1188293, 1188893, 1189493, 1190093, 1190693, 1191293, 1191852, 1192404, 1192962, 1193523, 1194046, 1194592, 1195091, 1195600, 1196133, 1196638, 1197142, 1197675, 1198182, 1198725, 1199320, 1199840]",18,R,ITM,1.1,
2,600,trial,0,58,58,58,trial,"['S', 'S', 'S', 'S', 'S', 'S', 'S', 'C', 'C', 'C', 'C', 'C', 'C', 'C', 'C', 'C', 'C', 'C', 'C', 'C', 'C', 'C', 'C']","[1205850, 1206437, 1207036, 1207666, 1208275, 1208858, 1209492, 1210108, 1210679, 1211278, 1211827, 1212418, 1212975, 1213544, 1214095, 1214686, 1215225, 1215811, 1216395, 1216919, 1217522, 1218051, 1218648]","[1205931, 1206500, 1207116, 1207726, 1208295, 1208956, 1209567, 1210205, 1210802, 1211394, 1211933, 1212512, 1213091, 1213630, 1214189, 1214769, 1215291, 1215884, 1216472, 1216985, 1217574, 1218113, 1218723]","[1205366, 1205966, 1206566, 1207166, 1207767, 1208367, 1208967, 1209567, 1210136, 1210705, 1211305, 1211853, 1212445, 1213002, 1213571, 1214123, 1214713, 1215252, 1215839, 1216422, 1216947, 1217550, 1218077, 1218675]",18,R,ITM,1.1,
7,400,trial,0,59,59,59,trial,"['S', 'S', 'S', 'S', 'S', 'S', 'S', 'C', 'C', 'C', 'C', 'C', 'C', 'C', 'C', 'C', 'C', 'C', 'C', 'C', 'C', 'C', 'C']","[1224666, 1225094, 1225455, 1225896, 1226295, 1226705, 1227112, 1227522, 1227894, 1228271, 1228641, 1229014, 1229406, 1229802, 1230192, 1230597, 1231005, 1231409, 1231797, 1232209, 1232655, 1233041, 1233501]","[1224736, 1225163, 1225542, 1225948, 1226344, 1226725, 1227166, 1227568, 1227955, 1228316, 1228690, 1229069, 1229453, 1229862, 1230255, 1230659, 1231080, 1231474, 1231861, 1232254, 1232718, 1233120, 1233568]","[1224400, 1224799, 1225199, 1225600, 1225999, 1226399, 1226800, 1227199, 1227549, 1227922, 1228298, 1228668, 1229040, 1229432, 1229829, 1230219, 1230623, 1231032, 1231435, 1231823, 1232237, 1232681, 1233069, 1233528]",18,R,ITM,1.1,
3,400,trial,0,60,60,60,trial,"['S', 'S', 'S', 'S', 'S', 'S', 'S', 'C', 'C', 'C', 'C', 'C', 'C', 'C', 'C', 'C', 'C', 'C', 'C', 'C', 'C', 'C', 'C']","[1239298, 1239648, 1240014, 1240402, 1240816, 1241217, 1241612, 1242031, 1242395, 1242817, 1243191, 1243585, 1243975, 1244341, 1244708, 1245122, 1245504, 1245884, 1246245, 1246631, 1247047, 1247443, 1247835]","[1239357, 1239696, 1240062, 1240445, 1240836, 1241251, 1241632, 1242056, 1242445, 1242882, 1243256, 1243661, 1244050, 1244433, 1244794, 1245188, 1245573, 1245943, 1246333, 1246717, 1247099, 1247513, 1247908]","[1238862, 1239262, 1239662, 1240062, 1240462, 1240862, 1241263, 1241662, 1242056, 1242421, 1242844, 1243216, 1243611, 1244001, 1244366, 1244734, 1245148, 1245530, 1245910, 1246271, 1246657, 1247073, 1247469, 1247860]",18,R,ITM,1.1,
5,400,trial,0,61,61,61,trial,"['S', 'S', 'S', 'S', 'S', 'S', 'S', 'C', 'C', 'C', 'C', 'C', 'C', 'C', 'C', 'C', 'C', 'C', 'C', 'C', 'C', 'C', 'C']","[1253538, 1253959, 1254396, 1254751, 1255195, 1255634, 1255999, 1256384, 1256788, 1257165, 1257567, 1257964, 1258340, 1258732, 1259140, 1259504, 1259909, 1260290, 1260675, 1261059, 1261454, 1261856, 1262254]","[1253607, 1254001, 1254430, 1254815, 1255241, 1255687, 1256068, 1256461, 1256860, 1257235, 1257639, 1258014, 1258402, 1258786, 1259186, 1259579, 1259960, 1260351, 1260731, 1261121, 1261510, 1261918, 1262319]","[1253255, 1253653, 1254053, 1254453, 1254853, 1255254, 1255653, 1256053, 1256410, 1256813, 1257191, 1257592, 1257991, 1258365, 1258758, 1259165, 1259531, 1259934, 1260315, 1260700, 1261084, 1261479, 1261882, 1262280]",18,R,ITM,1.1,
4,600,trial,0,62,62,62,trial,"['S', 'S', 'S', 'S', 'S', 'S', 'S', 'C', 'C', 'C', 'C', 'C', 'C', 'C', 'C', 'C', 'C', 'C', 'C', 'C', 'C', 'C', 'C']","[1268179, 1268889, 1269586, 1270248, 1270876, 1271462, 1272055, 1272670, 1273277, 1273858, 1274444, 1275062, 1275612, 1276210, 1276824, 1277372, 1277967, 1278553, 1279102, 1279661, 1280233, 1280800, 1281346]","[1268241, 1268937, 1269629, 1270313, 1270925, 1271548, 1272135, 1272742, 1273349, 1273961, 1274537, 1275160, 1275724, 1276315, 1276929, 1277499, 1278121, 1278726, 1279355, 1279905, 1280448, 1280996, 1281553]","[1267903, 1268503, 1269103, 1269703, 1270303, 1270903, 1271503, 1272103, 1272695, 1273303, 1273883, 1274470, 1275087, 1275637, 1276235, 1276850, 1277398, 1277992, 1278578, 1279128, 1279686, 1280259, 1280826, 1281372]",18,R,ITM,1.1,
4,600,trial,0,63,63,63,trial,"['S', 'S', 'S', 'S', 'S', 'S', 'S', 'C', 'C', 'C', 'C', 'C', 'C', 'C', 'C', 'C', 'C', 'C', 'C', 'C', 'C', 'C', 'C']","[1287800, 1288272, 1288846, 1289454, 1290046, 1290655, 1291271, 1291884, 1292467, 1293045, 1293581, 1294172, 1294754, 1295331, 1295867, 1296484, 1297014, 1297574, 1298151, 1298688, 1299257, 1299794, 1300337]","[1287870, 1288318, 1288897, 1289512, 1290090, 1290698, 1291323, 1291927, 1292514, 1293112, 1293627, 1294258, 1294809, 1295413, 1295952, 1296568, 1297121, 1297736, 1298328, 1298872, 1299441, 1299955, 1300544]","[1287140, 1287739, 1288339, 1288939, 1289539, 1290139, 1290739, 1291339, 1291910, 1292492, 1293071, 1293606, 1294197, 1294781, 1295356, 1295893, 1296509, 1297040, 1297600, 1298177, 1298713, 1299282, 1299820, 1300363]",18,R,ITM,1.1,
7,600,trial,0,64,64,64,trial,"['S', 'S', 'S', 'S', 'S', 'S', 'S', 'C', 'C', 'C', 'C', 'C', 'C', 'C', 'C', 'C', 'C', 'C', 'C', 'C', 'C', 'C', 'C']","[1306433, 1306994, 1307591, 1308214, 1308869, 1309438, 1310055, 1310573, 1311107, 1311603, 1312142, 1312656, 1313186, 1313710, 1314199, 1314738, 1315280, 1315784, 1316328, 1316847, 1317360, 1317878, 1318374]","[1306476, 1307040, 1307650, 1308277, 1308929, 1309479, 1310104, 1310644, 1311187, 1311661, 1312205, 1312743, 1313280, 1313784, 1314289, 1314820, 1315418, 1315873, 1316454, 1316992, 1317466, 1318014, 1318461]","[1305949, 1306548, 1307148, 1307748, 1308348, 1308948, 1309548, 1310148, 1310601, 1311134, 1311631, 1312168, 1312684, 1313213, 1313736, 1314227, 1314765, 1315307, 1315812, 1316355, 1316875, 1317387, 1317905, 1318402]",18,R,ITM,1.1,
4,400,trial,0,65,65,65,trial,"['S', 'S', 'S', 'S', 'S', 'S', 'S', 'C', 'C', 'C', 'C', 'C', 'C', 'C', 'C', 'C', 'C', 'C', 'C', 'C', 'C', 'C', 'C']","[1324238, 1324601, 1324923, 1325332, 1325741, 1326142, 1326565, 1326936, 1327332, 1327719, 1328089, 1328494, 1328848, 1329234, 1329636, 1330031, 1330439, 1330833, 1331224, 1331616, 1332024, 1332453, 1332816]","[1324307, 1324659, 1324972, 1325371, 1325803, 1326162, 1326619, 1327000, 1327376, 1327780, 1328151, 1328533, 1328916, 1329285, 1329697, 1330093, 1330494, 1330904, 1331274, 1331681, 1332074, 1332509, 1332876]","[1323789, 1324188, 1324589, 1324988, 1325388, 1325789, 1326189, 1326589, 1326961, 1327358, 1327745, 1328114, 1328521, 1328874, 1329260, 1329661, 1330057, 1330464, 1330859, 1331250, 1331642, 1332049, 1332478, 1332842]",18,R,ITM,1.1,
7,400,trial,0,66,66,66,trial,"['S', 'S', 'S', 'S', 'C', 'C', 'C', 'C', 'C', 'C', 'C', 'C', 'C', 'C', 'C', 'C', 'C', 'C', 'C', 'C']","[1339819, 1340177, 1340585, 1340974, 1341374, 1341768, 1342146, 1342535, 1342956, 1343354, 1343739, 1344138, 1344539, 1344931, 1345316, 1345707, 1346091, 1346473, 1346841, 1347238]","[1339849, 1340219, 1340605, 1340994, 1341401, 1341803, 1342181, 1342586, 1343023, 1343434, 1343807, 1344212, 1344620, 1344998, 1345371, 1345768, 1346138, 1346552, 1346913, 1347313]","[1338275, 1338675, 1339075, 1339475, 1339875, 1340275, 1340676, 1341075, 1341401, 1341795, 1342174, 1342563, 1342983, 1343382, 1343767, 1344165, 1344567, 1344958, 1345343, 1345734, 1346117, 1346501, 1346868, 1347266]",18,R,ITM,1.1,
2,400,trial,0,67,67,67,trial,"['S', 'S', 'S', 'S', 'S', 'S', 'S', 'C', 'C', 'C', 'C', 'C', 'C', 'C', 'C', 'C', 'C', 'C', 'C', 'C', 'C', 'C', 'C']","[1353068, 1353424, 1353809, 1354215, 1354622, 1354994, 1355418, 1355819, 1356222, 1356617, 1357014, 1357408, 1357824, 1358247, 1358636, 1359049, 1359421, 1359804, 1360211, 1360586, 1360998, 1361367, 1361804]","[1353128, 1353472, 1353865, 1354250, 1354670, 1355065, 1355480, 1355883, 1356286, 1356684, 1357074, 1357479, 1357898, 1358316, 1358705, 1359119, 1359516, 1359879, 1360276, 1360661, 1361062, 1361421, 1361849]","[1352665, 1353064, 1353464, 1353865, 1354265, 1354665, 1355065, 1355464, 1355845, 1356249, 1356645, 1357041, 1357435, 1357851, 1358274, 1358662, 1359077, 1359449, 1359831, 1360238, 1360613, 1361026, 1361394, 1361830]",18,R,ITM,1.1,
6,400,trial,0,68,68,68,trial,"['S', 'S', 'S', 'S', 'S', 'S', 'C', 'C', 'C', 'C', 'C', 'C', 'C', 'C', 'C', 'C', 'C', 'C', 'C', 'C', 'C', 'C']","[1368075, 1368487, 1368881, 1369342, 1369746, 1370125, 1370520, 1370919, 1371328, 1371727, 1372108, 1372532, 1372935, 1373340, 1373710, 1374087, 1374505, 1374896, 1375276, 1375632, 1376059, 1376444]","[1368127, 1368528, 1368916, 1369362, 1369793, 1370192, 1370564, 1370963, 1371379, 1371772, 1372171, 1372591, 1372995, 1373415, 1373801, 1374181, 1374571, 1374963, 1375364, 1375741, 1376145, 1376526]","[1367413, 1367814, 1368213, 1368613, 1369013, 1369413, 1369814, 1370213, 1370547, 1370947, 1371355, 1371755, 1372135, 1372560, 1372962, 1373367, 1373736, 1374114, 1374533, 1374922, 1375302, 1375659, 1376086, 1376472]",18,R,ITM,1.1,
5,600,trial,0,69,69,69,trial,"['S', 'S', 'S', 'S', 'S', 'S', 'S', 'C', 'C', 'C', 'C', 'C', 'C', 'C', 'C', 'C', 'C', 'C', 'C', 'C', 'C', 'C', 'C']","[1382313, 1382976, 1383727, 1384332, 1384937, 1385571, 1386144, 1386769, 1387331, 1387908, 1388497, 1389083, 1389646, 1390208, 1390775, 1391347, 1391937, 1392501, 1393033, 1393583, 1394138, 1394658, 1395247]","[1382361, 1383035, 1383789, 1384400, 1385006, 1385591, 1386213, 1386824, 1387378, 1387971, 1388575, 1389156, 1389708, 1390271, 1390839, 1391421, 1391994, 1392551, 1393067, 1393647, 1394182, 1394708, 1395288]","[1381964, 1382564, 1383164, 1383764, 1384365, 1384965, 1385565, 1386165, 1386795, 1387357, 1387933, 1388523, 1389109, 1389672, 1390233, 1390801, 1391374, 1391963, 1392528, 1393058, 1393608, 1394163, 1394683, 1395272]",18,R,ITM,1.1,
3,400,trial,0,70,70,70,trial,"['S', 'S', 'S', 'S', 'S', 'S', 'S', 'C', 'C', 'C', 'C', 'C', 'C', 'C', 'C', 'C', 'C', 'C', 'C', 'C', 'C', 'C', 'C']","[1401124, 1401468, 1401863, 1402281, 1402710, 1403094, 1403534, 1403916, 1404325, 1404747, 1405167, 1405568, 1406005, 1406467, 1406903, 1407293, 1407706, 1408137, 1408520, 1408964, 1409439, 1409841, 1410210]","[1401170, 1401508, 1401902, 1402316, 1402739, 1403148, 1403570, 1403961, 1404369, 1404794, 1405221, 1405637, 1406059, 1406526, 1406952, 1407381, 1407767, 1408200, 1408590, 1409040, 1409490, 1409921, 1410295]","[1400734, 1401135, 1401534, 1401934, 1402334, 1402734, 1403134, 1403534, 1403941, 1404351, 1404773, 1405193, 1405593, 1406030, 1406492, 1406928, 1407319, 1407731, 1408162, 1408545, 1408990, 1409465, 1409866, 1410236]",18,R,ITM,1.1,
5,400,trial,0,71,71,71,trial,"['S', 'S', 'S', 'S', 'S', 'S', 'S', 'C', 'C', 'C', 'C', 'C', 'C', 'C', 'C', 'C', 'C', 'C', 'C', 'C', 'C', 'C', 'C']","[1416171, 1416541, 1416933, 1417366, 1417754, 1418166, 1418544, 1418941, 1419342, 1419739, 1420131, 1420532, 1420934, 1421341, 1421714, 1422142, 1422562, 1422985, 1423420, 1423883, 1424326, 1424719, 1425163]","[1416221, 1416589, 1416970, 1417427, 1417802, 1418228, 1418601, 1418992, 1419400, 1419796, 1420190, 1420592, 1420978, 1421386, 1421779, 1422192, 1422621, 1423054, 1423500, 1423955, 1424406, 1424786, 1425230]","[1415790, 1416189, 1416589, 1416989, 1417390, 1417789, 1418189, 1418589, 1418967, 1419368, 1419764, 1420156, 1420558, 1420959, 1421368, 1421740, 1422169, 1422587, 1423011, 1423447, 1423908, 1424353, 1424745, 1425188]",18,R,ITM,1.1,
2,400,trial,0,72,72,72,trial,"['S', 'S', 'S', 'S', 'S', 'S', 'S', 'C', 'C', 'C', 'C', 'C', 'C', 'C', 'C', 'C', 'C', 'C', 'C', 'C', 'C', 'C', 'C']","[1431282, 1431627, 1431977, 1432382, 1432783, 1433195, 1433580, 1433999, 1434396, 1434773, 1435191, 1435561, 1435974, 1436401, 1436803, 1437194, 1437577, 1437973, 1438372, 1438752, 1439136, 1439523, 1439887]","[1431342, 1431667, 1432017, 1432441, 1432835, 1433241, 1433610, 1434042, 1434461, 1434833, 1435250, 1435625, 1436030, 1436474, 1436879, 1437272, 1437650, 1438056, 1438443, 1438834, 1439198, 1439566, 1439944]","[1430863, 1431263, 1431663, 1432064, 1432463, 1432863, 1433263, 1433663, 1434027, 1434424, 1434801, 1435218, 1435589, 1436002, 1436429, 1436830, 1437221, 1437603, 1438001, 1438399, 1438780, 1439164, 1439551, 1439913]",18,R,ITM,1.1,
6,600,trial,0,73,73,73,trial,"['S', 'S', 'S', 'S', 'S', 'S', 'S', 'C', 'C', 'C', 'C', 'C', 'C', 'C', 'C', 'C', 'C', 'C', 'C', 'C', 'C', 'C', 'C']","[1445653, 1446434, 1447007, 1447620, 1448231, 1448832, 1449456, 1450049, 1450643, 1451195, 1451797, 1452390, 1453009, 1453593, 1454157, 1454731, 1455350, 1455946, 1456515, 1457116, 1457703, 1458284, 1458860]","[1445709, 1446494, 1447060, 1447687, 1448310, 1448898, 1449523, 1450147, 1450757, 1451285, 1451965, 1452523, 1453182, 1453745, 1454287, 1454911, 1455467, 1456075, 1456603, 1457204, 1457805, 1458387, 1458950]","[1445286, 1445886, 1446487, 1447087, 1447687, 1448286, 1448886, 1449486, 1450076, 1450671, 1451222, 1451824, 1452417, 1453036, 1453621, 1454184, 1454757, 1455378, 1455974, 1456541, 1457143, 1457730, 1458311, 1458887]",18,R,ITM,1.1,
7,600,trial,0,74,74,74,trial,"['S', 'S', 'S', 'S', 'S', 'S', 'S', 'C', 'C', 'C', 'C', 'C', 'C', 'C', 'C', 'C', 'C', 'C', 'C', 'C', 'C', 'C', 'C']","[1464812, 1465524, 1466134, 1466790, 1467357, 1467951, 1468550, 1469110, 1469683, 1470241, 1470761, 1471366, 1471904, 1472458, 1473012, 1473579, 1474105, 1474673, 1475257, 1475775, 1476334, 1476916, 1477443]","[1464857, 1465579, 1466188, 1466831, 1467425, 1467997, 1468614, 1469178, 1469746, 1470305, 1470787, 1471399, 1471985, 1472528, 1473088, 1473678, 1474228, 1474752, 1475320, 1475884, 1476422, 1477008, 1477541]","[1464407, 1465006, 1465606, 1466206, 1466806, 1467406, 1468007, 1468606, 1469136, 1469711, 1470269, 1470787, 1471392, 1471931, 1472485, 1473039, 1473606, 1474131, 1474700, 1475284, 1475802, 1476361, 1476943, 1477471]",18,R,ITM,1.1,
5,600,trial,0,75,75,75,trial,"['S', 'S', 'S', 'S', 'S', 'S', 'S', 'C', 'C', 'C', 'C', 'C', 'C', 'C', 'C', 'C', 'C', 'C', 'C', 'C', 'C', 'C', 'C']","[1483417, 1483966, 1484568, 1485146, 1485809, 1486496, 1487184, 1487698, 1488222, 1488750, 1489266, 1489748, 1490254, 1490760, 1491278, 1491772, 1492271, 1492769, 1493306, 1493786, 1494324, 1494803, 1495317]","[1483455, 1484024, 1484621, 1485189, 1485875, 1486573, 1487251, 1487771, 1488318, 1488818, 1489340, 1489820, 1490300, 1490807, 1491347, 1491836, 1492346, 1492814, 1493351, 1493831, 1494391, 1494830, 1495382]","[1483001, 1483600, 1484200, 1484801, 1485401, 1486001, 1486600, 1487200, 1487724, 1488247, 1488776, 1489292, 1489773, 1490281, 1490786, 1491304, 1491798, 1492297, 1492796, 1493331, 1493812, 1494349, 1494830, 1495343]",18,R,ITM,1.1,
4,400,trial,0,76,76,76,trial,"['S', 'S', 'S', 'S', 'S', 'S', 'S', 'C', 'C', 'C', 'C', 'C', 'C', 'C', 'C', 'C', 'C', 'C', 'C', 'C', 'C', 'C', 'C']","[1501301, 1501607, 1501944, 1502301, 1502729, 1503115, 1503521, 1503925, 1504323, 1504711, 1505104, 1505509, 1505897, 1506298, 1506675, 1507079, 1507466, 1507869, 1508245, 1508638, 1509029, 1509453, 1509883]","[1501352, 1501663, 1501992, 1502342, 1502758, 1503152, 1503568, 1503976, 1504380, 1504770, 1505155, 1505568, 1505971, 1506372, 1506749, 1507141, 1507535, 1507937, 1508312, 1508736, 1509103, 1509479, 1509952]","[1500768, 1501168, 1501569, 1501968, 1502368, 1502769, 1503168, 1503568, 1503950, 1504349, 1504737, 1505130, 1505534, 1505923, 1506324, 1506702, 1507104, 1507491, 1507895, 1508271, 1508664, 1509056, 1509479, 1509909]",18,R,ITM,1.1,
3,600,trial,0,77,77,77,trial,"['S', 'S', 'S', 'S', 'S', 'S', 'S', 'C', 'C', 'C', 'C', 'C', 'C', 'C', 'C', 'C', 'C', 'C', 'C', 'C', 'C', 'C', 'C']","[1515944, 1516605, 1517194, 1517771, 1518395, 1518993, 1519640, 1520247, 1520772, 1521268, 1521754, 1522219, 1522680, 1523130, 1523614, 1524077, 1524554, 1525033, 1525509, 1526019, 1526495, 1526981, 1527452]","[1515999, 1516656, 1517250, 1517832, 1518435, 1519058, 1519702, 1520318, 1520857, 1521372, 1521831, 1522293, 1522735, 1523196, 1523670, 1524123, 1524618, 1525107, 1525575, 1526094, 1526561, 1527057, 1527521]","[1515561, 1516161, 1516761, 1517361, 1517960, 1518560, 1519160, 1519760, 1520273, 1520797, 1521294, 1521779, 1522244, 1522706, 1523155, 1523640, 1524103, 1524580, 1525059, 1525534, 1526044, 1526520, 1527007, 1527478]",18,R,ITM,1.1,
7,600,trial,0,78,78,78,trial,"['S', 'S', 'S', 'S', 'S', 'S', 'S', 'C', 'C', 'C', 'C', 'C', 'C', 'C', 'C', 'C', 'C', 'C', 'C', 'C', 'C', 'C', 'C']","[1533378, 1533882, 1534453, 1535014, 1535634, 1536220, 1536806, 1537451, 1537968, 1538466, 1538970, 1539461, 1539938, 1540396, 1540868, 1541350, 1541835, 1542269, 1542769, 1543224, 1543702, 1544167, 1544660]","[1533450, 1533923, 1534498, 1535063, 1535674, 1536285, 1536884, 1537514, 1538035, 1538525, 1539020, 1539520, 1540006, 1540459, 1540916, 1541406, 1541900, 1542331, 1542831, 1543294, 1543767, 1544248, 1544712]","[1532805, 1533404, 1534003, 1534603, 1535203, 1535803, 1536403, 1537003, 1537477, 1537995, 1538493, 1538998, 1539487, 1539964, 1540422, 1540895, 1541377, 1541862, 1542297, 1542797, 1543250, 1543730, 1544195, 1544688]",18,R,ITM,1.1,
7,400,trial,0,79,79,79,trial,"['S', 'S', 'S', 'S', 'S', 'S', 'C', 'C', 'C', 'C', 'C', 'C', 'C', 'C', 'C', 'C', 'C', 'C', 'C', 'C', 'C', 'C']","[1550749, 1551100, 1551492, 1551897, 1552307, 1552647, 1553127, 1553475, 1553838, 1554176, 1554551, 1554922, 1555306, 1555717, 1556089, 1556487, 1556853, 1557229, 1557622, 1558001, 1558405, 1558808]","[1550813, 1551163, 1551540, 1551937, 1552327, 1552703, 1553155, 1553522, 1553893, 1554232, 1554606, 1554994, 1555371, 1555782, 1556160, 1556533, 1556933, 1557286, 1557679, 1558089, 1558478, 1558874]","[1550036, 1550435, 1550835, 1551236, 1551635, 1552035, 1552435, 1552835, 1553155, 1553503, 1553864, 1554202, 1554579, 1554949, 1555334, 1555743, 1556117, 1556513, 1556880, 1557256, 1557649, 1558029, 1558431, 1558836]",18,R,ITM,1.1,
2,600,trial,0,80,80,80,trial,"['S', 'S', 'S', 'S', 'S', 'S', 'S', 'C', 'C', 'C', 'C', 'C', 'C', 'C', 'C', 'C', 'C', 'C', 'C', 'C', 'C', 'C', 'C']","[1564491, 1565079, 1565772, 1566458, 1567118, 1567653, 1568203, 1568811, 1569358, 1569876, 1570379, 1570891, 1571390, 1571890, 1572362, 1572845, 1573316, 1573785, 1574260, 1574732, 1575189, 1575705, 1576146]","[1564561, 1565143, 1565842, 1566523, 1567182, 1567723, 1568305, 1568893, 1569439, 1569947, 1570448, 1570942, 1571437, 1571945, 1572427, 1572912, 1573385, 1573850, 1574329, 1574912, 1575328, 1575872, 1576303]","[1564144, 1564743, 1565344, 1565944, 1566544, 1567144, 1567745, 1568344, 1568837, 1569385, 1569904, 1570407, 1570919, 1571418, 1571917, 1572389, 1572873, 1573344, 1573813, 1574288, 1574760, 1575216, 1575732, 1576173]",18,R,ITM,1.1,
4,400,trial,0,81,81,81,trial,"['S', 'S', 'S', 'S', 'S', 'S', 'S', 'C', 'C', 'C', 'C', 'C', 'C', 'C', 'C', 'C', 'C', 'C', 'C', 'C', 'C', 'C', 'C']","[1582083, 1582527, 1582946, 1583367, 1583812, 1584190, 1584584, 1584978, 1585358, 1585796, 1586205, 1586595, 1587004, 1587418, 1587819, 1588196, 1588611, 1589039, 1589432, 1589851, 1590230, 1590662, 1591072]","[1582143, 1582585, 1582989, 1583387, 1583855, 1584239, 1584620, 1585013, 1585403, 1585837, 1586248, 1586658, 1587055, 1587479, 1587893, 1588292, 1588670, 1589088, 1589499, 1589912, 1590291, 1590728, 1591134]","[1581812, 1582213, 1582612, 1583012, 1583412, 1583812, 1584212, 1584612, 1585004, 1585384, 1585821, 1586231, 1586621, 1587030, 1587443, 1587846, 1588221, 1588636, 1589064, 1589457, 1589876, 1590255, 1590687, 1591098]",18,R,ITM,1.1,
5,600,trial,0,82,82,82,trial,"['S', 'S', 'S', 'S', 'S', 'S', 'S', 'C', 'C', 'C', 'C', 'C', 'C', 'C', 'C', 'C', 'C', 'C', 'C', 'C', 'C', 'C', 'C']","[1597097, 1597815, 1598405, 1599021, 1599641, 1600280, 1600868, 1601466, 1602055, 1602617, 1603176, 1603765, 1604331, 1604919, 1605454, 1606040, 1606560, 1607143, 1607680, 1608238, 1608806, 1609353, 1609904]","[1597148, 1597859, 1598452, 1599064, 1599700, 1600324, 1600926, 1601544, 1602127, 1602708, 1603240, 1603888, 1604459, 1604996, 1605563, 1606140, 1606671, 1607216, 1607747, 1608321, 1608882, 1609433, 1610003]","[1596697, 1597296, 1597896, 1598496, 1599096, 1599696, 1600296, 1600897, 1601492, 1602080, 1602642, 1603202, 1603790, 1604357, 1604945, 1605481, 1606066, 1606586, 1607169, 1607705, 1608263, 1608832, 1609378, 1609929]",18,R,ITM,1.1,
6,400,trial,0,83,83,83,trial,"['S', 'S', 'S', 'S', 'S', 'S', 'S', 'C', 'C', 'C', 'C', 'C', 'C', 'C', 'C', 'C', 'C', 'C', 'C', 'C', 'C', 'C', 'C']","[1615778, 1616151, 1616568, 1616952, 1617353, 1617801, 1618179, 1618584, 1618984, 1619416, 1619791, 1620237, 1620721, 1621115, 1621527, 1621896, 1622262, 1622629, 1623036, 1623463, 1623828, 1624258, 1624597]","[1615836, 1616198, 1616611, 1616983, 1617400, 1617847, 1618234, 1618629, 1619040, 1619482, 1619862, 1620300, 1620789, 1621171, 1621565, 1621948, 1622345, 1622685, 1623069, 1623520, 1623905, 1624351, 1624715]","[1615421, 1615820, 1616221, 1616620, 1617020, 1617420, 1617820, 1618221, 1618612, 1619012, 1619442, 1619818, 1620263, 1620748, 1621143, 1621555, 1621922, 1622290, 1622657, 1623063, 1623490, 1623856, 1624286, 1624624]",18,R,ITM,1.1,
3,600,trial,0,84,84,84,trial,"['S', 'S', 'S', 'S', 'S', 'S', 'S', 'C', 'C', 'C', 'C', 'C', 'C', 'C', 'C', 'C', 'C', 'C', 'C', 'C', 'C', 'C', 'C']","[1630332, 1631038, 1631647, 1632295, 1632954, 1633506, 1634117, 1634673, 1635229, 1635811, 1636417, 1637004, 1637534, 1638119, 1638684, 1639231, 1639820, 1640375, 1640962, 1641524, 1642120, 1642690, 1643205]","[1630370, 1631071, 1631722, 1632363, 1633017, 1633565, 1634191, 1634765, 1635308, 1635937, 1636525, 1637168, 1637660, 1638250, 1638803, 1639336, 1639906, 1640456, 1641035, 1641620, 1642194, 1642791, 1643353]","[1629963, 1630562, 1631162, 1631762, 1632362, 1632962, 1633562, 1634162, 1634699, 1635255, 1635836, 1636443, 1637029, 1637560, 1638145, 1638710, 1639257, 1639845, 1640400, 1640988, 1641549, 1642145, 1642716, 1643231]",18,R,ITM,1.1,
6,400,trial,0,85,85,85,trial,"['S', 'S', 'S', 'S', 'S', 'S', 'S', 'C', 'C', 'C', 'C', 'C', 'C', 'C', 'C', 'C', 'C', 'C', 'C', 'C', 'C', 'C', 'C']","[1649330, 1649683, 1650037, 1650438, 1650850, 1651284, 1651647, 1652063, 1652446, 1652841, 1653228, 1653633, 1654023, 1654415, 1654806, 1655211, 1655599, 1655973, 1656381, 1656797, 1657165, 1657573, 1657991]","[1649386, 1649712, 1650083, 1650458, 1650885, 1651320, 1651687, 1652104, 1652497, 1652884, 1653274, 1653659, 1654049, 1654447, 1654833, 1655255, 1655652, 1656025, 1656436, 1656846, 1657217, 1657628, 1658042]","[1648901, 1649299, 1649699, 1650099, 1650499, 1650899, 1651299, 1651699, 1652089, 1652472, 1652869, 1653255, 1653659, 1654049, 1654441, 1654833, 1655237, 1655625, 1656001, 1656408, 1656823, 1657192, 1657600, 1658017]",18,R,ITM,1.1,
4,400,trial,0,86,86,86,trial,"['S', 'S', 'S', 'S', 'S', 'S', 'S', 'C', 'C', 'C', 'C', 'C', 'C', 'C', 'C', 'C', 'C', 'C', 'C', 'C', 'C', 'C', 'C']","[1663803, 1664220, 1664647, 1665080, 1665512, 1665923, 1666301, 1666722, 1667103, 1667473, 1667860, 1668267, 1668696, 1669062, 1669477, 1669891, 1670282, 1670680, 1671090, 1671490, 1671895, 1672342, 1672794]","[1663837, 1664261, 1664711, 1665118, 1665551, 1665961, 1666370, 1666760, 1667156, 1667528, 1667927, 1668328, 1668736, 1669125, 1669520, 1669962, 1670345, 1670743, 1671133, 1671540, 1671952, 1672400, 1672849]","[1663569, 1663969, 1664369, 1664770, 1665169, 1665569, 1665970, 1666370, 1666748, 1667129, 1667499, 1667886, 1668292, 1668721, 1669088, 1669502, 1669917, 1670307, 1670706, 1671115, 1671516, 1671921, 1672368, 1672819]",18,R,ITM,1.1,
6,600,trial,0,87,87,87,trial,"['S', 'S', 'S', 'S', 'S', 'S', 'S', 'C', 'C', 'C', 'C', 'C', 'C', 'C', 'C', 'C', 'C', 'C', 'C', 'C', 'C', 'C', 'C']","[1678553, 1679076, 1679685, 1680278, 1680877, 1681473, 1682112, 1682716, 1683181, 1683617, 1684047, 1684465, 1684892, 1685321, 1685753, 1686192, 1686627, 1687063, 1687454, 1687877, 1688284, 1688689, 1689112]","[1678604, 1679119, 1679734, 1680328, 1680946, 1681527, 1682184, 1682819, 1683261, 1683668, 1684117, 1684528, 1684953, 1685423, 1685831, 1686268, 1686692, 1687135, 1687513, 1687957, 1688354, 1688768, 1689175]","[1678133, 1678733, 1679333, 1679933, 1680533, 1681133, 1681733, 1682333, 1682743, 1683208, 1683644, 1684074, 1684492, 1684919, 1685349, 1685781, 1686218, 1686653, 1687090, 1687481, 1687905, 1688311, 1688716, 1689139]",18,R,ITM,1.1,
3,600,trial,0,88,88,88,trial,"['S', 'S', 'S', 'S', 'S', 'S', 'S', 'C', 'C', 'C', 'C', 'C', 'C', 'C', 'C', 'C', 'C', 'C', 'C', 'C', 'C', 'C', 'C']","[1694798, 1695406, 1696050, 1696684, 1697324, 1697963, 1698513, 1699131, 1699661, 1700163, 1700669, 1701184, 1701697, 1702187, 1702704, 1703194, 1703675, 1704150, 1704643, 1705129, 1705630, 1706073, 1706586]","[1694845, 1695460, 1696116, 1696756, 1697398, 1697983, 1698582, 1699181, 1699721, 1700238, 1700734, 1701254, 1701761, 1702252, 1702769, 1703248, 1703738, 1704224, 1704669, 1705203, 1705688, 1706169, 1706635]","[1694436, 1695036, 1695636, 1696236, 1696836, 1697436, 1698036, 1698636, 1699156, 1699687, 1700189, 1700695, 1701210, 1701723, 1702212, 1702729, 1703220, 1703701, 1704175, 1704669, 1705155, 1705656, 1706098, 1706611]",18,R,ITM,1.1,
4,600,trial,0,89,89,89,trial,"['S', 'S', 'S', 'S', 'S', 'S', 'S', 'C', 'C', 'C', 'C', 'C', 'C', 'C', 'C', 'C', 'C', 'C', 'C', 'C', 'C', 'C', 'C']","[1712533, 1713041, 1713678, 1714288, 1714923, 1715527, 1716190, 1716775, 1717340, 1717882, 1718429, 1718963, 1719516, 1720014, 1720571, 1721098, 1721616, 1722157, 1722700, 1723218, 1723722, 1724280, 1724788]","[1712599, 1713106, 1713757, 1714355, 1714985, 1715573, 1716230, 1716808, 1717365, 1717924, 1718502, 1719025, 1719588, 1720092, 1720656, 1721231, 1721725, 1722232, 1722797, 1723367, 1723908, 1724433, 1724968]","[1712102, 1712701, 1713301, 1713901, 1714501, 1715101, 1715701, 1716301, 1716801, 1717365, 1717908, 1718455, 1718988, 1719541, 1720040, 1720597, 1721123, 1721643, 1722182, 1722726, 1723244, 1723748, 1724306, 1724814]",18,R,ITM,1.1,
3,400,trial,0,90,90,90,trial,"['S', 'S', 'S', 'S', 'S', 'S', 'S', 'C', 'C', 'C', 'C', 'C', 'C', 'C', 'C', 'C', 'C', 'C', 'C', 'C', 'C', 'C', 'C']","[1730582, 1731041, 1731420, 1731794, 1732201, 1732623, 1733003, 1733414, 1733810, 1734188, 1734590, 1734979, 1735375, 1735782, 1736157, 1736573, 1736978, 1737360, 1737740, 1738125, 1738523, 1738915, 1739316]","[1730646, 1731097, 1731469, 1731841, 1732260, 1732678, 1733051, 1733462, 1733859, 1734227, 1734639, 1735044, 1735420, 1735828, 1736207, 1736629, 1737039, 1737411, 1737802, 1738193, 1738585, 1738979, 1739373]","[1730233, 1730633, 1731034, 1731433, 1731833, 1732233, 1732633, 1733033, 1733440, 1733835, 1734213, 1734616, 1735005, 1735401, 1735808, 1736182, 1736599, 1737004, 1737385, 1737765, 1738150, 1738549, 1738941, 1739341]",18,R,ITM,1.1,
3,400,trial,0,91,91,91,trial,"['S', 'S', 'S', 'S', 'S', 'S', 'S', 'C', 'C', 'C', 'C', 'C', 'C', 'C', 'C', 'C', 'C', 'C', 'C', 'C', 'C', 'C', 'C']","[1745440, 1745809, 1746206, 1746629, 1747026, 1747430, 1747825, 1748224, 1748631, 1749003, 1749395, 1749799, 1750187, 1750589, 1750982, 1751386, 1751743, 1752146, 1752552, 1752948, 1753345, 1753730, 1754134]","[1745492, 1745836, 1746226, 1746649, 1747046, 1747450, 1747845, 1748271, 1748692, 1749059, 1749456, 1749859, 1750238, 1750650, 1751036, 1751429, 1751808, 1752215, 1752615, 1752998, 1753417, 1753795, 1754191]","[1745105, 1745505, 1745905, 1746306, 1746705, 1747105, 1747506, 1747906, 1748249, 1748657, 1749028, 1749421, 1749825, 1750212, 1750615, 1751008, 1751411, 1751769, 1752172, 1752578, 1752974, 1753370, 1753755, 1754160]",18,R,ITM,1.1,
7,600,trial,0,92,92,92,trial,"['S', 'S', 'S', 'S', 'S', 'S', 'S', 'C', 'C', 'C', 'C', 'C', 'C', 'C', 'C', 'C', 'C', 'C', 'C', 'C', 'C', 'C', 'C']","[1760190, 1760816, 1761375, 1762028, 1762638, 1763255, 1763858, 1764451, 1764983, 1765490, 1765980, 1766499, 1766978, 1767470, 1767953, 1768466, 1768968, 1769483, 1769977, 1770465, 1770945, 1771405, 1771837]","[1760233, 1760848, 1761427, 1762080, 1762722, 1763324, 1763929, 1764509, 1765037, 1765536, 1766035, 1766562, 1767047, 1767523, 1768001, 1768514, 1769033, 1769524, 1770033, 1770520, 1770980, 1771474, 1771907]","[1759754, 1760353, 1760953, 1761553, 1762153, 1762753, 1763353, 1763953, 1764478, 1765010, 1765518, 1766006, 1766526, 1767005, 1767496, 1767980, 1768493, 1768994, 1769510, 1770004, 1770492, 1770972, 1771431, 1771864]",18,R,ITM,1.1,
5,400,trial,0,93,93,93,trial,"['S', 'S', 'S', 'S', 'S', 'S', 'S', 'C', 'C', 'C', 'C', 'C', 'C', 'C', 'C', 'C', 'C', 'C', 'C', 'C', 'C', 'C', 'C']","[1777843, 1778184, 1778487, 1778883, 1779324, 1779725, 1780125, 1780507, 1780887, 1781258, 1781626, 1782027, 1782448, 1782832, 1783232, 1783618, 1784047, 1784460, 1784866, 1785262, 1785671, 1786075, 1786457]","[1777891, 1778204, 1778527, 1778916, 1779368, 1779745, 1780145, 1780533, 1780913, 1781284, 1781666, 1782052, 1782510, 1782884, 1783258, 1783680, 1784093, 1784499, 1784921, 1785341, 1785725, 1786129, 1786533]","[1777369, 1777767, 1778167, 1778567, 1778967, 1779367, 1779767, 1780167, 1780533, 1780913, 1781283, 1781653, 1782052, 1782473, 1782857, 1783258, 1783644, 1784073, 1784485, 1784893, 1785288, 1785697, 1786101, 1786482]",18,R,ITM,1.1,
2,600,trial,0,94,94,94,trial,"['S', 'S', 'S', 'S', 'S', 'S', 'S', 'C', 'C', 'C', 'C', 'C', 'C', 'C', 'C', 'C', 'C', 'C', 'C', 'C', 'C', 'C', 'C']","[1792299, 1792884, 1793566, 1794198, 1794805, 1795394, 1796001, 1796600, 1797176, 1797724, 1798309, 1798885, 1799465, 1800017, 1800613, 1801165, 1801713, 1802278, 1802831, 1803392, 1803909, 1804434, 1804988]","[1792371, 1792936, 1793632, 1794286, 1794859, 1795472, 1796073, 1796687, 1797269, 1797821, 1798402, 1798985, 1799543, 1800092, 1800715, 1801259, 1801802, 1802346, 1802901, 1803487, 1804052, 1804554, 1805164]","[1791886, 1792485, 1793085, 1793686, 1794286, 1794886, 1795486, 1796086, 1796627, 1797202, 1797750, 1798336, 1798913, 1799492, 1800045, 1800640, 1801193, 1801741, 1802305, 1802859, 1803418, 1803935, 1804462, 1805016]",18,R,ITM,1.1,
5,400,trial,0,95,95,95,trial,"['S', 'S', 'S', 'S', 'S', 'S', 'S', 'C', 'C', 'C', 'C', 'C', 'C', 'C', 'C', 'C', 'C', 'C', 'C', 'C', 'C', 'C', 'C']","[1811253, 1811597, 1811886, 1812259, 1812720, 1813120, 1813525, 1813941, 1814351, 1814825, 1815196, 1815618, 1816053, 1816461, 1816867, 1817338, 1817713, 1818129, 1818541, 1818943, 1819355, 1819763, 1820152]","[1811311, 1811639, 1811940, 1812294, 1812762, 1813140, 1813545, 1813966, 1814387, 1814856, 1815260, 1815680, 1816127, 1816526, 1816937, 1817413, 1817790, 1818200, 1818604, 1819011, 1819410, 1819810, 1820211]","[1810754, 1811153, 1811553, 1811953, 1812354, 1812753, 1813153, 1813554, 1813966, 1814378, 1814851, 1815222, 1815644, 1816079, 1816486, 1816894, 1817364, 1817739, 1818155, 1818566, 1818969, 1819381, 1819789, 1820178]",18,R,ITM,1.1,
5,600,trial,0,96,96,96,trial,"['S', 'S', 'S', 'S', 'S', 'S', 'S', 'C', 'C', 'C', 'C', 'C', 'C', 'C', 'C', 'C', 'C', 'C', 'C', 'C', 'C', 'C', 'C']","[1826123, 1826761, 1827371, 1827976, 1828585, 1829146, 1829849, 1830387, 1830867, 1831304, 1831745, 1832190, 1832634, 1833080, 1833537, 1833952, 1834357, 1834806, 1835258, 1835669, 1836094, 1836549, 1837042]","[1826158, 1826791, 1827391, 1827996, 1828636, 1829212, 1829884, 1830419, 1830930, 1831344, 1831785, 1832244, 1832708, 1833132, 1833563, 1833999, 1834421, 1834848, 1835321, 1835747, 1836145, 1836593, 1837110]","[1825759, 1826358, 1826958, 1827558, 1828158, 1828758, 1829358, 1829958, 1830413, 1830893, 1831329, 1831771, 1832216, 1832660, 1833106, 1833563, 1833977, 1834384, 1834831, 1835284, 1835696, 1836120, 1836575, 1837068]",18,R,ITM,1.1,
4,600,trial,0,97,97,97,trial,"['S', 'S', 'S', 'S', 'S', 'S', 'S', 'C', 'C', 'C', 'C', 'C', 'C', 'C', 'C', 'C', 'C', 'C', 'C', 'C', 'C', 'C', 'C']","[1842870, 1843444, 1844051, 1844704, 1845346, 1845951, 1846577, 1847166, 1847702, 1848238, 1848749, 1849255, 1849763, 1850265, 1850780, 1851313, 1851807, 1852319, 1852825, 1853321, 1853805, 1854288, 1854778]","[1842890, 1843493, 1844128, 1844818, 1845499, 1846121, 1846752, 1847324, 1847834, 1848398, 1848935, 1849428, 1849953, 1850501, 1851020, 1851548, 1851985, 1852515, 1853052, 1853552, 1854057, 1854621, 1855026]","[1842485, 1843085, 1843685, 1844285, 1844885, 1845485, 1846085, 1846685, 1847191, 1847729, 1848264, 1848774, 1849281, 1849789, 1850291, 1850806, 1851338, 1851833, 1852345, 1852851, 1853346, 1853832, 1854314, 1854803]",18,R,ITM,1.1,
2,400,trial,0,98,98,98,trial,"['S', 'S', 'S', 'S', 'S', 'S', 'S', 'C', 'C', 'C', 'C', 'C', 'C', 'C', 'C', 'C', 'C', 'C', 'C', 'C', 'C', 'C', 'C']","[1860507, 1860903, 1861282, 1861712, 1862134, 1862524, 1862926, 1863320, 1863739, 1864119, 1864529, 1864920, 1865318, 1865704, 1866113, 1866515, 1866897, 1867297, 1867722, 1868119, 1868524, 1868888, 1869278]","[1860590, 1860958, 1861337, 1861767, 1862197, 1862575, 1862978, 1863371, 1863802, 1864174, 1864581, 1864965, 1865380, 1865779, 1866170, 1866582, 1866976, 1867361, 1867773, 1868183, 1868587, 1868974, 1869355]","[1860148, 1860548, 1860947, 1861348, 1861748, 1862149, 1862548, 1862948, 1863347, 1863767, 1864145, 1864557, 1864946, 1865346, 1865732, 1866139, 1866543, 1866925, 1867325, 1867750, 1868146, 1868552, 1868915, 1869304]",18,R,ITM,1.1,
2,400,trial,0,99,99,99,trial,"['S', 'S', 'S', 'S', 'S', 'S', 'S', 'C', 'C', 'C', 'C', 'C', 'C', 'C', 'C', 'C', 'C', 'C', 'C', 'C', 'C', 'C', 'C']","[1875401, 1875769, 1876192, 1876641, 1877014, 1877407, 1877809, 1878237, 1878653, 1879062, 1879471, 1879886, 1880327, 1880745, 1881175, 1881581, 1881994, 1882420, 1882851, 1883301, 1883710, 1884134, 1884563]","[1875472, 1875805, 1876242, 1876677, 1877035, 1877452, 1877855, 1878288, 1878705, 1879139, 1879560, 1879989, 1880437, 1880843, 1881268, 1881681, 1882095, 1882509, 1882919, 1883377, 1883779, 1884211, 1884634]","[1875052, 1875451, 1875852, 1876252, 1876653, 1877052, 1877452, 1877852, 1878264, 1878680, 1879090, 1879497, 1879914, 1880353, 1880773, 1881202, 1881608, 1882020, 1882447, 1882877, 1883329, 1883738, 1884161, 1884591]",18,R,ITM,1.1,
7,400,trial,0,100,100,100,trial,"['S', 'S', 'S', 'S', 'S', 'S', 'C', 'C', 'C', 'C', 'C', 'C', 'C', 'C', 'C', 'C', 'C', 'C', 'C', 'C', 'C', 'C']","[1891047, 1891424, 1891847, 1892284, 1892697, 1893089, 1893486, 1893863, 1894252, 1894638, 1895054, 1895501, 1895906, 1896279, 1896681, 1897108, 1897489, 1897867, 1898265, 1898674, 1899072, 1899484]","[1891105, 1891469, 1891901, 1892326, 1892738, 1893131, 1893521, 1893902, 1894286, 1894687, 1895128, 1895558, 1895971, 1896359, 1896743, 1897172, 1897552, 1897922, 1898339, 1898738, 1899166, 1899550]","[1890362, 1890762, 1891163, 1891562, 1891962, 1892362, 1892762, 1893163, 1893514, 1893890, 1894279, 1894666, 1895080, 1895528, 1895932, 1896305, 1896709, 1897136, 1897516, 1897894, 1898292, 1898700, 1899099, 1899510]",18,R,ITM,1.1,
6,600,trial,0,101,101,101,trial,"['S', 'S', 'S', 'S', 'S', 'S', 'S', 'C', 'C', 'C', 'C', 'C', 'C', 'C', 'C', 'C', 'C', 'C', 'C', 'C', 'C', 'C', 'C']","[1905916, 1906274, 1906746, 1907280, 1907904, 1908476, 1909082, 1909720, 1910280, 1910839, 1911426, 1911983, 1912572, 1913079, 1913706, 1914263, 1914804, 1915390, 1915935, 1916542, 1917143, 1917692, 1918264]","[1905973, 1906329, 1906804, 1907337, 1907947, 1908547, 1909170, 1909808, 1910349, 1910882, 1911464, 1912038, 1912613, 1913154, 1913768, 1914341, 1914880, 1915480, 1916068, 1916645, 1917284, 1917831, 1918439]","[1905047, 1905646, 1906246, 1906846, 1907446, 1908046, 1908646, 1909246, 1909747, 1910306, 1910865, 1911452, 1912009, 1912599, 1913106, 1913733, 1914290, 1914831, 1915417, 1915963, 1916569, 1917170, 1917720, 1918290]",18,R,ITM,1.1,
2,600,trial,0,102,102,102,trial,"['S', 'S', 'S', 'S', 'S', 'S', 'S', 'C', 'C', 'C', 'C', 'C', 'C', 'C', 'C', 'C', 'C', 'C', 'C', 'C', 'C', 'C', 'C']","[1924317, 1924818, 1925472, 1926093, 1926720, 1927380, 1927985, 1928602, 1929146, 1929703, 1930211, 1930710, 1931202, 1931721, 1932179, 1932706, 1933250, 1933756, 1934256, 1934737, 1935240, 1935706, 1936191]","[1924372, 1924856, 1925534, 1926206, 1926823, 1927489, 1928095, 1928781, 1929269, 1929841, 1930320, 1930854, 1931337, 1931937, 1932349, 1932880, 1933356, 1933925, 1934417, 1934889, 1935374, 1935853, 1936364]","[1923864, 1924464, 1925064, 1925664, 1926264, 1926864, 1927464, 1928064, 1928630, 1929172, 1929730, 1930237, 1930737, 1931230, 1931749, 1932207, 1932734, 1933277, 1933784, 1934282, 1934765, 1935267, 1935733, 1936218]",18,R,ITM,1.1,
5,400,trial,0,103,103,103,trial,"['S', 'S', 'S', 'S', 'S', 'S', 'S', 'C', 'C', 'C', 'C', 'C', 'C', 'C', 'C', 'C', 'C', 'C', 'C', 'C', 'C', 'C', 'C']","[1942199, 1942614, 1943004, 1943393, 1943827, 1944218, 1944631, 1945028, 1945423, 1945796, 1946177, 1946561, 1946976, 1947350, 1947776, 1948175, 1948582, 1948961, 1949359, 1949747, 1950147, 1950515, 1950942]","[1942270, 1942653, 1943075, 1943447, 1943882, 1944273, 1944688, 1945072, 1945450, 1945827, 1946203, 1946617, 1947057, 1947420, 1947801, 1948236, 1948646, 1949019, 1949412, 1949819, 1950223, 1950594, 1950994]","[1941863, 1942262, 1942663, 1943063, 1943463, 1943863, 1944263, 1944664, 1945055, 1945450, 1945822, 1946203, 1946588, 1947001, 1947375, 1947801, 1948200, 1948609, 1948987, 1949384, 1949772, 1950174, 1950540, 1950968]",18,R,ITM,1.1,
7,600,trial,0,104,104,104,trial,"['S', 'S', 'S', 'S', 'S', 'S', 'S', 'C', 'C', 'C', 'C', 'C', 'C', 'C', 'C', 'C', 'C', 'C', 'C', 'C', 'C', 'C', 'C']","[1957022, 1957552, 1958185, 1958830, 1959468, 1960123, 1960768, 1961389, 1961926, 1962443, 1962956, 1963452, 1963936, 1964389, 1964853, 1965318, 1965760, 1966231, 1966679, 1967134, 1967581, 1968002, 1968471]","[1957091, 1957614, 1958265, 1958927, 1959612, 1960202, 1960936, 1961596, 1962036, 1962605, 1963104, 1963539, 1964003, 1964495, 1964929, 1965376, 1965818, 1966309, 1966706, 1967174, 1967647, 1968053, 1968539]","[1956701, 1957300, 1957900, 1958500, 1959100, 1959700, 1960300, 1960900, 1961416, 1961954, 1962471, 1962983, 1963479, 1963964, 1964416, 1964880, 1965345, 1965788, 1966259, 1966705, 1967161, 1967607, 1968028, 1968497]",18,R,ITM,1.1,
3,600,trial,0,105,105,105,trial,"['S', 'S', 'S', 'S', 'S', 'S', 'S', 'C', 'C', 'C', 'C', 'C', 'C', 'C', 'C', 'C', 'C', 'C', 'C', 'C', 'C', 'C', 'C']","[1974370, 1974916, 1975517, 1976280, 1976869, 1977512, 1978096, 1978690, 1979217, 1979748, 1980252, 1980756, 1981281, 1981783, 1982265, 1982778, 1983237, 1983695, 1984200, 1984677, 1985167, 1985641, 1986130]","[1974413, 1974980, 1975590, 1976332, 1976974, 1977592, 1978150, 1978735, 1979283, 1979799, 1980326, 1980853, 1981339, 1981809, 1982338, 1982827, 1983313, 1983761, 1984250, 1984703, 1985233, 1985667, 1986157]","[1974028, 1974628, 1975228, 1975828, 1976428, 1977028, 1977628, 1978228, 1978716, 1979243, 1979773, 1980277, 1980782, 1981306, 1981808, 1982290, 1982803, 1983262, 1983721, 1984226, 1984703, 1985192, 1985667, 1986157]",18,R,ITM,1.1,
4,600,trial,0,106,106,106,trial,"['S', 'S', 'S', 'S', 'S', 'S', 'S', 'C', 'C', 'C', 'C', 'C', 'C', 'C', 'C', 'C', 'C', 'C', 'C', 'C', 'C', 'C', 'C']","[1992143, 1992859, 1993491, 1994110, 1994702, 1995287, 1995920, 1996481, 1997017, 1997590, 1998106, 1998644, 1999192, 1999676, 2000247, 2000821, 2001377, 2001904, 2002483, 2003009, 2003527, 2004077, 2004656]","[1992213, 1992918, 1993560, 1994155, 1994783, 1995353, 1995972, 1996544, 1997072, 1997632, 1998203, 1998729, 1999281, 1999791, 2000351, 2000941, 2001509, 2001986, 2002552, 2003054, 2003553, 2004112, 2004725]","[1991862, 1992462, 1993062, 1993662, 1994262, 1994862, 1995462, 1996062, 1996507, 1997042, 1997616, 1998132, 1998669, 1999217, 1999702, 2000273, 2000846, 2001402, 2001930, 2002508, 2003035, 2003553, 2004103, 2004681]",18,R,ITM,1.1,
4,400,trial,0,107,107,107,trial,"['S', 'S', 'S', 'S', 'S', 'S', 'S', 'C', 'C', 'C', 'C', 'C', 'C', 'C', 'C', 'C', 'C', 'C', 'C', 'C', 'C', 'C', 'C']","[2010823, 2011144, 2011476, 2011876, 2012285, 2012702, 2013111, 2013508, 2013889, 2014270, 2014656, 2015062, 2015476, 2015853, 2016204, 2016601, 2016994, 2017385, 2017796, 2018196, 2018567, 2018977, 2019369]","[2010862, 2011186, 2011518, 2011936, 2012335, 2012759, 2013162, 2013552, 2013935, 2014296, 2014706, 2015095, 2015502, 2015900, 2016281, 2016658, 2017038, 2017439, 2017854, 2018270, 2018638, 2019050, 2019411]","[2010375, 2010773, 2011173, 2011573, 2011973, 2012374, 2012773, 2013173, 2013534, 2013915, 2014296, 2014682, 2015087, 2015502, 2015879, 2016230, 2016627, 2017019, 2017411, 2017821, 2018222, 2018593, 2019003, 2019395]",18,R,ITM,1.1,
4,400,trial,0,108,108,108,trial,"['S', 'S', 'S', 'S', 'S', 'S', 'S', 'C', 'C', 'C', 'C', 'C', 'C', 'C', 'C', 'C', 'C', 'C', 'C', 'C', 'C', 'C', 'C']","[2025120, 2025456, 2025844, 2026224, 2026616, 2027015, 2027388, 2027790, 2028160, 2028560, 2028955, 2029342, 2029756, 2030155, 2030538, 2030919, 2031324, 2031719, 2032108, 2032498, 2032898, 2033319, 2033708]","[2025188, 2025494, 2025879, 2026265, 2026650, 2027055, 2027447, 2027847, 2028225, 2028628, 2029036, 2029422, 2029790, 2030182, 2030596, 2030973, 2031387, 2031788, 2032187, 2032568, 2032957, 2033373, 2033785]","[2024731, 2025131, 2025530, 2025930, 2026331, 2026730, 2027130, 2027530, 2027816, 2028185, 2028585, 2028982, 2029369, 2029783, 2030182, 2030564, 2030945, 2031349, 2031745, 2032134, 2032524, 2032923, 2033345, 2033733]",18,R,ITM,1.1,
5,600,trial,0,109,109,109,trial,"['S', 'S', 'S', 'S', 'S', 'S', 'S', 'S', 'C', 'C', 'C', 'C', 'C', 'C', 'C', 'C', 'C', 'C', 'C', 'C', 'C', 'C', 'C', 'C']","[2039562, 2039996, 2040476, 2040970, 2041517, 2042090, 2042696, 2043285, 2043889, 2044440, 2045000, 2045553, 2046106, 2046660, 2047208, 2047757, 2048311, 2048840, 2049381, 2049914, 2050470, 2050998, 2051522, 2052059]","[2039609, 2040044, 2040532, 2041033, 2041569, 2042141, 2042750, 2043343, 2043944, 2044507, 2045091, 2045657, 2046245, 2046780, 2047332, 2047892, 2048451, 2048933, 2049505, 2050013, 2050547, 2051075, 2051600, 2052122]","[2039220, 2039819, 2040419, 2041019, 2041619, 2042219, 2042819, 2043419, 2043916, 2044467, 2045027, 2045579, 2046132, 2046687, 2047234, 2047782, 2048336, 2048866, 2049406, 2049941, 2050497, 2051023, 2051548, 2052085]",18,R,ITM,1.1,
2,400,trial,0,110,110,110,trial,"['S', 'S', 'S', 'S', 'S', 'S', 'S', 'C', 'C', 'C', 'C', 'C', 'C', 'C', 'C', 'C', 'C', 'C', 'C', 'C', 'C', 'C', 'C']","[2058116, 2058517, 2058951, 2059375, 2059804, 2060218, 2060626, 2061035, 2061450, 2061867, 2062261, 2062672, 2063095, 2063510, 2063949, 2064381, 2064794, 2065248, 2065716, 2066146, 2066565, 2066970, 2067403]","[2058165, 2058562, 2059015, 2059432, 2059846, 2060272, 2060689, 2061111, 2061510, 2061943, 2062331, 2062752, 2063164, 2063561, 2064005, 2064450, 2064841, 2065320, 2065768, 2066195, 2066628, 2067027, 2067447]","[2057857, 2058256, 2058656, 2059057, 2059456, 2059856, 2060256, 2060655, 2061063, 2061477, 2061894, 2062287, 2062700, 2063123, 2063538, 2063977, 2064409, 2064822, 2065275, 2065742, 2066173, 2066592, 2066998, 2067431]",18,R,ITM,1.1,
2,400,trial,0,111,111,111,trial,"['S', 'S', 'S', 'S', 'S', 'S', 'S', 'C', 'C', 'C', 'C', 'C', 'C', 'C', 'C', 'C', 'C', 'C', 'C', 'C', 'C', 'C', 'C']","[2073050, 2073420, 2073842, 2074262, 2074687, 2075107, 2075505, 2075938, 2076312, 2076711, 2077099, 2077501, 2077873, 2078256, 2078656, 2079037, 2079400, 2079784, 2080186, 2080635, 2081040, 2081423, 2081806]","[2073119, 2073478, 2073903, 2074283, 2074745, 2075153, 2075553, 2075971, 2076353, 2076753, 2077132, 2077536, 2077915, 2078311, 2078715, 2079109, 2079484, 2079851, 2080243, 2080699, 2081088, 2081497, 2081889]","[2072805, 2073205, 2073605, 2074005, 2074405, 2074805, 2075205, 2075606, 2075966, 2076339, 2076738, 2077126, 2077528, 2077900, 2078283, 2078683, 2079064, 2079428, 2079811, 2080212, 2080663, 2081068, 2081449, 2081832]",18,R,ITM,1.1,
7,600,trial,0,112,112,112,trial,"['S', 'S', 'S', 'S', 'S', 'S', 'S', 'C', 'C', 'C', 'C', 'C', 'C', 'C', 'C', 'C', 'C', 'C', 'C', 'C', 'C', 'C', 'C']","[2087493, 2088322, 2088897, 2089511, 2090145, 2090777, 2091361, 2091952, 2092516, 2093105, 2093651, 2094225, 2094787, 2095345, 2095880, 2096431, 2096977, 2097537, 2098114, 2098625, 2099195, 2099700, 2100267]","[2087546, 2088355, 2088943, 2089578, 2090232, 2090869, 2091512, 2092112, 2092699, 2093231, 2093766, 2094387, 2094885, 2095479, 2096062, 2096563, 2097131, 2097730, 2098253, 2098805, 2099409, 2099914, 2100457]","[2087195, 2087794, 2088394, 2088994, 2089594, 2090194, 2090795, 2091395, 2091978, 2092542, 2093132, 2093678, 2094252, 2094814, 2095373, 2095906, 2096457, 2097004, 2097564, 2098141, 2098652, 2099222, 2099728, 2100294]",18,R,ITM,1.1,
7,400,trial,0,113,113,113,trial,"['S', 'S', 'S', 'S', 'S', 'S', 'S', 'C', 'C', 'C', 'C', 'C', 'C', 'C', 'C', 'C', 'C', 'C', 'C', 'C', 'C', 'C', 'C']","[2106134, 2106455, 2106843, 2107264, 2107685, 2108121, 2108549, 2108967, 2109321, 2109699, 2110074, 2110477, 2110885, 2111272, 2111659, 2112040, 2112429, 2112812, 2113204, 2113602, 2113998, 2114394, 2114768]","[2106200, 2106490, 2106887, 2107324, 2107725, 2108173, 2108569, 2108997, 2109367, 2109746, 2110110, 2110523, 2110935, 2111339, 2111712, 2112096, 2112466, 2112863, 2113231, 2113666, 2114026, 2114428, 2114820]","[2105838, 2106237, 2106637, 2107037, 2107438, 2107837, 2108237, 2108638, 2108994, 2109347, 2109725, 2110101, 2110503, 2110912, 2111299, 2111685, 2112067, 2112456, 2112838, 2113231, 2113629, 2114026, 2114420, 2114795]",18,R,ITM,1.1,
6,600,trial,0,114,114,114,trial,"['S', 'S', 'S', 'S', 'S', 'S', 'S', 'C', 'C', 'C', 'C', 'C', 'C', 'C', 'C', 'C', 'C', 'C', 'C', 'C', 'C', 'C', 'C']","[2120698, 2121381, 2122045, 2122690, 2123293, 2123941, 2124530, 2125160, 2125681, 2126164, 2126639, 2127118, 2127581, 2128059, 2128524, 2128973, 2129454, 2129922, 2130358, 2130813, 2131259, 2131732, 2132163]","[2120748, 2121441, 2122123, 2122781, 2123364, 2124034, 2124612, 2125248, 2125783, 2126241, 2126707, 2127213, 2127674, 2128156, 2128603, 2129074, 2129544, 2130012, 2130448, 2130862, 2131323, 2131781, 2132214]","[2120488, 2121088, 2121688, 2122288, 2122888, 2123488, 2124088, 2124688, 2125188, 2125709, 2126191, 2126665, 2127145, 2127607, 2128086, 2128550, 2129001, 2129480, 2129948, 2130384, 2130840, 2131286, 2131760, 2132190]",18,R,ITM,1.1,
3,400,trial,0,115,115,115,trial,"['S', 'S', 'S', 'S', 'S', 'S', 'S', 'C', 'C', 'C', 'C', 'C', 'C', 'C', 'C', 'C', 'C', 'C', 'C', 'C', 'C', 'C', 'C']","[2138189, 2138593, 2138971, 2139364, 2139742, 2140160, 2140546, 2140974, 2141373, 2141778, 2142206, 2142615, 2142995, 2143409, 2143806, 2144220, 2144609, 2145037, 2145445, 2145843, 2146235, 2146642, 2147041]","[2138249, 2138638, 2139018, 2139415, 2139808, 2140205, 2140610, 2141044, 2141440, 2141832, 2142279, 2142641, 2143057, 2143459, 2143864, 2144278, 2144658, 2145062, 2145499, 2145890, 2146300, 2146690, 2147120]","[2137784, 2138184, 2138585, 2138984, 2139384, 2139784, 2140184, 2140584, 2140999, 2141399, 2141804, 2142232, 2142641, 2143021, 2143434, 2143832, 2144245, 2144634, 2145062, 2145471, 2145868, 2146260, 2146668, 2147066]",18,R,ITM,1.1,
6,400,trial,0,116,116,116,trial,"['S', 'S', 'S', 'S', 'S', 'S', 'S', 'C', 'C', 'C', 'C', 'C', 'C', 'C', 'C', 'C', 'C', 'C', 'C', 'C', 'C', 'C', 'C']","[2153193, 2153535, 2153971, 2154362, 2154754, 2155203, 2155620, 2156019, 2156422, 2156856, 2157260, 2157649, 2158051, 2158446, 2158829, 2159223, 2159584, 2160015, 2160401, 2160785, 2161163, 2161574, 2161969]","[2153261, 2153585, 2154055, 2154429, 2154817, 2155223, 2155701, 2156082, 2156498, 2156932, 2157332, 2157709, 2158107, 2158496, 2158873, 2159289, 2159637, 2160082, 2160476, 2160879, 2161255, 2161646, 2162028]","[2152856, 2153255, 2153655, 2154055, 2154456, 2154855, 2155255, 2155656, 2156046, 2156448, 2156882, 2157287, 2157677, 2158078, 2158473, 2158857, 2159250, 2159610, 2160043, 2160428, 2160812, 2161190, 2161601, 2161995]",18,R,ITM,1.1,
3,600,trial,0,117,117,117,trial,"['S', 'S', 'S', 'S', 'S', 'S', 'S', 'C', 'C', 'C', 'C', 'C', 'C', 'C', 'C', 'C', 'C', 'C', 'C', 'C', 'C', 'C', 'C']","[2167923, 2168740, 2169284, 2169908, 2170499, 2171114, 2171723, 2172315, 2172841, 2173357, 2173863, 2174390, 2174887, 2175380, 2175879, 2176397, 2176887, 2177396, 2177893, 2178371, 2179239, 2179699, 2180195]","[2167972, 2168810, 2169350, 2169970, 2170575, 2171174, 2171821, 2172378, 2172920, 2173443, 2173957, 2174491, 2174999, 2175551, 2176041, 2176598, 2177100, 2177618, 2178109, 2178523, 2179377, 2179808, 2180354]","[2167652, 2168251, 2168851, 2169451, 2170051, 2170651, 2171251, 2171851, 2172341, 2172867, 2173382, 2173889, 2174415, 2174913, 2175406, 2175904, 2176422, 2176913, 2177422, 2177918, 2178397, 2179265, 2179725, 2180220]",18,R,ITM,1.1,
4,600,trial,0,118,118,118,trial,"['S', 'S', 'S', 'S', 'S', 'S', 'S', 'S', 'C', 'C', 'C', 'C', 'C', 'C', 'C', 'C', 'C', 'C', 'C', 'C', 'C', 'C', 'C', 'C']","[2186086, 2186577, 2186934, 2187394, 2187969, 2188578, 2189176, 2189743, 2190401, 2190929, 2191429, 2191902, 2192380, 2192861, 2193338, 2193852, 2194322, 2194794, 2195245, 2195723, 2196210, 2196685, 2197172, 2197680]","[2186139, 2186644, 2187021, 2187475, 2188082, 2188697, 2189333, 2189898, 2190572, 2191101, 2191606, 2192087, 2192574, 2193027, 2193506, 2194022, 2194473, 2194907, 2195384, 2195855, 2196367, 2196856, 2197276, 2197843]","[2185768, 2186368, 2186968, 2187568, 2188167, 2188767, 2189367, 2189967, 2190427, 2190956, 2191455, 2191928, 2192406, 2192886, 2193363, 2193878, 2194348, 2194820, 2195270, 2195748, 2196237, 2196712, 2197197, 2197706]",18,R,ITM,1.1,
5,600,trial,0,119,119,119,trial,"['S', 'S', 'S', 'S', 'S', 'S', 'S', 'C', 'C', 'C', 'C', 'C', 'C', 'C', 'C', 'C', 'C', 'C', 'C', 'C', 'C', 'C', 'C']","[2203363, 2203963, 2204537, 2205273, 2205922, 2206537, 2207139, 2207759, 2208337, 2208871, 2209418, 2209926, 2210500, 2211011, 2211594, 2212114, 2212680, 2213200, 2213787, 2214347, 2214861, 2215349, 2215912]","[2203427, 2204014, 2204655, 2205430, 2206084, 2206735, 2207343, 2207989, 2208562, 2209122, 2209693, 2210213, 2210758, 2211315, 2211853, 2212430, 2212997, 2213505, 2214077, 2214588, 2215118, 2215647]","[2203084, 2203683, 2204283, 2204883, 2205484, 2206084, 2206684, 2207283, 2207785, 2208364, 2208897, 2209443, 2209951, 2210526, 2211037, 2211619, 2212140, 2212706, 2213226, 2213813, 2214373, 2214887, 2215374, 2215939]",18,R,ITM,1.1,
6,400,trial,0,120,120,120,trial,"['S', 'S', 'S', 'S', 'S', 'S', 'S', 'C', 'C', 'C', 'C', 'C', 'C', 'C', 'C', 'C', 'C', 'C', 'C', 'C', 'C', 'C', 'C']","[2221670, 2222055, 2222477, 2222905, 2223339, 2223744, 2224141, 2224550, 2224921, 2225266, 2225638, 2226021, 2226435, 2226814, 2227191, 2227585, 2227943, 2228306, 2228711, 2229088, 2229468, 2229863, 2230272]","[2221751, 2222131, 2222540, 2222966, 2223396, 2223808, 2224212, 2224616, 2224991, 2225321, 2225721, 2226115, 2226497, 2226874, 2227261, 2227645, 2228006, 2228376, 2228797, 2229174, 2229532, 2229926, 2230329]","[2221408, 2221807, 2222208, 2222607, 2223007, 2223408, 2223807, 2224207, 2224578, 2224949, 2225294, 2225665, 2226049, 2226461, 2226841, 2227219, 2227612, 2227971, 2228333, 2228739, 2229114, 2229495, 2229891, 2230298]",18,R,ITM,1.1,
3,400,trial,0,121,121,121,trial,"['S', 'S', 'S', 'S', 'S', 'S', 'S', 'C', 'C', 'C', 'C', 'C', 'C', 'C', 'C', 'C', 'C', 'C', 'C', 'C', 'C', 'C', 'C']","[2235981, 2236401, 2236813, 2237228, 2237623, 2238031, 2238437, 2238799, 2239221, 2239610, 2240012, 2240382, 2240825, 2241198, 2241614, 2242019, 2242418, 2242824, 2243201, 2243581, 2243983, 2244381, 2244758]","[2236046, 2236471, 2236883, 2237310, 2237692, 2238068, 2238457, 2238825, 2239266, 2239636, 2240071, 2240460, 2240876, 2241281, 2241692, 2242115, 2242494, 2242878, 2243277, 2243678, 2244063, 2244462, 2244841]","[2235669, 2236068, 2236468, 2236868, 2237268, 2237668, 2238068, 2238469, 2238825, 2239247, 2239636, 2240037, 2240408, 2240850, 2241223, 2241640, 2242045, 2242444, 2242849, 2243226, 2243607, 2244008, 2244407, 2244784]",18,R,ITM,1.1,
2,600,trial,0,122,122,122,trial,"['S', 'S', 'S', 'S', 'S', 'S', 'S', 'C', 'C', 'C', 'C', 'C', 'C', 'C', 'C', 'C', 'C', 'C', 'C', 'C', 'C', 'C', 'C']","[2250428, 2251117, 2251757, 2252406, 2253051, 2253628, 2254214, 2254826, 2255413, 2256002, 2256583, 2257133, 2257693, 2258236, 2258803, 2259346, 2259923, 2260505, 2261021, 2261570, 2262122, 2262684, 2263211]","[2250490, 2251192, 2251801, 2252500, 2253124, 2253713, 2254301, 2254926, 2255527, 2256125, 2256740, 2257337, 2257891, 2258452, 2259033, 2259574, 2260140, 2260715, 2261250, 2261813, 2262364, 2262949, 2263464]","[2250100, 2250700, 2251300, 2251900, 2252500, 2253100, 2253701, 2254300, 2254853, 2255439, 2256029, 2256611, 2257161, 2257721, 2258263, 2258830, 2259373, 2259951, 2260532, 2261049, 2261598, 2262149, 2262711, 2263238]",18,R,ITM,1.1,
5,400,trial,0,123,123,123,trial,"['S', 'S', 'S', 'S', 'S', 'S', 'S', 'C', 'C', 'C', 'C', 'C', 'C', 'C', 'C', 'C', 'C', 'C', 'C', 'C', 'C', 'C', 'C']","[2268968, 2269328, 2269729, 2270154, 2270579, 2270997, 2271408, 2271821, 2272207, 2272628, 2273052, 2273420, 2273839, 2274213, 2274628, 2275016, 2275418, 2275803, 2276198, 2276581, 2276982, 2277360, 2277752]","[2269018, 2269372, 2269779, 2270206, 2270655, 2271086, 2271497, 2271926, 2272285, 2272699, 2273137, 2273508, 2273940, 2274298, 2274703, 2275102, 2275480, 2275874, 2276276, 2276660, 2277059, 2277415, 2277831]","[2268635, 2269033, 2269433, 2269833, 2270233, 2270633, 2271033, 2271433, 2271847, 2272233, 2272654, 2273078, 2273445, 2273864, 2274239, 2274654, 2275042, 2275444, 2275829, 2276224, 2276606, 2277008, 2277387, 2277778]",18,R,ITM,1.1,
6,600,trial,0,124,124,124,trial,"['S', 'S', 'S', 'S', 'S', 'S', 'S', 'S', 'C', 'C', 'C', 'C', 'C', 'C', 'C', 'C', 'C', 'C', 'C', 'C', 'C', 'C', 'C', 'C']","[2283773, 2284153, 2284585, 2285162, 2285787, 2286376, 2287078, 2287643, 2288303, 2288856, 2289394, 2289931, 2290509, 2291058, 2291617, 2292180, 2292684, 2293245, 2293781, 2294305, 2294831, 2295380, 2295875, 2296422]","[2283838, 2284241, 2284642, 2285220, 2285832, 2286438, 2287141, 2287719, 2288377, 2288930, 2289482, 2290019, 2290610, 2291159, 2291738, 2292371, 2292882, 2293448, 2293988, 2294564, 2295075, 2295624, 2296137, 2296647]","[2283537, 2284136, 2284736, 2285336, 2285936, 2286536, 2287136, 2287736, 2288329, 2288882, 2289422, 2289958, 2290536, 2291086, 2291644, 2292207, 2292712, 2293272, 2293809, 2294332, 2294857, 2295407, 2295902, 2296449]",18,R,ITM,1.1,
7,400,trial,0,125,125,125,trial,"['S', 'S', 'S', 'S', 'S', 'S', 'S', 'C', 'C', 'C', 'C', 'C', 'C', 'C', 'C', 'C', 'C', 'C', 'C', 'C', 'C', 'C', 'C']","[2302389, 2302727, 2303111, 2303588, 2304006, 2304443, 2304858, 2305269, 2305653, 2306039, 2306427, 2306822, 2307204, 2307587, 2307966, 2308381, 2308758, 2309172, 2309557, 2309988, 2310387, 2310780, 2311173]","[2302455, 2302788, 2303187, 2303665, 2304080, 2304512, 2304924, 2305342, 2305734, 2306115, 2306535, 2306909, 2307281, 2307673, 2308043, 2308464, 2308836, 2309224, 2309621, 2310068, 2310456, 2310832, 2311247]","[2302172, 2302570, 2302970, 2303370, 2303770, 2304171, 2304570, 2304970, 2305296, 2305681, 2306066, 2306455, 2306849, 2307230, 2307614, 2307994, 2308409, 2308786, 2309199, 2309583, 2310016, 2310415, 2310808, 2311200]",18,R,ITM,1.1,
