octave,ioi,event,.thisRepN,.thisTrialN,.thisN,.thisIndex,event,tap_types,tap_times,release_times,tone_times,subject,handedness,experiment,version,
,,SPR,0,-1,-1,0,SPR,"['P', 'P', 'P', 'P', 'P', 'P', 'P', 'P', 'P', 'P', 'P', 'P', 'P', 'P', 'P', 'P', 'P', 'P', 'P', 'P', 'P', 'P', 'P', 'P', 'P', 'P', 'P', 'P', 'P', 'P']","[62648, 63300, 63960, 64693, 65394, 66095, 66794, 67464, 68155, 68877, 69544, 69650, 70206, 70838, 71493, 72152, 72779, 73466, 74083, 74755, 75355, 75995, 76643, 77274, 77879, 78512, 79143, 81014, 81647, 82278]","[62757, 63437, 64071, 64774, 65472, 66128, 66828, 67494, 68180, 68988, 69570, 69670, 70313, 70861, 71526, 72178, 72804, 73499, 74112, 74779, 75375, 76017, 76665, 77295, 77902, 78532, 79166, 81145, 81770, 82312]",,21,R,ITM,1.1,
6,500,practice,0,0,0,0,practice,"['S', 'S', 'S', 'S', 'S', 'S', 'C', 'C', 'C', 'C', 'C', 'C', 'C', 'C', 'C', 'C', 'C', 'C', 'C', 'C', 'C', 'C']","[165451, 166009, 166491, 166960, 167476, 167952, 168465, 168973, 169483, 170009, 170478, 170975, 171453, 171956, 172440, 172919, 173422, 173904, 174388, 174871, 175333, 175831]","[165560, 166107, 166609, 167070, 167578, 168043, 168564, 169009, 169515, 170096, 170588, 171008, 171564, 172065, 172550, 173008, 173502, 173935, 174418, 174952, 175420, 175924]","[164505, 165004, 165505, 166004, 166504, 167005, 167504, 168004, 168493, 168999, 169510, 170037, 170506, 171002, 171480, 171983, 172468, 172946, 173449, 173931, 174415, 174899, 175361, 175857]",21,R,ITM,1.1,
5,500,practice,0,1,1,1,practice,"['S', 'S', 'S', 'C', 'C', 'C', 'C', 'C', 'C', 'C', 'C', 'C', 'C', 'C', 'C', 'C', 'C', 'C', 'C', 'C', 'C']","[183916, 184413, 184910, 185360, 185893, 186370, 186839, 187326, 187806, 187921, 188260, 188806, 189263, 189696, 190170, 190282, 190624, 191106, 191554, 192029, 192459]","[184044, 184545, 185016, 185486, 186029, 186478, 186979, 187471, 187841, 187967, 188391, 188902, 189378, 189828, 190202, 190302, 190744, 191211, 191680, 192123, 192582]","[181392, 181892, 182391, 182891, 183391, 183891, 184391, 184891, 185385, 185919, 186395, 186864, 187353, 187832, 188285, 188832, 189289, 189721, 190195, 190650, 191131, 191580, 192055, 192486]",21,R,ITM,1.1,
2,500,practice,0,2,2,2,practice,"['S', 'S', 'S', 'S', 'S', 'S', 'S', 'C', 'C', 'C', 'C', 'C', 'C', 'C', 'C', 'C', 'C', 'C', 'C', 'C', 'C', 'C', 'C']","[198586, 199071, 199560, 200077, 200572, 201040, 201576, 202081, 202556, 203000, 203478, 203942, 204455, 204933, 205406, 205902, 206365, 206857, 207356, 207838, 208318, 208835, 209311]","[198708, 199203, 199672, 200199, 200716, 201145, 201601, 202189, 202685, 203115, 203575, 204057, 204546, 205032, 205511, 205981, 206392, 206955, 207436, 207931, 208417, 208863, 209397]","[198120, 198621, 199120, 199620, 200120, 200620, 201120, 201620, 202107, 202584, 203027, 203504, 203969, 204482, 204960, 205432, 205929, 206392, 206883, 207384, 207864, 208346, 208863, 209338]",21,R,ITM,1.1,
7,500,practice,0,3,3,3,practice,"['S', 'S', 'S', 'S', 'S', 'S', 'C', 'C', 'C', 'C', 'C', 'C', 'C', 'C', 'C', 'C', 'C', 'C', 'C', 'C', 'C', 'C']","[215822, 216326, 216855, 217302, 217795, 218304, 218736, 219259, 219715, 220193, 220662, 221162, 221650, 222143, 222547, 223060, 223551, 223992, 224461, 224950, 225430, 225867]","[215958, 216487, 216940, 217442, 217929, 218389, 218843, 219339, 219810, 220283, 220773, 221270, 221741, 222220, 222658, 223163, 223626, 224079, 224567, 225043, 225524, 225960]","[214877, 215375, 215875, 216375, 216876, 217375, 217875, 218376, 218763, 219287, 219743, 220220, 220690, 221189, 221678, 222170, 222574, 223087, 223579, 224020, 224488, 224976, 225457, 225894]",21,R,ITM,1.1,
3,500,practice,0,4,4,4,practice,"['S', 'S', 'S', 'S', 'S', 'S', 'C', 'C', 'C', 'C', 'C', 'C', 'C', 'C', 'C', 'C', 'C', 'C', 'C', 'C', 'C', 'C']","[232457, 232923, 233408, 233863, 234428, 234848, 235347, 235834, 236299, 236785, 237280, 237804, 238253, 238724, 239221, 239656, 240154, 240618, 241128, 241601, 242070, 242570]","[232546, 233063, 233526, 234006, 234458, 234949, 235467, 235933, 236395, 236888, 237372, 237878, 238346, 238816, 239296, 239756, 240236, 240650, 241209, 241675, 242140, 242598]","[231449, 231948, 232449, 232948, 233448, 233949, 234449, 234949, 235373, 235859, 236324, 236811, 237305, 237830, 238278, 238749, 239247, 239682, 240180, 240644, 241154, 241627, 242096, 242595]",21,R,ITM,1.1,
4,500,practice,0,5,5,5,practice,"['S', 'S', 'S', 'S', 'S', 'S', 'S', 'C', 'C', 'C', 'C', 'C', 'C', 'C', 'C', 'C', 'C', 'C', 'C', 'C', 'C', 'C', 'C']","[248523, 249036, 249513, 250045, 250529, 251008, 251548, 252015, 252516, 253008, 253486, 254003, 254491, 254974, 255482, 255965, 256444, 256925, 257451, 257934, 258418, 258906, 259391]","[248625, 249128, 249620, 250073, 250607, 251105, 251580, 252123, 252604, 253044, 253587, 254108, 254581, 255003, 255512, 256037, 256517, 256991, 257479, 258020, 258508, 259004, 259479]","[248121, 248621, 249120, 249620, 250120, 250620, 251120, 251620, 252041, 252541, 253035, 253511, 254028, 254517, 255000, 255509, 255990, 256470, 256951, 257476, 257959, 258444, 258931, 259417]",21,R,ITM,1.1,
4,600,trial,0,6,6,6,trial,"['S', 'S', 'S', 'S', 'S', 'S', 'S', 'C', 'C', 'C', 'C', 'C', 'C', 'C', 'C', 'C', 'C', 'C', 'C', 'C', 'C', 'C', 'C', 'C']","[308193, 308857, 309417, 310063, 310644, 311319, 311924, 312582, 313183, 313781, 314335, 314933, 315043, 315516, 316090, 316657, 317216, 317744, 318321, 318943, 319480, 320027, 320576, 321129]","[308282, 308934, 309530, 310165, 310771, 311404, 312012, 312660, 313280, 313881, 314360, 314963, 315064, 315621, 316216, 316751, 317286, 317827, 318413, 319016, 319588, 320110, 320662, 321218]","[307766, 308365, 308965, 309565, 310165, 310765, 311365, 311965, 312607, 313208, 313806, 314360, 314958, 315542, 316115, 316684, 317243, 317769, 318347, 318968, 319506, 320053, 320603, 321156]",21,R,ITM,1.1,
3,600,trial,0,7,7,7,trial,"['S', 'S', 'S', 'S', 'S', 'S', 'S', 'C', 'C', 'C', 'C', 'C', 'C', 'C', 'C', 'C', 'C', 'C', 'C', 'C', 'C', 'C', 'C', 'C']","[327455, 328110, 328759, 329298, 329916, 330477, 331116, 331742, 332305, 332922, 333479, 334112, 334756, 335285, 335873, 336486, 337065, 337622, 337730, 338265, 338804, 339368, 339894, 340513]","[327541, 328222, 328862, 329449, 330049, 330612, 331207, 331843, 332426, 333043, 333611, 334243, 334853, 335383, 335984, 336607, 337176, 337650, 337750, 338345, 338834, 339495, 340009, 340595]","[326908, 327507, 328108, 328708, 329308, 329907, 330507, 331107, 331767, 332331, 332948, 333505, 334138, 334782, 335310, 335898, 336512, 337091, 337647, 338290, 338830, 339394, 339919, 340539]",21,R,ITM,1.1,
6,600,trial,0,8,8,8,trial,"['S', 'S', 'S', 'S', 'S', 'S', 'S', 'C', 'C', 'C', 'C', 'C', 'C', 'C', 'C', 'C', 'C', 'C', 'C', 'C', 'C', 'C', 'C']","[346787, 347379, 347977, 348536, 349176, 349798, 350405, 351055, 351662, 352262, 352867, 353469, 354084, 354649, 355264, 355849, 356445, 357052, 357618, 358217, 358781, 359349, 359940]","[346929, 347591, 348198, 348794, 349443, 350087, 350714, 351336, 351975, 352561, 353154, 353784, 354329, 354956, 355523, 356109, 356727, 357340, 357919, 358454, 358962, 359613, 360194]","[346262, 346861, 347461, 348061, 348661, 349261, 349861, 350461, 351082, 351689, 352288, 352893, 353496, 354111, 354675, 355291, 355875, 356472, 357079, 357645, 358244, 358808, 359376, 359967]",21,R,ITM,1.1,
5,600,trial,0,9,9,9,trial,"['S', 'S', 'S', 'S', 'S', 'S', 'S', 'C', 'C', 'C', 'C', 'C', 'C', 'C', 'C', 'C', 'C', 'C', 'C', 'C', 'C', 'C', 'C']","[366160, 366694, 367283, 367902, 368529, 369160, 369755, 370370, 371003, 371585, 372166, 372756, 373327, 373958, 374558, 375152, 375747, 376335, 376918, 377515, 378097, 378684, 379255]","[366395, 366966, 367545, 368189, 368820, 369417, 369978, 370592, 371227, 371863, 372441, 373036, 373617, 374218, 374822, 375435, 376022, 376601, 377188, 377803, 378429, 378971]","[365602, 366201, 366801, 367401, 368002, 368602, 369202, 369802, 370397, 371030, 371610, 372192, 372782, 373353, 373984, 374584, 375178, 375774, 376361, 376943, 377540, 378123, 378710, 379281]",21,R,ITM,1.1,
7,400,trial,0,10,10,10,trial,"['S', 'S', 'S', 'S', 'S', 'S', 'C', 'C', 'C', 'C', 'C', 'C', 'C', 'C', 'C', 'C', 'C', 'C', 'C', 'C', 'C', 'C']","[385373, 385988, 386425, 386825, 387244, 387634, 388035, 388443, 388846, 389234, 389597, 390020, 390396, 390788, 391178, 391558, 391948, 392331, 392709, 393101, 393486, 393860]","[385427, 386116, 386553, 386948, 387366, 387786, 388173, 388564, 388963, 389364, 389760, 390142, 390538, 390933, 391290, 391690, 392080, 392461, 392826, 393238, 393622, 393981]","[384844, 385244, 385643, 386043, 386443, 386843, 387244, 387643, 388062, 388470, 388873, 389261, 389624, 390047, 390424, 390815, 391204, 391585, 391974, 392358, 392736, 393127, 393512, 393886]",21,R,ITM,1.1,
4,400,trial,0,11,11,11,trial,"['S', 'S', 'S', 'S', 'S', 'S', 'S', 'C', 'C', 'C', 'C', 'C', 'C', 'C', 'C', 'C', 'C', 'C', 'C', 'C', 'C', 'C', 'C']","[399872, 400153, 400517, 400921, 401303, 401728, 402109, 402501, 402912, 403277, 403662, 404084, 404467, 404835, 405270, 405644, 406017, 406443, 406837, 407188, 407632, 408005, 408363]","[399994, 400277, 400677, 401082, 401421, 401887, 402277, 402680, 403084, 403482, 403825, 404240, 404615, 404968, 405385, 405771, 406159, 406577, 406939, 407336, 407758, 408154, 408541]","[399339, 399739, 400139, 400539, 400940, 401339, 401739, 402140, 402527, 402937, 403303, 403688, 404110, 404494, 404860, 405296, 405669, 406042, 406468, 406862, 407214, 407658, 408031, 408388]",21,R,ITM,1.1,
6,400,trial,0,12,12,12,trial,"['S', 'S', 'S', 'S', 'S', 'S', 'C', 'C', 'C', 'C', 'C', 'C', 'C', 'C', 'C', 'C', 'C', 'C', 'C', 'C', 'C', 'C']","[414628, 415051, 415465, 415830, 416211, 416577, 416991, 417379, 417762, 418167, 418541, 418958, 419319, 419685, 420088, 420443, 420820, 421204, 421576, 421965, 422319, 422708]","[414756, 415192, 415570, 415980, 416334, 416734, 417139, 417523, 417906, 418292, 418721, 419126, 419493, 419871, 420230, 420570, 420965, 421330, 421711, 422104, 422443, 422847]","[413852, 414252, 414651, 415051, 415452, 415851, 416251, 416651, 417018, 417406, 417788, 418194, 418568, 418984, 419347, 419713, 420115, 420470, 420847, 421232, 421604, 421992, 422345, 422734]",21,R,ITM,1.1,
7,600,trial,0,13,13,13,trial,"['S', 'S', 'S', 'S', 'S', 'S', 'C', 'C', 'C', 'C', 'C', 'C', 'C', 'C', 'C', 'C', 'C', 'C', 'C', 'C', 'C', 'C']","[429331, 429930, 430505, 431109, 431685, 432275, 432879, 433440, 434018, 434580, 435172, 435712, 436287, 436825, 437384, 437961, 438500, 439081, 439630, 440182, 440725, 441279]","[429613, 430188, 430793, 431404, 431992, 432582, 433178, 433730, 434327, 434864, 435436, 436005, 436518, 437082, 437658, 438228, 438781, 439331, 439897, 440437, 441013, 441531]","[428167, 428766, 429366, 429966, 430566, 431166, 431766, 432366, 432907, 433467, 434045, 434607, 435198, 435738, 436315, 436852, 437411, 437988, 438528, 439108, 439658, 440210, 440752, 441307]",21,R,ITM,1.1,
2,400,trial,0,14,14,14,trial,"['B', 'S', 'S', 'S', 'C', 'C', 'C', 'C', 'C', 'C', 'C', 'C', 'C', 'C', 'C', 'C', 'C', 'C', 'C', 'C']","[446860, 448815, 449231, 449635, 450033, 450421, 450814, 451211, 451586, 451969, 452376, 452752, 453135, 453517, 453893, 454280, 454662, 455041, 455412, 455820]","[447525, 448943, 449397, 449820, 450212, 450613, 450991, 451381, 451756, 452183, 452535, 452896, 453286, 453698, 454081, 454424, 454804, 455185, 455575, 456031]","[446873, 447273, 447673, 448072, 448474, 448873, 449273, 449673, 450061, 450448, 450842, 451237, 451613, 451995, 452403, 452780, 453161, 453544, 453920, 454306, 454689, 455068, 455440, 455846]",21,R,ITM,1.1,
2,600,trial,0,15,15,15,trial,"['S', 'S', 'S', 'S', 'S', 'S', 'C', 'C', 'C', 'C', 'C', 'C', 'C', 'C', 'C', 'C', 'C', 'C', 'C', 'C', 'C', 'C']","[462315, 462898, 463495, 464108, 464699, 465300, 465922, 466504, 467098, 467687, 468251, 468853, 469400, 469963, 470573, 471107, 471646, 472197, 472748, 473308, 473867, 474424]","[462573, 463218, 463815, 464399, 465008, 465622, 466196, 466782, 467381, 467961, 468540, 469120, 469685, 470270, 470870, 471410, 471927, 472458, 473061, 473595, 474158, 474686]","[461154, 461754, 462354, 462954, 463553, 464154, 464754, 465354, 465948, 466532, 467126, 467714, 468279, 468881, 469428, 469990, 470599, 471134, 471673, 472223, 472775, 473334, 473894, 474450]",21,R,ITM,1.1,
4,600,trial,0,16,16,16,trial,"['S', 'S', 'S', 'S', 'S', 'S', 'S', 'C', 'C', 'C', 'C', 'C', 'C', 'C', 'C', 'C', 'C', 'C', 'C', 'C', 'C', 'C', 'C']","[480617, 481219, 481818, 482410, 482996, 483606, 484185, 484822, 485425, 486012, 486625, 487183, 487780, 488339, 489007, 489568, 490128, 490694, 491287, 491842, 492420, 493012, 493581]","[480899, 481482, 482106, 482679, 483291, 483893, 484539, 485138, 485692, 486330, 486907, 487486, 488025, 488679, 489261, 489853, 490402, 490971, 491494, 492089, 492633, 493199, 493829]","[480088, 480688, 481287, 481887, 482487, 483087, 483687, 484287, 484847, 485450, 486038, 486650, 487208, 487805, 488365, 489032, 489593, 490155, 490720, 491313, 491868, 492445, 493038, 493606]",21,R,ITM,1.1,
5,600,trial,0,17,17,17,trial,"['B', 'S', 'S', 'S', 'S', 'C', 'C', 'C', 'C', 'C', 'C', 'C', 'C', 'C', 'C', 'C', 'C', 'C', 'C', 'C', 'C']","[499100, 501452, 502003, 502620, 503212, 503806, 504417, 504984, 505586, 506136, 506723, 507294, 507831, 508389, 508969, 509535, 510111, 510623, 511221, 511788, 512365]","[501145, 501686, 502267, 502898, 503486, 504066, 504674, 505266, 505833, 506401, 506973, 507505, 508059, 508697, 509245, 509818, 510374, 510922, 511473, 512054, 512602]","[499111, 499712, 500312, 500912, 501511, 502111, 502711, 503311, 503832, 504442, 505010, 505612, 506163, 506748, 507321, 507856, 508414, 508996, 509561, 510137, 510650, 511248, 511813, 512391]",21,R,ITM,1.1,
3,400,trial,0,18,18,18,trial,"['S', 'S', 'S', 'C', 'C', 'C', 'C', 'C', 'C', 'C', 'C', 'C', 'C', 'C', 'C', 'C', 'C', 'C', 'C']","[540045, 540441, 540827, 541209, 541614, 542011, 542376, 542750, 543136, 543558, 543937, 544326, 544680, 545071, 545462, 545831, 546215, 546610, 546997]","[540199, 540598, 540952, 541342, 541754, 542153, 542531, 542908, 543283, 543662, 544062, 544448, 544819, 545228, 545622, 545983, 546364, 546752, 547141]","[538060, 538461, 538861, 539261, 539661, 540061, 540462, 540861, 541235, 541639, 542036, 542402, 542776, 543163, 543584, 543963, 544352, 544706, 545096, 545487, 545857, 546241, 546635, 547022]",21,R,ITM,1.1,
6,600,trial,0,19,19,19,trial,"['S', 'S', 'S', 'S', 'C', 'C', 'C', 'C', 'C', 'C', 'C', 'C', 'C', 'C', 'C', 'C', 'C', 'C', 'C', 'C']","[555130, 555676, 556260, 556855, 557443, 557990, 558558, 559110, 559637, 560211, 560797, 561334, 561898, 562490, 562995, 563556, 564077, 564624, 565171, 565692]","[555289, 555908, 556485, 557102, 557644, 558222, 558790, 559331, 559882, 560459, 561031, 561583, 562129, 562698, 563277, 563815, 564363, 564901, 565402, 565954]","[552743, 553344, 553944, 554544, 555144, 555744, 556344, 556944, 557469, 558018, 558584, 559136, 559664, 560238, 560825, 561361, 561926, 562516, 563022, 563584, 564104, 564651, 565197, 565720]",21,R,ITM,1.1,
2,600,trial,0,20,20,20,trial,"['B', 'S', 'S', 'C', 'C', 'C', 'C', 'C', 'C', 'C', 'C', 'C', 'C', 'C', 'C', 'C', 'C', 'C', 'C']","[571215, 574810, 575357, 575960, 576535, 577106, 577679, 578279, 578872, 579446, 580038, 580624, 581177, 581758, 582338, 582916, 583488, 584038, 584613]","[573874, 575068, 575663, 576279, 576829, 577395, 577982, 578585, 579167, 579759, 580304, 580884, 581450, 582066, 582646, 583202, 583726, 584303]","[571229, 571827, 572428, 573028, 573628, 574228, 574827, 575428, 575987, 576562, 577134, 577707, 578307, 578899, 579473, 580066, 580651, 581203, 581786, 582365, 582942, 583515, 584065, 584640]",21,R,ITM,1.1,
5,400,trial,0,21,21,21,trial,"['B', 'S', 'S', 'C', 'C', 'C', 'C', 'C', 'C', 'C', 'C', 'C', 'C', 'C', 'C', 'C', 'C', 'C', 'C']","[589956, 590738, 591124, 593135, 593524, 593926, 594311, 594691, 595107, 595523, 595910, 596317, 596719, 597098, 597541, 597929, 598324, 598738, 599136]","[590580, 591019, 592847, 593298, 593700, 594075, 594430, 594860, 595261, 595645, 596065, 596471, 596847, 597266, 597691, 598103, 598496, 598923, 599311]","[589967, 590367, 590768, 591167, 591567, 591967, 592367, 592768, 593161, 593550, 593952, 594336, 594716, 595133, 595550, 595936, 596342, 596745, 597124, 597567, 597956, 598349, 598764, 599161]",21,R,ITM,1.1,
7,600,trial,0,22,22,22,trial,"['S', 'S', 'S', 'S', 'C', 'C', 'C', 'C', 'C', 'C', 'C', 'C', 'C', 'C', 'C', 'C', 'C', 'C', 'C', 'C']","[607109, 607680, 608286, 608893, 609488, 610070, 610654, 611241, 611779, 612363, 612933, 613512, 614109, 614667, 615247, 615827, 616377, 616965, 617533, 618106]","[607304, 607906, 608516, 609093, 609711, 610289, 610862, 611411, 611971, 612564, 613190, 613770, 614400, 614975, 615537, 616099, 616684, 617250, 617803, 618350]","[604727, 605326, 605926, 606526, 607126, 607726, 608326, 608926, 609516, 610097, 610680, 611267, 611807, 612389, 612961, 613539, 614135, 614693, 615274, 615854, 616403, 616991, 617560, 618133]",21,R,ITM,1.1,
4,400,trial,0,23,23,23,trial,"['B', 'C', 'C', 'C', 'C', 'C', 'C', 'C', 'C', 'C', 'C', 'C', 'C', 'C', 'C', 'C', 'C']","[623467, 626714, 627101, 627512, 627900, 628310, 628715, 629113, 629527, 629911, 630286, 630744, 631143, 631523, 631910, 632332, 632677]","[626338, 626880, 627277, 627677, 628086, 628494, 628899, 629297, 629666, 630066, 630466, 630912, 631293, 631690, 632057, 632444, 632811]","[623479, 623879, 624279, 624679, 625079, 625479, 625880, 626279, 626740, 627128, 627538, 627926, 628335, 628741, 629140, 629553, 629937, 630311, 630769, 631169, 631548, 631936, 632357, 632702]",21,R,ITM,1.1,
2,400,trial,0,24,24,24,trial,"['C', 'C', 'C', 'C', 'C', 'C', 'C', 'C', 'C', 'C', 'C', 'C', 'C', 'C', 'C', 'C']","[641605, 642019, 642411, 642792, 643178, 643581, 643976, 644397, 644814, 645183, 645594, 645997, 646361, 646777, 647179, 647578]","[641723, 642152, 642569, 642948, 643339, 643705, 644136, 644540, 644967, 645369, 645763, 646138, 646525, 646930, 647354, 647750]","[638416, 638815, 639215, 639617, 640016, 640416, 640816, 641216, 641633, 642046, 642438, 642820, 643205, 643608, 644003, 644423, 644842, 645211, 645620, 646024, 646387, 646805, 647205, 647606]",21,R,ITM,1.1,
6,400,trial,0,25,25,25,trial,"['C', 'C', 'C', 'C', 'C', 'C', 'C', 'C', 'C', 'C', 'C', 'C', 'C', 'C', 'C', 'C']","[656324, 656749, 657135, 657538, 657924, 658351, 658751, 659195, 659557, 659994, 660406, 660797, 661197, 661613, 662005, 662390]","[656486, 656898, 657316, 657720, 658120, 658529, 658984, 659362, 659788, 660169, 660585, 660993, 661420, 661782, 662159, 662540]","[653109, 653508, 653908, 654308, 654708, 655109, 655508, 655908, 656351, 656776, 657162, 657564, 657950, 658377, 658779, 659223, 659585, 660021, 660432, 660825, 661224, 661640, 662033, 662417]",21,R,ITM,1.1,
5,400,trial,0,26,26,26,trial,"['S', 'S', 'S', 'S', 'C', 'C', 'C', 'C', 'C', 'C', 'C', 'C', 'C', 'C', 'C', 'C', 'C', 'C', 'C', 'C']","[669401, 669811, 670188, 670588, 670976, 671367, 671783, 672183, 672568, 672968, 673371, 673764, 674155, 674545, 674951, 675361, 675740, 676133, 676534, 676917]","[669601, 669991, 670390, 670780, 671185, 671575, 671982, 672396, 672800, 673185, 673613, 673992, 674370, 674758, 675154, 675562, 675950, 676321, 676715, 677130]","[667857, 668256, 668656, 669057, 669456, 669856, 670257, 670656, 671002, 671392, 671809, 672209, 672593, 672995, 673396, 673789, 674181, 674571, 674976, 675387, 675766, 676159, 676559, 676943]",21,R,ITM,1.1,
7,400,trial,0,27,27,27,trial,"['S', 'S', 'S', 'S', 'C', 'C', 'C', 'C', 'C', 'C', 'C', 'C', 'C', 'C', 'C', 'C', 'C', 'C', 'C', 'C']","[684127, 684515, 684910, 685297, 685676, 686067, 686485, 686864, 687247, 687668, 688052, 688438, 688821, 689204, 689614, 690028, 690408, 690776, 691215, 691608]","[684257, 684684, 685090, 685484, 685855, 686235, 686654, 687045, 687426, 687855, 688244, 688625, 689000, 689382, 689782, 690197, 690569, 690952, 691374, 691772]","[682558, 682957, 683358, 683758, 684158, 684558, 684958, 685359, 685703, 686094, 686512, 686891, 687273, 687694, 688078, 688465, 688848, 689230, 689641, 690055, 690435, 690803, 691243, 691635]",21,R,ITM,1.1,
3,400,trial,0,28,28,28,trial,"['S', 'S', 'S', 'S', 'S', 'S', 'C', 'C', 'C', 'C', 'C', 'C', 'C', 'C', 'C', 'C', 'C', 'C', 'C', 'C', 'C', 'C']","[698075, 698483, 698877, 699265, 699650, 700047, 700446, 700800, 701221, 701632, 702019, 702448, 702835, 703255, 703668, 704093, 704468, 704886, 705297, 705682, 706065, 706483]","[698302, 698693, 699078, 699461, 699836, 700256, 700615, 701042, 701395, 701766, 702178, 702575, 703027, 703438, 703825, 704239, 704632, 705055, 705477, 705837, 706202, 706598]","[697309, 697709, 698109, 698509, 698909, 699310, 699709, 700109, 700472, 700825, 701247, 701658, 702045, 702474, 702861, 703281, 703693, 704118, 704494, 704912, 705323, 705708, 706092, 706508]",21,R,ITM,1.1,
3,600,trial,0,29,29,29,trial,"['S', 'S', 'S', 'S', 'S', 'S', 'C', 'C', 'C', 'C', 'C', 'C', 'C', 'C', 'C', 'C', 'C', 'C', 'C', 'C', 'C', 'C']","[713382, 713960, 714559, 715154, 715799, 716422, 717001, 717609, 718211, 718816, 719396, 720003, 720592, 721169, 721753, 722381, 722948, 723502, 724137, 724729, 725302, 725866]","[713592, 714207, 714841, 715424, 716047, 716642, 717265, 717880, 718476, 718993, 719605, 720226, 720790, 721378, 722018, 722610, 723187, 723817, 724378, 724959, 725480, 726129]","[712197, 712797, 713397, 713997, 714597, 715197, 715797, 716397, 717027, 717635, 718236, 718841, 719422, 720028, 720618, 721195, 721778, 722407, 722973, 723527, 724162, 724755, 725327, 725892]",21,R,ITM,1.1,
3,400,trial,0,30,30,30,trial,"['S', 'S', 'S', 'S', 'C', 'C', 'C', 'C', 'C', 'C', 'C', 'C', 'C', 'C', 'C', 'C', 'C', 'C', 'C', 'C']","[757256, 757640, 758039, 758437, 758850, 759216, 759633, 760033, 760424, 760829, 761216, 761623, 762029, 762431, 762812, 763228, 763612, 764012, 764385, 764808]","[757431, 757818, 758232, 758634, 759016, 759441, 759832, 760224, 760616, 760999, 761394, 761785, 762168, 762566, 762989, 763367, 763766, 764127, 764568, 764964]","[755681, 756081, 756482, 756881, 757281, 757682, 758082, 758482, 758876, 759241, 759659, 760058, 760450, 760855, 761241, 761649, 762054, 762457, 762838, 763253, 763637, 764038, 764410, 764833]",21,R,ITM,1.1,
2,400,trial,0,31,31,31,trial,"['S', 'S', 'S', 'S', 'C', 'C', 'C', 'C', 'C', 'C', 'C', 'C', 'C', 'C', 'C', 'C', 'C', 'C', 'C', 'C']","[772051, 772477, 772860, 773254, 773659, 774072, 774454, 774841, 775247, 775642, 776050, 776420, 776807, 777195, 777591, 777974, 778360, 778756, 779128, 779510]","[772245, 772653, 773065, 773441, 773867, 774258, 774651, 775079, 775479, 775857, 776249, 776606, 776992, 777431, 777797, 778185, 778616, 778973, 779377, 779756]","[770500, 770900, 771300, 771699, 772101, 772500, 772900, 773300, 773687, 774098, 774481, 774868, 775274, 775669, 776078, 776448, 776834, 777223, 777619, 778001, 778387, 778782, 779155, 779537]",21,R,ITM,1.1,
6,400,trial,0,32,32,32,trial,"['B', 'S', 'S', 'S', 'S', 'S', 'S', 'C', 'C', 'C', 'C', 'C', 'C', 'C', 'C', 'C', 'C', 'C', 'C', 'C', 'C', 'C', 'C']","[784865, 785650, 786037, 786488, 786861, 787254, 787663, 788045, 788452, 788831, 789228, 789607, 790017, 790425, 790819, 791235, 791624, 792025, 792415, 792807, 793179, 793603, 793999]","[785505, 785850, 786243, 786669, 787034, 787415, 787800, 788228, 788610, 788987, 789371, 789749, 790140, 790602, 790969, 791344, 791787, 792198, 792558, 792948, 793339, 793759, 794160]","[784877, 785277, 785677, 786077, 786478, 786877, 787277, 787678, 788072, 788478, 788857, 789255, 789634, 790043, 790453, 790847, 791262, 791651, 792051, 792441, 792835, 793206, 793629, 794027]",21,R,ITM,1.1,
4,400,trial,0,33,33,33,trial,"['B', 'S', 'S', 'S', 'S', 'S', 'S', 'C', 'C', 'C', 'C', 'C', 'C', 'C', 'C', 'C', 'C', 'C', 'C', 'C', 'C', 'C', 'C']","[799328, 800067, 800503, 800896, 801263, 801687, 802079, 802493, 802863, 803274, 803682, 804080, 804485, 804856, 805276, 805654, 806064, 806461, 806853, 807263, 807651, 808073, 808431]","[799907, 800294, 800697, 801098, 801514, 801911, 802269, 802676, 803070, 803505, 803899, 804300, 804705, 805114, 805483, 805878, 806273, 806678, 807077, 807476, 807880, 808253, 808679]","[799339, 799739, 800139, 800539, 800940, 801339, 801739, 802140, 802519, 802889, 803300, 803707, 804107, 804510, 804882, 805302, 805680, 806089, 806488, 806879, 807288, 807676, 808098, 808457]",21,R,ITM,1.1,
7,600,trial,0,34,34,34,trial,"['B', 'S', 'S', 'S', 'S', 'S', 'C', 'C', 'C', 'C', 'C', 'C', 'C', 'C', 'C', 'C', 'C', 'C', 'C', 'C', 'C', 'C']","[813790, 815542, 816179, 816753, 817358, 817948, 818528, 819098, 819678, 820262, 820849, 821424, 822009, 822558, 823153, 823708, 824300, 824852, 825435, 826004, 826592, 827146]","[814646, 815860, 816483, 817092, 817647, 818241, 818853, 819390, 819982, 820542, 821142, 821700, 822278, 822919, 823470, 824066, 824581, 825136, 825749, 826338, 826882]","[813802, 814402, 815002, 815602, 816202, 816802, 817402, 818002, 818555, 819125, 819705, 820289, 820877, 821450, 822036, 822585, 823181, 823736, 824327, 824880, 825461, 826032, 826619, 827172]",21,R,ITM,1.1,
5,400,trial,0,35,35,35,trial,"['B', 'S', 'S', 'S', 'S', 'S', 'S', 'C', 'C', 'C', 'C', 'C', 'C', 'C', 'C', 'C', 'C', 'C', 'C', 'C', 'C', 'C', 'C']","[832678, 833437, 833858, 834272, 834660, 835064, 835491, 835869, 836252, 836669, 837065, 837457, 837851, 838232, 838658, 839021, 839429, 839799, 840217, 840610, 840982, 841396, 841783]","[833260, 833688, 834107, 834472, 834881, 835298, 835685, 836071, 836442, 836851, 837255, 837636, 838044, 838465, 838837, 839248, 839595, 840007, 840363, 840757, 841155, 841562, 841944]","[832691, 833091, 833491, 833891, 834291, 834692, 835091, 835491, 835896, 836278, 836696, 837092, 837483, 837876, 838257, 838683, 839047, 839454, 839825, 840243, 840636, 841008, 841421, 841808]",21,R,ITM,1.1,
6,600,trial,0,36,36,36,trial,"['B', 'S', 'S', 'S', 'S', 'S', 'S', 'C', 'C', 'C', 'C', 'C', 'C', 'C', 'C', 'C', 'C', 'C', 'C', 'C', 'C', 'C', 'C']","[847180, 848375, 848950, 849572, 850170, 850753, 851334, 851908, 852482, 853052, 853623, 854226, 854772, 855324, 855871, 856433, 857000, 857572, 858096, 858667, 859201, 859750, 860350]","[848040, 848667, 849272, 849852, 850419, 851061, 851592, 852097, 852670, 853289, 853816, 854426, 854978, 855523, 856083, 856649, 857183, 857743, 858263, 858876, 859388, 859996, 860564]","[847194, 847793, 848392, 848992, 849592, 850192, 850792, 851392, 851936, 852509, 853079, 853651, 854254, 854799, 855351, 855899, 856461, 857028, 857600, 858123, 858693, 859229, 859777, 860378]",21,R,ITM,1.1,
3,600,trial,0,37,37,37,trial,"['S', 'S', 'S', 'S', 'S', 'S', 'C', 'C', 'C', 'C', 'C', 'C', 'C', 'C', 'C', 'C', 'C', 'C', 'C', 'C', 'C', 'C']","[867086, 867673, 868273, 868876, 869474, 870071, 870688, 871325, 871905, 872500, 873077, 873651, 874257, 874818, 875397, 876000, 876556, 877166, 877719, 878297, 878871, 879441]","[867314, 867975, 868560, 869191, 869809, 870388, 871027, 871623, 872260, 872815, 873373, 873986, 874544, 875118, 875731, 876311, 876923, 877459, 878010, 878577, 879179]","[865939, 866538, 867138, 867738, 868338, 868938, 869538, 870138, 870714, 871351, 871930, 872525, 873103, 873676, 874283, 874844, 875422, 876025, 876581, 877192, 877745, 878322, 878897, 879467]",21,R,ITM,1.1,
6,400,trial,0,38,38,38,trial,"['B', 'S', 'S', 'S', 'S', 'S', 'S', 'C', 'C', 'C', 'C', 'C', 'C', 'C', 'C', 'C', 'C', 'C', 'C', 'C', 'C', 'C', 'C']","[885161, 885944, 886352, 886736, 887135, 887530, 887946, 888352, 888743, 889156, 889525, 889950, 890351, 890740, 891136, 891538, 891936, 892334, 892744, 893123, 893539, 893931, 894332]","[885762, 886176, 886577, 886970, 887367, 887709, 888100, 888528, 888955, 889327, 889750, 890158, 890571, 890917, 891318, 891738, 892163, 892561, 892971, 893351, 893765, 894139, 894537]","[885175, 885574, 885975, 886374, 886774, 887175, 887574, 887974, 888379, 888771, 889184, 889551, 889976, 890378, 890768, 891162, 891566, 891964, 892361, 892771, 893150, 893566, 893958, 894360]",21,R,ITM,1.1,
2,400,trial,0,39,39,39,trial,"['B', 'S', 'S', 'S', 'S', 'S', 'S', 'C', 'C', 'C', 'C', 'C', 'C', 'C', 'C', 'C', 'C', 'C', 'C', 'C', 'C', 'C', 'C']","[899862, 900656, 901064, 901476, 901876, 902255, 902656, 903073, 903495, 903896, 904294, 904704, 905117, 905510, 905907, 906302, 906735, 907147, 907543, 907941, 908359, 908756, 909180]","[900471, 900904, 901300, 901723, 902118, 902477, 902887, 903305, 903702, 904099, 904524, 904942, 905371, 905759, 906146, 906577, 906976, 907359, 907763, 908180, 908593, 908998, 909368]","[899875, 900275, 900676, 901076, 901476, 901876, 902277, 902676, 903100, 903522, 903923, 904322, 904731, 905145, 905538, 905934, 906329, 906763, 907174, 907570, 907969, 908387, 908784, 909207]",21,R,ITM,1.1,
5,600,trial,0,40,40,40,trial,"['S', 'S', 'S', 'S', 'S', 'S', 'C', 'C', 'C', 'C', 'C', 'C', 'C', 'C', 'C', 'C', 'C', 'C', 'C', 'C', 'C', 'C']","[915945, 916543, 917202, 917770, 918403, 918985, 919609, 920238, 920830, 921423, 922008, 922599, 923202, 923797, 924398, 924974, 925557, 926146, 926769, 927338, 927949, 928561]","[916267, 916900, 917507, 918075, 918689, 919299, 919905, 920543, 921133, 921715, 922287, 922873, 923505, 924092, 924682, 925267, 925832, 926457, 927013, 927597, 928225, 928792]","[914803, 915402, 916002, 916602, 917202, 917803, 918403, 919003, 919634, 920263, 920856, 921449, 922034, 922626, 923228, 923823, 924424, 924999, 925583, 926172, 926794, 927365, 927975, 928587]",21,R,ITM,1.1,
2,600,trial,0,41,41,41,trial,"['B', 'S', 'S', 'S', 'S', 'S', 'S', 'C', 'C', 'C', 'C', 'C', 'C', 'C', 'C', 'C', 'C', 'C', 'C', 'C', 'C', 'C', 'C']","[933943, 935144, 935773, 936341, 936912, 937504, 938063, 938624, 939206, 939758, 940352, 940891, 941443, 942028, 942571, 943184, 943759, 944353, 944911, 945482, 946074, 946630, 947234]","[934767, 935454, 936034, 936619, 937146, 937758, 938319, 938910, 939500, 940150, 940605, 941210, 941703, 942262, 942820, 943408, 943964, 944524, 945116, 945723, 946304, 946836, 947401]","[933956, 934556, 935156, 935756, 936356, 936956, 937556, 938157, 938651, 939234, 939785, 940379, 940918, 941470, 942055, 942599, 943211, 943787, 944380, 944939, 945509, 946101, 946657, 947261]",21,R,ITM,1.1,
2,600,trial,0,42,42,42,trial,"['S', 'S', 'S', 'S', 'S', 'C', 'C', 'C', 'C', 'C', 'C', 'C', 'C', 'C', 'C', 'C', 'C', 'C', 'C', 'C', 'C']","[963147, 963755, 964356, 964981, 965581, 966151, 966744, 967361, 967947, 968532, 969107, 969678, 970243, 970845, 971432, 972005, 972577, 973156, 973736, 974289, 974837]","[963454, 964073, 964653, 965237, 965825, 966433, 967022, 967533, 968102, 968693, 969270, 969830, 970415, 971123, 971667, 972238, 972805, 973353, 973981, 974569]","[961381, 961981, 962580, 963181, 963781, 964380, 964981, 965580, 966178, 966770, 967389, 967974, 968560, 969134, 969705, 970270, 970871, 971460, 972033, 972605, 973182, 973764, 974317, 974865]",21,R,ITM,1.1,
3,400,trial,0,43,43,43,trial,"['B', 'S', 'S', 'S', 'C', 'C', 'C', 'C', 'C', 'C', 'C', 'C', 'C', 'C', 'C', 'C', 'C', 'C', 'C', 'C']","[980473, 982093, 982884, 983270, 983677, 984058, 984450, 984835, 985253, 985626, 986008, 986401, 986800, 987175, 987571, 987952, 988345, 988748, 989138, 989527]","[980847, 982259, 983064, 983451, 983861, 984226, 984607, 985012, 985405, 985781, 986191, 986572, 986942, 987333, 987750, 988114, 988519, 988939, 989342, 989769]","[980486, 980884, 981284, 981684, 982084, 982484, 982884, 983284, 983703, 984084, 984475, 984860, 985279, 985652, 986034, 986427, 986825, 987201, 987596, 987977, 988370, 988774, 989165, 989552]",21,R,ITM,1.1,
7,400,trial,0,44,44,44,trial,"['B', 'S', 'S', 'S', 'S', 'S', 'S', 'C', 'C', 'C', 'C', 'C', 'C', 'C', 'C', 'C', 'C', 'C', 'C', 'C', 'C', 'C', 'C']","[994827, 995599, 996004, 996412, 996814, 997209, 997592, 997983, 998351, 998760, 999133, 999538, 999892, 1000257, 1000650, 1001030, 1001423, 1001843, 1002222, 1002602, 1002989, 1003385, 1003756]","[995405, 995796, 996224, 996624, 997026, 997397, 997795, 998184, 998535, 998941, 999296, 999701, 1000054, 1000401, 1000792, 1001179, 1001563, 1001951, 1002352, 1002729, 1003128, 1003513, 1003890]","[994840, 995239, 995639, 996039, 996440, 996839, 997239, 997640, 998009, 998379, 998787, 999160, 999566, 999919, 1000284, 1000677, 1001057, 1001450, 1001871, 1002250, 1002630, 1003017, 1003413, 1003784]",21,R,ITM,1.1,
4,600,trial,0,45,45,45,trial,"['S', 'S', 'S', 'S', 'C', 'C', 'C', 'C', 'C', 'C', 'C', 'C', 'C', 'C', 'C', 'C', 'C', 'C', 'C', 'C']","[1011939, 1012508, 1013106, 1013698, 1014277, 1014905, 1015477, 1016086, 1016646, 1017243, 1017806, 1018398, 1018964, 1019582, 1020178, 1020763, 1021344, 1021912, 1022525, 1023096]","[1012201, 1012804, 1013386, 1013976, 1014555, 1015189, 1015790, 1016377, 1016991, 1017502, 1018113, 1018686, 1019303, 1019879, 1020474, 1021035, 1021594, 1022194, 1022761, 1023363]","[1009562, 1010161, 1010761, 1011361, 1011961, 1012561, 1013161, 1013762, 1014302, 1014931, 1015502, 1016112, 1016672, 1017269, 1017832, 1018424, 1018990, 1019608, 1020204, 1020788, 1021370, 1021937, 1022551, 1023122]",21,R,ITM,1.1,
6,600,trial,0,46,46,46,trial,"['B', 'S', 'S', 'S', 'S', 'S', 'S', 'C', 'C', 'C', 'C', 'C', 'C', 'C', 'C', 'C', 'C', 'C', 'C', 'C', 'C', 'C', 'C']","[1028541, 1029713, 1030342, 1030953, 1031511, 1032059, 1032675, 1033264, 1033830, 1034406, 1034968, 1035547, 1036095, 1036683, 1037272, 1037849, 1038384, 1038940, 1039513, 1040062, 1040658, 1041218, 1041779]","[1029386, 1030041, 1030650, 1031261, 1031814, 1032409, 1032999, 1033555, 1034125, 1034714, 1035258, 1035827, 1036432, 1037004, 1037557, 1038141, 1038683, 1039232, 1039818, 1040356, 1040939, 1041499]","[1028554, 1029153, 1029753, 1030353, 1030953, 1031554, 1032154, 1032754, 1033291, 1033857, 1034433, 1034995, 1035574, 1036123, 1036710, 1037298, 1037876, 1038410, 1038966, 1039540, 1040089, 1040686, 1041246, 1041806]",21,R,ITM,1.1,
5,600,trial,0,47,47,47,trial,"['B', 'S', 'S', 'S', 'S', 'S', 'S', 'C', 'C', 'C', 'C', 'C', 'C', 'C', 'C', 'C', 'C', 'C', 'C', 'C', 'C', 'C', 'C']","[1047085, 1048214, 1048854, 1049424, 1050007, 1050615, 1051216, 1051809, 1052404, 1052992, 1053559, 1054158, 1054760, 1055307, 1055934, 1056544, 1057141, 1057740, 1058327, 1058906, 1059484, 1060031, 1060622]","[1047951, 1048571, 1049146, 1049740, 1050323, 1050918, 1051523, 1052095, 1052670, 1053281, 1053818, 1054412, 1055004, 1055601, 1056226, 1056816, 1057405, 1058018, 1058616, 1059212, 1059745, 1060276]","[1047096, 1047696, 1048296, 1048896, 1049496, 1050096, 1050696, 1051296, 1051835, 1052430, 1053019, 1053586, 1054184, 1054786, 1055333, 1055960, 1056570, 1057167, 1057766, 1058354, 1058931, 1059510, 1060058, 1060647]",21,R,ITM,1.1,
7,600,trial,0,48,48,48,trial,"['B', 'S', 'S', 'S', 'S', 'S', 'S', 'C', 'C', 'C', 'C', 'C', 'C', 'C', 'C', 'C', 'C', 'C', 'C', 'C', 'C', 'C', 'C']","[1066185, 1067375, 1067962, 1068576, 1069169, 1069811, 1070370, 1070963, 1071554, 1072139, 1072741, 1073330, 1073915, 1074494, 1075057, 1075646, 1076218, 1076789, 1077367, 1077927, 1078545, 1079077, 1079648]","[1067080, 1067676, 1068269, 1068887, 1069503, 1070121, 1070694, 1071257, 1071843, 1072431, 1073029, 1073635, 1074253, 1074793, 1075357, 1075943, 1076543, 1077104, 1077653, 1078264, 1078800, 1079398]","[1066199, 1066798, 1067398, 1067998, 1068598, 1069198, 1069798, 1070398, 1070990, 1071581, 1072166, 1072768, 1073356, 1073943, 1074521, 1075084, 1075674, 1076245, 1076816, 1077394, 1077954, 1078573, 1079105, 1079674]",21,R,ITM,1.1,
7,400,trial,0,49,49,49,trial,"['S', 'S', 'S', 'S', 'C', 'C', 'C', 'C', 'C', 'C', 'C', 'C', 'C', 'C', 'C', 'C', 'C', 'C', 'C', 'C']","[1086912, 1087321, 1087721, 1088106, 1088533, 1088913, 1089337, 1089742, 1090118, 1090535, 1090955, 1091428, 1091827, 1092219, 1092606, 1092997, 1093407, 1093806, 1094208, 1094647]","[1087095, 1087551, 1087927, 1088284, 1088694, 1089117, 1089539, 1089895, 1090314, 1090725, 1091150, 1091608, 1092023, 1092422, 1092790, 1093212, 1093615, 1094019, 1094422, 1094832]","[1085352, 1085752, 1086152, 1086553, 1086952, 1087352, 1087752, 1088152, 1088561, 1088941, 1089363, 1089770, 1090145, 1090563, 1090982, 1091454, 1091854, 1092247, 1092634, 1093024, 1093435, 1093832, 1094236, 1094674]",21,R,ITM,1.1,
5,400,trial,0,50,50,50,trial,"['B', 'S', 'S', 'S', 'S', 'S', 'S', 'C', 'C', 'C', 'C', 'C', 'C', 'C', 'C', 'C', 'C', 'C', 'C', 'C', 'C', 'C', 'C']","[1100219, 1100991, 1101374, 1101784, 1102180, 1102585, 1102990, 1103368, 1103752, 1104151, 1104571, 1104947, 1105338, 1105730, 1106092, 1106470, 1106882, 1107245, 1107615, 1108004, 1108430, 1108789, 1109196]","[1100830, 1101229, 1101603, 1102012, 1102392, 1102819, 1103178, 1103584, 1103998, 1104406, 1104788, 1105189, 1105562, 1105934, 1106322, 1106695, 1107092, 1107440, 1107819, 1108241, 1108631, 1109021, 1109392]","[1100231, 1100631, 1101030, 1101430, 1101831, 1102231, 1102631, 1103031, 1103394, 1103777, 1104178, 1104598, 1104972, 1105363, 1105757, 1106117, 1106496, 1106908, 1107270, 1107641, 1108031, 1108456, 1108814, 1109222]",21,R,ITM,1.1,
3,600,trial,0,51,51,51,trial,"['B', 'S', 'S', 'S', 'S', 'S', 'S', 'C', 'C', 'C', 'C', 'C', 'C', 'C', 'C', 'C', 'C', 'C', 'C', 'C', 'C', 'C', 'C']","[1114672, 1115853, 1116448, 1117039, 1117622, 1118193, 1118796, 1119378, 1119942, 1120499, 1121073, 1121649, 1122236, 1122800, 1123381, 1123977, 1124543, 1125149, 1125690, 1126258, 1126815, 1127354, 1127959]","[1115469, 1116151, 1116807, 1117378, 1117872, 1118456, 1119075, 1119642, 1120225, 1120769, 1121334, 1121932, 1122472, 1123064, 1123636, 1124207, 1124785, 1125373, 1125962, 1126502, 1127048, 1127613, 1128156]","[1114684, 1115283, 1115883, 1116483, 1117083, 1117683, 1118283, 1118883, 1119404, 1119968, 1120525, 1121098, 1121675, 1122263, 1122826, 1123406, 1124002, 1124569, 1125175, 1125715, 1126284, 1126841, 1127379, 1127985]",21,R,ITM,1.1,
4,600,trial,0,52,52,52,trial,"['B', 'S', 'S', 'S', 'S', 'S', 'S', 'C', 'C', 'C', 'C', 'C', 'C', 'C', 'C', 'C', 'C', 'C', 'C', 'C', 'C', 'C', 'C']","[1133350, 1134471, 1135074, 1135654, 1136234, 1136838, 1137424, 1138030, 1138642, 1139213, 1139843, 1140404, 1141009, 1141570, 1142167, 1142773, 1143371, 1143938, 1144521, 1145091, 1145657, 1146230, 1146808]","[1134142, 1134727, 1135361, 1135944, 1136537, 1137098, 1137651, 1138257, 1138856, 1139414, 1140057, 1140663, 1141246, 1141850, 1142420, 1142989, 1143578, 1144180, 1144731, 1145317, 1145927, 1146507, 1147052]","[1133363, 1133962, 1134562, 1135162, 1135762, 1136362, 1136962, 1137562, 1138056, 1138668, 1139238, 1139869, 1140429, 1141035, 1141596, 1142193, 1142799, 1143398, 1143963, 1144547, 1145116, 1145683, 1146257, 1146833]",21,R,ITM,1.1,
4,400,trial,0,53,53,53,trial,"['B', 'S', 'C', 'C', 'C', 'C', 'C', 'C', 'C', 'C', 'C', 'C', 'C', 'C', 'C', 'C', 'C', 'C']","[1152150, 1153701, 1155323, 1155714, 1156106, 1156486, 1156869, 1157262, 1157642, 1158026, 1158436, 1158807, 1159211, 1159576, 1159987, 1160386, 1160740, 1161155]","[1153392, 1153856, 1155459, 1155892, 1156272, 1156663, 1157044, 1157453, 1157839, 1158205, 1158597, 1158979, 1159343, 1159709, 1160101, 1160519, 1160886, 1161276]","[1152161, 1152562, 1152962, 1153362, 1153762, 1154162, 1154563, 1154962, 1155350, 1155739, 1156131, 1156511, 1156895, 1157287, 1157667, 1158051, 1158462, 1158833, 1159236, 1159602, 1160012, 1160412, 1160766, 1161181]",21,R,ITM,1.1,
5,400,trial,0,54,54,54,trial,"['S', 'S', 'S', 'S', 'S', 'S', 'C', 'C', 'C', 'C', 'C', 'C', 'C', 'C', 'C', 'C', 'C', 'C', 'C', 'C', 'C', 'C']","[1169439, 1169858, 1170264, 1170643, 1171044, 1171431, 1171829, 1172206, 1172606, 1173008, 1173393, 1173774, 1174167, 1174540, 1174935, 1175310, 1175665, 1176050, 1176451, 1176815, 1177162, 1177553]","[1169626, 1170052, 1170442, 1170814, 1171215, 1171636, 1172014, 1172407, 1172811, 1173195, 1173572, 1173957, 1174322, 1174732, 1175118, 1175472, 1175874, 1176299, 1176640, 1176999, 1177344, 1177752]","[1168690, 1169088, 1169488, 1169888, 1170288, 1170689, 1171088, 1171488, 1171856, 1172233, 1172632, 1173033, 1173419, 1173799, 1174194, 1174565, 1174961, 1175335, 1175691, 1176076, 1176476, 1176841, 1177188, 1177579]",21,R,ITM,1.1,
7,600,trial,0,55,55,55,trial,"['S', 'S', 'S', 'S', 'S', 'S', 'C', 'C', 'C', 'C', 'C', 'C', 'C', 'C', 'C', 'C', 'C', 'C', 'C', 'C', 'C', 'C']","[1184316, 1184926, 1185525, 1186131, 1186756, 1187288, 1187898, 1188511, 1189079, 1189689, 1190275, 1190855, 1191422, 1191987, 1192576, 1193155, 1193741, 1194321, 1194893, 1195460, 1196051, 1196615]","[1184594, 1185197, 1185806, 1186406, 1186980, 1187566, 1188167, 1188776, 1189373, 1189942, 1190508, 1191117, 1191686, 1192258, 1192836, 1193437, 1193997, 1194584, 1195170, 1195799, 1196323]","[1183126, 1183725, 1184325, 1184925, 1185525, 1186125, 1186725, 1187325, 1187926, 1188539, 1189106, 1189716, 1190301, 1190882, 1191450, 1192013, 1192603, 1193182, 1193767, 1194348, 1194919, 1195488, 1196079, 1196643]",21,R,ITM,1.1,
3,400,trial,0,56,56,56,trial,"['B', 'S', 'S', 'S', 'S', 'C', 'C', 'C', 'C', 'C', 'C', 'C', 'C', 'C', 'C', 'C', 'C', 'C', 'C', 'C', 'C']","[1202380, 1203924, 1204334, 1204759, 1205182, 1205562, 1205981, 1206379, 1206780, 1207171, 1207583, 1207985, 1208372, 1208761, 1209174, 1209575, 1209963, 1210373, 1210755, 1211158, 1211546]","[1203635, 1204071, 1204493, 1204914, 1205366, 1205768, 1206183, 1206594, 1206974, 1207375, 1207784, 1208170, 1208551, 1208951, 1209342, 1209755, 1210123, 1210524, 1210923, 1211336, 1211715]","[1202392, 1202791, 1203191, 1203591, 1203991, 1204391, 1204791, 1205191, 1205587, 1206006, 1206405, 1206806, 1207196, 1207609, 1208010, 1208397, 1208786, 1209199, 1209601, 1209989, 1210398, 1210780, 1211184, 1211572]",21,R,ITM,1.1,
6,400,trial,0,57,57,57,trial,"['S', 'S', 'S', 'S', 'S', 'S', 'C', 'C', 'C', 'C', 'C', 'C', 'C', 'C', 'C', 'C', 'C', 'C', 'C', 'C', 'C', 'C']","[1217649, 1218071, 1218481, 1218874, 1219268, 1219665, 1220074, 1220474, 1220858, 1221259, 1221677, 1222066, 1222465, 1222872, 1223283, 1223687, 1224053, 1224461, 1224865, 1225248, 1225653, 1226070]","[1217838, 1218280, 1218683, 1219034, 1219443, 1219840, 1220198, 1220627, 1220998, 1221407, 1221832, 1222201, 1222611, 1223005, 1223413, 1223795, 1224181, 1224598, 1224982, 1225359, 1225768, 1226203]","[1216920, 1217319, 1217719, 1218119, 1218520, 1218919, 1219319, 1219720, 1220101, 1220501, 1220885, 1221285, 1221703, 1222092, 1222492, 1222899, 1223310, 1223713, 1224081, 1224487, 1224892, 1225275, 1225679, 1226097]",21,R,ITM,1.1,
4,600,trial,0,58,58,58,trial,"['S', 'S', 'S', 'S', 'S', 'S', 'C', 'C', 'C', 'C', 'C', 'C', 'C', 'C', 'C', 'C', 'C', 'C', 'C', 'C', 'C', 'C']","[1232966, 1233520, 1234113, 1234726, 1235347, 1235880, 1236508, 1237105, 1237691, 1238256, 1238834, 1239397, 1239926, 1240505, 1241064, 1241638, 1242243, 1242789, 1243351, 1243926, 1244498, 1245074]","[1233197, 1233761, 1234354, 1234937, 1235524, 1236079, 1236671, 1237278, 1237898, 1238403, 1238994, 1239549, 1240123, 1240698, 1241230, 1241863, 1242477, 1242993, 1243553, 1244080, 1244684, 1245230]","[1231812, 1232411, 1233011, 1233611, 1234211, 1234811, 1235411, 1236012, 1236535, 1237132, 1237716, 1238282, 1238859, 1239422, 1239952, 1240530, 1241090, 1241664, 1242269, 1242816, 1243377, 1243952, 1244524, 1245101]",21,R,ITM,1.1,
7,600,trial,0,59,59,59,trial,"['B', 'S', 'S', 'S', 'S', 'S', 'S', 'C', 'C', 'C', 'C', 'C', 'C', 'C', 'C', 'C', 'C', 'C', 'C', 'C', 'C', 'C', 'C']","[1250671, 1251819, 1252396, 1253019, 1253605, 1254256, 1254859, 1255473, 1256067, 1256682, 1257235, 1257842, 1258419, 1259029, 1259620, 1260207, 1260789, 1261329, 1261907, 1262466, 1263059, 1263616, 1264191]","[1251450, 1252047, 1252682, 1253248, 1253841, 1254506, 1255077, 1255736, 1256295, 1256899, 1257500, 1258052, 1258618, 1259270, 1259858, 1260432, 1261016, 1261578, 1262114, 1262731, 1263280, 1263830, 1264444]","[1250684, 1251283, 1251884, 1252484, 1253084, 1253683, 1254283, 1254883, 1255499, 1256093, 1256709, 1257262, 1257869, 1258445, 1259056, 1259646, 1260233, 1260816, 1261356, 1261934, 1262493, 1263087, 1263642, 1264219]",21,R,ITM,1.1,
7,400,trial,0,60,60,60,trial,"['B', 'S', 'S', 'S', 'S', 'C', 'C', 'C', 'C', 'C', 'C', 'C', 'C', 'C', 'C', 'C', 'C', 'C', 'C', 'C', 'C']","[1269659, 1271212, 1271641, 1272040, 1272453, 1272873, 1273264, 1273714, 1274136, 1274527, 1274907, 1275291, 1275726, 1276187, 1276617, 1277030, 1277459, 1277900, 1278325, 1278766, 1279165]","[1270933, 1271339, 1271810, 1272178, 1272613, 1273012, 1273419, 1273850, 1274265, 1274691, 1275028, 1275493, 1275908, 1276361, 1276775, 1277190, 1277624, 1278069, 1278502, 1278923, 1279289]","[1269672, 1270071, 1270471, 1270872, 1271271, 1271671, 1272072, 1272472, 1272901, 1273291, 1273741, 1274164, 1274555, 1274934, 1275318, 1275753, 1276214, 1276645, 1277057, 1277486, 1277928, 1278352, 1278792, 1279193]",21,R,ITM,1.1,
5,600,trial,0,61,61,61,trial,"['S', 'S', 'S', 'S', 'S', 'S', 'C', 'C', 'C', 'C', 'C', 'C', 'C', 'C', 'C', 'C', 'C', 'C', 'C', 'C', 'C', 'C']","[1285723, 1286325, 1286930, 1287487, 1288058, 1288690, 1289278, 1289864, 1290438, 1291066, 1291635, 1292229, 1292820, 1293405, 1293973, 1294564, 1295136, 1295720, 1296315, 1296887, 1297471, 1298024]","[1285981, 1286586, 1287194, 1287770, 1288369, 1289000, 1289582, 1290165, 1290753, 1291339, 1291954, 1292531, 1293118, 1293692, 1294264, 1294823, 1295410, 1296005, 1296589, 1297182, 1297757]","[1284517, 1285117, 1285718, 1286318, 1286918, 1287517, 1288117, 1288717, 1289304, 1289889, 1290464, 1291091, 1291661, 1292256, 1292846, 1293430, 1294000, 1294589, 1295162, 1295747, 1296342, 1296913, 1297497, 1298050]",21,R,ITM,1.1,
3,600,trial,0,62,62,62,trial,"['B', 'S', 'S', 'S', 'S', 'S', 'S', 'C', 'C', 'C', 'C', 'C', 'C', 'C', 'C', 'C', 'C', 'C', 'C', 'C', 'C', 'C', 'C']","[1303728, 1304898, 1305523, 1306109, 1306740, 1307312, 1307881, 1308454, 1309126, 1309692, 1310266, 1310865, 1311411, 1311951, 1312509, 1313099, 1313652, 1314219, 1314787, 1315342, 1315898, 1316493, 1317017]","[1304526, 1305230, 1305811, 1306417, 1307039, 1307616, 1308193, 1308735, 1309388, 1309959, 1310538, 1311112, 1311683, 1312241, 1312814, 1313358, 1313940, 1314505, 1315045, 1315621, 1316172, 1316747]","[1303739, 1304339, 1304939, 1305539, 1306139, 1306739, 1307339, 1307939, 1308480, 1309152, 1309718, 1310291, 1310891, 1311436, 1311977, 1312535, 1313125, 1313678, 1314244, 1314812, 1315367, 1315923, 1316518, 1317043]",21,R,ITM,1.1,
2,400,trial,0,63,63,63,trial,"['S', 'S', 'S', 'S', 'C', 'C', 'C', 'C', 'C', 'C', 'C', 'C', 'C', 'C', 'C', 'C', 'C', 'C', 'C', 'C']","[1324267, 1324678, 1325083, 1325483, 1325893, 1326275, 1326679, 1327069, 1327447, 1327861, 1328257, 1328627, 1329031, 1329467, 1329866, 1330262, 1330663, 1331041, 1331424, 1331821]","[1324396, 1324844, 1325255, 1325678, 1326023, 1326426, 1326804, 1327217, 1327588, 1327982, 1328347, 1328749, 1329164, 1329572, 1329968, 1330369, 1330755, 1331129, 1331529, 1331911]","[1322707, 1323107, 1323507, 1323907, 1324307, 1324707, 1325108, 1325507, 1325921, 1326303, 1326706, 1327096, 1327474, 1327888, 1328283, 1328654, 1329057, 1329495, 1329894, 1330289, 1330690, 1331068, 1331450, 1331848]",21,R,ITM,1.1,
4,600,trial,0,64,64,64,trial,"['S', 'S', 'S', 'S', 'C', 'C', 'C', 'C', 'C', 'C', 'C', 'C', 'C', 'C', 'C', 'C', 'C', 'C', 'C', 'C']","[1339855, 1340434, 1340992, 1341554, 1342144, 1342724, 1343308, 1343861, 1344463, 1344993, 1345556, 1346129, 1346706, 1347271, 1347792, 1348368, 1348907, 1349475, 1350009, 1350564]","[1340046, 1340662, 1341235, 1341797, 1342322, 1342964, 1343546, 1344051, 1344641, 1345229, 1345798, 1346377, 1346934, 1347484, 1348054, 1348578, 1349146, 1349671, 1350253, 1350805]","[1337470, 1338071, 1338671, 1339271, 1339871, 1340471, 1341071, 1341671, 1342170, 1342749, 1343334, 1343887, 1344489, 1345019, 1345582, 1346156, 1346732, 1347297, 1347818, 1348393, 1348932, 1349500, 1350035, 1350591]",21,R,ITM,1.1,
3,600,trial,0,65,65,65,trial,"['S', 'S', 'S', 'S', 'S', 'S', 'C', 'C', 'C', 'C', 'C', 'C', 'C', 'C', 'C', 'C', 'C', 'C', 'C', 'C', 'C', 'C']","[1357225, 1357861, 1358429, 1359030, 1359604, 1360238, 1360841, 1361419, 1361997, 1362574, 1363169, 1363762, 1364354, 1364928, 1365535, 1366138, 1366710, 1367301, 1367895, 1368464, 1369059, 1369614]","[1357476, 1358109, 1358690, 1359280, 1359893, 1360492, 1361104, 1361662, 1362256, 1362841, 1363422, 1363988, 1364613, 1365207, 1365835, 1366410, 1366988, 1367547, 1368092, 1368677, 1369210, 1369845]","[1356094, 1356693, 1357293, 1357893, 1358493, 1359093, 1359693, 1360293, 1360867, 1361444, 1362023, 1362599, 1363194, 1363787, 1364379, 1364954, 1365561, 1366164, 1366735, 1367326, 1367920, 1368489, 1369084, 1369639]",21,R,ITM,1.1,
6,400,trial,0,66,66,66,trial,"['S', 'S', 'S', 'S', 'S', 'S', 'C', 'C', 'C', 'C', 'C', 'C', 'C', 'C', 'C', 'C', 'C', 'C', 'C', 'C', 'C', 'C']","[1375832, 1376237, 1376619, 1377003, 1377418, 1377804, 1378213, 1378610, 1379010, 1379389, 1379831, 1380189, 1380576, 1381001, 1381440, 1381826, 1382231, 1382616, 1383054, 1383443, 1383861, 1384271]","[1376024, 1376422, 1376809, 1377191, 1377575, 1377978, 1378387, 1378754, 1379159, 1379565, 1379958, 1380358, 1380732, 1381129, 1381581, 1381997, 1382363, 1382784, 1383202, 1383562, 1383975, 1384427]","[1375053, 1375454, 1375854, 1376254, 1376654, 1377054, 1377455, 1377854, 1378240, 1378636, 1379037, 1379416, 1379859, 1380216, 1380603, 1381028, 1381468, 1381853, 1382257, 1382643, 1383081, 1383470, 1383887, 1384299]",21,R,ITM,1.1,
5,400,trial,0,67,67,67,trial,"['B', 'S', 'S', 'S', 'S', 'C', 'C', 'C', 'C', 'C', 'C', 'C', 'C', 'C', 'C', 'C', 'C', 'C', 'C', 'C', 'C']","[1390020, 1391631, 1392003, 1392432, 1392831, 1393212, 1393636, 1394018, 1394408, 1394830, 1395231, 1395625, 1396033, 1396425, 1396814, 1397239, 1397617, 1397997, 1398396, 1398815, 1399201]","[1391240, 1391774, 1392192, 1392626, 1393010, 1393429, 1393797, 1394204, 1394625, 1395005, 1395394, 1395800, 1396189, 1396586, 1396967, 1397405, 1397797, 1398155, 1398602, 1398979, 1399392]","[1390032, 1390431, 1390831, 1391232, 1391631, 1392031, 1392432, 1392831, 1393238, 1393661, 1394044, 1394435, 1394855, 1395257, 1395651, 1396059, 1396451, 1396840, 1397265, 1397643, 1398023, 1398422, 1398841, 1399228]",21,R,ITM,1.1,
3,400,trial,0,68,68,68,trial,"['S', 'S', 'S', 'S', 'C', 'C', 'C', 'C', 'C', 'C', 'C', 'C', 'C', 'C', 'C', 'C', 'C', 'C', 'C', 'C']","[1406164, 1406582, 1406992, 1407400, 1407783, 1408169, 1408545, 1408970, 1409359, 1409770, 1410162, 1410548, 1410931, 1411323, 1411740, 1412125, 1412531, 1412956, 1413320, 1413708]","[1406332, 1406736, 1407171, 1407576, 1407939, 1408324, 1408711, 1409123, 1409520, 1409913, 1410306, 1410679, 1411072, 1411470, 1411857, 1412270, 1412668, 1413042, 1413430, 1413828]","[1404601, 1405000, 1405401, 1405800, 1406200, 1406600, 1407000, 1407400, 1407809, 1408195, 1408571, 1408996, 1409385, 1409796, 1410188, 1410574, 1410957, 1411349, 1411766, 1412151, 1412556, 1412981, 1413346, 1413734]",21,R,ITM,1.1,
4,400,trial,0,69,69,69,trial,"['S', 'S', 'S', 'S', 'C', 'C', 'C', 'C', 'C', 'C', 'C', 'C', 'C', 'C', 'C', 'C', 'C', 'C', 'C', 'C']","[1420780, 1421214, 1421603, 1421975, 1422393, 1422780, 1423171, 1423562, 1423937, 1424323, 1424721, 1425108, 1425499, 1425900, 1426293, 1426676, 1427053, 1427419, 1427807, 1428214]","[1420952, 1421349, 1421766, 1422155, 1422557, 1422961, 1423366, 1423720, 1424115, 1424496, 1424872, 1425249, 1425636, 1426064, 1426420, 1426807, 1427169, 1427546, 1427917, 1428335]","[1419236, 1419635, 1420036, 1420435, 1420835, 1421235, 1421635, 1422035, 1422418, 1422806, 1423197, 1423588, 1423963, 1424349, 1424747, 1425134, 1425524, 1425926, 1426320, 1426702, 1427080, 1427444, 1427832, 1428240]",21,R,ITM,1.1,
6,600,trial,0,70,70,70,trial,"['S', 'S', 'S', 'S', 'C', 'C', 'C', 'C', 'C', 'C', 'C', 'C', 'C', 'C', 'C', 'C', 'C', 'C', 'C', 'C']","[1436015, 1436622, 1437200, 1437774, 1438346, 1438937, 1439489, 1440064, 1440629, 1441218, 1441742, 1442323, 1442861, 1443425, 1443955, 1444491, 1445068, 1445630, 1446144, 1446702]","[1436249, 1436849, 1437471, 1438067, 1438612, 1439190, 1439756, 1440322, 1440900, 1441460, 1442014, 1442564, 1443126, 1443662, 1444186, 1444722, 1445270, 1445819, 1446401, 1446938]","[1433645, 1434244, 1434844, 1435443, 1436043, 1436643, 1437243, 1437843, 1438372, 1438963, 1439515, 1440091, 1440656, 1441245, 1441769, 1442350, 1442888, 1443452, 1443983, 1444517, 1445095, 1445658, 1446170, 1446728]",21,R,ITM,1.1,
5,600,trial,0,71,71,71,trial,"['B', 'S', 'S', 'S', 'S', 'C', 'C', 'C', 'C', 'C', 'C', 'C', 'C', 'C', 'C', 'C', 'C', 'C', 'C', 'C', 'C']","[1452184, 1454538, 1455125, 1455689, 1456287, 1456884, 1457513, 1458072, 1458659, 1459252, 1459802, 1460383, 1460950, 1461520, 1462080, 1462678, 1463218, 1463793, 1464383, 1464952, 1465516]","[1454203, 1454812, 1455392, 1455983, 1456591, 1457178, 1457740, 1458342, 1458915, 1459487, 1460061, 1460632, 1461222, 1461793, 1462340, 1462896, 1463476, 1464064, 1464631, 1465228, 1465754]","[1452196, 1452795, 1453395, 1453996, 1454596, 1455196, 1455795, 1456395, 1456910, 1457539, 1458098, 1458684, 1459277, 1459828, 1460409, 1460975, 1461545, 1462107, 1462704, 1463243, 1463819, 1464409, 1464978, 1465541]",21,R,ITM,1.1,
4,400,trial,0,72,72,72,trial,"['B', 'C', 'C', 'C', 'C', 'C', 'C', 'C', 'C', 'C', 'C', 'C', 'C', 'C', 'C', 'C', 'C']","[1471016, 1474179, 1474582, 1474963, 1475362, 1475758, 1476120, 1476545, 1476899, 1477293, 1477705, 1478073, 1478481, 1478879, 1479287, 1479672, 1480056]","[1473888, 1474365, 1474766, 1475129, 1475548, 1475933, 1476321, 1476705, 1477060, 1477505, 1477882, 1478267, 1478636, 1479061, 1479446, 1479827, 1480224]","[1471029, 1471428, 1471828, 1472228, 1472628, 1473029, 1473428, 1473828, 1474204, 1474608, 1474989, 1475388, 1475783, 1476147, 1476571, 1476925, 1477318, 1477731, 1478098, 1478507, 1478904, 1479313, 1479698, 1480082]",21,R,ITM,1.1,
7,400,trial,0,73,73,73,trial,"['S', 'S', 'S', 'S', 'C', 'C', 'C', 'C', 'C', 'C', 'C', 'C', 'C', 'C', 'C', 'C', 'C', 'C', 'C', 'C']","[1487236, 1487639, 1488031, 1488417, 1488824, 1489227, 1489612, 1490013, 1490415, 1490809, 1491195, 1491589, 1491975, 1492368, 1492768, 1493160, 1493573, 1493952, 1494381, 1494775]","[1487400, 1487790, 1488216, 1488587, 1488995, 1489389, 1489801, 1490195, 1490603, 1491017, 1491396, 1491769, 1492184, 1492570, 1492954, 1493383, 1493790, 1494151, 1494585, 1494955]","[1485650, 1486050, 1486450, 1486851, 1487250, 1487650, 1488051, 1488451, 1488850, 1489255, 1489640, 1490039, 1490442, 1490837, 1491223, 1491616, 1492002, 1492396, 1492795, 1493187, 1493600, 1493980, 1494408, 1494802]",21,R,ITM,1.1,
2,600,trial,0,74,74,74,trial,"['C', 'C', 'C', 'C', 'C', 'C', 'C', 'C', 'C', 'C', 'C', 'C', 'C', 'C', 'C', 'C']","[1505278, 1505839, 1506406, 1506979, 1507547, 1508135, 1508705, 1509229, 1509827, 1510377, 1510948, 1511527, 1512092, 1512665, 1513218, 1513801]","[1505486, 1506072, 1506639, 1507206, 1507773, 1508338, 1508942, 1509449, 1510029, 1510576, 1511166, 1511702, 1512284, 1512835, 1513394, 1513984]","[1500529, 1501129, 1501728, 1502328, 1502929, 1503529, 1504130, 1504730, 1505304, 1505866, 1506433, 1507007, 1507573, 1508163, 1508731, 1509256, 1509854, 1510405, 1510976, 1511554, 1512120, 1512692, 1513244, 1513828]",21,R,ITM,1.1,
2,600,trial,0,75,75,75,trial,"['B', 'S', 'S', 'S', 'S', 'C', 'C', 'C', 'C', 'C', 'C', 'C', 'C', 'C', 'C', 'C', 'C', 'C', 'C', 'C', 'C']","[1519430, 1521792, 1522408, 1522976, 1523620, 1524154, 1524730, 1525328, 1525855, 1526451, 1527041, 1527608, 1528210, 1528783, 1529346, 1529918, 1530460, 1531053, 1531644, 1532222, 1532782]","[1521393, 1522041, 1522698, 1523257, 1523825, 1524423, 1525010, 1525587, 1526132, 1526702, 1527256, 1527877, 1528448, 1528971, 1529523, 1530152, 1530705, 1531314, 1531889, 1532421]","[1519443, 1520044, 1520644, 1521244, 1521843, 1522444, 1523044, 1523644, 1524182, 1524758, 1525356, 1525882, 1526478, 1527068, 1527635, 1528237, 1528810, 1529373, 1529946, 1530486, 1531079, 1531671, 1532249, 1532810]",21,R,ITM,1.1,
2,400,trial,0,76,76,76,trial,"['B', 'C', 'C', 'C', 'C', 'C', 'C', 'C', 'C', 'C', 'C', 'C', 'C', 'C', 'C', 'C', 'C']","[1538116, 1541306, 1541702, 1542107, 1542503, 1542912, 1543316, 1543712, 1544100, 1544534, 1544947, 1545335, 1545702, 1546097, 1546474, 1546900, 1547259]","[1538488, 1541465, 1541859, 1542275, 1542677, 1543067, 1543472, 1543894, 1544270, 1544671, 1545066, 1545456, 1545846, 1546238, 1546611, 1547024, 1547378]","[1538129, 1538529, 1538929, 1539330, 1539729, 1540129, 1540530, 1540929, 1541332, 1541730, 1542133, 1542531, 1542939, 1543343, 1543740, 1544128, 1544561, 1544975, 1545363, 1545730, 1546124, 1546502, 1546928, 1547287]",21,R,ITM,1.1,
6,600,trial,0,77,77,77,trial,"['S', 'S', 'S', 'S', 'C', 'C', 'C', 'C', 'C', 'C', 'C', 'C', 'C', 'C', 'C', 'C', 'C', 'C', 'C', 'C']","[1555308, 1555861, 1556459, 1557021, 1557602, 1558209, 1558755, 1559334, 1559896, 1560461, 1561023, 1561566, 1562106, 1562675, 1563237, 1563779, 1564354, 1564896, 1565469, 1566019]","[1555571, 1556141, 1556709, 1557285, 1557869, 1558453, 1559012, 1559587, 1560137, 1560706, 1561265, 1561820, 1562396, 1562938, 1563498, 1564079, 1564625, 1565162, 1565719]","[1552921, 1553520, 1554120, 1554720, 1555320, 1555920, 1556520, 1557121, 1557628, 1558237, 1558782, 1559362, 1559923, 1560488, 1561051, 1561592, 1562134, 1562701, 1563265, 1563805, 1564381, 1564922, 1565497, 1566046]",21,R,ITM,1.1,
4,600,trial,0,78,78,78,trial,"['B', 'S', 'S', 'S', 'S', 'S', 'S', 'C', 'C', 'C', 'C', 'C', 'C', 'C', 'C', 'C', 'C', 'C', 'C', 'C', 'C', 'C', 'C']","[1571333, 1572492, 1573061, 1573672, 1574257, 1574881, 1575468, 1576070, 1576659, 1577217, 1577777, 1578359, 1578934, 1579498, 1580082, 1580646, 1581219, 1581774, 1582352, 1582902, 1583475, 1584057, 1584589]","[1572086, 1572734, 1573334, 1573923, 1574540, 1575135, 1575749, 1576320, 1576915, 1577493, 1578056, 1578608, 1579202, 1579778, 1580352, 1580912, 1581466, 1582040, 1582584, 1583157, 1583711, 1584305, 1584798]","[1571344, 1571944, 1572544, 1573144, 1573744, 1574344, 1574944, 1575544, 1576095, 1576685, 1577242, 1577802, 1578386, 1578959, 1579524, 1580108, 1580672, 1581245, 1581800, 1582377, 1582927, 1583501, 1584082, 1584615]",21,R,ITM,1.1,
5,600,trial,0,79,79,79,trial,"['B', 'S', 'S', 'S', 'S', 'C', 'C', 'C', 'C', 'C', 'C', 'C', 'C', 'C', 'C', 'C', 'C', 'C', 'C', 'C', 'C']","[1590333, 1592713, 1593317, 1593905, 1594488, 1595097, 1595684, 1596261, 1596808, 1597375, 1597987, 1598550, 1599121, 1599705, 1600268, 1600841, 1601405, 1601945, 1602532, 1603090, 1603637]","[1592385, 1592984, 1593585, 1594175, 1594769, 1595357, 1595944, 1596492, 1597096, 1597679, 1598231, 1598830, 1599388, 1599958, 1600530, 1601098, 1601652, 1602213, 1602760, 1603349, 1603892]","[1590345, 1590944, 1591544, 1592144, 1592744, 1593345, 1593945, 1594545, 1595122, 1595710, 1596286, 1596833, 1597401, 1598013, 1598575, 1599147, 1599730, 1600293, 1600867, 1601431, 1601971, 1602558, 1603116, 1603662]",21,R,ITM,1.1,
7,600,trial,0,80,80,80,trial,"['S', 'S', 'S', 'S', 'S', 'S', 'C', 'C', 'C', 'C', 'C', 'C', 'C', 'C', 'C', 'C', 'C', 'C', 'C', 'C', 'C', 'C']","[1610585, 1611173, 1611784, 1612346, 1612965, 1613598, 1614171, 1614757, 1615348, 1615910, 1616477, 1617040, 1617599, 1618196, 1618761, 1619309, 1619864, 1620417, 1620989, 1621565, 1622110, 1622690]","[1610865, 1611470, 1612086, 1612659, 1613245, 1613892, 1614516, 1615109, 1615625, 1616203, 1616791, 1617330, 1617893, 1618470, 1619024, 1619603, 1620193, 1620745, 1621340, 1621879, 1622467]","[1609418, 1610017, 1610617, 1611217, 1611817, 1612418, 1613018, 1613618, 1614198, 1614785, 1615376, 1615937, 1616504, 1617067, 1617627, 1618223, 1618788, 1619337, 1619891, 1620445, 1621016, 1621592, 1622136, 1622717]",21,R,ITM,1.1,
7,600,trial,0,81,81,81,trial,"['B', 'S', 'S', 'S', 'S', 'S', 'S', 'S', 'S', 'C', 'C', 'C', 'C', 'C', 'C', 'C', 'C', 'C', 'C', 'C', 'C', 'C', 'C', 'C', 'C']","[1628443, 1628962, 1629062, 1629629, 1630233, 1630840, 1631494, 1632011, 1632632, 1633167, 1633765, 1634313, 1634874, 1635442, 1636004, 1636570, 1637146, 1637696, 1638228, 1638837, 1639374, 1639908, 1640468, 1640985, 1641522]","[1628717, 1628982, 1629389, 1629935, 1630527, 1631162, 1631736, 1632359, 1632883, 1633494, 1634064, 1634624, 1635123, 1635717, 1636238, 1636848, 1637411, 1637969, 1638566, 1639107, 1639670, 1640240, 1640717, 1641271]","[1628456, 1629056, 1629656, 1630256, 1630856, 1631456, 1632056, 1632656, 1633195, 1633793, 1634339, 1634900, 1635470, 1636031, 1636597, 1637174, 1637723, 1638256, 1638863, 1639401, 1639934, 1640495, 1641012, 1641549]",21,R,ITM,1.1,
3,400,trial,0,82,82,82,trial,"['B', 'S', 'S', 'S', 'S', 'C', 'C', 'C', 'C', 'C', 'C', 'C', 'C', 'C', 'C', 'C', 'C', 'C', 'C', 'C', 'C']","[1647255, 1648817, 1649267, 1649653, 1650055, 1650433, 1650839, 1651232, 1651632, 1652036, 1652414, 1652841, 1653239, 1653648, 1654047, 1654448, 1654825, 1655228, 1655601, 1656031, 1656430]","[1648466, 1649030, 1649447, 1649839, 1650245, 1650627, 1651011, 1651409, 1651805, 1652197, 1652602, 1653015, 1653429, 1653827, 1654224, 1654617, 1654969, 1655388, 1655755, 1656183, 1656594]","[1647267, 1647666, 1648066, 1648466, 1648866, 1649266, 1649667, 1650066, 1650458, 1650865, 1651258, 1651657, 1652062, 1652440, 1652867, 1653265, 1653673, 1654073, 1654473, 1654851, 1655254, 1655626, 1656056, 1656456]",21,R,ITM,1.1,
2,400,trial,0,83,83,83,trial,"['S', 'S', 'S', 'S', 'C', 'C', 'C', 'C', 'C', 'C', 'C', 'C', 'C', 'C', 'C', 'C', 'C', 'C', 'C', 'C']","[1663748, 1664145, 1664526, 1664927, 1665323, 1665722, 1666101, 1666500, 1666864, 1667274, 1667679, 1668066, 1668466, 1668852, 1669217, 1669619, 1670045, 1670391, 1670808, 1671194]","[1663943, 1664338, 1664731, 1665124, 1665502, 1665915, 1666288, 1666630, 1667057, 1667444, 1667840, 1668229, 1668601, 1668995, 1669347, 1669730, 1670123, 1670526, 1670918, 1671307]","[1662171, 1662570, 1662970, 1663370, 1663770, 1664171, 1664570, 1664970, 1665350, 1665750, 1666128, 1666528, 1666890, 1667302, 1667706, 1668092, 1668494, 1668880, 1669243, 1669646, 1670072, 1670419, 1670836, 1671222]",21,R,ITM,1.1,
6,400,trial,0,84,84,84,trial,"['S', 'S', 'S', 'S', 'S', 'S', 'S', 'C', 'C', 'C', 'C', 'C', 'C', 'C', 'C', 'C', 'C', 'C', 'C', 'C', 'C', 'C', 'C']","[1677373, 1677766, 1678153, 1678533, 1678913, 1679309, 1679703, 1680110, 1680489, 1680870, 1681269, 1681654, 1682031, 1682449, 1682842, 1683232, 1683634, 1684021, 1684432, 1684822, 1685206, 1685571, 1685998]","[1677559, 1677962, 1678362, 1678732, 1679122, 1679519, 1679934, 1680308, 1680679, 1681072, 1681477, 1681845, 1682248, 1682630, 1683021, 1683415, 1683799, 1684190, 1684579, 1684983, 1685373, 1685758, 1686148]","[1676967, 1677366, 1677766, 1678167, 1678566, 1678966, 1679367, 1679766, 1680137, 1680517, 1680897, 1681297, 1681682, 1682058, 1682477, 1682869, 1683259, 1683661, 1684047, 1684459, 1684849, 1685233, 1685598, 1686025]",21,R,ITM,1.1,
3,600,trial,0,85,85,85,trial,"['S', 'S', 'S', 'S', 'C', 'C', 'C', 'C', 'C', 'C', 'C', 'C', 'C', 'C', 'C', 'C', 'C', 'C', 'C', 'C']","[1694109, 1694708, 1695296, 1695902, 1696488, 1697076, 1697704, 1698292, 1698922, 1699468, 1700110, 1700707, 1701316, 1701883, 1702501, 1703099, 1703675, 1704287, 1704864, 1705459]","[1694358, 1695006, 1695605, 1696196, 1696827, 1697388, 1697974, 1698557, 1699164, 1699801, 1700380, 1700983, 1701596, 1702220, 1702771, 1703372, 1703997, 1704557, 1705139]","[1691784, 1692383, 1692983, 1693583, 1694183, 1694783, 1695383, 1695983, 1696514, 1697101, 1697730, 1698318, 1698948, 1699493, 1700135, 1700732, 1701342, 1701909, 1702526, 1703124, 1703701, 1704312, 1704890, 1705485]",21,R,ITM,1.1,
5,400,trial,0,86,86,86,trial,"['C', 'C', 'C', 'C', 'C', 'C', 'C', 'C', 'C', 'C', 'C', 'C', 'C', 'C', 'C', 'C']","[1713995, 1714391, 1714786, 1715178, 1715574, 1715960, 1716352, 1716768, 1717135, 1717549, 1717914, 1718337, 1718728, 1719107, 1719494, 1719865]","[1714196, 1714591, 1714984, 1715401, 1715792, 1716182, 1716578, 1716935, 1717361, 1717741, 1718111, 1718522, 1718925, 1719280, 1719672, 1720066]","[1710834, 1711234, 1711633, 1712033, 1712434, 1712834, 1713234, 1713634, 1714021, 1714416, 1714812, 1715205, 1715601, 1715986, 1716377, 1716795, 1717161, 1717574, 1717940, 1718363, 1718755, 1719133, 1719520, 1719890]",21,R,ITM,1.1,
4,400,trial,0,87,87,87,trial,"['S', 'S', 'S', 'S', 'C', 'C', 'C', 'C', 'C', 'C', 'C', 'C', 'C', 'C', 'C', 'C', 'C', 'C', 'C', 'C']","[1727182, 1727577, 1727992, 1728395, 1728799, 1729199, 1729585, 1729960, 1730358, 1730755, 1731138, 1731491, 1731904, 1732299, 1732702, 1733117, 1733497, 1733907, 1734280, 1734673]","[1727373, 1727774, 1728194, 1728607, 1729040, 1729391, 1729788, 1730167, 1730561, 1730947, 1731337, 1731678, 1732094, 1732487, 1732896, 1733279, 1733685, 1734079, 1734418, 1734830]","[1725634, 1726034, 1726434, 1726834, 1727235, 1727634, 1728034, 1728434, 1728825, 1729224, 1729610, 1729986, 1730383, 1730782, 1731164, 1731517, 1731930, 1732325, 1732727, 1733143, 1733523, 1733933, 1734305, 1734699]",21,R,ITM,1.1,
2,600,trial,0,88,88,88,trial,"['S', 'S', 'S', 'S', 'S', 'S', 'C', 'C', 'C', 'C', 'C', 'C', 'C', 'C', 'C', 'C', 'C', 'C', 'C', 'C', 'C', 'C']","[1741228, 1741789, 1742440, 1742942, 1743589, 1744148, 1744791, 1745362, 1746018, 1746553, 1747169, 1747707, 1748316, 1748904, 1749485, 1750087, 1750681, 1751239, 1751868, 1752421, 1752968, 1753544]","[1741450, 1742081, 1742666, 1743233, 1743836, 1744393, 1745054, 1745625, 1746171, 1746776, 1747390, 1747881, 1748567, 1749146, 1749762, 1750310, 1750909, 1751426, 1752070, 1752624, 1753159, 1753732]","[1740027, 1740627, 1741227, 1741828, 1742427, 1743028, 1743627, 1744228, 1744819, 1745390, 1746044, 1746581, 1747195, 1747734, 1748343, 1748932, 1749512, 1750115, 1750709, 1751267, 1751895, 1752449, 1752994, 1753572]",21,R,ITM,1.1,
6,600,trial,0,89,89,89,trial,"['B', 'S', 'S', 'S', 'S', 'C', 'C', 'C', 'C', 'C', 'C', 'C', 'C', 'C', 'C', 'C', 'C', 'C', 'C', 'C', 'C']","[1759266, 1761702, 1762282, 1762897, 1763493, 1764083, 1764660, 1765265, 1765857, 1766437, 1767045, 1767616, 1768168, 1768741, 1769315, 1769900, 1770450, 1771022, 1771593, 1772165, 1772748]","[1761362, 1761974, 1762566, 1763151, 1763760, 1764370, 1764967, 1765537, 1766130, 1766718, 1767318, 1767888, 1768428, 1768994, 1769580, 1770159, 1770726, 1771297, 1771859, 1772429]","[1759280, 1759879, 1760478, 1761078, 1761678, 1762278, 1762878, 1763478, 1764110, 1764686, 1765292, 1765884, 1766464, 1767071, 1767643, 1768196, 1768768, 1769341, 1769926, 1770478, 1771049, 1771620, 1772192, 1772775]",21,R,ITM,1.1,
2,400,trial,0,90,90,90,trial,"['B', 'S', 'S', 'S', 'S', 'C', 'C', 'C', 'C', 'C', 'C', 'C', 'C', 'C', 'C', 'C', 'C', 'C', 'C', 'C', 'C']","[1778106, 1779694, 1780094, 1780508, 1780894, 1781287, 1781673, 1782085, 1782478, 1782877, 1783282, 1783675, 1784061, 1784483, 1784894, 1785297, 1785704, 1786096, 1786514, 1786862, 1787302]","[1779438, 1779921, 1780331, 1780736, 1781134, 1781509, 1781913, 1782317, 1782716, 1783104, 1783496, 1783882, 1784309, 1784688, 1785104, 1785517, 1785929, 1786319, 1786716, 1787074, 1787511]","[1778120, 1778521, 1778920, 1779320, 1779721, 1780120, 1780521, 1780920, 1781315, 1781701, 1782113, 1782506, 1782904, 1783309, 1783702, 1784088, 1784511, 1784922, 1785324, 1785731, 1786123, 1786541, 1786890, 1787330]",21,R,ITM,1.1,
7,400,trial,0,91,91,91,trial,"['B', 'S', 'S', 'S', 'S', 'S', 'S', 'C', 'C', 'C', 'C', 'C', 'C', 'C', 'C', 'C', 'C', 'C', 'C', 'C', 'C', 'C', 'C']","[1792680, 1793473, 1793893, 1794260, 1794660, 1795058, 1795493, 1795883, 1796262, 1796620, 1797021, 1797403, 1797795, 1798197, 1798593, 1798977, 1799370, 1799768, 1800146, 1800524, 1800930, 1801309, 1801686]","[1793265, 1793707, 1794081, 1794479, 1794861, 1795300, 1795692, 1796093, 1796458, 1796841, 1797207, 1797587, 1797978, 1798387, 1798789, 1799195, 1799593, 1799958, 1800343, 1800737, 1801099, 1801507, 1801890]","[1792694, 1793093, 1793494, 1793893, 1794293, 1794694, 1795093, 1795493, 1795909, 1796290, 1796647, 1797049, 1797431, 1797822, 1798224, 1798621, 1799004, 1799397, 1799794, 1800174, 1800551, 1800957, 1801335, 1801713]",21,R,ITM,1.1,
7,400,trial,0,92,92,92,trial,"['B', 'S', 'S', 'S', 'S', 'S', 'S', 'S', 'C', 'C', 'C', 'C', 'C', 'C', 'C', 'C', 'C', 'C', 'C', 'C', 'C', 'C', 'C', 'C']","[1807075, 1807488, 1807861, 1808254, 1808652, 1809042, 1809439, 1809878, 1810287, 1810662, 1811054, 1811434, 1811852, 1812267, 1812647, 1813049, 1813465, 1813877, 1814280, 1814676, 1815081, 1815487, 1815866, 1816289]","[1807337, 1807700, 1808080, 1808498, 1808867, 1809267, 1809676, 1810103, 1810504, 1810888, 1811254, 1811679, 1812066, 1812475, 1812877, 1813264, 1813649, 1814057, 1814481, 1814861, 1815264, 1815677, 1816062, 1816492]","[1807088, 1807488, 1807887, 1808287, 1808688, 1809087, 1809487, 1809887, 1810314, 1810690, 1811081, 1811461, 1811879, 1812293, 1812675, 1813076, 1813492, 1813904, 1814307, 1814704, 1815107, 1815514, 1815892, 1816316]",21,R,ITM,1.1,
5,400,trial,0,93,93,93,trial,"['B', 'S', 'S', 'S', 'S', 'S', 'S', 'C', 'C', 'C', 'C', 'C', 'C', 'C', 'C', 'C', 'C', 'C', 'C', 'C', 'C', 'C', 'C']","[1822025, 1822800, 1823194, 1823594, 1823992, 1824379, 1824785, 1825170, 1825579, 1825978, 1826376, 1826758, 1827180, 1827566, 1827968, 1828354, 1828750, 1829144, 1829525, 1829952, 1830360, 1830764, 1831168]","[1822616, 1823019, 1823439, 1823824, 1824214, 1824611, 1825006, 1825386, 1825797, 1826215, 1826612, 1827025, 1827405, 1827783, 1828169, 1828568, 1828958, 1829349, 1829749, 1830156, 1830551, 1830960, 1831351]","[1822038, 1822436, 1822836, 1823237, 1823636, 1824036, 1824436, 1824836, 1825196, 1825604, 1826003, 1826402, 1826785, 1827206, 1827592, 1827993, 1828379, 1828775, 1829170, 1829551, 1829978, 1830385, 1830791, 1831193]",21,R,ITM,1.1,
2,600,trial,0,94,94,94,trial,"['B', 'S', 'S', 'S', 'S', 'C', 'C', 'C', 'C', 'C', 'C', 'C', 'C', 'C', 'C', 'C', 'C', 'C', 'C', 'C', 'C']","[1836749, 1839134, 1839767, 1840376, 1840909, 1841525, 1842095, 1842699, 1843265, 1843845, 1844441, 1844989, 1845599, 1846130, 1846707, 1847299, 1847894, 1848449, 1849034, 1849590, 1850148]","[1838832, 1839407, 1839994, 1840567, 1841161, 1841752, 1842330, 1842902, 1843495, 1844071, 1844635, 1845206, 1845762, 1846329, 1846925, 1847515, 1848084, 1848678, 1849238, 1849769, 1850299]","[1836763, 1837363, 1837962, 1838561, 1839162, 1839762, 1840362, 1840962, 1841552, 1842122, 1842726, 1843292, 1843872, 1844467, 1845016, 1845625, 1846157, 1846734, 1847325, 1847921, 1848476, 1849062, 1849618, 1850176]",21,R,ITM,1.1,
6,600,trial,0,95,95,95,trial,"['B', 'S', 'S', 'S', 'S', 'S', 'S', 'C', 'C', 'C', 'C', 'C', 'C', 'C', 'C', 'C', 'C', 'C', 'C', 'C', 'C', 'C', 'C']","[1855942, 1857130, 1857697, 1858323, 1858877, 1859459, 1860041, 1860703, 1861303, 1861870, 1862470, 1863041, 1863613, 1864220, 1864772, 1865368, 1865982, 1866544, 1867129, 1867709, 1868275, 1868880, 1869435]","[1856812, 1857380, 1857987, 1858611, 1859190, 1859794, 1860432, 1861036, 1861613, 1862187, 1862774, 1863347, 1863942, 1864527, 1865088, 1865704, 1866227, 1866828, 1867401, 1868002, 1868600, 1869153, 1869680]","[1855955, 1856555, 1857155, 1857755, 1858355, 1858955, 1859555, 1860155, 1860729, 1861330, 1861897, 1862498, 1863068, 1863640, 1864247, 1864800, 1865396, 1866010, 1866570, 1867157, 1867736, 1868303, 1868907, 1869462]",21,R,ITM,1.1,
3,400,trial,0,96,96,96,trial,"['B', 'S', 'S', 'S', 'S', 'C', 'C', 'C', 'C', 'C', 'C', 'C', 'C', 'C', 'C', 'C', 'C', 'C', 'C', 'C', 'C']","[1875167, 1876724, 1877152, 1877555, 1877940, 1878362, 1878756, 1879149, 1879539, 1879919, 1880317, 1880696, 1881096, 1881488, 1881872, 1882260, 1882645, 1883053, 1883448, 1883827, 1884229]","[1876473, 1876970, 1877356, 1877766, 1878182, 1878574, 1878967, 1879355, 1879720, 1880131, 1880534, 1880892, 1881296, 1881698, 1882083, 1882462, 1882836, 1883223, 1883625, 1884027, 1884419]","[1875179, 1875578, 1875978, 1876378, 1876779, 1877178, 1877578, 1877979, 1878387, 1878781, 1879175, 1879565, 1879945, 1880343, 1880722, 1881121, 1881513, 1881899, 1882286, 1882671, 1883078, 1883473, 1883852, 1884255]",21,R,ITM,1.1,
3,600,trial,0,97,97,97,trial,"['S', 'S', 'S', 'S', 'S', 'S', 'C', 'C', 'C', 'C', 'C', 'C', 'C', 'C', 'C', 'C', 'C', 'C', 'C', 'C', 'C', 'C']","[1891044, 1891603, 1892208, 1892823, 1893436, 1893999, 1894600, 1895168, 1895789, 1896406, 1896984, 1897597, 1898177, 1898768, 1899327, 1899936, 1900508, 1901130, 1901712, 1902269, 1902848, 1903426]","[1891308, 1891883, 1892488, 1893115, 1893698, 1894317, 1894883, 1895485, 1896086, 1896691, 1897319, 1897909, 1898492, 1899028, 1899660, 1900217, 1900809, 1901390, 1901981, 1902554, 1903163, 1903686]","[1889885, 1890483, 1891083, 1891683, 1892283, 1892883, 1893483, 1894083, 1894626, 1895193, 1895815, 1896431, 1897010, 1897623, 1898203, 1898793, 1899353, 1899962, 1900533, 1901156, 1901737, 1902295, 1902873, 1903452]",21,R,ITM,1.1,
6,400,trial,0,98,98,98,trial,"['S', 'S', 'S', 'S', 'S', 'S', 'C', 'C', 'C', 'C', 'C', 'C', 'C', 'C', 'C', 'C', 'C', 'C', 'C', 'C', 'C', 'C']","[1909651, 1910009, 1910393, 1910788, 1911188, 1911599, 1912000, 1912394, 1912788, 1913163, 1913563, 1913943, 1914340, 1914740, 1915136, 1915522, 1915931, 1916324, 1916718, 1917113, 1917476, 1917848]","[1909800, 1910184, 1910563, 1910972, 1911392, 1911810, 1912211, 1912642, 1913003, 1913401, 1913793, 1914212, 1914619, 1914977, 1915357, 1915739, 1916153, 1916558, 1916910, 1917308, 1917694, 1918040]","[1908852, 1909252, 1909651, 1910051, 1910451, 1910851, 1911251, 1911651, 1912027, 1912421, 1912815, 1913190, 1913589, 1913970, 1914366, 1914767, 1915163, 1915548, 1915958, 1916352, 1916744, 1917139, 1917503, 1917875]",21,R,ITM,1.1,
4,400,trial,0,99,99,99,trial,"['S', 'S', 'S', 'S', 'S', 'S', 'C', 'C', 'C', 'C', 'C', 'C', 'C', 'C', 'C', 'C', 'C', 'C', 'C', 'C', 'C', 'C']","[1924286, 1924663, 1925067, 1925443, 1925841, 1926227, 1926616, 1927007, 1927422, 1927811, 1928220, 1928621, 1929006, 1929388, 1929765, 1930151, 1930533, 1930939, 1931305, 1931658, 1932067, 1932429]","[1924441, 1924875, 1925281, 1925661, 1926060, 1926449, 1926824, 1927187, 1927585, 1927985, 1928374, 1928812, 1929195, 1929544, 1929914, 1930313, 1930678, 1931084, 1931431, 1931822, 1932203, 1932560]","[1923496, 1923896, 1924296, 1924697, 1925096, 1925496, 1925896, 1926296, 1926641, 1927032, 1927448, 1927836, 1928246, 1928646, 1929031, 1929413, 1929791, 1930177, 1930559, 1930964, 1931330, 1931683, 1932093, 1932454]",21,R,ITM,1.1,
5,600,trial,0,100,100,100,trial,"['S', 'S', 'S', 'S', 'S', 'S', 'C', 'C', 'C', 'C', 'C', 'C', 'C', 'C', 'C', 'C', 'C', 'C', 'C', 'C', 'C', 'C']","[1938907, 1939484, 1940105, 1940697, 1941300, 1941914, 1942480, 1943050, 1943631, 1944203, 1944772, 1945331, 1945887, 1946471, 1947011, 1947592, 1948162, 1948736, 1949291, 1949824, 1950376, 1950941]","[1939191, 1939780, 1940426, 1941014, 1941608, 1942201, 1942794, 1943350, 1943934, 1944487, 1945063, 1945610, 1946173, 1946735, 1947334, 1947891, 1948443, 1948993, 1949561, 1950093, 1950688]","[1937755, 1938354, 1938954, 1939554, 1940154, 1940754, 1941354, 1941954, 1942506, 1943075, 1943657, 1944228, 1944798, 1945357, 1945913, 1946497, 1947036, 1947618, 1948187, 1948762, 1949318, 1949849, 1950402, 1950966]",21,R,ITM,1.1,
4,600,trial,0,101,101,101,trial,"['B', 'S', 'S', 'S', 'S', 'S', 'S', 'C', 'C', 'C', 'C', 'C', 'C', 'C', 'C', 'C', 'C', 'C', 'C', 'C', 'C', 'C', 'C']","[1956711, 1957852, 1958446, 1959066, 1959675, 1960274, 1960860, 1961439, 1962048, 1962616, 1963215, 1963793, 1964345, 1964909, 1965495, 1966048, 1966681, 1967244, 1967760, 1968325, 1968843, 1969422, 1969965]","[1957575, 1958179, 1958817, 1959398, 1959963, 1960608, 1961193, 1961773, 1962392, 1962975, 1963533, 1964120, 1964674, 1965243, 1965808, 1966407, 1966993, 1967544, 1968065, 1968584, 1969156, 1969678]","[1956723, 1957322, 1957922, 1958522, 1959122, 1959723, 1960323, 1960923, 1961464, 1962075, 1962642, 1963241, 1963820, 1964370, 1964935, 1965520, 1966073, 1966706, 1967269, 1967785, 1968351, 1968869, 1969448, 1969990]",21,R,ITM,1.1,
6,600,trial,0,102,102,102,trial,"['B', 'S', 'S', 'S', 'S', 'S', 'S', 'S', 'C', 'C', 'C', 'C', 'C', 'C', 'C', 'C', 'C', 'C', 'C', 'C', 'C', 'C', 'C', 'C']","[1975604, 1976090, 1976797, 1977417, 1978061, 1978637, 1979216, 1979807, 1980409, 1980996, 1981584, 1982151, 1982733, 1983323, 1983944, 1984514, 1985134, 1985718, 1986330, 1986926, 1987513, 1988088, 1988681, 1989219]","[1975940, 1976443, 1977118, 1977722, 1978351, 1978925, 1979548, 1980110, 1980731, 1981309, 1981891, 1982457, 1983056, 1983618, 1984233, 1984824, 1985417, 1985989, 1986607, 1987165, 1987764, 1988337, 1988947]","[1975616, 1976216, 1976816, 1977416, 1978016, 1978616, 1979216, 1979816, 1980436, 1981024, 1981612, 1982178, 1982759, 1983349, 1983972, 1984541, 1985161, 1985744, 1986357, 1986953, 1987540, 1988116, 1988709, 1989245]",21,R,ITM,1.1,
4,600,trial,0,103,103,103,trial,"['B', 'S', 'S', 'S', 'S', 'S', 'S', 'C', 'C', 'C', 'C', 'C', 'C', 'C', 'C', 'C', 'C', 'C', 'C', 'C', 'C', 'C', 'C']","[1994632, 1995773, 1996358, 1996979, 1997583, 1998154, 1998747, 1999370, 1999919, 2000534, 2001064, 2001704, 2002279, 2002841, 2003417, 2003970, 2004576, 2005128, 2005695, 2006246, 2006805, 2007396, 2007952]","[1995484, 1996069, 1996695, 1997322, 1997910, 1998476, 1999083, 1999662, 2000239, 2000807, 2001417, 2001995, 2002563, 2003122, 2003709, 2004282, 2004818, 2005413, 2005990, 2006589, 2007147, 2007720]","[1994643, 1995243, 1995843, 1996443, 1997043, 1997643, 1998243, 1998843, 1999395, 1999944, 2000560, 2001090, 2001731, 2002305, 2002867, 2003442, 2003995, 2004601, 2005153, 2005721, 2006272, 2006831, 2007421, 2007977]",21,R,ITM,1.1,
4,400,trial,0,104,104,104,trial,"['B', 'S', 'S', 'S', 'S', 'S', 'C', 'C', 'C', 'C', 'C', 'C', 'C', 'C', 'C', 'C', 'C', 'C', 'C', 'C', 'C', 'C']","[2013696, 2014858, 2015258, 2015664, 2016060, 2016470, 2016882, 2017266, 2017660, 2018035, 2018424, 2018820, 2019188, 2019591, 2019975, 2020370, 2020749, 2021129, 2021516, 2021898, 2022289, 2022677]","[2014604, 2015039, 2015479, 2015883, 2016284, 2016714, 2017106, 2017484, 2017865, 2018249, 2018641, 2019003, 2019396, 2019781, 2020184, 2020571, 2020945, 2021331, 2021700, 2022071, 2022468, 2022881]","[2013708, 2014107, 2014508, 2014907, 2015307, 2015708, 2016107, 2016507, 2016908, 2017292, 2017686, 2018061, 2018450, 2018845, 2019214, 2019616, 2020000, 2020396, 2020774, 2021154, 2021541, 2021923, 2022315, 2022703]",21,R,ITM,1.1,
6,400,trial,0,105,105,105,trial,"['S', 'S', 'S', 'S', 'S', 'S', 'C', 'C', 'C', 'C', 'C', 'C', 'C', 'C', 'C', 'C', 'C', 'C', 'C', 'C', 'C', 'C']","[2028807, 2029205, 2029612, 2030007, 2030384, 2030776, 2031168, 2031566, 2031958, 2032336, 2032712, 2033087, 2033461, 2033882, 2034247, 2034624, 2035020, 2035394, 2035783, 2036163, 2036517, 2036896]","[2029000, 2029378, 2029805, 2030220, 2030596, 2030999, 2031385, 2031790, 2032186, 2032543, 2032925, 2033295, 2033697, 2034075, 2034459, 2034841, 2035196, 2035640, 2035964, 2036308, 2036688, 2037074]","[2028025, 2028424, 2028824, 2029224, 2029624, 2030024, 2030425, 2030824, 2031195, 2031593, 2031984, 2032364, 2032739, 2033114, 2033487, 2033909, 2034275, 2034652, 2035048, 2035421, 2035811, 2036190, 2036544, 2036923]",21,R,ITM,1.1,
6,400,trial,0,106,106,106,trial,"['B', 'S', 'S', 'S', 'S', 'S', 'S', 'S', 'C', 'C', 'C', 'C', 'C', 'C', 'C', 'C', 'C', 'C', 'C', 'C', 'C', 'C', 'C', 'C']","[2042374, 2042788, 2043187, 2043564, 2043951, 2044348, 2044734, 2045132, 2045527, 2045896, 2046271, 2046663, 2047052, 2047440, 2047803, 2048185, 2048555, 2048943, 2049314, 2049702, 2050048, 2050437, 2050766, 2051208]","[2042589, 2043034, 2043401, 2043794, 2044164, 2044575, 2044971, 2045355, 2045721, 2046096, 2046490, 2046868, 2047235, 2047623, 2048011, 2048365, 2048740, 2049099, 2049475, 2049858, 2050225, 2050562, 2050950, 2051367]","[2042386, 2042786, 2043187, 2043587, 2043987, 2044387, 2044787, 2045188, 2045553, 2045923, 2046298, 2046691, 2047079, 2047468, 2047830, 2048212, 2048581, 2048970, 2049341, 2049729, 2050075, 2050463, 2050793, 2051234]",21,R,ITM,1.1,
7,400,trial,0,107,107,107,trial,"['B', 'S', 'S', 'S', 'S', 'S', 'S', 'C', 'C', 'C', 'C', 'C', 'C', 'C', 'C', 'C', 'C', 'C', 'C', 'C', 'C', 'C', 'C']","[2056907, 2057687, 2058068, 2058471, 2058845, 2059254, 2059639, 2060057, 2060439, 2060821, 2061220, 2061594, 2062000, 2062372, 2062746, 2063136, 2063516, 2063899, 2064270, 2064645, 2065031, 2065396, 2065778]","[2057194, 2057882, 2058268, 2058677, 2059080, 2059460, 2059867, 2060246, 2060642, 2061043, 2061435, 2061834, 2062190, 2062566, 2062980, 2063345, 2063728, 2064102, 2064474, 2064831, 2065245, 2065599, 2065969]","[2056921, 2057320, 2057720, 2058120, 2058520, 2058920, 2059320, 2059720, 2060084, 2060466, 2060848, 2061247, 2061621, 2062026, 2062400, 2062773, 2063164, 2063544, 2063927, 2064296, 2064672, 2065057, 2065424, 2065805]",21,R,ITM,1.1,
5,600,trial,0,108,108,108,trial,"['S', 'S', 'S', 'S', 'S', 'S', 'C', 'C', 'C', 'C', 'C', 'C', 'C', 'C', 'C', 'C', 'C', 'C', 'C', 'C', 'C', 'C']","[2072306, 2072891, 2073505, 2074095, 2074680, 2075290, 2075890, 2076474, 2077017, 2077620, 2078177, 2078752, 2079325, 2079884, 2080431, 2080983, 2081526, 2082041, 2082622, 2083151, 2083681, 2084242]","[2072568, 2073169, 2073803, 2074394, 2075004, 2075578, 2076194, 2076745, 2077318, 2077871, 2078479, 2079028, 2079588, 2080125, 2080721, 2081257, 2081782, 2082358, 2082903, 2083435, 2083999]","[2071181, 2071781, 2072381, 2072981, 2073581, 2074181, 2074781, 2075381, 2075916, 2076499, 2077042, 2077645, 2078202, 2078778, 2079351, 2079909, 2080456, 2081009, 2081552, 2082067, 2082648, 2083178, 2083707, 2084268]",21,R,ITM,1.1,
2,600,trial,0,109,109,109,trial,"['B', 'S', 'S', 'S', 'S', 'S', 'S', 'C', 'C', 'C', 'C', 'C', 'C', 'C', 'C', 'C', 'C', 'C', 'C', 'C', 'C', 'C', 'C']","[2089615, 2090785, 2091367, 2091985, 2092567, 2093159, 2093739, 2094361, 2094916, 2095495, 2096061, 2096636, 2097179, 2097765, 2098331, 2098914, 2099437, 2100003, 2100555, 2101116, 2101693, 2102238, 2102813]","[2089972, 2091038, 2091673, 2092277, 2092881, 2093484, 2094066, 2094612, 2095197, 2095769, 2096349, 2096927, 2097466, 2098056, 2098608, 2099142, 2099764, 2100282, 2100846, 2101417, 2101960, 2102519, 2103063]","[2089628, 2090228, 2090828, 2091428, 2092028, 2092627, 2093229, 2093829, 2094388, 2094944, 2095521, 2096088, 2096664, 2097207, 2097793, 2098358, 2098941, 2099464, 2100031, 2100583, 2101144, 2101721, 2102265, 2102841]",21,R,ITM,1.1,
6,600,trial,0,110,110,110,trial,"['B', 'S', 'S', 'S', 'S', 'S', 'S', 'C', 'C', 'C', 'C', 'C', 'C', 'C', 'C', 'C', 'C', 'C', 'C', 'C', 'C', 'C', 'C']","[2108547, 2109687, 2110288, 2110875, 2111478, 2112099, 2112716, 2113346, 2113933, 2114538, 2115137, 2115696, 2116295, 2116873, 2117500, 2118060, 2118653, 2119233, 2119784, 2120377, 2120970, 2121575, 2122139]","[2109270, 2109975, 2110587, 2111181, 2111812, 2112414, 2113049, 2113612, 2114224, 2114823, 2115419, 2115990, 2116573, 2117194, 2117760, 2118348, 2118946, 2119517, 2120102, 2120668, 2121309, 2121863]","[2108559, 2109159, 2109759, 2110359, 2110959, 2111559, 2112159, 2112759, 2113373, 2113959, 2114566, 2115164, 2115723, 2116322, 2116900, 2117527, 2118086, 2118681, 2119260, 2119811, 2120403, 2120997, 2121603, 2122167]",21,R,ITM,1.1,
2,400,trial,0,111,111,111,trial,"['B', 'S', 'S', 'S', 'S', 'C', 'C', 'C', 'C', 'C', 'C', 'C', 'C', 'C', 'C', 'C', 'C', 'C', 'C', 'C', 'C']","[2127626, 2129215, 2129623, 2130017, 2130407, 2130816, 2131223, 2131612, 2131995, 2132388, 2132790, 2133173, 2133554, 2133958, 2134352, 2134720, 2135117, 2135500, 2135881, 2136261, 2136654]","[2128961, 2129434, 2129829, 2130220, 2130624, 2131030, 2131423, 2131828, 2132222, 2132604, 2132993, 2133377, 2133760, 2134161, 2134550, 2134920, 2135300, 2135699, 2136053, 2136457, 2136841]","[2127639, 2128038, 2128439, 2128838, 2129240, 2129639, 2130039, 2130440, 2130843, 2131250, 2131639, 2132023, 2132416, 2132817, 2133199, 2133581, 2133986, 2134379, 2134748, 2135145, 2135527, 2135908, 2136288, 2136682]",21,R,ITM,1.1,
3,600,trial,0,112,112,112,trial,"['S', 'S', 'S', 'S', 'S', 'S', 'C', 'C', 'C', 'C', 'C', 'C', 'C', 'C', 'C', 'C', 'C', 'C', 'C', 'C', 'C', 'C']","[2143108, 2143757, 2144352, 2144950, 2145523, 2146126, 2146713, 2147288, 2147865, 2148431, 2149013, 2149595, 2150150, 2150742, 2151330, 2151895, 2152433, 2153018, 2153585, 2154140, 2154733, 2155313]","[2143360, 2144016, 2144624, 2145219, 2145817, 2146411, 2146978, 2147575, 2148144, 2148711, 2149267, 2149842, 2150473, 2151013, 2151581, 2152128, 2152726, 2153286, 2153853, 2154411, 2155002, 2155550]","[2141985, 2142584, 2143184, 2143784, 2144385, 2144985, 2145585, 2146184, 2146739, 2147313, 2147891, 2148457, 2149039, 2149620, 2150175, 2150767, 2151356, 2151920, 2152459, 2153043, 2153611, 2154166, 2154759, 2155338]",21,R,ITM,1.1,
7,600,trial,0,113,113,113,trial,"['B', 'S', 'S', 'S', 'S', 'S', 'S', 'S', 'C', 'C', 'C', 'C', 'C', 'C', 'C', 'C', 'C', 'C', 'C', 'C', 'C', 'C', 'C', 'C']","[2160831, 2161293, 2162061, 2162680, 2163282, 2163849, 2164429, 2165005, 2165559, 2166188, 2166775, 2167353, 2167937, 2168501, 2169078, 2169645, 2170220, 2170787, 2171335, 2171926, 2172464, 2173046, 2173625, 2174182]","[2161065, 2161694, 2162344, 2162961, 2163574, 2164153, 2164721, 2165291, 2165885, 2166480, 2167071, 2167653, 2168230, 2168801, 2169360, 2169960, 2170485, 2171030, 2171599, 2172190, 2172783, 2173303, 2173906, 2174448]","[2160844, 2161443, 2162043, 2162643, 2163244, 2163844, 2164444, 2165043, 2165585, 2166214, 2166803, 2167380, 2167963, 2168528, 2169105, 2169671, 2170247, 2170814, 2171362, 2171953, 2172490, 2173074, 2173652, 2174209]",21,R,ITM,1.1,
4,400,trial,0,114,114,114,trial,"['B', 'S', 'S', 'S', 'S', 'S', 'S', 'S', 'C', 'C', 'C', 'C', 'C', 'C', 'C', 'C', 'C', 'C', 'C', 'C', 'C', 'C', 'C', 'C']","[2179892, 2180359, 2180682, 2181092, 2181478, 2181855, 2182259, 2182631, 2183050, 2183417, 2183800, 2184202, 2184572, 2184974, 2185356, 2185751, 2186118, 2186479, 2186880, 2187254, 2187621, 2188006, 2188389, 2188747]","[2180147, 2180513, 2180873, 2181233, 2181644, 2182029, 2182455, 2182867, 2183269, 2183651, 2184036, 2184416, 2184821, 2185187, 2185608, 2185955, 2186309, 2186665, 2187060, 2187417, 2187816, 2188207, 2188598, 2188951]","[2179903, 2180303, 2180703, 2181103, 2181504, 2181903, 2182303, 2182704, 2183075, 2183443, 2183826, 2184227, 2184598, 2184999, 2185382, 2185777, 2186143, 2186505, 2186905, 2187280, 2187646, 2188032, 2188414, 2188773]",21,R,ITM,1.1,
7,400,trial,0,115,115,115,trial,"['B', 'S', 'S', 'S', 'S', 'S', 'S', 'S', 'C', 'C', 'C', 'C', 'C', 'C', 'C', 'C', 'C', 'C', 'C', 'C', 'C', 'C', 'C', 'C']","[2194351, 2194763, 2195164, 2195537, 2195897, 2196306, 2196694, 2197112, 2197484, 2197864, 2198246, 2198614, 2198972, 2199404, 2199773, 2200113, 2200450, 2200832, 2201208, 2201560, 2201894, 2202272, 2202655, 2203026]","[2194594, 2194978, 2195368, 2195733, 2196096, 2196511, 2196929, 2197308, 2197677, 2198039, 2198406, 2198770, 2199169, 2199553, 2199905, 2200281, 2200600, 2200985, 2201285, 2201667, 2202015, 2202401, 2202760, 2203147]","[2194364, 2194763, 2195164, 2195563, 2195963, 2196363, 2196763, 2197164, 2197512, 2197892, 2198274, 2198640, 2198999, 2199432, 2199799, 2200140, 2200477, 2200859, 2201235, 2201587, 2201922, 2202299, 2202682, 2203053]",21,R,ITM,1.1,
3,400,trial,0,116,116,116,trial,"['S', 'S', 'S', 'S', 'S', 'S', 'C', 'C', 'C', 'C', 'C', 'C', 'C', 'C', 'C', 'C', 'C', 'C', 'C', 'C', 'C', 'C']","[2209276, 2209669, 2210073, 2210437, 2210835, 2211261, 2211666, 2212037, 2212408, 2212782, 2213163, 2213543, 2213955, 2214329, 2214696, 2215084, 2215464, 2215856, 2216204, 2216598, 2216972, 2217364]","[2209457, 2209856, 2210273, 2210649, 2211031, 2211440, 2211838, 2212246, 2212577, 2212948, 2213363, 2213752, 2214110, 2214497, 2214851, 2215250, 2215630, 2216009, 2216382, 2216764, 2217146, 2217530]","[2208508, 2208907, 2209307, 2209708, 2210107, 2210507, 2210908, 2211307, 2211693, 2212063, 2212433, 2212807, 2213188, 2213569, 2213981, 2214354, 2214722, 2215109, 2215490, 2215881, 2216229, 2216624, 2216997, 2217390]",21,R,ITM,1.1,
2,600,trial,0,117,117,117,trial,"['S', 'S', 'S', 'S', 'S', 'S', 'C', 'C', 'C', 'C', 'C', 'C', 'C', 'C', 'C', 'C', 'C', 'C', 'C', 'C', 'C', 'C']","[2223989, 2224622, 2225200, 2225762, 2226377, 2226989, 2227569, 2228158, 2228719, 2229275, 2229856, 2230409, 2230986, 2231539, 2232112, 2232702, 2233231, 2233814, 2234357, 2234921, 2235465, 2236010]","[2224296, 2224891, 2225468, 2226066, 2226644, 2227271, 2227831, 2228432, 2228963, 2229526, 2230070, 2230640, 2231227, 2231783, 2232372, 2232937, 2233489, 2234058, 2234585, 2235091, 2235694, 2236155]","[2222849, 2223449, 2224048, 2224648, 2225249, 2225849, 2226449, 2227049, 2227596, 2228186, 2228747, 2229303, 2229883, 2230436, 2231014, 2231567, 2232138, 2232729, 2233259, 2233840, 2234384, 2234947, 2235492, 2236037]",21,R,ITM,1.1,
5,400,trial,0,118,118,118,trial,"['S', 'S', 'S', 'S', 'S', 'S', 'C', 'C', 'C', 'C', 'C', 'C', 'C', 'C', 'C', 'C', 'C', 'C', 'C', 'C', 'C', 'C']","[2242196, 2242589, 2242994, 2243351, 2243778, 2244144, 2244544, 2244918, 2245302, 2245694, 2246076, 2246455, 2246841, 2247244, 2247631, 2248036, 2248407, 2248819, 2249201, 2249577, 2249960, 2250339]","[2242388, 2242782, 2243159, 2243560, 2243944, 2244336, 2244705, 2245118, 2245476, 2245883, 2246257, 2246648, 2247008, 2247411, 2247810, 2248209, 2248584, 2248962, 2249362, 2249739, 2250100, 2250498]","[2241416, 2241815, 2242215, 2242615, 2243015, 2243416, 2243815, 2244215, 2244570, 2244944, 2245327, 2245720, 2246102, 2246480, 2246867, 2247271, 2247657, 2248062, 2248432, 2248845, 2249228, 2249603, 2249986, 2250364]",21,R,ITM,1.1,
5,400,trial,0,119,119,119,trial,"['S', 'S', 'S', 'S', 'S', 'S', 'S', 'C', 'C', 'C', 'C', 'C', 'C', 'C', 'C', 'C', 'C', 'C', 'C', 'C', 'C', 'C', 'C']","[2256100, 2256427, 2256839, 2257235, 2257631, 2258023, 2258408, 2258816, 2259219, 2259590, 2260002, 2260382, 2260787, 2261176, 2261574, 2261981, 2262361, 2262737, 2263127, 2263548, 2263939, 2264313, 2264731]","[2256232, 2256636, 2257034, 2257390, 2257805, 2258201, 2258646, 2259037, 2259404, 2259784, 2260161, 2260577, 2260969, 2261353, 2261764, 2262147, 2262517, 2262903, 2263310, 2263692, 2264071, 2264449, 2264846]","[2255669, 2256068, 2256468, 2256868, 2257268, 2257669, 2258068, 2258468, 2258841, 2259246, 2259616, 2260028, 2260408, 2260812, 2261201, 2261600, 2262007, 2262386, 2262763, 2263152, 2263575, 2263964, 2264339, 2264758]",21,R,ITM,1.1,
2,400,trial,0,120,120,120,trial,"['S', 'S', 'S', 'S', 'S', 'S', 'C', 'C', 'C', 'C', 'C', 'C', 'C', 'C', 'C', 'C', 'C', 'C', 'C', 'C', 'C', 'C']","[2270895, 2271325, 2271715, 2272099, 2272493, 2272896, 2273311, 2273693, 2274104, 2274491, 2274875, 2275257, 2275659, 2276036, 2276419, 2276812, 2277191, 2277563, 2277982, 2278371, 2278734, 2279134]","[2271097, 2271498, 2271878, 2272263, 2272681, 2273080, 2273498, 2273902, 2274304, 2274679, 2275059, 2275471, 2275836, 2276234, 2276625, 2276985, 2277361, 2277766, 2278146, 2278522, 2278907, 2279272]","[2270141, 2270541, 2270942, 2271341, 2271741, 2272141, 2272541, 2272942, 2273338, 2273720, 2274131, 2274518, 2274902, 2275284, 2275686, 2276064, 2276447, 2276839, 2277219, 2277591, 2278009, 2278398, 2278762, 2279160]",21,R,ITM,1.1,
3,400,trial,0,121,121,121,trial,"['S', 'S', 'S', 'S', 'S', 'S', 'C', 'C', 'C', 'C', 'C', 'C', 'C', 'C', 'C', 'C', 'C', 'C', 'C', 'C', 'C', 'C']","[2285635, 2286058, 2286440, 2286834, 2287246, 2287640, 2288036, 2288422, 2288829, 2289225, 2289618, 2289997, 2290395, 2290789, 2291140, 2291526, 2291923, 2292295, 2292690, 2293051, 2293419, 2293814]","[2285839, 2286217, 2286611, 2287023, 2287412, 2287833, 2288205, 2288620, 2288995, 2289419, 2289800, 2290206, 2290590, 2290971, 2291321, 2291708, 2292091, 2292464, 2292822, 2293194, 2293578, 2293981]","[2284876, 2285276, 2285675, 2286075, 2286475, 2286875, 2287276, 2287675, 2288062, 2288448, 2288855, 2289251, 2289644, 2290023, 2290420, 2290816, 2291166, 2291552, 2291949, 2292321, 2292716, 2293076, 2293444, 2293839]",21,R,ITM,1.1,
4,600,trial,0,122,122,122,trial,"['S', 'S', 'S', 'S', 'S', 'S', 'C', 'C', 'C', 'C', 'C', 'C', 'C', 'C', 'C', 'C', 'C', 'C', 'C', 'C', 'C', 'C', 'C']","[2300678, 2301258, 2301879, 2302456, 2303054, 2303632, 2304217, 2304835, 2305430, 2306026, 2306601, 2307209, 2307793, 2308400, 2308959, 2309559, 2310129, 2310702, 2310807, 2311281, 2311825, 2312410, 2312980]","[2300902, 2301531, 2302142, 2302707, 2303350, 2303929, 2304520, 2305117, 2305701, 2306289, 2306940, 2307516, 2308093, 2308694, 2309280, 2309825, 2310462, 2310727, 2310983, 2311562, 2312198, 2312753]","[2299515, 2300114, 2300715, 2301315, 2301915, 2302514, 2303114, 2303714, 2304242, 2304861, 2305456, 2306052, 2306628, 2307234, 2307819, 2308425, 2308984, 2309584, 2310155, 2310727, 2311307, 2311851, 2312435, 2313007]",21,R,ITM,1.1,
5,600,trial,0,123,123,123,trial,"['B', 'S', 'S', 'S', 'S', 'S', 'S', 'C', 'C', 'C', 'C', 'C', 'C', 'C', 'C', 'C', 'C', 'C', 'C', 'C', 'C', 'C', 'C']","[2318623, 2319731, 2320321, 2320978, 2321572, 2322200, 2322771, 2323368, 2323945, 2324527, 2325111, 2325699, 2326279, 2326852, 2327430, 2327999, 2328562, 2329123, 2329671, 2330221, 2330773, 2331364, 2331923]","[2319396, 2320024, 2320610, 2321239, 2321813, 2322476, 2323077, 2323645, 2324238, 2324818, 2325414, 2325970, 2326556, 2327126, 2327709, 2328294, 2328846, 2329389, 2329958, 2330497, 2331053, 2331609, 2332175]","[2318635, 2319235, 2319835, 2320434, 2321034, 2321634, 2322234, 2322834, 2323394, 2323971, 2324552, 2325137, 2325726, 2326305, 2326879, 2327455, 2328025, 2328588, 2329149, 2329697, 2330247, 2330800, 2331389, 2331949]",21,R,ITM,1.1,
3,600,trial,0,124,124,124,trial,"['B', 'S', 'S', 'S', 'S', 'S', 'S', 'C', 'C', 'C', 'C', 'C', 'C', 'C', 'C', 'C', 'C', 'C', 'C', 'C', 'C', 'C', 'C']","[2337645, 2338803, 2339419, 2339983, 2340580, 2341177, 2341763, 2342358, 2342955, 2343507, 2344091, 2344700, 2345251, 2345846, 2346411, 2346977, 2347565, 2348143, 2348681, 2349239, 2349835, 2350375, 2350985]","[2338450, 2339117, 2339737, 2340300, 2340876, 2341490, 2342078, 2342672, 2343258, 2343802, 2344394, 2344950, 2345554, 2346118, 2346705, 2347272, 2347819, 2348392, 2348997, 2349521, 2350082, 2350654, 2351220]","[2337657, 2338256, 2338856, 2339457, 2340057, 2340657, 2341256, 2341856, 2342383, 2342980, 2343533, 2344117, 2344726, 2345277, 2345872, 2346436, 2347002, 2347590, 2348169, 2348706, 2349264, 2349860, 2350401, 2351010]",21,R,ITM,1.1,
7,600,trial,0,125,125,125,trial,"['B', 'S', 'S', 'S', 'S', 'S', 'S', 'C', 'C', 'C', 'C', 'C', 'C', 'C', 'C', 'C', 'C', 'C', 'C', 'C', 'C', 'C', 'C']","[2356352, 2357547, 2358115, 2358717, 2359294, 2359882, 2360469, 2361069, 2361677, 2362256, 2362873, 2363446, 2364042, 2364588, 2365162, 2365751, 2366321, 2366929, 2367485, 2368054, 2368617, 2369196, 2369760]","[2357181, 2357814, 2358409, 2359007, 2359584, 2360180, 2360756, 2361344, 2361958, 2362560, 2363156, 2363731, 2364310, 2364887, 2365431, 2366038, 2366614, 2367170, 2367742, 2368324, 2368914, 2369471]","[2356365, 2356964, 2357564, 2358164, 2358764, 2359364, 2359964, 2360564, 2361097, 2361704, 2362283, 2362901, 2363472, 2364068, 2364615, 2365189, 2365777, 2366349, 2366957, 2367513, 2368081, 2368644, 2369223, 2369786]",21,R,ITM,1.1,
