octave,ioi,event,.thisRepN,.thisTrialN,.thisN,.thisIndex,event,tap_types,tap_times,release_times,tone_times,subject,handedness,experiment,version,
,,SPR,0,-1,-1,0,SPR,"['P', 'P', 'P', 'P', 'P', 'P', 'P', 'P', 'P', 'P', 'P', 'P', 'P', 'P', 'P', 'P', 'P', 'P', 'P', 'P', 'P', 'P', 'P', 'P', 'P', 'P', 'P', 'P', 'P', 'P']","[37387, 37957, 38534, 39124, 39769, 40358, 40931, 41533, 42153, 42799, 43382, 43937, 44552, 45155, 45752, 46352, 46913, 47537, 48163, 48776, 49370, 49975, 50567, 51134, 51716, 52306, 52896, 53454, 53977, 54530]","[37633, 38187, 38752, 39366, 39964, 40584, 41127, 41738, 42333, 42957, 43547, 44105, 44696, 45264, 45870, 46462, 47033, 47657, 48263, 48883, 49489, 50112, 50723, 51257, 51865, 52422, 53042, 53592, 54119, 54661]",,46,R,ITM,1.1,
3,500,practice,0,0,0,0,practice,"['S', 'S', 'S', 'S', 'S', 'S', 'S', 'C', 'C', 'C', 'C', 'C', 'C', 'C', 'C', 'C', 'C', 'C', 'C', 'C', 'C', 'C', 'C']","[146847, 147365, 147874, 148372, 148921, 149366, 149842, 150319, 150773, 151268, 151780, 152283, 152774, 153243, 153709, 154213, 154716, 155202, 155695, 156174, 156677, 157164, 157655]","[146921, 147467, 147983, 148477, 149015, 149465, 149920, 150398, 150863, 151370, 151876, 152371, 152860, 153342, 153794, 154299, 154800, 155290, 155792, 156267, 156761, 157244, 157727]","[146403, 146904, 147403, 147903, 148403, 148903, 149403, 149903, 150344, 150799, 151293, 151805, 152308, 152800, 153269, 153736, 154238, 154741, 155228, 155720, 156199, 156702, 157190, 157680]",46,R,ITM,1.1,
6,500,practice,0,1,1,1,practice,"['S', 'S', 'S', 'S', 'C', 'C', 'C', 'C', 'C', 'C', 'C', 'C', 'C', 'C', 'C', 'C', 'C', 'C', 'C', 'C']","[165325, 165797, 166303, 166805, 167317, 167811, 168296, 168760, 169264, 169751, 170260, 170750, 171247, 171731, 172230, 172720, 173206, 173689, 174190, 174661]","[165404, 165899, 166407, 166902, 167421, 167899, 168396, 168862, 169368, 169858, 170349, 170850, 171326, 171829, 172311, 172811, 173293, 173797, 174288, 174758]","[163354, 163853, 164354, 164853, 165353, 165854, 166354, 166854, 167345, 167838, 168324, 168786, 169291, 169778, 170287, 170776, 171274, 171758, 172258, 172746, 173233, 173716, 174217, 174688]",46,R,ITM,1.1,
7,500,practice,0,2,2,2,practice,"['S', 'S', 'S', 'S', 'S', 'S', 'C', 'C', 'C', 'C', 'C', 'C', 'C', 'C', 'C', 'C', 'C', 'C', 'C', 'C', 'C', 'C']","[181283, 181812, 182312, 182789, 183312, 183821, 184353, 184878, 185372, 185864, 186352, 186869, 187368, 187884, 188393, 188887, 189352, 189856, 190367, 190870, 191370, 191885]","[181400, 181920, 182418, 182903, 183414, 183944, 184478, 184998, 185510, 185993, 186470, 187008, 187508, 188005, 188508, 188997, 189492, 190031, 190501, 190991, 191519, 192024]","[180384, 180883, 181384, 181884, 182384, 182884, 183385, 183884, 184380, 184904, 185399, 185890, 186379, 186897, 187395, 187911, 188421, 188914, 189380, 189883, 190395, 190898, 191396, 191912]",46,R,ITM,1.1,
5,500,practice,0,3,3,3,practice,"['S', 'S', 'S', 'S', 'C', 'C', 'C', 'C', 'C', 'C', 'C', 'C', 'C', 'C', 'C', 'C', 'C', 'C', 'C', 'C']","[199161, 199641, 200134, 200654, 201145, 201668, 202173, 202673, 203174, 203687, 204182, 204698, 205205, 205717, 206228, 206713, 207229, 207734, 208273, 208755]","[199242, 199750, 200239, 200756, 201259, 201790, 202326, 202831, 203327, 203854, 204350, 204839, 205340, 205874, 206394, 206883, 207396, 207889, 208416, 208912]","[197214, 197714, 198214, 198714, 199215, 199714, 200214, 200714, 201170, 201694, 202199, 202698, 203200, 203714, 204208, 204725, 205231, 205743, 206254, 206740, 207255, 207761, 208299, 208781]",46,R,ITM,1.1,
4,500,practice,0,4,4,4,practice,"['S', 'S', 'S', 'S', 'C', 'C', 'C', 'C', 'C', 'C', 'C', 'C', 'C', 'C', 'C', 'C', 'C', 'C', 'C', 'C']","[216039, 216551, 217030, 217566, 218070, 218579, 219084, 219585, 220069, 220589, 221094, 221600, 222094, 222592, 223108, 223625, 224131, 224622, 225118, 225642]","[216135, 216665, 217141, 217681, 218198, 218708, 219216, 219740, 220235, 220749, 221268, 221782, 222332, 222804, 223288, 223797, 224309, 224803, 225291, 225810]","[214110, 214609, 215109, 215609, 216110, 216609, 217109, 217609, 218095, 218605, 219111, 219611, 220095, 220614, 221120, 221626, 222119, 222617, 223133, 223650, 224156, 224648, 225143, 225668]",46,R,ITM,1.1,
2,500,practice,0,5,5,5,practice,"['S', 'S', 'S', 'S', 'C', 'C', 'C', 'C', 'C', 'C', 'C', 'C', 'C', 'C', 'C', 'C', 'C', 'C', 'C', 'C']","[233248, 233736, 234248, 234755, 235264, 235754, 236276, 236779, 237288, 237794, 238288, 238804, 239306, 239828, 240334, 240827, 241310, 241814, 242320, 242835]","[233360, 233880, 234370, 234883, 235408, 235910, 236424, 236906, 237403, 237895, 238409, 238921, 239414, 239916, 240456, 240950, 241443, 241915, 242426, 242932]","[231304, 231803, 232303, 232802, 233304, 233803, 234303, 234803, 235290, 235781, 236304, 236807, 237316, 237821, 238316, 238832, 239334, 239854, 240362, 240854, 241338, 241841, 242347, 242862]",46,R,ITM,1.1,
2,600,trial,0,6,6,6,trial,"['S', 'S', 'S', 'S', 'C', 'C', 'C', 'C', 'C', 'C', 'C', 'C', 'C', 'C', 'C', 'C', 'C', 'C', 'C', 'C']","[257235, 257808, 258442, 259009, 259585, 260209, 260828, 261419, 262043, 262646, 263259, 263868, 264467, 265074, 265677, 266320, 266917, 267531, 268131, 268727]","[257370, 257959, 258610, 259213, 259744, 260369, 261009, 261585, 262179, 262830, 263445, 264031, 264619, 265243, 265825, 266434, 267061, 267660, 268281, 268861]","[254823, 255422, 256023, 256622, 257223, 257822, 258422, 259023, 259612, 260237, 260854, 261445, 262071, 262674, 263286, 263895, 264495, 265101, 265704, 266347, 266944, 267558, 268157, 268754]",46,R,ITM,1.1,
4,400,trial,0,7,7,7,trial,"['S', 'S', 'S', 'S', 'C', 'C', 'C', 'C', 'C', 'C', 'C', 'C', 'C', 'C', 'C', 'C', 'C', 'C', 'C', 'C']","[275561, 275945, 276334, 276754, 277130, 277517, 277951, 278356, 278767, 279194, 279645, 280061, 280465, 280894, 281328, 281742, 282168, 282596, 283020, 283442]","[275639, 276035, 276419, 276843, 277215, 277609, 278062, 278473, 278893, 279285, 279741, 280152, 280565, 280982, 281418, 281844, 282281, 282703, 283141, 283556]","[274035, 274436, 274835, 275235, 275635, 276035, 276435, 276835, 277155, 277542, 277977, 278382, 278793, 279220, 279670, 280087, 280491, 280920, 281354, 281767, 282193, 282621, 283045, 283467]",46,R,ITM,1.1,
6,400,trial,0,8,8,8,trial,"['S', 'S', 'S', 'S', 'C', 'C', 'C', 'C', 'C', 'C', 'C', 'C', 'C', 'C', 'C', 'C', 'C', 'C', 'C', 'C']","[290575, 290983, 291379, 291783, 292183, 292574, 292981, 293391, 293772, 294181, 294575, 294982, 295380, 295788, 296181, 296612, 296983, 297407, 297802, 298199]","[290660, 291081, 291453, 291869, 292257, 292674, 293083, 293489, 293881, 294285, 294695, 295096, 295480, 295898, 296310, 296716, 297097, 297498, 297918, 298304]","[289034, 289433, 289833, 290233, 290633, 291034, 291433, 291833, 292209, 292600, 293008, 293419, 293798, 294208, 294601, 295009, 295408, 295816, 296209, 296639, 297010, 297434, 297830, 298225]",46,R,ITM,1.1,
3,400,trial,0,9,9,9,trial,"['S', 'S', 'S', 'S', 'C', 'C', 'C', 'C', 'C', 'C', 'C', 'C', 'C', 'C', 'C', 'C', 'C', 'C', 'C', 'C']","[305391, 305772, 306176, 306607, 307002, 307394, 307804, 308210, 308619, 309020, 309417, 309814, 310226, 310637, 311035, 311469, 311878, 312293, 312690, 313096]","[305466, 305854, 306249, 306686, 307090, 307481, 307901, 308318, 308721, 309116, 309533, 309935, 310345, 310745, 311151, 311581, 311970, 312389, 312770, 313185]","[303867, 304266, 304666, 305067, 305466, 305866, 306267, 306666, 307027, 307420, 307829, 308236, 308644, 309046, 309442, 309840, 310252, 310663, 311061, 311494, 311904, 312318, 312716, 313121]",46,R,ITM,1.1,
6,400,trial,0,10,10,10,trial,"['S', 'S', 'S', 'S', 'C', 'C', 'C', 'C', 'C', 'C', 'C', 'C', 'C', 'C', 'C', 'C', 'C', 'C', 'C', 'C']","[320328, 320716, 321111, 321497, 321895, 322284, 322704, 323112, 323513, 323916, 324328, 324728, 325146, 325566, 325965, 326372, 326801, 327202, 327587, 327984]","[320415, 320795, 321179, 321582, 321995, 322359, 322791, 323214, 323603, 324006, 324407, 324816, 325215, 325649, 326044, 326457, 326856, 327277, 327663, 328058]","[318779, 319179, 319580, 319979, 320379, 320779, 321179, 321580, 321923, 322311, 322731, 323139, 323539, 323943, 324355, 324755, 325174, 325593, 325993, 326398, 326829, 327229, 327615, 328010]",46,R,ITM,1.1,
2,600,trial,0,11,11,11,trial,"['S', 'S', 'S', 'S', 'C', 'C', 'C', 'C', 'C', 'C', 'C', 'C', 'C', 'C', 'C', 'C', 'C', 'C', 'C', 'C']","[335975, 336569, 337155, 337779, 338351, 338954, 339576, 340161, 340731, 341304, 341901, 342510, 343076, 343642, 344228, 344835, 345404, 346009, 346624, 347209]","[336089, 336668, 337280, 337897, 338468, 339077, 339681, 340264, 340838, 341420, 342005, 342617, 343177, 343772, 344385, 344973, 345530, 346117, 346721, 347321]","[333594, 334194, 334793, 335393, 335994, 336593, 337195, 337794, 338378, 338981, 339604, 340189, 340758, 341331, 341928, 342537, 343103, 343669, 344255, 344862, 345431, 346037, 346650, 347236]",46,R,ITM,1.1,
5,400,trial,0,12,12,12,trial,"['S', 'S', 'S', 'S', 'C', 'C', 'C', 'C', 'C', 'C', 'C', 'C', 'C', 'C', 'C', 'C', 'C', 'C', 'C', 'C']","[354146, 354523, 354905, 355320, 355734, 356134, 356546, 356967, 357353, 357769, 358152, 358560, 358940, 359345, 359762, 360169, 360568, 360974, 361362, 361772]","[354220, 354590, 355005, 355412, 355815, 356231, 356658, 357069, 357466, 357884, 358272, 358653, 359008, 359448, 359862, 360266, 360650, 361059, 361474, 361862]","[352605, 353005, 353405, 353805, 354205, 354606, 355005, 355405, 355761, 356160, 356572, 356993, 357380, 357794, 358178, 358586, 358966, 359370, 359788, 360195, 360594, 360999, 361388, 361797]",46,R,ITM,1.1,
3,600,trial,0,13,13,13,trial,"['S', 'S', 'S', 'S', 'C', 'C', 'C', 'C', 'C', 'C', 'C', 'C', 'C', 'C', 'C', 'C', 'C', 'C', 'C', 'C']","[369591, 370187, 370777, 371380, 371993, 372595, 373194, 373790, 374374, 374985, 375549, 376129, 376668, 377282, 377894, 378476, 379045, 379633, 380223, 380790]","[369695, 370299, 370881, 371475, 372082, 372699, 373300, 373906, 374499, 375083, 375651, 376229, 376776, 377410, 378035, 378616, 379188, 379773, 380360, 380933]","[367244, 367843, 368443, 369043, 369643, 370243, 370843, 371443, 372019, 372621, 373220, 373816, 374400, 375011, 375575, 376155, 376693, 377308, 377920, 378502, 379071, 379659, 380249, 380816]",46,R,ITM,1.1,
5,600,trial,0,14,14,14,trial,"['S', 'S', 'S', 'S', 'C', 'C', 'C', 'C', 'C', 'C', 'C', 'C', 'C', 'C', 'C', 'C', 'C', 'C', 'C', 'C']","[388512, 389095, 389709, 390336, 390941, 391517, 392126, 392690, 393282, 393864, 394464, 395068, 395670, 396235, 396838, 397445, 398039, 398633, 399198, 399802]","[388631, 389215, 389830, 390452, 391047, 391643, 392249, 392816, 393420, 394014, 394602, 395226, 395845, 396403, 397028, 397611, 398199, 398797, 399389, 399949]","[386167, 386766, 387366, 387966, 388567, 389167, 389767, 390367, 390967, 391543, 392152, 392716, 393308, 393889, 394490, 395094, 395697, 396262, 396864, 397470, 398064, 398659, 399224, 399827]",46,R,ITM,1.1,
3,600,trial,0,15,15,15,trial,"['S', 'S', 'S', 'S', 'S', 'S', 'S', 'S', 'C', 'C', 'C', 'C', 'C', 'C', 'C', 'C', 'C', 'C', 'C', 'C', 'C', 'C', 'C', 'C']","[405381, 405862, 406434, 407017, 407602, 408184, 408809, 409402, 409979, 410612, 411202, 411809, 412412, 413016, 413609, 414166, 414739, 415383, 415973, 416580, 417162, 417777, 418367, 418987]","[405498, 405994, 406628, 407213, 407776, 408357, 408968, 409594, 410216, 410850, 411440, 412044, 412613, 413216, 413805, 414379, 414951, 415590, 416190, 416752, 417316, 417938, 418542, 419131]","[405227, 405826, 406426, 407026, 407626, 408226, 408826, 409426, 410005, 410638, 411228, 411835, 412438, 413041, 413635, 414191, 414765, 415409, 415998, 416606, 417187, 417803, 418393, 419012]",46,R,ITM,1.1,
7,400,trial,0,16,16,16,trial,"['S', 'S', 'S', 'S', 'S', 'S', 'S', 'S', 'C', 'C', 'C', 'C', 'C', 'C', 'C', 'C', 'C', 'C', 'C', 'C', 'C', 'C', 'C', 'C']","[424709, 424979, 425244, 425600, 426012, 426426, 426848, 427259, 427661, 428084, 428513, 428961, 429366, 429782, 430188, 430614, 431041, 431496, 431910, 432309, 432703, 433140, 433544, 433969]","[424748, 425068, 425356, 425717, 426129, 426554, 426966, 427367, 427791, 428217, 428663, 429084, 429513, 429914, 430321, 430751, 431197, 431606, 432029, 432430, 432816, 433253, 433679, 434105]","[424472, 424871, 425271, 425671, 426072, 426471, 426871, 427272, 427688, 428110, 428539, 428989, 429393, 429808, 430216, 430642, 431069, 431522, 431938, 432335, 432731, 433167, 433570, 433995]",46,R,ITM,1.1,
2,400,trial,0,17,17,17,trial,"['S', 'S', 'S', 'S', 'S', 'S', 'S', 'S', 'C', 'C', 'C', 'C', 'C', 'C', 'C', 'C', 'C', 'C', 'C', 'C', 'C', 'C', 'C', 'C']","[439525, 439875, 440141, 440479, 440862, 441274, 441680, 442110, 442501, 442891, 443309, 443706, 444127, 444538, 444936, 445350, 445748, 446160, 446579, 446981, 447378, 447794, 448207, 448604]","[439616, 439962, 440235, 440584, 440977, 441423, 441805, 442231, 442639, 443038, 443462, 443863, 444252, 444655, 445062, 445471, 445883, 446289, 446720, 447125, 447513, 447937, 448369, 448733]","[439342, 439741, 440141, 440542, 440941, 441340, 441740, 442141, 442527, 442918, 443336, 443734, 444153, 444566, 444962, 445378, 445774, 446188, 446607, 447008, 447406, 447820, 448234, 448630]",46,R,ITM,1.1,
7,600,trial,0,18,18,18,trial,"['S', 'S', 'S', 'S', 'S', 'S', 'S', 'S', 'C', 'C', 'C', 'C', 'C', 'C', 'C', 'C', 'C', 'C', 'C', 'C', 'C', 'C', 'C', 'C']","[456667, 456952, 457663, 458298, 458889, 459478, 460077, 460677, 461282, 461872, 462496, 463071, 463666, 464241, 464856, 465439, 466030, 466637, 467257, 467851, 468423, 469020, 469612, 470178]","[456739, 457088, 457792, 458424, 459052, 459638, 460234, 460821, 461447, 462062, 462670, 463290, 463913, 464494, 465087, 465650, 466233, 466800, 467372, 467965, 468542, 469132, 469711, 470283]","[456488, 457088, 457688, 458288, 458888, 459488, 460088, 460688, 461308, 461898, 462523, 463097, 463692, 464268, 464882, 465466, 466058, 466664, 467283, 467877, 468451, 469047, 469639, 470205]",46,R,ITM,1.1,
6,600,trial,0,19,19,19,trial,"['S', 'S', 'S', 'S', 'S', 'S', 'S', 'S', 'C', 'C', 'C', 'C', 'C', 'C', 'C', 'C', 'C', 'C', 'C', 'C', 'C', 'C', 'C', 'C']","[475908, 476267, 476974, 477552, 478152, 478774, 479322, 479938, 480543, 481133, 481740, 482360, 482951, 483548, 484150, 484772, 485357, 485929, 486531, 487155, 487759, 488330, 488935, 489512]","[476016, 476407, 477088, 477660, 478284, 478896, 479459, 480077, 480664, 481254, 481861, 482458, 483086, 483646, 484279, 484897, 485467, 486051, 486672, 487280, 487889, 488462, 489049, 489633]","[475774, 476374, 476974, 477574, 478174, 478774, 479374, 479974, 480571, 481161, 481767, 482387, 482977, 483574, 484176, 484799, 485385, 485957, 486558, 487182, 487787, 488357, 488962, 489540]",46,R,ITM,1.1,
4,600,trial,0,20,20,20,trial,"['S', 'S', 'S', 'S', 'S', 'S', 'S', 'S', 'C', 'C', 'C', 'C', 'C', 'C', 'C', 'C', 'C', 'C', 'C', 'C', 'C', 'C', 'C', 'C']","[495304, 495661, 496306, 496917, 497512, 498111, 498734, 499289, 499908, 500498, 501095, 501700, 502301, 502964, 503581, 504169, 504717, 505271, 505870, 506469, 507027, 507642, 508219, 508806]","[495396, 495807, 496417, 497027, 497631, 498231, 498851, 499411, 500028, 500621, 501218, 501818, 502456, 503080, 503685, 504303, 504846, 505430, 506014, 506585, 507153, 507767, 508372, 508948]","[495125, 495725, 496325, 496925, 497525, 498125, 498725, 499325, 499934, 500524, 501121, 501727, 502328, 502989, 503607, 504195, 504742, 505296, 505895, 506494, 507053, 507668, 508244, 508831]",46,R,ITM,1.1,
7,600,trial,0,21,21,21,trial,"['S', 'S', 'S', 'S', 'C', 'C', 'C', 'C', 'C', 'C', 'C', 'C', 'C', 'C', 'C', 'C', 'C', 'C', 'C', 'C']","[516556, 517145, 517707, 518362, 518957, 519536, 520128, 520699, 521327, 521914, 522499, 523079, 523674, 524241, 524831, 525408, 525975, 526564, 527136, 527735]","[516645, 517249, 517809, 518451, 519047, 519616, 520195, 520790, 521420, 522019, 522585, 523197, 523796, 524359, 524923, 525533, 526100, 526676, 527278, 527889]","[514192, 514791, 515391, 515991, 516591, 517191, 517791, 518391, 518983, 519563, 520156, 520727, 521354, 521942, 522526, 523107, 523701, 524269, 524858, 525434, 526002, 526590, 527163, 527762]",46,R,ITM,1.1,
4,400,trial,0,22,22,22,trial,"['S', 'S', 'S', 'S', 'S', 'S', 'S', 'C', 'C', 'C', 'C', 'C', 'C', 'C', 'C', 'C', 'C', 'C', 'C', 'C', 'C', 'C', 'C']","[533360, 533712, 534231, 534661, 535036, 535444, 535845, 536257, 536610, 536990, 537390, 537810, 538224, 538612, 539004, 539406, 539810, 540178, 540579, 540968, 541379, 541797, 542191]","[533475, 533808, 534320, 534738, 535137, 535532, 535924, 536350, 536692, 537117, 537499, 537913, 538318, 538736, 539120, 539521, 539919, 540301, 540699, 541115, 541534, 541918, 542331]","[533177, 533576, 533977, 534376, 534776, 535176, 535576, 535976, 536283, 536636, 537017, 537415, 537837, 538250, 538638, 539031, 539432, 539836, 540204, 540605, 540995, 541405, 541822, 542217]",46,R,ITM,1.1,
2,400,trial,0,23,23,23,trial,"['S', 'S', 'S', 'S', 'S', 'S', 'S', 'C', 'C', 'C', 'C', 'C', 'C', 'C', 'C', 'C', 'C', 'C', 'C', 'C', 'C', 'C', 'C']","[547942, 548289, 548786, 549219, 549629, 550061, 550472, 550907, 551323, 551761, 552157, 552568, 552961, 553342, 553768, 554166, 554559, 554975, 555366, 555746, 556145, 556550, 556951]","[548063, 548387, 548889, 549313, 549705, 550142, 550573, 551003, 551433, 551872, 552255, 552676, 553083, 553468, 553868, 554288, 554668, 555088, 555491, 555880, 556273, 556685, 557074]","[547764, 548164, 548564, 548964, 549364, 549765, 550164, 550564, 550934, 551351, 551789, 552184, 552595, 552987, 553368, 553796, 554192, 554586, 555002, 555394, 555772, 556172, 556576, 556978]",46,R,ITM,1.1,
5,600,trial,0,24,24,24,trial,"['S', 'S', 'S', 'S', 'S', 'S', 'S', 'C', 'C', 'C', 'C', 'C', 'C', 'C', 'C', 'C', 'C', 'C', 'C', 'C', 'C', 'C', 'C']","[562735, 563466, 564062, 564641, 565298, 565906, 566538, 567066, 567666, 568221, 568888, 569536, 570125, 570708, 571272, 571840, 572427, 572968, 573568, 574163, 574750, 575335, 575881]","[562876, 563629, 564203, 564805, 565468, 566070, 566719, 567300, 567841, 568469, 569079, 569697, 570337, 570903, 571498, 572064, 572652, 573236, 573844, 574446, 575069, 575598, 576092]","[562307, 562906, 563506, 564106, 564706, 565306, 565906, 566506, 567092, 567692, 568248, 568913, 569563, 570150, 570735, 571298, 571866, 572452, 572994, 573594, 574189, 574776, 575361, 575906]",46,R,ITM,1.1,
4,600,trial,0,25,25,25,trial,"['S', 'S', 'S', 'S', 'S', 'S', 'S', 'S', 'C', 'C', 'C', 'C', 'C', 'C', 'C', 'C', 'C', 'C', 'C', 'C', 'C', 'C', 'C', 'C']","[581830, 582142, 582788, 583417, 584010, 584599, 585194, 585826, 586470, 587073, 587678, 588267, 588890, 589514, 590094, 590705, 591305, 591867, 592487, 593114, 593687, 594265, 594881, 595425]","[581905, 582251, 582881, 583484, 584088, 584662, 585277, 585905, 586549, 587172, 587766, 588356, 588979, 589601, 590196, 590793, 591398, 591953, 592595, 593228, 593821, 594422, 594993, 595547]","[581671, 582272, 582872, 583472, 584071, 584671, 585271, 585871, 586496, 587099, 587704, 588293, 588915, 589540, 590119, 590732, 591332, 591894, 592513, 593139, 593713, 594290, 594907, 595450]",46,R,ITM,1.1,
7,400,trial,0,26,26,26,trial,"['S', 'S', 'S', 'S', 'S', 'S', 'S', 'C', 'C', 'C', 'C', 'C', 'C', 'C', 'C', 'C', 'C', 'C', 'C', 'C', 'C', 'C', 'C']","[601418, 601760, 602138, 602539, 602968, 603414, 603849, 604292, 604685, 605105, 605535, 605967, 606388, 606829, 607248, 607692, 608128, 608552, 608987, 609423, 609861, 610325, 610784]","[601492, 601834, 602220, 602609, 603042, 603489, 603912, 604366, 604765, 605188, 605640, 606072, 606485, 606950, 607374, 607773, 608223, 608646, 609096, 609520, 609958, 610418, 610872]","[601068, 601467, 601867, 602267, 602668, 603067, 603467, 603868, 604319, 604711, 605131, 605562, 605993, 606414, 606856, 607275, 607719, 608154, 608579, 609014, 609449, 609888, 610353, 610811]",46,R,ITM,1.1,
5,400,trial,0,27,27,27,trial,"['S', 'S', 'S', 'S', 'S', 'S', 'S', 'S', 'C', 'C', 'C', 'C', 'C', 'C', 'C', 'C', 'C', 'C', 'C', 'C', 'C', 'C', 'C', 'C']","[616719, 616977, 617326, 617713, 618130, 618522, 618932, 619344, 619731, 620129, 620516, 620920, 621302, 621721, 622127, 622521, 622918, 623338, 623758, 624178, 624584, 625018, 625419, 625823]","[616782, 617064, 617433, 617832, 618256, 618665, 619055, 619465, 619863, 620255, 620637, 621056, 621450, 621876, 622256, 622650, 623050, 623463, 623866, 624280, 624693, 625117, 625511, 625934]","[616560, 616961, 617360, 617760, 618161, 618560, 618960, 619360, 619757, 620154, 620541, 620947, 621328, 621747, 622152, 622546, 622944, 623365, 623783, 624203, 624611, 625045, 625445, 625849]",46,R,ITM,1.1,
3,400,trial,0,28,28,28,trial,"['S', 'S', 'S', 'S', 'S', 'S', 'S', 'S', 'C', 'C', 'C', 'C', 'C', 'C', 'C', 'C', 'C', 'C', 'C', 'C', 'C', 'C', 'C', 'C']","[631652, 631943, 632211, 632612, 633000, 633389, 633797, 634201, 634629, 635029, 635470, 635875, 636277, 636688, 637079, 637497, 637929, 638336, 638769, 639150, 639569, 639988, 640369, 640779]","[631726, 632023, 632338, 632708, 633097, 633480, 633893, 634309, 634713, 635140, 635543, 635974, 636382, 636790, 637188, 637607, 638049, 638445, 638860, 639290, 639712, 640108, 640482, 640892]","[631451, 631852, 632251, 632651, 633052, 633451, 633851, 634251, 634654, 635055, 635496, 635900, 636303, 636713, 637105, 637522, 637955, 638362, 638794, 639175, 639595, 640014, 640395, 640804]",46,R,ITM,1.1,
6,600,trial,0,29,29,29,trial,"['S', 'S', 'S', 'S', 'S', 'S', 'S', 'S', 'C', 'C', 'C', 'C', 'C', 'C', 'C', 'C', 'C', 'C', 'C', 'C', 'C', 'C', 'C', 'C']","[646250, 646516, 647286, 647897, 648480, 649054, 649689, 650281, 650889, 651463, 652055, 652652, 653287, 653871, 654452, 655030, 655623, 656176, 656758, 657367, 657935, 658521, 659083, 659690]","[646310, 646619, 647414, 648038, 648619, 649192, 649851, 650458, 651049, 651613, 652225, 652830, 653436, 654024, 654614, 655156, 655769, 656328, 656905, 657488, 658057, 658639, 659224, 659820]","[646109, 646708, 647308, 647908, 648508, 649108, 649708, 650308, 650916, 651490, 652083, 652679, 653315, 653898, 654480, 655056, 655650, 656203, 656785, 657394, 657961, 658547, 659109, 659717]",46,R,ITM,1.1,
6,400,trial,0,30,30,30,trial,"['S', 'S', 'S', 'S', 'S', 'S', 'S', 'C', 'C', 'C', 'C', 'C', 'C', 'C', 'C', 'C', 'C', 'C', 'C', 'C', 'C', 'C', 'C']","[668791, 669143, 669623, 670064, 670486, 670877, 671267, 671705, 672056, 672449, 672875, 673300, 673719, 674114, 674529, 674947, 675381, 675793, 676196, 676584, 676974, 677384, 677789]","[668879, 669236, 669708, 670156, 670585, 670912, 671362, 671780, 672163, 672586, 673024, 673433, 673861, 674252, 674669, 675083, 675504, 675888, 676311, 676694, 677104, 677518, 677937]","[668609, 669009, 669409, 669809, 670210, 670609, 671009, 671410, 671731, 672082, 672477, 672902, 673328, 673745, 674141, 674556, 674973, 675407, 675820, 676222, 676611, 677001, 677410, 677816]",46,R,ITM,1.1,
3,600,trial,0,31,31,31,trial,"['S', 'S', 'S', 'S', 'S', 'S', 'S', 'S', 'C', 'C', 'C', 'C', 'C', 'C', 'C', 'C', 'C', 'C', 'C', 'C', 'C', 'C', 'C', 'C']","[683528, 683942, 684690, 685276, 685875, 686474, 687080, 687690, 688250, 688848, 689446, 690018, 690622, 691194, 691772, 692341, 692903, 693456, 694051, 694638, 695208, 695790, 696339, 696879]","[683651, 684065, 684789, 685393, 685975, 686593, 687195, 687793, 688370, 688951, 689561, 690135, 690722, 691305, 691875, 692439, 693028, 693602, 694173, 694738, 695299, 695816, 696421, 696969]","[683522, 684122, 684722, 685322, 685922, 686522, 687122, 687722, 688276, 688874, 689472, 690043, 690648, 691220, 691798, 692367, 692929, 693482, 694077, 694664, 695234, 695816, 696365, 696904]",46,R,ITM,1.1,
7,400,trial,0,32,32,32,trial,"['S', 'S', 'S', 'S', 'S', 'S', 'S', 'C', 'C', 'C', 'C', 'C', 'C', 'C', 'C', 'C', 'C', 'C', 'C', 'C', 'C', 'C', 'C']","[702667, 703004, 703405, 703823, 704250, 704673, 705087, 705461, 705872, 706315, 706722, 707131, 707537, 707974, 708399, 708804, 709218, 709648, 710076, 710500, 710914, 711345, 711743]","[702757, 703093, 703503, 703907, 704352, 704778, 705173, 705551, 705981, 706405, 706833, 707239, 707642, 708057, 708485, 708895, 709316, 709746, 710175, 710604, 711011, 711445, 711833]","[702287, 702686, 703086, 703486, 703886, 704286, 704687, 705086, 705488, 705899, 706342, 706750, 707158, 707564, 708000, 708425, 708831, 709245, 709676, 710104, 710528, 710941, 711371, 711771]",46,R,ITM,1.1,
6,400,trial,0,33,33,33,trial,"['S', 'S', 'S', 'S', 'C', 'C', 'C', 'C', 'C', 'C', 'C', 'C', 'C', 'C', 'C', 'C', 'C', 'C', 'C', 'C']","[718966, 719354, 719735, 720126, 720559, 720939, 721355, 721762, 722160, 722566, 722962, 723351, 723776, 724192, 724575, 724969, 725365, 725760, 726171, 726559]","[719038, 719436, 719823, 720205, 720637, 721021, 721467, 721871, 722250, 722667, 723074, 723456, 723862, 724291, 724680, 725084, 725481, 725883, 726272, 726682]","[717424, 717824, 718223, 718623, 719024, 719423, 719823, 720223, 720585, 720966, 721382, 721789, 722188, 722592, 722989, 723379, 723803, 724218, 724602, 724996, 725392, 725787, 726198, 726586]",46,R,ITM,1.1,
5,600,trial,0,34,34,34,trial,"['S', 'S', 'S', 'S', 'S', 'S', 'S', 'C', 'C', 'C', 'C', 'C', 'C', 'C', 'C', 'C', 'C', 'C', 'C', 'C', 'C', 'C', 'C']","[732479, 733260, 733885, 734467, 735039, 735668, 736263, 736860, 737476, 738114, 738684, 739298, 739881, 740441, 741028, 741640, 742219, 742794, 743387, 743954, 744545, 745153, 745701]","[732560, 733336, 733964, 734547, 735115, 735755, 736336, 736967, 737585, 738231, 738839, 739457, 740047, 740645, 741237, 741825, 742404, 742974, 743582, 744143, 744774, 745347, 745873]","[732144, 732744, 733344, 733944, 734544, 735144, 735745, 736345, 736885, 737502, 738140, 738710, 739323, 739906, 740466, 741054, 741665, 742245, 742820, 743413, 743981, 744570, 745179, 745726]",46,R,ITM,1.1,
4,600,trial,0,35,35,35,trial,"['S', 'S', 'S', 'S', 'S', 'S', 'S', 'S', 'C', 'C', 'C', 'C', 'C', 'C', 'C', 'C', 'C', 'C', 'C', 'C', 'C', 'C', 'C', 'C']","[751525, 751874, 752508, 753103, 753673, 754241, 754848, 755510, 756124, 756692, 757381, 757977, 758532, 759124, 759699, 760286, 760839, 761407, 762012, 762583, 763183, 763710, 764319, 764902]","[751600, 752073, 752693, 753199, 753773, 754335, 754957, 755592, 756220, 756808, 757458, 758062, 758645, 759213, 759787, 760388, 760941, 761493, 762109, 762704, 763282, 763826, 764420, 765004]","[751349, 751948, 752548, 753148, 753748, 754349, 754949, 755549, 756150, 756719, 757406, 758002, 758557, 759150, 759726, 760311, 760865, 761433, 762038, 762608, 763208, 763736, 764346, 764928]",46,R,ITM,1.1,
5,400,trial,0,36,36,36,trial,"['S', 'S', 'S', 'S', 'S', 'S', 'S', 'S', 'C', 'C', 'C', 'C', 'C', 'C', 'C', 'C', 'C', 'C', 'C', 'C', 'C', 'C', 'C', 'C']","[770401, 770675, 770989, 771365, 771771, 772178, 772584, 772983, 773371, 773751, 774164, 774577, 774996, 775376, 775767, 776182, 776573, 776973, 777389, 777803, 778215, 778607, 779008, 779414]","[770421, 770762, 771075, 771460, 771874, 772269, 772689, 773084, 773493, 773874, 774278, 774689, 775102, 775504, 775897, 776310, 776716, 777116, 777508, 777924, 778346, 778732, 779136, 779533]","[770226, 770624, 771024, 771424, 771824, 772225, 772624, 773024, 773397, 773777, 774190, 774602, 775022, 775402, 775793, 776208, 776599, 776998, 777415, 777829, 778241, 778633, 779033, 779440]",46,R,ITM,1.1,
2,400,trial,0,37,37,37,trial,"['S', 'S', 'S', 'S', 'S', 'S', 'S', 'C', 'C', 'C', 'C', 'C', 'C', 'C', 'C', 'C', 'C', 'C', 'C', 'C', 'C', 'C', 'C']","[785106, 785496, 785985, 786418, 786876, 787301, 787680, 788109, 788543, 788935, 789346, 789751, 790174, 790605, 791015, 791428, 791828, 792222, 792637, 793068, 793544, 793952, 794349]","[785239, 785626, 786062, 786494, 786948, 787376, 787786, 788198, 788641, 789048, 789474, 789897, 790296, 790738, 791117, 791534, 791939, 792355, 792776, 793190, 793627, 794028, 794449]","[784933, 785333, 785732, 786132, 786533, 786933, 787334, 787733, 788136, 788570, 788962, 789373, 789778, 790201, 790632, 791042, 791455, 791855, 792250, 792665, 793095, 793571, 793978, 794376]",46,R,ITM,1.1,
5,400,trial,0,38,38,38,trial,"['S', 'S', 'S', 'S', 'S', 'S', 'S', 'C', 'C', 'C', 'C', 'C', 'C', 'C', 'C', 'C', 'C', 'C', 'C', 'C', 'C', 'C', 'C']","[800282, 800732, 801150, 801579, 801973, 802426, 802829, 803219, 803605, 804035, 804435, 804809, 805230, 805625, 806043, 806440, 806867, 807255, 807655, 808048, 808457, 808882, 809286]","[800351, 800797, 801230, 801656, 802065, 802511, 802926, 803352, 803769, 804186, 804574, 804970, 805361, 805770, 806160, 806586, 806971, 807387, 807775, 808156, 808580, 808976, 809384]","[800052, 800451, 800851, 801251, 801651, 802052, 802451, 802851, 803245, 803631, 804061, 804462, 804835, 805256, 805651, 806069, 806467, 806893, 807281, 807681, 808074, 808482, 808908, 809312]",46,R,ITM,1.1,
3,400,trial,0,39,39,39,trial,"['B', 'S', 'S', 'S', 'S', 'S', 'S', 'S', 'C', 'C', 'C', 'C', 'C', 'C', 'C', 'C', 'C', 'C', 'C', 'C', 'C', 'C', 'C', 'C']","[815060, 815489, 815827, 816218, 816598, 817009, 817413, 817780, 818219, 818635, 819014, 819416, 819823, 820236, 820632, 821040, 821451, 821868, 822276, 822685, 823094, 823527, 823940, 824332]","[815143, 815618, 815952, 816339, 816729, 817130, 817517, 817910, 818320, 818744, 819142, 819559, 819938, 820350, 820755, 821143, 821575, 821988, 822402, 822777, 823185, 823610, 824027, 824435]","[815073, 815473, 815874, 816273, 816673, 817074, 817474, 817874, 818244, 818661, 819040, 819441, 819849, 820261, 820659, 821065, 821477, 821894, 822301, 822711, 823119, 823553, 823965, 824357]",46,R,ITM,1.1,
4,400,trial,0,40,40,40,trial,"['S', 'S', 'S', 'S', 'S', 'S', 'S', 'C', 'C', 'C', 'C', 'C', 'C', 'C', 'C', 'C', 'C', 'C', 'C', 'C', 'C', 'C', 'C']","[829972, 830440, 830863, 831308, 831693, 832083, 832474, 832902, 833291, 833673, 834097, 834493, 834895, 835294, 835706, 836093, 836530, 836947, 837340, 837744, 838154, 838564, 838961]","[830061, 830520, 830967, 831396, 831801, 832183, 832570, 833000, 833393, 833781, 834211, 834627, 834999, 835428, 835818, 836217, 836633, 837059, 837458, 837853, 838274, 838675, 839088]","[829767, 830168, 830567, 830967, 831367, 831767, 832167, 832567, 832927, 833316, 833698, 834122, 834519, 834921, 835320, 835732, 836119, 836555, 836973, 837365, 837770, 838179, 838590, 838986]",46,R,ITM,1.1,
6,600,trial,0,41,41,41,trial,"['S', 'S', 'S', 'S', 'S', 'S', 'S', 'S', 'C', 'C', 'C', 'C', 'C', 'C', 'C', 'C', 'C', 'C', 'C', 'C', 'C', 'C', 'C', 'C']","[844452, 844750, 845526, 846117, 846665, 847269, 847893, 848495, 849126, 849731, 850345, 850990, 851596, 852208, 852805, 853482, 854081, 854667, 855236, 855838, 856437, 857060, 857655, 858215]","[844542, 844886, 845712, 846340, 846898, 847494, 848075, 848785, 849405, 849974, 850588, 851203, 851790, 852425, 853035, 853640, 854242, 854823, 855436, 856022, 856637, 857257, 857807, 858385]","[844314, 844913, 845513, 846113, 846713, 847313, 847913, 848514, 849154, 849759, 850372, 851016, 851622, 852236, 852833, 853510, 854109, 854693, 855263, 855865, 856464, 857088, 857682, 858242]",46,R,ITM,1.1,
3,400,trial,0,42,42,42,trial,"['S', 'S', 'S', 'S', 'S', 'S', 'S', 'C', 'C', 'C', 'C', 'C', 'C', 'C', 'C', 'C', 'C', 'C', 'C', 'C', 'C', 'C', 'C']","[867110, 867560, 868011, 868404, 868831, 869240, 869656, 870068, 870498, 870894, 871317, 871753, 872155, 872563, 872971, 873372, 873788, 874195, 874583, 875003, 875439, 875835, 876262]","[867180, 867636, 868094, 868504, 868913, 869332, 869742, 870168, 870586, 871009, 871427, 871870, 872272, 872684, 873091, 873484, 873899, 874319, 874696, 875116, 875541, 875949, 876381]","[866905, 867304, 867704, 868104, 868504, 868904, 869304, 869704, 870093, 870523, 870920, 871343, 871779, 872180, 872589, 872996, 873398, 873814, 874221, 874608, 875029, 875464, 875860, 876288]",46,R,ITM,1.1,
4,400,trial,0,43,43,43,trial,"['S', 'S', 'S', 'S', 'S', 'S', 'S', 'S', 'C', 'C', 'C', 'C', 'C', 'C', 'C', 'C', 'C', 'C', 'C', 'C', 'C', 'C', 'C', 'C']","[881723, 881989, 882352, 882783, 883152, 883540, 883929, 884335, 884744, 885150, 885534, 885945, 886349, 886738, 887141, 887562, 887959, 888356, 888741, 889135, 889551, 889994, 890381, 890786]","[881759, 882063, 882447, 882866, 883235, 883623, 884019, 884418, 884825, 885261, 885650, 886050, 886438, 886850, 887274, 887662, 888083, 888445, 888834, 889267, 889678, 890104, 890501, 890895]","[881576, 881976, 882376, 882777, 883176, 883576, 883976, 884376, 884769, 885176, 885560, 885970, 886375, 886764, 887166, 887587, 887985, 888382, 888767, 889160, 889577, 890019, 890406, 890812]",46,R,ITM,1.1,
7,400,trial,0,44,44,44,trial,"['S', 'S', 'S', 'S', 'S', 'S', 'S', 'C', 'C', 'C', 'C', 'C', 'C', 'C', 'C', 'C', 'C', 'C', 'C', 'C', 'C', 'C', 'C']","[896792, 897118, 897506, 897881, 898302, 898743, 899122, 899522, 899910, 900301, 900718, 901107, 901500, 901894, 902269, 902694, 903093, 903474, 903862, 904258, 904658, 905069, 905449]","[896833, 897205, 897620, 897967, 898382, 898827, 899209, 899610, 899994, 900411, 900807, 901190, 901591, 901988, 902396, 902812, 903218, 903585, 903988, 904373, 904761, 905178, 905576]","[896343, 896741, 897141, 897542, 897941, 898341, 898741, 899141, 899550, 899937, 900328, 900745, 901134, 901527, 901921, 902296, 902721, 903119, 903501, 903889, 904285, 904685, 905096, 905476]",46,R,ITM,1.1,
5,600,trial,0,45,45,45,trial,"['S', 'S', 'S', 'S', 'S', 'S', 'S', 'C', 'C', 'C', 'C', 'C', 'C', 'C', 'C', 'C', 'C', 'C', 'C', 'C', 'C', 'C', 'C']","[911319, 912017, 912619, 913195, 913759, 914383, 914960, 915550, 916111, 916709, 917266, 917832, 918413, 918978, 919562, 920094, 920650, 921229, 921768, 922328, 922873, 923469, 924018]","[911686, 912265, 912872, 913400, 914018, 914586, 915134, 915722, 916277, 916908, 917398, 917975, 918525, 919077, 919683, 920230, 920794, 921360, 921935, 922498, 923052, 923624, 924176]","[910841, 911440, 912040, 912641, 913241, 913841, 914440, 915040, 915575, 916136, 916734, 917293, 917858, 918438, 919004, 919588, 920121, 920677, 921254, 921795, 922353, 922899, 923495, 924044]",46,R,ITM,1.1,
2,400,trial,0,46,46,46,trial,"['S', 'S', 'S', 'S', 'C', 'C', 'C', 'C', 'C', 'C', 'C', 'C', 'C', 'C', 'C', 'C', 'C', 'C', 'C', 'C']","[931324, 931759, 932161, 932563, 932975, 933387, 933815, 934227, 934659, 935087, 935484, 935895, 936330, 936729, 937145, 937567, 937995, 938409, 938809, 939217]","[931407, 931851, 932254, 932662, 933097, 933505, 933945, 934384, 934803, 935216, 935641, 936033, 936457, 936864, 937284, 937726, 938153, 938543, 938954, 939361]","[929758, 930156, 930557, 930957, 931357, 931758, 932157, 932557, 933003, 933414, 933841, 934255, 934685, 935114, 935512, 935922, 936356, 936757, 937171, 937594, 938021, 938436, 938835, 939244]",46,R,ITM,1.1,
2,600,trial,0,47,47,47,trial,"['S', 'S', 'S', 'S', 'S', 'S', 'S', 'C', 'C', 'C', 'C', 'C', 'C', 'C', 'C', 'C', 'C', 'C', 'C', 'C', 'C', 'C', 'C']","[945004, 945839, 946435, 947011, 947587, 948197, 948817, 949420, 950021, 950600, 951200, 951798, 952390, 952939, 953507, 954086, 954621, 955204, 955766, 956387, 956926, 957477, 958006]","[945090, 945936, 946536, 947137, 947720, 948320, 948935, 949565, 950188, 950829, 951396, 951993, 952515, 953100, 953670, 954243, 954808, 955361, 955918, 956510, 957078, 957609, 958153]","[944661, 945261, 945861, 946461, 947060, 947661, 948261, 948860, 949446, 950047, 950628, 951228, 951826, 952418, 952966, 953535, 954114, 954649, 955232, 955793, 956414, 956952, 957505, 958032]",46,R,ITM,1.1,
2,600,trial,0,48,48,48,trial,"['S', 'S', 'S', 'S', 'S', 'S', 'S', 'C', 'C', 'C', 'C', 'C', 'C', 'C', 'C', 'C', 'C', 'C', 'C', 'C', 'C', 'C', 'C']","[963739, 964506, 965135, 965732, 966270, 966914, 967521, 968125, 968669, 969296, 969910, 970464, 971057, 971627, 972223, 972781, 973369, 973983, 974563, 975193, 975762, 976360, 976934]","[963823, 964597, 965234, 965803, 966360, 967030, 967632, 968223, 968773, 969399, 970001, 970578, 971190, 971774, 972342, 972925, 973467, 974069, 974649, 975286, 975874, 976449, 977027]","[963430, 964029, 964630, 965230, 965829, 966429, 967030, 967630, 968152, 968695, 969324, 969936, 970490, 971084, 971655, 972250, 972808, 973396, 974010, 974589, 975220, 975789, 976388, 976962]",46,R,ITM,1.1,
6,600,trial,0,49,49,49,trial,"['S', 'S', 'S', 'S', 'S', 'S', 'S', 'C', 'C', 'C', 'C', 'C', 'C', 'C', 'C', 'C', 'C', 'C', 'C', 'C', 'C', 'C', 'C']","[982534, 983490, 984095, 984766, 985304, 985870, 986481, 987076, 987680, 988282, 988887, 989509, 990100, 990696, 991323, 991890, 992478, 993027, 994248, 994813, 995343, 995881, 996397]","[982554, 983570, 984208, 984873, 985410, 986013, 986585, 987180, 987792, 988380, 988990, 989589, 990190, 990796, 991404, 992018, 992601, 993155, 994404, 994923, 995453, 996002, 996519]","[982361, 982960, 983560, 984160, 984760, 985360, 985960, 986560, 987103, 987707, 988309, 988914, 989537, 990127, 990724, 991349, 991918, 992504, 993053, 994275, 994841, 995371, 995908, 996423]",46,R,ITM,1.1,
7,600,trial,0,50,50,50,trial,"['S', 'S', 'S', 'S', 'S', 'S', 'S', 'C', 'C', 'C', 'C', 'C', 'C', 'C', 'C', 'C', 'C', 'C', 'C', 'C', 'C', 'C', 'C']","[1002473, 1003207, 1003864, 1004460, 1005059, 1005701, 1006296, 1006859, 1007449, 1008056, 1008648, 1009215, 1009774, 1010342, 1010911, 1011512, 1012077, 1012647, 1013236, 1013793, 1014356, 1014958, 1015530]","[1002633, 1003315, 1003950, 1004582, 1005154, 1005812, 1006405, 1006985, 1007609, 1008209, 1008796, 1009421, 1009999, 1010621, 1011156, 1011775, 1012331, 1012832, 1013415, 1014019, 1014537, 1015141, 1015683]","[1002169, 1002769, 1003369, 1003969, 1004569, 1005169, 1005769, 1006369, 1006886, 1007475, 1008083, 1008674, 1009242, 1009801, 1010369, 1010937, 1011539, 1012104, 1012675, 1013263, 1013820, 1014384, 1014985, 1015557]",46,R,ITM,1.1,
4,600,trial,0,51,51,51,trial,"['S', 'S', 'S', 'S', 'S', 'S', 'S', 'C', 'C', 'C', 'C', 'C', 'C', 'C', 'C', 'C', 'C', 'C', 'C', 'C', 'C', 'C', 'C']","[1021686, 1022486, 1023077, 1023685, 1024228, 1024848, 1025478, 1026094, 1026672, 1027289, 1027825, 1028426, 1029005, 1029597, 1030189, 1030778, 1031376, 1031968, 1032521, 1033126, 1033679, 1034269, 1034839]","[1021787, 1022566, 1023190, 1023772, 1024340, 1024968, 1025608, 1026203, 1026761, 1027391, 1027938, 1028538, 1029094, 1029695, 1030285, 1030881, 1031480, 1032062, 1032623, 1033223, 1033766, 1034356, 1034929]","[1021335, 1021934, 1022534, 1023134, 1023734, 1024334, 1024934, 1025534, 1026119, 1026698, 1027314, 1027851, 1028452, 1029031, 1029623, 1030214, 1030804, 1031402, 1031994, 1032547, 1033152, 1033705, 1034295, 1034864]",46,R,ITM,1.1,
7,600,trial,0,52,52,52,trial,"['S', 'S', 'S', 'S', 'S', 'S', 'S', 'S', 'C', 'C', 'C', 'C', 'C', 'C', 'C', 'C', 'C', 'C', 'C', 'C', 'C', 'C', 'C', 'C']","[1040587, 1040937, 1041552, 1042178, 1042757, 1043335, 1043937, 1044546, 1045144, 1045713, 1046311, 1046878, 1047448, 1048020, 1048598, 1049174, 1049764, 1050347, 1050926, 1051488, 1052073, 1052637, 1053265, 1053847]","[1040670, 1041049, 1041649, 1042247, 1042868, 1043552, 1044020, 1044629, 1045252, 1045829, 1046409, 1046988, 1047564, 1048135, 1048747, 1049326, 1049889, 1050499, 1051068, 1051620, 1052211, 1052786, 1053408, 1053986]","[1040405, 1041004, 1041604, 1042204, 1042804, 1043404, 1044004, 1044604, 1045172, 1045741, 1046338, 1046904, 1047476, 1048047, 1048625, 1049200, 1049791, 1050374, 1050953, 1051515, 1052099, 1052664, 1053293, 1053875]",46,R,ITM,1.1,
3,600,trial,0,53,53,53,trial,"['S', 'S', 'S', 'S', 'S', 'S', 'S', 'S', 'C', 'C', 'C', 'C', 'C', 'C', 'C', 'C', 'C', 'C', 'C', 'C', 'C', 'C', 'C', 'C']","[1059701, 1060211, 1060671, 1061217, 1061817, 1062416, 1063012, 1063616, 1064258, 1064830, 1065446, 1066024, 1066618, 1067211, 1067788, 1068390, 1068968, 1069584, 1070107, 1070722, 1071303, 1071874, 1072415, 1072974]","[1059815, 1060333, 1060878, 1061408, 1061977, 1062539, 1063135, 1063720, 1064372, 1064955, 1065566, 1066130, 1066753, 1067360, 1067938, 1068559, 1069134, 1069753, 1070322, 1070923, 1071513, 1072053, 1072705, 1073189]","[1059504, 1060103, 1060703, 1061303, 1061903, 1062503, 1063103, 1063703, 1064284, 1064856, 1065472, 1066050, 1066644, 1067237, 1067813, 1068416, 1068994, 1069609, 1070133, 1070747, 1071329, 1071899, 1072441, 1073000]",46,R,ITM,1.1,
7,600,trial,0,54,54,54,trial,"['S', 'S', 'S', 'S', 'S', 'S', 'S', 'S', 'C', 'C', 'C', 'C', 'C', 'C', 'C', 'C', 'C', 'C', 'C', 'C', 'C', 'C', 'C', 'C']","[1085980, 1086314, 1086936, 1087569, 1088155, 1088760, 1089366, 1090010, 1090572, 1091147, 1091752, 1092362, 1092965, 1093562, 1094164, 1094773, 1095547, 1096160, 1096737, 1097315, 1097867, 1098455, 1099022, 1099610]","[1086076, 1086476, 1087049, 1087679, 1088239, 1088857, 1089490, 1090122, 1090731, 1091305, 1091922, 1092564, 1093182, 1093764, 1094335, 1094952, 1095670, 1096287, 1096851, 1097437, 1098011, 1098547, 1099136, 1099709]","[1085801, 1086400, 1087000, 1087600, 1088200, 1088800, 1089400, 1090000, 1090599, 1091174, 1091779, 1092389, 1092993, 1093588, 1094192, 1094800, 1095575, 1096187, 1096765, 1097342, 1097893, 1098482, 1099048, 1099637]",46,R,ITM,1.1,
6,400,trial,0,55,55,55,trial,"['S', 'S', 'S', 'S', 'S', 'S', 'S', 'C', 'C', 'C', 'C', 'C', 'C', 'C', 'C', 'C', 'C', 'C', 'C', 'C', 'C', 'C', 'C']","[1105446, 1105806, 1106288, 1106736, 1107192, 1107574, 1107972, 1108402, 1108803, 1109218, 1109625, 1110034, 1110456, 1110856, 1111256, 1111666, 1112083, 1112483, 1112867, 1113286, 1113678, 1114085, 1114488]","[1105549, 1105899, 1106391, 1106833, 1107275, 1107676, 1108075, 1108499, 1108905, 1109321, 1109755, 1110155, 1110574, 1110986, 1111389, 1111773, 1112195, 1112595, 1112992, 1113382, 1113792, 1114208, 1114607]","[1105276, 1105675, 1106075, 1106476, 1106875, 1107275, 1107676, 1108075, 1108428, 1108830, 1109244, 1109652, 1110061, 1110483, 1110883, 1111283, 1111693, 1112110, 1112511, 1112895, 1113314, 1113705, 1114112, 1114515]",46,R,ITM,1.1,
6,600,trial,0,56,56,56,trial,"['S', 'S', 'S', 'S', 'S', 'S', 'S', 'C', 'C', 'C', 'C', 'C', 'C', 'C', 'C', 'C', 'C', 'C', 'C', 'C', 'C', 'C', 'C']","[1120367, 1121191, 1121870, 1122427, 1123038, 1123639, 1124227, 1124813, 1125393, 1125996, 1126538, 1127152, 1127736, 1128296, 1128911, 1129453, 1130014, 1130621, 1131182, 1131735, 1132341, 1132937, 1133508]","[1120441, 1121275, 1121946, 1122523, 1123134, 1123769, 1124392, 1124921, 1125531, 1126207, 1126763, 1127347, 1127958, 1128510, 1129083, 1129615, 1130181, 1130775, 1131321, 1131872, 1132480, 1133071, 1133633]","[1120064, 1120663, 1121263, 1121863, 1122463, 1123063, 1123663, 1124263, 1124841, 1125420, 1126023, 1126564, 1127179, 1127762, 1128323, 1128938, 1129481, 1130041, 1130648, 1131209, 1131761, 1132367, 1132963, 1133535]",46,R,ITM,1.1,
3,600,trial,0,57,57,57,trial,"['S', 'S', 'S', 'S', 'S', 'S', 'S', 'S', 'C', 'C', 'C', 'C', 'C', 'C', 'C', 'C', 'C', 'C', 'C', 'C', 'C', 'C', 'C', 'C']","[1138939, 1139286, 1139994, 1140611, 1141237, 1141817, 1142436, 1143042, 1143652, 1144223, 1144828, 1145433, 1146003, 1146560, 1147159, 1147763, 1148318, 1148831, 1149382, 1149950, 1150568, 1151124, 1151666, 1152218]","[1139011, 1139376, 1140100, 1140709, 1141318, 1141895, 1142516, 1143161, 1143771, 1144338, 1144968, 1145544, 1146145, 1146700, 1147303, 1147890, 1148439, 1148975, 1149553, 1150133, 1150725, 1151248, 1151794, 1152345]","[1138909, 1139509, 1140109, 1140709, 1141309, 1141909, 1142509, 1143109, 1143677, 1144249, 1144854, 1145458, 1146029, 1146586, 1147185, 1147789, 1148344, 1148857, 1149408, 1149976, 1150594, 1151150, 1151691, 1152243]",46,R,ITM,1.1,
5,400,trial,0,58,58,58,trial,"['S', 'S', 'S', 'S', 'S', 'S', 'S', 'C', 'C', 'C', 'C', 'C', 'C', 'C', 'C', 'C', 'C', 'C', 'C', 'C', 'C', 'C', 'C']","[1157819, 1158291, 1158735, 1159138, 1159532, 1159951, 1160377, 1160778, 1161177, 1161592, 1161995, 1162390, 1162827, 1163226, 1163600, 1164041, 1164466, 1164862, 1165291, 1165675, 1166114, 1166540, 1166952]","[1157907, 1158373, 1158797, 1159224, 1159622, 1160036, 1160455, 1160870, 1161282, 1161705, 1162107, 1162505, 1162914, 1163323, 1163685, 1164134, 1164562, 1164962, 1165381, 1165795, 1166248, 1166642, 1167052]","[1157615, 1158014, 1158414, 1158814, 1159215, 1159614, 1160014, 1160414, 1160804, 1161202, 1161618, 1162020, 1162416, 1162853, 1163251, 1163626, 1164066, 1164491, 1164888, 1165318, 1165701, 1166140, 1166566, 1166978]",46,R,ITM,1.1,
2,600,trial,0,59,59,59,trial,"['S', 'S', 'S', 'S', 'S', 'S', 'S', 'S', 'C', 'C', 'C', 'C', 'C', 'C', 'C', 'C', 'C', 'C', 'C', 'C', 'C', 'C', 'C', 'C']","[1172587, 1173068, 1173553, 1174149, 1174720, 1175347, 1175959, 1176583, 1177121, 1177737, 1178314, 1178912, 1179498, 1180109, 1180701, 1181313, 1181862, 1182476, 1183088, 1183652, 1184214, 1184771, 1185347, 1185939]","[1172628, 1173164, 1173624, 1174242, 1174795, 1175430, 1176059, 1176671, 1177210, 1177846, 1178424, 1179015, 1179597, 1180215, 1180809, 1181415, 1181985, 1182593, 1183200, 1183789, 1184364, 1184897, 1185474, 1186058]","[1172382, 1172982, 1173581, 1174182, 1174782, 1175383, 1175983, 1176583, 1177149, 1177763, 1178341, 1178940, 1179525, 1180137, 1180729, 1181340, 1181890, 1182503, 1183116, 1183679, 1184241, 1184798, 1185375, 1185966]",46,R,ITM,1.1,
5,400,trial,0,60,60,60,trial,"['S', 'S', 'S', 'S', 'S', 'S', 'S', 'S', 'C', 'C', 'C', 'C', 'C', 'C', 'C', 'C', 'C', 'C', 'C', 'C', 'C', 'C', 'C', 'C']","[1191774, 1192116, 1192404, 1192784, 1193162, 1193577, 1194032, 1194455, 1194874, 1195269, 1195662, 1196051, 1196469, 1196874, 1197289, 1197704, 1198091, 1198527, 1198904, 1199331, 1199744, 1200122, 1200543, 1200959]","[1191869, 1192179, 1192502, 1192875, 1193308, 1193658, 1194108, 1194544, 1194964, 1195373, 1195778, 1196187, 1196616, 1197032, 1197445, 1197848, 1198225, 1198650, 1199022, 1199444, 1199845, 1200256, 1200692, 1201074]","[1191672, 1192072, 1192472, 1192872, 1193272, 1193672, 1194073, 1194472, 1194900, 1195294, 1195687, 1196077, 1196494, 1196900, 1197315, 1197730, 1198116, 1198553, 1198929, 1199356, 1199770, 1200148, 1200570, 1200986]",46,R,ITM,1.1,
7,600,trial,0,61,61,61,trial,"['S', 'S', 'S', 'S', 'S', 'S', 'C', 'C', 'C', 'C', 'C', 'C', 'C', 'C', 'C', 'C', 'C', 'C', 'C', 'C', 'C', 'C']","[1207712, 1208278, 1208868, 1209439, 1210056, 1210637, 1211250, 1211832, 1212454, 1213054, 1213638, 1214229, 1214819, 1215403, 1215964, 1216553, 1217124, 1217698, 1218293, 1218854, 1219418, 1219998]","[1207801, 1208355, 1208928, 1209517, 1210160, 1210755, 1211380, 1211983, 1212625, 1213207, 1213799, 1214385, 1214976, 1215561, 1216161, 1216726, 1217285, 1217847, 1218428, 1218999, 1219573, 1220157]","[1206512, 1207111, 1207711, 1208311, 1208911, 1209511, 1210112, 1210712, 1211278, 1211859, 1212482, 1213081, 1213665, 1214256, 1214846, 1215430, 1215990, 1216581, 1217150, 1217726, 1218320, 1218882, 1219444, 1220025]",46,R,ITM,1.1,
5,600,trial,0,62,62,62,trial,"['S', 'S', 'S', 'S', 'S', 'S', 'S', 'S', 'C', 'C', 'C', 'C', 'C', 'C', 'C', 'C', 'C', 'C', 'C', 'C', 'C', 'C', 'C', 'C']","[1225925, 1226434, 1226897, 1227472, 1228079, 1228703, 1229283, 1229927, 1230502, 1231095, 1231716, 1232277, 1232856, 1233435, 1234001, 1234637, 1235229, 1235775, 1236327, 1236894, 1237460, 1238031, 1238614, 1239224]","[1226009, 1226516, 1226979, 1227574, 1228216, 1228830, 1229409, 1230038, 1230639, 1231263, 1231832, 1232450, 1233050, 1233647, 1234222, 1234813, 1235401, 1235949, 1236528, 1237104, 1237654, 1238209, 1238761, 1239316]","[1225749, 1226348, 1226948, 1227548, 1228148, 1228748, 1229348, 1229948, 1230528, 1231122, 1231741, 1232303, 1232881, 1233461, 1234027, 1234663, 1235256, 1235801, 1236353, 1236921, 1237485, 1238056, 1238640, 1239249]",46,R,ITM,1.1,
7,400,trial,0,63,63,63,trial,"['S', 'S', 'S', 'S', 'S', 'S', 'S', 'C', 'C', 'C', 'C', 'C', 'C', 'C', 'C', 'C', 'C', 'C', 'C', 'C', 'C', 'C', 'C']","[1245101, 1245602, 1246013, 1246432, 1246828, 1247228, 1247637, 1248050, 1248444, 1248841, 1249246, 1249656, 1250056, 1250445, 1250862, 1251276, 1251679, 1252085, 1252472, 1252883, 1253309, 1253718, 1254118]","[1245149, 1245629, 1246046, 1246479, 1246885, 1247283, 1247703, 1248103, 1248507, 1248901, 1249313, 1249732, 1250149, 1250547, 1250967, 1251382, 1251752, 1252174, 1252550, 1252961, 1253384, 1253797, 1254208]","[1244902, 1245301, 1245702, 1246101, 1246501, 1246901, 1247301, 1247702, 1248077, 1248471, 1248869, 1249272, 1249684, 1250082, 1250471, 1250888, 1251303, 1251705, 1252113, 1252499, 1252911, 1253337, 1253744, 1254146]",46,R,ITM,1.1,
2,600,trial,0,64,64,64,trial,"['S', 'S', 'S', 'S', 'S', 'S', 'S', 'C', 'C', 'C', 'C', 'C', 'C', 'C', 'C', 'C', 'C', 'C', 'C', 'C', 'C', 'C', 'C']","[1260219, 1260874, 1261518, 1262108, 1262699, 1263333, 1263951, 1264517, 1265108, 1265725, 1266341, 1266931, 1267528, 1268144, 1268757, 1269386, 1269981, 1270587, 1271220, 1271821, 1272429, 1273025, 1273627]","[1260291, 1260936, 1261585, 1262159, 1262751, 1263399, 1264016, 1264583, 1265181, 1265799, 1266408, 1266992, 1267611, 1268230, 1268846, 1269469, 1270067, 1270662, 1271280, 1271899, 1272508, 1273109, 1273711]","[1259734, 1260333, 1260934, 1261533, 1262133, 1262733, 1263333, 1263933, 1264544, 1265136, 1265752, 1266368, 1266959, 1267556, 1268171, 1268785, 1269413, 1270008, 1270615, 1271247, 1271848, 1272457, 1273052, 1273654]",46,R,ITM,1.1,
3,600,trial,0,65,65,65,trial,"['S', 'S', 'S', 'S', 'S', 'S', 'S', 'S', 'C', 'C', 'C', 'C', 'C', 'C', 'C', 'C', 'C', 'C', 'C', 'C', 'C', 'C', 'C', 'C']","[1279435, 1279861, 1280557, 1281182, 1281788, 1282368, 1282963, 1283598, 1284203, 1284787, 1285412, 1286045, 1286652, 1287250, 1287874, 1288475, 1289081, 1289703, 1290297, 1290875, 1291470, 1292080, 1292669, 1293290]","[1279455, 1279898, 1280615, 1281251, 1281857, 1282436, 1283027, 1283660, 1284272, 1284873, 1285493, 1286138, 1286744, 1287352, 1287980, 1288574, 1289198, 1289818, 1290404, 1290971, 1291578, 1292166, 1292764, 1293375]","[1279435, 1280035, 1280635, 1281235, 1281836, 1282436, 1283036, 1283635, 1284229, 1284812, 1285438, 1286071, 1286678, 1287276, 1287900, 1288501, 1289107, 1289729, 1290322, 1290901, 1291496, 1292105, 1292695, 1293316]",46,R,ITM,1.1,
6,600,trial,0,66,66,66,trial,"['S', 'S', 'S', 'S', 'S', 'S', 'S', 'S', 'C', 'C', 'C', 'C', 'C', 'C', 'C', 'C', 'C', 'C', 'C', 'C', 'C', 'C', 'C', 'C']","[1299221, 1299738, 1300209, 1300761, 1301338, 1301937, 1302477, 1303101, 1303691, 1304259, 1304860, 1305441, 1306034, 1306624, 1307168, 1307715, 1308305, 1308851, 1309438, 1310039, 1310628, 1311214, 1311768, 1312319]","[1299241, 1299758, 1300229, 1300818, 1301403, 1301993, 1302521, 1303146, 1303743, 1304320, 1304918, 1305497, 1306081, 1306670, 1307248, 1307790, 1308367, 1308946, 1309511, 1310112, 1310706, 1311283, 1311865, 1312389]","[1298978, 1299577, 1300177, 1300777, 1301378, 1301978, 1302578, 1303177, 1303717, 1304286, 1304887, 1305467, 1306061, 1306650, 1307196, 1307742, 1308332, 1308877, 1309466, 1310065, 1310655, 1311241, 1311795, 1312346]",46,R,ITM,1.1,
4,400,trial,0,67,67,67,trial,"['S', 'S', 'S', 'S', 'S', 'S', 'S', 'C', 'C', 'C', 'C', 'C', 'C', 'C', 'C', 'C', 'C', 'C', 'C', 'C', 'C', 'C', 'C']","[1317957, 1318412, 1318849, 1319270, 1319686, 1320109, 1320497, 1320913, 1321340, 1321732, 1322146, 1322575, 1323001, 1323420, 1323848, 1324272, 1324681, 1325093, 1325524, 1325953, 1326358, 1326754, 1327156]","[1318030, 1318494, 1318927, 1319344, 1319775, 1320203, 1320602, 1321028, 1321451, 1321882, 1322289, 1322710, 1323132, 1323528, 1323978, 1324395, 1324782, 1325220, 1325621, 1326068, 1326478, 1326874, 1327265]","[1317743, 1318142, 1318542, 1318942, 1319343, 1319742, 1320142, 1320542, 1320939, 1321366, 1321757, 1322172, 1322601, 1323027, 1323446, 1323875, 1324298, 1324706, 1325119, 1325551, 1325978, 1326384, 1326780, 1327181]",46,R,ITM,1.1,
4,600,trial,0,68,68,68,trial,"['S', 'S', 'S', 'S', 'S', 'S', 'S', 'S', 'C', 'C', 'C', 'C', 'C', 'C', 'C', 'C', 'C', 'C', 'C', 'C', 'C', 'C', 'C', 'C']","[1332760, 1333216, 1333746, 1334231, 1334843, 1335440, 1336035, 1336649, 1337245, 1337794, 1338381, 1338977, 1339529, 1340076, 1340685, 1341277, 1341873, 1342427, 1342976, 1343518, 1344123, 1344689, 1345299, 1345827]","[1332887, 1333339, 1333959, 1334526, 1335102, 1335676, 1336274, 1336798, 1337404, 1338015, 1338563, 1339145, 1339750, 1340282, 1340844, 1341431, 1342009, 1342605, 1343185, 1343733, 1344278, 1344849, 1345412, 1345971]","[1332544, 1333143, 1333743, 1334343, 1334943, 1335543, 1336143, 1336743, 1337271, 1337820, 1338406, 1339002, 1339554, 1340101, 1340710, 1341302, 1341898, 1342452, 1343002, 1343544, 1344149, 1344714, 1345325, 1345853]",46,R,ITM,1.1,
2,400,trial,0,69,69,69,trial,"['S', 'S', 'S', 'S', 'S', 'S', 'S', 'S', 'C', 'C', 'C', 'C', 'C', 'C', 'C', 'C', 'C', 'C', 'C', 'C', 'C', 'C', 'C', 'C']","[1351293, 1351625, 1351954, 1352372, 1352757, 1353167, 1353553, 1353957, 1354374, 1354781, 1355181, 1355587, 1355969, 1356380, 1356773, 1357157, 1357588, 1357992, 1358399, 1358799, 1359210, 1359617, 1360033, 1360477]","[1351397, 1351731, 1352058, 1352488, 1352881, 1353285, 1353672, 1354066, 1354452, 1354885, 1355302, 1355706, 1356106, 1356508, 1356907, 1357316, 1357737, 1358179, 1358536, 1358936, 1359354, 1359751, 1360157, 1360587]","[1351225, 1351624, 1352026, 1352425, 1352825, 1353225, 1353625, 1354024, 1354401, 1354809, 1355208, 1355615, 1355997, 1356407, 1356801, 1357184, 1357616, 1358020, 1358427, 1358826, 1359238, 1359643, 1360061, 1360503]",46,R,ITM,1.1,
3,400,trial,0,70,70,70,trial,"['S', 'S', 'S', 'S', 'S', 'S', 'S', 'C', 'C', 'C', 'C', 'C', 'C', 'C', 'C', 'C', 'C', 'C', 'C', 'C', 'C', 'C', 'C']","[1366156, 1366563, 1366973, 1367371, 1367786, 1368184, 1368591, 1369029, 1369424, 1369844, 1370254, 1370648, 1371046, 1371451, 1371860, 1372259, 1372664, 1373063, 1373458, 1373878, 1374294, 1374685, 1375082]","[1366236, 1366637, 1367058, 1367436, 1367848, 1368233, 1368663, 1369112, 1369504, 1369924, 1370342, 1370721, 1371166, 1371556, 1371977, 1372376, 1372784, 1373185, 1373582, 1374006, 1374397, 1374771, 1375202]","[1365905, 1366304, 1366705, 1367104, 1367504, 1367904, 1368304, 1368705, 1369055, 1369450, 1369870, 1370279, 1370674, 1371072, 1371476, 1371886, 1372284, 1372690, 1373088, 1373484, 1373903, 1374319, 1374710, 1375108]",46,R,ITM,1.1,
3,400,trial,0,71,71,71,trial,"['S', 'S', 'S', 'S', 'S', 'S', 'S', 'C', 'C', 'C', 'C', 'C', 'C', 'C', 'C', 'C', 'C', 'C', 'C', 'C', 'C', 'C', 'C']","[1380975, 1381254, 1381639, 1382024, 1382401, 1382839, 1383252, 1383662, 1384094, 1384491, 1384900, 1385296, 1385696, 1386095, 1386513, 1386906, 1387294, 1387709, 1388114, 1388530, 1388952, 1389333, 1389742]","[1381081, 1381347, 1381743, 1382121, 1382515, 1382934, 1383336, 1383766, 1384200, 1384620, 1385010, 1385414, 1385816, 1386212, 1386629, 1387035, 1387440, 1387844, 1388252, 1388666, 1389072, 1389464, 1389884]","[1380508, 1380908, 1381307, 1381707, 1382108, 1382507, 1382907, 1383307, 1383688, 1384120, 1384516, 1384926, 1385322, 1385721, 1386121, 1386539, 1386932, 1387320, 1387735, 1388140, 1388556, 1388978, 1389359, 1389767]",46,R,ITM,1.1,
4,400,trial,0,72,72,72,trial,"['S', 'S', 'S', 'S', 'S', 'S', 'S', 'C', 'C', 'C', 'C', 'C', 'C', 'C', 'C', 'C', 'C', 'C', 'C', 'C', 'C', 'C', 'C']","[1395884, 1396224, 1396587, 1396986, 1397412, 1397825, 1398269, 1398662, 1399047, 1399477, 1399868, 1400281, 1400695, 1401104, 1401493, 1401889, 1402301, 1402714, 1403136, 1403555, 1403967, 1404366, 1404770]","[1395965, 1396315, 1396686, 1397059, 1397504, 1397902, 1398365, 1398773, 1399172, 1399598, 1399996, 1400410, 1400833, 1401255, 1401641, 1402032, 1402452, 1402857, 1403265, 1403686, 1404104, 1404499, 1404891]","[1395504, 1395902, 1396302, 1396702, 1397102, 1397502, 1397902, 1398302, 1398687, 1399072, 1399502, 1399895, 1400306, 1400721, 1401129, 1401519, 1401915, 1402327, 1402739, 1403161, 1403581, 1403993, 1404393, 1404795]",46,R,ITM,1.1,
6,400,trial,0,73,73,73,trial,"['S', 'S', 'S', 'S', 'S', 'S', 'S', 'S', 'C', 'C', 'C', 'C', 'C', 'C', 'C', 'C', 'C', 'C', 'C', 'C', 'C', 'C', 'C', 'C']","[1410589, 1410873, 1411225, 1411596, 1411972, 1412374, 1412776, 1413186, 1413605, 1414001, 1414398, 1414800, 1415198, 1415597, 1416006, 1416408, 1416810, 1417241, 1417643, 1418061, 1418456, 1418871, 1419299, 1419684]","[1410648, 1410960, 1411331, 1411712, 1412082, 1412501, 1412897, 1413294, 1413709, 1414111, 1414518, 1414933, 1415299, 1415706, 1416118, 1416523, 1416954, 1417350, 1417782, 1418193, 1418598, 1418999, 1419447, 1419833]","[1410425, 1410825, 1411225, 1411625, 1412025, 1412425, 1412826, 1413225, 1413632, 1414028, 1414424, 1414828, 1415226, 1415624, 1416033, 1416435, 1416837, 1417268, 1417669, 1418088, 1418483, 1418899, 1419326, 1419711]",46,R,ITM,1.1,
4,600,trial,0,74,74,74,trial,"['S', 'S', 'S', 'S', 'S', 'S', 'S', 'S', 'C', 'C', 'C', 'C', 'C', 'C', 'C', 'C', 'C', 'C', 'C', 'C', 'C', 'C', 'C', 'C']","[1425642, 1426193, 1426636, 1427220, 1427820, 1428380, 1429013, 1429616, 1430199, 1430747, 1431357, 1431977, 1432555, 1433152, 1433735, 1434343, 1434921, 1435499, 1436099, 1436681, 1437273, 1437837, 1438422, 1438992]","[1425755, 1426300, 1426737, 1427298, 1427938, 1428506, 1429143, 1429752, 1430336, 1430919, 1431535, 1432139, 1432742, 1433337, 1433945, 1434501, 1435067, 1435642, 1436259, 1436843, 1437428, 1438000, 1438577, 1439162]","[1425477, 1426076, 1426676, 1427276, 1427876, 1428476, 1429076, 1429677, 1430224, 1430772, 1431383, 1432002, 1432582, 1433178, 1433760, 1434369, 1434946, 1435525, 1436125, 1436706, 1437298, 1437862, 1438448, 1439017]",46,R,ITM,1.1,
7,400,trial,0,75,75,75,trial,"['S', 'S', 'S', 'S', 'S', 'S', 'C', 'C', 'C', 'C', 'C', 'C', 'C', 'C', 'C', 'C', 'C', 'C', 'C', 'C', 'C', 'C']","[1444575, 1445431, 1445858, 1446278, 1446707, 1447108, 1447523, 1447945, 1448357, 1448760, 1449183, 1449596, 1450009, 1450415, 1450812, 1451226, 1451653, 1452042, 1452448, 1452865, 1453262, 1453671]","[1444672, 1445513, 1445942, 1446352, 1446779, 1447205, 1447628, 1448061, 1448492, 1448907, 1449315, 1449746, 1450143, 1450555, 1450968, 1451371, 1451792, 1452213, 1452599, 1453025, 1453412, 1453836]","[1444371, 1444770, 1445171, 1445571, 1445971, 1446371, 1446771, 1447172, 1447550, 1447972, 1448385, 1448786, 1449209, 1449623, 1450037, 1450442, 1450840, 1451252, 1451679, 1452069, 1452475, 1452893, 1453289, 1453699]",46,R,ITM,1.1,
5,600,trial,0,76,76,76,trial,"['S', 'S', 'S', 'S', 'S', 'S', 'S', 'C', 'C', 'C', 'C', 'C', 'C', 'C', 'C', 'C', 'C', 'C', 'C', 'C', 'C', 'C', 'C']","[1459423, 1460229, 1460954, 1461580, 1462140, 1462760, 1463380, 1463956, 1464594, 1465213, 1465798, 1466373, 1466954, 1467544, 1468118, 1468663, 1469262, 1469863, 1470435, 1470962, 1471504, 1472144, 1472697]","[1459536, 1460320, 1461036, 1461660, 1462233, 1462858, 1463500, 1464107, 1464740, 1465392, 1465973, 1466571, 1467149, 1467751, 1468313, 1468912, 1469454, 1470066, 1470636, 1471188, 1471779, 1472352, 1472918]","[1459233, 1459832, 1460432, 1461032, 1461633, 1462233, 1462833, 1463432, 1463982, 1464620, 1465240, 1465824, 1466399, 1466980, 1467570, 1468143, 1468689, 1469288, 1469890, 1470460, 1470988, 1471529, 1472169, 1472722]",46,R,ITM,1.1,
2,400,trial,0,77,77,77,trial,"['S', 'S', 'S', 'S', 'S', 'S', 'S', 'S', 'C', 'C', 'C', 'C', 'C', 'C', 'C', 'C', 'C', 'C', 'C', 'C', 'C', 'C', 'C', 'C']","[1478596, 1478875, 1479199, 1479580, 1479965, 1480370, 1480771, 1481153, 1481589, 1482009, 1482418, 1482810, 1483225, 1483644, 1484047, 1484460, 1484860, 1485288, 1485691, 1486081, 1486501, 1486939, 1487361, 1487775]","[1478650, 1478956, 1479283, 1479676, 1480061, 1480459, 1480856, 1481239, 1481688, 1482113, 1482531, 1482929, 1483339, 1483757, 1484171, 1484575, 1484991, 1485390, 1485798, 1486233, 1486657, 1487077, 1487489, 1487903]","[1478409, 1478809, 1479209, 1479608, 1480009, 1480409, 1480809, 1481208, 1481617, 1482037, 1482445, 1482836, 1483252, 1483671, 1484075, 1484486, 1484888, 1485316, 1485719, 1486107, 1486529, 1486966, 1487387, 1487802]",46,R,ITM,1.1,
6,600,trial,0,78,78,78,trial,"['S', 'S', 'S', 'S', 'S', 'S', 'S', 'S', 'C', 'C', 'C', 'C', 'C', 'C', 'C', 'C', 'C', 'C', 'C', 'C', 'C', 'C', 'C', 'C']","[1493568, 1494076, 1494550, 1495163, 1495782, 1496347, 1496946, 1497556, 1498174, 1498769, 1499341, 1499940, 1500550, 1501129, 1501725, 1502316, 1502865, 1503443, 1504028, 1504599, 1505178, 1505753, 1506300, 1506861]","[1493668, 1494165, 1494694, 1495291, 1495901, 1496486, 1497051, 1497647, 1498277, 1498869, 1499435, 1500046, 1500652, 1501241, 1501826, 1502432, 1503006, 1503581, 1504149, 1504702, 1505299, 1505875, 1506445, 1507002]","[1493404, 1494003, 1494603, 1495203, 1495803, 1496403, 1497004, 1497604, 1498201, 1498797, 1499369, 1499967, 1500577, 1501156, 1501752, 1502344, 1502892, 1503471, 1504055, 1504625, 1505205, 1505779, 1506328, 1506887]",46,R,ITM,1.1,
5,600,trial,0,79,79,79,trial,"['S', 'S', 'S', 'S', 'S', 'S', 'S', 'S', 'C', 'C', 'C', 'C', 'C', 'C', 'C', 'C', 'C', 'C', 'C', 'C', 'C', 'C', 'C', 'C']","[1512768, 1513018, 1513613, 1514240, 1514870, 1515486, 1516079, 1516677, 1517267, 1517876, 1518481, 1519034, 1519572, 1520129, 1520697, 1521249, 1521808, 1522385, 1522946, 1523492, 1524043, 1524577, 1525118, 1525680]","[1512827, 1513101, 1513677, 1514300, 1514934, 1515564, 1516170, 1516772, 1517379, 1517976, 1518605, 1519165, 1519710, 1520262, 1520833, 1521392, 1521940, 1522505, 1523066, 1523641, 1524194, 1524737, 1525281, 1525838]","[1512564, 1513163, 1513763, 1514363, 1514963, 1515564, 1516164, 1516764, 1517293, 1517901, 1518507, 1519059, 1519598, 1520154, 1520722, 1521275, 1521833, 1522411, 1522972, 1523519, 1524069, 1524602, 1525145, 1525705]",46,R,ITM,1.1,
6,600,trial,0,80,80,80,trial,"['S', 'S', 'S', 'S', 'S', 'S', 'S', 'C', 'C', 'C', 'C', 'C', 'C', 'C', 'C', 'C', 'C', 'C', 'C', 'C', 'C', 'C', 'C', 'C', 'C']","[1531718, 1532436, 1533123, 1533761, 1534364, 1534947, 1535580, 1536152, 1536745, 1537336, 1537884, 1538446, 1539034, 1539631, 1540225, 1540331, 1540761, 1541318, 1541425, 1541925, 1542514, 1543050, 1543612, 1544202, 1544745]","[1531783, 1532480, 1533143, 1533833, 1534461, 1535065, 1535662, 1536229, 1536851, 1537449, 1537998, 1538560, 1539203, 1539784, 1540251, 1540352, 1540913, 1541345, 1541445, 1542020, 1542549, 1543076, 1543639, 1544270, 1544840]","[1531406, 1532005, 1532605, 1533205, 1533805, 1534405, 1535005, 1535605, 1536179, 1536772, 1537363, 1537910, 1538472, 1539061, 1539658, 1540251, 1540789, 1541345, 1541952, 1542542, 1543076, 1543639, 1544228, 1544773]",46,R,ITM,1.1,
4,600,trial,0,81,81,81,trial,"['S', 'S', 'S', 'S', 'S', 'S', 'S', 'S', 'C', 'C', 'C', 'C', 'C', 'C', 'C', 'C', 'C', 'C', 'C', 'C', 'C', 'C', 'C', 'C']","[1550286, 1550704, 1551242, 1551767, 1552400, 1553067, 1553662, 1554243, 1554842, 1555410, 1556024, 1556574, 1557164, 1557735, 1558304, 1558895, 1559446, 1560019, 1560591, 1561160, 1561725, 1562291, 1562861, 1563430]","[1550409, 1550797, 1551343, 1551898, 1552519, 1553163, 1553739, 1554332, 1554932, 1555530, 1556149, 1556733, 1557321, 1557931, 1558495, 1559075, 1559631, 1560220, 1560785, 1561372, 1561921, 1562457, 1562996, 1563567]","[1550092, 1550692, 1551292, 1551892, 1552492, 1553092, 1553692, 1554292, 1554868, 1555436, 1556049, 1556599, 1557189, 1557761, 1558330, 1558921, 1559472, 1560045, 1560616, 1561186, 1561751, 1562316, 1562887, 1563456]",46,R,ITM,1.1,
5,600,trial,0,82,82,82,trial,"['S', 'S', 'S', 'S', 'S', 'S', 'S', 'S', 'C', 'C', 'C', 'C', 'C', 'C', 'C', 'C', 'C', 'C', 'C', 'C', 'C', 'C', 'C', 'C']","[1569031, 1569366, 1569980, 1570607, 1571252, 1571804, 1572409, 1573005, 1573626, 1574235, 1574833, 1575415, 1575995, 1576588, 1577183, 1577793, 1578341, 1578907, 1579496, 1580043, 1580657, 1581225, 1581791, 1582320]","[1569098, 1569442, 1570011, 1570718, 1571349, 1571899, 1572435, 1573099, 1573705, 1574324, 1574971, 1575547, 1576140, 1576741, 1577346, 1577904, 1578472, 1579053, 1579653, 1580227, 1580766, 1581342, 1581895, 1582425]","[1568871, 1569470, 1570070, 1570670, 1571270, 1571870, 1572470, 1573070, 1573652, 1574261, 1574858, 1575441, 1576020, 1576613, 1577209, 1577820, 1578366, 1578933, 1579522, 1580068, 1580683, 1581252, 1581817, 1582347]",46,R,ITM,1.1,
6,400,trial,0,83,83,83,trial,"['B', 'S', 'S', 'S', 'S', 'S', 'S', 'S', 'C', 'C', 'C', 'C', 'C', 'C', 'C', 'C', 'C', 'C', 'C', 'C', 'C', 'C', 'C', 'C']","[1587810, 1588127, 1588503, 1588941, 1589356, 1589753, 1590167, 1590583, 1590995, 1591403, 1591803, 1592231, 1592647, 1593066, 1593515, 1593913, 1594322, 1594723, 1595114, 1595510, 1595920, 1596350, 1596759, 1597169]","[1587830, 1588189, 1588576, 1588992, 1589409, 1589822, 1590234, 1590650, 1591071, 1591483, 1591906, 1592306, 1592724, 1593152, 1593582, 1593990, 1594398, 1594804, 1595195, 1595596, 1596012, 1596436, 1596848, 1597267]","[1587823, 1588222, 1588622, 1589022, 1589423, 1589822, 1590222, 1590622, 1591022, 1591430, 1591831, 1592259, 1592674, 1593093, 1593541, 1593940, 1594350, 1594749, 1595142, 1595537, 1595947, 1596378, 1596785, 1597196]",46,R,ITM,1.1,
2,400,trial,0,84,84,84,trial,"['B', 'S', 'S', 'S', 'S', 'S', 'S', 'S', 'C', 'C', 'C', 'C', 'C', 'C', 'C', 'C', 'C', 'C', 'C', 'C', 'C', 'C', 'C', 'C']","[1602553, 1602947, 1603281, 1603690, 1604112, 1604516, 1604921, 1605352, 1605753, 1606167, 1606576, 1606988, 1607374, 1607787, 1608220, 1608645, 1609054, 1609451, 1609838, 1610271, 1610694, 1611103, 1611494, 1611896]","[1602799, 1603039, 1603343, 1603767, 1604183, 1604604, 1605027, 1605455, 1605851, 1606256, 1606681, 1607103, 1607498, 1607908, 1608335, 1608747, 1609145, 1609586, 1609976, 1610388, 1610795, 1611202, 1611611, 1611991]","[1602567, 1602966, 1603366, 1603765, 1604166, 1604567, 1604966, 1605365, 1605780, 1606195, 1606603, 1607016, 1607401, 1607814, 1608247, 1608673, 1609081, 1609478, 1609865, 1610299, 1610722, 1611130, 1611522, 1611923]",46,R,ITM,1.1,
4,400,trial,0,85,85,85,trial,"['B', 'S', 'S', 'S', 'S', 'S', 'S', 'S', 'C', 'C', 'C', 'C', 'C', 'C', 'C', 'C', 'C', 'C', 'C', 'C', 'C', 'C', 'C', 'C']","[1617478, 1617801, 1618203, 1618580, 1618999, 1619411, 1619830, 1620215, 1620622, 1621017, 1621421, 1621839, 1622253, 1622653, 1623049, 1623436, 1623837, 1624248, 1624655, 1625047, 1625463, 1625861, 1626261, 1626658]","[1617512, 1617913, 1618294, 1618695, 1619093, 1619514, 1619938, 1620344, 1620731, 1621122, 1621532, 1621965, 1622384, 1622777, 1623175, 1623568, 1623977, 1624375, 1624788, 1625193, 1625587, 1625971, 1626381, 1626767]","[1617490, 1617889, 1618289, 1618690, 1619089, 1619489, 1619890, 1620290, 1620647, 1621043, 1621446, 1621865, 1622279, 1622679, 1623074, 1623461, 1623863, 1624273, 1624681, 1625072, 1625489, 1625886, 1626287, 1626684]",46,R,ITM,1.1,
7,400,trial,0,86,86,86,trial,"['S', 'S', 'S', 'S', 'S', 'S', 'S', 'S', 'C', 'C', 'C', 'C', 'C', 'C', 'C', 'C', 'C', 'C', 'C', 'C', 'C', 'C', 'C', 'C']","[1632322, 1632669, 1633052, 1633445, 1633835, 1634234, 1634652, 1635061, 1635468, 1635860, 1636243, 1636643, 1637048, 1637454, 1637870, 1638279, 1638676, 1639061, 1639473, 1639861, 1640272, 1640701, 1641117, 1641500]","[1632386, 1632748, 1633135, 1633537, 1633945, 1634331, 1634756, 1635161, 1635573, 1635958, 1636347, 1636753, 1637145, 1637558, 1637992, 1638397, 1638806, 1639161, 1639593, 1639994, 1640408, 1640809, 1641239, 1641629]","[1632299, 1632697, 1633097, 1633498, 1633897, 1634297, 1634697, 1635097, 1635495, 1635888, 1636270, 1636670, 1637075, 1637482, 1637897, 1638306, 1638704, 1639089, 1639500, 1639887, 1640300, 1640729, 1641144, 1641528]",46,R,ITM,1.1,
7,400,trial,0,87,87,87,trial,"['S', 'S', 'S', 'S', 'S', 'S', 'S', 'C', 'C', 'C', 'C', 'C', 'C', 'C', 'C', 'C', 'C', 'C', 'C', 'C', 'C', 'C', 'C']","[1647254, 1647567, 1647962, 1648355, 1648745, 1649154, 1649542, 1649971, 1650372, 1650788, 1651203, 1651598, 1652026, 1652429, 1652836, 1653255, 1653673, 1654076, 1654495, 1654918, 1655343, 1655742, 1656159]","[1647336, 1647657, 1648028, 1648421, 1648821, 1649241, 1649645, 1650066, 1650471, 1650898, 1651336, 1651717, 1652137, 1652558, 1652959, 1653388, 1653804, 1654200, 1654614, 1655035, 1655459, 1655866, 1656280]","[1646840, 1647240, 1647640, 1648040, 1648440, 1648840, 1649241, 1649640, 1649998, 1650400, 1650816, 1651230, 1651624, 1652052, 1652457, 1652862, 1653282, 1653700, 1654103, 1654522, 1654944, 1655369, 1655769, 1656186]",46,R,ITM,1.1,
2,400,trial,0,88,88,88,trial,"['S', 'S', 'S', 'S', 'S', 'S', 'S', 'C', 'C', 'C', 'C', 'C', 'C', 'C', 'C', 'C', 'C', 'C', 'C', 'C', 'C', 'C', 'C']","[1661825, 1662360, 1662752, 1663187, 1663594, 1664024, 1664409, 1664816, 1665249, 1665672, 1666072, 1666491, 1666910, 1667309, 1667722, 1668137, 1668542, 1668954, 1669384, 1669820, 1670221, 1670630, 1671012]","[1661957, 1662441, 1662860, 1663280, 1663696, 1664135, 1664536, 1664931, 1665361, 1665785, 1666191, 1666593, 1667024, 1667424, 1667848, 1668253, 1668657, 1669079, 1669497, 1669943, 1670334, 1670729, 1671164]","[1661661, 1662060, 1662460, 1662860, 1663259, 1663661, 1664060, 1664460, 1664843, 1665276, 1665699, 1666100, 1666519, 1666937, 1667337, 1667748, 1668165, 1668569, 1668980, 1669410, 1669847, 1670249, 1670657, 1671040]",46,R,ITM,1.1,
2,600,trial,0,89,89,89,trial,"['S', 'S', 'S', 'S', 'S', 'S', 'S', 'C', 'C', 'C', 'C', 'C', 'C', 'C', 'C', 'C', 'C', 'C', 'C', 'C', 'C', 'C', 'C']","[1676776, 1677596, 1678228, 1678860, 1679407, 1680054, 1680655, 1681225, 1681833, 1682443, 1683045, 1683633, 1684240, 1684852, 1685472, 1686080, 1686686, 1687262, 1687894, 1688480, 1689065, 1689634, 1690231]","[1676881, 1677699, 1678389, 1678910, 1679475, 1680219, 1680788, 1681398, 1682040, 1682615, 1683209, 1683774, 1684402, 1685040, 1685633, 1686264, 1686854, 1687419, 1688101, 1688707, 1689329, 1689928]","[1676489, 1677089, 1677689, 1678289, 1678888, 1679489, 1680090, 1680690, 1681252, 1681861, 1682469, 1683072, 1683660, 1684268, 1684880, 1685498, 1686108, 1686713, 1687288, 1687921, 1688508, 1689092, 1689662, 1690259]",46,R,ITM,1.1,
7,600,trial,0,90,90,90,trial,"['S', 'S', 'S', 'S', 'S', 'S', 'S', 'C', 'C', 'C', 'C', 'C', 'C', 'C', 'C', 'C', 'C', 'C', 'C', 'C', 'C', 'C', 'C']","[1696137, 1697056, 1697651, 1698246, 1698831, 1699451, 1700096, 1700683, 1701294, 1701901, 1702505, 1703103, 1703711, 1704320, 1704937, 1705716, 1706341, 1706944, 1707532, 1708128, 1708704, 1709271, 1709836]","[1696243, 1697133, 1697731, 1698333, 1698930, 1699556, 1700211, 1700846, 1701471, 1702072, 1702658, 1703274, 1703874, 1704534, 1705122, 1705903, 1706520, 1707103, 1707661, 1708252, 1708833, 1709430, 1709982]","[1695922, 1696520, 1697120, 1697720, 1698320, 1698920, 1699520, 1700120, 1700711, 1701320, 1701928, 1702532, 1703130, 1703738, 1704347, 1704965, 1705744, 1706369, 1706972, 1707558, 1708155, 1708732, 1709297, 1709862]",46,R,ITM,1.1,
3,600,trial,0,91,91,91,trial,"['S', 'S', 'S', 'S', 'S', 'S', 'S', 'S', 'C', 'C', 'C', 'C', 'C', 'C', 'C', 'C', 'C', 'C', 'C', 'C', 'C', 'C', 'C', 'C']","[1715686, 1715959, 1716603, 1717212, 1717844, 1718454, 1719064, 1719674, 1720253, 1720818, 1721436, 1722019, 1722610, 1723189, 1723767, 1724347, 1724931, 1725478, 1726066, 1726637, 1727201, 1727775, 1728359, 1728918]","[1715733, 1716059, 1716716, 1717300, 1717960, 1718541, 1719176, 1719780, 1720366, 1720962, 1721568, 1722177, 1722750, 1723368, 1723960, 1724526, 1725082, 1725675, 1726295, 1726861, 1727425, 1727969, 1728532, 1729064]","[1715514, 1716113, 1716713, 1717313, 1717913, 1718513, 1719113, 1719713, 1720279, 1720844, 1721461, 1722045, 1722636, 1723214, 1723793, 1724372, 1724956, 1725504, 1726092, 1726662, 1727226, 1727801, 1728385, 1728944]",46,R,ITM,1.1,
5,400,trial,0,92,92,92,trial,"['S', 'S', 'S', 'S', 'S', 'S', 'S', 'S', 'C', 'C', 'C', 'C', 'C', 'C', 'C', 'C', 'C', 'C', 'C', 'C', 'C', 'C', 'C', 'C']","[1734457, 1734828, 1735139, 1735494, 1735890, 1736302, 1736696, 1737119, 1737521, 1737935, 1738339, 1738759, 1739179, 1739573, 1739983, 1740381, 1740782, 1741219, 1741634, 1742053, 1742475, 1742880, 1743304, 1743719]","[1734548, 1734931, 1735235, 1735606, 1736001, 1736410, 1736814, 1737243, 1737665, 1738051, 1738475, 1738882, 1739307, 1739727, 1740119, 1740515, 1740934, 1741351, 1741749, 1742185, 1742615, 1743008, 1743430, 1743867]","[1734336, 1734735, 1735135, 1735535, 1735936, 1736335, 1736735, 1737136, 1737546, 1737961, 1738364, 1738784, 1739204, 1739598, 1740009, 1740406, 1740809, 1741245, 1741661, 1742078, 1742500, 1742906, 1743330, 1743745]",46,R,ITM,1.1,
2,600,trial,0,93,93,93,trial,"['S', 'S', 'S', 'S', 'S', 'S', 'C', 'C', 'C', 'C', 'C', 'C', 'C', 'C', 'C', 'C', 'C', 'C', 'C', 'C', 'C', 'C']","[1750320, 1750966, 1751537, 1752163, 1752795, 1753365, 1754009, 1754649, 1755257, 1755860, 1756462, 1757070, 1757743, 1758336, 1758900, 1759506, 1760103, 1760728, 1761349, 1761940, 1762605, 1763175]","[1750358, 1750994, 1751608, 1752218, 1752833, 1753477, 1754095, 1754782, 1755370, 1755998, 1756609, 1757232, 1757852, 1758476, 1759044, 1759647, 1760295, 1760901, 1761464, 1762064, 1762714, 1763289]","[1749194, 1749794, 1750394, 1750993, 1751595, 1752194, 1752795, 1753395, 1754037, 1754676, 1755285, 1755888, 1756489, 1757096, 1757770, 1758362, 1758927, 1759534, 1760130, 1760755, 1761377, 1761968, 1762632, 1763203]",46,R,ITM,1.1,
3,600,trial,0,94,94,94,trial,"['S', 'S', 'S', 'S', 'S', 'S', 'S', 'S', 'C', 'C', 'C', 'C', 'C', 'C', 'C', 'C', 'C', 'C', 'C', 'C', 'C', 'C', 'C', 'C']","[1769005, 1769475, 1769946, 1770518, 1771134, 1771719, 1772316, 1772934, 1773559, 1774124, 1774700, 1775276, 1775851, 1776453, 1777049, 1777640, 1778208, 1778782, 1779371, 1779966, 1780545, 1781160, 1781715, 1782287]","[1769109, 1769573, 1770085, 1770640, 1771248, 1771854, 1772434, 1773048, 1773656, 1774246, 1774855, 1775410, 1776014, 1776620, 1777233, 1777818, 1778400, 1778995, 1779585, 1780133, 1780700, 1781281, 1781890, 1782459]","[1768778, 1769377, 1769977, 1770577, 1771177, 1771778, 1772378, 1772978, 1773585, 1774149, 1774726, 1775301, 1775877, 1776479, 1777075, 1777666, 1778234, 1778807, 1779396, 1779992, 1780571, 1781186, 1781741, 1782312]",46,R,ITM,1.1,
7,600,trial,0,95,95,95,trial,"['S', 'S', 'S', 'S', 'S', 'S', 'S', 'S', 'C', 'C', 'C', 'C', 'C', 'C', 'C', 'C', 'C', 'C', 'C', 'C', 'C', 'C', 'C', 'C']","[1788099, 1788432, 1789051, 1789616, 1790237, 1790816, 1791425, 1792077, 1792651, 1793229, 1793814, 1794410, 1795005, 1795586, 1796119, 1796690, 1797255, 1797865, 1798504, 1799127, 1799647, 1800190, 1800736, 1801272]","[1788119, 1788610, 1789212, 1789771, 1790346, 1790938, 1791528, 1792162, 1792799, 1793354, 1793981, 1794597, 1795156, 1795751, 1796333, 1796909, 1797579, 1798111, 1798697, 1799243, 1799787, 1800340, 1800922, 1801460]","[1787878, 1788477, 1789077, 1789677, 1790277, 1790877, 1791477, 1792077, 1792678, 1793257, 1793841, 1794437, 1795032, 1795613, 1796146, 1796717, 1797282, 1797893, 1798531, 1799153, 1799674, 1800217, 1800763, 1801299]",46,R,ITM,1.1,
5,400,trial,0,96,96,96,trial,"['S', 'S', 'S', 'S', 'S', 'S', 'S', 'C', 'C', 'C', 'C', 'C', 'C', 'C', 'C', 'C', 'C', 'C', 'C', 'C', 'C', 'C', 'C']","[1807247, 1807755, 1808168, 1808610, 1809012, 1809438, 1809823, 1810253, 1810664, 1811084, 1811500, 1811924, 1812325, 1812750, 1813206, 1813662, 1814095, 1814505, 1814919, 1815339, 1815750, 1816165, 1816592]","[1807351, 1807856, 1808270, 1808679, 1809136, 1809562, 1809965, 1810365, 1810787, 1811188, 1811628, 1812084, 1812492, 1812892, 1813318, 1813761, 1814218, 1814617, 1815040, 1815470, 1815906, 1816311, 1816709]","[1807050, 1807451, 1807850, 1808250, 1808650, 1809050, 1809451, 1809850, 1810280, 1810691, 1811109, 1811525, 1811950, 1812350, 1812775, 1813231, 1813688, 1814121, 1814531, 1814944, 1815364, 1815777, 1816192, 1816617]",46,R,ITM,1.1,
3,400,trial,0,97,97,97,trial,"['S', 'S', 'S', 'S', 'S', 'S', 'S', 'C', 'C', 'C', 'C', 'C', 'C', 'C', 'C', 'C', 'C', 'C', 'C', 'C', 'C', 'C', 'C']","[1822368, 1822756, 1823186, 1823594, 1823997, 1824410, 1824809, 1825236, 1825658, 1826058, 1826466, 1826881, 1827289, 1827679, 1828126, 1828553, 1828970, 1829395, 1829811, 1830235, 1830626, 1831015, 1831471]","[1822465, 1822845, 1823277, 1823708, 1824120, 1824525, 1824966, 1825375, 1825778, 1826179, 1826632, 1827021, 1827435, 1827819, 1828246, 1828690, 1829108, 1829539, 1829939, 1830355, 1830765, 1831185, 1831614]","[1822030, 1822429, 1822829, 1823229, 1823629, 1824029, 1824430, 1824829, 1825262, 1825684, 1826083, 1826492, 1826907, 1827314, 1827704, 1828152, 1828579, 1828996, 1829421, 1829836, 1830260, 1830651, 1831041, 1831496]",46,R,ITM,1.1,
3,400,trial,0,98,98,98,trial,"['S', 'S', 'S', 'S', 'C', 'C', 'C', 'C', 'C', 'C', 'C', 'C', 'C', 'C', 'C', 'C', 'C', 'C', 'C', 'C']","[1838658, 1839054, 1839454, 1839888, 1840283, 1840695, 1841112, 1841554, 1841975, 1842387, 1842805, 1843228, 1843646, 1844055, 1844463, 1844902, 1845311, 1845735, 1846144, 1846545]","[1838752, 1839120, 1839550, 1839977, 1840398, 1840785, 1841201, 1841634, 1842080, 1842507, 1842922, 1843337, 1843757, 1844163, 1844576, 1845026, 1845422, 1845837, 1846266, 1846654]","[1837099, 1837498, 1837898, 1838299, 1838698, 1839098, 1839498, 1839898, 1840309, 1840720, 1841137, 1841580, 1842000, 1842413, 1842831, 1843254, 1843672, 1844080, 1844489, 1844928, 1845337, 1845761, 1846169, 1846571]",46,R,ITM,1.1,
4,600,trial,0,99,99,99,trial,"['S', 'S', 'S', 'S', 'S', 'S', 'S', 'S', 'C', 'C', 'C', 'C', 'C', 'C', 'C', 'C', 'C', 'C', 'C', 'C', 'C', 'C', 'C', 'C']","[1852144, 1852643, 1853104, 1853667, 1854266, 1854806, 1855412, 1856039, 1856659, 1857234, 1857848, 1858461, 1859037, 1859648, 1860256, 1860819, 1861378, 1861986, 1862633, 1863208, 1863798, 1864379, 1864977, 1865525]","[1852248, 1852721, 1853403, 1854010, 1854503, 1855063, 1855604, 1856212, 1856792, 1857421, 1858000, 1858619, 1859168, 1859784, 1860432, 1860955, 1861573, 1862269, 1862812, 1863477, 1864024, 1864585, 1865249, 1865787]","[1851880, 1852479, 1853079, 1853679, 1854279, 1854879, 1855479, 1856079, 1856685, 1857260, 1857873, 1858487, 1859062, 1859674, 1860282, 1860845, 1861403, 1862011, 1862659, 1863234, 1863824, 1864404, 1865003, 1865550]",46,R,ITM,1.1,
6,400,trial,0,100,100,100,trial,"['S', 'S', 'S', 'S', 'S', 'S', 'S', 'S', 'C', 'C', 'C', 'C', 'C', 'C', 'C', 'C', 'C', 'C', 'C', 'C', 'C', 'C', 'C', 'C']","[1871277, 1871571, 1871929, 1872253, 1872664, 1873077, 1873495, 1873874, 1874281, 1874708, 1875123, 1875539, 1875976, 1876403, 1876828, 1877230, 1877639, 1878064, 1878483, 1878914, 1879315, 1879713, 1880124, 1880547]","[1871366, 1871680, 1872015, 1872375, 1872783, 1873190, 1873595, 1873995, 1874386, 1874826, 1875250, 1875670, 1876093, 1876507, 1876950, 1877351, 1877757, 1878175, 1878599, 1879034, 1879433, 1879840, 1880250, 1880682]","[1871093, 1871493, 1871892, 1872292, 1872692, 1873092, 1873492, 1873892, 1874308, 1874736, 1875149, 1875566, 1876002, 1876429, 1876855, 1877257, 1877665, 1878091, 1878510, 1878941, 1879343, 1879741, 1880151, 1880574]",46,R,ITM,1.1,
4,400,trial,0,101,101,101,trial,"['S', 'S', 'S', 'S', 'S', 'S', 'S', 'C', 'C', 'C', 'C', 'C', 'C', 'C', 'C', 'C', 'C', 'C', 'C', 'C', 'C', 'C', 'C']","[1886205, 1886620, 1887045, 1887458, 1887846, 1888270, 1888686, 1889084, 1889496, 1889923, 1890318, 1890715, 1891139, 1891557, 1891959, 1892371, 1892773, 1893178, 1893628, 1894033, 1894450, 1894872, 1895276]","[1886319, 1886735, 1887156, 1887555, 1887971, 1888379, 1888787, 1889211, 1889620, 1890040, 1890442, 1890862, 1891286, 1891717, 1892119, 1892515, 1892971, 1893322, 1893760, 1894210, 1894617, 1895026, 1895433]","[1885920, 1886319, 1886720, 1887119, 1887519, 1887920, 1888319, 1888719, 1889110, 1889521, 1889948, 1890343, 1890741, 1891165, 1891582, 1891985, 1892397, 1892799, 1893203, 1893654, 1894059, 1894475, 1894897, 1895302]",46,R,ITM,1.1,
7,600,trial,0,102,102,102,trial,"['S', 'S', 'S', 'S', 'S', 'S', 'S', 'S', 'C', 'C', 'C', 'C', 'C', 'C', 'C', 'C', 'C', 'C', 'C', 'C', 'C', 'C', 'C', 'C']","[1900841, 1901323, 1901797, 1902380, 1903027, 1903508, 1904139, 1904768, 1905326, 1905940, 1906499, 1907122, 1907715, 1908338, 1908952, 1909534, 1910105, 1910705, 1911301, 1911901, 1912495, 1913089, 1913700, 1914283]","[1900937, 1901433, 1902096, 1902611, 1903234, 1903696, 1904281, 1904923, 1905500, 1906096, 1906696, 1907282, 1907900, 1908475, 1909091, 1909697, 1910370, 1910931, 1911508, 1912145, 1912712, 1913268, 1913864, 1914496]","[1900598, 1901197, 1901797, 1902397, 1902997, 1903597, 1904197, 1904797, 1905353, 1905967, 1906527, 1907149, 1907741, 1908365, 1908978, 1909561, 1910131, 1910731, 1911328, 1911928, 1912521, 1913115, 1913726, 1914309]",46,R,ITM,1.1,
6,400,trial,0,103,103,103,trial,"['S', 'S', 'S', 'S', 'S', 'S', 'S', 'S', 'C', 'C', 'C', 'C', 'C', 'C', 'C', 'C', 'C', 'C', 'C', 'C', 'C', 'C', 'C', 'C']","[1920000, 1920281, 1920604, 1920977, 1921387, 1921805, 1922201, 1922624, 1923027, 1923449, 1923835, 1924257, 1924674, 1925074, 1925480, 1925906, 1926304, 1926690, 1927091, 1927535, 1927961, 1928373, 1928781, 1929196]","[1920084, 1920382, 1920713, 1921089, 1921492, 1921925, 1922339, 1922744, 1923150, 1923556, 1923968, 1924392, 1924815, 1925225, 1925627, 1926040, 1926458, 1926881, 1927260, 1927660, 1928119, 1928524, 1928908, 1929332]","[1919857, 1920257, 1920656, 1921056, 1921457, 1921856, 1922256, 1922656, 1923054, 1923477, 1923862, 1924284, 1924702, 1925102, 1925507, 1925934, 1926331, 1926717, 1927118, 1927562, 1927988, 1928400, 1928808, 1929223]",46,R,ITM,1.1,
5,600,trial,0,104,104,104,trial,"['S', 'S', 'S', 'S', 'S', 'S', 'S', 'C', 'C', 'C', 'C', 'C', 'C', 'C', 'C', 'C', 'C', 'C', 'C', 'C', 'C', 'C', 'C']","[1935011, 1935800, 1936443, 1937047, 1937654, 1938262, 1938873, 1939474, 1940058, 1940661, 1941222, 1941838, 1942454, 1943051, 1943624, 1944155, 1944691, 1945315, 1945875, 1946435, 1946969, 1947521, 1948082]","[1935095, 1935891, 1936533, 1937141, 1937764, 1938391, 1939003, 1939591, 1940205, 1940840, 1941410, 1942005, 1942604, 1943231, 1943831, 1944419, 1944978, 1945533, 1946083, 1946609, 1947165, 1947729, 1948280]","[1934728, 1935328, 1935928, 1936528, 1937128, 1937728, 1938328, 1938928, 1939500, 1940084, 1940686, 1941248, 1941864, 1942479, 1943077, 1943650, 1944181, 1944718, 1945340, 1945901, 1946461, 1946995, 1947546, 1948107]",46,R,ITM,1.1,
2,600,trial,0,105,105,105,trial,"['S', 'S', 'S', 'S', 'S', 'S', 'S', 'C', 'C', 'C', 'C', 'C', 'C', 'C', 'C', 'C', 'C', 'C', 'C', 'C', 'C', 'C', 'C']","[1954269, 1954903, 1955611, 1956254, 1956851, 1957438, 1958052, 1958646, 1959237, 1959851, 1960441, 1961013, 1961660, 1962222, 1962822, 1963399, 1964004, 1964585, 1965185, 1965784, 1966373, 1966939, 1967536]","[1954364, 1954994, 1955693, 1956344, 1956927, 1957518, 1958130, 1958717, 1959329, 1959943, 1960553, 1961099, 1961752, 1962322, 1962933, 1963493, 1964088, 1964646, 1965263, 1965874, 1966419, 1967002, 1967607]","[1953851, 1954450, 1955051, 1955651, 1956250, 1956851, 1957451, 1958051, 1958673, 1959264, 1959877, 1960468, 1961039, 1961687, 1962249, 1962850, 1963426, 1964030, 1964613, 1965212, 1965811, 1966400, 1966966, 1967563]",46,R,ITM,1.1,
4,600,trial,0,106,106,106,trial,"['S', 'S', 'S', 'S', 'S', 'S', 'S', 'S', 'S', 'C', 'C', 'C', 'C', 'C', 'C', 'C', 'C', 'C', 'C', 'C', 'C', 'C', 'C', 'C', 'C']","[1973007, 1973310, 1973492, 1973999, 1974615, 1975228, 1975815, 1976427, 1977025, 1977618, 1978225, 1978842, 1979430, 1980025, 1980611, 1981208, 1981776, 1982381, 1982976, 1983542, 1984092, 1984672, 1985254, 1985839, 1986405]","[1973050, 1973412, 1973707, 1974345, 1974899, 1975484, 1976092, 1976710, 1977269, 1977917, 1978537, 1979146, 1979694, 1980264, 1980880, 1981457, 1982024, 1982609, 1983185, 1983778, 1984340, 1984920, 1985490, 1986115]","[1972872, 1973472, 1974072, 1974672, 1975272, 1975872, 1976472, 1977072, 1977644, 1978251, 1978867, 1979456, 1980051, 1980637, 1981235, 1981802, 1982406, 1983002, 1983567, 1984117, 1984698, 1985280, 1985864, 1986430]",46,R,ITM,1.1,
7,400,trial,0,107,107,107,trial,"['S', 'S', 'S', 'S', 'S', 'S', 'S', 'S', 'C', 'C', 'C', 'C', 'C', 'C', 'C', 'C', 'C', 'C', 'C', 'C', 'C', 'C', 'C', 'C']","[1992211, 1992516, 1992797, 1993199, 1993628, 1994027, 1994394, 1994826, 1995225, 1995639, 1996058, 1996445, 1996876, 1997297, 1997696, 1998120, 1998562, 1998980, 1999395, 1999838, 2000250, 2000680, 2001095, 2001507]","[1992243, 1992582, 1992893, 1993281, 1993730, 1994133, 1994513, 1994944, 1995387, 1995797, 1996215, 1996606, 1997023, 1997453, 1997851, 1998271, 1998708, 1999119, 1999545, 1999993, 2000412, 2000820, 2001240, 2001657]","[1992027, 1992426, 1992826, 1993226, 1993626, 1994027, 1994426, 1994826, 1995252, 1995667, 1996086, 1996472, 1996903, 1997325, 1997722, 1998148, 1998588, 1999007, 1999422, 1999864, 2000277, 2000707, 2001123, 2001533]",46,R,ITM,1.1,
6,600,trial,0,108,108,108,trial,"['S', 'S', 'S', 'S', 'S', 'S', 'S', 'S', 'C', 'C', 'C', 'C', 'C', 'C', 'C', 'C', 'C', 'C', 'C', 'C', 'C', 'C', 'C', 'C']","[2007540, 2008038, 2008563, 2009074, 2009665, 2010228, 2010826, 2011430, 2012038, 2012625, 2013239, 2013843, 2014401, 2014999, 2015589, 2016186, 2016763, 2017329, 2017897, 2018500, 2019086, 2019683, 2020239, 2020881]","[2007670, 2008159, 2008818, 2009461, 2009922, 2010556, 2011132, 2011674, 2012306, 2012833, 2013452, 2014019, 2014580, 2015160, 2015749, 2016333, 2016947, 2017500, 2018084, 2018673, 2019269, 2019792, 2020383, 2021006]","[2007308, 2007907, 2008507, 2009107, 2009707, 2010307, 2010907, 2011507, 2012065, 2012653, 2013265, 2013870, 2014429, 2015026, 2015616, 2016212, 2016790, 2017355, 2017924, 2018528, 2019112, 2019709, 2020265, 2020908]",46,R,ITM,1.1,
2,400,trial,0,109,109,109,trial,"['B', 'S', 'S', 'S', 'S', 'S', 'S', 'C', 'C', 'C', 'C', 'C', 'C', 'C', 'C', 'C', 'C', 'C', 'C', 'C', 'C', 'C', 'C']","[2026331, 2027067, 2027444, 2027855, 2028236, 2028681, 2029094, 2029491, 2029899, 2030297, 2030710, 2031127, 2031543, 2031956, 2032373, 2032790, 2033214, 2033611, 2034035, 2034429, 2034814, 2035217, 2035637]","[2026696, 2027151, 2027545, 2027972, 2028335, 2028780, 2029208, 2029606, 2030039, 2030476, 2030876, 2031299, 2031684, 2032101, 2032537, 2032930, 2033358, 2033744, 2034163, 2034591, 2034981, 2035386, 2035781]","[2026344, 2026743, 2027145, 2027545, 2027945, 2028345, 2028745, 2029145, 2029518, 2029927, 2030323, 2030738, 2031155, 2031570, 2031982, 2032401, 2032818, 2033242, 2033639, 2034062, 2034456, 2034841, 2035245, 2035664]",46,R,ITM,1.1,
6,600,trial,0,110,110,110,trial,"['S', 'S', 'S', 'S', 'S', 'S', 'C', 'C', 'C', 'C', 'C', 'C', 'C', 'C', 'C', 'C', 'C', 'C', 'C', 'C', 'C', 'C']","[2042566, 2043128, 2043746, 2044316, 2044902, 2045479, 2046104, 2046706, 2047286, 2047851, 2048425, 2049058, 2049649, 2050284, 2050863, 2051467, 2052074, 2052675, 2053271, 2053864, 2054466, 2055043]","[2042807, 2043308, 2043905, 2044447, 2045026, 2045612, 2046253, 2046868, 2047433, 2048032, 2048624, 2049184, 2049789, 2050432, 2051016, 2051611, 2052213, 2052809, 2053426, 2054034, 2054619, 2055178]","[2041329, 2041928, 2042528, 2043128, 2043728, 2044328, 2044929, 2045529, 2046131, 2046733, 2047312, 2047878, 2048453, 2049085, 2049676, 2050311, 2050890, 2051493, 2052101, 2052702, 2053299, 2053891, 2054493, 2055069]",46,R,ITM,1.1,
2,600,trial,0,111,111,111,trial,"['S', 'S', 'S', 'S', 'S', 'S', 'S', 'S', 'C', 'C', 'C', 'C', 'C', 'C', 'C', 'C', 'C', 'C', 'C', 'C', 'C', 'C', 'C', 'C']","[2060974, 2061423, 2061830, 2062381, 2063012, 2063574, 2064180, 2064782, 2065387, 2065975, 2066558, 2067186, 2067764, 2068370, 2068978, 2069587, 2070162, 2070764, 2071328, 2071934, 2072537, 2073124, 2073722, 2074335]","[2061024, 2061518, 2061982, 2062532, 2063155, 2063717, 2064410, 2064975, 2065571, 2066119, 2066704, 2067319, 2067926, 2068552, 2069157, 2069736, 2070329, 2070944, 2071533, 2072101, 2072717, 2073299, 2073914, 2074479]","[2060600, 2061200, 2061800, 2062400, 2063000, 2063600, 2064200, 2064800, 2065414, 2066001, 2066586, 2067214, 2067791, 2068398, 2069005, 2069614, 2070189, 2070792, 2071356, 2071960, 2072564, 2073152, 2073750, 2074362]",46,R,ITM,1.1,
7,400,trial,0,112,112,112,trial,"['S', 'S', 'S', 'S', 'S', 'S', 'S', 'C', 'C', 'C', 'C', 'C', 'C', 'C', 'C', 'C', 'C', 'C', 'C', 'C', 'C', 'C', 'C']","[2080206, 2080531, 2080902, 2081329, 2081700, 2082089, 2082510, 2082928, 2083352, 2083753, 2084154, 2084585, 2085031, 2085477, 2085912, 2086321, 2086737, 2087143, 2087547, 2087975, 2088391, 2088826, 2089229]","[2080313, 2080675, 2081038, 2081429, 2081816, 2082225, 2082653, 2083055, 2083500, 2083885, 2084298, 2084729, 2085168, 2085640, 2086059, 2086473, 2086879, 2087313, 2087718, 2088120, 2088545, 2088967, 2089373]","[2079751, 2080149, 2080549, 2080949, 2081349, 2081750, 2082149, 2082549, 2082955, 2083379, 2083781, 2084180, 2084612, 2085058, 2085504, 2085940, 2086348, 2086765, 2087171, 2087575, 2088002, 2088418, 2088854, 2089255]",46,R,ITM,1.1,
2,400,trial,0,113,113,113,trial,"['S', 'S', 'S', 'S', 'S', 'S', 'S', 'S', 'C', 'C', 'C', 'C', 'C', 'C', 'C', 'C', 'C', 'C', 'C', 'C', 'C', 'C', 'C', 'C']","[2094854, 2095117, 2095466, 2095848, 2096266, 2096643, 2097052, 2097473, 2097890, 2098295, 2098714, 2099130, 2099549, 2099960, 2100381, 2100808, 2101216, 2101618, 2102037, 2102451, 2102875, 2103297, 2103712, 2104155]","[2094923, 2095207, 2095584, 2095990, 2096394, 2096760, 2097191, 2097611, 2098043, 2098440, 2098849, 2099283, 2099697, 2100107, 2100545, 2100948, 2101346, 2101769, 2102183, 2102607, 2103004, 2103440, 2103842, 2104301]","[2094666, 2095067, 2095466, 2095865, 2096265, 2096666, 2097065, 2097465, 2097917, 2098323, 2098741, 2099158, 2099576, 2099988, 2100409, 2100835, 2101243, 2101646, 2102065, 2102478, 2102901, 2103323, 2103740, 2104181]",46,R,ITM,1.1,
3,600,trial,0,114,114,114,trial,"['S', 'S', 'S', 'S', 'S', 'S', 'S', 'S', 'S', 'C', 'C', 'C', 'C', 'C', 'C', 'C', 'C', 'C', 'C', 'C', 'C', 'C', 'C', 'C', 'C']","[2109693, 2109932, 2110608, 2111227, 2111352, 2111834, 2112407, 2113034, 2113615, 2114216, 2114787, 2115442, 2116056, 2116630, 2117241, 2117846, 2118439, 2119021, 2119614, 2120197, 2120791, 2121387, 2121945, 2122539, 2123125]","[2109755, 2110026, 2110673, 2111272, 2111419, 2111998, 2112564, 2113193, 2113773, 2114349, 2114954, 2115596, 2116237, 2116842, 2117419, 2118048, 2118659, 2119247, 2119837, 2120420, 2121004, 2121623, 2122226, 2122766, 2123365]","[2109513, 2110113, 2110713, 2111313, 2111913, 2112514, 2113114, 2113714, 2114242, 2114812, 2115468, 2116081, 2116656, 2117267, 2117871, 2118465, 2119047, 2119640, 2120222, 2120816, 2121412, 2121970, 2122564, 2123151]",46,R,ITM,1.1,
3,400,trial,0,115,115,115,trial,"['S', 'S', 'S', 'S', 'S', 'S', 'S', 'C', 'C', 'C', 'C', 'C', 'C', 'C', 'C', 'C', 'C', 'C', 'C', 'C', 'C', 'C', 'C']","[2128931, 2129333, 2129745, 2130182, 2130597, 2131001, 2131401, 2131802, 2132199, 2132591, 2132999, 2133402, 2133803, 2134233, 2134642, 2135051, 2135452, 2135889, 2136294, 2136699, 2137104, 2137516, 2137908]","[2128998, 2129429, 2129829, 2130273, 2130695, 2131101, 2131488, 2131913, 2132319, 2132705, 2133123, 2133541, 2133947, 2134379, 2134797, 2135183, 2135584, 2136010, 2136408, 2136823, 2137220, 2137635, 2138028]","[2128629, 2129030, 2129429, 2129829, 2130229, 2130629, 2131030, 2131429, 2131827, 2132225, 2132617, 2133024, 2133428, 2133828, 2134258, 2134668, 2135076, 2135478, 2135915, 2136320, 2136725, 2137129, 2137541, 2137933]",46,R,ITM,1.1,
5,400,trial,0,116,116,116,trial,"['S', 'S', 'S', 'S', 'S', 'S', 'C', 'C', 'C', 'C', 'C', 'C', 'C', 'C', 'C', 'C', 'C', 'C', 'C', 'C', 'C', 'C']","[2144474, 2144904, 2145283, 2145716, 2146087, 2146467, 2146889, 2147315, 2147701, 2148104, 2148490, 2148891, 2149309, 2149729, 2150138, 2150544, 2150978, 2151371, 2151751, 2152134, 2152529, 2152942]","[2144564, 2145011, 2145422, 2145827, 2146210, 2146586, 2147027, 2147447, 2147829, 2148240, 2148625, 2149048, 2149408, 2149858, 2150269, 2150675, 2151111, 2151493, 2151895, 2152312, 2152686, 2153089]","[2143715, 2144114, 2144515, 2144914, 2145314, 2145714, 2146114, 2146514, 2146916, 2147341, 2147727, 2148130, 2148515, 2148917, 2149336, 2149754, 2150165, 2150569, 2151004, 2151397, 2151777, 2152160, 2152555, 2152968]",46,R,ITM,1.1,
6,400,trial,0,117,117,117,trial,"['S', 'S', 'S', 'S', 'S', 'S', 'S', 'C', 'C', 'C', 'C', 'C', 'C', 'C', 'C', 'C', 'C', 'C', 'C', 'C', 'C', 'C', 'C']","[2158683, 2159022, 2159387, 2159822, 2160246, 2160643, 2161031, 2161444, 2161837, 2162220, 2162636, 2163049, 2163473, 2163907, 2164304, 2164717, 2165129, 2165557, 2165948, 2166339, 2166757, 2167171, 2167571]","[2158769, 2159118, 2159498, 2159928, 2160371, 2160748, 2161150, 2161563, 2161940, 2162347, 2162786, 2163179, 2163605, 2164045, 2164447, 2164841, 2165265, 2165681, 2166094, 2166474, 2166907, 2167304, 2167704]","[2158263, 2158662, 2159063, 2159462, 2159862, 2160263, 2160662, 2161062, 2161471, 2161863, 2162246, 2162664, 2163077, 2163500, 2163934, 2164332, 2164744, 2165155, 2165584, 2165975, 2166367, 2166784, 2167197, 2167598]",46,R,ITM,1.1,
4,600,trial,0,118,118,118,trial,"['B', 'S', 'S', 'S', 'S', 'S', 'S', 'S', 'C', 'C', 'C', 'C', 'C', 'C', 'C', 'C', 'C', 'C', 'C', 'C', 'C', 'C', 'C', 'C']","[2173163, 2173510, 2174255, 2174859, 2175453, 2176049, 2176660, 2177282, 2177882, 2178479, 2179063, 2179685, 2180301, 2180873, 2181454, 2182038, 2182603, 2183174, 2183799, 2184377, 2184950, 2185523, 2186104, 2186685]","[2173184, 2173596, 2174330, 2174945, 2175553, 2176141, 2176752, 2177411, 2177978, 2178584, 2179196, 2179844, 2180476, 2181106, 2181697, 2182270, 2182881, 2183480, 2184042, 2184601, 2185180, 2185755, 2186390, 2186905]","[2173175, 2173774, 2174374, 2174974, 2175575, 2176175, 2176775, 2177375, 2177907, 2178505, 2179089, 2179710, 2180327, 2180898, 2181480, 2182064, 2182629, 2183199, 2183825, 2184402, 2184976, 2185548, 2186130, 2186712]",46,R,ITM,1.1,
5,400,trial,0,119,119,119,trial,"['S', 'S', 'S', 'S', 'S', 'S', 'S', 'S', 'C', 'C', 'C', 'C', 'C', 'C', 'C', 'C', 'C', 'C', 'C', 'C', 'C', 'C', 'C', 'C']","[2192455, 2192721, 2193015, 2193468, 2193868, 2194255, 2194641, 2195043, 2195464, 2195867, 2196279, 2196699, 2197120, 2197523, 2197934, 2198335, 2198750, 2199178, 2199599, 2200018, 2200427, 2200841, 2201253, 2201669]","[2192514, 2192813, 2193129, 2193537, 2193956, 2194354, 2194737, 2195151, 2195568, 2195981, 2196390, 2196808, 2197240, 2197661, 2198060, 2198487, 2198907, 2199310, 2199746, 2200136, 2200566, 2200972, 2201385, 2201792]","[2192268, 2192668, 2193069, 2193468, 2193868, 2194269, 2194669, 2195069, 2195489, 2195893, 2196304, 2196724, 2197145, 2197549, 2197959, 2198362, 2198775, 2199204, 2199624, 2200045, 2200453, 2200866, 2201280, 2201695]",46,R,ITM,1.1,
4,400,trial,0,120,120,120,trial,"['B', 'S', 'S', 'S', 'S', 'S', 'S', 'S', 'C', 'C', 'C', 'C', 'C', 'C', 'C', 'C', 'C', 'C', 'C', 'C', 'C', 'C', 'C', 'C']","[2207440, 2207785, 2208187, 2208576, 2208965, 2209376, 2209759, 2210204, 2210633, 2211040, 2211469, 2211870, 2212271, 2212704, 2213115, 2213534, 2213946, 2214349, 2214766, 2215188, 2215606, 2216022, 2216444, 2216839]","[2207526, 2207887, 2208292, 2208698, 2209073, 2209477, 2209892, 2210322, 2210760, 2211172, 2211589, 2212025, 2212422, 2212850, 2213253, 2213678, 2214109, 2214484, 2214930, 2215341, 2215753, 2216148, 2216576, 2217010]","[2207453, 2207851, 2208251, 2208651, 2209051, 2209452, 2209851, 2210251, 2210659, 2211065, 2211494, 2211896, 2212296, 2212729, 2213141, 2213560, 2213972, 2214375, 2214792, 2215215, 2215632, 2216047, 2216470, 2216864]",46,R,ITM,1.1,
3,400,trial,0,121,121,121,trial,"['S', 'S', 'S', 'S', 'S', 'S', 'S', 'S', 'C', 'C', 'C', 'C', 'C', 'C', 'C', 'C', 'C', 'C', 'C', 'C', 'C', 'C', 'C', 'C']","[2222356, 2222630, 2222941, 2223351, 2223749, 2224148, 2224539, 2224941, 2225352, 2225770, 2226180, 2226579, 2227020, 2227437, 2227832, 2228240, 2228661, 2229073, 2229457, 2229854, 2230269, 2230672, 2231114, 2231536]","[2222406, 2222724, 2223073, 2223481, 2223887, 2224282, 2224685, 2225096, 2225504, 2225916, 2226357, 2226725, 2227161, 2227582, 2227990, 2228395, 2228822, 2229216, 2229617, 2230014, 2230428, 2230851, 2231271, 2231680]","[2222187, 2222587, 2222987, 2223387, 2223788, 2224187, 2224587, 2224988, 2225378, 2225796, 2226205, 2226605, 2227046, 2227463, 2227858, 2228265, 2228686, 2229099, 2229483, 2229879, 2230295, 2230697, 2231140, 2231562]",46,R,ITM,1.1,
3,600,trial,0,122,122,122,trial,"['S', 'S', 'S', 'S', 'S', 'S', 'S', 'S', 'C', 'C', 'C', 'C', 'C', 'C', 'C', 'C', 'C', 'C', 'C', 'C', 'C', 'C', 'C', 'C']","[2237073, 2237352, 2238134, 2238781, 2239391, 2239979, 2240580, 2241166, 2241736, 2242336, 2242988, 2243599, 2244220, 2244830, 2245465, 2246084, 2246658, 2247277, 2247903, 2248501, 2249091, 2249728, 2250344, 2250940]","[2237180, 2237483, 2238281, 2238935, 2239520, 2240107, 2240760, 2241305, 2241883, 2242518, 2243153, 2243778, 2244383, 2244976, 2245597, 2246227, 2246827, 2247460, 2248073, 2248657, 2249257, 2249859, 2250479, 2251077]","[2237001, 2237601, 2238201, 2238801, 2239401, 2240002, 2240602, 2241202, 2241762, 2242362, 2243013, 2243624, 2244246, 2244855, 2245490, 2246110, 2246683, 2247304, 2247928, 2248526, 2249116, 2249753, 2250370, 2250966]",46,R,ITM,1.1,
5,600,trial,0,123,123,123,trial,"['S', 'S', 'S', 'S', 'S', 'S', 'S', 'S', 'C', 'C', 'C', 'C', 'C', 'C', 'C', 'C', 'C', 'C', 'C', 'C', 'C', 'C', 'C', 'C']","[2256850, 2257112, 2257855, 2258438, 2259067, 2259673, 2260272, 2260868, 2261443, 2262010, 2262596, 2263189, 2263770, 2264342, 2264948, 2265489, 2266023, 2266556, 2267204, 2267766, 2268312, 2268865, 2269419, 2269976]","[2256903, 2257197, 2257956, 2258550, 2259177, 2259796, 2260402, 2261005, 2261586, 2262177, 2262751, 2263360, 2263960, 2264556, 2265135, 2265706, 2266277, 2266769, 2267423, 2267988, 2268503, 2269065, 2269618, 2270117]","[2256668, 2257267, 2257867, 2258467, 2259067, 2259667, 2260268, 2260868, 2261470, 2262036, 2262622, 2263215, 2263795, 2264368, 2264974, 2265515, 2266050, 2266583, 2267230, 2267793, 2268338, 2268891, 2269446, 2270002]",46,R,ITM,1.1,
7,600,trial,0,124,124,124,trial,"['S', 'S', 'S', 'S', 'S', 'S', 'S', 'S', 'C', 'C', 'C', 'C', 'C', 'C', 'C', 'C', 'C', 'C', 'C', 'C', 'C', 'C', 'C', 'C']","[2275789, 2276079, 2276800, 2277376, 2277960, 2278566, 2279189, 2279781, 2280399, 2280987, 2281575, 2282159, 2282787, 2283382, 2283998, 2284592, 2285193, 2285795, 2286376, 2286981, 2287629, 2288207, 2288816, 2289439]","[2275866, 2276220, 2276954, 2277574, 2278134, 2278706, 2279398, 2280000, 2280594, 2281192, 2281777, 2282363, 2282979, 2283564, 2284148, 2284813, 2285418, 2285978, 2286607, 2287218, 2287816, 2288422, 2289030, 2289619]","[2275611, 2276210, 2276810, 2277410, 2278010, 2278610, 2279211, 2279811, 2280427, 2281014, 2281602, 2282185, 2282814, 2283410, 2284025, 2284618, 2285219, 2285822, 2286404, 2287008, 2287655, 2288235, 2288843, 2289467]",46,R,ITM,1.1,
4,400,trial,0,125,125,125,trial,"['S', 'S', 'S', 'S', 'S', 'S', 'S', 'S', 'C', 'C', 'C', 'C', 'C', 'C', 'C', 'C', 'C', 'C', 'C', 'C', 'C', 'C', 'C', 'C']","[2295235, 2295519, 2295800, 2296169, 2296574, 2296961, 2297368, 2297781, 2298212, 2298599, 2299010, 2299424, 2299834, 2300249, 2300669, 2301077, 2301490, 2301889, 2302289, 2302727, 2303150, 2303557, 2303959, 2304366]","[2295297, 2295614, 2295909, 2296294, 2296696, 2297091, 2297494, 2297921, 2298353, 2298743, 2299160, 2299566, 2299966, 2300376, 2300802, 2301198, 2301625, 2302040, 2302446, 2302856, 2303288, 2303707, 2304120, 2304517]","[2295023, 2295422, 2295822, 2296222, 2296623, 2297022, 2297422, 2297822, 2298237, 2298626, 2299035, 2299450, 2299859, 2300274, 2300696, 2301103, 2301515, 2301915, 2302315, 2302752, 2303175, 2303583, 2303984, 2304392]",46,R,ITM,1.1,
