octave,ioi,event,.thisRepN,.thisTrialN,.thisN,.thisIndex,event,tap_types,tap_times,release_times,tone_times,subject,handedness,experiment,version,
,,SPR,0,-1,-1,0,SPR,"['P', 'P', 'P', 'P', 'P', 'P', 'P', 'P', 'P', 'P', 'P', 'P', 'P', 'P', 'P', 'P', 'P', 'P', 'P', 'P', 'P', 'P', 'P', 'P', 'P', 'P', 'P', 'P', 'P', 'P']","[35344, 36176, 37096, 37990, 38807, 39617, 40455, 41246, 42089, 42912, 43707, 44520, 45336, 46136, 46973, 47807, 48621, 49459, 50269, 51091, 51888, 52691, 53541, 54361, 55159, 55974, 56790, 57613, 58419, 59211]","[35529, 36345, 37241, 38121, 38969, 39798, 40616, 41392, 42223, 43034, 43824, 44641, 45456, 46269, 47126, 47944, 48758, 49592, 50409, 51237, 52047, 52835, 53683, 54521, 55355, 56145, 56938, 57782, 58621, 59410]",,19,R,ITM,1.1,
3,500,practice,0,0,0,0,practice,"['B', 'S', 'S', 'S', 'C', 'C', 'C', 'C', 'C', 'C', 'C', 'C', 'C', 'C', 'C', 'C', 'C', 'C', 'C', 'C']","[115820, 116679, 117730, 118753, 119781, 120713, 121686, 122662, 123635, 124606, 125605, 126615, 127579, 128579, 129599, 130586, 131555, 132576, 133548, 134553]","[116042, 117032, 118014, 119234, 119967, 120953, 121897, 122846, 123847, 124811, 125809, 126802, 127800, 128825, 129839, 130766, 131764, 132773, 133756, 134778]","[115832, 116331, 116831, 117331, 117831, 118331, 118832, 119331, 119806, 120738, 121711, 122688, 123661, 124632, 125631, 126641, 127604, 128605, 129625, 130612, 131580, 132601, 133573, 134579]",19,R,ITM,1.1,
4,500,practice,0,1,1,1,practice,"['S', 'S', 'S', 'S', 'S', 'S', 'S', 'C', 'C', 'C', 'C', 'C', 'C', 'C', 'C', 'C', 'C', 'C', 'C', 'C', 'C', 'C', 'C']","[140652, 141071, 141559, 142115, 142581, 142951, 143635, 144157, 144631, 145141, 145623, 146104, 146600, 147101, 147618, 148120, 148600, 149079, 149605, 150074, 150538, 151059, 151538]","[140833, 141322, 141839, 142318, 142757, 143386, 143880, 144353, 144844, 145353, 145810, 146284, 146794, 147299, 147798, 148332, 148806, 149321, 149798, 150321, 150814, 151310, 151779]","[140188, 140687, 141188, 141687, 142187, 142687, 143187, 143687, 144183, 144657, 145167, 145648, 146129, 146626, 147127, 147644, 148146, 148626, 149104, 149632, 150099, 150563, 151085, 151564]",19,R,ITM,1.1,
6,500,practice,0,2,2,2,practice,"['S', 'S', 'S', 'S', 'S', 'S', 'S', 'C', 'C', 'C', 'C', 'C', 'C', 'C', 'C', 'C', 'C', 'C', 'C', 'C', 'C', 'C', 'C']","[157356, 157831, 158342, 158857, 159340, 159797, 160317, 160862, 161339, 161781, 162270, 162742, 163225, 163663, 164166, 164664, 165128, 165619, 166114, 166597, 167072, 167596, 168082]","[157599, 158087, 158557, 159088, 159590, 160103, 160613, 161092, 161581, 162026, 162520, 162981, 163423, 163869, 164375, 164865, 165337, 165856, 166331, 166839, 167326, 167830, 168301]","[156976, 157474, 157974, 158474, 158974, 159474, 159974, 160475, 160888, 161367, 161808, 162296, 162768, 163252, 163690, 164194, 164691, 165154, 165646, 166140, 166624, 167099, 167623, 168110]",19,R,ITM,1.1,
2,500,practice,0,3,3,3,practice,"['S', 'S', 'S', 'S', 'S', 'S', 'C', 'C', 'C', 'C', 'C', 'C', 'C', 'C', 'C', 'C', 'C', 'C', 'C', 'C', 'C', 'C']","[174659, 175155, 175697, 176229, 176708, 177213, 177718, 178208, 178706, 179212, 179700, 180234, 180702, 181178, 181662, 182159, 182634, 183140, 183608, 184090, 184586, 185056]","[174914, 175384, 175925, 176415, 176929, 177429, 177909, 178411, 178918, 179395, 179919, 180419, 180922, 181425, 181911, 182389, 182872, 183354, 183822, 184293, 184823, 185300]","[173806, 174306, 174806, 175305, 175806, 176306, 176805, 177305, 177744, 178236, 178733, 179239, 179727, 180261, 180728, 181206, 181690, 182185, 182662, 183168, 183634, 184117, 184613, 185083]",19,R,ITM,1.1,
5,500,practice,0,4,4,4,practice,"['S', 'S', 'S', 'S', 'S', 'S', 'C', 'C', 'C', 'C', 'C', 'C', 'C', 'C', 'C', 'C', 'C', 'C', 'C', 'C', 'C', 'C']","[191491, 191955, 192505, 193033, 193558, 194030, 194537, 195018, 195518, 196018, 196486, 196973, 197481, 197982, 198448, 198943, 199424, 199912, 200421, 200943, 201430, 201906]","[191684, 192199, 192745, 193244, 193737, 194210, 194703, 195223, 195729, 196201, 196666, 197180, 197683, 198156, 198635, 199135, 199620, 200102, 200605, 201133, 201639, 202119]","[190626, 191125, 191625, 192125, 192625, 193125, 193626, 194125, 194563, 195044, 195544, 196043, 196511, 196999, 197508, 198008, 198474, 198969, 199449, 199938, 200446, 200969, 201456, 201931]",19,R,ITM,1.1,
7,500,practice,0,5,5,5,practice,"['S', 'S', 'S', 'S', 'S', 'S', 'S', 'C', 'C', 'C', 'C', 'C', 'C', 'C', 'C', 'C', 'C', 'C', 'C', 'C', 'C', 'C', 'C']","[207883, 208377, 208888, 209397, 209907, 210387, 210850, 211372, 211879, 212368, 212884, 213359, 213865, 214378, 214862, 215377, 215909, 216439, 216934, 217450, 217978, 218487, 218992]","[208113, 208620, 209119, 209620, 210135, 210622, 211111, 211570, 212106, 212577, 213066, 213567, 214070, 214601, 215115, 215605, 216121, 216630, 217138, 217680, 218202, 218726, 219236]","[207518, 208017, 208518, 209017, 209517, 210017, 210518, 211017, 211398, 211906, 212395, 212911, 213386, 213893, 214405, 214889, 215404, 215936, 216466, 216962, 217477, 218006, 218515, 219020]",19,R,ITM,1.1,
6,600,trial,0,6,6,6,trial,"['S', 'S', 'S', 'S', 'S', 'S', 'S', 'C', 'C', 'C', 'C', 'C', 'C', 'C', 'C', 'C', 'C', 'C', 'C', 'C', 'C', 'C', 'C']","[258716, 259362, 259991, 260620, 261255, 261872, 262489, 263089, 263671, 264286, 264867, 265473, 266079, 266652, 267275, 267871, 268449, 269028, 269621, 270212, 270792, 271343, 271964]","[258942, 259670, 260244, 260891, 261505, 262130, 262759, 263365, 263988, 264591, 265212, 265801, 266378, 266956, 267565, 268184, 268747, 269336, 270012, 270552, 271033, 271734]","[258324, 258923, 259523, 260123, 260723, 261323, 261923, 262523, 263115, 263698, 264312, 264894, 265499, 266105, 266679, 267302, 267897, 268476, 269056, 269647, 270238, 270819, 271371, 271990]",19,R,ITM,1.1,
3,400,trial,0,7,7,7,trial,"['S', 'S', 'S', 'S', 'S', 'S', 'S', 'C', 'C', 'C', 'C', 'C', 'C', 'C', 'C', 'C', 'C', 'C', 'C', 'C', 'C', 'C', 'C']","[277986, 278426, 278797, 279181, 279580, 279975, 280371, 280756, 281145, 281489, 281856, 282234, 282601, 282988, 283377, 283772, 284153, 284564, 284947, 285369, 285779, 286159, 286574]","[278239, 278670, 279052, 279445, 279828, 280222, 280620, 280989, 281352, 281732, 282063, 282447, 282826, 283181, 283608, 283991, 284392, 284772, 285207, 285570, 286009, 286406, 286821]","[277670, 278070, 278470, 278871, 279270, 279670, 280071, 280471, 280781, 281170, 281515, 281881, 282260, 282627, 283014, 283403, 283798, 284179, 284590, 284973, 285394, 285805, 286185, 286600]",19,R,ITM,1.1,
5,600,trial,0,8,8,8,trial,"['S', 'S', 'S', 'S', 'S', 'S', 'S', 'C', 'C', 'C', 'C', 'C', 'C', 'C', 'C', 'C', 'C', 'C', 'C', 'C', 'C', 'C', 'C']","[292481, 293186, 293782, 294401, 294995, 295570, 296200, 296808, 297416, 297996, 298566, 299159, 299755, 300304, 300881, 301455, 302043, 302612, 303205, 303751, 304369, 304918, 305486]","[292752, 293453, 294033, 294669, 295302, 295855, 296510, 297062, 297726, 298297, 298871, 299498, 300073, 300661, 301232, 301828, 302430, 302962, 303534, 304143, 304762, 305313]","[292119, 292719, 293319, 293919, 294519, 295119, 295719, 296320, 296834, 297442, 298021, 298592, 299185, 299782, 300329, 300907, 301480, 302068, 302639, 303232, 303777, 304396, 304945, 305512]",19,R,ITM,1.1,
3,600,trial,0,9,9,9,trial,"['S', 'S', 'S', 'S', 'S', 'S', 'C', 'C', 'C', 'C', 'C', 'C', 'C', 'C', 'C', 'C', 'C', 'C', 'C', 'C', 'C', 'C']","[312302, 312909, 313541, 314211, 314808, 315398, 315996, 316581, 317184, 317791, 318385, 318988, 319587, 320198, 320812, 321397, 321984, 322596, 323159, 323774, 324330, 324945]","[312602, 313237, 313819, 314449, 315079, 315703, 316311, 316940, 317529, 318106, 318735, 319370, 319953, 320594, 321154, 321745, 322281, 322954, 323507, 324089, 324665]","[311292, 311891, 312492, 313092, 313692, 314291, 314891, 315491, 316021, 316607, 317209, 317816, 318410, 319013, 319612, 320225, 320837, 321423, 322010, 322622, 323184, 323800, 324356, 324972]",19,R,ITM,1.1,
5,400,trial,0,10,10,10,trial,"['S', 'S', 'S', 'S', 'S', 'S', 'C', 'C', 'C', 'C', 'C', 'C', 'C', 'C', 'C', 'C', 'C', 'C', 'C', 'C', 'C', 'C']","[331220, 331573, 331956, 332385, 332776, 333172, 333570, 333931, 334278, 334652, 335023, 335407, 335810, 336196, 336645, 337057, 337487, 337870, 338302, 338705, 339128, 339544]","[331400, 331782, 332190, 332589, 332967, 333353, 333728, 334111, 334464, 334841, 335216, 335620, 336008, 336454, 336850, 337286, 337684, 338084, 338523, 338929, 339369]","[330490, 330890, 331290, 331691, 332090, 332490, 332891, 333290, 333595, 333957, 334305, 334679, 335048, 335432, 335836, 336222, 336670, 337084, 337513, 337896, 338328, 338732, 339153, 339569]",19,R,ITM,1.1,
3,400,trial,0,11,11,11,trial,"['S', 'S', 'S', 'S', 'S', 'S', 'C', 'C', 'C', 'C', 'C', 'C', 'C', 'C', 'C', 'C', 'C', 'C', 'C', 'C', 'C', 'C']","[345773, 346157, 346577, 346978, 347378, 347772, 348188, 348591, 349000, 349400, 349816, 350209, 350635, 351026, 351457, 351869, 352284, 352711, 353139, 353559, 353994, 354426]","[345976, 346404, 346812, 347200, 347592, 348029, 348433, 348828, 349236, 349643, 350052, 350473, 350879, 351295, 351718, 352143, 352531, 352972, 353387, 353868, 354270, 354651]","[345070, 345469, 345869, 346269, 346670, 347069, 347469, 347869, 348214, 348616, 349026, 349425, 349842, 350234, 350660, 351051, 351482, 351895, 352310, 352737, 353165, 353585, 354020, 354452]",19,R,ITM,1.1,
4,600,trial,0,12,12,12,trial,"['S', 'S', 'S', 'S', 'S', 'S', 'C', 'C', 'C', 'C', 'C', 'C', 'C', 'C', 'C', 'C', 'C', 'C', 'C', 'C', 'C', 'C']","[361264, 361836, 362457, 363067, 363668, 364265, 364864, 365437, 366015, 366585, 367145, 367689, 368276, 368843, 369411, 369985, 370569, 371155, 371724, 372333, 372889, 373446]","[361541, 362115, 362740, 363395, 363995, 364594, 365165, 365778, 366342, 366911, 367469, 368054, 368637, 369225, 369813, 370411, 370966, 371500, 372137, 372687, 373256]","[360188, 360787, 361388, 361988, 362588, 363187, 363787, 364387, 364890, 365464, 366041, 366611, 367171, 367715, 368303, 368869, 369436, 370011, 370594, 371181, 371749, 372360, 372915, 373472]",19,R,ITM,1.1,
6,400,trial,0,13,13,13,trial,"['S', 'S', 'S', 'S', 'C', 'C', 'C', 'C', 'C', 'C', 'C', 'C', 'C', 'C', 'C', 'C', 'C', 'C', 'C', 'C']","[380560, 380941, 381347, 381745, 382155, 382547, 382925, 383309, 383705, 384084, 384471, 384872, 385263, 385687, 386074, 386464, 386868, 387258, 387627, 388071]","[380764, 381152, 381558, 381955, 382320, 382727, 383131, 383504, 383896, 384272, 384686, 385072, 385473, 385883, 386256, 386675, 387055, 387473, 387880, 388257]","[379065, 379464, 379865, 380264, 380664, 381064, 381464, 381864, 382182, 382574, 382952, 383336, 383732, 384111, 384498, 384899, 385290, 385715, 386101, 386491, 386895, 387284, 387653, 388098]",19,R,ITM,1.1,
2,600,trial,0,14,14,14,trial,"['S', 'S', 'S', 'S', 'C', 'C', 'C', 'C', 'C', 'C', 'C', 'C', 'C', 'C', 'C', 'C', 'C', 'C', 'C', 'C']","[396073, 396669, 397296, 397854, 398466, 399044, 399624, 400175, 400790, 401359, 401933, 402483, 403086, 403657, 404225, 404809, 405367, 405945, 406553, 407151]","[396321, 396934, 397543, 398173, 398715, 399350, 399959, 400520, 401127, 401712, 402297, 402850, 403412, 403993, 404529, 405115, 405699, 406284, 406881]","[393782, 394382, 394982, 395581, 396182, 396782, 397382, 397982, 398493, 399072, 399651, 400201, 400818, 401386, 401960, 402509, 403113, 403685, 404251, 404837, 405394, 405971, 406580, 407178]",19,R,ITM,1.1,
4,400,trial,0,15,15,15,trial,"['S', 'S', 'S', 'S', 'C', 'C', 'C', 'C', 'C', 'C', 'C', 'C', 'C', 'C', 'C', 'C', 'C', 'C', 'C', 'C']","[414064, 414448, 414855, 415262, 415666, 416041, 416407, 416789, 417168, 417567, 417948, 418369, 418748, 419168, 419535, 419990, 420363, 420797, 421197, 421636]","[414231, 414637, 415054, 415459, 415832, 416216, 416589, 416987, 417359, 417757, 418144, 418574, 418969, 419371, 419764, 420185, 420609, 420986, 421455, 421882]","[412563, 412963, 413363, 413763, 414163, 414563, 414963, 415364, 415691, 416067, 416434, 416815, 417195, 417593, 417974, 418395, 418774, 419193, 419561, 420016, 420388, 420823, 421223, 421661]",19,R,ITM,1.1,
5,600,trial,0,16,16,16,trial,"['S', 'S', 'S', 'S', 'C', 'C', 'C', 'C', 'C', 'C', 'C', 'C', 'C', 'C', 'C', 'C', 'C', 'C', 'C', 'C']","[429502, 430093, 430717, 431335, 431943, 432518, 433129, 433694, 434242, 434797, 435372, 435945, 436550, 437116, 437681, 438238, 438797, 439359, 439922, 440508]","[429735, 430370, 430934, 431545, 432209, 432731, 433355, 433952, 434557, 435110, 435709, 436304, 436923, 437432, 438005, 438544, 439099, 439680, 440267]","[427198, 427798, 428398, 428998, 429598, 430198, 430798, 431398, 431970, 432543, 433155, 433720, 434268, 434823, 435397, 435972, 436577, 437143, 437706, 438263, 438823, 439385, 439949, 440534]",19,R,ITM,1.1,
4,400,trial,0,17,17,17,trial,"['S', 'S', 'S', 'S', 'C', 'C', 'C', 'C', 'C', 'C', 'C', 'C', 'C', 'C', 'C', 'C', 'C', 'C', 'C', 'C']","[447531, 447891, 448296, 448692, 449081, 449497, 449890, 450289, 450696, 451104, 451516, 451958, 452343, 452762, 453164, 453593, 453977, 454412, 454791, 455240]","[447715, 448104, 448478, 448868, 449256, 449680, 450082, 450480, 450896, 451329, 451721, 452136, 452571, 452964, 453384, 453818, 454237, 454603, 455062, 455496]","[446027, 446428, 446827, 447227, 447627, 448027, 448428, 448827, 449106, 449522, 449915, 450315, 450721, 451130, 451543, 451984, 452369, 452789, 453189, 453619, 454002, 454437, 454816, 455266]",19,R,ITM,1.1,
6,600,trial,0,18,18,18,trial,"['S', 'S', 'S', 'S', 'C', 'C', 'C', 'C', 'C', 'C', 'C', 'C', 'C', 'C', 'C', 'C', 'C', 'C', 'C', 'C']","[466242, 466883, 467500, 468077, 468696, 469327, 469905, 470462, 471009, 471602, 472152, 472756, 473337, 473886, 474434, 475015, 475618, 476180, 476677, 477262]","[466445, 467097, 467705, 468272, 468862, 469486, 470109, 470693, 471237, 471827, 472430, 473029, 473627, 474145, 474720, 475325, 475864, 476479, 477025]","[463942, 464541, 465141, 465741, 466341, 466941, 467542, 468142, 468722, 469354, 469932, 470489, 471036, 471629, 472178, 472782, 473364, 473913, 474461, 475041, 475645, 476207, 476703, 477289]",19,R,ITM,1.1,
2,600,trial,0,19,19,19,trial,"['S', 'S', 'S', 'S', 'C', 'C', 'C', 'C', 'C', 'C', 'C', 'C', 'C', 'C', 'C', 'C', 'C', 'C', 'C', 'C']","[484876, 485526, 486126, 486724, 487283, 487887, 488471, 489089, 489695, 490314, 490935, 491494, 492073, 492680, 493261, 493831, 494418, 495025, 495635, 496218]","[485145, 485738, 486371, 486963, 487510, 488131, 488723, 489337, 489939, 490559, 491207, 491776, 492407, 492972, 493618, 494175, 494787, 495394, 495983]","[482582, 483182, 483781, 484382, 484982, 485582, 486182, 486782, 487311, 487915, 488498, 489115, 489722, 490342, 490962, 491522, 492101, 492707, 493289, 493857, 494446, 495052, 495663, 496244]",19,R,ITM,1.1,
7,600,trial,0,20,20,20,trial,"['S', 'S', 'S', 'S', 'C', 'C', 'C', 'C', 'C', 'C', 'C', 'C', 'C', 'C', 'C', 'C', 'C', 'C', 'C', 'C']","[504324, 504925, 505494, 506101, 506690, 507281, 507833, 508403, 508953, 509524, 510099, 510650, 511253, 511811, 512372, 512942, 513514, 514137, 514723, 515301]","[504587, 505180, 505784, 506401, 506952, 507599, 508155, 508700, 509250, 509836, 510419, 510994, 511593, 512146, 512769, 513363, 513910, 514555, 515080]","[502017, 502616, 503216, 503816, 504416, 505016, 505616, 506216, 506718, 507309, 507860, 508431, 508981, 509552, 510127, 510678, 511281, 511839, 512399, 512968, 513542, 514164, 514750, 515328]",19,R,ITM,1.1,
7,400,trial,0,21,21,21,trial,"['S', 'S', 'S', 'S', 'C', 'C', 'C', 'C', 'C', 'C', 'C', 'C', 'C', 'C', 'C', 'C', 'C', 'C', 'C', 'C']","[522588, 522974, 523374, 523773, 524193, 524564, 524956, 525370, 525782, 526179, 526573, 526977, 527379, 527781, 528159, 528541, 528984, 529386, 529765, 530157]","[522753, 523149, 523535, 523937, 524351, 524745, 525148, 525551, 525958, 526365, 526771, 527145, 527550, 527948, 528351, 528743, 529142, 529558, 529959, 530333]","[521055, 521454, 521854, 522254, 522654, 523055, 523454, 523854, 524220, 524591, 524984, 525396, 525808, 526205, 526600, 527004, 527406, 527808, 528186, 528568, 529010, 529414, 529793, 530184]",19,R,ITM,1.1,
7,600,trial,0,22,22,22,trial,"['S', 'S', 'S', 'S', 'C', 'C', 'C', 'C', 'C', 'C', 'C', 'C', 'C', 'C', 'C', 'C', 'C', 'C', 'C', 'C']","[537986, 538622, 539232, 539831, 540412, 541003, 541597, 542181, 542793, 543408, 543967, 544598, 545202, 545801, 546394, 546973, 547582, 548159, 548764, 549352]","[538183, 538820, 539442, 540038, 540663, 541249, 541819, 542400, 543024, 543675, 544238, 544898, 545529, 546153, 546753, 547339, 547957, 548551, 549149]","[535665, 536264, 536864, 537464, 538064, 538664, 539265, 539865, 540440, 541031, 541625, 542209, 542821, 543435, 543994, 544625, 545228, 545828, 546420, 547000, 547609, 548187, 548791, 549379]",19,R,ITM,1.1,
3,600,trial,0,23,23,23,trial,"['S', 'S', 'S', 'S', 'C', 'C', 'C', 'C', 'C', 'C', 'C', 'C', 'C', 'C', 'C', 'C', 'C', 'C', 'C', 'C']","[557446, 558029, 558633, 559249, 559833, 560410, 561013, 561599, 562199, 562793, 563336, 563926, 564532, 565114, 565682, 566294, 566873, 567482, 568085, 568694]","[557697, 558330, 558965, 559574, 560159, 560726, 561380, 561993, 562576, 563132, 563745, 564304, 564868, 565473, 566076, 566664, 567293, 567862, 568460]","[555120, 555720, 556320, 556920, 557520, 558120, 558721, 559321, 559858, 560436, 561039, 561625, 562225, 562819, 563361, 563951, 564557, 565140, 565707, 566320, 566898, 567507, 568111, 568721]",19,R,ITM,1.1,
5,400,trial,0,24,24,24,trial,"['S', 'S', 'S', 'S', 'C', 'C', 'C', 'C', 'C', 'C', 'C', 'C', 'C', 'C', 'C', 'C', 'C', 'C', 'C', 'C']","[575754, 576147, 576548, 576949, 577367, 577748, 578123, 578532, 578925, 579311, 579696, 580108, 580477, 580864, 581249, 581635, 582000, 582396, 582794, 583152]","[575932, 576350, 576780, 577171, 577567, 577960, 578349, 578738, 579118, 579528, 579921, 580295, 580699, 581071, 581449, 581824, 582224, 582605, 582976, 583371]","[574230, 574630, 575030, 575430, 575831, 576230, 576630, 577031, 577392, 577773, 578149, 578557, 578952, 579337, 579722, 580133, 580503, 580889, 581274, 581660, 582026, 582423, 582820, 583179]",19,R,ITM,1.1,
7,400,trial,0,25,25,25,trial,"['S', 'S', 'S', 'S', 'C', 'C', 'C', 'C', 'C', 'C', 'C', 'C', 'C', 'C', 'C', 'C', 'C', 'C', 'C', 'C']","[590356, 590737, 591140, 591522, 591926, 592303, 592709, 593088, 593483, 593869, 594260, 594636, 595061, 595451, 595846, 596226, 596663, 596983, 597456, 597874]","[590510, 590939, 591334, 591711, 592119, 592509, 592879, 593270, 593674, 594060, 594443, 594857, 595246, 595653, 596062, 596451, 596858, 597239, 597651, 598081]","[588821, 589221, 589621, 590021, 590422, 590821, 591221, 591622, 591952, 592329, 592737, 593115, 593511, 593896, 594286, 594664, 595088, 595478, 595872, 596253, 596690, 597011, 597484, 597901]",19,R,ITM,1.1,
6,400,trial,0,26,26,26,trial,"['S', 'S', 'S', 'S', 'C', 'C', 'C', 'C', 'C', 'C', 'C', 'C', 'C', 'C', 'C', 'C', 'C', 'C', 'C', 'C']","[604877, 605271, 605678, 606076, 606464, 606857, 607243, 607638, 608030, 608470, 608867, 609298, 609713, 610127, 610532, 610930, 611381, 611807, 612208, 612617]","[605051, 605458, 605862, 606242, 606627, 607037, 607420, 607828, 608230, 608672, 609090, 609488, 609918, 610320, 610746, 611170, 611568, 611987, 612420, 612835]","[603368, 603767, 604168, 604568, 604968, 605368, 605768, 606169, 606490, 606883, 607270, 607665, 608057, 608496, 608894, 609325, 609739, 610154, 610558, 610957, 611407, 611833, 612236, 612643]",19,R,ITM,1.1,
2,400,trial,0,27,27,27,trial,"['S', 'S', 'S', 'S', 'C', 'C', 'C', 'C', 'C', 'C', 'C', 'C', 'C', 'C', 'C', 'C', 'C', 'C', 'C', 'C']","[619894, 620317, 620735, 621140, 621533, 621939, 622329, 622723, 623119, 623519, 623929, 624363, 624757, 625172, 625580, 625980, 626395, 626816, 627237, 627632]","[620093, 620521, 620953, 621336, 621750, 622150, 622544, 622940, 623340, 623766, 624158, 624559, 624978, 625398, 625787, 626183, 626613, 627020, 627451, 627881]","[618393, 618793, 619193, 619593, 619994, 620393, 620792, 621193, 621559, 621966, 622356, 622750, 623145, 623547, 623956, 624390, 624784, 625199, 625606, 626008, 626422, 626843, 627264, 627659]",19,R,ITM,1.1,
2,400,trial,0,28,28,28,trial,"['S', 'S', 'S', 'S', 'C', 'C', 'C', 'C', 'C', 'C', 'C', 'C', 'C', 'C', 'C', 'C', 'C', 'C', 'C', 'C']","[634831, 635248, 635661, 636069, 636485, 636906, 637290, 637693, 638094, 638486, 638867, 639246, 639676, 640066, 640481, 640871, 641264, 641651, 642052, 642419]","[635058, 635444, 635869, 636280, 636680, 637086, 637502, 637898, 638295, 638691, 639098, 639481, 639901, 640295, 640675, 641088, 641495, 641898, 642281, 642672]","[633335, 633735, 634134, 634535, 634935, 635334, 635736, 636135, 636513, 636934, 637317, 637720, 638121, 638513, 638894, 639273, 639703, 640094, 640507, 640898, 641291, 641679, 642079, 642446]",19,R,ITM,1.1,
4,600,trial,0,29,29,29,trial,"['S', 'S', 'S', 'S', 'C', 'C', 'C', 'C', 'C', 'C', 'C', 'C', 'C', 'C', 'C', 'C', 'C', 'C', 'C', 'C']","[650172, 650728, 651360, 651965, 652563, 653167, 653755, 654325, 654899, 655494, 656073, 656689, 657267, 657842, 658424, 659015, 659591, 660164, 660783, 661371]","[650394, 651015, 651623, 652219, 652860, 653485, 654052, 654623, 655215, 655811, 656451, 657030, 657610, 658204, 658803, 659374, 659963, 660511, 661081]","[647837, 648437, 649037, 649637, 650237, 650838, 651438, 652038, 652589, 653194, 653782, 654351, 654924, 655519, 656099, 656714, 657293, 657867, 658450, 659041, 659616, 660191, 660808, 661397]",19,R,ITM,1.1,
6,400,trial,0,30,30,30,trial,"['S', 'S', 'S', 'S', 'C', 'C', 'C', 'C', 'C', 'C', 'C', 'C', 'C', 'C', 'C', 'C', 'C', 'C', 'C', 'C']","[670044, 670446, 670861, 671253, 671678, 672062, 672429, 672804, 673182, 673588, 673974, 674341, 674728, 675112, 675502, 675867, 676261, 676638, 677023, 677420]","[670225, 670637, 671057, 671463, 671843, 672230, 672604, 672999, 673384, 673762, 674145, 674532, 674923, 675304, 675692, 676079, 676442, 676829, 677222, 677611]","[668540, 668939, 669339, 669740, 670139, 670539, 670940, 671339, 671706, 672090, 672455, 672831, 673210, 673614, 674000, 674368, 674755, 675139, 675529, 675895, 676289, 676666, 677050, 677447]",19,R,ITM,1.1,
6,600,trial,0,31,31,31,trial,"['S', 'S', 'S', 'S', 'C', 'C', 'C', 'C', 'C', 'C', 'C', 'C', 'C', 'C', 'C', 'C', 'C', 'C', 'C', 'C']","[685475, 686120, 686768, 687391, 687975, 688583, 689163, 689730, 690287, 690904, 691496, 692075, 692666, 693241, 693819, 694360, 694988, 695583, 696164, 696745]","[685741, 686401, 687039, 687716, 688304, 688882, 689467, 690070, 690663, 691270, 691823, 692459, 693048, 693586, 694220, 694801, 695376, 695943, 696556]","[683188, 683787, 684387, 684987, 685587, 686187, 686787, 687387, 688003, 688611, 689189, 689757, 690315, 690931, 691523, 692102, 692694, 693269, 693847, 694386, 695016, 695610, 696190, 696773]",19,R,ITM,1.1,
5,400,trial,0,32,32,32,trial,"['S', 'S', 'S', 'S', 'C', 'C', 'C', 'C', 'C', 'C', 'C', 'C', 'C', 'C', 'C', 'C', 'C', 'C', 'C', 'C']","[703995, 704417, 704827, 705222, 705680, 706083, 706502, 706928, 707334, 707781, 708214, 708653, 709046, 709468, 709856, 710303, 710705, 711138, 711570, 711976]","[704180, 704637, 705049, 705460, 705893, 706317, 706742, 707158, 707565, 708017, 708463, 708870, 709285, 709672, 710102, 710516, 710959, 711400, 711819, 712243]","[702490, 702889, 703289, 703689, 704090, 704489, 704889, 705289, 705705, 706109, 706528, 706955, 707359, 707807, 708240, 708678, 709071, 709494, 709881, 710329, 710730, 711164, 711596, 712002]",19,R,ITM,1.1,
7,600,trial,0,33,33,33,trial,"['S', 'S', 'S', 'S', 'C', 'C', 'C', 'C', 'C', 'C', 'C', 'C', 'C', 'C', 'C', 'C', 'C', 'C', 'C', 'C']","[720050, 720671, 721263, 721858, 722438, 723015, 723590, 724146, 724698, 725244, 725838, 726412, 727002, 727639, 728203, 728756, 729306, 729868, 730411, 730975]","[720295, 720949, 721541, 722145, 722723, 723333, 723934, 724487, 725071, 725665, 726188, 726862, 727449, 727971, 728561, 729139, 729708, 730230, 730785]","[717766, 718365, 718965, 719565, 720165, 720765, 721366, 721966, 722464, 723042, 723616, 724173, 724724, 725271, 725866, 726438, 727028, 727666, 728229, 728783, 729333, 729894, 730437, 731002]",19,R,ITM,1.1,
4,600,trial,0,34,34,34,trial,"['S', 'S', 'S', 'S', 'C', 'C', 'C', 'C', 'C', 'C', 'C', 'C', 'C', 'C', 'C', 'C', 'C', 'C', 'C', 'C']","[738883, 739472, 740096, 740694, 741296, 741878, 742463, 743022, 743593, 744184, 744756, 745330, 745903, 746470, 747073, 747620, 748232, 748812, 749357, 749939]","[739226, 739840, 740433, 741045, 741660, 742238, 742804, 743369, 743958, 744545, 745093, 745686, 746272, 746841, 747459, 748073, 748609, 749202, 749758]","[736620, 737220, 737820, 738420, 739020, 739620, 740220, 740820, 741322, 741904, 742489, 743048, 743618, 744211, 744782, 745356, 745928, 746496, 747099, 747645, 748258, 748837, 749382, 749966]",19,R,ITM,1.1,
4,600,trial,0,35,35,35,trial,"['S', 'S', 'S', 'S', 'C', 'C', 'C', 'C', 'C', 'C', 'C', 'C', 'C', 'C', 'C', 'C', 'C', 'C', 'C', 'C']","[757757, 758364, 758989, 759604, 760194, 760806, 761436, 762008, 762548, 763127, 763727, 764346, 764924, 765506, 766105, 766667, 767277, 767886, 768441, 769008]","[758072, 758695, 759316, 759956, 760550, 761182, 761752, 762365, 762948, 763564, 764114, 764700, 765297, 765905, 766485, 767112, 767705, 768252, 768829]","[755489, 756089, 756689, 757289, 757890, 758490, 759090, 759690, 760219, 760832, 761461, 762034, 762573, 763153, 763753, 764371, 764950, 765532, 766132, 766693, 767303, 767911, 768466, 769034]",19,R,ITM,1.1,
7,400,trial,0,36,36,36,trial,"['S', 'S', 'S', 'S', 'C', 'C', 'C', 'C', 'C', 'C', 'C', 'C', 'C', 'C', 'C', 'C', 'C', 'C', 'C', 'C']","[775876, 776285, 776687, 777078, 777502, 777908, 778293, 778670, 779088, 779472, 779866, 780253, 780656, 781044, 781415, 781795, 782175, 782550, 782941, 783334]","[776056, 776469, 776893, 777302, 777701, 778095, 778499, 778888, 779267, 779653, 780045, 780429, 780824, 781218, 781620, 782011, 782390, 782772, 783160, 783548]","[774361, 774759, 775159, 775560, 775960, 776360, 776760, 777160, 777529, 777934, 778320, 778697, 779115, 779499, 779893, 780279, 780683, 781071, 781443, 781821, 782201, 782576, 782967, 783361]",19,R,ITM,1.1,
4,400,trial,0,37,37,37,trial,"['S', 'S', 'S', 'S', 'C', 'C', 'C', 'C', 'C', 'C', 'C', 'C', 'C', 'C', 'C', 'C', 'C', 'C', 'C', 'C']","[790639, 791028, 791438, 791833, 792237, 792619, 793004, 793387, 793776, 794160, 794541, 794960, 795334, 795717, 796095, 796484, 796855, 797237, 797603, 797992]","[790830, 791214, 791624, 792024, 792419, 792797, 793163, 793561, 793955, 794326, 794742, 795115, 795501, 795886, 796266, 796653, 797029, 797407, 797780, 798188]","[789136, 789535, 789936, 790335, 790735, 791135, 791535, 791936, 792263, 792644, 793029, 793412, 793801, 794185, 794566, 794986, 795361, 795743, 796122, 796510, 796880, 797262, 797629, 798018]",19,R,ITM,1.1,
2,600,trial,0,38,38,38,trial,"['S', 'S', 'S', 'S', 'C', 'C', 'C', 'C', 'C', 'C', 'C', 'C', 'C', 'C', 'C', 'C', 'C', 'C', 'C', 'C']","[805780, 806365, 806966, 807588, 808168, 808793, 809351, 809902, 810475, 811057, 811636, 812220, 812795, 813378, 813977, 814522, 815126, 815654, 816219, 816817]","[806067, 806645, 807304, 807924, 808521, 809100, 809689, 810229, 810781, 811388, 811976, 812560, 813166, 813714, 814218, 814833, 815449, 815976, 816579]","[803457, 804057, 804656, 805256, 805857, 806457, 807057, 807656, 808196, 808820, 809378, 809928, 810503, 811083, 811663, 812248, 812823, 813406, 814004, 814550, 815153, 815681, 816245, 816843]",19,R,ITM,1.1,
4,400,trial,0,39,39,39,trial,"['S', 'S', 'S', 'S', 'C', 'C', 'C', 'C', 'C', 'C', 'C', 'C', 'C', 'C', 'C', 'C', 'C', 'C', 'C', 'C']","[824032, 824439, 824851, 825248, 825679, 826091, 826520, 826920, 827372, 827780, 828178, 828601, 828989, 829431, 829835, 830245, 830680, 831044, 831495, 831932]","[824207, 824638, 825044, 825475, 825880, 826319, 826730, 827179, 827595, 828030, 828452, 828819, 829243, 829664, 830091, 830515, 830896, 831324, 831720, 832184]","[822533, 822931, 823331, 823731, 824131, 824531, 824931, 825331, 825705, 826117, 826546, 826946, 827398, 827805, 828204, 828626, 829015, 829457, 829860, 830271, 830705, 831070, 831520, 831959]",19,R,ITM,1.1,
2,600,trial,0,40,40,40,trial,"['S', 'S', 'S', 'S', 'C', 'C', 'C', 'C', 'C', 'C', 'C', 'C', 'C', 'C', 'C', 'C', 'C', 'C', 'C', 'C']","[839724, 840356, 840988, 841600, 842184, 842793, 843347, 843922, 844498, 845084, 845660, 846249, 846828, 847391, 847965, 848561, 849127, 849727, 850337, 850913]","[839999, 840610, 841237, 841878, 842470, 843043, 843629, 844216, 844807, 845366, 845941, 846571, 847152, 847732, 848330, 848893, 849467, 850073, 850640]","[837456, 838056, 838657, 839256, 839857, 840457, 841057, 841657, 842211, 842819, 843375, 843950, 844526, 845111, 845687, 846276, 846856, 847418, 847992, 848587, 849154, 849755, 850365, 850939]",19,R,ITM,1.1,
7,600,trial,0,41,41,41,trial,"['S', 'S', 'S', 'S', 'C', 'C', 'C', 'C', 'C', 'C', 'C', 'C', 'C', 'C', 'C', 'C', 'C', 'C', 'C', 'C']","[858556, 859194, 859771, 860387, 860997, 861625, 862213, 862765, 863339, 863907, 864449, 865094, 865648, 866219, 866757, 867335, 867913, 868477, 869013, 869632]","[858867, 859493, 860100, 860687, 861281, 861914, 862556, 863092, 863675, 864214, 864811, 865398, 865953, 866525, 867141, 867694, 868282, 868843, 869434]","[856260, 856859, 857459, 858059, 858659, 859259, 859859, 860460, 861025, 861651, 862240, 862792, 863366, 863934, 864477, 865121, 865675, 866246, 866784, 867362, 867940, 868505, 869040, 869658]",19,R,ITM,1.1,
6,400,trial,0,42,42,42,trial,"['S', 'S', 'S', 'S', 'C', 'C', 'C', 'C', 'C', 'C', 'C', 'C', 'C', 'C', 'C', 'C', 'C', 'C', 'C', 'C']","[878374, 878769, 879205, 879590, 879974, 880363, 880749, 881139, 881530, 881914, 882313, 882702, 883108, 883490, 883878, 884273, 884663, 885057, 885437, 885883]","[878516, 878924, 879331, 879728, 880110, 880517, 880897, 881272, 881680, 882056, 882457, 882823, 883227, 883619, 884012, 884414, 884790, 885198, 885565, 886005]","[876840, 877239, 877639, 878040, 878439, 878839, 879240, 879640, 880002, 880391, 880776, 881166, 881558, 881941, 882340, 882728, 883136, 883518, 883905, 884300, 884690, 885084, 885465, 885910]",19,R,ITM,1.1,
7,400,trial,0,43,43,43,trial,"['S', 'S', 'S', 'S', 'C', 'C', 'C', 'C', 'C', 'C', 'C', 'C', 'C', 'C', 'C', 'C', 'C', 'C', 'C', 'C']","[893116, 893500, 893911, 894322, 894743, 895150, 895557, 895939, 896325, 896745, 897127, 897543, 897890, 898319, 898702, 899084, 899478, 899884, 900285, 900685]","[893263, 893648, 894058, 894476, 894899, 895301, 895713, 896109, 896521, 896901, 897302, 897701, 898101, 898480, 898874, 899278, 899664, 900076, 900473, 900897]","[891587, 891986, 892386, 892786, 893187, 893586, 893986, 894387, 894770, 895177, 895585, 895966, 896352, 896772, 897155, 897569, 897916, 898345, 898728, 899110, 899505, 899910, 900313, 900713]",19,R,ITM,1.1,
3,600,trial,0,44,44,44,trial,"['S', 'S', 'S', 'S', 'C', 'C', 'C', 'C', 'C', 'C', 'C', 'C', 'C', 'C', 'C', 'C', 'C', 'C', 'C', 'C']","[908406, 909020, 909688, 910288, 910879, 911489, 912123, 912695, 913278, 913869, 914420, 915049, 915661, 916260, 916836, 917410, 918001, 918600, 919191, 919760]","[908722, 909379, 909993, 910648, 911288, 911919, 912488, 913089, 913693, 914266, 914866, 915465, 916068, 916676, 917223, 917780, 918383, 919069, 919620]","[906140, 906739, 907339, 907939, 908539, 909139, 909740, 910340, 910905, 911514, 912149, 912720, 913305, 913895, 914446, 915075, 915687, 916286, 916861, 917436, 918027, 918626, 919217, 919786]",19,R,ITM,1.1,
5,600,trial,0,45,45,45,trial,"['S', 'S', 'S', 'S', 'C', 'C', 'C', 'C', 'C', 'C', 'C', 'C', 'C', 'C', 'C', 'C', 'C', 'C', 'C', 'C']","[927632, 928238, 928843, 929474, 930083, 930681, 931280, 931873, 932474, 933058, 933597, 934199, 934799, 935364, 935919, 936516, 937075, 937631, 938233, 938812]","[927958, 928576, 929225, 929826, 930397, 931090, 931667, 932276, 932852, 933411, 934054, 934630, 935200, 935782, 936294, 936856, 937404, 937998, 938550]","[925348, 925947, 926547, 927148, 927748, 928348, 928947, 929547, 930109, 930707, 931307, 931900, 932500, 933084, 933622, 934224, 934825, 935390, 935945, 936543, 937102, 937658, 938259, 938839]",19,R,ITM,1.1,
3,400,trial,0,46,46,46,trial,"['S', 'S', 'S', 'S', 'C', 'C', 'C', 'C', 'C', 'C', 'C', 'C', 'C', 'C', 'C', 'C', 'C', 'C', 'C', 'C']","[945711, 946110, 946531, 946923, 947310, 947719, 948108, 948513, 948891, 949286, 949701, 950091, 950470, 950849, 951251, 951635, 952050, 952460, 952873, 953291]","[945837, 946257, 946675, 947081, 947493, 947897, 948301, 948676, 949086, 949465, 949852, 950238, 950608, 950999, 951403, 951797, 952223, 952623, 953046, 953427]","[944176, 944575, 944975, 945375, 945775, 946176, 946575, 946975, 947336, 947744, 948133, 948539, 948917, 949312, 949727, 950117, 950496, 950875, 951277, 951661, 952076, 952485, 952899, 953317]",19,R,ITM,1.1,
3,600,trial,0,47,47,47,trial,"['S', 'S', 'S', 'S', 'C', 'C', 'C', 'C', 'C', 'C', 'C', 'C', 'C', 'C', 'C', 'C', 'C', 'C', 'C', 'C']","[960947, 961597, 962186, 962778, 963384, 963966, 964546, 965146, 965703, 966295, 966893, 967478, 968062, 968682, 969266, 969841, 970439, 971045, 971635, 972217]","[961233, 961869, 962481, 963075, 963655, 964236, 964835, 965420, 965987, 966588, 967165, 967757, 968389, 968923, 969504, 970109, 970793, 971362, 971969]","[958616, 959216, 959816, 960416, 961016, 961616, 962216, 962817, 963409, 963992, 964572, 965172, 965729, 966321, 966919, 967503, 968088, 968708, 969291, 969867, 970465, 971071, 971661, 972242]",19,R,ITM,1.1,
5,600,trial,0,48,48,48,trial,"['S', 'S', 'S', 'S', 'C', 'C', 'C', 'C', 'C', 'C', 'C', 'C', 'C', 'C', 'C', 'C', 'C', 'C', 'C', 'C']","[980289, 980885, 981500, 982116, 982737, 983325, 983907, 984456, 985004, 985581, 986135, 986707, 987252, 987801, 988367, 988944, 989484, 990032, 990570, 991129]","[980580, 981169, 981794, 982405, 982990, 983600, 984192, 984743, 985327, 985874, 986409, 986939, 987551, 988071, 988661, 989225, 989814, 990314, 990839, 991367]","[977996, 978595, 979195, 979795, 980396, 980996, 981596, 982195, 982764, 983351, 983932, 984481, 985029, 985607, 986161, 986733, 987278, 987827, 988393, 988969, 989509, 990058, 990596, 991155]",19,R,ITM,1.1,
6,600,trial,0,49,49,49,trial,"['S', 'S', 'S', 'S', 'C', 'C', 'C', 'C', 'C', 'C', 'C', 'C', 'C', 'C', 'C', 'C', 'C', 'C', 'C', 'C']","[999231, 999780, 1000365, 1000969, 1001600, 1002191, 1002769, 1003320, 1003907, 1004451, 1005028, 1005576, 1006143, 1006731, 1007282, 1007853, 1008435, 1008992, 1009545, 1010124]","[999455, 1000062, 1000619, 1001261, 1001863, 1002464, 1003053, 1003615, 1004172, 1004748, 1005266, 1005890, 1006455, 1007064, 1007607, 1008166, 1008740, 1009278, 1009840]","[996883, 997482, 998082, 998682, 999282, 999882, 1000482, 1001082, 1001626, 1002218, 1002797, 1003346, 1003934, 1004478, 1005056, 1005602, 1006171, 1006758, 1007308, 1007880, 1008461, 1009018, 1009571, 1010152]",19,R,ITM,1.1,
2,400,trial,0,50,50,50,trial,"['S', 'S', 'S', 'S', 'C', 'C', 'C', 'C', 'C', 'C', 'C', 'C', 'C', 'C', 'C', 'C', 'C', 'C', 'C', 'C']","[1017023, 1017403, 1017827, 1018238, 1018636, 1019035, 1019448, 1019849, 1020255, 1020676, 1021091, 1021484, 1021895, 1022288, 1022693, 1023104, 1023496, 1023904, 1024285, 1024705]","[1017212, 1017612, 1018012, 1018427, 1018835, 1019216, 1019621, 1020010, 1020431, 1020812, 1021212, 1021646, 1022075, 1022502, 1022884, 1023297, 1023687, 1024052, 1024499, 1024887]","[1015480, 1015880, 1016280, 1016680, 1017080, 1017481, 1017881, 1018280, 1018663, 1019063, 1019475, 1019877, 1020281, 1020703, 1021118, 1021511, 1021922, 1022315, 1022721, 1023130, 1023523, 1023931, 1024312, 1024732]",19,R,ITM,1.1,
2,400,trial,0,51,51,51,trial,"['S', 'S', 'S', 'S', 'C', 'C', 'C', 'C', 'C', 'C', 'C', 'C', 'C', 'C', 'C', 'C', 'C', 'C', 'C', 'C']","[1031972, 1032378, 1032782, 1033190, 1033618, 1034028, 1034414, 1034792, 1035203, 1035599, 1036008, 1036398, 1036800, 1037200, 1037586, 1037981, 1038382, 1038767, 1039157, 1039562]","[1032160, 1032558, 1032993, 1033416, 1033812, 1034196, 1034600, 1034987, 1035401, 1035797, 1036180, 1036616, 1037005, 1037393, 1037782, 1038195, 1038586, 1038983, 1039394, 1039765]","[1030472, 1030873, 1031272, 1031671, 1032073, 1032473, 1032872, 1033272, 1033645, 1034055, 1034441, 1034820, 1035230, 1035626, 1036035, 1036426, 1036826, 1037228, 1037614, 1038009, 1038408, 1038793, 1039184, 1039589]",19,R,ITM,1.1,
5,400,trial,0,52,52,52,trial,"['S', 'S', 'S', 'S', 'C', 'C', 'C', 'C', 'C', 'C', 'C', 'C', 'C', 'C', 'C', 'C', 'C', 'C', 'C', 'C']","[1046678, 1047081, 1047483, 1047900, 1048305, 1048715, 1049105, 1049506, 1049884, 1050283, 1050684, 1051049, 1051453, 1051846, 1052244, 1052614, 1053001, 1053359, 1053774, 1054155]","[1046860, 1047267, 1047693, 1048095, 1048499, 1048905, 1049283, 1049680, 1050072, 1050465, 1050856, 1051236, 1051633, 1052006, 1052420, 1052792, 1053153, 1053553, 1053937, 1054336]","[1045173, 1045572, 1045972, 1046372, 1046772, 1047173, 1047572, 1047972, 1048332, 1048741, 1049131, 1049533, 1049910, 1050308, 1050710, 1051075, 1051479, 1051872, 1052270, 1052640, 1053028, 1053384, 1053800, 1054181]",19,R,ITM,1.1,
3,400,trial,0,53,53,53,trial,"['S', 'S', 'S', 'S', 'C', 'C', 'C', 'C', 'C', 'C', 'C', 'C', 'C', 'C', 'C', 'C', 'C', 'C', 'C', 'C']","[1061465, 1061883, 1062307, 1062711, 1063098, 1063490, 1063867, 1064256, 1064662, 1065035, 1065440, 1065806, 1066220, 1066564, 1066977, 1067370, 1067784, 1068170, 1068552, 1068945]","[1061647, 1062055, 1062479, 1062891, 1063275, 1063658, 1064071, 1064448, 1064850, 1065236, 1065615, 1066019, 1066377, 1066746, 1067179, 1067571, 1067971, 1068382, 1068760, 1069168]","[1059962, 1060361, 1060761, 1061161, 1061561, 1061961, 1062362, 1062761, 1063123, 1063516, 1063892, 1064282, 1064687, 1065061, 1065465, 1065832, 1066246, 1066590, 1067002, 1067396, 1067809, 1068195, 1068577, 1068971]",19,R,ITM,1.1,
5,400,trial,0,54,54,54,trial,"['S', 'S', 'S', 'S', 'C', 'C', 'C', 'C', 'C', 'C', 'C', 'C', 'C', 'C', 'C', 'C', 'C', 'C', 'C', 'C']","[1077694, 1078104, 1078520, 1078907, 1079321, 1079740, 1080119, 1080494, 1080896, 1081293, 1081681, 1082048, 1082470, 1082893, 1083266, 1083664, 1084078, 1084471, 1084890, 1085302]","[1077875, 1078286, 1078693, 1079080, 1079489, 1079906, 1080283, 1080665, 1081075, 1081483, 1081856, 1082234, 1082659, 1083051, 1083456, 1083842, 1084250, 1084653, 1085059, 1085477]","[1076190, 1076590, 1076990, 1077390, 1077790, 1078191, 1078590, 1078990, 1079347, 1079766, 1080145, 1080519, 1080922, 1081320, 1081707, 1082074, 1082496, 1082919, 1083291, 1083689, 1084103, 1084496, 1084915, 1085328]",19,R,ITM,1.1,
3,400,trial,0,55,55,55,trial,"['S', 'S', 'S', 'S', 'C', 'C', 'C', 'C', 'C', 'C', 'C', 'C', 'C', 'C', 'C', 'C', 'C', 'C', 'C', 'C']","[1092251, 1092654, 1093068, 1093475, 1093877, 1094279, 1094644, 1095087, 1095485, 1095876, 1096262, 1096652, 1097046, 1097433, 1097828, 1098245, 1098638, 1099060, 1099460, 1099868]","[1092372, 1092782, 1093187, 1093605, 1093977, 1094375, 1094811, 1095221, 1095627, 1096032, 1096433, 1096811, 1097188, 1097588, 1098005, 1098416, 1098830, 1099266, 1099668, 1100060]","[1090722, 1091122, 1091522, 1091922, 1092322, 1092722, 1093123, 1093522, 1093903, 1094304, 1094670, 1095112, 1095511, 1095902, 1096288, 1096678, 1097071, 1097458, 1097853, 1098270, 1098663, 1099085, 1099486, 1099893]",19,R,ITM,1.1,
2,400,trial,0,56,56,56,trial,"['S', 'S', 'S', 'S', 'C', 'C', 'C', 'C', 'C', 'C', 'C', 'C', 'C', 'C', 'C', 'C', 'C', 'C', 'C', 'C']","[1107215, 1107622, 1108018, 1108443, 1108856, 1109266, 1109669, 1110071, 1110462, 1110857, 1111290, 1111644, 1112078, 1112464, 1112863, 1113268, 1113686, 1114081, 1114490, 1114897]","[1107362, 1107756, 1108171, 1108569, 1108980, 1109401, 1109809, 1110203, 1110589, 1110992, 1111430, 1111793, 1112227, 1112620, 1113016, 1113413, 1113820, 1114220, 1114632, 1115035]","[1105680, 1106080, 1106481, 1106880, 1107279, 1107679, 1108080, 1108480, 1108883, 1109294, 1109696, 1110097, 1110490, 1110884, 1111318, 1111671, 1112105, 1112491, 1112890, 1113294, 1113713, 1114108, 1114518, 1114924]",19,R,ITM,1.1,
6,400,trial,0,57,57,57,trial,"['S', 'S', 'S', 'S', 'C', 'C', 'C', 'C', 'C', 'C', 'C', 'C', 'C', 'C', 'C', 'C', 'C', 'C', 'C', 'C']","[1121999, 1122406, 1122799, 1123198, 1123620, 1124016, 1124409, 1124793, 1125208, 1125604, 1125996, 1126380, 1126802, 1127182, 1127581, 1127971, 1128344, 1128731, 1129121, 1129509]","[1122129, 1122534, 1122919, 1123308, 1123748, 1124145, 1124535, 1124902, 1125317, 1125707, 1126122, 1126505, 1126908, 1127309, 1127699, 1128084, 1128483, 1128859, 1129242, 1129650]","[1120444, 1120843, 1121244, 1121643, 1122043, 1122443, 1122843, 1123244, 1123648, 1124042, 1124436, 1124820, 1125234, 1125630, 1126023, 1126407, 1126830, 1127208, 1127608, 1127998, 1128372, 1128758, 1129149, 1129536]",19,R,ITM,1.1,
7,400,trial,0,58,58,58,trial,"['S', 'S', 'S', 'S', 'C', 'C', 'C', 'C', 'C', 'C', 'C', 'C', 'C', 'C', 'C', 'C', 'C', 'C', 'C', 'C']","[1136770, 1137182, 1137592, 1137987, 1138388, 1138785, 1139179, 1139597, 1139996, 1140395, 1140772, 1141167, 1141550, 1141957, 1142379, 1142762, 1143164, 1143549, 1143922, 1144326]","[1136882, 1137302, 1137704, 1138103, 1138500, 1138897, 1139302, 1139696, 1140101, 1140506, 1140899, 1141288, 1141685, 1142089, 1142482, 1142883, 1143274, 1143668, 1144073, 1144463]","[1135232, 1135630, 1136030, 1136431, 1136830, 1137230, 1137630, 1138030, 1138416, 1138811, 1139206, 1139623, 1140024, 1140421, 1140799, 1141193, 1141577, 1141984, 1142406, 1142789, 1143192, 1143577, 1143949, 1144352]",19,R,ITM,1.1,
7,600,trial,0,59,59,59,trial,"['S', 'S', 'S', 'S', 'C', 'C', 'C', 'C', 'C', 'C', 'C', 'C', 'C', 'C', 'C', 'C', 'C', 'C', 'C', 'C']","[1152143, 1152754, 1153350, 1153948, 1154534, 1155095, 1155703, 1156280, 1156854, 1157432, 1157981, 1158562, 1159131, 1159701, 1160276, 1160849, 1161410, 1161970, 1162522, 1163087]","[1152307, 1152904, 1153488, 1154093, 1154672, 1155263, 1155844, 1156471, 1157064, 1157645, 1158232, 1158807, 1159404, 1159964, 1160539, 1161109, 1161629, 1162204, 1162771, 1163338]","[1149825, 1150424, 1151024, 1151624, 1152224, 1152824, 1153424, 1154024, 1154562, 1155123, 1155731, 1156307, 1156882, 1157458, 1158008, 1158590, 1159157, 1159729, 1160303, 1160877, 1161437, 1161998, 1162549, 1163115]",19,R,ITM,1.1,
5,400,trial,0,60,60,60,trial,"['S', 'S', 'S', 'S', 'C', 'C', 'C', 'C', 'C', 'C', 'C', 'C', 'C', 'C', 'C', 'C', 'C', 'C', 'C', 'C']","[1170044, 1170437, 1170831, 1171235, 1171663, 1172070, 1172490, 1172862, 1173283, 1173705, 1174107, 1174489, 1174880, 1175271, 1175670, 1176083, 1176448, 1176864, 1177231, 1177659]","[1170174, 1170589, 1170992, 1171393, 1171807, 1172242, 1172651, 1173063, 1173447, 1173863, 1174267, 1174670, 1175055, 1175457, 1175842, 1176255, 1176645, 1177020, 1177441, 1177837]","[1168496, 1168896, 1169295, 1169695, 1170096, 1170495, 1170895, 1171295, 1171690, 1172096, 1172516, 1172888, 1173309, 1173731, 1174132, 1174514, 1174906, 1175298, 1175697, 1176109, 1176473, 1176890, 1177257, 1177684]",19,R,ITM,1.1,
5,600,trial,0,61,61,61,trial,"['S', 'S', 'S', 'S', 'C', 'C', 'C', 'C', 'C', 'C', 'C', 'C', 'C', 'C', 'C', 'C', 'C', 'C', 'C', 'C']","[1185576, 1186189, 1186793, 1187391, 1188000, 1188584, 1189173, 1189723, 1190308, 1190884, 1191437, 1192001, 1192551, 1193146, 1193732, 1194278, 1194845, 1195383, 1195958, 1196528]","[1185810, 1186426, 1187046, 1187652, 1188280, 1188874, 1189434, 1190041, 1190569, 1191156, 1191739, 1192323, 1192886, 1193428, 1193988, 1194537, 1195134, 1195678, 1196262]","[1183286, 1183886, 1184486, 1185086, 1185686, 1186286, 1186886, 1187486, 1188026, 1188610, 1189198, 1189748, 1190335, 1190909, 1191463, 1192027, 1192577, 1193171, 1193757, 1194305, 1194870, 1195409, 1195983, 1196554]",19,R,ITM,1.1,
6,600,trial,0,62,62,62,trial,"['S', 'S', 'S', 'S', 'C', 'C', 'C', 'C', 'C', 'C', 'C', 'C', 'C', 'C', 'C', 'C', 'C', 'C', 'C', 'C']","[1204545, 1205196, 1205816, 1206422, 1207020, 1207633, 1208221, 1208804, 1209388, 1209989, 1210569, 1211158, 1211746, 1212366, 1212933, 1213473, 1214064, 1214624, 1215269, 1215819]","[1204809, 1205439, 1206091, 1206694, 1207291, 1207874, 1208500, 1209094, 1209660, 1210243, 1210822, 1211430, 1212040, 1212610, 1213205, 1213771, 1214351, 1214963, 1215522]","[1202256, 1202856, 1203457, 1204057, 1204657, 1205256, 1205856, 1206456, 1207048, 1207660, 1208248, 1208832, 1209415, 1210015, 1210596, 1211185, 1211772, 1212394, 1212960, 1213501, 1214091, 1214651, 1215296, 1215846]",19,R,ITM,1.1,
3,600,trial,0,63,63,63,trial,"['S', 'S', 'S', 'S', 'C', 'C', 'C', 'C', 'C', 'C', 'C', 'C', 'C', 'C', 'C', 'C', 'C', 'C', 'C', 'C']","[1223499, 1224091, 1224699, 1225280, 1225875, 1226477, 1227047, 1227601, 1228151, 1228736, 1229298, 1229874, 1230436, 1231010, 1231589, 1232153, 1232748, 1233306, 1233863, 1234410]","[1223740, 1224353, 1224938, 1225520, 1226108, 1226719, 1227287, 1227876, 1228394, 1229002, 1229568, 1230130, 1230691, 1231269, 1231851, 1232400, 1232977, 1233520, 1234100]","[1221189, 1221788, 1222388, 1222988, 1223588, 1224188, 1224788, 1225389, 1225901, 1226503, 1227073, 1227627, 1228177, 1228762, 1229324, 1229899, 1230461, 1231036, 1231614, 1232179, 1232774, 1233333, 1233889, 1234436]",19,R,ITM,1.1,
7,600,trial,0,64,64,64,trial,"['S', 'S', 'S', 'S', 'C', 'C', 'C', 'C', 'C', 'C', 'C', 'C', 'C', 'C', 'C', 'C', 'C', 'C', 'C', 'C']","[1242122, 1242782, 1243403, 1244020, 1244625, 1245182, 1245766, 1246333, 1246913, 1247513, 1248083, 1248670, 1249253, 1249825, 1250403, 1250983, 1251553, 1252133, 1252697, 1253306]","[1242384, 1243011, 1243626, 1244222, 1244846, 1245425, 1246021, 1246595, 1247151, 1247718, 1248316, 1248874, 1249455, 1250051, 1250618, 1251206, 1251779, 1252355, 1252934, 1253508]","[1239879, 1240478, 1241078, 1241678, 1242278, 1242878, 1243479, 1244079, 1244652, 1245210, 1245794, 1246360, 1246941, 1247541, 1248110, 1248698, 1249280, 1249853, 1250430, 1251010, 1251580, 1252160, 1252724, 1253332]",19,R,ITM,1.1,
5,600,trial,0,65,65,65,trial,"['S', 'S', 'S', 'S', 'C', 'C', 'C', 'C', 'C', 'C', 'C', 'C', 'C', 'C', 'C', 'C', 'C', 'C', 'C', 'C']","[1261328, 1261954, 1262552, 1263139, 1263733, 1264303, 1264856, 1265409, 1265980, 1266530, 1267145, 1267729, 1268268, 1268832, 1269407, 1269929, 1270499, 1271053, 1271610, 1272182]","[1261542, 1262174, 1262790, 1263395, 1263968, 1264561, 1265120, 1265677, 1266199, 1266784, 1267376, 1267930, 1268517, 1269088, 1269644, 1270220, 1270730, 1271334, 1271882, 1272418]","[1259069, 1259668, 1260268, 1260868, 1261468, 1262068, 1262668, 1263268, 1263759, 1264328, 1264881, 1265434, 1266007, 1266555, 1267172, 1267755, 1268293, 1268857, 1269434, 1269955, 1270524, 1271078, 1271636, 1272208]",19,R,ITM,1.1,
6,400,trial,0,66,66,66,trial,"['S', 'S', 'S', 'S', 'C', 'C', 'C', 'C', 'C', 'C', 'C', 'C', 'C', 'C', 'C', 'C', 'C', 'C', 'C', 'C']","[1279290, 1279690, 1280103, 1280520, 1280927, 1281317, 1281712, 1282088, 1282504, 1282882, 1283287, 1283664, 1284058, 1284427, 1284838, 1285221, 1285610, 1285989, 1286374, 1286774]","[1279434, 1279842, 1280264, 1280660, 1281075, 1281480, 1281855, 1282250, 1282641, 1283054, 1283428, 1283820, 1284205, 1284597, 1284981, 1285370, 1285773, 1286119, 1286538, 1286904]","[1277774, 1278174, 1278574, 1278974, 1279374, 1279774, 1280175, 1280574, 1280954, 1281344, 1281738, 1282116, 1282532, 1282909, 1283314, 1283691, 1284084, 1284454, 1284865, 1285249, 1285637, 1286017, 1286401, 1286802]",19,R,ITM,1.1,
2,600,trial,0,67,67,67,trial,"['S', 'S', 'S', 'S', 'C', 'C', 'C', 'C', 'C', 'C', 'C', 'C', 'C', 'C', 'C', 'C', 'C', 'C', 'C', 'C']","[1294561, 1295156, 1295756, 1296353, 1296953, 1297553, 1298120, 1298690, 1299265, 1299807, 1300387, 1300920, 1301500, 1302079, 1302659, 1303206, 1303750, 1304338, 1304896, 1305463]","[1294773, 1295340, 1295982, 1296542, 1297164, 1297763, 1298306, 1298899, 1299463, 1300032, 1300569, 1301137, 1301698, 1302272, 1302838, 1303379, 1303985, 1304595, 1305135, 1305694]","[1292234, 1292834, 1293434, 1294034, 1294633, 1295235, 1295835, 1296434, 1296980, 1297581, 1298147, 1298717, 1299293, 1299833, 1300414, 1300947, 1301528, 1302106, 1302686, 1303233, 1303778, 1304366, 1304923, 1305490]",19,R,ITM,1.1,
7,400,trial,0,68,68,68,trial,"['S', 'S', 'S', 'S', 'C', 'C', 'C', 'C', 'C', 'C', 'C', 'C', 'C', 'C', 'C', 'C', 'C', 'C', 'C', 'C']","[1312438, 1312845, 1313247, 1313660, 1314076, 1314470, 1314870, 1315276, 1315662, 1316045, 1316448, 1316865, 1317260, 1317643, 1318050, 1318429, 1318838, 1319209, 1319621, 1320013]","[1312612, 1312985, 1313419, 1313814, 1314220, 1314631, 1315021, 1315428, 1315819, 1316227, 1316638, 1317028, 1317415, 1317804, 1318215, 1318589, 1318998, 1319412, 1319818, 1320174]","[1310910, 1311309, 1311710, 1312110, 1312510, 1312910, 1313310, 1313711, 1314103, 1314497, 1314896, 1315304, 1315689, 1316072, 1316474, 1316891, 1317286, 1317669, 1318077, 1318457, 1318864, 1319237, 1319648, 1320040]",19,R,ITM,1.1,
4,400,trial,0,69,69,69,trial,"['S', 'S', 'S', 'S', 'C', 'C', 'C', 'C', 'C', 'C', 'C', 'C', 'C', 'C', 'C', 'C', 'C', 'C', 'C', 'C']","[1327047, 1327465, 1327879, 1328278, 1328698, 1329094, 1329467, 1329866, 1330244, 1330616, 1331012, 1331365, 1331819, 1332165, 1332570, 1332954, 1333332, 1333714, 1334100, 1334506]","[1327192, 1327625, 1328030, 1328456, 1328864, 1329261, 1329651, 1330042, 1330434, 1330821, 1331194, 1331558, 1331989, 1332386, 1332751, 1333132, 1333505, 1333915, 1334317, 1334719]","[1325527, 1325926, 1326326, 1326727, 1327127, 1327527, 1327927, 1328327, 1328723, 1329120, 1329492, 1329893, 1330270, 1330641, 1331039, 1331392, 1331845, 1332192, 1332595, 1332979, 1333358, 1333740, 1334126, 1334533]",19,R,ITM,1.1,
3,600,trial,0,70,70,70,trial,"['S', 'S', 'S', 'S', 'C', 'C', 'C', 'C', 'C', 'C', 'C', 'C', 'C', 'C', 'C', 'C', 'C', 'C', 'C', 'C']","[1342577, 1343206, 1343832, 1344416, 1345015, 1345592, 1346183, 1346708, 1347312, 1347873, 1348448, 1349021, 1349604, 1350208, 1350809, 1351435, 1352007, 1352587, 1353144, 1353748]","[1342857, 1343498, 1344075, 1344686, 1345295, 1345863, 1346406, 1346971, 1347573, 1348144, 1348717, 1349303, 1349910, 1350492, 1351083, 1351652, 1352298, 1352835, 1353456]","[1340295, 1340893, 1341493, 1342093, 1342693, 1343293, 1343893, 1344493, 1345041, 1345617, 1346208, 1346734, 1347338, 1347899, 1348473, 1349047, 1349629, 1350234, 1350835, 1351460, 1352033, 1352612, 1353169, 1353774]",19,R,ITM,1.1,
2,600,trial,0,71,71,71,trial,"['S', 'S', 'S', 'S', 'C', 'C', 'C', 'C', 'C', 'C', 'C', 'C', 'C', 'C', 'C', 'C', 'C', 'C', 'C', 'C']","[1361855, 1362432, 1363064, 1363662, 1364255, 1364847, 1365430, 1366035, 1366615, 1367231, 1367826, 1368415, 1368995, 1369556, 1370166, 1370793, 1371342, 1371896, 1372466, 1373023]","[1361974, 1362574, 1363177, 1363769, 1364377, 1364980, 1365572, 1366149, 1366736, 1367341, 1367950, 1368537, 1369132, 1369697, 1370301, 1370904, 1371502, 1372040, 1372612, 1373162]","[1359482, 1360082, 1360683, 1361283, 1361883, 1362483, 1363082, 1363681, 1364283, 1364875, 1365457, 1366063, 1366642, 1367258, 1367853, 1368441, 1369023, 1369583, 1370192, 1370821, 1371369, 1371923, 1372493, 1373050]",19,R,ITM,1.1,
6,600,trial,0,72,72,72,trial,"['S', 'S', 'S', 'S', 'C', 'C', 'C', 'C', 'C', 'C', 'C', 'C', 'C', 'C', 'C', 'C', 'C', 'C', 'C', 'C']","[1380955, 1381559, 1382152, 1382763, 1383357, 1383980, 1384591, 1385194, 1385812, 1386445, 1387011, 1387593, 1388184, 1388742, 1389328, 1389903, 1390464, 1391026, 1391610, 1392190]","[1381125, 1381758, 1382354, 1382971, 1383580, 1384172, 1384782, 1385377, 1385957, 1386636, 1387227, 1387830, 1388409, 1388997, 1389560, 1390138, 1390693, 1391263, 1391864, 1392421]","[1378606, 1379206, 1379806, 1380406, 1381006, 1381606, 1382206, 1382806, 1383384, 1384006, 1384619, 1385221, 1385840, 1386472, 1387037, 1387620, 1388211, 1388769, 1389355, 1389931, 1390490, 1391053, 1391637, 1392218]",19,R,ITM,1.1,
4,600,trial,0,73,73,73,trial,"['S', 'S', 'S', 'S', 'C', 'C', 'C', 'C', 'C', 'C', 'C', 'C', 'C', 'C', 'C', 'C', 'C', 'C', 'C', 'C']","[1399853, 1400496, 1401077, 1401699, 1402326, 1402919, 1403476, 1404063, 1404645, 1405205, 1405803, 1406403, 1406978, 1407592, 1408157, 1408721, 1409297, 1409888, 1410514, 1411094]","[1400086, 1400695, 1401302, 1401912, 1402553, 1403147, 1403694, 1404297, 1404898, 1405464, 1406029, 1406617, 1407218, 1407798, 1408401, 1408960, 1409549, 1410118, 1410760, 1411306]","[1397568, 1398168, 1398768, 1399368, 1399968, 1400568, 1401168, 1401768, 1402351, 1402945, 1403503, 1404089, 1404670, 1405231, 1405829, 1406429, 1407003, 1407618, 1408183, 1408747, 1409323, 1409913, 1410541, 1411120]",19,R,ITM,1.1,
2,400,trial,0,74,74,74,trial,"['S', 'S', 'S', 'S', 'C', 'C', 'C', 'C', 'C', 'C', 'C', 'C', 'C', 'C', 'C', 'C', 'C', 'C', 'C', 'C']","[1418276, 1418687, 1419090, 1419483, 1419913, 1420282, 1420660, 1421059, 1421432, 1421840, 1422254, 1422631, 1423037, 1423427, 1423840, 1424219, 1424607, 1424999, 1425390, 1425772]","[1418399, 1418813, 1419214, 1419636, 1420043, 1420438, 1420828, 1421219, 1421608, 1422007, 1422411, 1422812, 1423213, 1423578, 1423996, 1424388, 1424774, 1425156, 1425549, 1425940]","[1416723, 1417123, 1417524, 1417924, 1418324, 1418724, 1419124, 1419525, 1419939, 1420310, 1420688, 1421086, 1421459, 1421867, 1422281, 1422658, 1423065, 1423455, 1423867, 1424246, 1424633, 1425026, 1425417, 1425799]",19,R,ITM,1.1,
3,400,trial,0,75,75,75,trial,"['S', 'S', 'S', 'S', 'C', 'C', 'C', 'C', 'C', 'C', 'C', 'C', 'C', 'C', 'C', 'C', 'C', 'C', 'C', 'C']","[1432884, 1433294, 1433670, 1434099, 1434503, 1434911, 1435289, 1435671, 1436069, 1436471, 1436866, 1437272, 1437621, 1438016, 1438419, 1438801, 1439197, 1439588, 1439964, 1440358]","[1433042, 1433442, 1433835, 1434248, 1434675, 1435080, 1435466, 1435846, 1436235, 1436635, 1437025, 1437412, 1437787, 1438161, 1438570, 1438955, 1439345, 1439754, 1440142, 1440509]","[1431351, 1431750, 1432151, 1432550, 1432950, 1433351, 1433751, 1434151, 1434528, 1434937, 1435315, 1435697, 1436095, 1436496, 1436892, 1437297, 1437646, 1438042, 1438445, 1438827, 1439222, 1439613, 1439989, 1440384]",19,R,ITM,1.1,
4,600,trial,0,76,76,76,trial,"['S', 'S', 'S', 'S', 'C', 'C', 'C', 'C', 'C', 'C', 'C', 'C', 'C', 'C', 'C', 'C', 'C', 'C', 'C', 'C']","[1448379, 1449031, 1449641, 1450221, 1450829, 1451408, 1451982, 1452541, 1453102, 1453705, 1454280, 1454808, 1455411, 1455982, 1456516, 1457088, 1457587, 1458128, 1458696, 1459237]","[1448621, 1449257, 1449835, 1450409, 1451028, 1451601, 1452225, 1452753, 1453326, 1453906, 1454453, 1455040, 1455629, 1456209, 1456716, 1457306, 1457788, 1458360, 1458879, 1459451]","[1446089, 1446689, 1447289, 1447889, 1448489, 1449090, 1449690, 1450290, 1450855, 1451435, 1452008, 1452567, 1453127, 1453731, 1454306, 1454833, 1455436, 1456008, 1456541, 1457114, 1457613, 1458155, 1458721, 1459263]",19,R,ITM,1.1,
4,400,trial,0,77,77,77,trial,"['S', 'S', 'S', 'S', 'C', 'C', 'C', 'C', 'C', 'C', 'C', 'C', 'C', 'C', 'C', 'C', 'C', 'C', 'C', 'C']","[1466419, 1466804, 1467227, 1467629, 1468038, 1468421, 1468808, 1469203, 1469604, 1469980, 1470379, 1470768, 1471159, 1471569, 1471958, 1472369, 1472755, 1473160, 1473548, 1473938]","[1466543, 1466956, 1467378, 1467789, 1468195, 1468576, 1468967, 1469374, 1469745, 1470126, 1470511, 1470897, 1471288, 1471691, 1472113, 1472531, 1472931, 1473328, 1473705, 1474104]","[1464910, 1465309, 1465709, 1466109, 1466509, 1466909, 1467310, 1467709, 1468063, 1468446, 1468833, 1469229, 1469630, 1470006, 1470404, 1470793, 1471184, 1471595, 1471983, 1472396, 1472781, 1473185, 1473573, 1473964]",19,R,ITM,1.1,
5,600,trial,0,78,78,78,trial,"['S', 'S', 'S', 'S', 'C', 'C', 'C', 'C', 'C', 'C', 'C', 'C', 'C', 'C', 'C', 'C', 'C', 'C', 'C', 'C']","[1481919, 1482552, 1483176, 1483765, 1484384, 1484986, 1485549, 1486151, 1486744, 1487305, 1487867, 1488439, 1489013, 1489597, 1490152, 1490716, 1491276, 1491812, 1492373, 1492917]","[1482218, 1482838, 1483420, 1484052, 1484642, 1485263, 1485875, 1486457, 1487039, 1487642, 1488178, 1488754, 1489360, 1489920, 1490514, 1491047, 1491597, 1492139, 1492761]","[1479660, 1480260, 1480860, 1481460, 1482060, 1482660, 1483260, 1483860, 1484409, 1485011, 1485575, 1486177, 1486770, 1487331, 1487893, 1488464, 1489040, 1489624, 1490178, 1490742, 1491302, 1491837, 1492400, 1492942]",19,R,ITM,1.1,
3,400,trial,0,79,79,79,trial,"['S', 'S', 'S', 'S', 'C', 'C', 'C', 'C', 'C', 'C', 'C', 'C', 'C', 'C', 'C', 'C', 'C', 'C', 'C', 'C']","[1500183, 1500580, 1501004, 1501412, 1501813, 1502209, 1502600, 1503011, 1503399, 1503799, 1504201, 1504600, 1505013, 1505415, 1505795, 1506171, 1506584, 1506971, 1507359, 1507758]","[1500302, 1500733, 1501137, 1501540, 1501956, 1502355, 1502761, 1503150, 1503556, 1503942, 1504319, 1504731, 1505157, 1505547, 1505916, 1506298, 1506694, 1507084, 1507493, 1507867]","[1498659, 1499058, 1499458, 1499858, 1500258, 1500658, 1501059, 1501458, 1501839, 1502234, 1502625, 1503037, 1503425, 1503824, 1504227, 1504625, 1505039, 1505440, 1505820, 1506197, 1506610, 1506997, 1507385, 1507783]",19,R,ITM,1.1,
4,600,trial,0,80,80,80,trial,"['S', 'S', 'S', 'S', 'C', 'C', 'C', 'C', 'C', 'C', 'C', 'C', 'C', 'C', 'C', 'C', 'C', 'C', 'C', 'C']","[1515615, 1516279, 1516867, 1517448, 1518044, 1518625, 1519223, 1519812, 1520377, 1520954, 1521543, 1522104, 1522660, 1523234, 1523802, 1524390, 1524914, 1525512, 1526051, 1526595]","[1515829, 1516461, 1517057, 1517591, 1518240, 1518831, 1519396, 1519964, 1520561, 1521145, 1521721, 1522321, 1522888, 1523462, 1524041, 1524613, 1525155, 1525751, 1526318, 1526819]","[1513358, 1513958, 1514558, 1515158, 1515758, 1516358, 1516958, 1517558, 1518069, 1518651, 1519249, 1519838, 1520403, 1520979, 1521569, 1522129, 1522685, 1523260, 1523827, 1524416, 1524939, 1525538, 1526077, 1526622]",19,R,ITM,1.1,
2,400,trial,0,81,81,81,trial,"['S', 'S', 'S', 'S', 'C', 'C', 'C', 'C', 'C', 'C', 'C', 'C', 'C', 'C', 'C', 'C', 'C', 'C', 'C', 'C']","[1533850, 1534228, 1534633, 1535044, 1535451, 1535839, 1536279, 1536660, 1537049, 1537432, 1537810, 1538194, 1538584, 1538960, 1539365, 1539759, 1540143, 1540537, 1540914, 1541311]","[1533962, 1534358, 1534755, 1535138, 1535562, 1535947, 1536355, 1536765, 1537164, 1537543, 1537914, 1538300, 1538699, 1539087, 1539491, 1539875, 1540277, 1540649, 1541026, 1541423]","[1532282, 1532681, 1533081, 1533481, 1533882, 1534281, 1534683, 1535082, 1535477, 1535865, 1536307, 1536688, 1537077, 1537460, 1537838, 1538222, 1538612, 1538988, 1539393, 1539785, 1540170, 1540563, 1540940, 1541339]",19,R,ITM,1.1,
6,600,trial,0,82,82,82,trial,"['S', 'S', 'S', 'S', 'C', 'C', 'C', 'C', 'C', 'C', 'C', 'C', 'C', 'C', 'C', 'C', 'C', 'C', 'C', 'C']","[1549282, 1549929, 1550531, 1551177, 1551767, 1552328, 1552903, 1553509, 1554114, 1554707, 1555261, 1555846, 1556451, 1557008, 1557600, 1558181, 1558792, 1559354, 1559925, 1560487]","[1549471, 1550121, 1550708, 1551305, 1551923, 1552502, 1553077, 1553684, 1554267, 1554900, 1555486, 1556066, 1556635, 1557233, 1557850, 1558448, 1559077, 1559631, 1560174]","[1547005, 1547606, 1548206, 1548806, 1549406, 1550006, 1550606, 1551206, 1551794, 1552356, 1552930, 1553536, 1554141, 1554734, 1555288, 1555873, 1556478, 1557035, 1557626, 1558208, 1558818, 1559380, 1559953, 1560515]",19,R,ITM,1.1,
2,600,trial,0,83,83,83,trial,"['S', 'S', 'S', 'S', 'C', 'C', 'C', 'C', 'C', 'C', 'C', 'C', 'C', 'C', 'C', 'C', 'C', 'C', 'C', 'C']","[1568465, 1569062, 1569671, 1570298, 1570932, 1571503, 1572078, 1572654, 1573239, 1573829, 1574411, 1574985, 1575539, 1576150, 1576702, 1577283, 1577888, 1578499, 1579012, 1579593]","[1568619, 1569228, 1569821, 1570448, 1571061, 1571672, 1572231, 1572812, 1573419, 1574016, 1574616, 1575171, 1575726, 1576308, 1576868, 1577394, 1577982, 1578608, 1579170, 1579743]","[1566143, 1566743, 1567343, 1567943, 1568543, 1569143, 1569742, 1570343, 1570960, 1571530, 1572105, 1572680, 1573267, 1573857, 1574438, 1575012, 1575566, 1576176, 1576728, 1577310, 1577915, 1578525, 1579038, 1579621]",19,R,ITM,1.1,
5,400,trial,0,84,84,84,trial,"['S', 'S', 'S', 'S', 'C', 'C', 'C', 'C', 'C', 'C', 'C', 'C', 'C', 'C', 'C', 'C', 'C', 'C', 'C', 'C']","[1586851, 1587273, 1587668, 1588064, 1588455, 1588846, 1589241, 1589630, 1590022, 1590413, 1590823, 1591193, 1591572, 1591958, 1592333, 1592714, 1593120, 1593493, 1593871, 1594240]","[1586973, 1587396, 1587794, 1588168, 1588571, 1588938, 1589372, 1589742, 1590138, 1590535, 1590910, 1591309, 1591671, 1592066, 1592448, 1592840, 1593229, 1593609, 1593979, 1594379]","[1585302, 1585702, 1586102, 1586502, 1586903, 1587302, 1587702, 1588103, 1588482, 1588872, 1589267, 1589657, 1590048, 1590438, 1590849, 1591220, 1591598, 1591984, 1592358, 1592739, 1593146, 1593519, 1593896, 1594265]",19,R,ITM,1.1,
6,400,trial,0,85,85,85,trial,"['S', 'S', 'S', 'S', 'C', 'C', 'C', 'C', 'C', 'C', 'C', 'C', 'C', 'C', 'C', 'C', 'C', 'C', 'C', 'C']","[1601371, 1601772, 1602178, 1602590, 1603001, 1603398, 1603783, 1604171, 1604550, 1604932, 1605329, 1605718, 1606117, 1606488, 1606888, 1607266, 1607617, 1607989, 1608385, 1608743]","[1601492, 1601874, 1602302, 1602693, 1603120, 1603525, 1603906, 1604288, 1604675, 1605057, 1605466, 1605828, 1606250, 1606617, 1606998, 1607375, 1607729, 1608113, 1608518, 1608882]","[1599844, 1600243, 1600644, 1601043, 1601443, 1601843, 1602243, 1602643, 1603027, 1603425, 1603811, 1604198, 1604577, 1604960, 1605356, 1605744, 1606144, 1606514, 1606915, 1607292, 1607644, 1608015, 1608413, 1608770]",19,R,ITM,1.1,
4,400,trial,0,86,86,86,trial,"['S', 'S', 'S', 'S', 'C', 'C', 'C', 'C', 'C', 'C', 'C', 'C', 'C', 'C', 'C', 'C', 'C', 'C', 'C', 'C']","[1615926, 1616328, 1616754, 1617150, 1617553, 1617957, 1618340, 1618727, 1619115, 1619511, 1619908, 1620279, 1620685, 1621078, 1621448, 1621841, 1622248, 1622609, 1623000, 1623390]","[1616055, 1616439, 1616859, 1617286, 1617681, 1618089, 1618465, 1618864, 1619236, 1619643, 1620034, 1620423, 1620825, 1621217, 1621584, 1621972, 1622368, 1622744, 1623127, 1623530]","[1614411, 1614811, 1615210, 1615610, 1616010, 1616410, 1616811, 1617210, 1617579, 1617983, 1618366, 1618753, 1619140, 1619536, 1619934, 1620304, 1620711, 1621104, 1621474, 1621867, 1622274, 1622635, 1623025, 1623415]",19,R,ITM,1.1,
5,600,trial,0,87,87,87,trial,"['S', 'S', 'S', 'S', 'C', 'C', 'C', 'C', 'C', 'C', 'C', 'C', 'C', 'C', 'C', 'C', 'C', 'C', 'C', 'C']","[1631092, 1631756, 1632335, 1632918, 1633574, 1634178, 1634774, 1635337, 1635913, 1636483, 1637079, 1637617, 1638167, 1638756, 1639327, 1639892, 1640457, 1641039, 1641565, 1642161]","[1631261, 1631927, 1632516, 1633080, 1633720, 1634324, 1634933, 1635518, 1636081, 1636677, 1637250, 1637834, 1638366, 1638955, 1639501, 1640065, 1640632, 1641205, 1641753, 1642330]","[1628814, 1629413, 1630013, 1630613, 1631213, 1631813, 1632413, 1633013, 1633601, 1634203, 1634799, 1635362, 1635939, 1636508, 1637105, 1637643, 1638194, 1638781, 1639354, 1639918, 1640482, 1641065, 1641590, 1642187]",19,R,ITM,1.1,
4,400,trial,0,88,88,88,trial,"['S', 'S', 'S', 'S', 'C', 'C', 'C', 'C', 'C', 'C', 'C', 'C', 'C', 'C', 'C', 'C', 'C', 'C', 'C', 'C']","[1649073, 1649469, 1649886, 1650299, 1650657, 1651067, 1651463, 1651858, 1652231, 1652638, 1653017, 1653409, 1653804, 1654179, 1654562, 1654941, 1655364, 1655736, 1656155, 1656518]","[1649190, 1649592, 1650010, 1650415, 1650786, 1651201, 1651605, 1651994, 1652381, 1652758, 1653155, 1653525, 1653889, 1654301, 1654672, 1655072, 1655491, 1655887, 1656316, 1656687]","[1647539, 1647939, 1648339, 1648739, 1649139, 1649540, 1649939, 1650339, 1650682, 1651093, 1651488, 1651885, 1652257, 1652664, 1653044, 1653435, 1653829, 1654205, 1654588, 1654967, 1655390, 1655761, 1656180, 1656545]",19,R,ITM,1.1,
3,400,trial,0,89,89,89,trial,"['S', 'S', 'S', 'S', 'C', 'C', 'C', 'C', 'C', 'C', 'C', 'C', 'C', 'C', 'C', 'C', 'C', 'C', 'C', 'C']","[1663532, 1663932, 1664335, 1664750, 1665165, 1665566, 1665949, 1666351, 1666743, 1667136, 1667525, 1667930, 1668286, 1668713, 1669082, 1669518, 1669912, 1670303, 1670712, 1671091]","[1663675, 1664086, 1664498, 1664922, 1665332, 1665719, 1666131, 1666505, 1666900, 1667299, 1667688, 1668085, 1668456, 1668852, 1669249, 1669672, 1670064, 1670491, 1670868, 1671257]","[1661995, 1662393, 1662793, 1663194, 1663593, 1663993, 1664393, 1664793, 1665190, 1665592, 1665975, 1666376, 1666769, 1667162, 1667552, 1667955, 1668312, 1668739, 1669107, 1669543, 1669939, 1670329, 1670737, 1671116]",19,R,ITM,1.1,
4,600,trial,0,90,90,90,trial,"['S', 'S', 'S', 'S', 'C', 'C', 'C', 'C', 'C', 'C', 'C', 'C', 'C', 'C', 'C', 'C', 'C', 'C', 'C', 'C']","[1678948, 1679564, 1680167, 1680780, 1681403, 1682021, 1682589, 1683201, 1683799, 1684410, 1685018, 1685619, 1686222, 1686814, 1687395, 1688027, 1688639, 1689239, 1689831, 1690388]","[1679117, 1679734, 1680335, 1680954, 1681538, 1682179, 1682758, 1683352, 1683946, 1684569, 1685193, 1685787, 1686396, 1686977, 1687565, 1688197, 1688809, 1689413, 1690018, 1690574]","[1676622, 1677221, 1677821, 1678422, 1679022, 1679622, 1680221, 1680821, 1681429, 1682046, 1682615, 1683226, 1683824, 1684435, 1685044, 1685645, 1686248, 1686840, 1687420, 1688052, 1688665, 1689265, 1689857, 1690414]",19,R,ITM,1.1,
6,400,trial,0,91,91,91,trial,"['S', 'S', 'S', 'S', 'C', 'C', 'C', 'C', 'C', 'C', 'C', 'C', 'C', 'C', 'C', 'C', 'C', 'C', 'C', 'C']","[1697306, 1697711, 1698121, 1698526, 1698955, 1699331, 1699726, 1700124, 1700538, 1700956, 1701352, 1701766, 1702161, 1702539, 1702939, 1703348, 1703756, 1704169, 1704579, 1704976]","[1697422, 1697821, 1698219, 1698634, 1699064, 1699465, 1699859, 1700263, 1700659, 1701071, 1701492, 1701880, 1702272, 1702688, 1703057, 1703445, 1703855, 1704260, 1704674, 1705071]","[1695760, 1696159, 1696560, 1696959, 1697359, 1697759, 1698159, 1698560, 1698981, 1699357, 1699753, 1700152, 1700564, 1700983, 1701380, 1701793, 1702188, 1702566, 1702966, 1703375, 1703784, 1704196, 1704605, 1705003]",19,R,ITM,1.1,
7,600,trial,0,92,92,92,trial,"['S', 'S', 'S', 'S', 'C', 'C', 'C', 'C', 'C', 'C', 'C', 'C', 'C', 'C', 'C', 'C', 'C', 'C', 'C', 'C']","[1713002, 1713616, 1714237, 1714803, 1715403, 1716016, 1716593, 1717155, 1717727, 1718308, 1718899, 1719489, 1720052, 1720632, 1721237, 1721787, 1722361, 1722916, 1723476, 1724009]","[1713161, 1713777, 1714410, 1714999, 1715557, 1716168, 1716780, 1717334, 1717894, 1718471, 1719066, 1719651, 1720208, 1720803, 1721381, 1721975, 1722526, 1723104, 1723691, 1724217]","[1710704, 1711304, 1711904, 1712504, 1713104, 1713704, 1714305, 1714905, 1715430, 1716042, 1716621, 1717182, 1717753, 1718335, 1718926, 1719516, 1720080, 1720658, 1721264, 1721815, 1722388, 1722943, 1723504, 1724036]",19,R,ITM,1.1,
2,400,trial,0,93,93,93,trial,"['S', 'S', 'S', 'S', 'C', 'C', 'C', 'C', 'C', 'C', 'C', 'C', 'C', 'C', 'C', 'C', 'C', 'C', 'C', 'C']","[1731336, 1731720, 1732133, 1732533, 1732957, 1733331, 1733741, 1734132, 1734528, 1734912, 1735341, 1735741, 1736141, 1736545, 1736944, 1737333, 1737725, 1738115, 1738503, 1738898]","[1731434, 1731831, 1732216, 1732624, 1733049, 1733447, 1733867, 1734239, 1734653, 1735041, 1735465, 1735858, 1736259, 1736639, 1737038, 1737436, 1737832, 1738208, 1738625, 1738996]","[1729768, 1730168, 1730569, 1730969, 1731369, 1731769, 1732169, 1732570, 1732984, 1733358, 1733769, 1734159, 1734555, 1734939, 1735368, 1735769, 1736169, 1736571, 1736972, 1737361, 1737752, 1738141, 1738530, 1738926]",19,R,ITM,1.1,
6,600,trial,0,94,94,94,trial,"['S', 'S', 'S', 'S', 'C', 'C', 'C', 'C', 'C', 'C', 'C', 'C', 'C', 'C', 'C', 'C', 'C', 'C', 'C', 'C']","[1746504, 1747219, 1747844, 1748377, 1748967, 1749569, 1750162, 1750718, 1751293, 1751878, 1752482, 1753058, 1753613, 1754194, 1754746, 1755280, 1755854, 1756432, 1757030, 1757618]","[1746640, 1747343, 1747978, 1748537, 1749127, 1749739, 1750306, 1750888, 1751464, 1752039, 1752607, 1753210, 1753780, 1754335, 1754899, 1755441, 1756046, 1756627, 1757200, 1757795]","[1744236, 1744835, 1745435, 1746035, 1746635, 1747235, 1747835, 1748435, 1748994, 1749596, 1750189, 1750745, 1751320, 1751905, 1752509, 1753084, 1753639, 1754222, 1754774, 1755307, 1755882, 1756459, 1757057, 1757645]",19,R,ITM,1.1,
2,600,trial,0,95,95,95,trial,"['S', 'S', 'S', 'S', 'C', 'C', 'C', 'C', 'C', 'C', 'C', 'C', 'C', 'C', 'C', 'C', 'C', 'C', 'C', 'C']","[1765335, 1765939, 1766553, 1767154, 1767744, 1768323, 1768882, 1769450, 1770019, 1770592, 1771186, 1771730, 1772354, 1772900, 1773441, 1773983, 1774551, 1775115, 1775643, 1776240]","[1765472, 1766076, 1766684, 1767283, 1767879, 1768465, 1769022, 1769594, 1770164, 1770747, 1771350, 1771910, 1772510, 1773095, 1773621, 1774172, 1774745, 1775290, 1775846, 1776425]","[1763008, 1763608, 1764208, 1764808, 1765407, 1766008, 1766608, 1767208, 1767771, 1768350, 1768908, 1769477, 1770046, 1770618, 1771212, 1771757, 1772381, 1772928, 1773468, 1774011, 1774577, 1775141, 1775671, 1776267]",19,R,ITM,1.1,
7,400,trial,0,96,96,96,trial,"['S', 'S', 'S', 'S', 'C', 'C', 'C', 'C', 'C', 'C', 'C', 'C', 'C', 'C', 'C', 'C', 'C', 'C', 'C', 'C']","[1783169, 1783591, 1783975, 1784375, 1784791, 1785188, 1785585, 1785977, 1786363, 1786758, 1787162, 1787565, 1787977, 1788356, 1788761, 1789144, 1789553, 1789930, 1790342, 1790735]","[1783269, 1783677, 1784092, 1784476, 1784905, 1785292, 1785683, 1786082, 1786480, 1786893, 1787285, 1787692, 1788099, 1788500, 1788866, 1789280, 1789675, 1790041, 1790474, 1790871]","[1781614, 1782013, 1782413, 1782813, 1783214, 1783613, 1784013, 1784414, 1784817, 1785214, 1785613, 1786004, 1786391, 1786785, 1787189, 1787591, 1788005, 1788384, 1788787, 1789170, 1789581, 1789958, 1790368, 1790761]",19,R,ITM,1.1,
3,600,trial,0,97,97,97,trial,"['S', 'S', 'S', 'S', 'C', 'C', 'C', 'C', 'C', 'C', 'C', 'C', 'C', 'C', 'C', 'C', 'C', 'C', 'C', 'C']","[1798791, 1799426, 1800018, 1800611, 1801191, 1801771, 1802323, 1802883, 1803470, 1804045, 1804608, 1805168, 1805724, 1806295, 1806830, 1807391, 1807939, 1808488, 1809099, 1809679]","[1798993, 1799632, 1800218, 1800823, 1801428, 1802009, 1802613, 1803201, 1803757, 1804310, 1804900, 1805449, 1805997, 1806573, 1807126, 1807662, 1808214, 1808807, 1809356, 1809940]","[1796468, 1797068, 1797668, 1798268, 1798868, 1799469, 1800069, 1800669, 1801217, 1801796, 1802349, 1802908, 1803496, 1804070, 1804634, 1805194, 1805750, 1806320, 1806856, 1807417, 1807965, 1808514, 1809125, 1809704]",19,R,ITM,1.1,
5,400,trial,0,98,98,98,trial,"['S', 'S', 'S', 'S', 'C', 'C', 'C', 'C', 'C', 'C', 'C', 'C', 'C', 'C', 'C', 'C', 'C', 'C', 'C', 'C']","[1816615, 1817020, 1817419, 1817843, 1818246, 1818622, 1819051, 1819436, 1819837, 1820228, 1820607, 1821028, 1821432, 1821815, 1822253, 1822633, 1823015, 1823433, 1823806, 1824201]","[1816748, 1817153, 1817581, 1817982, 1818388, 1818777, 1819184, 1819580, 1819996, 1820360, 1820766, 1821154, 1821559, 1821950, 1822350, 1822782, 1823159, 1823538, 1823937, 1824325]","[1815083, 1815481, 1815881, 1816282, 1816681, 1817081, 1817481, 1817881, 1818271, 1818648, 1819076, 1819461, 1819863, 1820254, 1820633, 1821053, 1821458, 1821841, 1822279, 1822659, 1823042, 1823459, 1823832, 1824227]",19,R,ITM,1.1,
7,400,trial,0,99,99,99,trial,"['S', 'S', 'S', 'S', 'C', 'C', 'C', 'C', 'C', 'C', 'C', 'C', 'C', 'C', 'C', 'C', 'C', 'C', 'C', 'C']","[1831548, 1831941, 1832353, 1832777, 1833205, 1833626, 1834025, 1834408, 1834811, 1835185, 1835595, 1835979, 1836411, 1836826, 1837205, 1837619, 1838003, 1838420, 1838827, 1839228]","[1831640, 1832059, 1832473, 1832883, 1833309, 1833731, 1834117, 1834515, 1834924, 1835320, 1835721, 1836104, 1836495, 1836928, 1837327, 1837721, 1838117, 1838532, 1838948, 1839358]","[1829996, 1830395, 1830795, 1831195, 1831596, 1831995, 1832395, 1832796, 1833232, 1833653, 1834053, 1834436, 1834839, 1835211, 1835622, 1836006, 1836439, 1836854, 1837232, 1837646, 1838029, 1838448, 1838854, 1839256]",19,R,ITM,1.1,
3,600,trial,0,100,100,100,trial,"['S', 'S', 'S', 'S', 'C', 'C', 'C', 'C', 'C', 'C', 'C', 'C', 'C', 'C', 'C', 'C', 'C', 'C', 'C', 'C']","[1847124, 1847778, 1848370, 1848954, 1849585, 1850184, 1850775, 1851376, 1851958, 1852570, 1853138, 1853730, 1854334, 1854912, 1855509, 1856069, 1856674, 1857259, 1857816, 1858384]","[1847277, 1847904, 1848526, 1849104, 1849757, 1850326, 1850944, 1851520, 1852142, 1852727, 1853325, 1853916, 1854496, 1855091, 1855684, 1856261, 1856840, 1857425, 1858010, 1858588]","[1844814, 1845414, 1846014, 1846615, 1847215, 1847815, 1848415, 1849015, 1849611, 1850211, 1850801, 1851402, 1851983, 1852596, 1853164, 1853756, 1854360, 1854938, 1855535, 1856095, 1856700, 1857285, 1857842, 1858410]",19,R,ITM,1.1,
7,600,trial,0,101,101,101,trial,"['S', 'S', 'S', 'S', 'C', 'C', 'C', 'C', 'C', 'C', 'C', 'C', 'C', 'C', 'C', 'C', 'C', 'C', 'C', 'C']","[1866086, 1866667, 1867276, 1867882, 1868495, 1869054, 1869640, 1870245, 1870802, 1871384, 1871969, 1872523, 1873130, 1873707, 1874323, 1874889, 1875407, 1875986, 1876513, 1877061]","[1866266, 1866822, 1867398, 1868011, 1868602, 1869181, 1869794, 1870366, 1870936, 1871514, 1872098, 1872679, 1873274, 1873886, 1874455, 1875030, 1875556, 1876120, 1876681, 1877217]","[1863748, 1864347, 1864947, 1865547, 1866147, 1866747, 1867347, 1867948, 1868522, 1869080, 1869668, 1870272, 1870830, 1871411, 1871996, 1872550, 1873157, 1873733, 1874350, 1874917, 1875434, 1876013, 1876540, 1877088]",19,R,ITM,1.1,
5,400,trial,0,102,102,102,trial,"['S', 'S', 'S', 'S', 'C', 'C', 'C', 'C', 'C', 'C', 'C', 'C', 'C', 'C', 'C', 'C', 'C', 'C', 'C', 'C']","[1884025, 1884454, 1884861, 1885264, 1885678, 1886089, 1886485, 1886878, 1887260, 1887696, 1888110, 1888483, 1888865, 1889248, 1889657, 1890051, 1890463, 1890835, 1891230, 1891627]","[1884111, 1884549, 1884968, 1885376, 1885765, 1886176, 1886606, 1886976, 1887380, 1887791, 1888220, 1888609, 1888998, 1889387, 1889801, 1890160, 1890579, 1890955, 1891343, 1891765]","[1882482, 1882882, 1883281, 1883681, 1884082, 1884482, 1884882, 1885282, 1885705, 1886114, 1886511, 1886904, 1887286, 1887722, 1888137, 1888508, 1888890, 1889273, 1889683, 1890076, 1890489, 1890861, 1891256, 1891652]",19,R,ITM,1.1,
7,400,trial,0,103,103,103,trial,"['S', 'S', 'S', 'S', 'C', 'C', 'C', 'C', 'C', 'C', 'C', 'C', 'C', 'C', 'C', 'C', 'C', 'C', 'C', 'C']","[1898664, 1899071, 1899491, 1899904, 1900291, 1900700, 1901100, 1901505, 1901893, 1902307, 1902693, 1903109, 1903497, 1903901, 1904328, 1904707, 1905108, 1905526, 1905936, 1906340]","[1898747, 1899177, 1899613, 1900006, 1900425, 1900821, 1901200, 1901630, 1902049, 1902409, 1902826, 1903215, 1903629, 1904021, 1904449, 1904867, 1905249, 1905658, 1906052, 1906447]","[1897131, 1897529, 1897929, 1898330, 1898729, 1899129, 1899529, 1899929, 1900317, 1900728, 1901126, 1901533, 1901920, 1902333, 1902721, 1903136, 1903524, 1903929, 1904355, 1904735, 1905135, 1905554, 1905963, 1906368]",19,R,ITM,1.1,
3,400,trial,0,104,104,104,trial,"['S', 'S', 'S', 'S', 'C', 'C', 'C', 'C', 'C', 'C', 'C', 'C', 'C', 'C', 'C', 'C', 'C', 'C', 'C', 'C']","[1913620, 1914049, 1914455, 1914853, 1915259, 1915662, 1916043, 1916455, 1916835, 1917260, 1917638, 1918052, 1918441, 1918834, 1919246, 1919611, 1920069, 1920453, 1920888, 1921269]","[1913762, 1914185, 1914618, 1915015, 1915402, 1915811, 1916190, 1916596, 1917002, 1917381, 1917796, 1918206, 1918599, 1918996, 1919407, 1919769, 1920219, 1920625, 1921035, 1921440]","[1912091, 1912492, 1912891, 1913291, 1913692, 1914091, 1914491, 1914891, 1915285, 1915687, 1916068, 1916481, 1916861, 1917286, 1917664, 1918077, 1918467, 1918860, 1919271, 1919637, 1920095, 1920479, 1920914, 1921295]",19,R,ITM,1.1,
7,400,trial,0,105,105,105,trial,"['S', 'S', 'S', 'S', 'C', 'C', 'C', 'C', 'C', 'C', 'C', 'C', 'C', 'C', 'C', 'C', 'C', 'C', 'C', 'C']","[1928219, 1928637, 1929073, 1929489, 1929851, 1930240, 1930637, 1931018, 1931447, 1931836, 1932223, 1932616, 1933010, 1933419, 1933819, 1934216, 1934609, 1934999, 1935400, 1935798]","[1928339, 1928751, 1929150, 1929584, 1929979, 1930377, 1930780, 1931177, 1931572, 1931965, 1932361, 1932759, 1933151, 1933541, 1933945, 1934351, 1934739, 1935129, 1935545, 1935924]","[1926689, 1927089, 1927488, 1927888, 1928288, 1928688, 1929089, 1929488, 1929878, 1930267, 1930663, 1931045, 1931474, 1931864, 1932250, 1932643, 1933037, 1933446, 1933847, 1934243, 1934636, 1935027, 1935428, 1935825]",19,R,ITM,1.1,
4,600,trial,0,106,106,106,trial,"['S', 'S', 'S', 'S', 'C', 'C', 'C', 'C', 'C', 'C', 'C', 'C', 'C', 'C', 'C', 'C', 'C', 'C', 'C', 'C']","[1943436, 1944073, 1944691, 1945286, 1945873, 1946447, 1947040, 1947602, 1948187, 1948756, 1949326, 1949895, 1950482, 1951070, 1951673, 1952216, 1952793, 1953426, 1953993, 1954561]","[1943631, 1944264, 1944862, 1945482, 1946091, 1946643, 1947233, 1947808, 1948383, 1948962, 1949546, 1950098, 1950690, 1951284, 1951858, 1952453, 1953043, 1953601, 1954211, 1954785]","[1941141, 1941741, 1942341, 1942941, 1943541, 1944141, 1944741, 1945341, 1945899, 1946474, 1947066, 1947628, 1948213, 1948781, 1949352, 1949921, 1950508, 1951095, 1951699, 1952241, 1952819, 1953452, 1954020, 1954586]",19,R,ITM,1.1,
2,400,trial,0,107,107,107,trial,"['S', 'S', 'S', 'S', 'C', 'C', 'C', 'C', 'C', 'C', 'C', 'C', 'C', 'C', 'C', 'C', 'C', 'C', 'C', 'C']","[1961708, 1962115, 1962509, 1962915, 1963311, 1963717, 1964128, 1964515, 1964933, 1965321, 1965728, 1966141, 1966548, 1966957, 1967372, 1967752, 1968168, 1968586, 1969006, 1969399]","[1961814, 1962225, 1962644, 1963040, 1963440, 1963843, 1964263, 1964670, 1965061, 1965471, 1965868, 1966283, 1966693, 1967090, 1967486, 1967888, 1968282, 1968712, 1969139, 1969528]","[1960154, 1960553, 1960953, 1961353, 1961753, 1962152, 1962553, 1962952, 1963337, 1963744, 1964154, 1964542, 1964960, 1965347, 1965755, 1966169, 1966576, 1966985, 1967399, 1967779, 1968195, 1968613, 1969034, 1969427]",19,R,ITM,1.1,
6,600,trial,0,108,108,108,trial,"['S', 'S', 'S', 'S', 'C', 'C', 'C', 'C', 'C', 'C', 'C', 'C', 'C', 'C', 'C', 'C', 'C', 'C', 'C', 'C']","[1977306, 1977976, 1978585, 1979193, 1979727, 1980307, 1980906, 1981465, 1982069, 1982639, 1983196, 1983802, 1984347, 1984947, 1985499, 1986056, 1986632, 1987185, 1987760, 1988269]","[1977513, 1978169, 1978841, 1979382, 1979987, 1980575, 1981115, 1981715, 1982269, 1982842, 1983443, 1984009, 1984611, 1985184, 1985736, 1986323, 1986859, 1987408, 1987944]","[1975019, 1975618, 1976218, 1976818, 1977418, 1978018, 1978618, 1979218, 1979754, 1980335, 1980933, 1981492, 1982096, 1982665, 1983222, 1983828, 1984373, 1984974, 1985526, 1986082, 1986659, 1987213, 1987786, 1988296]",19,R,ITM,1.1,
2,400,trial,0,109,109,109,trial,"['S', 'S', 'S', 'S', 'C', 'C', 'C', 'C', 'C', 'C', 'C', 'C', 'C', 'C', 'C', 'C', 'C', 'C', 'C', 'C']","[1995402, 1995761, 1996175, 1996588, 1996990, 1997407, 1997828, 1998234, 1998647, 1999023, 1999444, 1999839, 2000263, 2000651, 2001033, 2001449, 2001876, 2002262, 2002660, 2003067]","[1995464, 1995856, 1996244, 1996658, 1997062, 1997462, 1997885, 1998295, 1998720, 1999110, 1999539, 1999910, 2000344, 2000731, 2001131, 2001550, 2001945, 2002363, 2002736, 2003139]","[1993816, 1994214, 1994615, 1995016, 1995415, 1995815, 1996215, 1996614, 1997017, 1997434, 1997855, 1998262, 1998674, 1999050, 1999472, 1999866, 2000289, 2000678, 2001060, 2001475, 2001904, 2002289, 2002686, 2003094]",19,R,ITM,1.1,
2,600,trial,0,110,110,110,trial,"['S', 'S', 'S', 'S', 'S', 'C', 'C', 'C', 'C', 'C', 'C', 'C', 'C', 'C', 'C', 'C', 'C', 'C', 'C', 'C', 'C']","[2010307, 2010895, 2011511, 2012141, 2012722, 2013331, 2013902, 2014471, 2015034, 2015610, 2016147, 2016741, 2017287, 2017865, 2018414, 2018983, 2019534, 2020074, 2020645, 2021188, 2021734]","[2010498, 2011131, 2011730, 2012348, 2012921, 2013551, 2014169, 2014766, 2015320, 2015904, 2016463, 2016980, 2017554, 2018138, 2018706, 2019253, 2019806, 2020348, 2020894, 2021482]","[2008593, 2009193, 2009793, 2010393, 2010993, 2011593, 2012193, 2012792, 2013358, 2013930, 2014497, 2015062, 2015637, 2016175, 2016768, 2017314, 2017892, 2018441, 2019011, 2019561, 2020102, 2020672, 2021216, 2021761]",19,R,ITM,1.1,
4,400,trial,0,111,111,111,trial,"['S', 'S', 'S', 'S', 'C', 'C', 'C', 'C', 'C', 'C', 'C', 'C', 'C', 'C', 'C', 'C', 'C', 'C', 'C', 'C']","[2028613, 2029017, 2029447, 2029870, 2030256, 2030636, 2031014, 2031412, 2031798, 2032179, 2032585, 2032962, 2033359, 2033743, 2034140, 2034519, 2034900, 2035319, 2035670, 2036080]","[2028713, 2029124, 2029528, 2029954, 2030366, 2030743, 2031125, 2031532, 2031909, 2032305, 2032684, 2033093, 2033476, 2033860, 2034244, 2034641, 2035017, 2035419, 2035819, 2036204]","[2027092, 2027491, 2027891, 2028292, 2028691, 2029091, 2029491, 2029891, 2030281, 2030661, 2031040, 2031438, 2031823, 2032204, 2032611, 2032988, 2033385, 2033769, 2034165, 2034544, 2034926, 2035345, 2035695, 2036106]",19,R,ITM,1.1,
3,400,trial,0,112,112,112,trial,"['S', 'S', 'S', 'S', 'C', 'C', 'C', 'C', 'C', 'C', 'C', 'C', 'C', 'C', 'C', 'C', 'C', 'C', 'C', 'C']","[2043291, 2043668, 2044062, 2044491, 2044915, 2045305, 2045693, 2046087, 2046471, 2046844, 2047256, 2047643, 2048037, 2048443, 2048843, 2049235, 2049622, 2049998, 2050424, 2050824]","[2043390, 2043779, 2044187, 2044591, 2045004, 2045384, 2045810, 2046201, 2046595, 2046967, 2047379, 2047759, 2048149, 2048560, 2048971, 2049356, 2049738, 2050130, 2050523, 2050936]","[2041743, 2042143, 2042544, 2042943, 2043343, 2043743, 2044143, 2044544, 2044941, 2045331, 2045719, 2046112, 2046496, 2046870, 2047282, 2047669, 2048063, 2048468, 2048869, 2049261, 2049647, 2050024, 2050450, 2050849]",19,R,ITM,1.1,
3,600,trial,0,113,113,113,trial,"['S', 'S', 'S', 'S', 'C', 'C', 'C', 'C', 'C', 'C', 'C', 'C', 'C', 'C', 'C', 'C', 'C', 'C', 'C', 'C']","[2058771, 2059360, 2059973, 2060558, 2061177, 2061794, 2062346, 2062923, 2063493, 2064032, 2064605, 2065213, 2065752, 2066274, 2066842, 2067409, 2067968, 2068504, 2069089, 2069663]","[2058933, 2059543, 2060186, 2060727, 2061375, 2061978, 2062593, 2063148, 2063709, 2064262, 2064825, 2065379, 2065965, 2066483, 2067063, 2067620, 2068196, 2068781, 2069321, 2069912]","[2056445, 2057046, 2057646, 2058246, 2058845, 2059445, 2060045, 2060645, 2061203, 2061819, 2062371, 2062949, 2063518, 2064058, 2064630, 2065239, 2065777, 2066299, 2066868, 2067435, 2067993, 2068530, 2069114, 2069689]",19,R,ITM,1.1,
4,600,trial,0,114,114,114,trial,"['S', 'S', 'S', 'S', 'C', 'C', 'C', 'C', 'C', 'C', 'C', 'C', 'C', 'C', 'C', 'C', 'C', 'C', 'C', 'C']","[2077576, 2078197, 2078819, 2079453, 2080034, 2080622, 2081206, 2081826, 2082414, 2083011, 2083562, 2084160, 2084701, 2085248, 2085851, 2086412, 2087000, 2087582, 2088162, 2088756]","[2077736, 2078328, 2078925, 2079529, 2080152, 2080723, 2081291, 2081901, 2082524, 2083107, 2083673, 2084265, 2084833, 2085414, 2085997, 2086540, 2087097, 2087692, 2088285, 2088880]","[2075253, 2075853, 2076453, 2077053, 2077654, 2078254, 2078854, 2079453, 2080060, 2080649, 2081231, 2081852, 2082440, 2083037, 2083588, 2084186, 2084726, 2085273, 2085876, 2086437, 2087025, 2087608, 2088187, 2088781]",19,R,ITM,1.1,
5,400,trial,0,115,115,115,trial,"['S', 'S', 'S', 'S', 'C', 'C', 'C', 'C', 'C', 'C', 'C', 'C', 'C', 'C', 'C', 'C', 'C', 'C', 'C', 'C']","[2096046, 2096453, 2096862, 2097272, 2097684, 2098088, 2098494, 2098893, 2099309, 2099723, 2100143, 2100550, 2100939, 2101330, 2101702, 2102102, 2102516, 2102912, 2103341, 2103736]","[2096144, 2096538, 2096964, 2097377, 2097798, 2098186, 2098603, 2099019, 2099401, 2099804, 2100222, 2100638, 2101052, 2101414, 2101798, 2102203, 2102625, 2103008, 2103446, 2103841]","[2094489, 2094888, 2095288, 2095688, 2096089, 2096488, 2096888, 2097288, 2097710, 2098115, 2098520, 2098920, 2099335, 2099749, 2100168, 2100576, 2100965, 2101356, 2101728, 2102127, 2102543, 2102937, 2103367, 2103761]",19,R,ITM,1.1,
7,600,trial,0,116,116,116,trial,"['S', 'S', 'S', 'S', 'C', 'C', 'C', 'C', 'C', 'C', 'C', 'C', 'C', 'C', 'C', 'C', 'C', 'C', 'C', 'C']","[2111804, 2112413, 2113013, 2113637, 2114200, 2114820, 2115393, 2115986, 2116629, 2117181, 2117755, 2118313, 2118886, 2119433, 2120013, 2120573, 2121122, 2121700, 2122290, 2122905]","[2111981, 2112569, 2113156, 2113788, 2114395, 2114965, 2115577, 2116145, 2116757, 2117377, 2117958, 2118511, 2119080, 2119620, 2120187, 2120778, 2121360, 2121950, 2122553, 2123112]","[2109460, 2110059, 2110659, 2111259, 2111859, 2112459, 2113059, 2113659, 2114228, 2114847, 2115421, 2116014, 2116657, 2117209, 2117782, 2118339, 2118914, 2119459, 2120041, 2120600, 2121149, 2121728, 2122316, 2122932]",19,R,ITM,1.1,
5,600,trial,0,117,117,117,trial,"['S', 'S', 'S', 'S', 'C', 'C', 'C', 'C', 'C', 'C', 'C', 'C', 'C', 'C', 'C', 'C', 'C', 'C', 'C', 'C']","[2130854, 2131464, 2132081, 2132678, 2133276, 2133846, 2134390, 2134951, 2135532, 2136093, 2136639, 2137204, 2137765, 2138330, 2138876, 2139443, 2140009, 2140555, 2141128, 2141702]","[2131006, 2131609, 2132218, 2132834, 2133426, 2133997, 2134584, 2135132, 2135663, 2136267, 2136794, 2137374, 2137955, 2138527, 2139086, 2139621, 2140212, 2140768, 2141350, 2141941]","[2128544, 2129143, 2129743, 2130343, 2130944, 2131544, 2132144, 2132743, 2133303, 2133871, 2134416, 2134977, 2135558, 2136119, 2136666, 2137231, 2137791, 2138355, 2138902, 2139468, 2140035, 2140580, 2141154, 2141727]",19,R,ITM,1.1,
6,600,trial,0,118,118,118,trial,"['S', 'S', 'S', 'S', 'C', 'C', 'C', 'C', 'C', 'C', 'C', 'C', 'C', 'C', 'C', 'C', 'C', 'C', 'C', 'C']","[2149662, 2150250, 2150862, 2151444, 2152068, 2152622, 2153155, 2153675, 2154225, 2154814, 2155334, 2155856, 2156377, 2156943, 2157467, 2158032, 2158554, 2159122, 2159714, 2160263]","[2149866, 2150484, 2151068, 2151666, 2152251, 2152820, 2153377, 2153889, 2154456, 2155004, 2155597, 2156095, 2156602, 2157165, 2157730, 2158272, 2158804, 2159387, 2159928, 2160516]","[2147426, 2148025, 2148625, 2149225, 2149825, 2150425, 2151025, 2151625, 2152095, 2152649, 2153182, 2153702, 2154253, 2154842, 2155361, 2155883, 2156404, 2156969, 2157495, 2158060, 2158581, 2159149, 2159740, 2160289]",19,R,ITM,1.1,
3,600,trial,0,119,119,119,trial,"['S', 'S', 'S', 'S', 'C', 'C', 'C', 'C', 'C', 'C', 'C', 'C', 'C', 'C', 'C', 'C', 'C', 'C', 'C', 'C']","[2168297, 2168892, 2169468, 2170076, 2170648, 2171188, 2171741, 2172268, 2172828, 2173386, 2173953, 2174517, 2175041, 2175614, 2176153, 2176708, 2177248, 2177811, 2178319, 2178884]","[2168472, 2169084, 2169644, 2170221, 2170831, 2171386, 2171958, 2172517, 2173035, 2173611, 2174162, 2174701, 2175267, 2175844, 2176378, 2176934, 2177520, 2178058, 2178606, 2179100]","[2165990, 2166589, 2167189, 2167789, 2168389, 2168989, 2169589, 2170189, 2170674, 2171213, 2171766, 2172294, 2172854, 2173412, 2173978, 2174542, 2175067, 2175640, 2176179, 2176734, 2177273, 2177837, 2178344, 2178910]",19,R,ITM,1.1,
5,600,trial,0,120,120,120,trial,"['S', 'S', 'S', 'S', 'C', 'C', 'C', 'C', 'C', 'C', 'C', 'C', 'C', 'C', 'C', 'C', 'C', 'C', 'C', 'C']","[2186887, 2187512, 2188106, 2188674, 2189261, 2189869, 2190403, 2190959, 2191515, 2192072, 2192633, 2193188, 2193769, 2194295, 2194840, 2195392, 2195958, 2196500, 2197101, 2197637]","[2187139, 2187721, 2188288, 2188873, 2189442, 2190062, 2190621, 2191196, 2191751, 2192305, 2192848, 2193413, 2194014, 2194601, 2195131, 2195687, 2196227, 2196819, 2197322, 2197886]","[2184587, 2185187, 2185787, 2186387, 2186987, 2187587, 2188187, 2188787, 2189288, 2189895, 2190429, 2190985, 2191541, 2192099, 2192660, 2193214, 2193796, 2194322, 2194866, 2195419, 2195984, 2196526, 2197127, 2197662]",19,R,ITM,1.1,
4,400,trial,0,121,121,121,trial,"['S', 'S', 'S', 'S', 'C', 'C', 'C', 'C', 'C', 'C', 'C', 'C', 'C', 'C', 'C', 'C', 'C', 'C', 'C', 'C']","[2204765, 2205176, 2205589, 2205975, 2206389, 2206786, 2207190, 2207566, 2207966, 2208357, 2208747, 2209125, 2209508, 2209895, 2210275, 2210658, 2211043, 2211442, 2211822, 2212220]","[2204862, 2205262, 2205668, 2206072, 2206478, 2206865, 2207263, 2207652, 2208045, 2208434, 2208831, 2209203, 2209600, 2209975, 2210371, 2210722, 2211125, 2211513, 2211892, 2212286]","[2203247, 2203648, 2204047, 2204447, 2204848, 2205247, 2205647, 2206047, 2206414, 2206812, 2207215, 2207592, 2207992, 2208384, 2208773, 2209150, 2209533, 2209922, 2210300, 2210683, 2211068, 2211468, 2211849, 2212246]",19,R,ITM,1.1,
6,400,trial,0,122,122,122,trial,"['S', 'S', 'S', 'S', 'C', 'C', 'C', 'C', 'C', 'C', 'C', 'C', 'C', 'C', 'C', 'C', 'C', 'C', 'C', 'C']","[2219112, 2219488, 2219904, 2220312, 2220706, 2221111, 2221511, 2221888, 2222271, 2222646, 2223044, 2223440, 2223816, 2224214, 2224580, 2224990, 2225373, 2225758, 2226158, 2226536]","[2219195, 2219578, 2219990, 2220409, 2220811, 2221198, 2221597, 2221974, 2222362, 2222740, 2223141, 2223518, 2223926, 2224288, 2224666, 2225069, 2225453, 2225844, 2226232, 2226622]","[2217563, 2217962, 2218362, 2218762, 2219162, 2219563, 2219962, 2220362, 2220733, 2221137, 2221538, 2221915, 2222298, 2222672, 2223072, 2223467, 2223844, 2224241, 2224607, 2225017, 2225399, 2225784, 2226185, 2226564]",19,R,ITM,1.1,
6,400,trial,0,123,123,123,trial,"['S', 'S', 'S', 'S', 'C', 'C', 'C', 'C', 'C', 'C', 'C', 'C', 'C', 'C', 'C', 'C', 'C', 'C', 'C', 'C']","[2233478, 2233889, 2234302, 2234714, 2235110, 2235511, 2235886, 2236266, 2236665, 2237040, 2237450, 2237848, 2238235, 2238629, 2239015, 2239419, 2239803, 2240205, 2240596, 2240984]","[2233577, 2233980, 2234391, 2234799, 2235191, 2235579, 2235972, 2236336, 2236741, 2237123, 2237533, 2237908, 2238319, 2238692, 2239104, 2239496, 2239884, 2240277, 2240673, 2241073]","[2231956, 2232355, 2232755, 2233155, 2233555, 2233955, 2234355, 2234756, 2235137, 2235538, 2235914, 2236293, 2236693, 2237067, 2237476, 2237875, 2238263, 2238656, 2239042, 2239446, 2239830, 2240232, 2240623, 2241010]",19,R,ITM,1.1,
7,600,trial,0,124,124,124,trial,"['S', 'S', 'S', 'S', 'C', 'C', 'C', 'C', 'C', 'C', 'C', 'C', 'C', 'C', 'C', 'C', 'C', 'C', 'C', 'C']","[2248666, 2249291, 2249915, 2250515, 2251110, 2251705, 2252295, 2252912, 2253459, 2254010, 2254556, 2255102, 2255665, 2256232, 2256793, 2257353, 2257914, 2258440, 2259006, 2259584]","[2248780, 2249393, 2249998, 2250603, 2251186, 2251786, 2252370, 2252973, 2253523, 2254083, 2254644, 2255178, 2255735, 2256297, 2256868, 2257433, 2257983, 2258509, 2259082, 2259684]","[2246351, 2246950, 2247550, 2248151, 2248751, 2249351, 2249950, 2250550, 2251137, 2251731, 2252321, 2252939, 2253486, 2254036, 2254583, 2255129, 2255692, 2256260, 2256820, 2257380, 2257941, 2258467, 2259034, 2259611]",19,R,ITM,1.1,
2,600,trial,0,125,125,125,trial,"['S', 'S', 'S', 'S', 'C', 'C', 'C', 'C', 'C', 'C', 'C', 'C', 'C', 'C', 'C', 'C', 'C', 'C', 'C', 'C']","[2267738, 2268311, 2268947, 2269565, 2270139, 2270711, 2271296, 2271886, 2272471, 2273011, 2273596, 2274167, 2274750, 2275314, 2275880, 2276447, 2277038, 2277625, 2278184, 2278774]","[2267836, 2268419, 2269035, 2269637, 2270249, 2270786, 2271372, 2271954, 2272531, 2273094, 2273694, 2274234, 2274823, 2275395, 2275969, 2276532, 2277120, 2277702, 2278270, 2278863]","[2265399, 2265999, 2266599, 2267198, 2267799, 2268398, 2268999, 2269598, 2270166, 2270739, 2271324, 2271912, 2272498, 2273038, 2273624, 2274194, 2274778, 2275342, 2275908, 2276474, 2277065, 2277652, 2278212, 2278801]",19,R,ITM,1.1,
