octave,ioi,event,.thisRepN,.thisTrialN,.thisN,.thisIndex,event,tap_types,tap_times,release_times,tone_times,subject,handedness,experiment,version,
,,SPR,0,-1,-1,0,SPR,"['P', 'P', 'P', 'P', 'P', 'P', 'P', 'P', 'P', 'P', 'P', 'P', 'P', 'P', 'P', 'P', 'P', 'P', 'P', 'P', 'P', 'P', 'P', 'P', 'P', 'P', 'P', 'P', 'P', 'P']","[35109, 35531, 36102, 36649, 37200, 37760, 38365, 38971, 39576, 40167, 40782, 41352, 41915, 42524, 43209, 43793, 44368, 44966, 45557, 46182, 46796, 47424, 48012, 48622, 49240, 49874, 50477, 51086, 51697, 52325]","[35237, 35689, 36221, 36766, 37307, 37838, 38454, 39044, 39659, 40246, 40835, 41434, 41990, 42609, 43276, 43869, 44447, 45049, 45652, 46262, 46875, 47498, 48082, 48688, 49328, 49931, 50546, 51147, 51757, 52386]",,29,R,ITM,1.1,
6,500,practice,0,0,0,0,practice,"['S', 'S', 'S', 'S', 'S', 'S', 'S', 'C', 'C', 'C', 'C', 'C', 'C', 'C', 'C', 'C', 'C', 'C', 'C', 'C', 'C', 'C', 'C']","[108246, 109078, 109578, 110141, 110657, 111134, 111600, 112144, 112676, 113186, 113674, 114197, 114696, 115197, 115701, 116191, 116688, 117188, 117726, 118214, 118727, 119220, 119708]","[108345, 109158, 109696, 110258, 110773, 111213, 111708, 112226, 112745, 113252, 113754, 114289, 114778, 115293, 115787, 116275, 116776, 117280, 117816, 118283, 118817, 119313, 119814]","[108157, 108657, 109157, 109658, 110157, 110657, 111157, 111657, 112171, 112704, 113213, 113700, 114224, 114722, 115224, 115729, 116218, 116716, 117216, 117752, 118242, 118755, 119246, 119735]",29,R,ITM,1.1,
4,500,practice,0,1,1,1,practice,"['S', 'S', 'S', 'S', 'S', 'C', 'C', 'C', 'C', 'C', 'C', 'C', 'C', 'C', 'C', 'C', 'C', 'C', 'C', 'C', 'C']","[126703, 127210, 127757, 128259, 128784, 129293, 129832, 130317, 130768, 131260, 131758, 132251, 132736, 133209, 133718, 134169, 134685, 135222, 135713, 136213, 136714]","[126779, 127320, 127863, 128354, 128869, 129362, 129901, 130388, 130857, 131368, 131856, 132366, 132837, 133309, 133819, 134283, 134796, 135324, 135792, 136282, 136775]","[125304, 125804, 126304, 126804, 127304, 127804, 128305, 128804, 129318, 129858, 130343, 130794, 131286, 131783, 132277, 132761, 133235, 133743, 134195, 134711, 135248, 135739, 136239, 136740]",29,R,ITM,1.1,
2,500,practice,0,2,2,2,practice,"['S', 'S', 'S', 'S', 'S', 'C', 'C', 'C', 'C', 'C', 'C', 'C', 'C', 'C', 'C', 'C', 'C', 'C', 'C', 'C', 'C']","[143963, 144476, 144989, 145506, 146023, 146505, 146991, 147500, 148018, 148519, 149021, 149559, 150073, 150558, 151072, 151622, 152123, 152612, 153107, 153622, 154144]","[144050, 144549, 145061, 145577, 146108, 146574, 147055, 147581, 148098, 148602, 149101, 149638, 150153, 150646, 151168, 151708, 152194, 152676, 153186, 153705, 154216]","[142507, 143005, 143506, 144007, 144506, 145006, 145506, 146007, 146533, 147018, 147527, 148045, 148546, 149049, 149586, 150099, 150585, 151099, 151649, 152151, 152640, 153135, 153649, 154171]",29,R,ITM,1.1,
7,500,practice,0,3,3,3,practice,"['S', 'S', 'S', 'S', 'S', 'S', 'C', 'C', 'C', 'C', 'C', 'C', 'C', 'C', 'C', 'C', 'C', 'C', 'C', 'C', 'C', 'C']","[160397, 160914, 161426, 161902, 162418, 162915, 163450, 163943, 164430, 164929, 165436, 165934, 166428, 166961, 167484, 167948, 168393, 168923, 169440, 169928, 170440, 170933]","[160488, 161006, 161514, 161980, 162485, 162985, 163520, 164032, 164505, 165004, 165511, 166024, 166505, 167021, 167571, 168036, 168521, 169044, 169526, 169997, 170491, 171004]","[159467, 159966, 160466, 160966, 161466, 161967, 162466, 162966, 163478, 163970, 164457, 164957, 165464, 165961, 166456, 166988, 167512, 167975, 168421, 168949, 169467, 169955, 170468, 170959]",29,R,ITM,1.1,
3,500,practice,0,4,4,4,practice,"['S', 'S', 'S', 'S', 'S', 'S', 'C', 'C', 'C', 'C', 'C', 'C', 'C', 'C', 'C', 'C', 'C', 'C', 'C', 'C', 'C', 'C']","[177656, 178178, 178697, 179156, 179632, 180125, 180636, 181125, 181673, 182180, 182694, 183196, 183691, 184195, 184678, 185235, 185759, 186285, 186776, 187323, 187852, 188376]","[177757, 178291, 178779, 179235, 179718, 180211, 180721, 181216, 181767, 182283, 182785, 183273, 183782, 184267, 184771, 185316, 185854, 186372, 186882, 187437, 187940, 188475]","[176697, 177198, 177697, 178197, 178697, 179197, 179697, 180197, 180662, 181150, 181699, 182206, 182720, 183222, 183716, 184220, 184704, 185261, 185785, 186310, 186802, 187348, 187878, 188401]",29,R,ITM,1.1,
5,500,practice,0,5,5,5,practice,"['S', 'S', 'S', 'S', 'S', 'S', 'C', 'C', 'C', 'C', 'C', 'C', 'C', 'C', 'C', 'C', 'C', 'C', 'C', 'C', 'C', 'C']","[194629, 195158, 195643, 196169, 196662, 197173, 197654, 198161, 198665, 199160, 199624, 200130, 200636, 201139, 201634, 202163, 202670, 203186, 203655, 204186, 204691, 205163]","[194738, 195276, 195734, 196251, 196723, 197254, 197728, 198218, 198724, 199223, 199687, 200211, 200714, 201203, 201719, 202243, 202739, 203258, 203734, 204255, 204762, 205267]","[193693, 194192, 194693, 195192, 195692, 196192, 196692, 197192, 197680, 198188, 198691, 199186, 199651, 200156, 200663, 201165, 201660, 202189, 202696, 203211, 203681, 204213, 204717, 205189]",29,R,ITM,1.1,
4,600,trial,0,6,6,6,trial,"['S', 'S', 'S', 'S', 'S', 'S', 'C', 'C', 'C', 'C', 'C', 'C', 'C', 'C', 'C', 'C', 'C', 'C', 'C', 'C', 'C', 'C']","[240004, 240634, 241234, 241849, 242401, 243015, 243605, 244226, 244824, 245417, 246018, 246618, 247200, 247826, 248374, 248984, 249563, 250184, 250743, 251366, 251958, 252564]","[240140, 240775, 241355, 241967, 242527, 243117, 243705, 244314, 244903, 245502, 246080, 246704, 247304, 247914, 248492, 249096, 249653, 250264, 250824, 251451, 252015, 252609]","[238835, 239434, 240034, 240634, 241234, 241835, 242435, 243035, 243631, 244251, 244849, 245443, 246043, 246644, 247226, 247852, 248399, 249010, 249588, 250210, 250769, 251392, 251983, 252590]",29,R,ITM,1.1,
2,600,trial,0,7,7,7,trial,"['S', 'S', 'S', 'S', 'S', 'S', 'S', 'C', 'C', 'C', 'C', 'C', 'C', 'C', 'C', 'C', 'C', 'C', 'C', 'C', 'C', 'C', 'C']","[258496, 259110, 259683, 260296, 260913, 261510, 262132, 262743, 263351, 263953, 264602, 265205, 265815, 266407, 267057, 267653, 268215, 268887, 269560, 270153, 270779, 271377, 271983]","[258592, 259215, 259785, 260378, 260990, 261590, 262231, 262843, 263454, 264032, 264671, 265262, 265883, 266508, 267122, 267742, 268326, 268973, 269632, 270247, 270857, 271449, 272036]","[257931, 258530, 259131, 259730, 260331, 260931, 261531, 262130, 262770, 263377, 263981, 264630, 265233, 265842, 266434, 267083, 267679, 268242, 268913, 269588, 270180, 270806, 271405, 272010]",29,R,ITM,1.1,
6,600,trial,0,8,8,8,trial,"['S', 'S', 'S', 'S', 'S', 'S', 'C', 'C', 'C', 'C', 'C', 'C', 'C', 'C', 'C', 'C', 'C', 'C', 'C', 'C', 'C', 'C']","[278692, 279328, 279897, 280493, 281099, 281733, 282326, 282942, 283538, 284177, 284773, 285327, 285902, 286502, 287051, 287673, 288286, 288874, 289424, 290021, 290614, 291214]","[278787, 279422, 279989, 280595, 281199, 281821, 282399, 283026, 283616, 284252, 284862, 285432, 286014, 286595, 287163, 287759, 288358, 288949, 289498, 290105, 290698, 291301]","[277561, 278161, 278761, 279361, 279961, 280561, 281161, 281761, 282352, 282969, 283565, 284205, 284801, 285353, 285930, 286530, 287078, 287700, 288313, 288901, 289451, 290048, 290641, 291240]",29,R,ITM,1.1,
2,400,trial,0,9,9,9,trial,"['S', 'S', 'S', 'S', 'S', 'C', 'C', 'C', 'C', 'C', 'C', 'C', 'C', 'C', 'C', 'C', 'C', 'C', 'C', 'C', 'C']","[298147, 298562, 298981, 299379, 299783, 300162, 300522, 300937, 301342, 301720, 302104, 302486, 302883, 303276, 303659, 304040, 304445, 304823, 305220, 305603, 305987]","[298245, 298651, 299057, 299460, 299865, 300236, 300614, 301026, 301418, 301806, 302192, 302575, 302980, 303366, 303764, 304132, 304522, 304886, 305300, 305666, 306071]","[297025, 297425, 297824, 298225, 298625, 299024, 299425, 299826, 300188, 300549, 300964, 301369, 301747, 302132, 302514, 302911, 303303, 303685, 304067, 304473, 304850, 305247, 305630, 306015]",29,R,ITM,1.1,
5,600,trial,0,10,10,10,trial,"['S', 'S', 'S', 'S', 'S', 'S', 'C', 'C', 'C', 'C', 'C', 'C', 'C', 'C', 'C', 'C', 'C', 'C', 'C', 'C', 'C', 'C']","[312833, 313478, 314052, 314650, 315255, 315880, 316478, 317087, 317698, 318284, 318903, 319507, 320091, 320704, 321289, 321935, 322514, 323082, 323664, 324347, 324955, 325539]","[312936, 313583, 314155, 314747, 315334, 315967, 316569, 317174, 317774, 318392, 318977, 319592, 320177, 320785, 321360, 322003, 322585, 323167, 323750, 324406, 325037, 325629]","[311716, 312316, 312916, 313517, 314117, 314717, 315317, 315917, 316504, 317113, 317723, 318310, 318928, 319533, 320117, 320730, 321315, 321960, 322540, 323107, 323690, 324373, 324980, 325566]",29,R,ITM,1.1,
6,400,trial,0,11,11,11,trial,"['S', 'S', 'S', 'S', 'S', 'C', 'C', 'C', 'C', 'C', 'C', 'C', 'C', 'C', 'C', 'C', 'C', 'C', 'C', 'C', 'C']","[332443, 332884, 333283, 333682, 334072, 334494, 334892, 335289, 335677, 336095, 336478, 336842, 337244, 337633, 337995, 338381, 338797, 339184, 339564, 339950, 340356]","[332531, 332961, 333372, 333748, 334134, 334563, 334969, 335361, 335753, 336159, 336551, 336925, 337321, 337710, 338075, 338460, 338865, 339253, 339627, 340024, 340425]","[331322, 331721, 332122, 332521, 332921, 333321, 333721, 334121, 334521, 334918, 335315, 335704, 336122, 336504, 336869, 337271, 337659, 338023, 338408, 338824, 339211, 339592, 339977, 340382]",29,R,ITM,1.1,
5,600,trial,0,12,12,12,trial,"['S', 'S', 'S', 'S', 'C', 'C', 'C', 'C', 'C', 'C', 'C', 'C', 'C', 'C', 'C', 'C', 'C', 'C', 'C', 'C']","[348235, 348914, 349506, 350142, 350725, 351312, 351907, 352549, 353132, 353756, 354327, 354981, 355589, 356178, 356755, 357348, 357982, 358599, 359182, 359791]","[348358, 349010, 349586, 350223, 350813, 351413, 352020, 352626, 353207, 353836, 354416, 355054, 355670, 356257, 356864, 357444, 358073, 358686, 359287, 359882]","[345986, 346586, 347186, 347786, 348386, 348986, 349586, 350186, 350751, 351338, 351934, 352575, 353158, 353781, 354353, 355007, 355614, 356204, 356781, 357373, 358007, 358626, 359207, 359817]",29,R,ITM,1.1,
5,400,trial,0,13,13,13,trial,"['S', 'S', 'S', 'S', 'S', 'S', 'C', 'C', 'C', 'C', 'C', 'C', 'C', 'C', 'C', 'C', 'C', 'C', 'C', 'C', 'C', 'C']","[366297, 366675, 367050, 367432, 367808, 368205, 368606, 368992, 369390, 369788, 370180, 370562, 370979, 371384, 371750, 372134, 372554, 372956, 373347, 373736, 374113, 374529]","[366384, 366778, 367140, 367543, 367898, 368291, 368696, 369073, 369475, 369876, 370265, 370653, 371061, 371461, 371822, 372231, 372640, 373032, 373417, 373817, 374207, 374602]","[365471, 365871, 366270, 366670, 367070, 367470, 367870, 368270, 368631, 369017, 369416, 369815, 370206, 370587, 371005, 371409, 371777, 372160, 372580, 372981, 373373, 373762, 374138, 374554]",29,R,ITM,1.1,
2,400,trial,0,14,14,14,trial,"['S', 'S', 'S', 'S', 'S', 'C', 'C', 'C', 'C', 'C', 'C', 'C', 'C', 'C', 'C', 'C', 'C', 'C', 'C', 'C', 'C']","[381046, 381474, 381906, 382300, 382708, 383120, 383523, 383908, 384301, 384698, 385110, 385490, 385874, 386269, 386649, 387048, 387421, 387841, 388250, 388673, 389076]","[381146, 381562, 381989, 382377, 382780, 383202, 383595, 383986, 384378, 384768, 385184, 385572, 385950, 386332, 386725, 387118, 387492, 387915, 388348, 388740, 389147]","[379945, 380345, 380745, 381145, 381544, 381945, 382345, 382745, 383147, 383550, 383935, 384328, 384724, 385137, 385518, 385901, 386296, 386675, 387076, 387447, 387868, 388278, 388700, 389104]",29,R,ITM,1.1,
2,600,trial,0,15,15,15,trial,"['S', 'S', 'S', 'S', 'S', 'C', 'C', 'C', 'C', 'C', 'C', 'C', 'C', 'C', 'C', 'C', 'C', 'C', 'C', 'C', 'C']","[396198, 396860, 397445, 398035, 398631, 399267, 399868, 400487, 401063, 401720, 402334, 402933, 403533, 404164, 404702, 405321, 405978, 406574, 407203, 407880, 408513]","[396299, 396955, 397536, 398128, 398725, 399341, 399951, 400558, 401140, 401792, 402428, 403017, 403611, 404241, 404795, 405422, 406053, 406683, 407314, 407967, 408580]","[394461, 395059, 395659, 396260, 396860, 397460, 398059, 398660, 399294, 399895, 400515, 401090, 401747, 402362, 402961, 403560, 404192, 404728, 405348, 406004, 406600, 407231, 407907, 408541]",29,R,ITM,1.1,
7,600,trial,0,16,16,16,trial,"['S', 'S', 'S', 'S', 'S', 'S', 'C', 'C', 'C', 'C', 'C', 'C', 'C', 'C', 'C', 'C', 'C', 'C', 'C', 'C', 'C', 'C']","[415399, 416031, 416667, 417268, 417890, 418486, 419087, 419724, 420263, 420886, 421499, 422118, 422789, 423408, 423944, 424619, 425254, 425919, 426473, 427073, 427664, 428361]","[415519, 416154, 416785, 417380, 417982, 418568, 419158, 419810, 420356, 420990, 421593, 422209, 422856, 423485, 424042, 424702, 425336, 425978, 426549, 427145, 427748, 428403]","[414318, 414918, 415518, 416118, 416718, 417318, 417918, 418519, 419115, 419750, 420290, 420913, 421526, 422146, 422816, 423435, 423971, 424646, 425282, 425946, 426501, 427101, 427692, 428389]",29,R,ITM,1.1,
5,400,trial,0,17,17,17,trial,"['S', 'S', 'S', 'S', 'S', 'S', 'C', 'C', 'C', 'C', 'C', 'C', 'C', 'C', 'C', 'C', 'C', 'C', 'C', 'C', 'C', 'C']","[434805, 435221, 435617, 435998, 436419, 436839, 437212, 437604, 437983, 438380, 438765, 439182, 439570, 439962, 440388, 440807, 441179, 441550, 441964, 442365, 442764, 443169]","[434904, 435313, 435713, 436091, 436502, 436910, 437287, 437680, 438055, 438452, 438836, 439245, 439644, 440051, 440451, 440849, 441261, 441625, 442050, 442443, 442851, 443242]","[434040, 434439, 434839, 435239, 435639, 436039, 436440, 436839, 437237, 437629, 438008, 438406, 438791, 439207, 439596, 439988, 440414, 440833, 441204, 441576, 441990, 442391, 442789, 443195]",29,R,ITM,1.1,
3,400,trial,0,18,18,18,trial,"['S', 'S', 'S', 'S', 'S', 'S', 'C', 'C', 'C', 'C', 'C', 'C', 'C', 'C', 'C', 'C', 'C', 'C', 'C', 'C', 'C', 'C']","[452647, 453060, 453439, 453848, 454240, 454652, 455046, 455434, 455822, 456221, 456606, 456998, 457370, 457768, 458175, 458561, 458948, 459358, 459769, 460172, 460559, 460977]","[452742, 453145, 453545, 453951, 454345, 454746, 455129, 455524, 455934, 456321, 456691, 457114, 457478, 457890, 458280, 458643, 459060, 459437, 459834, 460231, 460634, 461054]","[451898, 452298, 452699, 453098, 453498, 453898, 454298, 454699, 455071, 455459, 455847, 456247, 456632, 457024, 457396, 457795, 458201, 458587, 458974, 459383, 459795, 460197, 460584, 461002]",29,R,ITM,1.1,
6,400,trial,0,19,19,19,trial,"['S', 'S', 'S', 'S', 'S', 'S', 'C', 'C', 'C', 'C', 'C', 'C', 'C', 'C', 'C', 'C', 'C', 'C', 'C', 'C', 'C', 'C']","[467165, 467584, 467956, 468358, 468775, 469188, 469560, 469952, 470341, 470715, 471117, 471513, 471910, 472310, 472698, 473085, 473478, 473863, 474244, 474609, 475017, 475424]","[467260, 467679, 468072, 468471, 468871, 469269, 469650, 470044, 470417, 470807, 471205, 471587, 471980, 472383, 472790, 473156, 473532, 473926, 474309, 474688, 475075, 475468]","[466405, 466804, 467205, 467604, 468004, 468404, 468804, 469204, 469587, 469979, 470369, 470743, 471145, 471540, 471937, 472338, 472725, 473112, 473505, 473889, 474270, 474637, 475043, 475451]",29,R,ITM,1.1,
7,400,trial,0,20,20,20,trial,"['S', 'S', 'S', 'S', 'S', 'S', 'C', 'C', 'C', 'C', 'C', 'C', 'C', 'C', 'C', 'C', 'C', 'C', 'C', 'C', 'C', 'C']","[481661, 482079, 482470, 482904, 483290, 483678, 484074, 484456, 484878, 485273, 485654, 486036, 486419, 486807, 487208, 487609, 487990, 488388, 488791, 489176, 489562, 489955]","[481750, 482181, 482588, 483006, 483401, 483785, 484207, 484569, 484978, 485367, 485754, 486099, 486511, 486910, 487302, 487718, 488098, 488503, 488868, 489291, 489697, 490079]","[480917, 481316, 481716, 482116, 482516, 482916, 483316, 483717, 484102, 484484, 484904, 485301, 485681, 486063, 486446, 486835, 487235, 487636, 488016, 488415, 488818, 489203, 489589, 489981]",29,R,ITM,1.1,
4,600,trial,0,21,21,21,trial,"['S', 'S', 'S', 'S', 'S', 'C', 'C', 'C', 'C', 'C', 'C', 'C', 'C', 'C', 'C', 'C', 'C', 'C', 'C', 'C', 'C']","[497065, 497674, 498294, 498892, 499474, 500112, 500732, 501303, 501939, 502538, 503112, 503724, 504328, 504951, 505536, 506144, 506746, 507370, 507995, 508588, 509174]","[497168, 497767, 498406, 498991, 499574, 500204, 500808, 501414, 502059, 502658, 503233, 503839, 504457, 505070, 505679, 506295, 506875, 507506, 508124, 508711, 509309]","[495331, 495931, 496531, 497131, 497731, 498331, 498931, 499531, 500137, 500758, 501328, 501964, 502563, 503138, 503749, 504353, 504977, 505562, 506170, 506772, 507396, 508020, 508613, 509200]",29,R,ITM,1.1,
3,400,trial,0,22,22,22,trial,"['S', 'S', 'S', 'S', 'C', 'C', 'C', 'C', 'C', 'C', 'C', 'C', 'C', 'C', 'C', 'C', 'C', 'C', 'C', 'C']","[516013, 516418, 516847, 517237, 517634, 518061, 518447, 518842, 519229, 519622, 520013, 520391, 520759, 521169, 521576, 521961, 522364, 522758, 523154, 523579]","[516099, 516529, 516977, 517372, 517790, 518168, 518592, 518998, 519369, 519740, 520119, 520496, 520905, 521337, 521720, 522127, 522520, 522927, 523347, 523732]","[514483, 514883, 515283, 515683, 516083, 516484, 516883, 517283, 517659, 518086, 518472, 518867, 519255, 519648, 520039, 520417, 520784, 521195, 521602, 521987, 522390, 522783, 523180, 523604]",29,R,ITM,1.1,
7,600,trial,0,23,23,23,trial,"['S', 'S', 'S', 'S', 'S', 'S', 'C', 'C', 'C', 'C', 'C', 'C', 'C', 'C', 'C', 'C', 'C', 'C', 'C', 'C', 'C', 'C']","[530085, 530737, 531286, 531923, 532540, 533143, 533714, 534331, 534949, 535582, 536180, 536812, 537447, 538075, 538669, 539297, 539899, 540515, 541145, 541773, 542344, 542998]","[530234, 530854, 531427, 532038, 532647, 533253, 533839, 534433, 535059, 535669, 536268, 536911, 537531, 538153, 538783, 539377, 540009, 540616, 541238, 541855, 542454, 543112]","[528910, 529509, 530109, 530709, 531309, 531909, 532509, 533109, 533741, 534358, 534977, 535609, 536207, 536839, 537475, 538101, 538696, 539324, 539927, 540541, 541171, 541801, 542370, 543025]",29,R,ITM,1.1,
3,600,trial,0,24,24,24,trial,"['S', 'S', 'S', 'S', 'S', 'S', 'C', 'C', 'C', 'C', 'C', 'C', 'C', 'C', 'C', 'C', 'C', 'C', 'C', 'C', 'C', 'C']","[549787, 550421, 551029, 551647, 552246, 552870, 553445, 554045, 554642, 555264, 555889, 556482, 557069, 557704, 558310, 558911, 559548, 560199, 560788, 561392, 562026, 562662]","[549911, 550535, 551157, 551747, 552351, 552951, 553549, 554178, 554778, 555354, 555972, 556560, 557176, 557798, 558433, 559033, 559671, 560291, 560887, 561512, 562122, 562782]","[548668, 549267, 549867, 550467, 551067, 551667, 552267, 552867, 553470, 554071, 554668, 555289, 555915, 556508, 557094, 557729, 558336, 558937, 559574, 560225, 560814, 561418, 562052, 562688]",29,R,ITM,1.1,
7,400,trial,0,25,25,25,trial,"['S', 'S', 'S', 'S', 'S', 'S', 'C', 'C', 'C', 'C', 'C', 'C', 'C', 'C', 'C', 'C', 'C', 'C', 'C', 'C', 'C', 'C']","[569059, 569451, 569847, 570252, 570661, 571058, 571447, 571823, 572228, 572626, 573006, 573431, 573835, 574223, 574594, 574984, 575381, 575783, 576171, 576566, 576947, 577341]","[569153, 569576, 569988, 570387, 570793, 571200, 571597, 571983, 572372, 572769, 573148, 573558, 573990, 574380, 574746, 575140, 575537, 575923, 576309, 576698, 577076, 577459]","[568303, 568702, 569102, 569502, 569903, 570302, 570702, 571102, 571474, 571849, 572256, 572654, 573033, 573459, 573862, 574251, 574620, 575010, 575409, 575810, 576198, 576592, 576973, 577368]",29,R,ITM,1.1,
4,400,trial,0,26,26,26,trial,"['S', 'S', 'S', 'S', 'S', 'S', 'C', 'C', 'C', 'C', 'C', 'C', 'C', 'C', 'C', 'C', 'C', 'C', 'C', 'C', 'C', 'C']","[583878, 584288, 584679, 585048, 585446, 585860, 586261, 586635, 587022, 587415, 587814, 588211, 588602, 588981, 589398, 589804, 590209, 590609, 590982, 591397, 591806, 592184]","[583972, 584406, 584810, 585222, 585619, 586020, 586397, 586793, 587188, 587586, 587954, 588350, 588750, 589125, 589554, 589972, 590360, 590765, 591148, 591577, 591946, 592354]","[583114, 583514, 583913, 584313, 584713, 585113, 585513, 585913, 586287, 586661, 587047, 587441, 587840, 588236, 588627, 589007, 589423, 589830, 590234, 590636, 591007, 591423, 591832, 592209]",29,R,ITM,1.1,
4,400,trial,0,27,27,27,trial,"['S', 'S', 'S', 'S', 'S', 'S', 'C', 'C', 'C', 'C', 'C', 'C', 'C', 'C', 'C', 'C', 'C', 'C', 'C', 'C', 'C', 'C']","[598467, 598883, 599284, 599687, 600083, 600498, 600872, 601273, 601675, 602081, 602469, 602876, 603321, 603723, 604130, 604536, 604937, 605344, 605746, 606156, 606576, 606987]","[598572, 599021, 599413, 599826, 600226, 600637, 601009, 601407, 601834, 602231, 602593, 603032, 603431, 603854, 604284, 604702, 605097, 605510, 605898, 606294, 606722, 607154]","[597712, 598111, 598511, 598912, 599311, 599711, 600112, 600511, 600899, 601298, 601701, 602106, 602496, 602902, 603346, 603749, 604155, 604562, 604962, 605370, 605771, 606182, 606602, 607012]",29,R,ITM,1.1,
3,600,trial,0,28,28,28,trial,"['S', 'S', 'S', 'S', 'S', 'S', 'C', 'C', 'C', 'C', 'C', 'C', 'C', 'C', 'C', 'C', 'C', 'C', 'C', 'C', 'C', 'C']","[613625, 614260, 614855, 615471, 616066, 616687, 617254, 617871, 618483, 619111, 619698, 620296, 620892, 621546, 622166, 622794, 623375, 624004, 624633, 625257, 625927, 626498]","[613784, 614410, 614998, 615607, 616197, 616805, 617375, 618000, 618602, 619218, 619817, 620456, 621042, 621655, 622278, 622885, 623504, 624128, 624769, 625373, 626017, 626644]","[612502, 613101, 613701, 614301, 614901, 615501, 616101, 616701, 617280, 617896, 618509, 619137, 619723, 620321, 620917, 621572, 622191, 622820, 623400, 624029, 624659, 625283, 625952, 626524]",29,R,ITM,1.1,
6,600,trial,0,29,29,29,trial,"['S', 'S', 'S', 'S', 'S', 'S', 'C', 'C', 'C', 'C', 'C', 'C', 'C', 'C', 'C', 'C', 'C', 'C', 'C', 'C', 'C', 'C']","[633125, 633722, 634333, 634943, 635526, 636112, 636697, 637281, 637902, 638516, 639091, 639717, 640266, 640832, 641439, 642053, 642647, 643262, 643858, 644435, 645055, 645653]","[633251, 633841, 634414, 635052, 635669, 636264, 636818, 637400, 638024, 638645, 639242, 639833, 640403, 640991, 641595, 642171, 642756, 643387, 643970, 644555, 645173, 645774]","[631944, 632542, 633142, 633742, 634342, 634942, 635542, 636142, 636725, 637308, 637930, 638543, 639118, 639744, 640292, 640860, 641466, 642079, 642674, 643289, 643885, 644462, 645082, 645680]",29,R,ITM,1.1,
5,600,trial,0,30,30,30,trial,"['S', 'S', 'S', 'S', 'S', 'S', 'C', 'C', 'C', 'C', 'C', 'C', 'C', 'C', 'C', 'C', 'C', 'C', 'C', 'C', 'C', 'C']","[673938, 674540, 675145, 675789, 676384, 677002, 677597, 678195, 678786, 679395, 679990, 680593, 681199, 681799, 682422, 683039, 683608, 684237, 684843, 685448, 686045, 686666]","[674073, 674699, 675333, 675944, 676566, 677180, 677774, 678355, 678961, 679579, 680168, 680754, 681412, 682000, 682616, 683224, 683805, 684421, 685049, 685655, 686262, 686856]","[672802, 673402, 674002, 674603, 675203, 675803, 676402, 677002, 677622, 678221, 678811, 679420, 680015, 680619, 681225, 681825, 682448, 683066, 683633, 684264, 684869, 685474, 686070, 686692]",29,R,ITM,1.1,
3,600,trial,0,31,31,31,trial,"['S', 'S', 'S', 'S', 'S', 'S', 'C', 'C', 'C', 'C', 'C', 'C', 'C', 'C', 'C', 'C', 'C', 'C', 'C', 'C', 'C', 'C']","[693444, 694067, 694635, 695279, 695881, 696465, 697043, 697689, 698281, 698928, 699548, 700170, 700785, 701413, 702023, 702658, 703275, 703905, 704532, 705140, 705723, 706376]","[693601, 694219, 694799, 695447, 696052, 696628, 697233, 697886, 698488, 699143, 699725, 700407, 700976, 701633, 702224, 702860, 703576, 704220, 704805, 705476, 705915, 706617]","[692279, 692879, 693479, 694079, 694679, 695279, 695879, 696479, 697069, 697714, 698307, 698953, 699574, 700195, 700811, 701438, 702049, 702684, 703300, 703931, 704558, 705166, 705748, 706402]",29,R,ITM,1.1,
6,600,trial,0,32,32,32,trial,"['S', 'S', 'S', 'S', 'S', 'S', 'C', 'C', 'C', 'C', 'C', 'C', 'C', 'C', 'C', 'C', 'C', 'C', 'C', 'C', 'C', 'C']","[713332, 713958, 714542, 715140, 715749, 716345, 716962, 717540, 718134, 718707, 719313, 719902, 720504, 721110, 721695, 722301, 722875, 723493, 724076, 724635, 725228, 725861]","[713503, 714133, 714700, 715277, 715891, 716463, 717090, 717691, 718294, 718881, 719470, 720089, 720654, 721284, 721843, 722412, 722975, 723596, 724195, 724754, 725343, 725984]","[712193, 712792, 713392, 713992, 714592, 715192, 715792, 716392, 716989, 717568, 718160, 718735, 719340, 719929, 720531, 721136, 721722, 722328, 722902, 723520, 724104, 724662, 725255, 725889]",29,R,ITM,1.1,
2,400,trial,0,33,33,33,trial,"['S', 'S', 'S', 'S', 'S', 'S', 'C', 'C', 'C', 'C', 'C', 'C', 'C', 'C', 'C', 'C', 'C', 'C', 'C', 'C', 'C', 'C']","[732189, 732564, 732960, 733369, 733767, 734172, 734567, 734965, 735355, 735754, 736142, 736533, 736930, 737335, 737736, 738124, 738516, 738911, 739304, 739698, 740083, 740465]","[732292, 732713, 733122, 733534, 733933, 734330, 734707, 735133, 735515, 735909, 736324, 736690, 737069, 737473, 737902, 738295, 738685, 739078, 739460, 739859, 740237, 740622]","[731405, 731805, 732206, 732605, 733005, 733406, 733805, 734204, 734595, 734992, 735382, 735780, 736169, 736561, 736958, 737362, 737764, 738152, 738544, 738937, 739331, 739726, 740110, 740493]",29,R,ITM,1.1,
6,400,trial,0,34,34,34,trial,"['S', 'S', 'S', 'S', 'S', 'S', 'C', 'C', 'C', 'C', 'C', 'C', 'C', 'C', 'C', 'C', 'C', 'C', 'C', 'C', 'C', 'C']","[746678, 747103, 747503, 747876, 748264, 748680, 749084, 749487, 749873, 750260, 750653, 751052, 751453, 751853, 752230, 752637, 753040, 753446, 753852, 754254, 754659, 755045]","[746801, 747248, 747651, 748023, 748427, 748847, 749233, 749643, 750014, 750439, 750815, 751188, 751600, 751993, 752369, 752772, 753177, 753587, 753984, 754399, 754786, 755172]","[745904, 746303, 746703, 747103, 747503, 747904, 748303, 748703, 749111, 749514, 749899, 750287, 750681, 751079, 751480, 751881, 752257, 752664, 753067, 753474, 753879, 754282, 754685, 755072]",29,R,ITM,1.1,
4,600,trial,0,35,35,35,trial,"['S', 'S', 'S', 'S', 'S', 'S', 'S', 'C', 'C', 'C', 'C', 'C', 'C', 'C', 'C', 'C', 'C', 'C', 'C', 'C', 'C', 'C', 'C']","[761402, 761852, 762467, 763091, 763621, 764229, 764851, 765435, 766056, 766687, 767292, 767889, 768487, 769125, 769748, 770319, 770927, 771576, 772191, 772793, 773430, 774027, 774642]","[761528, 762020, 762615, 763236, 763800, 764394, 764992, 765557, 766183, 766796, 767389, 767991, 768599, 769238, 769873, 770463, 771084, 771677, 772327, 772923, 773556, 774159, 774782]","[760649, 761248, 761848, 762448, 763048, 763649, 764249, 764849, 765462, 766082, 766712, 767318, 767915, 768514, 769150, 769774, 770344, 770953, 771602, 772216, 772819, 773455, 774052, 774668]",29,R,ITM,1.1,
2,600,trial,0,36,36,36,trial,"['S', 'S', 'S', 'S', 'S', 'S', 'S', 'C', 'C', 'C', 'C', 'C', 'C', 'C', 'C', 'C', 'C', 'C', 'C', 'C', 'C', 'C', 'C']","[780803, 781302, 781837, 782401, 783057, 783713, 784313, 784898, 785496, 786124, 786754, 787382, 787998, 788642, 789304, 789878, 790494, 791135, 791703, 792353, 792970, 793605, 794213]","[780903, 781446, 781974, 782564, 783203, 783834, 784457, 785051, 785715, 786326, 786979, 787627, 788250, 788853, 789492, 790055, 790722, 791380, 791974, 792699, 793226, 793896]","[780085, 780685, 781284, 781885, 782485, 783084, 783685, 784285, 784925, 785523, 786151, 786781, 787408, 788025, 788669, 789331, 789906, 790520, 791161, 791731, 792381, 792996, 793632, 794240]",29,R,ITM,1.1,
4,600,trial,0,37,37,37,trial,"['S', 'S', 'S', 'S', 'S', 'S', 'C', 'C', 'C', 'C', 'C', 'C', 'C', 'C', 'C', 'C', 'C', 'C', 'C', 'C', 'C', 'C']","[800708, 801348, 801911, 802558, 803170, 803743, 804344, 804939, 805525, 806195, 806810, 807432, 808000, 808600, 809187, 809833, 810415, 810995, 811628, 812235, 812866, 813481]","[800846, 801499, 802066, 802713, 803304, 803907, 804500, 805059, 805684, 806340, 806947, 807598, 808153, 808803, 809418, 810037, 810622, 811192, 811806, 812417, 813041, 813656]","[799567, 800167, 800768, 801368, 801968, 802567, 803167, 803767, 804370, 804965, 805551, 806220, 806836, 807457, 808026, 808626, 809213, 809859, 810440, 811021, 811655, 812261, 812892, 813507]",29,R,ITM,1.1,
7,600,trial,0,38,38,38,trial,"['S', 'S', 'S', 'S', 'S', 'S', 'C', 'C', 'C', 'C', 'C', 'C', 'C', 'C', 'C', 'C', 'C', 'C', 'C', 'C', 'C', 'C']","[820069, 820725, 821289, 821901, 822497, 823102, 823686, 824293, 824871, 825476, 826092, 826694, 827301, 827893, 828516, 829117, 829709, 830339, 830922, 831549, 832150, 832726]","[820238, 820865, 821451, 822071, 822648, 823254, 823888, 824466, 825032, 825657, 826283, 826900, 827501, 828068, 828666, 829279, 829886, 830485, 831080, 831724, 832355, 832899]","[818917, 819516, 820116, 820716, 821316, 821916, 822516, 823116, 823713, 824320, 824898, 825503, 826119, 826721, 827329, 827920, 828542, 829144, 829735, 830366, 830950, 831577, 832178, 832752]",29,R,ITM,1.1,
3,400,trial,0,39,39,39,trial,"['S', 'S', 'S', 'S', 'S', 'C', 'C', 'C', 'C', 'C', 'C', 'C', 'C', 'C', 'C', 'C', 'C', 'C', 'C', 'C', 'C']","[839621, 840029, 840429, 840836, 841239, 841615, 842004, 842406, 842820, 843264, 843676, 844077, 844491, 844902, 845313, 845734, 846147, 846553, 846972, 847354, 847795]","[839706, 840136, 840550, 840948, 841334, 841712, 842106, 842512, 842943, 843377, 843790, 844191, 844628, 845027, 845453, 845870, 846292, 846706, 847081, 847486, 847924]","[838429, 838830, 839229, 839629, 840029, 840429, 840829, 841229, 841640, 842030, 842432, 842846, 843289, 843703, 844102, 844517, 844928, 845338, 845760, 846173, 846578, 846999, 847380, 847820]",29,R,ITM,1.1,
7,600,trial,0,40,40,40,trial,"['S', 'S', 'S', 'S', 'S', 'S', 'C', 'C', 'C', 'C', 'C', 'C', 'C', 'C', 'C', 'C', 'C', 'C', 'C', 'C', 'C', 'C']","[854490, 855158, 855727, 856341, 856984, 857564, 858133, 858742, 859320, 859914, 860503, 861100, 861685, 862283, 862875, 863471, 864069, 864697, 865243, 865862, 866454, 867073]","[854628, 855312, 855880, 856484, 857090, 857693, 858272, 858864, 859476, 860032, 860641, 861211, 861773, 862375, 862979, 863578, 864190, 864821, 865359, 866012, 866621, 867223]","[853356, 853955, 854555, 855155, 855755, 856355, 856955, 857555, 858161, 858770, 859347, 859941, 860530, 861127, 861713, 862311, 862903, 863498, 864097, 864724, 865270, 865889, 866481, 867099]",29,R,ITM,1.1,
5,600,trial,0,41,41,41,trial,"['S', 'S', 'S', 'S', 'S', 'S', 'C', 'C', 'C', 'C', 'C', 'C', 'C', 'C', 'C', 'C', 'C', 'C', 'C', 'C', 'C', 'C']","[873804, 874424, 875031, 875604, 876206, 876821, 877409, 878042, 878637, 879206, 879815, 880420, 881003, 881605, 882183, 882809, 883369, 883975, 884571, 885166, 885793, 886388]","[873940, 874563, 875165, 875724, 876352, 876973, 877559, 878168, 878777, 879343, 879983, 880588, 881167, 881793, 882396, 883012, 883566, 884202, 884854, 885445, 886025, 886541]","[872657, 873257, 873858, 874458, 875058, 875658, 876258, 876858, 877435, 878067, 878663, 879232, 879841, 880447, 881029, 881631, 882209, 882835, 883396, 884000, 884596, 885191, 885820, 886414]",29,R,ITM,1.1,
2,600,trial,0,42,42,42,trial,"['S', 'S', 'S', 'S', 'S', 'C', 'C', 'C', 'C', 'C', 'C', 'C', 'C', 'C', 'C', 'C', 'C', 'C', 'C', 'C', 'C']","[936519, 937127, 937738, 938324, 938948, 939539, 940154, 940775, 941393, 942022, 942643, 943286, 943912, 944514, 945112, 945725, 946347, 946963, 947572, 948197, 948843]","[936687, 937304, 937910, 938500, 939111, 939707, 940322, 940954, 941585, 942192, 942800, 943423, 944099, 944690, 945286, 945915, 946547, 947144, 947782, 948427, 949061]","[934762, 935362, 935962, 936562, 937162, 937762, 938362, 938961, 939567, 940182, 940802, 941421, 942049, 942670, 943312, 943939, 944541, 945138, 945753, 946374, 946991, 947599, 948224, 948871]",29,R,ITM,1.1,
4,400,trial,0,43,43,43,trial,"['S', 'S', 'S', 'S', 'C', 'C', 'C', 'C', 'C', 'C', 'C', 'C', 'C', 'C', 'C', 'C', 'C', 'C', 'C', 'C']","[956203, 956584, 956996, 957422, 957813, 958217, 958619, 959017, 959432, 959840, 960250, 960669, 961062, 961470, 961881, 962274, 962692, 963127, 963554, 963948]","[956308, 956694, 957121, 957547, 957952, 958360, 958775, 959164, 959572, 959994, 960406, 960828, 961215, 961616, 962002, 962410, 962832, 963250, 963682, 964079]","[954653, 955053, 955452, 955852, 956253, 956653, 957053, 957453, 957839, 958242, 958645, 959043, 959458, 959865, 960276, 960695, 961088, 961496, 961906, 962299, 962717, 963152, 963579, 963974]",29,R,ITM,1.1,
3,600,trial,0,44,44,44,trial,"['S', 'S', 'S', 'S', 'S', 'S', 'C', 'C', 'C', 'C', 'C', 'C', 'C', 'C', 'C', 'C', 'C', 'C', 'C', 'C', 'C', 'C']","[970663, 971281, 971881, 972493, 973130, 973727, 974302, 974917, 975536, 976149, 976761, 977364, 977928, 978537, 980115, 980682, 981250, 981832, 982455, 983069, 983646, 984229]","[970810, 971428, 972027, 972606, 973237, 973860, 974424, 975035, 975662, 976273, 976894, 977484, 978082, 978675, 980229, 980834, 981429, 981992, 982619, 983268, 983833, 984458]","[969523, 970122, 970722, 971322, 971922, 972522, 973122, 973722, 974327, 974943, 975561, 976175, 976787, 977390, 977953, 978563, 980141, 980708, 981275, 981858, 982480, 983095, 983671, 984255]",29,R,ITM,1.1,
7,400,trial,0,45,45,45,trial,"['S', 'S', 'S', 'S', 'S', 'S', 'C', 'C', 'C', 'C', 'C', 'C', 'C', 'C', 'C', 'C', 'C', 'C', 'C', 'C', 'C', 'C']","[990321, 990731, 991145, 991547, 991944, 992363, 992759, 993158, 993555, 993956, 994365, 994767, 995167, 995568, 995982, 996378, 996755, 997139, 997557, 997968, 998359, 998739]","[990428, 990848, 991278, 991681, 992080, 992514, 992904, 993303, 993716, 994105, 994523, 994935, 995317, 995718, 996115, 996523, 996901, 997293, 997712, 998105, 998499, 998899]","[989591, 989991, 990391, 990791, 991192, 991591, 991991, 992392, 992787, 993185, 993583, 993984, 994392, 994794, 995193, 995595, 996008, 996405, 996782, 997167, 997583, 997995, 998385, 998766]",29,R,ITM,1.1,
7,400,trial,0,46,46,46,trial,"['S', 'S', 'S', 'S', 'S', 'S', 'C', 'C', 'C', 'C', 'C', 'C', 'C', 'C', 'C', 'C', 'C', 'C', 'C', 'C', 'C', 'C']","[1005025, 1005463, 1005885, 1006300, 1006662, 1007052, 1007462, 1007854, 1008256, 1008672, 1009099, 1009478, 1009878, 1010266, 1010692, 1011107, 1011504, 1011901, 1012291, 1012682, 1013099, 1013497]","[1005168, 1005603, 1006023, 1006429, 1006803, 1007215, 1007610, 1008013, 1008411, 1008818, 1009267, 1009635, 1010010, 1010424, 1010829, 1011234, 1011624, 1012046, 1012435, 1012812, 1013232, 1013647]","[1004286, 1004685, 1005085, 1005486, 1005885, 1006285, 1006686, 1007086, 1007489, 1007881, 1008282, 1008699, 1009126, 1009505, 1009904, 1010292, 1010719, 1011134, 1011530, 1011928, 1012318, 1012710, 1013127, 1013524]",29,R,ITM,1.1,
3,400,trial,0,47,47,47,trial,"['S', 'S', 'S', 'S', 'S', 'S', 'C', 'C', 'C', 'C', 'C', 'C', 'C', 'C', 'C', 'C', 'C', 'C', 'C', 'C', 'C', 'C']","[1019742, 1020166, 1020566, 1020971, 1021356, 1021754, 1022161, 1022551, 1022957, 1023347, 1023749, 1024168, 1024565, 1024931, 1025313, 1025725, 1026115, 1026519, 1026927, 1027323, 1027739, 1028141]","[1019888, 1020299, 1020698, 1021112, 1021509, 1021912, 1022316, 1022714, 1023112, 1023493, 1023919, 1024300, 1024697, 1025068, 1025464, 1025868, 1026270, 1026678, 1027075, 1027468, 1027889, 1028299]","[1018991, 1019390, 1019790, 1020190, 1020591, 1020990, 1021390, 1021790, 1022187, 1022576, 1022983, 1023373, 1023774, 1024194, 1024590, 1024957, 1025339, 1025751, 1026141, 1026544, 1026953, 1027349, 1027765, 1028166]",29,R,ITM,1.1,
6,600,trial,0,48,48,48,trial,"['S', 'S', 'S', 'S', 'S', 'S', 'C', 'C', 'C', 'C', 'C', 'C', 'C', 'C', 'C', 'C', 'C', 'C', 'C', 'C', 'C', 'C']","[1035059, 1035706, 1036310, 1036926, 1037510, 1038083, 1038682, 1039270, 1039862, 1040470, 1041095, 1041697, 1042281, 1042915, 1043495, 1044139, 1044744, 1045336, 1045889, 1046504, 1047080, 1047663]","[1035218, 1035853, 1036453, 1037053, 1037648, 1038227, 1038826, 1039423, 1040014, 1040619, 1041212, 1041843, 1042442, 1043059, 1043651, 1044253, 1044902, 1045495, 1046068, 1046730, 1047300, 1047869]","[1033936, 1034535, 1035136, 1035736, 1036336, 1036936, 1037536, 1038136, 1038709, 1039297, 1039889, 1040497, 1041122, 1041724, 1042308, 1042941, 1043522, 1044166, 1044770, 1045362, 1045915, 1046532, 1047107, 1047691]",29,R,ITM,1.1,
5,400,trial,0,49,49,49,trial,"['S', 'S', 'S', 'S', 'S', 'S', 'C', 'C', 'C', 'C', 'C', 'C', 'C', 'C', 'C', 'C', 'C', 'C', 'C', 'C', 'C', 'C']","[1054181, 1054597, 1055009, 1055413, 1055832, 1056230, 1056608, 1057012, 1057415, 1057816, 1058205, 1058635, 1059019, 1059416, 1059799, 1060198, 1060597, 1060997, 1061383, 1061784, 1062190, 1062585]","[1054310, 1054757, 1055166, 1055566, 1055970, 1056370, 1056739, 1057145, 1057543, 1057941, 1058325, 1058750, 1059158, 1059548, 1059944, 1060328, 1060718, 1061136, 1061531, 1061939, 1062337, 1062728]","[1053426, 1053826, 1054225, 1054625, 1055026, 1055426, 1055826, 1056226, 1056633, 1057038, 1057440, 1057842, 1058231, 1058661, 1059045, 1059442, 1059825, 1060225, 1060623, 1061022, 1061409, 1061811, 1062215, 1062610]",29,R,ITM,1.1,
5,400,trial,0,50,50,50,trial,"['S', 'S', 'S', 'S', 'S', 'S', 'C', 'C', 'C', 'C', 'C', 'C', 'C', 'C', 'C', 'C', 'C', 'C', 'C', 'C', 'C', 'C']","[1068922, 1069339, 1069754, 1070157, 1070559, 1070962, 1071347, 1071735, 1072119, 1072496, 1072894, 1073305, 1073753, 1074159, 1074548, 1074952, 1075366, 1075762, 1076171, 1076591, 1077021, 1077407]","[1069034, 1069470, 1069908, 1070308, 1070727, 1071114, 1071508, 1071876, 1072287, 1072666, 1073070, 1073486, 1073861, 1074325, 1074706, 1075115, 1075521, 1075940, 1076343, 1076749, 1077176, 1077572]","[1068191, 1068592, 1068991, 1069391, 1069791, 1070191, 1070592, 1070991, 1071373, 1071762, 1072145, 1072522, 1072921, 1073332, 1073778, 1074185, 1074575, 1074978, 1075393, 1075788, 1076197, 1076618, 1077048, 1077434]",29,R,ITM,1.1,
6,400,trial,0,51,51,51,trial,"['S', 'S', 'S', 'S', 'S', 'S', 'C', 'C', 'C', 'C', 'C', 'C', 'C', 'C', 'C', 'C', 'C', 'C', 'C', 'C', 'C', 'C']","[1083829, 1084236, 1084659, 1085058, 1085454, 1085844, 1086237, 1086644, 1087038, 1087436, 1087827, 1088220, 1088605, 1089020, 1089421, 1089824, 1090214, 1090597, 1091020, 1091438, 1091840, 1092238]","[1083966, 1084381, 1084813, 1085212, 1085620, 1086011, 1086401, 1086797, 1087203, 1087606, 1087991, 1088390, 1088776, 1089175, 1089570, 1089980, 1090375, 1090744, 1091176, 1091582, 1091975, 1092382]","[1083114, 1083513, 1083913, 1084313, 1084713, 1085113, 1085513, 1085914, 1086265, 1086671, 1087065, 1087463, 1087854, 1088247, 1088632, 1089047, 1089447, 1089851, 1090242, 1090624, 1091047, 1091465, 1091866, 1092264]",29,R,ITM,1.1,
2,400,trial,0,52,52,52,trial,"['S', 'S', 'S', 'S', 'S', 'C', 'C', 'C', 'C', 'C', 'C', 'C', 'C', 'C', 'C', 'C', 'C', 'C', 'C', 'C', 'C']","[1098803, 1099202, 1099600, 1100005, 1100422, 1100801, 1101208, 1101609, 1101980, 1102385, 1102790, 1103180, 1103576, 1103977, 1104370, 1104781, 1105176, 1105584, 1105976, 1106397, 1106802]","[1098936, 1099330, 1099739, 1100147, 1100523, 1100943, 1101341, 1101754, 1102128, 1102527, 1102924, 1103310, 1103711, 1104118, 1104495, 1104919, 1105320, 1105736, 1106132, 1106538, 1106958]","[1097654, 1098053, 1098455, 1098854, 1099254, 1099655, 1100053, 1100454, 1100828, 1101235, 1101637, 1102008, 1102411, 1102818, 1103207, 1103602, 1104005, 1104397, 1104808, 1105203, 1105611, 1106003, 1106424, 1106829]",29,R,ITM,1.1,
4,400,trial,0,53,53,53,trial,"['S', 'S', 'S', 'S', 'S', 'S', 'C', 'C', 'C', 'C', 'C', 'C', 'C', 'C', 'C', 'C', 'C', 'C', 'C', 'C', 'C', 'C']","[1113242, 1113657, 1114057, 1114444, 1114849, 1115255, 1115648, 1116045, 1116442, 1116824, 1117211, 1117602, 1117982, 1118399, 1118795, 1119197, 1119632, 1120031, 1120425, 1120827, 1121249, 1121652]","[1113363, 1113784, 1114183, 1114566, 1114985, 1115382, 1115793, 1116179, 1116592, 1116975, 1117366, 1117748, 1118149, 1118554, 1118968, 1119370, 1119755, 1120185, 1120603, 1120987, 1121380, 1121789]","[1112477, 1112878, 1113277, 1113677, 1114077, 1114477, 1114877, 1115277, 1115673, 1116070, 1116468, 1116850, 1117238, 1117628, 1118008, 1118425, 1118821, 1119223, 1119657, 1120057, 1120451, 1120852, 1121275, 1121678]",29,R,ITM,1.1,
4,400,trial,0,54,54,54,trial,"['S', 'S', 'S', 'S', 'S', 'S', 'C', 'C', 'C', 'C', 'C', 'C', 'C', 'C', 'C', 'C', 'C', 'C', 'C', 'C', 'C', 'C']","[1142736, 1143131, 1143550, 1143967, 1144382, 1144782, 1145186, 1145580, 1145967, 1146379, 1146773, 1147186, 1147584, 1147980, 1148392, 1148792, 1149219, 1149630, 1150018, 1150405, 1150822, 1151227]","[1142860, 1143268, 1143684, 1144088, 1144499, 1144933, 1145329, 1145730, 1146134, 1146525, 1146939, 1147337, 1147726, 1148127, 1148528, 1148949, 1149341, 1149774, 1150162, 1150558, 1150966, 1151341]","[1142018, 1142416, 1142816, 1143217, 1143616, 1144016, 1144416, 1144816, 1145211, 1145606, 1145993, 1146404, 1146799, 1147211, 1147610, 1148007, 1148418, 1148818, 1149245, 1149656, 1150044, 1150432, 1150848, 1151253]",29,R,ITM,1.1,
6,600,trial,0,55,55,55,trial,"['S', 'S', 'S', 'S', 'S', 'S', 'C', 'C', 'C', 'C', 'C', 'C', 'C', 'C', 'C', 'C', 'C', 'C', 'C', 'C', 'C', 'C']","[1157983, 1158616, 1159251, 1159852, 1160437, 1161038, 1161623, 1162251, 1162824, 1163409, 1164020, 1164625, 1165202, 1165810, 1166387, 1166983, 1167569, 1168205, 1168775, 1169364, 1169970, 1170571]","[1158123, 1158749, 1159365, 1159960, 1160541, 1161150, 1161738, 1162359, 1162938, 1163530, 1164102, 1164742, 1165314, 1165938, 1166528, 1167125, 1167717, 1168330, 1168908, 1169507, 1170109, 1170711]","[1156852, 1157451, 1158051, 1158651, 1159251, 1159852, 1160452, 1161052, 1161650, 1162277, 1162851, 1163436, 1164047, 1164652, 1165230, 1165837, 1166414, 1167010, 1167597, 1168233, 1168801, 1169391, 1169997, 1170598]",29,R,ITM,1.1,
3,400,trial,0,56,56,56,trial,"['S', 'S', 'S', 'S', 'S', 'S', 'C', 'C', 'C', 'C', 'C', 'C', 'C', 'C', 'C', 'C', 'C', 'C', 'C', 'C', 'C', 'C']","[1176862, 1177282, 1177677, 1178098, 1178463, 1178875, 1179285, 1179670, 1180077, 1180465, 1180872, 1181256, 1181629, 1182047, 1182454, 1182866, 1183257, 1183650, 1184065, 1184512, 1184918, 1185317]","[1176970, 1177381, 1177810, 1178217, 1178602, 1178999, 1179410, 1179803, 1180194, 1180599, 1180991, 1181387, 1181764, 1182186, 1182603, 1182997, 1183394, 1183812, 1184191, 1184631, 1185027, 1185465]","[1176095, 1176495, 1176894, 1177294, 1177694, 1178094, 1178494, 1178894, 1179312, 1179696, 1180102, 1180490, 1180898, 1181282, 1181655, 1182072, 1182480, 1182892, 1183283, 1183676, 1184091, 1184537, 1184944, 1185343]",29,R,ITM,1.1,
7,400,trial,0,57,57,57,trial,"['S', 'S', 'S', 'S', 'S', 'S', 'C', 'C', 'C', 'C', 'C', 'C', 'C', 'C', 'C', 'C', 'C', 'C', 'C', 'C', 'C', 'C']","[1191447, 1191880, 1192280, 1192693, 1193101, 1193504, 1193892, 1194273, 1194675, 1195071, 1195457, 1195862, 1196261, 1196634, 1197046, 1197447, 1197847, 1198228, 1198626, 1199036, 1199456, 1199853]","[1191565, 1191986, 1192384, 1192805, 1193214, 1193617, 1194004, 1194400, 1194793, 1195200, 1195584, 1196006, 1196401, 1196783, 1197182, 1197591, 1197983, 1198368, 1198770, 1199186, 1199581, 1199991]","[1190731, 1191132, 1191531, 1191931, 1192331, 1192731, 1193132, 1193531, 1193920, 1194300, 1194701, 1195098, 1195484, 1195888, 1196289, 1196660, 1197073, 1197474, 1197874, 1198256, 1198653, 1199063, 1199482, 1199881]",29,R,ITM,1.1,
3,600,trial,0,58,58,58,trial,"['S', 'S', 'S', 'S', 'S', 'S', 'C', 'C', 'C', 'C', 'C', 'C', 'C', 'C', 'C', 'C', 'C', 'C', 'C', 'C', 'C', 'C']","[1206730, 1207391, 1207970, 1208614, 1209199, 1209794, 1210382, 1211003, 1211636, 1212254, 1212873, 1213523, 1214167, 1214808, 1215413, 1216028, 1216633, 1217269, 1217892, 1218526, 1219082, 1219681]","[1206865, 1207532, 1208107, 1208744, 1209341, 1209940, 1210509, 1211158, 1211764, 1212386, 1213004, 1213648, 1214289, 1214900, 1215550, 1216140, 1216755, 1217369, 1218028, 1218662, 1219255, 1219860]","[1205615, 1206214, 1206814, 1207414, 1208014, 1208614, 1209214, 1209815, 1210407, 1211029, 1211662, 1212279, 1212899, 1213549, 1214192, 1214833, 1215439, 1216054, 1216659, 1217295, 1217917, 1218551, 1219107, 1219706]",29,R,ITM,1.1,
7,400,trial,0,59,59,59,trial,"['S', 'S', 'S', 'S', 'S', 'C', 'C', 'C', 'C', 'C', 'C', 'C', 'C', 'C', 'C', 'C', 'C', 'C', 'C', 'C', 'C']","[1226266, 1226724, 1227137, 1227537, 1227900, 1228307, 1228701, 1229120, 1229521, 1229929, 1230325, 1230703, 1231118, 1231525, 1231909, 1232306, 1232688, 1233106, 1233518, 1233907, 1234295]","[1226393, 1226830, 1227234, 1227623, 1228001, 1228409, 1228822, 1229222, 1229638, 1230031, 1230426, 1230818, 1231210, 1231619, 1232027, 1232427, 1232824, 1233216, 1233631, 1234028, 1234419]","[1225138, 1225536, 1225936, 1226336, 1226736, 1227137, 1227536, 1227936, 1228334, 1228728, 1229147, 1229549, 1229956, 1230352, 1230731, 1231145, 1231553, 1231936, 1232332, 1232714, 1233133, 1233545, 1233935, 1234323]",29,R,ITM,1.1,
5,400,trial,0,60,60,60,trial,"['S', 'S', 'S', 'S', 'S', 'S', 'C', 'C', 'C', 'C', 'C', 'C', 'C', 'C', 'C', 'C', 'C', 'C', 'C', 'C', 'C', 'C']","[1240562, 1240962, 1241368, 1241761, 1242148, 1242548, 1242943, 1243352, 1243755, 1244174, 1244567, 1244966, 1245363, 1245744, 1246187, 1246573, 1246982, 1247346, 1247763, 1248141, 1248515, 1248924]","[1240668, 1241081, 1241493, 1241889, 1242291, 1242676, 1243080, 1243463, 1243905, 1244305, 1244698, 1245104, 1245488, 1245899, 1246302, 1246707, 1247085, 1247471, 1247886, 1248295, 1248675, 1249067]","[1239806, 1240205, 1240605, 1241006, 1241405, 1241805, 1242205, 1242605, 1242969, 1243377, 1243781, 1244199, 1244593, 1244992, 1245388, 1245769, 1246213, 1246599, 1247008, 1247372, 1247789, 1248167, 1248540, 1248950]",29,R,ITM,1.1,
2,600,trial,0,61,61,61,trial,"['S', 'S', 'S', 'S', 'S', 'S', 'C', 'C', 'C', 'C', 'C', 'C', 'C', 'C', 'C', 'C', 'C', 'C', 'C', 'C', 'C', 'C']","[1255667, 1256325, 1256863, 1257460, 1258080, 1258681, 1259259, 1259862, 1260449, 1261018, 1261636, 1262234, 1262817, 1263449, 1264046, 1264641, 1265252, 1265873, 1266506, 1267098, 1267642, 1268250]","[1255796, 1256422, 1256981, 1257566, 1258183, 1258792, 1259381, 1259950, 1260560, 1261131, 1261762, 1262372, 1262958, 1263567, 1264190, 1264758, 1265362, 1265966, 1266590, 1267192, 1267771, 1268385]","[1254510, 1255110, 1255710, 1256310, 1256910, 1257510, 1258110, 1258711, 1259287, 1259888, 1260477, 1261044, 1261664, 1262261, 1262844, 1263476, 1264072, 1264668, 1265280, 1265901, 1266534, 1267125, 1267668, 1268278]",29,R,ITM,1.1,
3,400,trial,0,62,62,62,trial,"['S', 'S', 'S', 'S', 'S', 'S', 'C', 'C', 'C', 'C', 'C', 'C', 'C', 'C', 'C', 'C', 'C', 'C', 'C', 'C', 'C', 'C']","[1274638, 1275026, 1275410, 1275830, 1276230, 1276616, 1277026, 1277433, 1277824, 1278229, 1278602, 1279010, 1279413, 1279824, 1280222, 1280619, 1281051, 1281455, 1281868, 1282274, 1282674, 1283083]","[1274727, 1275119, 1275511, 1275938, 1276335, 1276717, 1277142, 1277538, 1277932, 1278341, 1278714, 1279123, 1279523, 1279936, 1280346, 1280747, 1281160, 1281575, 1281983, 1282394, 1282804, 1283203]","[1273862, 1274260, 1274660, 1275060, 1275460, 1275860, 1276260, 1276660, 1277051, 1277459, 1277849, 1278255, 1278627, 1279036, 1279438, 1279850, 1280247, 1280645, 1281077, 1281480, 1281894, 1282299, 1282700, 1283108]",29,R,ITM,1.1,
7,600,trial,0,63,63,63,trial,"['S', 'S', 'S', 'S', 'S', 'S', 'C', 'C', 'C', 'C', 'C', 'C', 'C', 'C', 'C', 'C', 'C', 'C', 'C', 'C', 'C', 'C']","[1289971, 1290627, 1291213, 1291787, 1292392, 1293022, 1293636, 1294220, 1294816, 1295440, 1296020, 1296615, 1297238, 1297824, 1298405, 1298980, 1299551, 1300145, 1300788, 1301376, 1301959, 1302574]","[1290101, 1290758, 1291354, 1291952, 1292539, 1293174, 1293775, 1294364, 1294937, 1295556, 1296154, 1296749, 1297360, 1297981, 1298546, 1299107, 1299672, 1300255, 1300891, 1301497, 1302063, 1302668]","[1288856, 1289455, 1290055, 1290655, 1291255, 1291855, 1292455, 1293056, 1293663, 1294246, 1294842, 1295468, 1296048, 1296642, 1297265, 1297852, 1298433, 1299007, 1299577, 1300171, 1300814, 1301402, 1301986, 1302600]",29,R,ITM,1.1,
7,600,trial,0,64,64,64,trial,"['S', 'S', 'S', 'S', 'S', 'S', 'C', 'C', 'C', 'C', 'C', 'C', 'C', 'C', 'C', 'C', 'C', 'C', 'C', 'C', 'C', 'C']","[1309477, 1310087, 1310702, 1311284, 1311870, 1312476, 1313114, 1313739, 1314350, 1315035, 1315644, 1316256, 1316802, 1317359, 1317977, 1318553, 1319146, 1319729, 1320283, 1320887, 1321474, 1322086]","[1309602, 1310214, 1310848, 1311435, 1312029, 1312624, 1313255, 1313866, 1314480, 1315133, 1315763, 1316370, 1316942, 1317505, 1318119, 1318686, 1319308, 1319891, 1320428, 1320993, 1321623, 1322215]","[1308323, 1308922, 1309522, 1310123, 1310723, 1311323, 1311923, 1312523, 1313140, 1313766, 1314376, 1315062, 1315671, 1316284, 1316830, 1317387, 1318003, 1318581, 1319174, 1319756, 1320310, 1320913, 1321501, 1322114]",29,R,ITM,1.1,
2,400,trial,0,65,65,65,trial,"['S', 'S', 'S', 'S', 'S', 'S', 'C', 'C', 'C', 'C', 'C', 'C', 'C', 'C', 'C', 'C', 'C', 'C', 'C', 'C', 'C', 'C']","[1328656, 1329011, 1329383, 1329746, 1330145, 1330547, 1330961, 1331360, 1331762, 1332156, 1332568, 1332988, 1333383, 1333792, 1334197, 1334589, 1334992, 1335396, 1335791, 1336193, 1336591, 1336972]","[1328740, 1329100, 1329478, 1329865, 1330237, 1330673, 1331070, 1331489, 1331871, 1332265, 1332680, 1333092, 1333492, 1333911, 1334304, 1334704, 1335107, 1335518, 1335913, 1336293, 1336702, 1337079]","[1327783, 1328183, 1328582, 1328984, 1329383, 1329783, 1330184, 1330583, 1330989, 1331388, 1331788, 1332184, 1332595, 1333016, 1333410, 1333820, 1334223, 1334616, 1335020, 1335424, 1335819, 1336219, 1336617, 1336998]",29,R,ITM,1.1,
4,600,trial,0,66,66,66,trial,"['S', 'S', 'S', 'S', 'S', 'S', 'C', 'C', 'C', 'C', 'C', 'C', 'C', 'C', 'C', 'C', 'C', 'C', 'C', 'C', 'C', 'C']","[1343905, 1344528, 1345148, 1345747, 1346338, 1346945, 1347568, 1348179, 1348777, 1349369, 1349972, 1350577, 1351181, 1351796, 1352401, 1353008, 1353586, 1354207, 1354816, 1355459, 1356027, 1356611]","[1344029, 1344646, 1345260, 1345847, 1346467, 1347062, 1347683, 1348302, 1348887, 1349497, 1350092, 1350696, 1351324, 1351899, 1352542, 1353124, 1353706, 1354280, 1354936, 1355584, 1356170, 1356754]","[1342781, 1343380, 1343980, 1344580, 1345180, 1345780, 1346380, 1346980, 1347594, 1348206, 1348803, 1349395, 1349998, 1350602, 1351206, 1351822, 1352427, 1353033, 1353612, 1354232, 1354842, 1355485, 1356053, 1356637]",29,R,ITM,1.1,
4,400,trial,0,67,67,67,trial,"['S', 'S', 'S', 'S', 'S', 'S', 'C', 'C', 'C', 'C', 'C', 'C', 'C', 'C', 'C', 'C', 'C', 'C', 'C', 'C', 'C', 'C']","[1363082, 1363480, 1363870, 1364289, 1364712, 1365113, 1365494, 1365903, 1366300, 1366709, 1367086, 1367507, 1367913, 1368340, 1368781, 1369184, 1369583, 1369972, 1370390, 1370796, 1371196, 1371623]","[1363196, 1363595, 1363979, 1364385, 1364817, 1365226, 1365623, 1366024, 1366408, 1366824, 1367212, 1367627, 1368041, 1368485, 1368906, 1369305, 1369667, 1370064, 1370475, 1370883, 1371296, 1371712]","[1362308, 1362707, 1363107, 1363507, 1363907, 1364307, 1364707, 1365107, 1365521, 1365929, 1366326, 1366735, 1367111, 1367533, 1367939, 1368366, 1368807, 1369209, 1369609, 1369998, 1370416, 1370821, 1371222, 1371649]",29,R,ITM,1.1,
6,600,trial,0,68,68,68,trial,"['S', 'S', 'S', 'S', 'S', 'S', 'C', 'C', 'C', 'C', 'C', 'C', 'C', 'C', 'C', 'C', 'C', 'C', 'C', 'C', 'C', 'C']","[1378278, 1378877, 1379494, 1380098, 1380675, 1381283, 1381883, 1382525, 1383101, 1383682, 1384248, 1384854, 1385490, 1386065, 1386662, 1387244, 1387796, 1388390, 1388990, 1389609, 1390195, 1390828]","[1378402, 1379018, 1379625, 1380233, 1380830, 1381424, 1382028, 1382672, 1383244, 1383818, 1384403, 1385023, 1385631, 1386223, 1386816, 1387404, 1387956, 1388554, 1389153, 1389761, 1390365, 1390982]","[1377141, 1377740, 1378340, 1378940, 1379540, 1380141, 1380741, 1381341, 1381910, 1382552, 1383128, 1383708, 1384274, 1384881, 1385518, 1386092, 1386690, 1387271, 1387823, 1388417, 1389017, 1389636, 1390223, 1390856]",29,R,ITM,1.1,
2,600,trial,0,69,69,69,trial,"['S', 'S', 'S', 'S', 'S', 'S', 'C', 'C', 'C', 'C', 'C', 'C', 'C', 'C', 'C', 'C', 'C', 'C', 'C', 'C', 'C', 'C']","[1397744, 1398345, 1398933, 1399524, 1400091, 1400695, 1401311, 1401906, 1402503, 1403120, 1403717, 1404295, 1404901, 1405507, 1406090, 1406665, 1407258, 1407860, 1408454, 1409063, 1409649, 1410281]","[1397862, 1398473, 1399071, 1399648, 1400223, 1400836, 1401450, 1402030, 1402636, 1403226, 1403854, 1404434, 1405034, 1405658, 1406247, 1406836, 1407414, 1408010, 1408610, 1409213, 1409816, 1410425]","[1396583, 1397183, 1397783, 1398383, 1398983, 1399583, 1400182, 1400783, 1401337, 1401932, 1402530, 1403148, 1403745, 1404321, 1404929, 1405534, 1406116, 1406693, 1407285, 1407887, 1408481, 1409090, 1409676, 1410308]",29,R,ITM,1.1,
2,400,trial,0,70,70,70,trial,"['S', 'S', 'S', 'S', 'S', 'S', 'C', 'C', 'C', 'C', 'C', 'C', 'C', 'C', 'C', 'C', 'C', 'C', 'C', 'C', 'C', 'C']","[1416473, 1416862, 1417287, 1417686, 1418084, 1418461, 1418873, 1419281, 1419702, 1420102, 1420503, 1420910, 1421320, 1421739, 1422132, 1422543, 1422944, 1423364, 1423766, 1424156, 1424585, 1424987]","[1416588, 1416976, 1417432, 1417824, 1418223, 1418611, 1419010, 1419432, 1419852, 1420264, 1420664, 1421058, 1421472, 1421890, 1422311, 1422693, 1423119, 1423539, 1423930, 1424324, 1424751, 1425146]","[1415706, 1416107, 1416506, 1416906, 1417306, 1417706, 1418106, 1418506, 1418901, 1419309, 1419728, 1420129, 1420530, 1420938, 1421347, 1421766, 1422159, 1422570, 1422971, 1423391, 1423793, 1424184, 1424613, 1425014]",29,R,ITM,1.1,
5,600,trial,0,71,71,71,trial,"['S', 'S', 'S', 'S', 'S', 'S', 'C', 'C', 'C', 'C', 'C', 'C', 'C', 'C', 'C', 'C', 'C', 'C', 'C', 'C', 'C', 'C']","[1431859, 1432484, 1433060, 1433663, 1434280, 1434856, 1435456, 1436082, 1436695, 1437275, 1437902, 1438524, 1439140, 1439753, 1440351, 1440971, 1441550, 1442114, 1442731, 1443313, 1443909, 1444513]","[1432024, 1432630, 1433233, 1433825, 1434454, 1435026, 1435626, 1436266, 1436880, 1437446, 1438060, 1438711, 1439344, 1439944, 1440533, 1441123, 1441728, 1442287, 1442886, 1443430, 1444038, 1444621]","[1430707, 1431307, 1431907, 1432507, 1433107, 1433707, 1434307, 1434907, 1435482, 1436107, 1436722, 1437300, 1437928, 1438551, 1439167, 1439779, 1440377, 1440997, 1441576, 1442140, 1442756, 1443339, 1443935, 1444539]",29,R,ITM,1.1,
5,600,trial,0,72,72,72,trial,"['S', 'S', 'S', 'S', 'S', 'S', 'C', 'C', 'C', 'C', 'C', 'C', 'C', 'C', 'C', 'C', 'C', 'C', 'C', 'C', 'C', 'C']","[1450997, 1451611, 1452169, 1452785, 1453415, 1453990, 1454585, 1455166, 1455759, 1456353, 1456985, 1457646, 1458260, 1458871, 1459480, 1460059, 1460603, 1461244, 1461842, 1462432, 1463027, 1463593]","[1451123, 1451756, 1452327, 1452947, 1453528, 1454114, 1454724, 1455352, 1456007, 1456535, 1457205, 1457828, 1458444, 1459119, 1459703, 1460303, 1460905, 1461481, 1462028, 1462578, 1463233, 1463792]","[1449853, 1450452, 1451053, 1451653, 1452253, 1452853, 1453453, 1454053, 1454611, 1455193, 1455785, 1456378, 1457011, 1457672, 1458286, 1458897, 1459506, 1460084, 1460630, 1461270, 1461868, 1462458, 1463053, 1463619]",29,R,ITM,1.1,
3,600,trial,0,73,73,73,trial,"['S', 'S', 'S', 'S', 'S', 'S', 'C', 'C', 'C', 'C', 'C', 'C', 'C', 'C', 'C', 'C', 'C', 'C', 'C', 'C', 'C', 'C']","[1470286, 1470889, 1471468, 1472092, 1472700, 1473271, 1473901, 1474480, 1475125, 1475715, 1476286, 1476887, 1477493, 1478086, 1478684, 1479296, 1479870, 1480472, 1480999, 1481608, 1482242, 1482848]","[1470411, 1471013, 1471589, 1472226, 1472833, 1473391, 1474032, 1474619, 1475256, 1475850, 1476435, 1477084, 1477658, 1478301, 1478864, 1479468, 1480059, 1480677, 1481198, 1481804, 1482431, 1483046]","[1469130, 1469729, 1470329, 1470929, 1471529, 1472130, 1472730, 1473330, 1473927, 1474505, 1475150, 1475740, 1476312, 1476913, 1477519, 1478112, 1478710, 1479321, 1479896, 1480498, 1481025, 1481633, 1482267, 1482873]",29,R,ITM,1.1,
5,400,trial,0,74,74,74,trial,"['S', 'S', 'S', 'S', 'S', 'S', 'C', 'C', 'C', 'C', 'C', 'C', 'C', 'C', 'C', 'C', 'C', 'C', 'C', 'C', 'C', 'C']","[1489116, 1489479, 1489870, 1490250, 1490652, 1491088, 1491489, 1491877, 1492278, 1492731, 1493125, 1493550, 1493964, 1494395, 1494807, 1495185, 1495606, 1496007, 1496463, 1496846, 1497244, 1497638]","[1489217, 1489598, 1490004, 1490380, 1490776, 1491164, 1491581, 1491969, 1492386, 1492817, 1493235, 1493658, 1494070, 1494503, 1494929, 1495328, 1495751, 1496151, 1496581, 1497007, 1497410, 1497790]","[1488300, 1488698, 1489098, 1489499, 1489898, 1490298, 1490698, 1491098, 1491515, 1491903, 1492303, 1492758, 1493150, 1493576, 1493990, 1494421, 1494833, 1495211, 1495632, 1496034, 1496488, 1496871, 1497271, 1497664]",29,R,ITM,1.1,
6,400,trial,0,75,75,75,trial,"['S', 'S', 'S', 'S', 'S', 'C', 'C', 'C', 'C', 'C', 'C', 'C', 'C', 'C', 'C', 'C', 'C', 'C', 'C', 'C', 'C']","[1504419, 1504830, 1505255, 1505657, 1506060, 1506465, 1506837, 1507232, 1507628, 1507976, 1508367, 1508763, 1509124, 1509510, 1509920, 1510309, 1510679, 1511059, 1511444, 1511849, 1512250]","[1504506, 1504923, 1505326, 1505730, 1506141, 1506551, 1506930, 1507331, 1507714, 1508099, 1508489, 1508871, 1509258, 1509666, 1510073, 1510443, 1510828, 1511237, 1511619, 1512019, 1512399]","[1503324, 1503723, 1504123, 1504523, 1504923, 1505324, 1505723, 1506123, 1506492, 1506864, 1507259, 1507654, 1508002, 1508395, 1508791, 1509150, 1509536, 1509948, 1510336, 1510707, 1511086, 1511471, 1511875, 1512276]",29,R,ITM,1.1,
6,400,trial,0,76,76,76,trial,"['S', 'S', 'S', 'S', 'S', 'S', 'C', 'C', 'C', 'C', 'C', 'C', 'C', 'C', 'C', 'C', 'C', 'C', 'C', 'C', 'C', 'C']","[1518395, 1518795, 1519187, 1519572, 1519976, 1520390, 1520771, 1521174, 1521547, 1521933, 1522317, 1522706, 1523086, 1523479, 1523864, 1524253, 1524634, 1525030, 1525391, 1525788, 1526177, 1526561]","[1518522, 1518917, 1519298, 1519688, 1520106, 1520493, 1520883, 1521288, 1521683, 1522083, 1522467, 1522838, 1523249, 1523633, 1524008, 1524389, 1524783, 1525187, 1525551, 1525940, 1526333, 1526719]","[1517667, 1518066, 1518467, 1518866, 1519266, 1519667, 1520067, 1520467, 1520797, 1521201, 1521573, 1521959, 1522343, 1522733, 1523112, 1523506, 1523891, 1524281, 1524661, 1525058, 1525417, 1525815, 1526204, 1526588]",29,R,ITM,1.1,
4,600,trial,0,77,77,77,trial,"['S', 'S', 'S', 'S', 'S', 'S', 'C', 'C', 'C', 'C', 'C', 'C', 'C', 'C', 'C', 'C', 'C', 'C', 'C', 'C', 'C', 'C']","[1533483, 1534095, 1534694, 1535299, 1535864, 1536481, 1537098, 1537681, 1538290, 1538898, 1539486, 1540142, 1540757, 1541349, 1542035, 1542621, 1543196, 1543809, 1544368, 1544943, 1545493, 1546097]","[1533628, 1534237, 1534820, 1535416, 1535981, 1536625, 1537242, 1537855, 1538450, 1539041, 1539623, 1540244, 1540843, 1541498, 1542151, 1542752, 1543340, 1543951, 1544510, 1545069, 1545659, 1546261]","[1532341, 1532941, 1533541, 1534141, 1534741, 1535341, 1535941, 1536541, 1537124, 1537707, 1538316, 1538924, 1539512, 1540168, 1540783, 1541374, 1542062, 1542647, 1543223, 1543834, 1544393, 1544969, 1545519, 1546123]",29,R,ITM,1.1,
3,400,trial,0,78,78,78,trial,"['S', 'S', 'S', 'S', 'S', 'S', 'C', 'C', 'C', 'C', 'C', 'C', 'C', 'C', 'C', 'C', 'C', 'C', 'C', 'C', 'C', 'C']","[1552619, 1552990, 1553406, 1553804, 1554231, 1554616, 1555007, 1555385, 1555763, 1556164, 1556566, 1556958, 1557355, 1557765, 1558194, 1558590, 1558995, 1559383, 1559771, 1560174, 1560580, 1560980]","[1552732, 1553113, 1553545, 1553931, 1554342, 1554731, 1555120, 1555509, 1555897, 1556298, 1556697, 1557090, 1557497, 1557905, 1558318, 1558735, 1559146, 1559520, 1559925, 1560329, 1560714, 1561100]","[1551863, 1552263, 1552663, 1553063, 1553463, 1553863, 1554264, 1554663, 1555033, 1555410, 1555788, 1556190, 1556591, 1556983, 1557381, 1557790, 1558219, 1558616, 1559021, 1559408, 1559796, 1560200, 1560605, 1561006]",29,R,ITM,1.1,
5,400,trial,0,79,79,79,trial,"['S', 'S', 'S', 'S', 'S', 'S', 'C', 'C', 'C', 'C', 'C', 'C', 'C', 'C', 'C', 'C', 'C', 'C', 'C', 'C', 'C', 'C']","[1567313, 1567750, 1568145, 1568539, 1568953, 1569343, 1569742, 1570134, 1570540, 1570925, 1571310, 1571698, 1572106, 1572505, 1572876, 1573255, 1573636, 1574010, 1574423, 1574820, 1575232, 1575597]","[1567447, 1567859, 1568271, 1568690, 1569105, 1569502, 1569895, 1570288, 1570678, 1571065, 1571453, 1571864, 1572260, 1572643, 1573032, 1573400, 1573815, 1574167, 1574575, 1574993, 1575388, 1575758]","[1566612, 1567011, 1567411, 1567811, 1568211, 1568611, 1569011, 1569412, 1569769, 1570159, 1570566, 1570951, 1571337, 1571724, 1572131, 1572531, 1572901, 1573280, 1573661, 1574036, 1574449, 1574846, 1575258, 1575623]",29,R,ITM,1.1,
7,600,trial,0,80,80,80,trial,"['S', 'S', 'S', 'S', 'S', 'S', 'C', 'C', 'C', 'C', 'C', 'C', 'C', 'C', 'C', 'C', 'C', 'C', 'C', 'C', 'C', 'C']","[1582458, 1583079, 1583703, 1584262, 1584886, 1585503, 1586128, 1586723, 1587346, 1587992, 1588582, 1589158, 1589766, 1590346, 1590903, 1591513, 1592117, 1592715, 1593250, 1593796, 1594364, 1594928]","[1582606, 1583211, 1583832, 1584411, 1585030, 1585639, 1586238, 1586862, 1587479, 1588128, 1588712, 1589314, 1589903, 1590504, 1591059, 1591672, 1592258, 1592802, 1593374, 1593925, 1594559, 1595139]","[1581329, 1581928, 1582528, 1583128, 1583728, 1584328, 1584928, 1585528, 1586155, 1586751, 1587374, 1588020, 1588609, 1589185, 1589793, 1590373, 1590930, 1591540, 1592143, 1592741, 1593278, 1593823, 1594392, 1594955]",29,R,ITM,1.1,
7,400,trial,0,81,81,81,trial,"['S', 'S', 'S', 'S', 'S', 'S', 'S', 'C', 'C', 'C', 'C', 'C', 'C', 'C', 'C', 'C', 'C', 'C', 'C', 'C', 'C', 'C', 'C']","[1601111, 1601431, 1601787, 1602195, 1602594, 1602987, 1603368, 1603784, 1604177, 1604590, 1604978, 1605353, 1605738, 1606133, 1606540, 1606934, 1607344, 1607744, 1608148, 1608555, 1608949, 1609359, 1609763]","[1601200, 1601522, 1601925, 1602345, 1602742, 1603143, 1603533, 1603930, 1604353, 1604739, 1605117, 1605486, 1605898, 1606303, 1606688, 1607073, 1607507, 1607869, 1608278, 1608665, 1609089, 1609483, 1609900]","[1600628, 1601028, 1601427, 1601827, 1602227, 1602627, 1603027, 1603427, 1603811, 1604205, 1604617, 1605006, 1605380, 1605765, 1606161, 1606567, 1606961, 1607370, 1607771, 1608175, 1608582, 1608976, 1609385, 1609790]",29,R,ITM,1.1,
2,600,trial,0,82,82,82,trial,"['S', 'S', 'S', 'S', 'S', 'S', 'C', 'C', 'C', 'C', 'C', 'C', 'C', 'C', 'C', 'C', 'C', 'C', 'C', 'C', 'C', 'C']","[1616485, 1617129, 1617695, 1618295, 1618935, 1619554, 1620115, 1620745, 1621334, 1621951, 1622607, 1623150, 1623691, 1624281, 1624876, 1625510, 1626138, 1626727, 1627338, 1627931, 1628459, 1629034]","[1616622, 1617262, 1617827, 1618439, 1619092, 1619703, 1620289, 1620901, 1621526, 1622130, 1622807, 1623301, 1623872, 1624497, 1625081, 1625701, 1626290, 1626851, 1627513, 1628078, 1628570, 1629152]","[1615369, 1615969, 1616568, 1617169, 1617768, 1618369, 1618969, 1619569, 1620143, 1620772, 1621360, 1621978, 1622635, 1623178, 1623718, 1624307, 1624903, 1625538, 1626166, 1626755, 1627365, 1627958, 1628485, 1629061]",29,R,ITM,1.1,
2,400,trial,0,83,83,83,trial,"['S', 'S', 'S', 'S', 'S', 'S', 'C', 'C', 'C', 'C', 'C', 'C', 'C', 'C', 'C', 'C', 'C', 'C', 'C', 'C', 'C', 'C']","[1635526, 1635921, 1636323, 1636734, 1637125, 1637514, 1637947, 1638337, 1638732, 1639109, 1639493, 1639882, 1640280, 1640675, 1641062, 1641459, 1641863, 1642262, 1642665, 1643067, 1643472, 1643865]","[1635648, 1636038, 1636468, 1636870, 1637268, 1637663, 1638080, 1638473, 1638854, 1639261, 1639658, 1640059, 1640443, 1640833, 1641224, 1641636, 1642030, 1642422, 1642830, 1643233, 1643625, 1644005]","[1634781, 1635180, 1635580, 1635980, 1636380, 1636780, 1637180, 1637580, 1637975, 1638365, 1638760, 1639137, 1639521, 1639910, 1640307, 1640702, 1641090, 1641486, 1641889, 1642290, 1642693, 1643094, 1643499, 1643891]",29,R,ITM,1.1,
4,400,trial,0,84,84,84,trial,"['S', 'S', 'S', 'S', 'S', 'S', 'C', 'C', 'C', 'C', 'C', 'C', 'C', 'C', 'C', 'C', 'C', 'C', 'C', 'C', 'C', 'C']","[1650326, 1650746, 1651146, 1651556, 1651953, 1652340, 1652730, 1653125, 1653540, 1653936, 1654320, 1654716, 1655138, 1655534, 1655953, 1656340, 1656761, 1657211, 1657596, 1657988, 1658376, 1658806]","[1650437, 1650864, 1651295, 1651702, 1652090, 1652481, 1652882, 1653277, 1653697, 1654089, 1654482, 1654899, 1655300, 1655727, 1656128, 1656535, 1656872, 1657349, 1657772, 1658183, 1658521, 1658960]","[1649589, 1649989, 1650390, 1650789, 1651189, 1651590, 1651989, 1652389, 1652756, 1653150, 1653566, 1653961, 1654345, 1654742, 1655163, 1655560, 1655979, 1656366, 1656786, 1657237, 1657622, 1658013, 1658401, 1658831]",29,R,ITM,1.1,
4,400,trial,0,85,85,85,trial,"['S', 'S', 'S', 'S', 'C', 'C', 'C', 'C', 'C', 'C', 'C', 'C', 'C', 'C', 'C', 'C', 'C', 'C', 'C', 'C']","[1665934, 1666335, 1666751, 1667158, 1667592, 1668001, 1668370, 1668760, 1669150, 1669532, 1669957, 1670346, 1670738, 1671138, 1671534, 1671950, 1672339, 1672743, 1673136, 1673527]","[1666034, 1666451, 1666864, 1667294, 1667714, 1668145, 1668490, 1668882, 1669266, 1669663, 1670081, 1670474, 1670860, 1671248, 1671668, 1672065, 1672462, 1672855, 1673238, 1673632]","[1664392, 1664791, 1665191, 1665591, 1665991, 1666392, 1666791, 1667191, 1667617, 1668027, 1668396, 1668786, 1669176, 1669558, 1669983, 1670372, 1670764, 1671163, 1671560, 1671975, 1672365, 1672769, 1673161, 1673553]",29,R,ITM,1.1,
6,600,trial,0,86,86,86,trial,"['S', 'S', 'S', 'S', 'S', 'S', 'C', 'C', 'C', 'C', 'C', 'C', 'C', 'C', 'C', 'C', 'C', 'C', 'C', 'C', 'C', 'C']","[1680222, 1680855, 1681470, 1682043, 1682660, 1683271, 1683863, 1684464, 1685061, 1685670, 1686292, 1686889, 1687492, 1688114, 1688650, 1689279, 1689823, 1690399, 1691008, 1691615, 1692162, 1692755]","[1680366, 1681007, 1681616, 1682212, 1682811, 1683431, 1684026, 1684634, 1685228, 1685830, 1686413, 1687031, 1687677, 1688264, 1688834, 1689413, 1689985, 1690575, 1691189, 1691772, 1692300, 1692886]","[1679087, 1679686, 1680286, 1680886, 1681486, 1682086, 1682686, 1683287, 1683891, 1684491, 1685088, 1685698, 1686319, 1686917, 1687519, 1688140, 1688678, 1689306, 1689850, 1690426, 1691034, 1691641, 1692188, 1692783]",29,R,ITM,1.1,
5,600,trial,0,87,87,87,trial,"['S', 'S', 'S', 'S', 'S', 'S', 'C', 'C', 'C', 'C', 'C', 'C', 'C', 'C', 'C', 'C', 'C', 'C', 'C', 'C', 'C', 'C']","[1699351, 1699974, 1700566, 1701151, 1701761, 1702385, 1702984, 1703576, 1704152, 1704743, 1705317, 1705943, 1706535, 1707131, 1707685, 1708312, 1708868, 1709515, 1710094, 1710701, 1711263, 1711893]","[1699477, 1700107, 1700717, 1701291, 1701897, 1702547, 1703142, 1703740, 1704306, 1704900, 1705466, 1706065, 1706679, 1707236, 1707830, 1708463, 1709047, 1709661, 1710229, 1710848, 1711411, 1712073]","[1698227, 1698826, 1699426, 1700026, 1700626, 1701226, 1701826, 1702426, 1703011, 1703602, 1704177, 1704769, 1705344, 1705968, 1706561, 1707157, 1707711, 1708338, 1708894, 1709541, 1710119, 1710727, 1711289, 1711919]",29,R,ITM,1.1,
5,600,trial,0,88,88,88,trial,"['S', 'S', 'S', 'S', 'S', 'S', 'C', 'C', 'C', 'C', 'C', 'C', 'C', 'C', 'C', 'C', 'C', 'C', 'C', 'C', 'C', 'C']","[1718609, 1719192, 1719812, 1720413, 1720990, 1721632, 1722196, 1722819, 1723407, 1724056, 1724695, 1725344, 1725929, 1726528, 1727137, 1727723, 1728380, 1728966, 1729520, 1730080, 1730699, 1731321]","[1718734, 1719345, 1719991, 1720570, 1721158, 1721771, 1722354, 1722989, 1723603, 1724229, 1724959, 1725575, 1726093, 1726663, 1727324, 1727863, 1728547, 1729144, 1729760, 1730323, 1730899, 1731515]","[1717457, 1718057, 1718658, 1719258, 1719858, 1720458, 1721058, 1721658, 1722222, 1722845, 1723433, 1724082, 1724722, 1725370, 1725955, 1726555, 1727163, 1727749, 1728406, 1728992, 1729546, 1730106, 1730724, 1731348]",29,R,ITM,1.1,
2,600,trial,0,89,89,89,trial,"['S', 'S', 'S', 'S', 'S', 'S', 'C', 'C', 'C', 'C', 'C', 'C', 'C', 'C', 'C', 'C', 'C', 'C', 'C', 'C', 'C', 'C']","[1738057, 1738673, 1739217, 1739841, 1740453, 1741084, 1741722, 1742303, 1742876, 1743472, 1744114, 1744727, 1745420, 1745969, 1746529, 1747138, 1747739, 1748422, 1748965, 1749571, 1750215, 1750806]","[1738193, 1738815, 1739355, 1739975, 1740577, 1741201, 1741813, 1742437, 1743055, 1743673, 1744297, 1744887, 1745645, 1746177, 1746681, 1747279, 1747943, 1748592, 1749128, 1749711, 1750394, 1750960]","[1736884, 1737483, 1738084, 1738684, 1739283, 1739884, 1740484, 1741084, 1741750, 1742329, 1742904, 1743500, 1744141, 1744754, 1745446, 1745995, 1746555, 1747166, 1747767, 1748450, 1748993, 1749599, 1750243, 1750834]",29,R,ITM,1.1,
3,400,trial,0,90,90,90,trial,"['S', 'S', 'S', 'S', 'S', 'S', 'C', 'C', 'C', 'C', 'C', 'C', 'C', 'C', 'C', 'C', 'C', 'C', 'C', 'C', 'C', 'C']","[1757010, 1757373, 1757762, 1758150, 1758545, 1758951, 1759361, 1759757, 1760147, 1760542, 1760932, 1761312, 1761734, 1762130, 1762521, 1762915, 1763344, 1763724, 1764110, 1764516, 1764915, 1765300]","[1757092, 1757456, 1757842, 1758246, 1758649, 1759049, 1759465, 1759870, 1760267, 1760660, 1761034, 1761417, 1761821, 1762249, 1762640, 1763036, 1763446, 1763857, 1764250, 1764644, 1765039, 1765432]","[1756222, 1756622, 1757022, 1757422, 1757822, 1758222, 1758622, 1759023, 1759386, 1759783, 1760173, 1760568, 1760958, 1761338, 1761760, 1762156, 1762546, 1762940, 1763369, 1763749, 1764135, 1764542, 1764940, 1765325]",29,R,ITM,1.1,
5,400,trial,0,91,91,91,trial,"['S', 'S', 'S', 'S', 'S', 'S', 'C', 'C', 'C', 'C', 'C', 'C', 'C', 'C', 'C', 'C', 'C', 'C', 'C', 'C', 'C', 'C']","[1771825, 1772256, 1772645, 1773076, 1773449, 1773839, 1774260, 1774665, 1775030, 1775434, 1775846, 1776266, 1776669, 1777059, 1777461, 1777883, 1778243, 1778671, 1779048, 1779465, 1779850, 1780241]","[1771959, 1772381, 1772801, 1773210, 1773588, 1773998, 1774407, 1774780, 1775214, 1775593, 1775996, 1776415, 1776838, 1777200, 1777616, 1778026, 1778413, 1778879, 1779275, 1779668, 1780017, 1780386]","[1771101, 1771499, 1771899, 1772299, 1772699, 1773100, 1773499, 1773899, 1774285, 1774692, 1775055, 1775460, 1775872, 1776291, 1776695, 1777085, 1777486, 1777908, 1778270, 1778697, 1779074, 1779490, 1779875, 1780267]",29,R,ITM,1.1,
6,600,trial,0,92,92,92,trial,"['S', 'S', 'S', 'S', 'S', 'S', 'C', 'C', 'C', 'C', 'C', 'C', 'C', 'C', 'C', 'C', 'C', 'C', 'C', 'C', 'C', 'C']","[1787069, 1787692, 1788253, 1788862, 1789458, 1790056, 1790696, 1791314, 1791945, 1792536, 1793188, 1793748, 1794314, 1794900, 1795509, 1796056, 1796617, 1797192, 1797815, 1798382, 1799012, 1799586]","[1787193, 1787832, 1788406, 1789015, 1789621, 1790220, 1790791, 1791447, 1792098, 1792797, 1793349, 1793868, 1794470, 1795022, 1795624, 1796219, 1796804, 1797373, 1797991, 1798548, 1799187, 1799778]","[1785892, 1786491, 1787091, 1787692, 1788292, 1788892, 1789491, 1790091, 1790724, 1791341, 1791973, 1792564, 1793215, 1793774, 1794340, 1794928, 1795536, 1796082, 1796644, 1797219, 1797841, 1798410, 1799040, 1799613]",29,R,ITM,1.1,
3,600,trial,0,93,93,93,trial,"['S', 'S', 'S', 'S', 'S', 'S', 'C', 'C', 'C', 'C', 'C', 'C', 'C', 'C', 'C', 'C', 'C', 'C', 'C', 'C', 'C', 'C']","[1806228, 1806821, 1807426, 1808077, 1808699, 1809212, 1809787, 1810353, 1810950, 1812489, 1813003, 1813491, 1814000, 1814568, 1815128, 1815656, 1816195, 1816751, 1817319, 1817854, 1818427, 1818977]","[1806359, 1806983, 1807572, 1808209, 1808856, 1809481, 1809910, 1810528, 1811715, 1812609, 1813145, 1813634, 1814149, 1814707, 1815265, 1815787, 1816335, 1816862, 1817430, 1817975, 1818547, 1819108]","[1805091, 1805690, 1806290, 1806891, 1807491, 1808091, 1808690, 1809290, 1809813, 1810378, 1810975, 1812514, 1813028, 1813517, 1814026, 1814594, 1815153, 1815682, 1816220, 1816776, 1817345, 1817880, 1818452, 1819002]",29,R,ITM,1.1,
2,400,trial,0,94,94,94,trial,"['S', 'S', 'S', 'S', 'S', 'S', 'C', 'C', 'C', 'C', 'C', 'C', 'C', 'C', 'C', 'C', 'C', 'C', 'C', 'C', 'C', 'C']","[1825233, 1825631, 1826013, 1826414, 1826840, 1827214, 1827617, 1828004, 1828404, 1828801, 1829197, 1829594, 1829995, 1830396, 1830785, 1831173, 1831562, 1831936, 1832338, 1832741, 1833122, 1833501]","[1825315, 1825733, 1826130, 1826531, 1826964, 1827366, 1827757, 1828155, 1828552, 1828953, 1829353, 1829740, 1830152, 1830552, 1830937, 1831324, 1831707, 1832094, 1832497, 1832890, 1833260, 1833646]","[1824471, 1824869, 1825270, 1825671, 1826070, 1826470, 1826870, 1827270, 1827644, 1828031, 1828430, 1828829, 1829225, 1829620, 1830023, 1830423, 1830812, 1831200, 1831589, 1831962, 1832366, 1832768, 1833150, 1833528]",29,R,ITM,1.1,
7,600,trial,0,95,95,95,trial,"['S', 'S', 'S', 'S', 'S', 'S', 'C', 'C', 'C', 'C', 'C', 'C', 'C', 'C', 'C', 'C', 'C', 'C', 'C', 'C', 'C', 'C']","[1840094, 1840771, 1841349, 1841959, 1842577, 1843130, 1843722, 1844314, 1844901, 1845471, 1846049, 1846654, 1847216, 1847834, 1848410, 1849001, 1849574, 1850165, 1850732, 1851351, 1851896, 1852471]","[1840225, 1840905, 1841505, 1842102, 1842705, 1843265, 1843854, 1844427, 1845022, 1845611, 1846190, 1846772, 1847362, 1847955, 1848551, 1849135, 1849699, 1850289, 1850871, 1851476, 1852044, 1852615]","[1838970, 1839570, 1840171, 1840771, 1841371, 1841971, 1842571, 1843171, 1843748, 1844341, 1844928, 1845497, 1846076, 1846681, 1847242, 1847861, 1848436, 1849029, 1849602, 1850192, 1850759, 1851378, 1851923, 1852498]",29,R,ITM,1.1,
6,400,trial,0,96,96,96,trial,"['S', 'S', 'S', 'S', 'S', 'S', 'S', 'C', 'C', 'C', 'C', 'C', 'C', 'C', 'C', 'C', 'C', 'C', 'C', 'C', 'C', 'C', 'C']","[1858725, 1859080, 1859445, 1859837, 1860256, 1860627, 1861027, 1861420, 1861838, 1862226, 1862615, 1863004, 1863429, 1863826, 1864225, 1864604, 1865019, 1865438, 1865834, 1866218, 1866606, 1867008, 1867395]","[1858861, 1859192, 1859602, 1859991, 1860393, 1860776, 1861177, 1861560, 1861983, 1862368, 1862754, 1863140, 1863543, 1863952, 1864340, 1864720, 1865121, 1865538, 1865978, 1866346, 1866727, 1867148, 1867554]","[1858237, 1858636, 1859037, 1859436, 1859836, 1860236, 1860636, 1861037, 1861446, 1861866, 1862254, 1862641, 1863030, 1863455, 1863853, 1864252, 1864631, 1865047, 1865464, 1865861, 1866246, 1866633, 1867034, 1867421]",29,R,ITM,1.1,
3,600,trial,0,97,97,97,trial,"['S', 'S', 'S', 'S', 'S', 'S', 'S', 'C', 'C', 'C', 'C', 'C', 'C', 'C', 'C', 'C', 'C', 'C', 'C', 'C', 'C', 'C', 'C']","[1873360, 1874112, 1874749, 1875379, 1876009, 1876594, 1877193, 1877819, 1878419, 1878959, 1879576, 1880179, 1880777, 1881341, 1881892, 1882415, 1883005, 1883594, 1884199, 1884759, 1885350, 1885906, 1886538]","[1873473, 1874253, 1874891, 1875524, 1876139, 1876747, 1877359, 1877979, 1878563, 1879105, 1879711, 1880294, 1880885, 1881442, 1881989, 1882525, 1883130, 1883719, 1884307, 1884883, 1885501, 1886031, 1886681]","[1873044, 1873644, 1874244, 1874844, 1875444, 1876044, 1876644, 1877244, 1877844, 1878445, 1878984, 1879602, 1880205, 1880803, 1881367, 1881918, 1882440, 1883031, 1883620, 1884225, 1884784, 1885376, 1885932, 1886564]",29,R,ITM,1.1,
4,600,trial,0,98,98,98,trial,"['S', 'S', 'S', 'S', 'S', 'S', 'C', 'C', 'C', 'C', 'C', 'C', 'C', 'C', 'C', 'C', 'C', 'C', 'C', 'C', 'C', 'C']","[1893052, 1893633, 1894212, 1894793, 1895407, 1896013, 1896599, 1897165, 1897761, 1898305, 1898859, 1899444, 1900037, 1900604, 1901178, 1901747, 1902337, 1902904, 1903471, 1904025, 1904654, 1905245]","[1893182, 1893761, 1894343, 1894939, 1895535, 1896137, 1896743, 1897337, 1897912, 1898473, 1899035, 1899636, 1900195, 1900788, 1901369, 1901916, 1902475, 1903048, 1903632, 1904188, 1904813, 1905402]","[1891883, 1892483, 1893083, 1893682, 1894282, 1894882, 1895482, 1896082, 1896625, 1897191, 1897787, 1898331, 1898886, 1899469, 1900062, 1900630, 1901204, 1901772, 1902362, 1902929, 1903497, 1904051, 1904679, 1905270]",29,R,ITM,1.1,
6,400,trial,0,99,99,99,trial,"['S', 'S', 'S', 'S', 'S', 'S', 'C', 'C', 'C', 'C', 'C', 'C', 'C', 'C', 'C', 'C', 'C', 'C', 'C', 'C', 'C', 'C']","[1911420, 1911844, 1912248, 1912635, 1913033, 1913456, 1913862, 1914263, 1914687, 1915112, 1915538, 1915937, 1916339, 1916726, 1917116, 1917526, 1917906, 1918300, 1918712, 1919106, 1919505, 1919911]","[1911524, 1911954, 1912386, 1912782, 1913175, 1913590, 1913988, 1914397, 1914812, 1915236, 1915652, 1916061, 1916467, 1916853, 1917265, 1917660, 1918050, 1918436, 1918841, 1919249, 1919650, 1920038]","[1910703, 1911102, 1911502, 1911902, 1912302, 1912702, 1913102, 1913502, 1913889, 1914290, 1914714, 1915140, 1915565, 1915965, 1916365, 1916752, 1917143, 1917552, 1917933, 1918327, 1918739, 1919132, 1919532, 1919938]",29,R,ITM,1.1,
7,400,trial,0,100,100,100,trial,"['S', 'S', 'S', 'S', 'S', 'S', 'C', 'C', 'C', 'C', 'C', 'C', 'C', 'C', 'C', 'C', 'C', 'C', 'C', 'C', 'C', 'C']","[1926277, 1926684, 1927083, 1927476, 1927901, 1928307, 1928692, 1929088, 1929464, 1929866, 1930261, 1930646, 1931061, 1931463, 1931865, 1932267, 1932661, 1933043, 1933444, 1933841, 1934242, 1934650]","[1926389, 1926801, 1927215, 1927619, 1928036, 1928444, 1928846, 1929229, 1929620, 1930030, 1930413, 1930790, 1931200, 1931610, 1932000, 1932388, 1932801, 1933176, 1933591, 1934014, 1934410, 1934791]","[1925545, 1925944, 1926344, 1926745, 1927144, 1927544, 1927944, 1928344, 1928720, 1929115, 1929491, 1929892, 1930289, 1930673, 1931087, 1931491, 1931892, 1932295, 1932688, 1933070, 1933470, 1933869, 1934270, 1934676]",29,R,ITM,1.1,
4,600,trial,0,101,101,101,trial,"['S', 'S', 'S', 'S', 'S', 'S', 'C', 'C', 'C', 'C', 'C', 'C', 'C', 'C', 'C', 'C', 'C', 'C', 'C', 'C', 'C', 'C']","[1941229, 1941895, 1942447, 1943071, 1943652, 1944217, 1944856, 1945463, 1946050, 1946619, 1947218, 1947843, 1948370, 1948997, 1949611, 1950206, 1950813, 1951398, 1952015, 1952593, 1953206, 1953847]","[1941370, 1942038, 1942604, 1943189, 1943775, 1944359, 1944957, 1945607, 1946181, 1946772, 1947373, 1947972, 1948549, 1949178, 1949794, 1950367, 1950964, 1951548, 1952138, 1952746, 1953333, 1953965]","[1940096, 1940696, 1941296, 1941895, 1942495, 1943095, 1943695, 1944295, 1944882, 1945490, 1946076, 1946646, 1947244, 1947869, 1948396, 1949023, 1949636, 1950231, 1950838, 1951425, 1952040, 1952620, 1953231, 1953872]",29,R,ITM,1.1,
5,600,trial,0,102,102,102,trial,"['S', 'S', 'S', 'S', 'S', 'S', 'C', 'C', 'C', 'C', 'C', 'C', 'C', 'C', 'C', 'C', 'C', 'C', 'C', 'C', 'C', 'C']","[1960530, 1961058, 1961620, 1962200, 1962815, 1963474, 1964108, 1964706, 1965318, 1965878, 1966459, 1967079, 1967670, 1968284, 1968847, 1969453, 1970048, 1970654, 1971249, 1971880, 1972456, 1973013]","[1960640, 1961171, 1961729, 1962306, 1962929, 1963558, 1964194, 1964784, 1965420, 1965981, 1966568, 1967173, 1967780, 1968390, 1968979, 1969567, 1970156, 1970762, 1971361, 1971974, 1972566, 1973157]","[1959327, 1959926, 1960526, 1961126, 1961726, 1962327, 1962927, 1963527, 1964134, 1964732, 1965344, 1965903, 1966486, 1967105, 1967696, 1968310, 1968873, 1969478, 1970073, 1970679, 1971274, 1971906, 1972482, 1973040]",29,R,ITM,1.1,
6,600,trial,0,103,103,103,trial,"['S', 'S', 'S', 'S', 'S', 'S', 'C', 'C', 'C', 'C', 'C', 'C', 'C', 'C', 'C', 'C', 'C', 'C', 'C', 'C', 'C', 'C']","[1979573, 1980185, 1980759, 1981388, 1981986, 1982557, 1983139, 1983698, 1984307, 1984919, 1985490, 1986072, 1986677, 1987233, 1987828, 1988463, 1989025, 1989624, 1990204, 1990737, 1991321, 1991925]","[1979699, 1980297, 1980902, 1981513, 1982137, 1982709, 1983291, 1983882, 1984478, 1985054, 1985644, 1986233, 1986829, 1987394, 1987997, 1988595, 1989190, 1989816, 1990380, 1990902, 1991491, 1992074]","[1978449, 1979048, 1979649, 1980249, 1980849, 1981448, 1982048, 1982648, 1983166, 1983725, 1984333, 1984946, 1985517, 1986099, 1986704, 1987260, 1987856, 1988490, 1989052, 1989652, 1990232, 1990764, 1991348, 1991952]",29,R,ITM,1.1,
4,400,trial,0,104,104,104,trial,"['S', 'S', 'S', 'S', 'S', 'S', 'C', 'C', 'C', 'C', 'C', 'C', 'C', 'C', 'C', 'C', 'C', 'C', 'C', 'C', 'C', 'C']","[1998085, 1998481, 1998876, 1999255, 1999647, 2000053, 2000464, 2000868, 2001275, 2001674, 2002045, 2002427, 2002817, 2003208, 2003598, 2004008, 2004416, 2004836, 2005255, 2005667, 2006043, 2006446]","[1998195, 1998613, 1999016, 1999398, 1999810, 2000210, 2000616, 2001017, 2001423, 2001824, 2002201, 2002598, 2002963, 2003358, 2003755, 2004157, 2004548, 2004975, 2005402, 2005776, 2006176, 2006573]","[1997351, 1997750, 1998150, 1998551, 1998950, 1999350, 1999751, 2000151, 2000491, 2000893, 2001301, 2001699, 2002071, 2002453, 2002842, 2003233, 2003623, 2004034, 2004442, 2004861, 2005280, 2005694, 2006069, 2006472]",29,R,ITM,1.1,
2,600,trial,0,105,105,105,trial,"['S', 'S', 'S', 'S', 'S', 'S', 'C', 'C', 'C', 'C', 'C', 'C', 'C', 'C', 'C', 'C', 'C', 'C', 'C', 'C', 'C', 'C']","[2013144, 2013760, 2014382, 2014972, 2015578, 2016229, 2016813, 2017424, 2018033, 2018654, 2019255, 2019804, 2020377, 2020970, 2021588, 2022219, 2022770, 2023396, 2024028, 2024665, 2025238, 2025836]","[2013274, 2013896, 2014519, 2015112, 2015724, 2016335, 2016924, 2017520, 2018150, 2018775, 2019361, 2019927, 2020502, 2021085, 2021731, 2022366, 2022907, 2023510, 2024130, 2024773, 2025377, 2025986]","[2012029, 2012628, 2013230, 2013829, 2014430, 2015029, 2015628, 2016228, 2016839, 2017452, 2018060, 2018681, 2019281, 2019831, 2020405, 2020998, 2021616, 2022246, 2022798, 2023424, 2024055, 2024691, 2025265, 2025864]",29,R,ITM,1.1,
6,400,trial,0,106,106,106,trial,"['S', 'S', 'S', 'S', 'S', 'C', 'C', 'C', 'C', 'C', 'C', 'C', 'C', 'C', 'C', 'C', 'C', 'C', 'C', 'C', 'C']","[2032436, 2032823, 2033240, 2033645, 2034065, 2034450, 2034847, 2035256, 2035683, 2036107, 2036514, 2036897, 2037317, 2037708, 2038125, 2038519, 2038916, 2039321, 2039716, 2040111, 2040508]","[2032537, 2032918, 2033341, 2033764, 2034165, 2034563, 2034960, 2035373, 2035792, 2036202, 2036606, 2036995, 2037415, 2037821, 2038254, 2038621, 2039038, 2039436, 2039833, 2040243, 2040613]","[2031266, 2031666, 2032065, 2032465, 2032865, 2033265, 2033666, 2034065, 2034477, 2034875, 2035282, 2035709, 2036133, 2036541, 2036924, 2037345, 2037735, 2038153, 2038546, 2038943, 2039348, 2039744, 2040137, 2040535]",29,R,ITM,1.1,
3,600,trial,0,107,107,107,trial,"['S', 'S', 'S', 'S', 'S', 'S', 'C', 'C', 'C', 'C', 'C', 'C', 'C', 'C', 'C', 'C', 'C', 'C', 'C', 'C', 'C', 'C']","[2047443, 2048078, 2048647, 2049232, 2049860, 2050442, 2051056, 2051635, 2052218, 2052831, 2053414, 2054002, 2054629, 2055237, 2055861, 2056445, 2057020, 2057595, 2058190, 2058786, 2059398, 2059987]","[2047569, 2048185, 2048757, 2049330, 2049982, 2050560, 2051169, 2051772, 2052366, 2052964, 2053542, 2054152, 2054778, 2055355, 2055999, 2056570, 2057154, 2057777, 2058356, 2058934, 2059541, 2060151]","[2046307, 2046906, 2047506, 2048106, 2048706, 2049306, 2049906, 2050506, 2051082, 2051660, 2052244, 2052856, 2053440, 2054028, 2054654, 2055263, 2055887, 2056471, 2057046, 2057621, 2058216, 2058812, 2059423, 2060013]",29,R,ITM,1.1,
6,400,trial,0,108,108,108,trial,"['S', 'S', 'S', 'C', 'C', 'C', 'C', 'C', 'C', 'C', 'C', 'C', 'C', 'C', 'C', 'C', 'C', 'C', 'C']","[2067589, 2067991, 2068410, 2068788, 2069161, 2069563, 2069962, 2070360, 2070746, 2071144, 2071520, 2071922, 2072316, 2072702, 2073105, 2073499, 2073888, 2074266, 2074645]","[2067695, 2068086, 2068517, 2068886, 2069255, 2069653, 2070054, 2070438, 2070827, 2071230, 2071605, 2072010, 2072432, 2072819, 2073237, 2073610, 2073998, 2074378, 2074774]","[2065623, 2066021, 2066421, 2066822, 2067221, 2067621, 2068021, 2068421, 2068815, 2069188, 2069590, 2069989, 2070387, 2070772, 2071171, 2071546, 2071949, 2072343, 2072730, 2073132, 2073526, 2073916, 2074293, 2074672]",29,R,ITM,1.1,
3,400,trial,0,109,109,109,trial,"['S', 'S', 'S', 'S', 'S', 'S', 'C', 'C', 'C', 'C', 'C', 'C', 'C', 'C', 'C', 'C', 'C', 'C', 'C', 'C', 'C', 'C']","[2081197, 2081612, 2082018, 2082386, 2082790, 2083215, 2083597, 2083979, 2084382, 2084801, 2085169, 2085571, 2085975, 2086356, 2086742, 2087144, 2087544, 2087944, 2088349, 2088735, 2089112, 2089526]","[2081308, 2081725, 2082123, 2082493, 2082903, 2083297, 2083696, 2084076, 2084481, 2084914, 2085300, 2085687, 2086082, 2086460, 2086833, 2087252, 2087658, 2088053, 2088462, 2088850, 2089243, 2089657]","[2080441, 2080841, 2081242, 2081641, 2082041, 2082441, 2082841, 2083241, 2083622, 2084004, 2084408, 2084827, 2085194, 2085597, 2086000, 2086382, 2086767, 2087170, 2087570, 2087969, 2088375, 2088761, 2089138, 2089551]",29,R,ITM,1.1,
2,400,trial,0,110,110,110,trial,"['S', 'S', 'S', 'S', 'S', 'S', 'C', 'C', 'C', 'C', 'C', 'C', 'C', 'C', 'C', 'C', 'C', 'C', 'C', 'C', 'C', 'C']","[2095624, 2096054, 2096464, 2096851, 2097248, 2097653, 2098064, 2098473, 2098855, 2099245, 2099646, 2100057, 2100431, 2100862, 2101262, 2101665, 2102059, 2102471, 2102860, 2103241, 2103652, 2104053]","[2095746, 2096178, 2096590, 2096987, 2097377, 2097771, 2098183, 2098586, 2098977, 2099365, 2099771, 2100175, 2100569, 2100995, 2101391, 2101790, 2102197, 2102583, 2102981, 2103392, 2103802, 2104199]","[2094896, 2095295, 2095694, 2096094, 2096494, 2096896, 2097295, 2097695, 2098091, 2098499, 2098883, 2099271, 2099674, 2100084, 2100459, 2100889, 2101289, 2101693, 2102086, 2102499, 2102888, 2103269, 2103680, 2104081]",29,R,ITM,1.1,
5,400,trial,0,111,111,111,trial,"['S', 'S', 'S', 'S', 'S', 'S', 'C', 'C', 'C', 'C', 'C', 'C', 'C', 'C', 'C', 'C', 'C', 'C', 'C', 'C', 'C', 'C']","[2110219, 2110604, 2111016, 2111429, 2111837, 2112224, 2112628, 2113022, 2113444, 2113861, 2114259, 2114662, 2115053, 2115440, 2115829, 2116258, 2116656, 2117048, 2117445, 2117846, 2118227, 2118653]","[2110325, 2110721, 2111134, 2111543, 2111958, 2112345, 2112757, 2113169, 2113586, 2114000, 2114394, 2114790, 2115170, 2115580, 2115977, 2116405, 2116785, 2117200, 2117572, 2117979, 2118384, 2118822]","[2109474, 2109874, 2110274, 2110674, 2111074, 2111474, 2111875, 2112274, 2112655, 2113048, 2113470, 2113887, 2114285, 2114688, 2115080, 2115466, 2115856, 2116284, 2116681, 2117074, 2117471, 2117871, 2118253, 2118680]",29,R,ITM,1.1,
4,600,trial,0,112,112,112,trial,"['S', 'S', 'S', 'S', 'S', 'S', 'C', 'C', 'C', 'C', 'C', 'C', 'C', 'C', 'C', 'C', 'C', 'C', 'C', 'C', 'C', 'C']","[2125344, 2125935, 2126539, 2127119, 2127804, 2128372, 2128958, 2129517, 2130078, 2130649, 2131244, 2131822, 2132419, 2133005, 2133575, 2134170, 2134745, 2135359, 2135896, 2136497, 2137089, 2137679]","[2125488, 2126060, 2126672, 2127267, 2127921, 2128502, 2129096, 2129645, 2130229, 2130803, 2131386, 2131978, 2132545, 2133169, 2133720, 2134325, 2134891, 2135494, 2136056, 2136687, 2137291, 2137877]","[2124213, 2124812, 2125412, 2126012, 2126612, 2127212, 2127812, 2128412, 2128984, 2129543, 2130104, 2130674, 2131269, 2131848, 2132445, 2133030, 2133601, 2134196, 2134770, 2135385, 2135921, 2136522, 2137114, 2137705]",29,R,ITM,1.1,
7,400,trial,0,113,113,113,trial,"['S', 'S', 'S', 'S', 'S', 'S', 'C', 'C', 'C', 'C', 'C', 'C', 'C', 'C', 'C', 'C', 'C', 'C', 'C', 'C', 'C', 'C']","[2144064, 2144494, 2144915, 2145305, 2145665, 2146059, 2146477, 2146868, 2147264, 2147682, 2148126, 2148519, 2148915, 2149301, 2149704, 2150084, 2150500, 2150898, 2151305, 2151718, 2152098, 2152501]","[2144172, 2144607, 2145015, 2145411, 2145760, 2146165, 2146592, 2146985, 2147388, 2147796, 2148220, 2148621, 2149030, 2149414, 2149836, 2150238, 2150644, 2151043, 2151445, 2151848, 2152231, 2152638]","[2143314, 2143714, 2144114, 2144515, 2144914, 2145314, 2145715, 2146115, 2146504, 2146894, 2147291, 2147709, 2148153, 2148546, 2148941, 2149327, 2149731, 2150112, 2150528, 2150926, 2151331, 2151746, 2152126, 2152527]",29,R,ITM,1.1,
4,600,trial,0,114,114,114,trial,"['S', 'S', 'S', 'S', 'S', 'S', 'C', 'C', 'C', 'C', 'C', 'C', 'C', 'C', 'C', 'C', 'C', 'C', 'C', 'C', 'C', 'C']","[2158965, 2159587, 2160178, 2160782, 2161385, 2161978, 2162533, 2163102, 2163679, 2164232, 2164809, 2165413, 2166005, 2166640, 2167204, 2167791, 2168378, 2168978, 2169571, 2170180, 2170753, 2171356]","[2159090, 2159704, 2160313, 2160906, 2161495, 2162106, 2162656, 2163261, 2163822, 2164387, 2164981, 2165597, 2166181, 2166786, 2167359, 2167954, 2168524, 2169122, 2169706, 2170328, 2170908, 2171478]","[2157826, 2158425, 2159025, 2159624, 2160224, 2160824, 2161424, 2162024, 2162558, 2163128, 2163704, 2164258, 2164835, 2165439, 2166032, 2166666, 2167230, 2167817, 2168403, 2169004, 2169596, 2170206, 2170778, 2171381]",29,R,ITM,1.1,
5,400,trial,0,115,115,115,trial,"['S', 'S', 'S', 'S', 'S', 'C', 'C', 'C', 'C', 'C', 'C', 'C', 'C', 'C', 'C', 'C', 'C', 'C', 'C', 'C', 'C']","[2178269, 2178681, 2179086, 2179494, 2179886, 2180286, 2180673, 2181083, 2181484, 2181850, 2182232, 2182649, 2183043, 2183449, 2183874, 2184261, 2184641, 2185047, 2185460, 2185849, 2186270]","[2178383, 2178787, 2179201, 2179610, 2180012, 2180414, 2180804, 2181218, 2181601, 2181975, 2182366, 2182793, 2183188, 2183580, 2183979, 2184390, 2184787, 2185190, 2185589, 2185987, 2186376]","[2177142, 2177542, 2177941, 2178341, 2178741, 2179141, 2179542, 2179941, 2180313, 2180699, 2181108, 2181510, 2181875, 2182257, 2182675, 2183068, 2183475, 2183900, 2184287, 2184667, 2185072, 2185486, 2185876, 2186297]",29,R,ITM,1.1,
7,600,trial,0,116,116,116,trial,"['S', 'S', 'S', 'S', 'S', 'S', 'C', 'C', 'C', 'C', 'C', 'C', 'C', 'C', 'C', 'C', 'C', 'C', 'C', 'C', 'C', 'C']","[2193188, 2193813, 2194394, 2195066, 2195639, 2196191, 2196822, 2197388, 2197944, 2198549, 2199185, 2199771, 2200345, 2200916, 2201451, 2202041, 2202579, 2203195, 2203760, 2204291, 2204882, 2205472]","[2193334, 2193937, 2194531, 2195172, 2195772, 2196319, 2196937, 2197514, 2198094, 2198673, 2199269, 2199880, 2200462, 2201044, 2201610, 2202156, 2202713, 2203299, 2203901, 2204447, 2205062, 2205631]","[2192067, 2192666, 2193266, 2193866, 2194466, 2195066, 2195666, 2196267, 2196849, 2197415, 2197970, 2198577, 2199213, 2199798, 2200372, 2200943, 2201478, 2202067, 2202607, 2203223, 2203788, 2204318, 2204909, 2205499]",29,R,ITM,1.1,
6,600,trial,0,117,117,117,trial,"['S', 'S', 'S', 'S', 'S', 'S', 'C', 'C', 'C', 'C', 'C', 'C', 'C', 'C', 'C', 'C', 'C', 'C', 'C', 'C', 'C', 'C']","[2212099, 2212717, 2213315, 2213953, 2214519, 2215080, 2215687, 2216261, 2216905, 2217485, 2218060, 2218669, 2219280, 2219957, 2220504, 2221073, 2221637, 2222211, 2222768, 2223345, 2223919, 2224502]","[2212235, 2212849, 2213465, 2214092, 2214662, 2215259, 2215852, 2216446, 2217101, 2217632, 2218193, 2218818, 2219468, 2220116, 2220680, 2221207, 2221798, 2222362, 2222916, 2223505, 2224102, 2224620]","[2210979, 2211578, 2212178, 2212779, 2213379, 2213979, 2214579, 2215179, 2215714, 2216288, 2216932, 2217512, 2218087, 2218695, 2219307, 2219983, 2220531, 2221100, 2221664, 2222237, 2222794, 2223372, 2223945, 2224529]",29,R,ITM,1.1,
2,400,trial,0,118,118,118,trial,"['S', 'S', 'S', 'S', 'S', 'S', 'C', 'C', 'C', 'C', 'C', 'C', 'C', 'C', 'C', 'C', 'C', 'C', 'C', 'C', 'C', 'C']","[2230961, 2231343, 2231741, 2232143, 2232576, 2232961, 2233346, 2233747, 2234121, 2234513, 2234916, 2235311, 2235730, 2236128, 2236520, 2236958, 2237340, 2237747, 2238117, 2238517, 2238887, 2239262]","[2231065, 2231465, 2231864, 2232268, 2232667, 2233088, 2233461, 2233864, 2234243, 2234634, 2235029, 2235441, 2235835, 2236230, 2236639, 2237078, 2237462, 2237859, 2238227, 2238604, 2238983, 2239378]","[2230174, 2230575, 2230974, 2231374, 2231774, 2232175, 2232576, 2232975, 2233373, 2233775, 2234147, 2234541, 2234943, 2235337, 2235758, 2236155, 2236548, 2236986, 2237367, 2237774, 2238145, 2238543, 2238915, 2239290]",29,R,ITM,1.1,
2,600,trial,0,119,119,119,trial,"['S', 'S', 'S', 'S', 'S', 'S', 'C', 'C', 'C', 'C', 'C', 'C', 'C', 'C', 'C', 'C', 'C', 'C', 'C', 'C', 'C', 'C']","[2245917, 2246498, 2247080, 2247693, 2248331, 2248940, 2249507, 2250070, 2250658, 2251233, 2251845, 2252436, 2253035, 2253600, 2254179, 2254823, 2255388, 2255926, 2256502, 2257072, 2257670, 2258279]","[2246051, 2246625, 2247207, 2247819, 2248460, 2249047, 2249657, 2250205, 2250814, 2251388, 2251978, 2252568, 2253171, 2253753, 2254314, 2254955, 2255529, 2256063, 2256674, 2257227, 2257864, 2258418]","[2244758, 2245358, 2245958, 2246557, 2247158, 2247758, 2248358, 2248958, 2249535, 2250096, 2250686, 2251260, 2251872, 2252463, 2253062, 2253628, 2254206, 2254850, 2255415, 2255952, 2256529, 2257099, 2257696, 2258307]",29,R,ITM,1.1,
3,400,trial,0,120,120,120,trial,"['S', 'S', 'S', 'S', 'S', 'S', 'C', 'C', 'C', 'C', 'C', 'C', 'C', 'C', 'C', 'C', 'C', 'C', 'C', 'C', 'C', 'C']","[2264745, 2265125, 2265528, 2265949, 2266338, 2266725, 2267112, 2267500, 2267917, 2268313, 2268711, 2269104, 2269514, 2269919, 2270310, 2270736, 2271130, 2271543, 2271951, 2272373, 2272785, 2273195]","[2264847, 2265246, 2265683, 2266101, 2266471, 2266887, 2267266, 2267661, 2268061, 2268467, 2268863, 2269254, 2269670, 2270072, 2270467, 2270883, 2271307, 2271716, 2272123, 2272547, 2272941, 2273357]","[2263986, 2264386, 2264786, 2265186, 2265586, 2265987, 2266386, 2266786, 2267138, 2267526, 2267942, 2268339, 2268737, 2269129, 2269540, 2269944, 2270336, 2270761, 2271156, 2271568, 2271977, 2272399, 2272811, 2273220]",29,R,ITM,1.1,
5,600,trial,0,121,121,121,trial,"['S', 'S', 'S', 'S', 'S', 'S', 'C', 'C', 'C', 'C', 'C', 'C', 'C', 'C', 'C', 'C', 'C', 'C', 'C', 'C', 'C', 'C']","[2279902, 2280529, 2281080, 2281666, 2282280, 2282854, 2283413, 2283998, 2284627, 2285284, 2285891, 2286496, 2287119, 2287708, 2288258, 2288854, 2289452, 2290039, 2290679, 2291293, 2291851, 2292482]","[2280029, 2280637, 2281211, 2281818, 2282440, 2283012, 2283583, 2284150, 2284768, 2285420, 2286054, 2286648, 2287299, 2287864, 2288451, 2289047, 2289658, 2290246, 2290868, 2291447, 2292032, 2292622]","[2278752, 2279352, 2279952, 2280552, 2281152, 2281752, 2282352, 2282952, 2283440, 2284023, 2284653, 2285309, 2285917, 2286523, 2287144, 2287733, 2288284, 2288879, 2289477, 2290066, 2290705, 2291319, 2291876, 2292508]",29,R,ITM,1.1,
7,400,trial,0,122,122,122,trial,"['S', 'S', 'S', 'S', 'S', 'S', 'C', 'C', 'C', 'C', 'C', 'C', 'C', 'C', 'C', 'C', 'C', 'C', 'C', 'C', 'C', 'C']","[2298784, 2299228, 2299610, 2300021, 2300414, 2300790, 2301193, 2301571, 2301973, 2302358, 2302772, 2303170, 2303552, 2303933, 2304329, 2304715, 2305121, 2305499, 2305897, 2306282, 2306695, 2307089]","[2298894, 2299317, 2299724, 2300119, 2300547, 2300919, 2301326, 2301705, 2302101, 2302514, 2302909, 2303314, 2303717, 2304087, 2304450, 2304841, 2305266, 2305652, 2306018, 2306410, 2306809, 2307246]","[2298066, 2298465, 2298865, 2299266, 2299665, 2300065, 2300466, 2300865, 2301219, 2301597, 2302000, 2302386, 2302798, 2303197, 2303579, 2303960, 2304357, 2304742, 2305148, 2305526, 2305924, 2306309, 2306721, 2307116]",29,R,ITM,1.1,
3,600,trial,0,123,123,123,trial,"['S', 'S', 'S', 'S', 'S', 'S', 'C', 'C', 'C', 'C', 'C', 'C', 'C', 'C', 'C', 'C', 'C', 'C', 'C', 'C', 'C', 'C']","[2313654, 2314304, 2314867, 2315474, 2316087, 2316695, 2317284, 2317864, 2318430, 2318990, 2319577, 2320155, 2320743, 2321327, 2321907, 2323146, 2323648, 2324110, 2324594, 2325063, 2325536, 2326002]","[2313781, 2314465, 2315011, 2315638, 2316250, 2316824, 2317445, 2318101, 2318576, 2319173, 2319751, 2320300, 2320872, 2321461, 2322965, 2323282, 2323810, 2324222, 2324709, 2325196, 2325698, 2326147]","[2312544, 2313144, 2313744, 2314344, 2314944, 2315544, 2316144, 2316744, 2317309, 2317890, 2318455, 2319015, 2319602, 2320181, 2320769, 2321352, 2321933, 2323172, 2323674, 2324135, 2324620, 2325089, 2325562, 2326028]",29,R,ITM,1.1,
7,600,trial,0,124,124,124,trial,"['S', 'S', 'S', 'S', 'S', 'S', 'C', 'C', 'C', 'C', 'C', 'C', 'C', 'C', 'C', 'C', 'C', 'C', 'C', 'C', 'C', 'C']","[2332834, 2333448, 2334051, 2334645, 2335243, 2335883, 2336481, 2337054, 2337635, 2338217, 2338796, 2339377, 2339910, 2340470, 2341062, 2341611, 2342137, 2342721, 2343312, 2343895, 2344434, 2345010]","[2332967, 2333596, 2334193, 2334795, 2335408, 2336002, 2336610, 2337191, 2337781, 2338356, 2338937, 2339507, 2340059, 2340638, 2341215, 2341762, 2342320, 2342909, 2343459, 2344068, 2344615, 2345198]","[2331729, 2332328, 2332929, 2333529, 2334129, 2334728, 2335328, 2335928, 2336507, 2337082, 2337661, 2338245, 2338823, 2339404, 2339938, 2340498, 2341089, 2341639, 2342164, 2342749, 2343340, 2343921, 2344462, 2345037]",29,R,ITM,1.1,
4,400,trial,0,125,125,125,trial,"['S', 'S', 'S', 'S', 'S', 'S', 'C', 'C', 'C', 'C', 'C', 'C', 'C', 'C', 'C', 'C', 'C', 'C', 'C', 'C', 'C', 'C']","[2351086, 2351498, 2351918, 2352311, 2352726, 2353127, 2353508, 2353915, 2354306, 2354708, 2355121, 2355516, 2355921, 2356303, 2356716, 2357105, 2357500, 2357898, 2358299, 2358701, 2359094, 2359495]","[2351195, 2351600, 2352026, 2352433, 2352858, 2353259, 2353641, 2354044, 2354457, 2354876, 2355261, 2355681, 2356060, 2356463, 2356866, 2357263, 2357663, 2358045, 2358441, 2358850, 2359249, 2359630]","[2350355, 2350755, 2351155, 2351555, 2351955, 2352355, 2352755, 2353156, 2353533, 2353941, 2354332, 2354734, 2355146, 2355542, 2355947, 2356329, 2356742, 2357131, 2357526, 2357923, 2358325, 2358726, 2359119, 2359521]",29,R,ITM,1.1,
