octave,ioi,event,.thisRepN,.thisTrialN,.thisN,.thisIndex,event,tap_types,tap_times,release_times,tone_times,subject,handedness,experiment,version,
,,SPR,0,-1,-1,0,SPR,"['P', 'P', 'P', 'P', 'P', 'P', 'P', 'P', 'P', 'P', 'P', 'P', 'P', 'P', 'P', 'P', 'P', 'P', 'P', 'P', 'P', 'P', 'P', 'P', 'P', 'P', 'P', 'P', 'P', 'P']","[46897, 52005, 52659, 53419, 54142, 54899, 55606, 56288, 57033, 57720, 58479, 59210, 59955, 60677, 61429, 62185, 62893, 63608, 64360, 65031, 65717, 66394, 67132, 67825, 68523, 69220, 69965, 70628, 71308, 72011]","[47041, 52243, 52938, 53693, 54416, 55182, 55870, 56585, 57308, 58014, 58803, 59518, 60242, 60948, 61702, 62393, 63159, 63904, 64651, 65268, 65852, 66710, 67410, 68076, 68732, 69501, 70174, 70906, 71590, 72327]",,40,R,ITM,1.1,
4,500,practice,0,0,0,0,practice,"['S', 'S', 'S', 'S', 'S', 'S', 'C', 'C', 'C', 'C', 'C', 'C', 'C', 'C', 'C', 'C', 'C', 'C', 'C', 'C', 'C', 'C']","[139171, 140346, 141267, 141677, 142106, 142524, 143017, 143444, 143897, 144345, 144828, 145278, 145767, 146232, 146695, 147152, 147599, 148097, 148568, 149017, 149497, 149971]","[139461, 140473, 141432, 141838, 142234, 142653, 143140, 143570, 144017, 144425, 144919, 145367, 145852, 146318, 146786, 147240, 147718, 148203, 148666, 149107, 149579, 150075]","[139099, 139598, 140098, 140598, 141099, 141598, 142098, 142599, 143042, 143469, 143923, 144370, 144854, 145304, 145794, 146257, 146720, 147178, 147624, 148122, 148593, 149043, 149523, 149998]",40,R,ITM,1.1,
7,500,practice,0,1,1,1,practice,"['S', 'S', 'S', 'S', 'S', 'S', 'S', 'C', 'C', 'C', 'C', 'C', 'C', 'C', 'C', 'C', 'C', 'C', 'C', 'C', 'C', 'C', 'C']","[155897, 156314, 156811, 157282, 157773, 158261, 158791, 159264, 159750, 160219, 160662, 161125, 161577, 162065, 162561, 163039, 163536, 163992, 164458, 164904, 165389, 165817, 166273]","[155984, 156438, 156918, 157386, 157891, 158347, 158889, 159368, 159828, 160307, 160777, 161238, 161675, 162159, 162636, 163126, 163636, 164090, 164538, 165000, 165479, 165907, 166363]","[155360, 155859, 156359, 156859, 157360, 157859, 158359, 158859, 159291, 159776, 160245, 160689, 161152, 161604, 162092, 162588, 163065, 163563, 164020, 164486, 164931, 165415, 165843, 166299]",40,R,ITM,1.1,
3,500,practice,0,2,2,2,practice,"['S', 'S', 'S', 'S', 'S', 'S', 'S', 'C', 'C', 'C', 'C', 'C', 'C', 'C', 'C', 'C', 'C', 'C', 'C', 'C', 'C', 'C', 'C']","[172055, 172445, 173099, 173627, 174154, 174648, 175152, 175664, 176108, 176552, 177072, 177545, 178067, 178492, 179002, 179493, 179950, 180390, 180919, 181437, 181950, 182367, 182907]","[172142, 172571, 173195, 173736, 174258, 174739, 175252, 175746, 176176, 176638, 177147, 177631, 178137, 178584, 179076, 179578, 180038, 180485, 181015, 181518, 182029, 182456, 182987]","[171721, 172221, 172722, 173222, 173722, 174222, 174723, 175222, 175689, 176134, 176578, 177097, 177570, 178093, 178518, 179027, 179519, 179976, 180416, 180944, 181463, 181976, 182392, 182933]",40,R,ITM,1.1,
2,500,practice,0,3,3,3,practice,"['S', 'S', 'S', 'S', 'S', 'S', 'S', 'C', 'C', 'C', 'C', 'C', 'C', 'C', 'C', 'C', 'C', 'C', 'C', 'C', 'C', 'C', 'C']","[189197, 189624, 190132, 190624, 191124, 191639, 192138, 192623, 193111, 193592, 194080, 194589, 195066, 195549, 196065, 196569, 197080, 197539, 198038, 198525, 199013, 199455, 200006]","[189281, 189724, 190184, 190687, 191194, 191721, 192208, 192709, 193200, 193678, 194171, 194681, 195160, 195639, 196167, 196671, 197168, 197630, 198138, 198608, 199090, 199542, 200081]","[188624, 189124, 189624, 190125, 190623, 191124, 191625, 192124, 192650, 193137, 193619, 194107, 194616, 195093, 195576, 196091, 196596, 197106, 197567, 198065, 198552, 199040, 199483, 200034]",40,R,ITM,1.1,
5,500,practice,0,4,4,4,practice,"['S', 'S', 'S', 'S', 'S', 'S', 'S', 'C', 'C', 'C', 'C', 'C', 'C', 'C', 'C', 'C', 'C', 'C', 'C', 'C', 'C', 'C', 'C']","[205802, 206245, 206918, 207488, 207983, 208478, 208989, 209470, 209946, 210426, 210918, 211415, 211909, 212362, 212874, 213351, 213840, 214299, 214788, 215254, 215759, 216202, 216701]","[205898, 206362, 207004, 207578, 208066, 208566, 209081, 209563, 210030, 210529, 211025, 211543, 212003, 212463, 212982, 213447, 213934, 214381, 214855, 215353, 215834, 216274, 216769]","[205532, 206030, 206530, 207030, 207531, 208030, 208530, 209031, 209496, 209972, 210453, 210944, 211440, 211935, 212387, 212899, 213377, 213866, 214326, 214813, 215279, 215785, 216227, 216728]",40,R,ITM,1.1,
6,500,practice,0,5,5,5,practice,"['S', 'S', 'S', 'S', 'S', 'S', 'S', 'C', 'C', 'C', 'C', 'C', 'C', 'C', 'C', 'C', 'C', 'C', 'C', 'C', 'C', 'C', 'C']","[222737, 223244, 223785, 224299, 224780, 225264, 225797, 226256, 226795, 227258, 227747, 228196, 228716, 229196, 229676, 230125, 230621, 231061, 231587, 231997, 232504, 232958, 233437]","[222818, 223357, 223868, 224378, 224865, 225350, 225866, 226340, 226863, 227345, 227824, 228299, 228827, 229256, 229753, 230192, 230696, 231159, 231669, 232097, 232587, 233063, 233542]","[222380, 222878, 223378, 223879, 224378, 224878, 225378, 225879, 226283, 226822, 227284, 227774, 228222, 228743, 229223, 229702, 230152, 230648, 231089, 231614, 232024, 232530, 232985, 233463]",40,R,ITM,1.1,
5,600,trial,0,6,6,6,trial,"['S', 'S', 'S', 'S', 'S', 'S', 'S', 'S', 'C', 'C', 'C', 'C', 'C', 'C', 'C', 'C', 'C', 'C', 'C', 'C', 'C', 'C', 'C', 'C']","[305221, 305718, 306144, 306746, 307301, 307918, 308477, 309073, 309695, 310268, 310836, 311416, 311951, 312484, 313043, 313591, 314143, 314670, 315235, 315743, 316357, 316855, 317431, 317974]","[305349, 305849, 306318, 306887, 307404, 308049, 308589, 309196, 309840, 310430, 310982, 311584, 312121, 312655, 313233, 313777, 314333, 314828, 315402, 315922, 316530, 317070, 317605, 318147]","[304990, 305589, 306189, 306789, 307389, 307989, 308589, 309189, 309722, 310294, 310861, 311443, 311977, 312510, 313069, 313617, 314169, 314695, 315260, 315769, 316383, 316880, 317457, 318000]",40,R,ITM,1.1,
7,400,trial,0,7,7,7,trial,"['S', 'S', 'S', 'S', 'S', 'S', 'S', 'C', 'C', 'C', 'C', 'C', 'C', 'C', 'C', 'C', 'C', 'C', 'C', 'C', 'C', 'C', 'C']","[323576, 323942, 324427, 324860, 325275, 325699, 326103, 326487, 326889, 327257, 327671, 328058, 328470, 328850, 329239, 329646, 330028, 330426, 330798, 331188, 331573, 331953, 332378]","[323684, 324077, 324561, 324970, 325385, 325790, 326173, 326571, 326969, 327343, 327746, 328132, 328541, 328936, 329307, 329713, 330102, 330503, 330882, 331276, 331664, 332044, 332459]","[323384, 323783, 324184, 324583, 324983, 325384, 325784, 326184, 326514, 326917, 327283, 327699, 328085, 328498, 328877, 329266, 329672, 330055, 330452, 330825, 331214, 331599, 331979, 332404]",40,R,ITM,1.1,
7,600,trial,0,8,8,8,trial,"['S', 'S', 'S', 'S', 'S', 'S', 'S', 'S', 'C', 'C', 'C', 'C', 'C', 'C', 'C', 'C', 'C', 'C', 'C', 'C', 'C', 'C', 'C', 'C']","[338213, 338562, 339187, 339767, 340357, 340979, 341552, 342116, 342754, 343336, 343856, 344482, 345056, 345600, 346170, 346723, 347285, 347852, 348375, 348895, 349505, 350083, 350624, 351155]","[338307, 338761, 339309, 339876, 340458, 341072, 341656, 342217, 342872, 343435, 343953, 344538, 345162, 345704, 346260, 346806, 347398, 347938, 348467, 348973, 349591, 350169, 350720, 351218]","[338018, 338617, 339217, 339817, 340417, 341017, 341617, 342217, 342780, 343364, 343882, 344509, 345082, 345627, 346196, 346749, 347312, 347880, 348402, 348921, 349532, 350110, 350652, 351182]",40,R,ITM,1.1,
4,400,trial,0,9,9,9,trial,"['S', 'S', 'S', 'S', 'S', 'S', 'S', 'C', 'C', 'C', 'C', 'C', 'C', 'C', 'C', 'C', 'C', 'C', 'C', 'C', 'C', 'C', 'C']","[356800, 357172, 357607, 358046, 358459, 358823, 359271, 359626, 360011, 360432, 360815, 361219, 361597, 361984, 362361, 362746, 363124, 363564, 363935, 364365, 364706, 365109, 365476]","[356877, 357274, 357709, 358127, 358510, 358893, 359322, 359710, 360091, 360507, 360891, 361307, 361679, 362068, 362463, 362852, 363223, 363642, 364035, 364441, 364791, 365194, 365581]","[356523, 356922, 357322, 357723, 358122, 358522, 358922, 359322, 359652, 360037, 360458, 360841, 361244, 361623, 362010, 362387, 362772, 363150, 363589, 363961, 364391, 364732, 365134, 365502]",40,R,ITM,1.1,
6,600,trial,0,10,10,10,trial,"['S', 'S', 'S', 'S', 'S', 'S', 'S', 'S', 'C', 'C', 'C', 'C', 'C', 'C', 'C', 'C', 'C', 'C', 'C', 'C', 'C', 'C', 'C', 'C']","[371138, 371525, 372042, 372622, 373214, 373763, 374388, 374991, 375582, 376099, 376597, 377106, 377588, 378090, 378540, 379024, 379453, 379892, 380382, 380816, 381318, 381767, 382194, 382665]","[371237, 371680, 372143, 372729, 373301, 373907, 374501, 375077, 375694, 376213, 376715, 377201, 377719, 378188, 378683, 379123, 379565, 379996, 380503, 380950, 381429, 381860, 382316, 382776]","[370942, 371542, 372142, 372742, 373342, 373942, 374542, 375142, 375610, 376126, 376624, 377133, 377616, 378118, 378566, 379052, 379481, 379919, 380408, 380844, 381345, 381795, 382221, 382692]",40,R,ITM,1.1,
3,400,trial,0,11,11,11,trial,"['S', 'S', 'S', 'S', 'S', 'S', 'S', 'C', 'C', 'C', 'C', 'C', 'C', 'C', 'C', 'C', 'C', 'C', 'C', 'C', 'C', 'C', 'C']","[388553, 388929, 389445, 389873, 390317, 390714, 391119, 391507, 391914, 392286, 392692, 393057, 393458, 393868, 394251, 394688, 395071, 395454, 395848, 396267, 396638, 397040, 397430]","[388677, 389046, 389521, 389934, 390379, 390802, 391206, 391590, 391993, 392372, 392770, 393165, 393552, 393953, 394336, 394766, 395162, 395550, 395951, 396359, 396723, 397125, 397510]","[388347, 388747, 389147, 389548, 389947, 390347, 390748, 391147, 391533, 391940, 392311, 392718, 393082, 393484, 393893, 394276, 394714, 395097, 395480, 395874, 396293, 396663, 397066, 397456]",40,R,ITM,1.1,
3,600,trial,0,12,12,12,trial,"['S', 'S', 'S', 'S', 'S', 'S', 'S', 'S', 'C', 'C', 'C', 'C', 'C', 'C', 'C', 'C', 'C', 'C', 'C', 'C', 'C', 'C', 'C', 'C']","[403028, 403425, 404003, 404590, 405147, 405772, 406367, 406928, 407523, 408129, 408710, 409270, 409853, 410425, 411005, 411529, 412091, 412717, 413274, 413851, 414392, 414973, 415513, 416019]","[403112, 403545, 404101, 404683, 405248, 405881, 406480, 407048, 407645, 408214, 408802, 409344, 409940, 410523, 411115, 411607, 412192, 412822, 413375, 413947, 414507, 415070, 415618, 416142]","[402816, 403416, 404016, 404615, 405215, 405815, 406415, 407015, 407548, 408156, 408735, 409295, 409879, 410450, 411031, 411554, 412116, 412742, 413299, 413877, 414417, 414999, 415539, 416045]",40,R,ITM,1.1,
5,600,trial,0,13,13,13,trial,"['S', 'S', 'S', 'S', 'S', 'S', 'S', 'S', 'C', 'C', 'C', 'C', 'C', 'C', 'C', 'C', 'C', 'C', 'C', 'C', 'C', 'C', 'C', 'C']","[421764, 422309, 422864, 423287, 423852, 424392, 424988, 425538, 426115, 426752, 427319, 427876, 428453, 429073, 429574, 430194, 430796, 431337, 431892, 432448, 433031, 433565, 434144, 434728]","[421846, 422407, 422949, 423375, 423929, 424471, 425090, 425630, 426223, 426853, 427432, 427996, 428555, 429169, 429706, 430303, 430910, 431453, 432035, 432561, 433119, 433673, 434249, 434814]","[421522, 422121, 422721, 423321, 423921, 424521, 425121, 425721, 426140, 426777, 427344, 427901, 428480, 429099, 429600, 430220, 430822, 431363, 431919, 432475, 433056, 433591, 434170, 434754]",40,R,ITM,1.1,
4,400,trial,0,14,14,14,trial,"['S', 'S', 'S', 'S', 'S', 'S', 'S', 'C', 'C', 'C', 'C', 'C', 'C', 'C', 'C', 'C', 'C', 'C', 'C', 'C', 'C', 'C', 'C']","[440468, 440769, 441190, 441603, 442041, 442474, 442849, 443242, 443630, 444051, 444450, 444819, 445216, 445590, 445954, 446316, 446726, 447097, 447490, 447832, 448237, 448652, 449046]","[440547, 440870, 441281, 441694, 442143, 442562, 442918, 443329, 443722, 444125, 444536, 444904, 445296, 445696, 446055, 446409, 446802, 447194, 447568, 447939, 448326, 448758, 449146]","[440144, 440543, 440943, 441344, 441743, 442143, 442544, 442943, 443268, 443656, 444077, 444476, 444845, 445242, 445616, 445979, 446342, 446752, 447123, 447515, 447857, 448263, 448677, 449072]",40,R,ITM,1.1,
7,600,trial,0,15,15,15,trial,"['S', 'S', 'S', 'S', 'S', 'S', 'S', 'S', 'C', 'C', 'C', 'C', 'C', 'C', 'C', 'C', 'C', 'C', 'C', 'C', 'C', 'C', 'C', 'C']","[454606, 455022, 455524, 456129, 456731, 457332, 457877, 458506, 459043, 459626, 460170, 460753, 461299, 461871, 462458, 462989, 463545, 464071, 464644, 465209, 465751, 466350, 466898, 467435]","[454693, 455137, 455615, 456206, 456824, 457413, 457973, 458594, 459158, 459740, 460253, 460868, 461394, 461984, 462521, 463065, 463639, 464172, 464715, 465281, 465859, 466418, 466987, 467529]","[454389, 454988, 455588, 456188, 456788, 457389, 457989, 458589, 459070, 459653, 460196, 460780, 461326, 461898, 462486, 463015, 463572, 464099, 464671, 465235, 465777, 466376, 466926, 467462]",40,R,ITM,1.1,
2,600,trial,0,16,16,16,trial,"['S', 'S', 'S', 'S', 'S', 'S', 'S', 'S', 'C', 'C', 'C', 'C', 'C', 'C', 'C', 'C', 'C', 'C', 'C', 'C', 'C', 'C', 'C', 'C']","[473349, 473721, 474183, 474810, 475422, 476026, 476620, 477232, 477836, 478436, 479009, 479624, 480221, 480782, 481402, 482010, 482585, 483209, 483787, 484380, 484951, 485597, 486209, 486740]","[473439, 473822, 474277, 474897, 475494, 476081, 476697, 477307, 477923, 478524, 479098, 479706, 480284, 480865, 481483, 482088, 482672, 483298, 483866, 484470, 485056, 485696, 486287, 486839]","[473077, 473677, 474277, 474877, 475476, 476078, 476678, 477278, 477863, 478464, 479037, 479650, 480248, 480808, 481429, 482036, 482613, 483236, 483815, 484407, 484977, 485623, 486236, 486768]",40,R,ITM,1.1,
5,400,trial,0,17,17,17,trial,"['S', 'S', 'S', 'S', 'S', 'S', 'S', 'C', 'C', 'C', 'C', 'C', 'C', 'C', 'C', 'C', 'C', 'C', 'C', 'C', 'C', 'C', 'C']","[492371, 492783, 493170, 493596, 494002, 494423, 494832, 495235, 495623, 496010, 496407, 496783, 497133, 497485, 497887, 498255, 498689, 499066, 499487, 499899, 500296, 500703, 501104]","[492445, 492871, 493248, 493658, 494068, 494469, 494856, 495285, 495681, 496082, 496466, 496848, 497197, 497572, 497952, 498334, 498764, 499201, 499597, 499995, 500402, 500788, 501197]","[492068, 492468, 492868, 493268, 493668, 494068, 494469, 494868, 495260, 495648, 496035, 496433, 496809, 497160, 497511, 497913, 498282, 498715, 499092, 499513, 499924, 500323, 500729, 501130]",40,R,ITM,1.1,
4,600,trial,0,18,18,18,trial,"['S', 'S', 'S', 'S', 'S', 'S', 'S', 'S', 'C', 'C', 'C', 'C', 'C', 'C', 'C', 'C', 'C', 'C', 'C', 'C', 'C', 'C', 'C', 'C']","[509856, 510310, 510732, 511275, 511903, 512433, 513041, 513661, 514231, 514818, 515366, 515898, 516491, 517001, 517508, 518052, 518621, 519142, 519670, 520238, 520771, 521342, 521848, 522397]","[509938, 510384, 510816, 511354, 511979, 512510, 513121, 513737, 514314, 514908, 515435, 515973, 516595, 517092, 517641, 518172, 518746, 519277, 519815, 520369, 520916, 521457, 521964, 522512]","[509519, 510118, 510718, 511319, 511919, 512519, 513119, 513719, 514256, 514843, 515392, 515923, 516516, 517026, 517533, 518078, 518646, 519169, 519696, 520263, 520798, 521368, 521874, 522423]",40,R,ITM,1.1,
6,600,trial,0,19,19,19,trial,"['S', 'S', 'S', 'S', 'S', 'S', 'S', 'S', 'C', 'C', 'C', 'C', 'C', 'C', 'C', 'C', 'C', 'C', 'C', 'C', 'C', 'C', 'C', 'C']","[528214, 528666, 529052, 529609, 530194, 530772, 531373, 532008, 532616, 533228, 533820, 534383, 534948, 535561, 536118, 536705, 537298, 537815, 538396, 538991, 539557, 540120, 540647, 541198]","[528335, 528747, 529145, 529704, 530291, 530875, 531476, 532114, 532702, 533309, 533928, 534478, 535043, 535662, 536239, 536818, 537392, 537949, 538544, 539149, 539701, 540217, 540811, 541342]","[527892, 528491, 529091, 529691, 530291, 530891, 531491, 532091, 532642, 533255, 533847, 534410, 534976, 535588, 536145, 536731, 537325, 537841, 538423, 539018, 539584, 540146, 540674, 541224]",40,R,ITM,1.1,
4,600,trial,0,20,20,20,trial,"['S', 'S', 'S', 'S', 'S', 'S', 'S', 'S', 'C', 'C', 'C', 'C', 'C', 'C', 'C', 'C', 'C', 'C', 'C', 'C', 'C', 'C', 'C', 'C']","[547253, 547658, 548122, 548681, 549275, 549858, 550468, 551006, 551641, 552256, 552790, 553315, 553889, 554372, 554900, 555427, 555974, 556484, 557120, 557648, 558108, 558685, 559216, 559818]","[547354, 547748, 548194, 548769, 549374, 549953, 550567, 551128, 551757, 552371, 552933, 553478, 554028, 554516, 555061, 555571, 556122, 556631, 557217, 557733, 558214, 558792, 559358, 559946]","[546964, 547564, 548164, 548764, 549364, 549964, 550564, 551164, 551666, 552283, 552815, 553340, 553915, 554397, 554926, 555453, 556000, 556511, 557146, 557674, 558134, 558710, 559242, 559844]",40,R,ITM,1.1,
6,400,trial,0,21,21,21,trial,"['S', 'S', 'S', 'S', 'S', 'S', 'S', 'C', 'C', 'C', 'C', 'C', 'C', 'C', 'C', 'C', 'C', 'C', 'C', 'C', 'C', 'C', 'C']","[565572, 565949, 566377, 566823, 567222, 567629, 568082, 568453, 568839, 569247, 569666, 570029, 570438, 570855, 571258, 571660, 572057, 572450, 572902, 573318, 573721, 574088, 574526]","[565665, 566062, 566511, 566892, 567313, 567729, 568169, 568574, 568960, 569370, 569750, 570133, 570543, 570976, 571377, 571802, 572181, 572596, 573023, 573448, 573842, 574225, 574656]","[565305, 565704, 566105, 566504, 566904, 567304, 567704, 568104, 568480, 568865, 569275, 569694, 570055, 570465, 570883, 571285, 571687, 572084, 572477, 572929, 573344, 573748, 574114, 574553]",40,R,ITM,1.1,
3,400,trial,0,22,22,22,trial,"['S', 'S', 'S', 'S', 'S', 'S', 'S', 'C', 'C', 'C', 'C', 'C', 'C', 'C', 'C', 'C', 'C', 'C', 'C', 'C', 'C', 'C', 'C']","[580584, 580987, 581430, 581822, 582282, 582670, 583065, 583489, 583909, 584325, 584675, 585123, 585529, 585937, 586346, 586780, 587139, 587579, 588004, 588378, 588830, 589247, 589679]","[580687, 581093, 581543, 581944, 582384, 582777, 583191, 583595, 583990, 584415, 584799, 585231, 585620, 586036, 586437, 586857, 587256, 587657, 588086, 588482, 588915, 589329, 589753]","[580305, 580705, 581105, 581506, 581905, 582305, 582706, 583106, 583515, 583934, 584350, 584700, 585149, 585554, 585963, 586372, 586806, 587164, 587604, 588029, 588403, 588856, 589273, 589705]",40,R,ITM,1.1,
6,400,trial,0,23,23,23,trial,"['S', 'S', 'S', 'S', 'S', 'S', 'S', 'C', 'C', 'C', 'C', 'C', 'C', 'C', 'C', 'C', 'C', 'C', 'C', 'C', 'C', 'C', 'C']","[595502, 595918, 596414, 596806, 597173, 597584, 597961, 598358, 598733, 599152, 599534, 599924, 600302, 600733, 601178, 601547, 601992, 602370, 602808, 603155, 603583, 603942, 604363]","[595603, 596045, 596506, 596879, 597271, 597681, 598064, 598445, 598819, 599251, 599636, 600014, 600419, 600854, 601276, 601660, 602079, 602476, 602906, 603295, 603677, 604065, 604474]","[595162, 595560, 595960, 596360, 596760, 597160, 597560, 597960, 598384, 598760, 599179, 599562, 599951, 600330, 600760, 601204, 601574, 602018, 602396, 602835, 603182, 603610, 603970, 604390]",40,R,ITM,1.1,
3,600,trial,0,24,24,24,trial,"['S', 'S', 'S', 'S', 'S', 'S', 'S', 'S', 'C', 'C', 'C', 'C', 'C', 'C', 'C', 'C', 'C', 'C', 'C', 'C', 'C', 'C', 'C', 'C']","[609998, 610398, 610905, 611534, 612140, 612715, 613340, 614001, 614581, 615140, 615716, 616268, 616845, 617433, 618011, 618612, 619185, 619757, 620320, 620878, 621510, 622066, 622639, 623197]","[610097, 610534, 611013, 611620, 612255, 612843, 613422, 614073, 614673, 615239, 615824, 616381, 616958, 617552, 618113, 618704, 619286, 619862, 620422, 620963, 621591, 622155, 622683, 623222]","[609814, 610413, 611013, 611613, 612213, 612813, 613413, 614013, 614606, 615165, 615742, 616294, 616870, 617458, 618037, 618638, 619210, 619783, 620346, 620904, 621536, 622092, 622664, 623222]",40,R,ITM,1.1,
2,600,trial,0,25,25,25,trial,"['S', 'S', 'S', 'S', 'S', 'S', 'S', 'S', 'C', 'C', 'C', 'C', 'C', 'C', 'C', 'C', 'C', 'C', 'C', 'C', 'C', 'C', 'C', 'C']","[629057, 629413, 629810, 630439, 630973, 631544, 632173, 632817, 633345, 633902, 634551, 635107, 635679, 636264, 636785, 637406, 637993, 638607, 639117, 639749, 640334, 640943, 641480, 642085]","[629139, 629515, 629916, 630508, 631087, 631651, 632278, 632904, 633419, 633995, 634627, 635245, 635802, 636362, 636897, 637522, 638112, 638706, 639250, 639890, 640457, 641043, 641607, 642197]","[628674, 629274, 629874, 630474, 631073, 631674, 632274, 632873, 633372, 633928, 634577, 635134, 635706, 636292, 636812, 637433, 638021, 638635, 639143, 639775, 640362, 640969, 641507, 642112]",40,R,ITM,1.1,
2,400,trial,0,26,26,26,trial,"['S', 'S', 'S', 'S', 'S', 'S', 'S', 'C', 'C', 'C', 'C', 'C', 'C', 'C', 'C', 'C', 'C', 'C', 'C', 'C', 'C', 'C', 'C']","[647669, 648100, 648560, 648969, 649415, 649831, 650195, 650620, 650996, 651404, 651748, 652177, 652569, 652972, 653337, 653712, 654152, 654551, 654972, 655372, 655750, 656173, 656564]","[647764, 648214, 648649, 649050, 649488, 649922, 650308, 650730, 651133, 651523, 651897, 652283, 652682, 653058, 653420, 653810, 654238, 654628, 655049, 655447, 655839, 656253, 656640]","[647459, 647860, 648260, 648660, 649060, 649460, 649860, 650260, 650648, 651024, 651431, 651774, 652205, 652597, 652998, 653365, 653739, 654180, 654578, 654999, 655399, 655776, 656200, 656591]",40,R,ITM,1.1,
5,400,trial,0,27,27,27,trial,"['S', 'S', 'S', 'S', 'S', 'S', 'S', 'C', 'C', 'C', 'C', 'C', 'C', 'C', 'C', 'C', 'C', 'C', 'C', 'C', 'C', 'C', 'C']","[662635, 663012, 663417, 663833, 664222, 664680, 665073, 665441, 665817, 666218, 666578, 666941, 667298, 667659, 668027, 668394, 668742, 669063, 669476, 669849, 670185, 670496, 670910]","[662710, 663107, 663504, 663903, 664301, 664762, 665142, 665537, 665909, 666306, 666680, 667043, 667372, 667769, 668145, 668505, 668835, 669199, 669581, 669954, 670267, 670611, 670997]","[662355, 662754, 663154, 663555, 663954, 664354, 664754, 665154, 665466, 665842, 666244, 666604, 666968, 667325, 667684, 668053, 668421, 668769, 669088, 669503, 669875, 670212, 670522, 670936]",40,R,ITM,1.1,
7,400,trial,0,28,28,28,trial,"['S', 'S', 'S', 'S', 'S', 'S', 'S', 'C', 'C', 'C', 'C', 'C', 'C', 'C', 'C', 'C', 'C', 'C', 'C', 'C', 'C', 'C', 'C']","[676557, 676947, 677382, 677795, 678201, 678615, 679009, 679443, 679809, 680186, 680524, 680927, 681303, 681667, 682049, 682411, 682774, 683127, 683520, 683893, 684253, 684638, 684999]","[676633, 677035, 677490, 677890, 678285, 678712, 679101, 679517, 679891, 680279, 680635, 681026, 681374, 681777, 682159, 682520, 682887, 683252, 683606, 683991, 684353, 684726, 685099]","[676276, 676676, 677076, 677476, 677876, 678277, 678676, 679076, 679470, 679835, 680214, 680551, 680954, 681329, 681695, 682076, 682437, 682802, 683154, 683547, 683920, 684279, 684665, 685026]",40,R,ITM,1.1,
2,400,trial,0,29,29,29,trial,"['S', 'S', 'S', 'S', 'S', 'S', 'S', 'C', 'C', 'C', 'C', 'C', 'C', 'C', 'C', 'C', 'C', 'C', 'C', 'C', 'C', 'C', 'C']","[690941, 691316, 691759, 692259, 692664, 693091, 693509, 693903, 694293, 694692, 695073, 695457, 695829, 696280, 696685, 697093, 697483, 697888, 698319, 698723, 699090, 699530, 699955]","[691052, 691394, 691844, 692345, 692761, 693158, 693573, 693990, 694366, 694767, 695160, 695540, 695951, 696340, 696755, 697184, 697588, 697977, 698398, 698809, 699196, 699627, 700039]","[690726, 691125, 691526, 691927, 692325, 692726, 693126, 693526, 693929, 694321, 694720, 695100, 695485, 695857, 696306, 696713, 697119, 697509, 697916, 698346, 698749, 699118, 699556, 699981]",40,R,ITM,1.1,
5,600,trial,0,30,30,30,trial,"['S', 'S', 'S', 'S', 'S', 'S', 'S', 'S', 'C', 'C', 'C', 'C', 'C', 'C', 'C', 'C', 'C', 'C', 'C', 'C', 'C', 'C', 'C', 'C']","[708435, 708914, 709383, 709959, 710548, 711162, 711706, 712298, 712888, 713473, 714047, 714650, 715216, 715788, 716332, 716933, 717493, 718077, 718668, 719219, 719823, 720430, 720998, 721593]","[708535, 709012, 709467, 710080, 710660, 711265, 711799, 712430, 713017, 713569, 714172, 714763, 715369, 715937, 716561, 717111, 717722, 718245, 718819, 719409, 720041, 720612, 721212, 721825]","[708185, 708784, 709383, 709983, 710583, 711183, 711783, 712383, 712913, 713499, 714074, 714677, 715242, 715813, 716357, 716958, 717518, 718103, 718694, 719245, 719849, 720456, 721024, 721618]",40,R,ITM,1.1,
4,400,trial,0,31,31,31,trial,"['S', 'S', 'S', 'S', 'S', 'S', 'S', 'C', 'C', 'C', 'C', 'C', 'C', 'C', 'C', 'C', 'C', 'C', 'C', 'C', 'C', 'C', 'C']","[727299, 727712, 728170, 728588, 728965, 729372, 729779, 730132, 730568, 730966, 731350, 731752, 732119, 732533, 732923, 733314, 733667, 734096, 734481, 734895, 735253, 735667, 736040]","[727441, 727857, 728257, 728656, 729060, 729469, 729875, 730267, 730660, 731051, 731431, 731829, 732213, 732614, 733007, 733406, 733754, 734170, 734584, 734983, 735361, 735751, 736133]","[727069, 727469, 727868, 728268, 728669, 729069, 729469, 729869, 730158, 730594, 730991, 731376, 731778, 732145, 732559, 732949, 733339, 733692, 734123, 734507, 734920, 735279, 735692, 736066]",40,R,ITM,1.1,
6,600,trial,0,32,32,32,trial,"['S', 'S', 'S', 'S', 'S', 'S', 'S', 'S', 'C', 'C', 'C', 'C', 'C', 'C', 'C', 'C', 'C', 'C', 'C', 'C', 'C', 'C', 'C', 'C']","[741905, 742407, 742855, 743395, 743975, 744592, 745190, 745771, 746397, 746995, 747558, 748120, 748687, 749249, 749776, 750315, 750891, 751411, 751926, 752540, 753138, 753714, 754272, 754810]","[741986, 742464, 742951, 743478, 744092, 744690, 745279, 745867, 746499, 747089, 747634, 748219, 748742, 749339, 749890, 750390, 750989, 751522, 752070, 752642, 753230, 753823, 754408, 754915]","[741634, 742234, 742834, 743433, 744033, 744633, 745233, 745833, 746424, 747022, 747585, 748147, 748713, 749276, 749804, 750342, 750918, 751437, 751953, 752567, 753165, 753741, 754298, 754838]",40,R,ITM,1.1,
2,600,trial,0,33,33,33,trial,"['S', 'S', 'S', 'S', 'S', 'S', 'S', 'S', 'C', 'C', 'C', 'C', 'C', 'C', 'C', 'C', 'C', 'C', 'C', 'C', 'C', 'C', 'C', 'C']","[760785, 761163, 761603, 762175, 762795, 763409, 763975, 764552, 765123, 765693, 766286, 766869, 767465, 768023, 768567, 769164, 769754, 770352, 770918, 771544, 772066, 772600, 773195, 773773]","[760871, 761244, 761682, 762259, 762901, 763506, 764082, 764674, 765256, 765797, 766393, 766955, 767592, 768135, 768689, 769274, 769869, 770484, 771055, 771632, 772180, 772730, 773285, 773878]","[760472, 761073, 761673, 762273, 762872, 763473, 764073, 764673, 765151, 765721, 766314, 766897, 767493, 768051, 768593, 769190, 769781, 770378, 770946, 771571, 772093, 772627, 773222, 773799]",40,R,ITM,1.1,
7,400,trial,0,34,34,34,trial,"['S', 'S', 'S', 'S', 'S', 'S', 'S', 'C', 'C', 'C', 'C', 'C', 'C', 'C', 'C', 'C', 'C', 'C', 'C', 'C', 'C', 'C', 'C']","[779352, 779693, 780177, 780614, 781022, 781449, 781842, 782261, 782642, 783016, 783383, 783790, 784183, 784578, 784966, 785411, 785782, 786189, 786580, 786963, 787353, 787782, 788202]","[779430, 779803, 780276, 780698, 781110, 781511, 781939, 782334, 782716, 783092, 783484, 783867, 784257, 784659, 785067, 785495, 785888, 786273, 786691, 787079, 787445, 787859, 788281]","[779110, 779510, 779911, 780310, 780710, 781110, 781510, 781911, 782287, 782669, 783044, 783411, 783817, 784209, 784606, 784993, 785438, 785810, 786216, 786607, 786990, 787380, 787809, 788230]",40,R,ITM,1.1,
6,600,trial,0,35,35,35,trial,"['S', 'S', 'S', 'S', 'S', 'S', 'S', 'S', 'C', 'C', 'C', 'C', 'C', 'C', 'C', 'C', 'C', 'C', 'C', 'C', 'C', 'C', 'C', 'C']","[794008, 794461, 794957, 795554, 796103, 796670, 797254, 797876, 798520, 799124, 799689, 800243, 800838, 801376, 801959, 802611, 803182, 803692, 804301, 804860, 805465, 806025, 806540, 807071]","[794086, 794555, 795046, 795646, 796208, 796780, 797338, 797978, 798631, 799212, 799772, 800340, 800924, 801462, 802082, 802701, 803292, 803813, 804407, 804932, 805548, 806103, 806631, 807173]","[793774, 794373, 794973, 795572, 796172, 796772, 797372, 797972, 798546, 799152, 799716, 800270, 800865, 801402, 801986, 802637, 803209, 803719, 804328, 804887, 805491, 806051, 806567, 807099]",40,R,ITM,1.1,
7,600,trial,0,36,36,36,trial,"['S', 'S', 'S', 'S', 'S', 'S', 'S', 'S', 'C', 'C', 'C', 'C', 'C', 'C', 'C', 'C', 'C', 'C', 'C', 'C', 'C', 'C', 'C', 'C']","[813073, 813421, 813826, 814464, 814988, 815634, 816248, 816869, 817520, 818122, 818683, 819253, 819814, 820317, 820884, 821476, 822038, 822597, 823205, 823742, 824343, 824993, 825577, 826102]","[813137, 813510, 813917, 814542, 815072, 815713, 816353, 816971, 817603, 818192, 818793, 819339, 819924, 820449, 821000, 821547, 822119, 822697, 823282, 823874, 824426, 825079, 825637, 826187]","[812815, 813414, 814014, 814614, 815214, 815814, 816414, 817014, 817548, 818149, 818710, 819280, 819841, 820343, 820911, 821502, 822065, 822625, 823232, 823770, 824371, 825021, 825604, 826130]",40,R,ITM,1.1,
2,400,trial,0,37,37,37,trial,"['S', 'S', 'S', 'S', 'S', 'S', 'S', 'C', 'C', 'C', 'C', 'C', 'C', 'C', 'C', 'C', 'C', 'C', 'C', 'C', 'C', 'C', 'C']","[832189, 832567, 832992, 833465, 833847, 834257, 834677, 835068, 835432, 835870, 836243, 836660, 837038, 837406, 837810, 838201, 838580, 838892, 839325, 839667, 840093, 840488, 840862]","[832272, 832654, 833070, 833556, 833942, 834327, 834762, 835161, 835534, 835942, 836323, 836719, 837115, 837510, 837886, 838270, 838646, 838982, 839370, 839746, 840163, 840563, 840945]","[831911, 832311, 832711, 833112, 833511, 833911, 834312, 834711, 835096, 835460, 835897, 836271, 836687, 837065, 837433, 837837, 838228, 838607, 838920, 839353, 839694, 840121, 840515, 840889]",40,R,ITM,1.1,
4,600,trial,0,38,38,38,trial,"['S', 'S', 'S', 'S', 'S', 'S', 'S', 'S', 'C', 'C', 'C', 'C', 'C', 'C', 'C', 'C', 'C', 'C', 'C', 'C', 'C', 'C', 'C', 'C']","[846817, 847273, 847686, 848219, 848801, 849366, 849964, 850548, 851126, 851712, 852332, 852886, 853469, 854023, 854580, 855180, 855773, 856317, 856949, 857492, 858046, 858609, 859127, 859673]","[846892, 847358, 847754, 848304, 848889, 849453, 850044, 850633, 851233, 851821, 852412, 852973, 853565, 854096, 854685, 855273, 855840, 856396, 857020, 857578, 858142, 858672, 859222, 859769]","[846484, 847083, 847683, 848283, 848883, 849483, 850083, 850683, 851151, 851737, 852358, 852912, 853494, 854048, 854605, 855205, 855798, 856343, 856975, 857518, 858072, 858635, 859153, 859700]",40,R,ITM,1.1,
3,400,trial,0,39,39,39,trial,"['S', 'S', 'S', 'S', 'S', 'S', 'S', 'C', 'C', 'C', 'C', 'C', 'C', 'C', 'C', 'C', 'C', 'C', 'C', 'C', 'C', 'C', 'C']","[865657, 865980, 866375, 866761, 867201, 867587, 868016, 868447, 868837, 869192, 869605, 869956, 870327, 870701, 871084, 871457, 871832, 872176, 872569, 872965, 873355, 873718, 874116]","[865733, 866066, 866450, 866856, 867260, 867643, 868106, 868525, 868930, 869283, 869679, 870054, 870416, 870776, 871194, 871550, 871921, 872287, 872682, 873051, 873428, 873775, 874182]","[865317, 865716, 866116, 866516, 866916, 867316, 867717, 868116, 868472, 868862, 869218, 869632, 869982, 870352, 870726, 871109, 871483, 871858, 872203, 872595, 872990, 873380, 873744, 874141]",40,R,ITM,1.1,
5,600,trial,0,40,40,40,trial,"['S', 'S', 'S', 'S', 'S', 'S', 'S', 'S', 'C', 'C', 'C', 'C', 'C', 'C', 'C', 'C', 'C', 'C', 'C', 'C', 'C', 'C', 'C', 'C']","[879915, 880284, 880754, 881334, 881913, 882521, 883076, 883680, 884296, 884812, 885305, 885865, 886348, 886854, 887372, 887818, 888354, 888776, 889293, 889754, 890271, 890698, 891200, 891684]","[880007, 880384, 880851, 881432, 882025, 882612, 883173, 883791, 884412, 884922, 885424, 885940, 886456, 886952, 887463, 887956, 888444, 888896, 889393, 889865, 890361, 890821, 891291, 891784]","[879722, 880321, 880921, 881521, 882121, 882721, 883321, 883921, 884323, 884839, 885330, 885891, 886374, 886880, 887398, 887843, 888380, 888803, 889319, 889780, 890297, 890724, 891226, 891710]",40,R,ITM,1.1,
2,400,trial,0,41,41,41,trial,"['S', 'S', 'S', 'S', 'S', 'S', 'S', 'C', 'C', 'C', 'C', 'C', 'C', 'C', 'C', 'C', 'C', 'C', 'C', 'C', 'C', 'C', 'C']","[897583, 897932, 898358, 898831, 899241, 899652, 900051, 900449, 900842, 901219, 901612, 901974, 902391, 902819, 903202, 903589, 903987, 904368, 904766, 905118, 905531, 905917, 906296]","[897666, 898014, 898430, 898904, 899334, 899770, 900131, 900528, 900929, 901310, 901703, 902088, 902512, 902895, 903312, 903694, 904077, 904466, 904848, 905213, 905601, 905999, 906394]","[897324, 897722, 898123, 898524, 898923, 899323, 899723, 900123, 900475, 900870, 901245, 901639, 902000, 902418, 902847, 903230, 903616, 904014, 904395, 904794, 905146, 905559, 905944, 906323]",40,R,ITM,1.1,
3,400,trial,0,42,42,42,trial,"['S', 'S', 'S', 'S', 'S', 'S', 'S', 'C', 'C', 'C', 'C', 'C', 'C', 'C', 'C', 'C', 'C', 'C', 'C', 'C', 'C', 'C', 'C']","[914469, 914878, 915293, 915741, 916162, 916550, 916898, 917311, 917701, 918090, 918520, 918844, 919277, 919672, 920045, 920396, 920807, 921180, 921551, 921989, 922407, 922819, 923179]","[914557, 914959, 915361, 915798, 916230, 916610, 916974, 917385, 917775, 918173, 918589, 918956, 919340, 919711, 920115, 920493, 920893, 921287, 921689, 922100, 922500, 922892, 923260]","[914174, 914574, 914974, 915375, 915774, 916174, 916574, 916974, 917337, 917728, 918116, 918547, 918870, 919303, 919698, 920071, 920422, 920833, 921205, 921577, 922014, 922433, 922845, 923204]",40,R,ITM,1.1,
7,400,trial,0,43,43,43,trial,"['S', 'S', 'S', 'S', 'S', 'S', 'S', 'C', 'C', 'C', 'C', 'C', 'C', 'C', 'C', 'C', 'C', 'C', 'C', 'C', 'C', 'C', 'C']","[928791, 929165, 929604, 930002, 930383, 930785, 931215, 931971, 932395, 932787, 933174, 933583, 933998, 934404, 934777, 935160, 935543, 935941, 936330, 936756, 937119, 937526, 937861]","[928854, 929250, 929661, 930041, 930455, 930827, 931260, 932048, 932470, 932870, 933264, 933648, 934092, 934460, 934863, 935237, 935603, 936017, 936416, 936832, 937199, 937579, 937957]","[928766, 929165, 929565, 929966, 930365, 930765, 931166, 931566, 931997, 932421, 932813, 933201, 933611, 934026, 934431, 934804, 935188, 935570, 935968, 936356, 936783, 937146, 937553, 937888]",40,R,ITM,1.1,
5,400,trial,0,44,44,44,trial,"['B', 'S', 'S', 'S', 'S', 'S', 'S', 'S', 'C', 'C', 'C', 'C', 'C', 'C', 'C', 'C', 'C', 'C', 'C', 'C', 'C', 'C', 'C', 'C']","[943343, 943737, 944163, 944512, 944887, 945277, 945691, 946107, 946497, 946890, 947313, 947662, 948076, 948526, 948928, 949312, 949721, 950111, 950489, 950907, 951284, 951663, 952047, 952425]","[943475, 943852, 944246, 944607, 944961, 945333, 945768, 946177, 946579, 946967, 947366, 947752, 948154, 948578, 949008, 949387, 949783, 950172, 950579, 950971, 951377, 951745, 952113, 952521]","[943355, 943754, 944154, 944555, 944954, 945354, 945755, 946154, 946523, 946916, 947339, 947688, 948102, 948551, 948955, 949339, 949747, 950136, 950514, 950933, 951311, 951689, 952073, 952452]",40,R,ITM,1.1,
3,600,trial,0,45,45,45,trial,"['S', 'S', 'S', 'S', 'S', 'S', 'S', 'S', 'C', 'C', 'C', 'C', 'C', 'C', 'C', 'C', 'C', 'C', 'C', 'C', 'C', 'C', 'C', 'C']","[958098, 958418, 958989, 959611, 960185, 960819, 961425, 962021, 962662, 963227, 963769, 964304, 964823, 965392, 965960, 966538, 967098, 967663, 968198, 968793, 969290, 969910, 970497, 971023]","[958187, 958556, 959080, 959680, 960278, 960857, 961504, 962120, 962761, 963332, 963855, 964381, 964914, 965482, 966048, 966616, 967194, 967739, 968314, 968872, 969396, 969997, 970542, 971117]","[957920, 958520, 959120, 959720, 960320, 960920, 961520, 962120, 962688, 963253, 963794, 964330, 964848, 965417, 965986, 966563, 967123, 967689, 968223, 968818, 969316, 969935, 970522, 971049]",40,R,ITM,1.1,
4,600,trial,0,46,46,46,trial,"['S', 'S', 'S', 'S', 'S', 'S', 'S', 'S', 'C', 'C', 'C', 'C', 'C', 'C', 'C', 'C', 'C', 'C', 'C', 'C', 'C', 'C', 'C', 'C']","[976778, 977220, 977673, 978219, 978801, 979355, 980008, 980591, 981220, 981773, 982317, 982931, 983462, 983963, 984477, 985004, 985547, 986072, 986630, 987167, 987721, 988257, 988808, 989310]","[976888, 977317, 977783, 978320, 978922, 979482, 980108, 980694, 981322, 981875, 982407, 983008, 983597, 984107, 984633, 985159, 985707, 986258, 986842, 987361, 987911, 988429, 988967, 989501]","[976560, 977159, 977759, 978359, 978959, 979559, 980159, 980759, 981245, 981798, 982342, 982957, 983488, 983989, 984503, 985029, 985573, 986097, 986655, 987193, 987747, 988283, 988833, 989336]",40,R,ITM,1.1,
5,400,trial,0,47,47,47,trial,"['S', 'S', 'S', 'S', 'S', 'S', 'S', 'C', 'C', 'C', 'C', 'C', 'C', 'C', 'C', 'C', 'C', 'C', 'C', 'C', 'C', 'C', 'C']","[995215, 995604, 996099, 996582, 997010, 997373, 997795, 998208, 998652, 999067, 999471, 999862, 1000261, 1000625, 1001048, 1001427, 1001815, 1002200, 1002574, 1002977, 1003321, 1003709, 1004082]","[995319, 995739, 996249, 996700, 997112, 997509, 997917, 998355, 998795, 999204, 999552, 999937, 1000365, 1000765, 1001123, 1001532, 1001908, 1002300, 1002694, 1003063, 1003426, 1003811, 1004174]","[994983, 995382, 995782, 996183, 996582, 996982, 997383, 997783, 998235, 998678, 999094, 999496, 999887, 1000287, 1000650, 1001073, 1001453, 1001840, 1002225, 1002600, 1003002, 1003346, 1003736, 1004108]",40,R,ITM,1.1,
6,400,trial,0,48,48,48,trial,"['S', 'S', 'S', 'S', 'S', 'S', 'S', 'C', 'C', 'C', 'C', 'C', 'C', 'C', 'C', 'C', 'C', 'C', 'C', 'C', 'C', 'C', 'C']","[1009746, 1010161, 1010606, 1011039, 1011438, 1011872, 1012237, 1012661, 1013041, 1013420, 1013805, 1014183, 1014547, 1014917, 1015334, 1015759, 1016102, 1016518, 1016891, 1017259, 1017635, 1018013, 1018419]","[1009859, 1010248, 1010707, 1011131, 1011559, 1011965, 1012354, 1012757, 1013146, 1013535, 1013925, 1014288, 1014650, 1015037, 1015404, 1015845, 1016238, 1016604, 1016977, 1017369, 1017739, 1018125, 1018505]","[1009523, 1009923, 1010322, 1010722, 1011123, 1011523, 1011923, 1012323, 1012688, 1013068, 1013447, 1013831, 1014210, 1014574, 1014943, 1015362, 1015786, 1016130, 1016546, 1016918, 1017285, 1017662, 1018041, 1018446]",40,R,ITM,1.1,
2,600,trial,0,49,49,49,trial,"['S', 'S', 'S', 'S', 'S', 'S', 'S', 'S', 'C', 'C', 'C', 'C', 'C', 'C', 'C', 'C', 'C', 'C', 'C', 'C', 'C', 'C', 'C', 'C']","[1024095, 1024507, 1024992, 1025588, 1026172, 1026782, 1027438, 1028003, 1028571, 1029149, 1029691, 1030253, 1030823, 1031365, 1031898, 1032453, 1033011, 1033577, 1034107, 1034665, 1035257, 1035832, 1036361, 1036897]","[1024184, 1024622, 1025084, 1025698, 1026291, 1026904, 1027525, 1028108, 1028666, 1029244, 1029810, 1030371, 1030928, 1031479, 1032036, 1032576, 1033122, 1033684, 1034242, 1034791, 1035370, 1035970, 1036494, 1037024]","[1023884, 1024484, 1025084, 1025684, 1026284, 1026883, 1027484, 1028084, 1028597, 1029176, 1029718, 1030280, 1030851, 1031393, 1031924, 1032479, 1033038, 1033605, 1034135, 1034691, 1035285, 1035859, 1036388, 1036924]",40,R,ITM,1.1,
4,400,trial,0,50,50,50,trial,"['S', 'S', 'S', 'S', 'S', 'S', 'S', 'C', 'C', 'C', 'C', 'C', 'C', 'C', 'C', 'C', 'C', 'C', 'C', 'C', 'C', 'C', 'C']","[1042931, 1043249, 1043702, 1044067, 1044491, 1044901, 1045314, 1045763, 1046116, 1046496, 1046863, 1047251, 1047598, 1047941, 1048298, 1048653, 1048975, 1049353, 1049681, 1050016, 1050343, 1050657, 1051014]","[1042993, 1043364, 1043799, 1044195, 1044634, 1045055, 1045437, 1045839, 1046208, 1046607, 1046983, 1047336, 1047681, 1048013, 1048396, 1048744, 1049083, 1049433, 1049778, 1050106, 1050425, 1050743, 1051110]","[1042591, 1042991, 1043390, 1043790, 1044190, 1044590, 1044990, 1045390, 1045788, 1046141, 1046521, 1046889, 1047277, 1047623, 1047966, 1048324, 1048679, 1049000, 1049378, 1049707, 1050042, 1050369, 1050683, 1051039]",40,R,ITM,1.1,
3,600,trial,0,51,51,51,trial,"['S', 'S', 'S', 'S', 'S', 'S', 'S', 'S', 'S', 'C', 'C', 'C', 'C', 'C', 'C', 'C', 'C', 'C', 'C', 'C', 'C', 'C', 'C', 'C', 'C']","[1056995, 1057432, 1057730, 1058227, 1058792, 1059320, 1059916, 1060478, 1061076, 1061744, 1062317, 1062794, 1063291, 1063816, 1064345, 1064884, 1065432, 1065953, 1066456, 1066963, 1067487, 1068001, 1068551, 1069064, 1069614]","[1057079, 1057481, 1057826, 1058314, 1058868, 1059392, 1059995, 1060554, 1061179, 1061889, 1062387, 1062914, 1063449, 1063986, 1064538, 1065079, 1065577, 1066106, 1066611, 1067108, 1067638, 1068137, 1068673, 1069217, 1069736]","[1056721, 1057321, 1057922, 1058522, 1059122, 1059722, 1060322, 1060922, 1061770, 1062342, 1062819, 1063318, 1063841, 1064371, 1064909, 1065457, 1065978, 1066481, 1066989, 1067512, 1068027, 1068576, 1069089, 1069639]",40,R,ITM,1.1,
7,600,trial,0,52,52,52,trial,"['S', 'S', 'S', 'S', 'S', 'S', 'S', 'S', 'C', 'C', 'C', 'C', 'C', 'C', 'C', 'C', 'C', 'C', 'C', 'C', 'C', 'C', 'C', 'C']","[1075425, 1075789, 1076337, 1076908, 1077532, 1078103, 1078712, 1079347, 1079979, 1080563, 1081160, 1081762, 1082308, 1082903, 1083497, 1084068, 1084609, 1085216, 1085769, 1086313, 1086851, 1087415, 1087979, 1088585]","[1075529, 1075938, 1076473, 1077027, 1077670, 1078234, 1078870, 1079461, 1080078, 1080692, 1081284, 1081885, 1082452, 1082990, 1083602, 1084145, 1084735, 1085326, 1085896, 1086450, 1087000, 1087551, 1088125, 1088719]","[1075245, 1075844, 1076444, 1077043, 1077643, 1078243, 1078843, 1079443, 1080006, 1080590, 1081188, 1081790, 1082336, 1082930, 1083524, 1084095, 1084636, 1085244, 1085796, 1086341, 1086878, 1087441, 1088007, 1088613]",40,R,ITM,1.1,
6,400,trial,0,53,53,53,trial,"['S', 'S', 'S', 'S', 'S', 'S', 'S', 'S', 'C', 'C', 'C', 'C', 'C', 'C', 'C', 'C', 'C', 'C', 'C', 'C', 'C', 'C', 'C', 'C']","[1094375, 1094724, 1095029, 1095345, 1095687, 1096075, 1096496, 1096909, 1097315, 1097666, 1098062, 1098416, 1098809, 1099156, 1099511, 1099910, 1100231, 1100610, 1100934, 1101325, 1101693, 1102038, 1102420, 1102766]","[1094477, 1094824, 1095122, 1095425, 1095781, 1096148, 1096576, 1096992, 1097405, 1097741, 1098117, 1098503, 1098876, 1099244, 1099595, 1099972, 1100341, 1100697, 1101011, 1101434, 1101791, 1102140, 1102497, 1102873]","[1094194, 1094592, 1094992, 1095392, 1095792, 1096193, 1096592, 1096992, 1097341, 1097694, 1098089, 1098442, 1098835, 1099183, 1099539, 1099936, 1100258, 1100637, 1100961, 1101352, 1101720, 1102064, 1102447, 1102793]",40,R,ITM,1.1,
2,400,trial,0,54,54,54,trial,"['S', 'S', 'S', 'S', 'S', 'S', 'S', 'S', 'C', 'C', 'C', 'C', 'C', 'C', 'C', 'C', 'C', 'C', 'C', 'C', 'C', 'C', 'C', 'C']","[1111482, 1111808, 1112182, 1112528, 1112884, 1113223, 1113597, 1113971, 1114349, 1114724, 1115113, 1115471, 1115853, 1116226, 1116575, 1116934, 1117293, 1117639, 1117984, 1118356, 1118721, 1119084, 1119467, 1119836]","[1111572, 1111916, 1112270, 1112612, 1112962, 1113311, 1113700, 1114054, 1114456, 1114832, 1115206, 1115585, 1115966, 1116329, 1116677, 1117021, 1117374, 1117737, 1118101, 1118453, 1118821, 1119177, 1119534, 1119922]","[1111276, 1111675, 1112076, 1112476, 1112876, 1113276, 1113675, 1114076, 1114377, 1114750, 1115141, 1115499, 1115881, 1116254, 1116602, 1116961, 1117320, 1117667, 1118012, 1118384, 1118748, 1119111, 1119495, 1119863]",40,R,ITM,1.1,
6,600,trial,0,55,55,55,trial,"['S', 'S', 'S', 'S', 'S', 'S', 'S', 'S', 'C', 'C', 'C', 'C', 'C', 'C', 'C', 'C', 'C', 'C', 'C', 'C', 'C', 'C', 'C', 'C']","[1125419, 1125805, 1126255, 1126804, 1127411, 1127936, 1128565, 1129189, 1129801, 1130368, 1130908, 1131395, 1131945, 1132492, 1133036, 1133544, 1134086, 1134586, 1135066, 1135565, 1136060, 1136549, 1137039, 1137514]","[1125494, 1125915, 1126337, 1126891, 1127491, 1128043, 1128663, 1129297, 1129948, 1130462, 1131005, 1131487, 1132023, 1132556, 1133090, 1133667, 1134190, 1134712, 1135159, 1135642, 1136160, 1136631, 1137142, 1137648]","[1125150, 1125749, 1126349, 1126949, 1127549, 1128150, 1128750, 1129350, 1129829, 1130395, 1130935, 1131422, 1131973, 1132519, 1133063, 1133571, 1134112, 1134614, 1135093, 1135592, 1136088, 1136576, 1137067, 1137542]",40,R,ITM,1.1,
7,600,trial,0,56,56,56,trial,"['S', 'S', 'S', 'S', 'S', 'S', 'S', 'S', 'C', 'C', 'C', 'C', 'C', 'C', 'C', 'C', 'C', 'C', 'C', 'C', 'C', 'C', 'C', 'C']","[1143100, 1143459, 1143972, 1144582, 1145154, 1145811, 1146394, 1147056, 1147691, 1148218, 1148776, 1149346, 1149919, 1150480, 1151084, 1151592, 1152141, 1152689, 1153190, 1153731, 1154333, 1154913, 1155433, 1155959]","[1143193, 1143554, 1144085, 1144674, 1145272, 1145885, 1146458, 1147120, 1147768, 1148332, 1148879, 1149447, 1150002, 1150567, 1151179, 1151717, 1152250, 1152786, 1153316, 1153822, 1154413, 1154991, 1155531, 1156035]","[1142917, 1143516, 1144115, 1144715, 1145315, 1145915, 1146515, 1147115, 1147717, 1148244, 1148804, 1149373, 1149945, 1150508, 1151112, 1151619, 1152167, 1152715, 1153218, 1153759, 1154360, 1154940, 1155461, 1155986]",40,R,ITM,1.1,
3,600,trial,0,57,57,57,trial,"['S', 'S', 'S', 'S', 'S', 'S', 'S', 'S', 'C', 'C', 'C', 'C', 'C', 'C', 'C', 'C', 'C', 'C', 'C', 'C', 'C', 'C', 'C', 'C']","[1161834, 1162137, 1162679, 1163267, 1163872, 1164470, 1165079, 1165712, 1166308, 1166873, 1167399, 1167945, 1168503, 1169055, 1169592, 1170141, 1170690, 1171257, 1171792, 1172336, 1172867, 1173427, 1173967, 1174524]","[1161914, 1162259, 1162796, 1163355, 1163956, 1164534, 1165190, 1165803, 1166402, 1166941, 1167484, 1168049, 1168601, 1169158, 1169690, 1170236, 1170801, 1171342, 1171898, 1172414, 1172963, 1173504, 1174054, 1174605]","[1161623, 1162223, 1162823, 1163423, 1164023, 1164623, 1165223, 1165824, 1166333, 1166899, 1167425, 1167971, 1168529, 1169081, 1169617, 1170166, 1170715, 1171282, 1171818, 1172362, 1172892, 1173452, 1173993, 1174550]",40,R,ITM,1.1,
6,600,trial,0,58,58,58,trial,"['S', 'S', 'S', 'S', 'S', 'S', 'S', 'S', 'C', 'C', 'C', 'C', 'C', 'C', 'C', 'C', 'C', 'C', 'C', 'C', 'C', 'C', 'C', 'C']","[1180524, 1180978, 1181380, 1181887, 1182468, 1183091, 1183680, 1184281, 1184849, 1185406, 1185966, 1186520, 1187104, 1187682, 1188206, 1188760, 1189335, 1189963, 1190497, 1191020, 1191612, 1192156, 1192694, 1193238]","[1180612, 1181038, 1181452, 1181936, 1182508, 1183130, 1183717, 1184326, 1184932, 1185445, 1186008, 1186600, 1187161, 1187731, 1188287, 1188843, 1189416, 1190027, 1190584, 1191132, 1191749, 1192227, 1192799, 1193339]","[1180214, 1180813, 1181413, 1182013, 1182613, 1183213, 1183813, 1184413, 1184876, 1185432, 1185992, 1186546, 1187132, 1187709, 1188233, 1188788, 1189361, 1189991, 1190523, 1191047, 1191639, 1192183, 1192721, 1193265]",40,R,ITM,1.1,
7,400,trial,0,59,59,59,trial,"['S', 'S', 'S', 'S', 'S', 'S', 'S', 'C', 'C', 'C', 'C', 'C', 'C', 'C', 'C', 'C', 'C', 'C', 'C', 'C', 'C', 'C', 'C']","[1199077, 1199408, 1199905, 1200345, 1200745, 1201159, 1201579, 1201977, 1202367, 1202762, 1203147, 1203537, 1203890, 1204297, 1204698, 1205081, 1205476, 1205866, 1206239, 1206617, 1207031, 1207395, 1207801]","[1199156, 1199505, 1199986, 1200423, 1200838, 1201245, 1201680, 1202078, 1202444, 1202844, 1203216, 1203630, 1203966, 1204389, 1204793, 1205180, 1205574, 1205950, 1206329, 1206700, 1207089, 1207504, 1207887]","[1198836, 1199236, 1199635, 1200035, 1200436, 1200835, 1201235, 1201635, 1202004, 1202395, 1202789, 1203175, 1203565, 1203916, 1204324, 1204725, 1205108, 1205504, 1205893, 1206265, 1206644, 1207058, 1207422, 1207829]",40,R,ITM,1.1,
5,600,trial,0,60,60,60,trial,"['S', 'S', 'S', 'S', 'S', 'S', 'S', 'S', 'C', 'C', 'C', 'C', 'C', 'C', 'C', 'C', 'C', 'C', 'C', 'C', 'C', 'C', 'C', 'C']","[1213639, 1213975, 1214473, 1215021, 1215721, 1216229, 1216836, 1217425, 1217990, 1218550, 1219067, 1219603, 1220144, 1220651, 1221142, 1221637, 1222145, 1222635, 1223115, 1223581, 1224076, 1224559, 1225026, 1225477]","[1213699, 1214064, 1214550, 1215121, 1215785, 1216321, 1216906, 1217484, 1218102, 1218647, 1219158, 1219692, 1220230, 1220718, 1221245, 1221738, 1222244, 1222754, 1223214, 1223705, 1224173, 1224644, 1225115, 1225588]","[1213441, 1214040, 1214640, 1215239, 1215839, 1216439, 1217039, 1217639, 1218016, 1218576, 1219093, 1219630, 1220169, 1220676, 1221168, 1221662, 1222170, 1222661, 1223141, 1223607, 1224102, 1224585, 1225052, 1225502]",40,R,ITM,1.1,
2,600,trial,0,61,61,61,trial,"['S', 'S', 'S', 'S', 'S', 'S', 'S', 'S', 'C', 'C', 'C', 'C', 'C', 'C', 'C', 'C', 'C', 'C', 'C', 'C', 'C', 'C', 'C', 'C']","[1231295, 1231679, 1232159, 1232800, 1233357, 1233943, 1234557, 1235185, 1235808, 1236374, 1236946, 1237525, 1238060, 1238611, 1239186, 1239720, 1240309, 1240856, 1241395, 1241949, 1242482, 1243030, 1243572, 1244082]","[1231387, 1231754, 1232249, 1232866, 1233431, 1234024, 1234630, 1235245, 1235873, 1236434, 1237019, 1237591, 1238140, 1238683, 1239256, 1239778, 1240375, 1240909, 1241469, 1242004, 1242577, 1243098, 1243645, 1244176]","[1231155, 1231754, 1232354, 1232954, 1233554, 1234154, 1234754, 1235354, 1235834, 1236401, 1236973, 1237553, 1238087, 1238639, 1239214, 1239747, 1240336, 1240884, 1241421, 1241975, 1242509, 1243057, 1243598, 1244109]",40,R,ITM,1.1,
3,400,trial,0,62,62,62,trial,"['S', 'S', 'S', 'S', 'S', 'S', 'S', 'C', 'C', 'C', 'C', 'C', 'C', 'C', 'C', 'C', 'C', 'C', 'C', 'C', 'C', 'C', 'C']","[1250156, 1250478, 1250897, 1251308, 1251692, 1252116, 1252505, 1252923, 1253356, 1253780, 1254168, 1254509, 1254952, 1255380, 1255762, 1256154, 1256557, 1256958, 1257365, 1257765, 1258156, 1258559, 1258986]","[1250195, 1250543, 1250949, 1251330, 1251765, 1252136, 1252564, 1252988, 1253403, 1253806, 1254219, 1254583, 1254978, 1255439, 1255827, 1256221, 1256634, 1257011, 1257399, 1257823, 1258212, 1258638, 1259053]","[1249865, 1250266, 1250665, 1251065, 1251465, 1251865, 1252265, 1252665, 1252948, 1253382, 1253806, 1254194, 1254535, 1254978, 1255406, 1255788, 1256179, 1256583, 1256983, 1257391, 1257791, 1258181, 1258585, 1259012]",40,R,ITM,1.1,
7,600,trial,0,63,63,63,trial,"['S', 'S', 'S', 'S', 'S', 'S', 'S', 'S', 'C', 'C', 'C', 'C', 'C', 'C', 'C', 'C', 'C', 'C', 'C', 'C', 'C', 'C', 'C', 'C']","[1264615, 1264993, 1265350, 1265817, 1266400, 1266950, 1267556, 1268299, 1268941, 1269514, 1270035, 1270528, 1271009, 1271493, 1271947, 1272440, 1272916, 1273370, 1273820, 1274275, 1274706, 1275155, 1275566, 1276007]","[1264667, 1265052, 1265418, 1265890, 1266460, 1267031, 1267611, 1268350, 1269003, 1269547, 1270110, 1270608, 1271101, 1271569, 1272038, 1272532, 1273019, 1273438, 1273917, 1274348, 1274758, 1275224, 1275644, 1276091]","[1264310, 1264909, 1265509, 1266109, 1266709, 1267309, 1267909, 1268509, 1268969, 1269541, 1270063, 1270555, 1271035, 1271520, 1271973, 1272467, 1272944, 1273397, 1273846, 1274303, 1274733, 1275183, 1275592, 1276034]",40,R,ITM,1.1,
4,400,trial,0,64,64,64,trial,"['S', 'S', 'S', 'S', 'S', 'S', 'S', 'C', 'C', 'C', 'C', 'C', 'C', 'C', 'C', 'C', 'C', 'C', 'C', 'C', 'C', 'C', 'C']","[1281762, 1282148, 1282610, 1283044, 1283454, 1283887, 1284248, 1284673, 1285072, 1285421, 1285791, 1286150, 1286495, 1286842, 1287208, 1287566, 1287942, 1288260, 1288629, 1288994, 1289321, 1289640, 1290015]","[1281840, 1282209, 1282656, 1283093, 1283482, 1283942, 1284292, 1284723, 1285121, 1285450, 1285844, 1286196, 1286556, 1286916, 1287267, 1287626, 1288006, 1288353, 1288710, 1289052, 1289390, 1289723, 1290053]","[1281540, 1281938, 1282338, 1282738, 1283138, 1283538, 1283938, 1284338, 1284699, 1285098, 1285446, 1285817, 1286175, 1286520, 1286867, 1287234, 1287591, 1287968, 1288286, 1288654, 1289020, 1289347, 1289666, 1290041]",40,R,ITM,1.1,
5,600,trial,0,65,65,65,trial,"['S', 'S', 'S', 'S', 'S', 'S', 'S', 'S', 'C', 'C', 'C', 'C', 'C', 'C', 'C', 'C', 'C', 'C', 'C', 'C', 'C', 'C', 'C', 'C']","[1295883, 1296280, 1296620, 1297070, 1297691, 1298374, 1299007, 1299639, 1300238, 1300787, 1301328, 1301870, 1302436, 1302980, 1303513, 1304080, 1304587, 1305068, 1305596, 1306138, 1306622, 1307132, 1307644, 1308139]","[1295943, 1296333, 1296643, 1297122, 1297768, 1298443, 1299053, 1299702, 1300332, 1300860, 1301390, 1301914, 1302487, 1303036, 1303599, 1304154, 1304684, 1305174, 1305681, 1306222, 1306702, 1307215, 1307729, 1308198]","[1295637, 1296237, 1296837, 1297437, 1298037, 1298637, 1299237, 1299837, 1300264, 1300812, 1301354, 1301896, 1302462, 1303006, 1303539, 1304107, 1304612, 1305095, 1305622, 1306164, 1306648, 1307159, 1307670, 1308165]",40,R,ITM,1.1,
2,400,trial,0,66,66,66,trial,"['S', 'S', 'S', 'S', 'S', 'S', 'S', 'C', 'C', 'C', 'C', 'C', 'C', 'C', 'C', 'C', 'C', 'C', 'C', 'C', 'C', 'C', 'C']","[1313907, 1314272, 1314712, 1315188, 1315604, 1316020, 1316496, 1316848, 1317239, 1317641, 1318008, 1318401, 1318782, 1319139, 1319558, 1319950, 1320349, 1320741, 1321131, 1321498, 1321915, 1322309, 1322724]","[1313964, 1314351, 1314802, 1315218, 1315659, 1316079, 1316543, 1316923, 1317300, 1317715, 1318060, 1318461, 1318847, 1319238, 1319623, 1320013, 1320417, 1320817, 1321213, 1321602, 1321987, 1322399, 1322808]","[1313695, 1314097, 1314496, 1314896, 1315296, 1315696, 1316096, 1316496, 1316876, 1317266, 1317667, 1318036, 1318427, 1318810, 1319166, 1319585, 1319977, 1320377, 1320768, 1321157, 1321525, 1321942, 1322336, 1322752]",40,R,ITM,1.1,
4,400,trial,0,67,67,67,trial,"['S', 'S', 'S', 'S', 'S', 'S', 'S', 'C', 'C', 'C', 'C', 'C', 'C', 'C', 'C', 'C', 'C', 'C', 'C', 'C', 'C', 'C', 'C']","[1328740, 1329132, 1329596, 1329995, 1330417, 1330801, 1331207, 1331613, 1331987, 1332377, 1332769, 1333157, 1333515, 1333893, 1334301, 1334680, 1335061, 1335436, 1335856, 1336262, 1336620, 1337013, 1337363]","[1328785, 1329219, 1329619, 1330072, 1330475, 1330853, 1331264, 1331712, 1332060, 1332460, 1332836, 1333209, 1333583, 1333962, 1334379, 1334753, 1335146, 1335518, 1335922, 1336333, 1336698, 1337104, 1337452]","[1328474, 1328872, 1329272, 1329672, 1330072, 1330472, 1330872, 1331272, 1331639, 1332013, 1332403, 1332796, 1333184, 1333540, 1333918, 1334328, 1334706, 1335087, 1335461, 1335881, 1336288, 1336646, 1337038, 1337389]",40,R,ITM,1.1,
3,400,trial,0,68,68,68,trial,"['S', 'S', 'S', 'S', 'S', 'S', 'S', 'C', 'C', 'C', 'C', 'C', 'C', 'C', 'C', 'C', 'C', 'C', 'C', 'C', 'C', 'C', 'C']","[1343229, 1343605, 1343982, 1344393, 1344774, 1345153, 1345559, 1345987, 1346373, 1346738, 1347108, 1347515, 1347890, 1348281, 1348669, 1349055, 1349419, 1349818, 1350195, 1350579, 1350984, 1351365, 1351731]","[1343256, 1343656, 1344040, 1344431, 1344794, 1345213, 1345607, 1346039, 1346442, 1346843, 1347217, 1347594, 1347974, 1348360, 1348739, 1349138, 1349496, 1349929, 1350287, 1350677, 1351058, 1351418, 1351799]","[1342888, 1343288, 1343688, 1344089, 1344488, 1344888, 1345288, 1345688, 1346013, 1346399, 1346763, 1347134, 1347540, 1347915, 1348306, 1348695, 1349081, 1349444, 1349843, 1350220, 1350604, 1351011, 1351391, 1351756]",40,R,ITM,1.1,
5,400,trial,0,69,69,69,trial,"['S', 'S', 'S', 'S', 'S', 'S', 'S', 'C', 'C', 'C', 'C', 'C', 'C', 'C', 'C', 'C', 'C', 'C', 'C', 'C', 'C', 'C', 'C']","[1357333, 1357704, 1358151, 1358525, 1358949, 1359347, 1359772, 1360174, 1360587, 1360965, 1361349, 1361726, 1362105, 1362516, 1362883, 1363262, 1363686, 1364082, 1364495, 1364858, 1365226, 1365601, 1365986]","[1357411, 1357789, 1358214, 1358618, 1359032, 1359453, 1359843, 1360271, 1360662, 1361054, 1361441, 1361819, 1362201, 1362595, 1362961, 1363355, 1363764, 1364175, 1364573, 1364935, 1365313, 1365681, 1366072]","[1357053, 1357452, 1357852, 1358253, 1358652, 1359052, 1359453, 1359853, 1360200, 1360613, 1360992, 1361375, 1361752, 1362130, 1362541, 1362910, 1363288, 1363712, 1364108, 1364520, 1364884, 1365252, 1365626, 1366011]",40,R,ITM,1.1,
2,600,trial,0,70,70,70,trial,"['S', 'S', 'S', 'S', 'S', 'S', 'S', 'S', 'C', 'C', 'C', 'C', 'C', 'C', 'C', 'C', 'C', 'C', 'C', 'C', 'C', 'C', 'C', 'C']","[1371744, 1372105, 1372722, 1373302, 1373884, 1374471, 1375052, 1375662, 1376273, 1376802, 1377316, 1377858, 1378371, 1378879, 1379403, 1379853, 1380328, 1380829, 1381288, 1381769, 1382206, 1382686, 1383140, 1383606]","[1371832, 1372179, 1372812, 1373377, 1373963, 1374557, 1375148, 1375741, 1376333, 1376869, 1377381, 1377936, 1378446, 1378944, 1379479, 1379917, 1380398, 1380883, 1381348, 1381832, 1382296, 1382762, 1383227, 1383701]","[1371692, 1372292, 1372892, 1373492, 1374092, 1374692, 1375291, 1375892, 1376300, 1376830, 1377343, 1377886, 1378398, 1378907, 1379431, 1379880, 1380356, 1380855, 1381316, 1381796, 1382234, 1382713, 1383168, 1383632]",40,R,ITM,1.1,
4,600,trial,0,71,71,71,trial,"['S', 'S', 'S', 'S', 'S', 'S', 'S', 'S', 'C', 'C', 'C', 'C', 'C', 'C', 'C', 'C', 'C', 'C', 'C', 'C', 'C', 'C', 'C', 'C']","[1389306, 1389778, 1390134, 1390619, 1391201, 1391820, 1392357, 1392951, 1393532, 1394095, 1394617, 1395110, 1395566, 1396101, 1396592, 1397059, 1397555, 1398037, 1398518, 1399047, 1399537, 1400003, 1400462, 1400920]","[1389369, 1389839, 1390204, 1390701, 1391285, 1391876, 1392423, 1393046, 1393597, 1394173, 1394695, 1395177, 1395679, 1396192, 1396688, 1397153, 1397632, 1398148, 1398622, 1399119, 1399616, 1400104, 1400553, 1400998]","[1389020, 1389618, 1390218, 1390818, 1391418, 1392018, 1392618, 1393218, 1393559, 1394120, 1394642, 1395136, 1395592, 1396127, 1396619, 1397085, 1397581, 1398063, 1398544, 1399072, 1399563, 1400029, 1400487, 1400945]",40,R,ITM,1.1,
4,600,trial,0,72,72,72,trial,"['S', 'S', 'S', 'S', 'S', 'S', 'S', 'S', 'C', 'C', 'C', 'C', 'C', 'C', 'C', 'C', 'C', 'C', 'C', 'C', 'C', 'C', 'C', 'C']","[1406860, 1407291, 1407668, 1408230, 1408803, 1409391, 1409967, 1410619, 1411256, 1411807, 1412344, 1412894, 1413445, 1414012, 1414598, 1415129, 1415665, 1416200, 1416710, 1417244, 1417767, 1418279, 1418808, 1419274]","[1406920, 1407366, 1407769, 1408324, 1408910, 1409484, 1409995, 1410685, 1411294, 1411896, 1412403, 1412987, 1413543, 1414097, 1414709, 1415226, 1415788, 1416301, 1416826, 1417373, 1417893, 1418388, 1418905, 1419411]","[1406656, 1407255, 1407855, 1408455, 1409055, 1409655, 1410255, 1410855, 1411281, 1411832, 1412370, 1412920, 1413471, 1414038, 1414624, 1415154, 1415691, 1416225, 1416735, 1417271, 1417793, 1418305, 1418833, 1419299]",40,R,ITM,1.1,
7,400,trial,0,73,73,73,trial,"['S', 'S', 'S', 'S', 'S', 'S', 'S', 'C', 'C', 'C', 'C', 'C', 'C', 'C', 'C', 'C', 'C', 'C', 'C', 'C', 'C', 'C', 'C']","[1425138, 1425545, 1425905, 1426341, 1426723, 1427123, 1427519, 1427935, 1428295, 1428688, 1429067, 1429465, 1429803, 1430223, 1430607, 1430966, 1431339, 1431744, 1432081, 1432470, 1432843, 1433225, 1433601]","[1425196, 1425595, 1425959, 1426417, 1426796, 1427183, 1427566, 1427983, 1428393, 1428761, 1429142, 1429532, 1429889, 1430289, 1430673, 1431029, 1431416, 1431772, 1432172, 1432537, 1432932, 1433308, 1433627]","[1424796, 1425196, 1425595, 1425995, 1426396, 1426795, 1427195, 1427595, 1427961, 1428323, 1428716, 1429095, 1429492, 1429830, 1430250, 1430635, 1430992, 1431365, 1431772, 1432108, 1432498, 1432870, 1433252, 1433627]",40,R,ITM,1.1,
6,400,trial,0,74,74,74,trial,"['S', 'S', 'S', 'S', 'S', 'S', 'S', 'C', 'C', 'C', 'C', 'C', 'C', 'C', 'C', 'C', 'C', 'C', 'C', 'C', 'C', 'C', 'C']","[1439539, 1439940, 1440376, 1440817, 1441214, 1441698, 1442134, 1442469, 1442843, 1443222, 1443619, 1443954, 1444349, 1444771, 1445166, 1445521, 1445906, 1446234, 1446653, 1447017, 1447399, 1447790, 1448162]","[1439602, 1439997, 1440446, 1440878, 1441282, 1441743, 1442174, 1442541, 1442907, 1443308, 1443649, 1444024, 1444414, 1444819, 1445211, 1445569, 1445933, 1446315, 1446731, 1447103, 1447475, 1447853, 1448224]","[1439334, 1439733, 1440134, 1440533, 1440933, 1441333, 1441733, 1442134, 1442496, 1442871, 1443250, 1443646, 1443981, 1444376, 1444799, 1445193, 1445549, 1445933, 1446261, 1446680, 1447044, 1447427, 1447817, 1448188]",40,R,ITM,1.1,
5,400,trial,0,75,75,75,trial,"['S', 'S', 'S', 'S', 'S', 'S', 'S', 'C', 'C', 'C', 'C', 'C', 'C', 'C', 'C', 'C', 'C', 'C', 'C', 'C', 'C', 'C', 'C']","[1453975, 1454366, 1454758, 1455151, 1455580, 1455989, 1456400, 1456846, 1457211, 1457603, 1457991, 1458401, 1458754, 1459110, 1459534, 1459898, 1460300, 1460697, 1461090, 1461481, 1461852, 1462219, 1462618]","[1454031, 1454427, 1454829, 1455221, 1455624, 1456033, 1456477, 1456901, 1457298, 1457694, 1458069, 1458449, 1458833, 1459220, 1459581, 1459972, 1460326, 1460763, 1461154, 1461538, 1461918, 1462295, 1462679]","[1453707, 1454107, 1454508, 1454907, 1455307, 1455708, 1456107, 1456507, 1456873, 1457238, 1457629, 1458018, 1458427, 1458780, 1459136, 1459561, 1459923, 1460326, 1460722, 1461115, 1461508, 1461878, 1462246, 1462644]",40,R,ITM,1.1,
3,600,trial,0,76,76,76,trial,"['S', 'S', 'S', 'S', 'S', 'S', 'S', 'S', 'C', 'C', 'C', 'C', 'C', 'C', 'C', 'C', 'C', 'C', 'C', 'C', 'C', 'C', 'C', 'C']","[1468451, 1468837, 1469297, 1469924, 1470547, 1471106, 1471651, 1472259, 1472817, 1473307, 1473897, 1474410, 1474923, 1475421, 1475902, 1476419, 1476975, 1477481, 1477938, 1478429, 1478920, 1479407, 1479904, 1480364]","[1468533, 1468921, 1469359, 1469982, 1470583, 1471179, 1471734, 1472349, 1472937, 1473403, 1473959, 1474487, 1475009, 1475482, 1475992, 1476481, 1477040, 1477534, 1478026, 1478525, 1479010, 1479503, 1479967, 1480443]","[1468263, 1468863, 1469463, 1470063, 1470663, 1471263, 1471863, 1472463, 1472842, 1473333, 1473923, 1474437, 1474949, 1475446, 1475928, 1476445, 1477001, 1477507, 1477963, 1478455, 1478945, 1479433, 1479929, 1480389]",40,R,ITM,1.1,
6,400,trial,0,77,77,77,trial,"['S', 'S', 'S', 'S', 'S', 'S', 'S', 'C', 'C', 'C', 'C', 'C', 'C', 'C', 'C', 'C', 'C', 'C', 'C', 'C', 'C', 'C', 'C']","[1486188, 1486503, 1486921, 1487334, 1487774, 1488165, 1488601, 1488982, 1489360, 1489720, 1490089, 1490476, 1490865, 1491245, 1491619, 1491987, 1492360, 1492730, 1493104, 1493481, 1493862, 1494252, 1494598]","[1486235, 1486563, 1486978, 1487415, 1487838, 1488247, 1488655, 1489047, 1489441, 1489806, 1490188, 1490571, 1490935, 1491311, 1491693, 1492062, 1492447, 1492820, 1493184, 1493549, 1493921, 1494308, 1494673]","[1485879, 1486278, 1486679, 1487078, 1487478, 1487879, 1488278, 1488678, 1489009, 1489387, 1489746, 1490117, 1490502, 1490892, 1491271, 1491646, 1492014, 1492386, 1492758, 1493132, 1493508, 1493889, 1494279, 1494626]",40,R,ITM,1.1,
5,600,trial,0,78,78,78,trial,"['S', 'S', 'S', 'S', 'S', 'S', 'S', 'S', 'C', 'C', 'C', 'C', 'C', 'C', 'C', 'C', 'C', 'C', 'C', 'C', 'C', 'C', 'C', 'C']","[1500506, 1500882, 1501380, 1501959, 1502576, 1503162, 1503797, 1504433, 1505016, 1505600, 1506191, 1506758, 1507315, 1507873, 1508409, 1508948, 1509495, 1510096, 1510625, 1511168, 1511745, 1512286, 1512778, 1513317]","[1500565, 1500938, 1501429, 1501985, 1502642, 1503250, 1503862, 1504495, 1505088, 1505674, 1506244, 1506853, 1507418, 1507987, 1508502, 1509073, 1509599, 1510155, 1510750, 1511247, 1511836, 1512352, 1512901, 1513400]","[1500295, 1500895, 1501495, 1502095, 1502695, 1503295, 1503895, 1504495, 1505043, 1505627, 1506217, 1506784, 1507341, 1507899, 1508434, 1508974, 1509521, 1510122, 1510650, 1511194, 1511771, 1512311, 1512804, 1513342]",40,R,ITM,1.1,
6,600,trial,0,79,79,79,trial,"['S', 'S', 'S', 'S', 'S', 'S', 'S', 'S', 'C', 'C', 'C', 'C', 'C', 'C', 'C', 'C', 'C', 'C', 'C', 'C', 'C', 'C', 'C', 'C']","[1519151, 1519521, 1519954, 1520519, 1521161, 1521699, 1522314, 1522916, 1523477, 1524101, 1524665, 1525166, 1525707, 1526235, 1526765, 1527300, 1527829, 1528330, 1528854, 1529332, 1529833, 1530331, 1530851, 1531342]","[1519201, 1519606, 1520006, 1520596, 1521230, 1521787, 1522392, 1522995, 1523549, 1524175, 1524737, 1525231, 1525773, 1526295, 1526843, 1527380, 1527941, 1528444, 1528945, 1529437, 1529943, 1530451, 1530921, 1531420]","[1518873, 1519473, 1520073, 1520673, 1521273, 1521873, 1522473, 1523074, 1523504, 1524128, 1524691, 1525192, 1525734, 1526261, 1526792, 1527327, 1527856, 1528357, 1528881, 1529360, 1529860, 1530357, 1530877, 1531369]",40,R,ITM,1.1,
5,400,trial,0,80,80,80,trial,"['S', 'S', 'S', 'S', 'S', 'S', 'S', 'C', 'C', 'C', 'C', 'C', 'C', 'C', 'C', 'C', 'C', 'C', 'C', 'C', 'C', 'C', 'C']","[1537114, 1537519, 1537887, 1538275, 1538648, 1539056, 1539434, 1539844, 1540243, 1540604, 1540964, 1541328, 1541708, 1542083, 1542416, 1542772, 1543124, 1543476, 1543875, 1544229, 1544601, 1544960, 1545312]","[1537207, 1537582, 1537949, 1538317, 1538713, 1539109, 1539487, 1539929, 1540330, 1540704, 1541051, 1541409, 1541774, 1542145, 1542501, 1542857, 1543193, 1543549, 1543929, 1544298, 1544674, 1545030, 1545381]","[1536758, 1537158, 1537557, 1537957, 1538357, 1538757, 1539158, 1539557, 1539869, 1540269, 1540630, 1540989, 1541354, 1541734, 1542109, 1542441, 1542799, 1543151, 1543501, 1543901, 1544255, 1544627, 1544985, 1545337]",40,R,ITM,1.1,
7,600,trial,0,81,81,81,trial,"['S', 'S', 'S', 'S', 'S', 'S', 'S', 'S', 'C', 'C', 'C', 'C', 'C', 'C', 'C', 'C', 'C', 'C', 'C', 'C', 'C', 'C', 'C', 'C']","[1551085, 1551389, 1551872, 1552436, 1553157, 1553794, 1554371, 1554978, 1555598, 1556158, 1556719, 1557256, 1557823, 1558395, 1558926, 1559450, 1559981, 1560498, 1561011, 1561516, 1562060, 1562556, 1563042, 1563491]","[1551147, 1551500, 1551949, 1552501, 1553206, 1553856, 1554449, 1555033, 1555642, 1556237, 1556798, 1557331, 1557899, 1558462, 1559023, 1559528, 1560062, 1560584, 1561114, 1561604, 1562087, 1562652, 1563154, 1563602]","[1550851, 1551450, 1552050, 1552649, 1553249, 1553849, 1554449, 1555049, 1555625, 1556186, 1556747, 1557282, 1557851, 1558422, 1558952, 1559478, 1560007, 1560524, 1561037, 1561543, 1562087, 1562584, 1563070, 1563518]",40,R,ITM,1.1,
3,600,trial,0,82,82,82,trial,"['S', 'S', 'S', 'S', 'S', 'S', 'S', 'S', 'C', 'C', 'C', 'C', 'C', 'C', 'C', 'C', 'C', 'C', 'C', 'C', 'C', 'C', 'C', 'C']","[1569079, 1569414, 1569957, 1570525, 1571116, 1571715, 1572338, 1572935, 1573517, 1574109, 1574661, 1575211, 1575730, 1576300, 1576800, 1577342, 1577871, 1578394, 1578911, 1579427, 1579973, 1580525, 1581047, 1581571]","[1569166, 1569509, 1570049, 1570636, 1571256, 1571845, 1572469, 1573078, 1573642, 1574205, 1574760, 1575272, 1575826, 1576380, 1576901, 1577409, 1577991, 1578503, 1579019, 1579566, 1580084, 1580623, 1581149, 1581664]","[1568908, 1569507, 1570107, 1570707, 1571307, 1571907, 1572507, 1573107, 1573542, 1574134, 1574686, 1575236, 1575755, 1576326, 1576825, 1577367, 1577896, 1578420, 1578937, 1579453, 1579999, 1580551, 1581073, 1581596]",40,R,ITM,1.1,
3,400,trial,0,83,83,83,trial,"['S', 'S', 'S', 'S', 'S', 'S', 'S', 'S', 'C', 'C', 'C', 'C', 'C', 'C', 'C', 'C', 'C', 'C', 'C', 'C', 'C', 'C', 'C', 'C']","[1587451, 1587813, 1588230, 1588602, 1589035, 1589396, 1589803, 1590213, 1592653, 1593001, 1593367, 1593744, 1594107, 1594476, 1594859, 1595233, 1595619, 1595998, 1596380, 1596734, 1597093, 1597483, 1597842, 1598217]","[1587549, 1587914, 1588323, 1588710, 1589113, 1589515, 1589914, 1590351, 1592728, 1593086, 1593456, 1593832, 1594192, 1594568, 1594951, 1595329, 1595712, 1596083, 1596462, 1596830, 1597213, 1597579, 1597958, 1598313]","[1587272, 1587672, 1588071, 1588471, 1588871, 1589271, 1589671, 1590071, 1592679, 1593026, 1593393, 1593769, 1594133, 1594502, 1594885, 1595258, 1595644, 1596023, 1596405, 1596760, 1597119, 1597508, 1597868, 1598242]",40,R,ITM,1.1,
2,600,trial,0,84,84,84,trial,"['S', 'S', 'S', 'S', 'S', 'S', 'S', 'S', 'C', 'C', 'C', 'C', 'C', 'C', 'C', 'C', 'C', 'C', 'C', 'C', 'C', 'C', 'C', 'C']","[1604278, 1604656, 1605075, 1605677, 1606297, 1606872, 1607422, 1608011, 1608643, 1609196, 1609750, 1610299, 1610830, 1611359, 1611892, 1612434, 1612933, 1613484, 1614001, 1614565, 1615109, 1615623, 1616140, 1616646]","[1604375, 1604745, 1605163, 1605777, 1606403, 1606976, 1607556, 1608105, 1608767, 1609289, 1609856, 1610397, 1610921, 1611451, 1611975, 1612556, 1613069, 1613575, 1614093, 1614621, 1615183, 1615681, 1616224, 1616714]","[1604021, 1604620, 1605220, 1605821, 1606421, 1607021, 1607621, 1608221, 1608671, 1609224, 1609778, 1610326, 1610858, 1611385, 1611920, 1612462, 1612960, 1613511, 1614027, 1614593, 1615136, 1615650, 1616167, 1616672]",40,R,ITM,1.1,
4,600,trial,0,85,85,85,trial,"['S', 'S', 'S', 'S', 'S', 'S', 'S', 'S', 'C', 'C', 'C', 'C', 'C', 'C', 'C', 'C', 'C', 'C', 'C', 'C', 'C', 'C', 'C', 'C']","[1622531, 1622972, 1623382, 1623878, 1624484, 1625048, 1625694, 1626357, 1626936, 1627442, 1627952, 1628454, 1628935, 1629405, 1629871, 1630278, 1630785, 1631261, 1631682, 1632168, 1632625, 1633044, 1633530, 1633980]","[1622616, 1623023, 1623459, 1623961, 1624557, 1625121, 1625778, 1626455, 1627016, 1627528, 1628038, 1628578, 1629043, 1629496, 1629954, 1630381, 1630883, 1631326, 1631774, 1632234, 1632721, 1633171, 1633623, 1634065]","[1622272, 1622872, 1623472, 1624071, 1624671, 1625271, 1625871, 1626471, 1626961, 1627467, 1627977, 1628480, 1628960, 1629430, 1629896, 1630304, 1630811, 1631287, 1631708, 1632194, 1632651, 1633070, 1633556, 1634006]",40,R,ITM,1.1,
6,600,trial,0,86,86,86,trial,"['S', 'S', 'S', 'S', 'S', 'S', 'S', 'S', 'C', 'C', 'C', 'C', 'C', 'C', 'C', 'C', 'C', 'C', 'C', 'C', 'C', 'C', 'C', 'C']","[1639571, 1639874, 1640373, 1640931, 1641481, 1642143, 1642740, 1643381, 1644009, 1644588, 1645139, 1645660, 1646219, 1646785, 1647294, 1647774, 1648299, 1648828, 1649317, 1649800, 1650231, 1650796, 1651349, 1651864]","[1639662, 1639988, 1640483, 1641033, 1641588, 1642236, 1642836, 1643446, 1644089, 1644696, 1645210, 1645731, 1646308, 1646865, 1647384, 1647868, 1648369, 1648909, 1649403, 1649924, 1650383, 1650913, 1651471, 1651964]","[1639358, 1639957, 1640557, 1641157, 1641757, 1642357, 1642957, 1643557, 1644036, 1644614, 1645166, 1645687, 1646245, 1646812, 1647321, 1647802, 1648325, 1648856, 1649344, 1649826, 1650257, 1650824, 1651377, 1651891]",40,R,ITM,1.1,
2,400,trial,0,87,87,87,trial,"['S', 'S', 'S', 'S', 'S', 'S', 'S', 'C', 'C', 'C', 'C', 'C', 'C', 'C', 'C', 'C', 'C', 'C', 'C', 'C', 'C', 'C', 'C']","[1657645, 1658009, 1658419, 1658838, 1659183, 1659606, 1660000, 1660370, 1660763, 1661162, 1661535, 1661906, 1662312, 1662696, 1663079, 1663462, 1663840, 1664264, 1664657, 1665019, 1665369, 1665765, 1666187]","[1657716, 1658085, 1658499, 1658911, 1659279, 1659682, 1660077, 1660474, 1660823, 1661218, 1661609, 1661986, 1662357, 1662763, 1663150, 1663528, 1663902, 1664329, 1664732, 1665117, 1665460, 1665850, 1666265]","[1657265, 1657663, 1658064, 1658464, 1658863, 1659265, 1659664, 1660064, 1660398, 1660790, 1661189, 1661562, 1661934, 1662340, 1662723, 1663106, 1663490, 1663866, 1664290, 1664684, 1665046, 1665395, 1665793, 1666213]",40,R,ITM,1.1,
3,600,trial,0,88,88,88,trial,"['S', 'S', 'S', 'S', 'S', 'S', 'S', 'S', 'C', 'C', 'C', 'C', 'C', 'C', 'C', 'C', 'C', 'C', 'C', 'C', 'C', 'C', 'C', 'C']","[1672245, 1672673, 1673077, 1673635, 1674240, 1674801, 1675407, 1676011, 1676600, 1677169, 1677725, 1678268, 1678804, 1679367, 1679872, 1680427, 1680954, 1681485, 1681982, 1682500, 1683043, 1683549, 1684116, 1684641]","[1672342, 1672795, 1673185, 1673764, 1674345, 1674914, 1675509, 1676112, 1676704, 1677261, 1677818, 1678355, 1678892, 1679439, 1679977, 1680480, 1680979, 1681517, 1682041, 1682540, 1683101, 1683618, 1684160, 1684679]","[1671965, 1672564, 1673164, 1673764, 1674364, 1674964, 1675565, 1676165, 1676625, 1677195, 1677751, 1678294, 1678830, 1679392, 1679897, 1680452, 1680979, 1681511, 1682008, 1682526, 1683068, 1683574, 1684142, 1684667]",40,R,ITM,1.1,
7,400,trial,0,89,89,89,trial,"['S', 'S', 'S', 'S', 'S', 'S', 'S', 'C', 'C', 'C', 'C', 'C', 'C', 'C', 'C', 'C', 'C', 'C', 'C', 'C', 'C', 'C', 'C']","[1690762, 1691131, 1691557, 1691960, 1692398, 1692785, 1693195, 1693563, 1693965, 1694347, 1694721, 1695123, 1695484, 1695895, 1696267, 1696634, 1697016, 1697366, 1697731, 1698132, 1698486, 1698880, 1699266]","[1690839, 1691232, 1691633, 1692042, 1692462, 1692846, 1693234, 1693643, 1694012, 1694413, 1694784, 1695169, 1695560, 1695947, 1696332, 1696704, 1697094, 1697436, 1697800, 1698167, 1698539, 1698936, 1699318]","[1690433, 1690832, 1691232, 1691632, 1692033, 1692432, 1692832, 1693233, 1693591, 1693991, 1694373, 1694748, 1695151, 1695511, 1695923, 1696294, 1696662, 1697043, 1697392, 1697758, 1698158, 1698513, 1698907, 1699294]",40,R,ITM,1.1,
5,600,trial,0,90,90,90,trial,"['S', 'S', 'S', 'S', 'S', 'S', 'S', 'S', 'C', 'C', 'C', 'C', 'C', 'C', 'C', 'C', 'C', 'C', 'C', 'C', 'C', 'C', 'C', 'C']","[1705295, 1705706, 1706132, 1706658, 1707187, 1707741, 1708344, 1708955, 1709540, 1710055, 1710515, 1711006, 1711462, 1711913, 1712366, 1712769, 1713193, 1713611, 1714031, 1714446, 1714870, 1716393, 1716791, 1717214]","[1705344, 1705777, 1706177, 1706712, 1707240, 1707803, 1708407, 1709016, 1709612, 1710112, 1710596, 1711074, 1711515, 1711987, 1712409, 1712858, 1713253, 1713674, 1714101, 1714504, 1714906, 1716473, 1716873, 1717306]","[1705069, 1705668, 1706268, 1706868, 1707468, 1708068, 1708668, 1709268, 1709566, 1710082, 1710541, 1711032, 1711489, 1711939, 1712392, 1712794, 1713219, 1713637, 1714057, 1714472, 1714895, 1716419, 1716817, 1717240]",40,R,ITM,1.1,
5,400,trial,0,91,91,91,trial,"['S', 'S', 'S', 'S', 'S', 'S', 'S', 'C', 'C', 'C', 'C', 'C', 'C', 'C', 'C', 'C', 'C', 'C', 'C', 'C', 'C', 'C', 'C']","[1722875, 1723245, 1723673, 1724077, 1724452, 1724853, 1725259, 1725668, 1726068, 1726430, 1726803, 1727206, 1728013, 1728397, 1728814, 1729214, 1729574, 1729952, 1730316, 1730674, 1731072, 1731402, 1731792]","[1722927, 1723334, 1723750, 1724145, 1724547, 1724926, 1725323, 1725711, 1726119, 1726482, 1726869, 1727245, 1728094, 1728463, 1728854, 1729255, 1729645, 1730023, 1730391, 1730745, 1731115, 1731502, 1731869]","[1722544, 1722943, 1723343, 1723743, 1724143, 1724544, 1724943, 1725343, 1725693, 1726094, 1726456, 1726829, 1727232, 1728039, 1728422, 1728839, 1729241, 1729600, 1729978, 1730342, 1730700, 1731098, 1731428, 1731818]",40,R,ITM,1.1,
7,400,trial,0,92,92,92,trial,"['S', 'S', 'S', 'S', 'S', 'S', 'S', 'C', 'C', 'C', 'C', 'C', 'C', 'C', 'C', 'C', 'C', 'C', 'C', 'C', 'C', 'C', 'C']","[1737829, 1738257, 1738707, 1739142, 1739515, 1739928, 1740349, 1740726, 1741132, 1741487, 1741907, 1742288, 1742672, 1743085, 1743515, 1743883, 1744276, 1744693, 1745088, 1745481, 1745812, 1746254, 1746653]","[1737946, 1738361, 1738804, 1739245, 1739634, 1740053, 1740447, 1740857, 1741247, 1741628, 1742021, 1742393, 1742760, 1743198, 1743617, 1743993, 1744371, 1744784, 1745169, 1745557, 1745911, 1746324, 1746748]","[1737596, 1737995, 1738395, 1738796, 1739195, 1739595, 1739996, 1740395, 1740753, 1741160, 1741513, 1741934, 1742315, 1742700, 1743113, 1743542, 1743910, 1744303, 1744719, 1745116, 1745508, 1745839, 1746281, 1746680]",40,R,ITM,1.1,
4,400,trial,0,93,93,93,trial,"['S', 'S', 'S', 'S', 'S', 'S', 'S', 'C', 'C', 'C', 'C', 'C', 'C', 'C', 'C', 'C', 'C', 'C', 'C', 'C', 'C', 'C', 'C']","[1752297, 1752728, 1753152, 1753588, 1754001, 1754378, 1754748, 1755145, 1755561, 1755913, 1756308, 1756682, 1757063, 1757479, 1757862, 1758221, 1758614, 1758981, 1759347, 1759708, 1760096, 1760458, 1760845]","[1752380, 1752800, 1753239, 1753679, 1754088, 1754470, 1754848, 1755241, 1755642, 1756023, 1756393, 1756774, 1757133, 1757517, 1757937, 1758322, 1758694, 1759071, 1759428, 1759827, 1760192, 1760561, 1760922]","[1752049, 1752449, 1752848, 1753248, 1753649, 1754048, 1754448, 1754848, 1755170, 1755587, 1755938, 1756334, 1756707, 1757088, 1757505, 1757888, 1758246, 1758640, 1759006, 1759374, 1759733, 1760121, 1760484, 1760871]",40,R,ITM,1.1,
4,600,trial,0,94,94,94,trial,"['S', 'S', 'S', 'S', 'S', 'S', 'S', 'C', 'C', 'C', 'C', 'C', 'C', 'C', 'C', 'C', 'C', 'C', 'C', 'C', 'C', 'C', 'C']","[1766660, 1767406, 1768032, 1768660, 1769333, 1769952, 1770549, 1771184, 1771749, 1772327, 1772871, 1773422, 1773974, 1774526, 1775060, 1775594, 1776129, 1776668, 1777218, 1777724, 1778273, 1778745, 1779234]","[1766732, 1767477, 1768119, 1768764, 1769421, 1770014, 1770624, 1771235, 1771810, 1772382, 1772960, 1773518, 1774058, 1774611, 1775149, 1775707, 1776208, 1776766, 1777293, 1777837, 1778371, 1778859, 1779335]","[1766438, 1767037, 1767638, 1768238, 1768838, 1769437, 1770037, 1770637, 1771209, 1771774, 1772353, 1772897, 1773448, 1774000, 1774552, 1775086, 1775621, 1776154, 1776694, 1777244, 1777750, 1778298, 1778770, 1779260]",40,R,ITM,1.1,
6,400,trial,0,95,95,95,trial,"['S', 'S', 'S', 'S', 'S', 'S', 'S', 'C', 'C', 'C', 'C', 'C', 'C', 'C', 'C', 'C', 'C', 'C', 'C', 'C', 'C', 'C', 'C']","[1785072, 1785440, 1785909, 1786375, 1786767, 1787206, 1787630, 1788029, 1788398, 1788785, 1789167, 1789552, 1789930, 1790312, 1790760, 1791183, 1791548, 1791983, 1792327, 1792745, 1793081, 1793504, 1793845]","[1785155, 1785523, 1786000, 1786433, 1786839, 1787287, 1787689, 1788087, 1788486, 1788844, 1789230, 1789581, 1789990, 1790345, 1790825, 1791210, 1791609, 1792010, 1792414, 1792843, 1793185, 1793605, 1793954]","[1784862, 1785262, 1785661, 1786061, 1786462, 1786862, 1787262, 1787662, 1788057, 1788425, 1788812, 1789194, 1789579, 1789958, 1790339, 1790788, 1791210, 1791576, 1792010, 1792355, 1792773, 1793108, 1793530, 1793871]",40,R,ITM,1.1,
3,400,trial,0,96,96,96,trial,"['S', 'S', 'S', 'S', 'S', 'S', 'S', 'C', 'C', 'C', 'C', 'C', 'C', 'C', 'C', 'C', 'C', 'C', 'C', 'C', 'C', 'C', 'C']","[1799500, 1799925, 1800329, 1800777, 1801192, 1801617, 1802023, 1802408, 1802831, 1803253, 1803635, 1804045, 1804421, 1804802, 1805176, 1805591, 1805955, 1806334, 1806724, 1807119, 1807493, 1807848, 1808234]","[1799586, 1799995, 1800415, 1800843, 1801259, 1801667, 1802090, 1802493, 1802857, 1803327, 1803729, 1804142, 1804497, 1804888, 1805257, 1805676, 1806049, 1806412, 1806809, 1807171, 1807578, 1807967, 1808316]","[1799259, 1799658, 1800058, 1800458, 1800858, 1801259, 1801658, 1802058, 1802434, 1802857, 1803279, 1803661, 1804070, 1804446, 1804827, 1805202, 1805617, 1805980, 1806360, 1806749, 1807144, 1807518, 1807874, 1808260]",40,R,ITM,1.1,
4,400,trial,0,97,97,97,trial,"['S', 'S', 'S', 'S', 'S', 'S', 'S', 'C', 'C', 'C', 'C', 'C', 'C', 'C', 'C', 'C', 'C', 'C', 'C', 'C', 'C', 'C', 'C']","[1813900, 1814344, 1814782, 1815223, 1815595, 1816051, 1816430, 1816838, 1817235, 1817646, 1818046, 1818393, 1818806, 1819190, 1819588, 1819950, 1820341, 1820769, 1821182, 1821577, 1821957, 1822364, 1822753]","[1813969, 1814456, 1814886, 1815293, 1815666, 1816119, 1816511, 1816900, 1817302, 1817691, 1818119, 1818497, 1818872, 1819275, 1819661, 1820055, 1820413, 1820796, 1821263, 1821642, 1822026, 1822441, 1822810]","[1813666, 1814066, 1814466, 1814866, 1815266, 1815666, 1816067, 1816466, 1816863, 1817261, 1817672, 1818072, 1818419, 1818831, 1819215, 1819614, 1819975, 1820366, 1820794, 1821209, 1821602, 1821982, 1822391, 1822779]",40,R,ITM,1.1,
2,600,trial,0,98,98,98,trial,"['S', 'S', 'S', 'S', 'S', 'S', 'S', 'S', 'C', 'C', 'C', 'C', 'C', 'C', 'C', 'C', 'C', 'C', 'C', 'C', 'C', 'C', 'C', 'C']","[1828652, 1829059, 1829458, 1830028, 1830649, 1831225, 1831826, 1832371, 1832972, 1833504, 1834039, 1834593, 1835121, 1835667, 1836176, 1836684, 1837180, 1837701, 1838204, 1838717, 1839249, 1839787, 1840291, 1840781]","[1828721, 1829146, 1829562, 1830103, 1830732, 1831308, 1831901, 1832485, 1833090, 1833582, 1834128, 1834671, 1835201, 1835724, 1836203, 1836750, 1837238, 1837788, 1838265, 1838769, 1839327, 1839836, 1840366, 1840856]","[1828362, 1828962, 1829561, 1830162, 1830762, 1831362, 1831962, 1832562, 1832998, 1833531, 1834066, 1834619, 1835149, 1835695, 1836203, 1836710, 1837208, 1837727, 1838231, 1838745, 1839276, 1839814, 1840319, 1840808]",40,R,ITM,1.1,
2,400,trial,0,99,99,99,trial,"['S', 'S', 'S', 'S', 'S', 'S', 'S', 'C', 'C', 'C', 'C', 'C', 'C', 'C', 'C', 'C', 'C', 'C', 'C', 'C', 'C', 'C', 'C']","[1846776, 1847242, 1847648, 1848054, 1848474, 1848914, 1849315, 1849720, 1850112, 1850480, 1850878, 1851231, 1851638, 1852008, 1852384, 1852789, 1853164, 1853549, 1853919, 1854279, 1854672, 1855042, 1855416]","[1846868, 1847310, 1847715, 1848124, 1848543, 1848985, 1849356, 1849783, 1850167, 1850525, 1850921, 1851323, 1851679, 1852067, 1852453, 1852853, 1853234, 1853633, 1854014, 1854362, 1854735, 1855129, 1855500]","[1846566, 1846965, 1847365, 1847767, 1848166, 1848566, 1848967, 1849366, 1849747, 1850138, 1850508, 1850906, 1851258, 1851666, 1852036, 1852411, 1852817, 1853192, 1853576, 1853946, 1854307, 1854699, 1855069, 1855442]",40,R,ITM,1.1,
7,600,trial,0,100,100,100,trial,"['S', 'S', 'S', 'S', 'S', 'S', 'S', 'S', 'C', 'C', 'C', 'C', 'C', 'C', 'C', 'C', 'C', 'C', 'C', 'C', 'C', 'C', 'C', 'C']","[1860858, 1861219, 1861850, 1862478, 1863130, 1863657, 1864260, 1864821, 1865444, 1865975, 1866511, 1867057, 1867593, 1868109, 1868603, 1869121, 1869603, 1870134, 1870622, 1871101, 1871580, 1872046, 1872520, 1872949]","[1860932, 1861295, 1861920, 1862551, 1863187, 1863758, 1864318, 1864906, 1865510, 1866052, 1866618, 1867155, 1867697, 1868199, 1868716, 1869221, 1869686, 1870212, 1870702, 1871204, 1871664, 1872114, 1872583, 1873036]","[1860788, 1861387, 1861987, 1862587, 1863187, 1863787, 1864387, 1864987, 1865472, 1866002, 1866539, 1867083, 1867620, 1868136, 1868631, 1869148, 1869630, 1870160, 1870649, 1871128, 1871607, 1872073, 1872547, 1872975]",40,R,ITM,1.1,
6,400,trial,0,101,101,101,trial,"['S', 'S', 'S', 'S', 'S', 'S', 'S', 'C', 'C', 'C', 'C', 'C', 'C', 'C', 'C', 'C', 'C', 'C', 'C', 'C', 'C', 'C', 'C']","[1878682, 1879058, 1879445, 1879888, 1880334, 1880768, 1881235, 1881650, 1882025, 1882433, 1882807, 1883207, 1883571, 1883978, 1884337, 1884706, 1885090, 1885463, 1885853, 1886212, 1886594, 1886934, 1887281]","[1878746, 1879122, 1879530, 1879968, 1880408, 1880844, 1881315, 1881716, 1882113, 1882522, 1882894, 1883278, 1883661, 1884050, 1884428, 1884796, 1885157, 1885568, 1885948, 1886298, 1886683, 1887028, 1887389]","[1878516, 1878916, 1879315, 1879715, 1880115, 1880515, 1880915, 1881315, 1881677, 1882051, 1882460, 1882833, 1883234, 1883598, 1884005, 1884363, 1884733, 1885117, 1885490, 1885881, 1886238, 1886620, 1886961, 1887307]",40,R,ITM,1.1,
7,400,trial,0,102,102,102,trial,"['S', 'S', 'S', 'S', 'S', 'S', 'S', 'S', 'C', 'C', 'C', 'C', 'C', 'C', 'C', 'C', 'C', 'C', 'C', 'C', 'C', 'C', 'C', 'C']","[1892836, 1893136, 1893470, 1893801, 1894166, 1894534, 1894928, 1895312, 1895695, 1896067, 1896467, 1896840, 1897207, 1897563, 1897961, 1898296, 1898676, 1899058, 1899438, 1899787, 1900132, 1900470, 1900914, 1901303]","[1892902, 1893217, 1893551, 1893881, 1894247, 1894615, 1894988, 1895389, 1895777, 1896163, 1896554, 1896940, 1897316, 1897669, 1898043, 1898409, 1898771, 1899132, 1899532, 1899882, 1900224, 1900582, 1900996, 1901386]","[1892611, 1893010, 1893410, 1893811, 1894211, 1894611, 1895011, 1895411, 1895721, 1896094, 1896494, 1896867, 1897234, 1897589, 1897988, 1898323, 1898703, 1899085, 1899464, 1899813, 1900158, 1900496, 1900941, 1901331]",40,R,ITM,1.1,
3,600,trial,0,103,103,103,trial,"['S', 'S', 'S', 'S', 'S', 'S', 'S', 'S', 'C', 'C', 'C', 'C', 'C', 'C', 'C', 'C', 'C', 'C', 'C', 'C', 'C', 'C', 'C', 'C']","[1907301, 1907767, 1908194, 1908706, 1909250, 1909819, 1910419, 1911027, 1911643, 1912166, 1912714, 1913239, 1913726, 1914236, 1914713, 1915170, 1915655, 1916129, 1916642, 1917080, 1917605, 1918074, 1918598, 1919051]","[1907382, 1907841, 1908247, 1908770, 1909330, 1909892, 1910470, 1911113, 1911689, 1912251, 1912807, 1913324, 1913857, 1914334, 1914816, 1915286, 1915763, 1916232, 1916745, 1917181, 1917716, 1918228, 1918717, 1919171]","[1907011, 1907611, 1908211, 1908811, 1909411, 1910011, 1910611, 1911212, 1911668, 1912192, 1912739, 1913265, 1913751, 1914262, 1914738, 1915196, 1915680, 1916154, 1916667, 1917106, 1917631, 1918100, 1918623, 1919077]",40,R,ITM,1.1,
4,600,trial,0,104,104,104,trial,"['S', 'S', 'S', 'S', 'S', 'S', 'S', 'S', 'C', 'C', 'C', 'C', 'C', 'C', 'C', 'C', 'C', 'C', 'C', 'C', 'C', 'C', 'C', 'C']","[1924897, 1925236, 1925714, 1926324, 1926917, 1927541, 1928143, 1928731, 1929317, 1929852, 1930382, 1930932, 1931448, 1931945, 1932440, 1932958, 1933436, 1933975, 1934442, 1934912, 1935412, 1935927, 1936415, 1936910]","[1924998, 1925312, 1925814, 1926386, 1926980, 1927627, 1928223, 1928827, 1929384, 1929938, 1930467, 1931010, 1931536, 1932054, 1932549, 1933045, 1933529, 1934060, 1934543, 1935022, 1935594, 1936055, 1936480, 1936995]","[1924733, 1925332, 1925933, 1926533, 1927133, 1927733, 1928333, 1928933, 1929342, 1929878, 1930407, 1930958, 1931474, 1931972, 1932466, 1932984, 1933463, 1934001, 1934468, 1934938, 1935438, 1935952, 1936441, 1936936]",40,R,ITM,1.1,
4,400,trial,0,105,105,105,trial,"['S', 'S', 'S', 'S', 'S', 'S', 'S', 'C', 'C', 'C', 'C', 'C', 'C', 'C', 'C', 'C', 'C', 'C', 'C', 'C', 'C', 'C', 'C']","[1942726, 1943233, 1943667, 1944115, 1944443, 1944858, 1945252, 1945676, 1946005, 1946390, 1946776, 1947144, 1947513, 1947920, 1948262, 1948646, 1948992, 1949393, 1949731, 1950174, 1950537, 1950945, 1951311]","[1942790, 1943315, 1943695, 1944179, 1944527, 1944923, 1945315, 1945741, 1946108, 1946490, 1946851, 1947229, 1947595, 1947978, 1948371, 1948735, 1949062, 1949463, 1949842, 1950251, 1950645, 1951024, 1951397]","[1942516, 1942916, 1943315, 1943715, 1944115, 1944515, 1944915, 1945315, 1945702, 1946031, 1946416, 1946802, 1947169, 1947539, 1947945, 1948288, 1948672, 1949018, 1949419, 1949757, 1950199, 1950563, 1950970, 1951337]",40,R,ITM,1.1,
2,400,trial,0,106,106,106,trial,"['S', 'S', 'S', 'S', 'S', 'S', 'S', 'C', 'C', 'C', 'C', 'C', 'C', 'C', 'C', 'C', 'C', 'C', 'C', 'C', 'C', 'C', 'C']","[1957278, 1957713, 1958124, 1958546, 1958955, 1959346, 1959749, 1960166, 1960563, 1960962, 1961322, 1961692, 1962092, 1962473, 1962857, 1963211, 1963582, 1964005, 1964346, 1964765, 1965152, 1965485, 1965874]","[1957365, 1957788, 1958197, 1958629, 1959038, 1959425, 1959822, 1960232, 1960627, 1961033, 1961403, 1961783, 1962160, 1962565, 1962933, 1963305, 1963684, 1964080, 1964441, 1964823, 1965198, 1965596, 1965963]","[1957021, 1957422, 1957820, 1958220, 1958622, 1959021, 1959421, 1959821, 1960194, 1960591, 1960988, 1961350, 1961719, 1962120, 1962501, 1962884, 1963238, 1963610, 1964032, 1964372, 1964792, 1965179, 1965511, 1965900]",40,R,ITM,1.1,
7,600,trial,0,107,107,107,trial,"['S', 'S', 'S', 'S', 'S', 'S', 'S', 'S', 'C', 'C', 'C', 'C', 'C', 'C', 'C', 'C', 'C', 'C', 'C', 'C', 'C', 'C', 'C', 'C']","[1971916, 1972294, 1972648, 1973145, 1973733, 1974349, 1974935, 1975539, 1976172, 1976713, 1977247, 1977754, 1978292, 1978768, 1979264, 1979785, 1980293, 1980762, 1981252, 1981704, 1982200, 1982676, 1983150, 1983632]","[1971987, 1972378, 1972739, 1973226, 1973848, 1974432, 1975019, 1975590, 1976247, 1976788, 1977333, 1977832, 1978351, 1978843, 1979313, 1979851, 1980356, 1980856, 1981336, 1981790, 1982296, 1982740, 1983201, 1983707]","[1971551, 1972150, 1972750, 1973350, 1973950, 1974550, 1975150, 1975750, 1976199, 1976739, 1977275, 1977782, 1978318, 1978796, 1979291, 1979812, 1980319, 1980789, 1981279, 1981730, 1982228, 1982704, 1983177, 1983659]",40,R,ITM,1.1,
5,400,trial,0,108,108,108,trial,"['S', 'S', 'S', 'S', 'S', 'S', 'S', 'C', 'C', 'C', 'C', 'C', 'C', 'C', 'C', 'C', 'C', 'C', 'C', 'C', 'C', 'C', 'C']","[1989439, 1989829, 1990250, 1990685, 1991063, 1991483, 1991895, 1992294, 1992702, 1993088, 1993476, 1993837, 1994231, 1994594, 1994992, 1995364, 1995716, 1996130, 1996510, 1996871, 1997232, 1997640, 1998011]","[1989513, 1989904, 1990324, 1990751, 1991137, 1991531, 1991960, 1992320, 1992728, 1993162, 1993549, 1993943, 1994299, 1994668, 1995054, 1995442, 1995782, 1996207, 1996596, 1996973, 1997317, 1997727, 1998105]","[1989178, 1989578, 1989979, 1990378, 1990778, 1991178, 1991578, 1991979, 1992320, 1992728, 1993113, 1993502, 1993863, 1994257, 1994619, 1995018, 1995390, 1995742, 1996155, 1996535, 1996897, 1997257, 1997666, 1998036]",40,R,ITM,1.1,
3,400,trial,0,109,109,109,trial,"['S', 'S', 'S', 'S', 'S', 'S', 'S', 'C', 'C', 'C', 'C', 'C', 'C', 'C', 'C', 'C', 'C', 'C', 'C', 'C', 'C', 'C', 'C']","[2003865, 2004256, 2004696, 2005061, 2005477, 2005866, 2006288, 2006654, 2007042, 2007410, 2007823, 2008209, 2008555, 2008948, 2009354, 2009735, 2010096, 2010533, 2010905, 2011346, 2011792, 2012193, 2012605]","[2003963, 2004356, 2004780, 2005160, 2005557, 2005968, 2006369, 2006732, 2007121, 2007518, 2007909, 2008297, 2008651, 2009020, 2009453, 2009826, 2010185, 2010606, 2010971, 2011410, 2011868, 2012267, 2012674]","[2003555, 2003955, 2004356, 2004755, 2005155, 2005555, 2005955, 2006355, 2006680, 2007067, 2007436, 2007848, 2008235, 2008581, 2008974, 2009379, 2009760, 2010122, 2010559, 2010931, 2011372, 2011817, 2012219, 2012631]",40,R,ITM,1.1,
7,400,trial,0,110,110,110,trial,"['S', 'S', 'S', 'S', 'S', 'S', 'S', 'C', 'C', 'C', 'C', 'C', 'C', 'C', 'C', 'C', 'C', 'C', 'C', 'C', 'C', 'C', 'C']","[2018708, 2019106, 2019483, 2019905, 2020255, 2020676, 2021058, 2021450, 2021838, 2022190, 2022564, 2022915, 2023262, 2023677, 2024096, 2024528, 2024878, 2025269, 2025654, 2026055, 2026432, 2026855, 2027241]","[2018793, 2019202, 2019581, 2019979, 2020354, 2020751, 2021145, 2021533, 2021925, 2022284, 2022653, 2023024, 2023375, 2023774, 2024202, 2024591, 2024970, 2025360, 2025716, 2026138, 2026489, 2026926, 2027321]","[2018347, 2018745, 2019145, 2019546, 2019945, 2020345, 2020745, 2021145, 2021478, 2021865, 2022216, 2022591, 2022942, 2023288, 2023705, 2024123, 2024556, 2024905, 2025296, 2025680, 2026083, 2026459, 2026883, 2027269]",40,R,ITM,1.1,
3,600,trial,0,111,111,111,trial,"['S', 'S', 'S', 'S', 'S', 'S', 'S', 'S', 'C', 'C', 'C', 'C', 'C', 'C', 'C', 'C', 'C', 'C', 'C', 'C', 'C', 'C', 'C', 'C']","[2033272, 2033700, 2034066, 2034624, 2035185, 2035787, 2036435, 2037005, 2037608, 2038100, 2038572, 2039059, 2039510, 2039920, 2040379, 2040848, 2041293, 2041747, 2042189, 2042550, 2043021, 2043457, 2043880, 2044306]","[2033363, 2033777, 2034140, 2034704, 2035264, 2035807, 2036494, 2037101, 2037701, 2038195, 2038697, 2039161, 2039632, 2040042, 2040494, 2040933, 2041414, 2041823, 2042253, 2042653, 2043055, 2043541, 2043966, 2044380]","[2033033, 2033632, 2034232, 2034832, 2035432, 2036032, 2036632, 2037232, 2037634, 2038126, 2038597, 2039085, 2039535, 2039946, 2040404, 2040873, 2041319, 2041773, 2042215, 2042575, 2043046, 2043483, 2043906, 2044332]",40,R,ITM,1.1,
6,400,trial,0,112,112,112,trial,"['S', 'S', 'S', 'S', 'S', 'S', 'S', 'S', 'C', 'C', 'C', 'C', 'C', 'C', 'C', 'C', 'C', 'C', 'C', 'C', 'C', 'C', 'C', 'C']","[2050284, 2050601, 2050948, 2051279, 2051672, 2052012, 2052398, 2052783, 2053191, 2053596, 2053962, 2054396, 2054795, 2055145, 2055527, 2055949, 2056354, 2056740, 2057131, 2057531, 2057920, 2058297, 2058734, 2059091]","[2050348, 2050684, 2051038, 2051394, 2051750, 2052099, 2052484, 2052878, 2053277, 2053667, 2054055, 2054463, 2054854, 2055234, 2055617, 2056026, 2056431, 2056810, 2057216, 2057614, 2058023, 2058406, 2058800, 2059196]","[2050070, 2050470, 2050870, 2051270, 2051671, 2052070, 2052470, 2052871, 2053218, 2053622, 2053990, 2054423, 2054821, 2055173, 2055554, 2055976, 2056381, 2056767, 2057157, 2057559, 2057948, 2058324, 2058762, 2059118]",40,R,ITM,1.1,
4,600,trial,0,113,113,113,trial,"['S', 'S', 'S', 'S', 'S', 'S', 'S', 'S', 'C', 'C', 'C', 'C', 'C', 'C', 'C', 'C', 'C', 'C', 'C', 'C', 'C', 'C', 'C', 'C']","[2064896, 2065309, 2065624, 2066148, 2066763, 2067324, 2067985, 2068583, 2069141, 2069737, 2070277, 2070771, 2071286, 2071754, 2072261, 2072737, 2073196, 2073689, 2074133, 2074648, 2075127, 2075561, 2076009, 2076478]","[2064970, 2065391, 2065714, 2066239, 2066855, 2067400, 2068059, 2068661, 2069221, 2069811, 2070343, 2070849, 2071365, 2071847, 2072339, 2072787, 2073285, 2073742, 2074190, 2074684, 2075189, 2075660, 2076123, 2076579]","[2064516, 2065115, 2065714, 2066314, 2066914, 2067514, 2068114, 2068714, 2069168, 2069763, 2070303, 2070797, 2071312, 2071780, 2072287, 2072763, 2073222, 2073715, 2074159, 2074674, 2075153, 2075587, 2076035, 2076505]",40,R,ITM,1.1,
6,400,trial,0,114,114,114,trial,"['S', 'S', 'S', 'S', 'S', 'S', 'S', 'C', 'C', 'C', 'C', 'C', 'C', 'C', 'C', 'C', 'C', 'C', 'C', 'C', 'C', 'C', 'C']","[2082639, 2082976, 2083376, 2083800, 2084188, 2084563, 2084995, 2085364, 2085743, 2086133, 2086508, 2086885, 2087244, 2087649, 2087966, 2088366, 2088766, 2089163, 2089538, 2089905, 2090274, 2090677, 2091045]","[2082715, 2083070, 2083457, 2083887, 2084269, 2084654, 2085072, 2085444, 2085824, 2086216, 2086578, 2086975, 2087331, 2087725, 2088089, 2088460, 2088820, 2089230, 2089622, 2090017, 2090384, 2090763, 2091072]","[2082240, 2082639, 2083039, 2083439, 2083840, 2084239, 2084639, 2085040, 2085391, 2085771, 2086160, 2086536, 2086913, 2087271, 2087675, 2087993, 2088392, 2088794, 2089190, 2089566, 2089931, 2090302, 2090703, 2091072]",40,R,ITM,1.1,
3,400,trial,0,115,115,115,trial,"['S', 'S', 'S', 'S', 'S', 'S', 'S', 'C', 'C', 'C', 'C', 'C', 'C', 'C', 'C', 'C', 'C', 'C', 'C', 'C', 'C', 'C', 'C']","[2096879, 2097230, 2097646, 2098103, 2098524, 2098924, 2099344, 2099723, 2100110, 2100454, 2100834, 2101170, 2101547, 2101922, 2102321, 2102671, 2103049, 2103419, 2103796, 2104148, 2104530, 2104899, 2105273]","[2096959, 2097314, 2097740, 2098200, 2098613, 2099005, 2099411, 2099828, 2100186, 2100543, 2100888, 2101262, 2101614, 2102000, 2102395, 2102752, 2103138, 2103516, 2103886, 2104252, 2104631, 2105007, 2105360]","[2096653, 2097052, 2097453, 2097852, 2098252, 2098653, 2099053, 2099453, 2099748, 2100135, 2100480, 2100859, 2101195, 2101572, 2101948, 2102346, 2102696, 2103074, 2103445, 2103822, 2104174, 2104556, 2104925, 2105298]",40,R,ITM,1.1,
2,400,trial,0,116,116,116,trial,"['S', 'S', 'S', 'S', 'S', 'S', 'S', 'S', 'C', 'C', 'C', 'C', 'C', 'C', 'C', 'C', 'C', 'C', 'C', 'C', 'C', 'C', 'C', 'C']","[2111125, 2111489, 2111769, 2112122, 2112493, 2112865, 2113268, 2113688, 2114053, 2114452, 2114842, 2115248, 2115641, 2116021, 2116419, 2116820, 2117189, 2117587, 2117956, 2118350, 2118737, 2119119, 2119493, 2119875]","[2111211, 2111545, 2111846, 2112186, 2112562, 2112936, 2113331, 2113755, 2114128, 2114524, 2114917, 2115330, 2115722, 2116097, 2116499, 2116869, 2117276, 2117644, 2118046, 2118423, 2118824, 2119203, 2119584, 2119962]","[2110921, 2111323, 2111721, 2112122, 2112522, 2112922, 2113321, 2113722, 2114080, 2114479, 2114870, 2115275, 2115667, 2116048, 2116446, 2116847, 2117217, 2117614, 2117984, 2118378, 2118765, 2119146, 2119521, 2119902]",40,R,ITM,1.1,
5,600,trial,0,117,117,117,trial,"['S', 'S', 'S', 'S', 'S', 'S', 'S', 'S', 'C', 'C', 'C', 'C', 'C', 'C', 'C', 'C', 'C', 'C', 'C', 'C', 'C', 'C', 'C', 'C']","[2125642, 2125955, 2126439, 2127021, 2127635, 2128227, 2128786, 2129411, 2130013, 2130555, 2131075, 2131584, 2132079, 2132558, 2133072, 2133525, 2133997, 2134438, 2134885, 2135323, 2135769, 2136172, 2136621, 2137040]","[2125721, 2126040, 2126512, 2127092, 2127718, 2128294, 2128859, 2129467, 2130069, 2130620, 2131119, 2131625, 2132126, 2132631, 2133131, 2133599, 2134073, 2134531, 2134982, 2135408, 2135854, 2136275, 2136697, 2137118]","[2125437, 2126036, 2126637, 2127237, 2127837, 2128437, 2129037, 2129637, 2130038, 2130581, 2131100, 2131609, 2132105, 2132584, 2133099, 2133552, 2134023, 2134464, 2134910, 2135349, 2135795, 2136198, 2136646, 2137066]",40,R,ITM,1.1,
7,600,trial,0,118,118,118,trial,"['S', 'S', 'S', 'S', 'S', 'S', 'S', 'S', 'C', 'C', 'C', 'C', 'C', 'C', 'C', 'C', 'C', 'C', 'C', 'C', 'C', 'C', 'C', 'C']","[2143015, 2143385, 2143812, 2144371, 2144966, 2145628, 2146170, 2146761, 2147384, 2147908, 2148419, 2148927, 2149433, 2149917, 2150394, 2150895, 2151388, 2151848, 2152329, 2152795, 2153273, 2153735, 2154182, 2154654]","[2143097, 2143466, 2143904, 2144437, 2145070, 2145684, 2146250, 2146844, 2147451, 2147982, 2148490, 2148987, 2149497, 2149945, 2150469, 2150946, 2151414, 2151888, 2152377, 2152857, 2153342, 2153839, 2154298, 2154752]","[2142786, 2143385, 2143985, 2144585, 2145185, 2145785, 2146385, 2146985, 2147410, 2147935, 2148447, 2148954, 2149459, 2149945, 2150422, 2150922, 2151414, 2151875, 2152356, 2152821, 2153300, 2153761, 2154209, 2154681]",40,R,ITM,1.1,
4,400,trial,0,119,119,119,trial,"['S', 'S', 'S', 'S', 'S', 'S', 'S', 'C', 'C', 'C', 'C', 'C', 'C', 'C', 'C', 'C', 'C', 'C', 'C', 'C', 'C', 'C', 'C']","[2160456, 2160811, 2161210, 2161595, 2162070, 2162507, 2162931, 2163348, 2163714, 2164102, 2164473, 2164851, 2165201, 2165567, 2165924, 2166295, 2166649, 2166999, 2167368, 2167699, 2168056, 2168410, 2168748]","[2160518, 2160869, 2161255, 2161689, 2162145, 2162582, 2163035, 2163433, 2163790, 2164171, 2164558, 2164921, 2165288, 2165633, 2165998, 2166362, 2166711, 2167066, 2167430, 2167781, 2168119, 2168474, 2168818]","[2160234, 2160634, 2161034, 2161434, 2161835, 2162234, 2162634, 2163035, 2163374, 2163739, 2164127, 2164499, 2164877, 2165228, 2165593, 2165950, 2166321, 2166676, 2167025, 2167395, 2167725, 2168083, 2168435, 2168773]",40,R,ITM,1.1,
2,600,trial,0,120,120,120,trial,"['S', 'S', 'S', 'S', 'S', 'S', 'S', 'S', 'C', 'C', 'C', 'C', 'C', 'C', 'C', 'C', 'C', 'C', 'C', 'C', 'C', 'C', 'C', 'C']","[2174759, 2175140, 2175569, 2176097, 2176710, 2177291, 2177860, 2178473, 2179110, 2179688, 2180217, 2180737, 2181269, 2181786, 2182282, 2182785, 2183307, 2183829, 2184373, 2184888, 2185409, 2185945, 2186417, 2186931]","[2174838, 2175217, 2175631, 2176178, 2176808, 2177347, 2177930, 2178561, 2179183, 2179759, 2180327, 2180813, 2181327, 2181884, 2182361, 2182831, 2183363, 2183915, 2184424, 2184950, 2185507, 2186038, 2186514, 2186998]","[2174464, 2175064, 2175664, 2176264, 2176863, 2177463, 2178063, 2178663, 2179138, 2179715, 2180245, 2180763, 2181297, 2181814, 2182309, 2182811, 2183334, 2183856, 2184399, 2184915, 2185437, 2185972, 2186443, 2186958]",40,R,ITM,1.1,
5,400,trial,0,121,121,121,trial,"['S', 'S', 'S', 'S', 'S', 'S', 'S', 'C', 'C', 'C', 'C', 'C', 'C', 'C', 'C', 'C', 'C', 'C', 'C', 'C', 'C', 'C', 'C']","[2192497, 2192885, 2193332, 2193781, 2194192, 2194585, 2195019, 2195429, 2195841, 2196227, 2196641, 2197046, 2197489, 2197886, 2198347, 2198714, 2199162, 2199550, 2199960, 2200347, 2200739, 2201179, 2201533]","[2192564, 2192939, 2193400, 2193839, 2194269, 2194640, 2195069, 2195456, 2195866, 2196252, 2196707, 2197102, 2197516, 2197974, 2198373, 2198739, 2199189, 2199576, 2199986, 2200373, 2200765, 2201232, 2201622]","[2192269, 2192669, 2193070, 2193469, 2193869, 2194269, 2194669, 2195069, 2195456, 2195866, 2196252, 2196667, 2197071, 2197516, 2197912, 2198373, 2198739, 2199189, 2199576, 2199986, 2200373, 2200765, 2201204, 2201560]",40,R,ITM,1.1,
6,600,trial,0,122,122,122,trial,"['S', 'S', 'S', 'S', 'S', 'S', 'S', 'S', 'C', 'C', 'C', 'C', 'C', 'C', 'C', 'C', 'C', 'C', 'C', 'C', 'C', 'C', 'C', 'C']","[2207218, 2207614, 2207980, 2208513, 2209100, 2209668, 2210327, 2210932, 2211556, 2212091, 2212634, 2213187, 2213710, 2214251, 2214794, 2215303, 2215861, 2216336, 2216886, 2217421, 2217902, 2218388, 2218912, 2219407]","[2207304, 2207696, 2208071, 2208588, 2209222, 2209750, 2210429, 2211004, 2211630, 2212167, 2212721, 2213235, 2213806, 2214325, 2214859, 2215392, 2215936, 2216446, 2216977, 2217478, 2218011, 2218492, 2219024, 2219511]","[2206884, 2207483, 2208083, 2208684, 2209284, 2209884, 2210483, 2211083, 2211582, 2212118, 2212661, 2213215, 2213738, 2214278, 2214820, 2215330, 2215887, 2216364, 2216912, 2217449, 2217928, 2218415, 2218939, 2219433]",40,R,ITM,1.1,
5,600,trial,0,123,123,123,trial,"['S', 'S', 'S', 'S', 'S', 'S', 'S', 'C', 'C', 'C', 'C', 'C', 'C', 'C', 'C', 'C', 'C', 'C', 'C', 'C', 'C', 'C', 'C']","[2225236, 2225731, 2226419, 2227077, 2227660, 2228278, 2228868, 2229469, 2229959, 2230431, 2230922, 2231421, 2231905, 2232392, 2232908, 2233407, 2233899, 2234376, 2234859, 2235321, 2235773, 2236257, 2236736]","[2225307, 2225797, 2226513, 2227169, 2227744, 2228335, 2228933, 2229574, 2230053, 2230555, 2231040, 2231559, 2231999, 2232506, 2232996, 2233511, 2234008, 2234493, 2234968, 2235428, 2235894, 2236360, 2236838]","[2224898, 2225497, 2226097, 2226696, 2227296, 2227896, 2228496, 2229096, 2229494, 2229985, 2230457, 2230947, 2231447, 2231931, 2232418, 2232934, 2233434, 2233924, 2234402, 2234885, 2235346, 2235799, 2236282, 2236762]",40,R,ITM,1.1,
2,600,trial,0,124,124,124,trial,"['S', 'S', 'S', 'S', 'S', 'S', 'S', 'S', 'C', 'C', 'C', 'C', 'C', 'C', 'C', 'C', 'C', 'C', 'C', 'C', 'C', 'C', 'C', 'C']","[2242723, 2243123, 2243517, 2244063, 2244659, 2245246, 2245855, 2246438, 2247072, 2247558, 2248034, 2248505, 2248939, 2249412, 2249863, 2250305, 2250759, 2251192, 2251618, 2252066, 2252490, 2252926, 2253352, 2253773]","[2242811, 2243201, 2243602, 2244137, 2244739, 2245312, 2245954, 2246531, 2247152, 2247635, 2248120, 2248595, 2249027, 2249510, 2249955, 2250400, 2250838, 2251283, 2251705, 2252125, 2252562, 2252998, 2253405, 2253855]","[2242452, 2243051, 2243652, 2244252, 2244851, 2245452, 2246052, 2246652, 2247099, 2247585, 2248060, 2248532, 2248966, 2249440, 2249890, 2250332, 2250786, 2251219, 2251644, 2252094, 2252518, 2252954, 2253380, 2253801]",40,R,ITM,1.1,
6,600,trial,0,125,125,125,trial,"['S', 'S', 'S', 'S', 'S', 'S', 'S', 'S', 'C', 'C', 'C', 'C', 'C', 'C', 'C', 'C', 'C', 'C', 'C', 'C', 'C', 'C', 'C', 'C']","[2259778, 2260170, 2260540, 2261018, 2261606, 2262181, 2262762, 2263415, 2264027, 2264527, 2265000, 2265491, 2265953, 2266435, 2266968, 2267473, 2267886, 2268342, 2268868, 2269326, 2269790, 2270241, 2270700, 2271158]","[2259857, 2260248, 2260608, 2261092, 2261661, 2262212, 2262813, 2263462, 2264093, 2264603, 2265079, 2265559, 2266027, 2266513, 2267063, 2267551, 2268007, 2268437, 2268929, 2269435, 2269903, 2270357, 2270808, 2271283]","[2259384, 2259983, 2260583, 2261183, 2261783, 2262383, 2262983, 2263583, 2264053, 2264555, 2265028, 2265518, 2265979, 2266462, 2266994, 2267500, 2267913, 2268368, 2268895, 2269352, 2269816, 2270268, 2270728, 2271185]",40,R,ITM,1.1,
