octave,ioi,event,.thisRepN,.thisTrialN,.thisN,.thisIndex,event,tap_types,tap_times,release_times,tone_times,subject,handedness,experiment,version,
,,SPR,0,-1,-1,0,SPR,"['P', 'P', 'P', 'P', 'P', 'P', 'P', 'P', 'P', 'P', 'P', 'P', 'P', 'P', 'P', 'P', 'P', 'P', 'P', 'P', 'P', 'P', 'P', 'P', 'P', 'P', 'P', 'P', 'P', 'P']","[38063, 38459, 38858, 39209, 39567, 39916, 40255, 40610, 40943, 41284, 41626, 41960, 42315, 42665, 43005, 43352, 43713, 44038, 44359, 44691, 44988, 45320, 45624, 45955, 46284, 46618, 46937, 47276, 47599, 47904]","[38163, 38549, 38966, 39329, 39670, 40023, 40365, 40722, 41047, 41393, 41729, 42079, 42401, 42756, 43094, 43462, 43820, 44153, 44469, 44792, 45103, 45431, 45750, 46064, 46396, 46734, 47056, 47387, 47699, 48011]",,37,R,ITM,1.1,
4,500,practice,0,0,0,0,practice,"['S', 'S', 'S', 'S', 'S', 'S', 'S', 'S', 'C', 'C', 'C', 'C', 'C', 'C', 'C', 'C', 'C', 'C', 'C', 'C', 'C', 'C', 'C', 'C']","[121776, 122164, 122501, 122924, 123438, 123940, 124439, 124924, 125447, 125882, 126342, 126820, 127269, 127748, 128219, 128699, 129166, 129655, 130116, 130558, 131042, 131464, 131962, 132408]","[121859, 122235, 122576, 123035, 123556, 124066, 124565, 125043, 125558, 125981, 126424, 126883, 127337, 127773, 128280, 128753, 129217, 129694, 130154, 130618, 131087, 131515, 132009, 132457]","[121492, 121991, 122491, 122991, 123491, 123992, 124491, 124991, 125472, 125907, 126368, 126845, 127296, 127773, 128244, 128724, 129191, 129681, 130142, 130584, 131067, 131489, 131988, 132433]",37,R,ITM,1.1,
2,500,practice,0,1,1,1,practice,"['S', 'S', 'S', 'S', 'S', 'S', 'S', 'C', 'C', 'C', 'C', 'C', 'C', 'C', 'C', 'C', 'C', 'C', 'C', 'C', 'C', 'C', 'C']","[138208, 138739, 139219, 139719, 140187, 140689, 141174, 141673, 142174, 142633, 143156, 143626, 144057, 144536, 145006, 145508, 145990, 146434, 146906, 147380, 147820, 148292, 148771]","[138296, 138824, 139308, 139804, 140271, 140756, 141244, 141754, 142245, 142709, 143202, 143685, 144119, 144611, 145071, 145565, 146057, 146505, 146980, 147454, 147886, 148359, 148835]","[137772, 138270, 138771, 139271, 139770, 140270, 140771, 141272, 141700, 142201, 142660, 143182, 143652, 144084, 144564, 145034, 145534, 146018, 146461, 146932, 147406, 147847, 148320, 148799]",37,R,ITM,1.1,
3,500,practice,0,2,2,2,practice,"['S', 'S', 'S', 'S', 'S', 'S', 'S', 'C', 'C', 'C', 'C', 'C', 'C', 'C', 'C', 'C', 'C', 'C', 'C', 'C', 'C', 'C', 'C']","[155028, 155535, 156020, 156529, 157026, 157502, 158002, 158545, 159033, 159536, 159981, 160486, 160946, 161443, 161925, 162417, 162862, 163378, 163866, 164345, 164802, 165288, 165741]","[155114, 155627, 156103, 156614, 157115, 157593, 158091, 158627, 159095, 159599, 160046, 160540, 161025, 161512, 161993, 162485, 162947, 163450, 163932, 164404, 164871, 165373, 165837]","[154589, 155089, 155589, 156089, 156590, 157089, 157589, 158089, 158571, 159058, 159561, 160007, 160512, 160971, 161469, 161950, 162443, 162887, 163403, 163892, 164371, 164828, 165314, 165767]",37,R,ITM,1.1,
6,500,practice,0,3,3,3,practice,"['S', 'S', 'S', 'S', 'S', 'S', 'S', 'C', 'C', 'C', 'C', 'C', 'C', 'C', 'C', 'C', 'C', 'C', 'C', 'C', 'C', 'C', 'C']","[171915, 172426, 172898, 173408, 173913, 174404, 174905, 175380, 175835, 176330, 176794, 177273, 177752, 178208, 178643, 179103, 179592, 180056, 180504, 180942, 181440, 181904, 182339]","[171973, 172488, 172976, 173472, 173980, 174488, 174973, 175432, 175892, 176395, 176862, 177343, 177817, 178280, 178721, 179179, 179658, 180135, 180575, 181030, 181506, 181987, 182425]","[171468, 171968, 172468, 172968, 173468, 173968, 174469, 174968, 175407, 175861, 176358, 176822, 177300, 177778, 178235, 178670, 179130, 179619, 180082, 180531, 180969, 181467, 181931, 182367]",37,R,ITM,1.1,
5,500,practice,0,4,4,4,practice,"['S', 'S', 'S', 'S', 'S', 'S', 'C', 'C', 'C', 'C', 'C', 'C', 'C', 'C', 'C', 'C', 'C', 'C', 'C', 'C', 'C', 'C']","[189004, 189478, 189977, 190496, 191006, 191513, 192037, 192550, 193041, 193543, 194062, 194569, 195066, 195565, 196052, 196569, 197065, 197580, 198055, 198529, 199052, 199536]","[189091, 189585, 190129, 190629, 191191, 191691, 192249, 192740, 193249, 193760, 194263, 194776, 195253, 195766, 196264, 196797, 197313, 197783, 198266, 198753, 199234, 199752]","[188049, 188550, 189049, 189549, 190049, 190550, 191049, 191549, 192063, 192576, 193067, 193569, 194087, 194594, 195092, 195591, 196078, 196594, 197091, 197606, 198081, 198554, 199077, 199562]",37,R,ITM,1.1,
7,500,practice,0,5,5,5,practice,"['S', 'S', 'S', 'S', 'S', 'S', 'S', 'C', 'C', 'C', 'C', 'C', 'C', 'C', 'C', 'C', 'C', 'C', 'C', 'C', 'C', 'C', 'C']","[205384, 205869, 206350, 206867, 207387, 207892, 208384, 208891, 209415, 209924, 210424, 210916, 211425, 211881, 212372, 212860, 213358, 213838, 214335, 214829, 215313, 215796, 216283]","[205516, 206098, 206616, 207115, 207611, 208116, 208621, 209133, 209653, 210163, 210669, 211203, 211640, 212109, 212579, 213071, 213577, 214089, 214558, 215049, 215558, 216073, 216541]","[204935, 205433, 205933, 206433, 206934, 207433, 207933, 208434, 208919, 209441, 209950, 210452, 210944, 211452, 211909, 212399, 212887, 213386, 213866, 214363, 214856, 215341, 215824, 216310]",37,R,ITM,1.1,
6,400,trial,0,6,6,6,trial,"['S', 'S', 'S', 'S', 'S', 'S', 'S', 'C', 'C', 'C', 'C', 'C', 'C', 'C', 'C', 'C', 'C', 'C', 'C', 'C', 'C', 'C', 'C']","[244184, 244618, 245012, 245349, 245739, 246128, 246519, 246928, 247318, 247694, 248068, 248465, 248832, 249207, 249586, 249980, 250355, 250721, 251100, 251462, 251810, 252203, 252588]","[244356, 244803, 245172, 245535, 245910, 246310, 246729, 247120, 247504, 247875, 248253, 248630, 249011, 249392, 249774, 250169, 250553, 250912, 251262, 251631, 252017, 252393, 252779]","[243810, 244210, 244611, 245010, 245410, 245811, 246211, 246611, 246955, 247345, 247720, 248094, 248493, 248859, 249234, 249613, 250008, 250382, 250748, 251126, 251489, 251838, 252229, 252614]",37,R,ITM,1.1,
7,400,trial,0,7,7,7,trial,"['S', 'S', 'S', 'S', 'S', 'S', 'S', 'C', 'C', 'C', 'C', 'C', 'C', 'C', 'C', 'C', 'C', 'C', 'C', 'C', 'C', 'C', 'C']","[258509, 258891, 259301, 259715, 260084, 260495, 260895, 261305, 261673, 262089, 262477, 262875, 263262, 263665, 264042, 264437, 264815, 265213, 265621, 266040, 266411, 266784, 267190]","[258697, 259102, 259500, 259900, 260284, 260657, 261080, 261480, 261875, 262280, 262692, 263059, 263475, 263833, 264228, 264650, 265039, 265421, 265827, 266223, 266632, 266998, 267372]","[258156, 258555, 258955, 259355, 259756, 260155, 260555, 260956, 261331, 261700, 262116, 262505, 262901, 263288, 263692, 264069, 264464, 264843, 265241, 265649, 266066, 266438, 266811, 267216]",37,R,ITM,1.1,
2,400,trial,0,8,8,8,trial,"['S', 'S', 'S', 'S', 'S', 'S', 'C', 'C', 'C', 'C', 'C', 'C', 'C', 'C', 'C', 'C', 'C', 'C', 'C', 'C', 'C', 'C']","[273613, 274000, 274409, 274833, 275231, 275632, 276046, 276435, 276825, 277185, 277583, 277983, 278369, 278782, 279155, 279553, 279927, 280320, 280734, 281106, 281506, 281904]","[273762, 274182, 274607, 275008, 275427, 275821, 276228, 276659, 277037, 277379, 277797, 278197, 278562, 278970, 279357, 279757, 280127, 280495, 280896, 281342, 281709, 282112]","[272883, 273284, 273683, 274083, 274483, 274884, 275283, 275684, 276073, 276463, 276851, 277212, 277610, 278010, 278395, 278810, 279182, 279580, 279954, 280347, 280762, 281133, 281534, 281930]",37,R,ITM,1.1,
6,600,trial,0,9,9,9,trial,"['S', 'S', 'S', 'S', 'S', 'S', 'C', 'C', 'C', 'C', 'C', 'C', 'C', 'C', 'C', 'C', 'C', 'C', 'C', 'C', 'C', 'C']","[288573, 289189, 289777, 290377, 291019, 291620, 292201, 292820, 293452, 294068, 294661, 295260, 295853, 296426, 297016, 297616, 298207, 298804, 299400, 299982, 300570, 301173]","[288851, 289451, 290054, 290657, 291294, 291927, 292540, 293145, 293786, 294363, 294975, 295574, 296162, 296743, 297359, 297925, 298517, 299145, 299727, 300317, 300907]","[287437, 288036, 288636, 289236, 289837, 290437, 291037, 291636, 292229, 292847, 293480, 294094, 294688, 295286, 295879, 296454, 297043, 297644, 298233, 298831, 299426, 300009, 300598, 301200]",37,R,ITM,1.1,
6,600,trial,0,10,10,10,trial,"['S', 'S', 'S', 'S', 'S', 'S', 'C', 'C', 'C', 'C', 'C', 'C', 'C', 'C', 'C', 'C', 'C', 'C', 'C', 'C', 'C', 'C']","[307776, 308424, 309011, 309619, 310230, 310822, 311404, 311969, 312536, 313132, 313695, 314267, 314843, 315449, 316004, 316605, 317202, 317777, 318381, 318953, 319529, 320137]","[308011, 308665, 309269, 309873, 310465, 311054, 311626, 312213, 312796, 313371, 313948, 314518, 315114, 315670, 316282, 316874, 317451, 318026, 318629, 319267, 319875]","[306678, 307277, 307877, 308477, 309078, 309678, 310278, 310878, 311431, 311996, 312562, 313158, 313722, 314295, 314870, 315475, 316032, 316632, 317230, 317804, 318407, 318980, 319555, 320163]",37,R,ITM,1.1,
3,400,trial,0,11,11,11,trial,"['S', 'S', 'S', 'S', 'S', 'S', 'C', 'C', 'C', 'C', 'C', 'C', 'C', 'C', 'C', 'C', 'C', 'C', 'C', 'C', 'C', 'C']","[326386, 326767, 327194, 327593, 327995, 328392, 328836, 329209, 329605, 329976, 330397, 330783, 331200, 331594, 332004, 332407, 332821, 333234, 333663, 334066, 334465, 334858]","[326511, 326915, 327315, 327716, 328141, 328518, 328939, 329327, 329706, 330122, 330544, 330947, 331333, 331714, 332138, 332535, 332948, 333366, 333770, 334163, 334584, 334990]","[325660, 326061, 326460, 326860, 327261, 327661, 328061, 328461, 328861, 329235, 329630, 330002, 330423, 330809, 331226, 331620, 332029, 332433, 332847, 333259, 333688, 334092, 334490, 334883]",37,R,ITM,1.1,
5,400,trial,0,12,12,12,trial,"['S', 'S', 'S', 'S', 'S', 'S', 'C', 'C', 'C', 'C', 'C', 'C', 'C', 'C', 'C', 'C', 'C', 'C', 'C', 'C', 'C', 'C']","[340966, 341335, 341785, 342200, 342588, 342989, 343425, 343814, 344201, 344595, 344993, 345400, 345776, 346171, 346589, 346996, 347379, 347764, 348152, 348552, 348944, 349330]","[341096, 341507, 341967, 342371, 342763, 343164, 343585, 343979, 344370, 344751, 345149, 345522, 345932, 346321, 346718, 347128, 347488, 347911, 348305, 348712, 349087, 349467]","[340254, 340654, 341053, 341453, 341853, 342253, 342653, 343053, 343450, 343840, 344226, 344622, 345020, 345425, 345802, 346196, 346615, 347022, 347405, 347790, 348178, 348577, 348969, 349356]",37,R,ITM,1.1,
4,400,trial,0,13,13,13,trial,"['S', 'S', 'S', 'S', 'S', 'S', 'C', 'C', 'C', 'C', 'C', 'C', 'C', 'C', 'C', 'C', 'C', 'C', 'C', 'C', 'C', 'C']","[355399, 355800, 356207, 356603, 357017, 357406, 357830, 358215, 358572, 358964, 359354, 359739, 360136, 360522, 360898, 361314, 361676, 362050, 362435, 362810, 363185, 363573]","[355571, 355949, 356398, 356777, 357196, 357571, 357996, 358375, 358761, 359127, 359529, 359903, 360300, 360669, 361070, 361466, 361849, 362192, 362569, 362954, 363331, 363705]","[354673, 355073, 355472, 355872, 356273, 356672, 357072, 357472, 357856, 358241, 358598, 358990, 359379, 359764, 360162, 360548, 360924, 361339, 361702, 362076, 362461, 362835, 363210, 363599]",37,R,ITM,1.1,
5,600,trial,0,14,14,14,trial,"['S', 'S', 'S', 'S', 'S', 'S', 'S', 'C', 'C', 'C', 'C', 'C', 'C', 'C', 'C', 'C', 'C', 'C', 'C', 'C', 'C', 'C', 'C']","[369309, 370089, 370751, 371356, 371969, 372555, 373180, 373788, 374383, 374984, 375580, 376184, 376809, 377402, 378022, 378635, 379226, 379825, 380431, 381050, 381676, 382277, 382897]","[369444, 370407, 371024, 371638, 372227, 372828, 373426, 374049, 374651, 375297, 375892, 376501, 377101, 377692, 378307, 378926, 379522, 380118, 380698, 381324, 381937, 382544]","[368996, 369595, 370195, 370795, 371395, 371995, 372595, 373195, 373814, 374409, 375010, 375606, 376210, 376835, 377428, 378048, 378661, 379251, 379850, 380456, 381077, 381702, 382303, 382922]",37,R,ITM,1.1,
7,600,trial,0,15,15,15,trial,"['S', 'S', 'S', 'S', 'S', 'S', 'C', 'C', 'C', 'C', 'C', 'C', 'C', 'C', 'C', 'C', 'C', 'C', 'C', 'C', 'C', 'C']","[389706, 390392, 391020, 391605, 392220, 392796, 393399, 394004, 394608, 395238, 395876, 396525, 397135, 397771, 398413, 399037, 399638, 400282, 400890, 401533, 402136, 402723]","[390032, 390631, 391225, 391806, 392448, 393026, 393657, 394259, 394874, 395475, 396072, 396742, 397326, 397963, 398608, 399194, 399802, 400390, 401000, 401633, 402256, 402849]","[388619, 389219, 389819, 390419, 391019, 391619, 392219, 392819, 393425, 394031, 394635, 395266, 395904, 396552, 397162, 397799, 398440, 399065, 399666, 400310, 400917, 401561, 402162, 402750]",37,R,ITM,1.1,
3,400,trial,0,16,16,16,trial,"['S', 'S', 'S', 'S', 'S', 'S', 'C', 'C', 'C', 'C', 'C', 'C', 'C', 'C', 'C', 'C', 'C', 'C', 'C', 'C', 'C', 'C']","[408873, 409276, 409698, 410103, 410528, 410915, 411324, 411708, 412080, 412492, 412886, 413266, 413654, 414054, 414440, 414835, 415254, 415618, 416011, 416396, 416781, 417140]","[408993, 409424, 409863, 410281, 410674, 411041, 411460, 411825, 412219, 412619, 413030, 413414, 413816, 414196, 414587, 414980, 415357, 415752, 416129, 416522, 416906, 417262]","[408166, 408565, 408966, 409365, 409765, 410165, 410565, 410966, 411350, 411734, 412105, 412518, 412911, 413292, 413679, 414080, 414466, 414861, 415280, 415643, 416037, 416421, 416806, 417166]",37,R,ITM,1.1,
3,600,trial,0,17,17,17,trial,"['S', 'S', 'S', 'S', 'S', 'S', 'C', 'C', 'C', 'C', 'C', 'C', 'C', 'C', 'C', 'C', 'C', 'C', 'C', 'C', 'C', 'C']","[423832, 424516, 425122, 425719, 426337, 426930, 427523, 428142, 428722, 429355, 429945, 430529, 431137, 431748, 432345, 432936, 433546, 434134, 434743, 435315, 435930, 436538]","[424140, 424770, 425364, 425982, 426579, 427170, 427787, 428379, 428998, 429617, 430225, 430808, 431421, 432025, 432627, 433235, 433807, 434388, 434974, 435563, 436176, 436774]","[422753, 423353, 423953, 424553, 425153, 425753, 426353, 426953, 427548, 428168, 428747, 429380, 429971, 430555, 431163, 431773, 432370, 432962, 433571, 434159, 434768, 435341, 435955, 436563]",37,R,ITM,1.1,
4,600,trial,0,18,18,18,trial,"['S', 'S', 'S', 'S', 'S', 'S', 'C', 'C', 'C', 'C', 'C', 'C', 'C', 'C', 'C', 'C', 'C', 'C', 'C', 'C', 'C', 'C']","[448567, 449202, 449821, 450429, 451056, 451638, 452221, 452803, 453413, 454000, 454608, 455199, 455787, 456407, 457010, 457601, 458192, 458782, 459393, 459999, 460605, 461214]","[448886, 449495, 450125, 450728, 451329, 451905, 452512, 453114, 453679, 454282, 454870, 455488, 456061, 456689, 457277, 457899, 458481, 459058, 459669, 460258, 460852, 461470]","[447480, 448080, 448680, 449281, 449881, 450481, 451080, 451680, 452247, 452830, 453439, 454026, 454634, 455225, 455814, 456432, 457035, 457626, 458218, 458808, 459418, 460024, 460631, 461240]",37,R,ITM,1.1,
4,600,trial,0,19,19,19,trial,"['S', 'S', 'S', 'S', 'S', 'S', 'C', 'C', 'C', 'C', 'C', 'C', 'C', 'C', 'C', 'C', 'C', 'C', 'C', 'C', 'C', 'C']","[467751, 468395, 469016, 469602, 470219, 470824, 471445, 472061, 472657, 473290, 473921, 474523, 475131, 475750, 476371, 476994, 477646, 478244, 478833, 479437, 480020, 480651]","[468087, 468694, 469303, 469882, 470498, 471107, 471748, 472325, 472927, 473542, 474201, 474766, 475401, 476021, 476675, 477266, 477875, 478443, 479134, 479736, 480321]","[466660, 467259, 467859, 468459, 469059, 469659, 470259, 470859, 471471, 472087, 472683, 473316, 473947, 474549, 475157, 475776, 476397, 477020, 477672, 478270, 478859, 479463, 480046, 480676]",37,R,ITM,1.1,
7,400,trial,0,20,20,20,trial,"['S', 'S', 'S', 'S', 'S', 'S', 'C', 'C', 'C', 'C', 'C', 'C', 'C', 'C', 'C', 'C', 'C', 'C', 'C', 'C', 'C', 'C']","[487022, 487418, 487849, 488259, 488653, 489048, 489462, 489845, 490231, 490589, 490971, 491368, 491773, 492146, 492546, 492947, 493334, 493711, 494119, 494501, 494904, 495286]","[487156, 487577, 487985, 488382, 488799, 489178, 489587, 489968, 490343, 490701, 491094, 491522, 491918, 492295, 492675, 493068, 493453, 493832, 494223, 494612, 495013, 495400]","[486302, 486702, 487101, 487501, 487902, 488302, 488702, 489102, 489490, 489872, 490258, 490615, 490998, 491396, 491801, 492173, 492573, 492974, 493362, 493739, 494146, 494528, 494931, 495313]",37,R,ITM,1.1,
2,600,trial,0,21,21,21,trial,"['S', 'S', 'S', 'S', 'S', 'S', 'C', 'C', 'C', 'C', 'C', 'C', 'C', 'C', 'C', 'C', 'C', 'C', 'C', 'C', 'C', 'C']","[502012, 502654, 503248, 503843, 504434, 505060, 505626, 506214, 506792, 507384, 507976, 508556, 509138, 509722, 510309, 510905, 511482, 512077, 512664, 513256, 513835, 514409]","[502313, 502908, 503538, 504118, 504736, 505340, 505930, 506486, 507073, 507665, 508243, 508845, 509411, 509995, 510585, 511167, 511731, 512339, 512882, 513536, 514070, 514650]","[500891, 501491, 502091, 502691, 503290, 503891, 504492, 505092, 505653, 506241, 506819, 507412, 508003, 508583, 509166, 509749, 510337, 510932, 511510, 512105, 512692, 513283, 513862, 514436]",37,R,ITM,1.1,
5,400,trial,0,22,22,22,trial,"['S', 'S', 'S', 'S', 'S', 'S', 'C', 'C', 'C', 'C', 'C', 'C', 'C', 'C', 'C', 'C', 'C', 'C', 'C', 'C', 'C', 'C']","[520744, 521142, 521576, 521966, 522368, 522770, 523186, 523578, 523969, 524332, 524728, 525105, 525490, 525864, 526248, 526624, 527010, 527389, 527789, 528162, 528557, 528918]","[520900, 521339, 521743, 522123, 522536, 522961, 523358, 523744, 524103, 524503, 524910, 525266, 525668, 526045, 526405, 526775, 527153, 527555, 527932, 528288, 528688, 529068]","[520036, 520436, 520837, 521236, 521636, 522036, 522436, 522836, 523211, 523603, 523995, 524358, 524753, 525130, 525515, 525890, 526274, 526650, 527036, 527415, 527814, 528188, 528582, 528944]",37,R,ITM,1.1,
3,600,trial,0,23,23,23,trial,"['S', 'S', 'S', 'S', 'S', 'S', 'S', 'C', 'C', 'C', 'C', 'C', 'C', 'C', 'C', 'C', 'C', 'C', 'C', 'C', 'C', 'C', 'C']","[534576, 535370, 536000, 536608, 537217, 537806, 538430, 539051, 539679, 540278, 540911, 541513, 542133, 542764, 543406, 544005, 544617, 545221, 545859, 546486, 547080, 547696, 548344]","[534773, 535688, 536272, 536868, 537460, 538068, 538702, 539311, 539940, 540556, 541184, 541819, 542410, 543017, 543676, 544312, 544915, 545516, 546119, 546775, 547353, 547981, 548602]","[534258, 534858, 535458, 536058, 536658, 537259, 537859, 538459, 539076, 539705, 540304, 540937, 541539, 542158, 542789, 543431, 544030, 544643, 545247, 545885, 546511, 547105, 547722, 548370]",37,R,ITM,1.1,
4,400,trial,0,24,24,24,trial,"['S', 'S', 'S', 'S', 'S', 'S', 'C', 'C', 'C', 'C', 'C', 'C', 'C', 'C', 'C', 'C', 'C', 'C', 'C', 'C', 'C', 'C']","[554573, 554961, 555394, 555774, 556187, 556594, 556996, 557358, 557702, 558080, 558446, 558827, 559196, 559587, 559940, 560327, 560698, 561081, 561465, 561839, 562217, 562595]","[554698, 555124, 555528, 555937, 556308, 556702, 557088, 557457, 557821, 558182, 558551, 558926, 559303, 559687, 560057, 560435, 560817, 561183, 561555, 561931, 562309, 562689]","[553865, 554265, 554665, 555065, 555465, 555866, 556265, 556665, 557022, 557383, 557727, 558105, 558472, 558854, 559221, 559612, 559966, 560353, 560723, 561106, 561490, 561864, 562242, 562622]",37,R,ITM,1.1,
5,600,trial,0,25,25,25,trial,"['S', 'S', 'S', 'S', 'S', 'S', 'C', 'C', 'C', 'C', 'C', 'C', 'C', 'C', 'C', 'C', 'C', 'C', 'C', 'C', 'C', 'C']","[569317, 569965, 570566, 571175, 571769, 572340, 572938, 573584, 574157, 574756, 575383, 575991, 576565, 577166, 577780, 578386, 578993, 579598, 580207, 580825, 581372, 581978]","[569608, 570220, 570809, 571412, 571995, 572609, 573228, 573855, 574448, 575034, 575609, 576250, 576855, 577436, 578031, 578703, 579291, 579942, 580445, 581078, 581642]","[568207, 568806, 569406, 570006, 570606, 571206, 571806, 572406, 572963, 573609, 574183, 574782, 575409, 576017, 576590, 577191, 577806, 578412, 579018, 579624, 580234, 580850, 581398, 582004]",37,R,ITM,1.1,
6,400,trial,0,26,26,26,trial,"['S', 'S', 'S', 'S', 'S', 'S', 'C', 'C', 'C', 'C', 'C', 'C', 'C', 'C', 'C', 'C', 'C', 'C', 'C', 'C', 'C', 'C']","[588357, 588785, 589211, 589635, 590046, 590440, 590849, 591229, 591635, 592007, 592412, 592823, 593192, 593582, 593996, 594394, 594766, 595151, 595549, 595982, 596371, 596720]","[588476, 588889, 589313, 589709, 590124, 590524, 590927, 591298, 591721, 592082, 592487, 592885, 593270, 593658, 594059, 594454, 594854, 595231, 595623, 596049, 596441, 596798]","[587689, 588088, 588488, 588889, 589288, 589688, 590088, 590488, 590876, 591257, 591662, 592033, 592439, 592849, 593220, 593609, 594023, 594420, 594794, 595178, 595575, 596008, 596399, 596748]",37,R,ITM,1.1,
2,600,trial,0,27,27,27,trial,"['S', 'S', 'S', 'S', 'S', 'S', 'C', 'C', 'C', 'C', 'C', 'C', 'C', 'C', 'C', 'C', 'C', 'C', 'C', 'C', 'C', 'C']","[603403, 603999, 604624, 605228, 605832, 606431, 607037, 607623, 608219, 608823, 609416, 610023, 610607, 611213, 611804, 612410, 613047, 613622, 614216, 614837, 615444, 616041]","[603681, 604308, 604924, 605523, 606106, 606706, 607324, 607896, 608506, 609103, 609690, 610286, 610913, 611491, 612089, 612709, 613287, 613910, 614493, 615086, 615735]","[602270, 602870, 603469, 604070, 604669, 605270, 605871, 606470, 607065, 607650, 608246, 608850, 609443, 610051, 610634, 611240, 611831, 612436, 613074, 613649, 614243, 614864, 615471, 616068]",37,R,ITM,1.1,
2,400,trial,0,28,28,28,trial,"['S', 'S', 'S', 'S', 'S', 'S', 'S', 'C', 'C', 'C', 'C', 'C', 'C', 'C', 'C', 'C', 'C', 'C', 'C', 'C', 'C', 'C', 'C']","[622213, 622520, 622857, 623272, 623679, 624092, 624474, 624900, 625278, 625674, 626065, 626452, 626832, 627235, 627619, 628012, 628390, 628784, 629184, 629575, 629992, 630386, 630759]","[622336, 622641, 623024, 623441, 623854, 624254, 624627, 625020, 625430, 625814, 626190, 626579, 626948, 627351, 627714, 628113, 628506, 628897, 629282, 629692, 630104, 630484, 630865]","[621730, 622130, 622530, 622930, 623330, 623730, 624130, 624530, 624927, 625304, 625701, 626092, 626480, 626860, 627262, 627647, 628038, 628417, 628811, 629212, 629602, 630020, 630413, 630787]",37,R,ITM,1.1,
7,600,trial,0,29,29,29,trial,"['S', 'S', 'S', 'S', 'S', 'S', 'C', 'C', 'C', 'C', 'C', 'C', 'C', 'C', 'C', 'C', 'C', 'C', 'C', 'C', 'C', 'C']","[637565, 638232, 638828, 639420, 639998, 640616, 641212, 641782, 642377, 642933, 643476, 644056, 644648, 645241, 645810, 646393, 646977, 647536, 648083, 648639, 649202, 649757]","[637871, 638482, 639081, 639663, 640242, 640851, 641430, 642059, 642611, 643193, 643757, 644292, 644915, 645485, 646066, 646631, 647220, 647771, 648361, 648890, 649453, 650001]","[636483, 637082, 637682, 638282, 638882, 639482, 640082, 640683, 641240, 641810, 642404, 642961, 643504, 644082, 644676, 645269, 645837, 646420, 647005, 647563, 648110, 648667, 649229, 649784]",37,R,ITM,1.1,
2,400,trial,0,30,30,30,trial,"['S', 'S', 'S', 'S', 'S', 'S', 'C', 'C', 'C', 'C', 'C', 'C', 'C', 'C', 'C', 'C', 'C', 'C', 'C', 'C', 'C', 'C']","[658852, 659222, 659632, 660076, 660462, 660841, 661264, 661625, 661991, 662373, 662764, 663127, 663497, 663904, 664285, 664668, 665040, 665435, 665808, 666179, 666569, 666933]","[658965, 659338, 659768, 660196, 660590, 660981, 661404, 661755, 662142, 662505, 662887, 663245, 663632, 664031, 664414, 664793, 665176, 665569, 665953, 666309, 666712, 667092]","[658114, 658513, 658913, 659314, 659715, 660114, 660514, 660914, 661292, 661653, 662019, 662400, 662792, 663154, 663524, 663931, 664311, 664694, 665067, 665462, 665835, 666207, 666597, 666960]",37,R,ITM,1.1,
5,400,trial,0,31,31,31,trial,"['S', 'S', 'S', 'S', 'S', 'S', 'C', 'C', 'C', 'C', 'C', 'C', 'C', 'C', 'C', 'C', 'C', 'C', 'C', 'C', 'C', 'C']","[673350, 673755, 674185, 674590, 674997, 675401, 675812, 676169, 676527, 676899, 677282, 677659, 678025, 678400, 678798, 679148, 679519, 679901, 680299, 680654, 680991, 681362]","[673479, 673883, 674349, 674719, 675133, 675533, 675935, 676280, 676651, 677014, 677406, 677774, 678152, 678515, 678918, 679280, 679648, 680018, 680422, 680782, 681112, 681466]","[672662, 673062, 673462, 673862, 674263, 674662, 675062, 675463, 675837, 676195, 676552, 676925, 677308, 677685, 678050, 678425, 678823, 679174, 679544, 679926, 680325, 680680, 681017, 681388]",37,R,ITM,1.1,
4,400,trial,0,32,32,32,trial,"['S', 'S', 'S', 'S', 'S', 'S', 'S', 'C', 'C', 'C', 'C', 'C', 'C', 'C', 'C', 'C', 'C', 'C', 'C', 'C', 'C', 'C', 'C']","[687263, 687756, 688185, 688603, 689013, 689417, 689815, 690221, 690604, 691006, 691393, 691783, 692172, 692578, 692957, 693358, 693751, 694151, 694541, 694936, 695339, 695716, 696105]","[687386, 687906, 688326, 688749, 689149, 689589, 689943, 690338, 690751, 691152, 691513, 691918, 692286, 692682, 693074, 693484, 693858, 694269, 694657, 695038, 695438, 695833, 696221]","[687072, 687472, 687873, 688272, 688672, 689073, 689472, 689872, 690247, 690629, 691032, 691419, 691809, 692198, 692603, 692982, 693384, 693777, 694176, 694566, 694962, 695364, 695742, 696131]",37,R,ITM,1.1,
3,600,trial,0,33,33,33,trial,"['S', 'S', 'S', 'S', 'S', 'S', 'C', 'C', 'C', 'C', 'C', 'C', 'C', 'C', 'C', 'C', 'C', 'C', 'C', 'C', 'C', 'C']","[702732, 703364, 704010, 704593, 705188, 705805, 706399, 706980, 707604, 708210, 708844, 709424, 710048, 710643, 711229, 711830, 712476, 713090, 713725, 714314, 714949, 715586]","[703041, 703655, 704248, 704840, 705460, 706110, 706712, 707295, 707881, 708492, 709109, 709755, 710337, 710960, 711560, 712159, 712768, 713369, 713998, 714626, 715253, 715853]","[701634, 702234, 702834, 703434, 704034, 704634, 705234, 705835, 706424, 707006, 707630, 708236, 708870, 709449, 710074, 710669, 711255, 711856, 712502, 713115, 713751, 714340, 714975, 715612]",37,R,ITM,1.1,
3,600,trial,0,34,34,34,trial,"['S', 'S', 'S', 'S', 'S', 'S', 'C', 'C', 'C', 'C', 'C', 'C', 'C', 'C', 'C', 'C', 'C', 'C', 'C', 'C', 'C', 'C']","[721953, 722624, 723240, 723892, 724470, 725084, 725675, 726277, 726893, 727495, 728113, 728733, 729353, 729990, 730569, 731210, 731837, 732503, 733127, 733746, 734355, 734986]","[722274, 722928, 723531, 724147, 724711, 725296, 725892, 726503, 727107, 727718, 728363, 728994, 729577, 730229, 730862, 731468, 732091, 732797, 733416, 734051, 734672]","[720904, 721504, 722104, 722704, 723304, 723904, 724504, 725104, 725700, 726302, 726919, 727521, 728138, 728759, 729378, 730015, 730595, 731236, 731863, 732528, 733153, 733771, 734381, 735012]",37,R,ITM,1.1,
7,400,trial,0,35,35,35,trial,"['S', 'S', 'S', 'S', 'S', 'S', 'C', 'C', 'C', 'C', 'C', 'C', 'C', 'C', 'C', 'C', 'C', 'C', 'C', 'C', 'C', 'C']","[741098, 741483, 741923, 742345, 742750, 743128, 743536, 743953, 744343, 744747, 745132, 745531, 745947, 746347, 746759, 747152, 747556, 747937, 748362, 748760, 749156, 749534]","[741224, 741654, 742065, 742480, 742891, 743251, 743657, 744071, 744480, 744877, 745266, 745645, 746071, 746472, 746862, 747269, 747655, 748058, 748479, 748862, 749249, 749642]","[740374, 740773, 741173, 741573, 741974, 742373, 742773, 743174, 743564, 743981, 744370, 744774, 745158, 745558, 745974, 746374, 746785, 747180, 747583, 747964, 748389, 748786, 749182, 749560]",37,R,ITM,1.1,
2,600,trial,0,36,36,36,trial,"['S', 'S', 'S', 'S', 'S', 'S', 'C', 'C', 'C', 'C', 'C', 'C', 'C', 'C', 'C', 'C', 'C', 'C', 'C', 'C', 'C', 'C']","[756184, 756849, 757474, 758051, 758679, 759275, 759882, 760471, 761073, 761658, 762233, 762843, 763421, 764007, 764542, 765115, 765722, 766347, 766919, 767485, 768089, 768654]","[756509, 757114, 757764, 758350, 758963, 759563, 760197, 760768, 761372, 761955, 762571, 763191, 763747, 764314, 764892, 765437, 766025, 766637, 767198, 767802, 768357, 768915]","[755111, 755710, 756312, 756912, 757512, 758111, 758711, 759310, 759910, 760499, 761100, 761684, 762261, 762869, 763449, 764035, 764570, 765143, 765750, 766373, 766946, 767513, 768116, 768681]",37,R,ITM,1.1,
5,400,trial,0,37,37,37,trial,"['S', 'S', 'S', 'S', 'S', 'S', 'C', 'C', 'C', 'C', 'C', 'C', 'C', 'C', 'C', 'C', 'C', 'C', 'C', 'C', 'C', 'C']","[774915, 775326, 775743, 776175, 776624, 776961, 777345, 777779, 778152, 778523, 778909, 779289, 779674, 780055, 780439, 780794, 781202, 781574, 781992, 782350, 782716, 783093]","[775026, 775458, 775880, 776313, 776717, 777095, 777500, 777888, 778278, 778656, 779035, 779409, 779794, 780168, 780559, 780918, 781324, 781682, 782068, 782441, 782828, 783197]","[774243, 774642, 775043, 775442, 775842, 776242, 776642, 777042, 777370, 777804, 778178, 778549, 778935, 779315, 779700, 780081, 780465, 780820, 781228, 781600, 782018, 782375, 782743, 783119]",37,R,ITM,1.1,
6,400,trial,0,38,38,38,trial,"['S', 'S', 'S', 'S', 'S', 'S', 'C', 'C', 'C', 'C', 'C', 'C', 'C', 'C', 'C', 'C', 'C', 'C', 'C', 'C', 'C', 'C']","[789516, 789912, 790333, 790727, 791116, 791539, 791951, 792312, 792653, 793016, 793389, 793766, 794128, 794467, 794846, 795204, 795568, 795929, 796299, 796641, 797018, 797368]","[789645, 790071, 790455, 790841, 791229, 791646, 792046, 792387, 792774, 793101, 793486, 793846, 794212, 794566, 794928, 795298, 795654, 796014, 796371, 796717, 797069, 797434]","[788820, 789219, 789619, 790020, 790419, 790819, 791219, 791619, 791977, 792340, 792680, 793042, 793415, 793794, 794155, 794494, 794872, 795231, 795595, 795956, 796326, 796668, 797045, 797395]",37,R,ITM,1.1,
4,600,trial,0,39,39,39,trial,"['S', 'S', 'S', 'S', 'S', 'S', 'C', 'C', 'C', 'C', 'C', 'C', 'C', 'C', 'C', 'C', 'C', 'C', 'C', 'C', 'C', 'C']","[803837, 804416, 805054, 805675, 806273, 806877, 807504, 808099, 808704, 809317, 809949, 810563, 811213, 811825, 812443, 813040, 813616, 814188, 814832, 815424, 816052, 816654]","[804051, 804686, 805346, 805919, 806544, 807146, 807763, 808330, 808966, 809588, 810216, 810849, 811442, 812112, 812752, 813340, 813925, 814485, 815132, 815704, 816361]","[802722, 803322, 803922, 804523, 805123, 805723, 806322, 806922, 807530, 808126, 808729, 809342, 809974, 810589, 811239, 811850, 812469, 813066, 813641, 814215, 814858, 815450, 816077, 816679]",37,R,ITM,1.1,
4,600,trial,0,40,40,40,trial,"['S', 'S', 'S', 'S', 'S', 'S', 'C', 'C', 'C', 'C', 'C', 'C', 'C', 'C', 'C', 'C', 'C', 'C', 'C', 'C', 'C', 'C']","[823536, 824199, 824795, 825356, 825959, 826573, 827185, 827803, 828419, 828996, 829629, 830263, 830861, 831478, 832070, 832663, 833259, 833842, 834444, 835036, 835618, 836224]","[823856, 824443, 825025, 825629, 826227, 826813, 827474, 828070, 828669, 829312, 829928, 830521, 831137, 831775, 832384, 832959, 833539, 834126, 834736, 835320, 835888, 836490]","[822436, 823036, 823636, 824237, 824837, 825437, 826037, 826637, 827210, 827829, 828444, 829022, 829655, 830288, 830887, 831504, 832096, 832689, 833285, 833867, 834469, 835061, 835644, 836250]",37,R,ITM,1.1,
3,400,trial,0,41,41,41,trial,"['S', 'S', 'S', 'S', 'S', 'S', 'C', 'C', 'C', 'C', 'C', 'C', 'C', 'C', 'C', 'C', 'C', 'C', 'C', 'C', 'C', 'C']","[842471, 842872, 843282, 843663, 844086, 844492, 844901, 845281, 845658, 846047, 846430, 846816, 847193, 847586, 848000, 848386, 848756, 849141, 849537, 849894, 850299, 850678]","[842625, 843045, 843428, 843837, 844276, 844657, 845059, 845437, 845829, 846192, 846578, 846978, 847370, 847735, 848142, 848545, 848918, 849290, 849691, 850046, 850448, 850819]","[841763, 842162, 842562, 842962, 843362, 843762, 844163, 844562, 844926, 845306, 845683, 846072, 846455, 846841, 847218, 847611, 848025, 848411, 848782, 849167, 849562, 849920, 850325, 850704]",37,R,ITM,1.1,
4,400,trial,0,42,42,42,trial,"['S', 'S', 'S', 'S', 'S', 'S', 'C', 'C', 'C', 'C', 'C', 'C', 'C', 'C', 'C', 'C', 'C', 'C', 'C', 'C', 'C', 'C']","[860800, 861203, 861613, 862025, 862403, 862807, 863200, 863583, 863981, 864364, 864754, 865150, 865546, 865915, 866285, 866674, 867061, 867437, 867813, 868202, 868597, 868956]","[860982, 861344, 861757, 862202, 862585, 862981, 863366, 863745, 864144, 864531, 864901, 865296, 865680, 866077, 866455, 866840, 867206, 867608, 867985, 868361, 868738, 869128]","[860061, 860462, 860861, 861261, 861661, 862061, 862461, 862861, 863225, 863608, 864007, 864390, 864780, 865176, 865571, 865941, 866311, 866700, 867087, 867463, 867840, 868228, 868623, 868981]",37,R,ITM,1.1,
7,400,trial,0,43,43,43,trial,"['S', 'S', 'S', 'S', 'S', 'S', 'C', 'C', 'C', 'C', 'C', 'C', 'C', 'C', 'C', 'C', 'C', 'C', 'C', 'C', 'C', 'C']","[875141, 875539, 875967, 876366, 876781, 877191, 877590, 877991, 878392, 878801, 879199, 879609, 880019, 880410, 880801, 881197, 881580, 881980, 882355, 882761, 883168, 883601]","[875307, 875722, 876156, 876554, 876945, 877351, 877769, 878159, 878553, 878936, 879356, 879760, 880138, 880544, 880951, 881329, 881726, 882111, 882526, 882914, 883309, 883710]","[874425, 874825, 875226, 875625, 876025, 876425, 876825, 877225, 877617, 878019, 878418, 878828, 879225, 879637, 880046, 880437, 880828, 881224, 881606, 882008, 882381, 882789, 883194, 883628]",37,R,ITM,1.1,
3,400,trial,0,44,44,44,trial,"['S', 'S', 'S', 'C', 'C', 'C', 'C', 'C', 'C', 'C', 'C', 'C', 'C', 'C', 'C', 'C', 'C', 'C', 'C']","[890327, 890838, 891250, 893496, 893861, 894261, 894650, 895048, 895424, 895828, 896191, 896608, 896988, 897349, 897766, 898153, 898518, 898918, 899286]","[890758, 891170, 893342, 893688, 894040, 894435, 894801, 895203, 895575, 895977, 896357, 896762, 897119, 897515, 897910, 898287, 898671, 899051, 899448]","[889236, 889636, 890036, 890436, 890836, 891236, 891636, 892037, 893521, 893887, 894286, 894675, 895074, 895450, 895854, 896217, 896633, 897013, 897375, 897792, 898179, 898543, 898944, 899311]",37,R,ITM,1.1,
7,600,trial,0,45,45,45,trial,"['S', 'S', 'S', 'S', 'S', 'S', 'C', 'C', 'C', 'C', 'C', 'C', 'C', 'C', 'C', 'C', 'C', 'C', 'C', 'C', 'C', 'C']","[905937, 906557, 907180, 907785, 908359, 908954, 909546, 910153, 910766, 911354, 911953, 912587, 913165, 913743, 914348, 914955, 915539, 916118, 916709, 917272, 917885, 918494]","[906156, 906770, 907398, 907971, 908561, 909170, 909736, 910381, 910937, 911585, 912210, 912818, 913414, 914009, 914615, 915221, 915821, 916430, 916954, 917556, 918148, 918728]","[904779, 905378, 905978, 906578, 907179, 907779, 908379, 908979, 909574, 910180, 910793, 911381, 911980, 912615, 913192, 913771, 914374, 914981, 915566, 916145, 916736, 917299, 917912, 918521]",37,R,ITM,1.1,
5,600,trial,0,46,46,46,trial,"['S', 'S', 'S', 'S', 'S', 'S', 'C', 'C', 'C', 'C', 'C', 'C', 'C', 'C', 'C', 'C', 'C', 'C', 'C', 'C', 'C', 'C']","[925091, 925733, 926336, 926931, 927541, 928151, 928785, 929381, 930002, 930609, 931214, 931822, 932431, 933021, 933628, 934227, 934845, 935469, 936065, 936680, 937321, 937897]","[925405, 926031, 926630, 927212, 927820, 928471, 929083, 929686, 930319, 930931, 931556, 932137, 932745, 933313, 933934, 934550, 935164, 935741, 936394, 936988, 937604]","[923979, 924578, 925178, 925778, 926379, 926979, 927579, 928178, 928812, 929406, 930029, 930634, 931239, 931848, 932457, 933047, 933654, 934253, 934871, 935494, 936090, 936707, 937347, 937924]",37,R,ITM,1.1,
6,600,trial,0,47,47,47,trial,"['S', 'S', 'S', 'S', 'S', 'S', 'S', 'C', 'C', 'C', 'C', 'C', 'C', 'C', 'C', 'C', 'C', 'C', 'C', 'C', 'C', 'C', 'C']","[943854, 944510, 945160, 945762, 946386, 946998, 947582, 948180, 948805, 949421, 950021, 950606, 951218, 951845, 952471, 953048, 953621, 954200, 954810, 955390, 955949, 956572, 957169]","[944196, 944851, 945486, 946095, 946715, 947316, 947917, 948535, 949151, 949770, 950379, 950962, 951569, 952195, 952798, 953414, 953958, 954555, 955123, 955752, 956331, 956912]","[943398, 943997, 944598, 945198, 945798, 946398, 946998, 947598, 948208, 948833, 949447, 950047, 950634, 951244, 951872, 952498, 953074, 953648, 954227, 954836, 955418, 955975, 956599, 957197]",37,R,ITM,1.1,
5,600,trial,0,48,48,48,trial,"['S', 'S', 'S', 'S', 'S', 'S', 'C', 'C', 'C', 'C', 'C', 'C', 'C', 'C', 'C', 'C', 'C', 'C', 'C', 'C', 'C', 'C']","[963763, 964414, 965044, 965655, 966279, 966842, 967459, 968089, 968702, 969300, 969874, 970473, 971136, 971727, 972320, 972908, 973491, 974061, 974647, 975238, 975847, 976414]","[964122, 964712, 965352, 965997, 966566, 967160, 967781, 968420, 969021, 969593, 970174, 970788, 971422, 972006, 972599, 973185, 973813, 974370, 974948, 975550, 976113]","[962691, 963290, 963890, 964490, 965090, 965690, 966290, 966890, 967486, 968116, 968727, 969325, 969901, 970499, 971161, 971753, 972346, 972934, 973516, 974087, 974673, 975263, 975873, 976440]",37,R,ITM,1.1,
6,400,trial,0,49,49,49,trial,"['S', 'S', 'S', 'S', 'S', 'S', 'C', 'C', 'C', 'C', 'C', 'C', 'C', 'C', 'C', 'C', 'C', 'C', 'C', 'C', 'C', 'C']","[982646, 983054, 983485, 983883, 984282, 984712, 985103, 985502, 985873, 986244, 986642, 987003, 987406, 987797, 988164, 988534, 988907, 989277, 989655, 990010, 990396, 990756]","[982823, 983246, 983658, 984070, 984463, 984879, 985250, 985628, 986012, 986370, 986755, 987140, 987524, 987901, 988273, 988638, 988998, 989372, 989742, 990102, 990482, 990842]","[981957, 982358, 982757, 983157, 983558, 983957, 984357, 984757, 985129, 985530, 985900, 986271, 986670, 987030, 987433, 987824, 988191, 988562, 988934, 989303, 989682, 990036, 990424, 990783]",37,R,ITM,1.1,
2,400,trial,0,50,50,50,trial,"['S', 'S', 'S', 'S', 'S', 'S', 'C', 'C', 'C', 'C', 'C', 'C', 'C', 'C', 'C', 'C', 'C', 'C', 'C', 'C', 'C', 'C']","[997228, 997624, 998023, 998454, 998850, 999264, 999697, 1000087, 1000472, 1000866, 1001259, 1001669, 1002059, 1002449, 1002857, 1003261, 1003683, 1004039, 1004441, 1004846, 1005244, 1005668]","[997343, 997781, 998192, 998629, 999013, 999418, 999847, 1000273, 1000624, 1001023, 1001435, 1001806, 1002205, 1002589, 1002992, 1003402, 1003802, 1004195, 1004589, 1004993, 1005417, 1005819]","[996523, 996921, 997322, 997722, 998122, 998522, 998922, 999322, 999725, 1000115, 1000499, 1000894, 1001286, 1001697, 1002087, 1002477, 1002885, 1003288, 1003710, 1004065, 1004469, 1004872, 1005272, 1005694]",37,R,ITM,1.1,
6,600,trial,0,51,51,51,trial,"['S', 'S', 'S', 'S', 'S', 'S', 'S', 'C', 'C', 'C', 'C', 'C', 'C', 'C', 'C', 'C', 'C', 'C', 'C', 'C', 'C', 'C', 'C']","[1011966, 1012379, 1012972, 1013571, 1014208, 1014793, 1015380, 1015984, 1016570, 1017183, 1017800, 1018384, 1018979, 1019541, 1020137, 1020721, 1021315, 1021890, 1022439, 1023067, 1023646, 1024245, 1024825]","[1012143, 1012659, 1013230, 1013799, 1014403, 1015019, 1015580, 1016209, 1016801, 1017395, 1018020, 1018628, 1019216, 1019731, 1020351, 1020961, 1021505, 1022107, 1022683, 1023254, 1023888, 1024447, 1025069]","[1011224, 1011823, 1012423, 1013023, 1013623, 1014223, 1014823, 1015424, 1016011, 1016598, 1017210, 1017827, 1018411, 1019005, 1019569, 1020165, 1020748, 1021341, 1021918, 1022467, 1023093, 1023673, 1024272, 1024851]",37,R,ITM,1.1,
2,600,trial,0,52,52,52,trial,"['S', 'S', 'S', 'S', 'S', 'S', 'C', 'C', 'C', 'C', 'C', 'C', 'C', 'C', 'C', 'C', 'C', 'C', 'C', 'C', 'C', 'C']","[1031390, 1032006, 1032593, 1033273, 1033805, 1034401, 1035029, 1035658, 1036272, 1036825, 1037445, 1038026, 1038662, 1039283, 1039873, 1040456, 1041077, 1041709, 1042345, 1042959, 1043552, 1044164]","[1031695, 1032297, 1032918, 1033522, 1034121, 1034695, 1035364, 1035953, 1036545, 1037119, 1037718, 1038358, 1038947, 1039560, 1040190, 1040772, 1041360, 1041994, 1042676, 1043227, 1043825]","[1030258, 1030858, 1031457, 1032058, 1032658, 1033257, 1033859, 1034459, 1035057, 1035684, 1036300, 1036853, 1037471, 1038053, 1038690, 1039310, 1039900, 1040484, 1041103, 1041735, 1042371, 1042985, 1043579, 1044192]",37,R,ITM,1.1,
7,600,trial,0,53,53,53,trial,"['S', 'S', 'S', 'S', 'S', 'S', 'S', 'C', 'C', 'C', 'C', 'C', 'C', 'C', 'C', 'C', 'C', 'C', 'C', 'C', 'C', 'C', 'C']","[1050223, 1050958, 1051611, 1052265, 1052835, 1053440, 1054049, 1054641, 1055220, 1055821, 1056381, 1056996, 1057617, 1058205, 1058830, 1059435, 1060039, 1060655, 1061283, 1061896, 1062502, 1063105, 1063699]","[1050363, 1051308, 1051922, 1052524, 1053097, 1053724, 1054289, 1054938, 1055533, 1056126, 1056709, 1057320, 1057912, 1058533, 1059143, 1059734, 1060340, 1060980, 1061544, 1062223, 1062822, 1063428]","[1049903, 1050502, 1051102, 1051702, 1052302, 1052902, 1053502, 1054102, 1054667, 1055248, 1055849, 1056408, 1057022, 1057645, 1058232, 1058857, 1059462, 1060066, 1060682, 1061310, 1061922, 1062530, 1063133, 1063726]",37,R,ITM,1.1,
4,400,trial,0,54,54,54,trial,"['S', 'S', 'S', 'S', 'S', 'S', 'S', 'C', 'C', 'C', 'C', 'C', 'C', 'C', 'C', 'C', 'C', 'C', 'C', 'C', 'C', 'C', 'C']","[1073127, 1073465, 1073809, 1074207, 1074616, 1075019, 1075411, 1075811, 1076178, 1076569, 1076959, 1077334, 1077729, 1078120, 1078490, 1078865, 1079261, 1079651, 1080030, 1080434, 1080841, 1081187, 1081567]","[1073258, 1073620, 1073980, 1074406, 1074797, 1075189, 1075570, 1075962, 1076348, 1076729, 1077101, 1077484, 1077860, 1078248, 1078622, 1079002, 1079389, 1079782, 1080177, 1080570, 1080962, 1081319, 1081686]","[1072666, 1073065, 1073465, 1073865, 1074266, 1074665, 1075065, 1075465, 1075836, 1076204, 1076594, 1076984, 1077359, 1077754, 1078146, 1078516, 1078891, 1079287, 1079676, 1080056, 1080460, 1080867, 1081213, 1081592]",37,R,ITM,1.1,
7,600,trial,0,55,55,55,trial,"['S', 'S', 'S', 'S', 'S', 'S', 'C', 'C', 'C', 'C', 'C', 'C', 'C', 'C', 'C', 'C', 'C', 'C', 'C', 'C', 'C', 'C']","[1088413, 1089071, 1089677, 1090275, 1090888, 1091511, 1092108, 1092707, 1093340, 1093925, 1094558, 1095177, 1095766, 1096367, 1097003, 1097617, 1098269, 1098846, 1099426, 1100049, 1100680, 1101285]","[1088714, 1089348, 1089945, 1090519, 1091128, 1091750, 1092345, 1092964, 1093588, 1094230, 1094834, 1095417, 1096036, 1096640, 1097256, 1097920, 1098545, 1099151, 1099758, 1100368, 1100983, 1101513]","[1087336, 1087935, 1088535, 1089135, 1089735, 1090335, 1090935, 1091535, 1092135, 1092734, 1093366, 1093952, 1094586, 1095204, 1095793, 1096393, 1097029, 1097645, 1098297, 1098872, 1099453, 1100076, 1100707, 1101313]",37,R,ITM,1.1,
7,400,trial,0,56,56,56,trial,"['S', 'S', 'S', 'S', 'S', 'S', 'C', 'C', 'C', 'C', 'C', 'C', 'C', 'C', 'C', 'C', 'C', 'C', 'C', 'C', 'C', 'C']","[1107386, 1107748, 1108145, 1108574, 1108982, 1109364, 1109779, 1110145, 1110540, 1110915, 1111292, 1111676, 1112042, 1112429, 1112793, 1113171, 1113562, 1113917, 1114304, 1114696, 1115052, 1115421]","[1107506, 1107857, 1108254, 1108660, 1109062, 1109446, 1109859, 1110236, 1110629, 1111004, 1111374, 1111757, 1112120, 1112508, 1112865, 1113243, 1113629, 1113998, 1114386, 1114782, 1115141, 1115503]","[1106624, 1107023, 1107423, 1107823, 1108224, 1108623, 1109023, 1109424, 1109806, 1110172, 1110567, 1110942, 1111319, 1111704, 1112070, 1112456, 1112820, 1113198, 1113589, 1113945, 1114332, 1114724, 1115079, 1115448]",37,R,ITM,1.1,
5,400,trial,0,57,57,57,trial,"['S', 'S', 'S', 'S', 'S', 'S', 'S', 'C', 'C', 'C', 'C', 'C', 'C', 'C', 'C', 'C', 'C', 'C', 'C', 'C', 'C', 'C', 'C']","[1121289, 1121674, 1122026, 1122415, 1122817, 1123229, 1123633, 1124035, 1124412, 1124798, 1125182, 1125562, 1125944, 1126343, 1126722, 1127098, 1127495, 1127883, 1128289, 1128687, 1129071, 1129434, 1129808]","[1121440, 1121797, 1122150, 1122548, 1122948, 1123343, 1123730, 1124124, 1124514, 1124886, 1125276, 1125649, 1126021, 1126423, 1126814, 1127203, 1127580, 1127982, 1128381, 1128778, 1129148, 1129544, 1129929]","[1120884, 1121284, 1121683, 1122083, 1122483, 1122883, 1123283, 1123683, 1124062, 1124438, 1124824, 1125208, 1125587, 1125969, 1126369, 1126748, 1127123, 1127521, 1127909, 1128315, 1128713, 1129097, 1129459, 1129834]",37,R,ITM,1.1,
4,600,trial,0,58,58,58,trial,"['S', 'S', 'S', 'S', 'S', 'S', 'C', 'C', 'C', 'C', 'C', 'C', 'C', 'C', 'C', 'C', 'C', 'C', 'C', 'C', 'C', 'C']","[1136684, 1137349, 1137948, 1138550, 1139161, 1139743, 1140359, 1140937, 1141514, 1142150, 1142764, 1143350, 1143988, 1144576, 1145160, 1145726, 1146303, 1146908, 1147518, 1148108, 1148712, 1149316]","[1136996, 1137605, 1138199, 1138772, 1139361, 1139958, 1140573, 1141176, 1141799, 1142403, 1143021, 1143612, 1144216, 1144826, 1145424, 1145979, 1146553, 1147182, 1147755, 1148358, 1148994, 1149569]","[1135589, 1136188, 1136788, 1137388, 1137988, 1138588, 1139188, 1139788, 1140384, 1140963, 1141539, 1142175, 1142790, 1143375, 1144013, 1144601, 1145186, 1145752, 1146329, 1146934, 1147543, 1148134, 1148738, 1149341]",37,R,ITM,1.1,
2,600,trial,0,59,59,59,trial,"['S', 'S', 'S', 'S', 'S', 'S', 'C', 'C', 'C', 'C', 'C', 'C', 'C', 'C', 'C', 'C', 'C', 'C', 'C', 'C', 'C', 'C']","[1155930, 1156579, 1157176, 1157790, 1158385, 1159012, 1159603, 1160174, 1160756, 1161349, 1161938, 1162539, 1163152, 1163721, 1164307, 1164926, 1165523, 1166103, 1166698, 1167301, 1167899, 1168532]","[1156236, 1156851, 1157510, 1158078, 1158719, 1159308, 1159858, 1160412, 1161051, 1161648, 1162230, 1162819, 1163420, 1164012, 1164624, 1165225, 1165809, 1166397, 1167000, 1167601, 1168193]","[1154840, 1155440, 1156040, 1156640, 1157240, 1157840, 1158440, 1159041, 1159629, 1160202, 1160783, 1161375, 1161966, 1162566, 1163180, 1163749, 1164335, 1164952, 1165550, 1166131, 1166726, 1167329, 1167926, 1168560]",37,R,ITM,1.1,
7,400,trial,0,60,60,60,trial,"['S', 'S', 'S', 'S', 'S', 'S', 'C', 'C', 'C', 'C', 'C', 'C', 'C', 'C', 'C', 'C', 'C', 'C', 'C', 'C', 'C', 'C']","[1174706, 1175092, 1175491, 1175918, 1176289, 1176676, 1177121, 1177481, 1177833, 1178217, 1178590, 1178951, 1179318, 1179679, 1180056, 1180403, 1180776, 1181134, 1181496, 1181839, 1182205, 1182567]","[1174812, 1175228, 1175602, 1176039, 1176395, 1176795, 1177225, 1177586, 1177952, 1178315, 1178678, 1179030, 1179412, 1179765, 1180133, 1180478, 1180848, 1181209, 1181565, 1181923, 1182278, 1182646]","[1174012, 1174411, 1174811, 1175212, 1175611, 1176011, 1176412, 1176811, 1177148, 1177507, 1177860, 1178244, 1178617, 1178978, 1179345, 1179707, 1180083, 1180431, 1180803, 1181162, 1181522, 1181865, 1182233, 1182594]",37,R,ITM,1.1,
3,400,trial,0,61,61,61,trial,"['S', 'S', 'S', 'S', 'S', 'C', 'C', 'C', 'C', 'C', 'C', 'C', 'C', 'C', 'C', 'C', 'C', 'C', 'C', 'C', 'C']","[1189321, 1189755, 1190164, 1190589, 1190965, 1191357, 1191741, 1192114, 1192502, 1192894, 1193283, 1193669, 1194023, 1194415, 1194804, 1195206, 1195587, 1195980, 1196349, 1196744, 1197112]","[1189494, 1189936, 1190328, 1190737, 1191119, 1191484, 1191872, 1192255, 1192637, 1193005, 1193381, 1193777, 1194124, 1194540, 1194924, 1195326, 1195698, 1196088, 1196469, 1196849, 1197208]","[1188222, 1188621, 1189021, 1189422, 1189821, 1190221, 1190621, 1191021, 1191383, 1191767, 1192139, 1192527, 1192920, 1193309, 1193695, 1194049, 1194440, 1194829, 1195232, 1195613, 1196006, 1196375, 1196770, 1197137]",37,R,ITM,1.1,
3,400,trial,0,62,62,62,trial,"['S', 'S', 'S', 'S', 'S', 'S', 'C', 'C', 'C', 'C', 'C', 'C', 'C', 'C', 'C', 'C', 'C', 'C', 'C', 'C', 'C', 'C']","[1203248, 1203655, 1204082, 1204474, 1204883, 1205305, 1205708, 1206094, 1206514, 1206915, 1207288, 1207672, 1208093, 1208518, 1208877, 1209265, 1209640, 1210004, 1210383, 1210767, 1211158, 1211540]","[1203408, 1203825, 1204228, 1204589, 1205006, 1205416, 1205833, 1206257, 1206643, 1207049, 1207416, 1207816, 1208236, 1208631, 1209005, 1209398, 1209788, 1210148, 1210571, 1210899, 1211313, 1211702]","[1202545, 1202946, 1203345, 1203745, 1204146, 1204546, 1204946, 1205346, 1205734, 1206120, 1206540, 1206940, 1207314, 1207698, 1208119, 1208544, 1208902, 1209290, 1209666, 1210030, 1210408, 1210792, 1211184, 1211566]",37,R,ITM,1.1,
5,600,trial,0,63,63,63,trial,"['S', 'S', 'S', 'S', 'S', 'S', 'C', 'C', 'C', 'C', 'C', 'C', 'C', 'C', 'C', 'C', 'C', 'C', 'C', 'C', 'C', 'C']","[1218149, 1218864, 1219444, 1220035, 1220653, 1221241, 1221841, 1222450, 1223046, 1223635, 1224211, 1224801, 1225441, 1226018, 1226610, 1227196, 1227841, 1228424, 1228995, 1229579, 1230167, 1230777]","[1218473, 1219103, 1219686, 1220300, 1220893, 1221489, 1222086, 1222699, 1223281, 1223899, 1224469, 1225108, 1225677, 1226277, 1226875, 1227492, 1228112, 1228751, 1229317, 1229916, 1230501, 1231039]","[1217094, 1217693, 1218293, 1218893, 1219493, 1220093, 1220694, 1221294, 1221867, 1222476, 1223071, 1223662, 1224237, 1224827, 1225466, 1226045, 1226636, 1227222, 1227868, 1228449, 1229022, 1229604, 1230192, 1230802]",37,R,ITM,1.1,
7,600,trial,0,64,64,64,trial,"['S', 'S', 'S', 'S', 'S', 'S', 'C', 'C', 'C', 'C', 'C', 'C', 'C', 'C', 'C', 'C', 'C', 'C', 'C', 'C', 'C', 'C']","[1237643, 1238247, 1238879, 1239499, 1240083, 1240671, 1241270, 1241851, 1242447, 1243002, 1243577, 1244167, 1244729, 1245285, 1245869, 1246483, 1247065, 1247613, 1248190, 1248758, 1249332, 1249889]","[1237915, 1238531, 1239146, 1239754, 1240349, 1240946, 1241527, 1242132, 1242696, 1243302, 1243874, 1244416, 1244989, 1245572, 1246159, 1246777, 1247266, 1247874, 1248477, 1249013, 1249592]","[1236533, 1237132, 1237732, 1238332, 1238932, 1239532, 1240132, 1240732, 1241297, 1241879, 1242475, 1243030, 1243603, 1244193, 1244756, 1245313, 1245895, 1246511, 1247091, 1247641, 1248217, 1248786, 1249358, 1249915]",37,R,ITM,1.1,
4,600,trial,0,65,65,65,trial,"['S', 'S', 'S', 'S', 'S', 'S', 'C', 'C', 'C', 'C', 'C', 'C', 'C', 'C', 'C', 'C', 'C', 'C', 'C', 'C', 'C', 'C']","[1256848, 1257427, 1258034, 1258620, 1259243, 1259826, 1260440, 1261005, 1261614, 1262198, 1262781, 1263387, 1264005, 1264592, 1265158, 1265754, 1266334, 1266925, 1267503, 1268091, 1268669, 1269286]","[1257089, 1257699, 1258298, 1258921, 1259539, 1260122, 1260742, 1261323, 1261917, 1262524, 1263083, 1263704, 1264278, 1264902, 1265506, 1266059, 1266634, 1267210, 1267811, 1268473, 1268962]","[1255699, 1256299, 1256899, 1257499, 1258099, 1258699, 1259299, 1259899, 1260466, 1261031, 1261639, 1262224, 1262807, 1263413, 1264030, 1264619, 1265183, 1265779, 1266360, 1266951, 1267528, 1268117, 1268695, 1269312]",37,R,ITM,1.1,
6,600,trial,0,66,66,66,trial,"['S', 'S', 'S', 'S', 'S', 'S', 'S', 'C', 'C', 'C', 'C', 'C', 'C', 'C', 'C', 'C', 'C', 'C', 'C', 'C', 'C', 'C', 'C']","[1275034, 1275776, 1276426, 1277012, 1277611, 1278189, 1278785, 1279384, 1279990, 1280595, 1281186, 1281827, 1282426, 1283017, 1283588, 1284186, 1284793, 1285416, 1286013, 1286649, 1287243, 1287845, 1288443]","[1275430, 1276113, 1276694, 1277289, 1277863, 1278451, 1279062, 1279637, 1280278, 1280865, 1281508, 1282089, 1282734, 1283310, 1283892, 1284486, 1285079, 1285712, 1286325, 1286952, 1287499, 1288148, 1288702]","[1274641, 1275241, 1275841, 1276441, 1277041, 1277641, 1278241, 1278841, 1279411, 1280017, 1280622, 1281213, 1281854, 1282453, 1283045, 1283615, 1284213, 1284819, 1285443, 1286040, 1286676, 1287270, 1287872, 1288470]",37,R,ITM,1.1,
5,400,trial,0,67,67,67,trial,"['S', 'S', 'S', 'S', 'S', 'S', 'C', 'C', 'C', 'C', 'C', 'C', 'C', 'C', 'C', 'C', 'C', 'C', 'C', 'C', 'C', 'C']","[1294928, 1295345, 1295775, 1296176, 1296596, 1296995, 1297403, 1297767, 1298144, 1298526, 1298909, 1299282, 1299690, 1300070, 1300472, 1300855, 1301249, 1301636, 1302011, 1302404, 1302768, 1303173]","[1295060, 1295491, 1295925, 1296324, 1296754, 1297134, 1297517, 1297926, 1298278, 1298668, 1299042, 1299430, 1299812, 1300226, 1300618, 1301011, 1301397, 1301779, 1302149, 1302535, 1302908, 1303327]","[1294248, 1294647, 1295047, 1295448, 1295847, 1296247, 1296647, 1297047, 1297430, 1297794, 1298169, 1298551, 1298934, 1299308, 1299716, 1300096, 1300498, 1300881, 1301274, 1301662, 1302037, 1302429, 1302794, 1303198]",37,R,ITM,1.1,
3,600,trial,0,68,68,68,trial,"['S', 'S', 'S', 'S', 'S', 'S', 'C', 'C', 'C', 'C', 'C', 'C', 'C', 'C', 'C', 'C', 'C', 'C', 'C', 'C', 'C', 'C']","[1310093, 1310716, 1311345, 1311998, 1312567, 1313107, 1313704, 1314336, 1314869, 1315400, 1315992, 1316615, 1317181, 1317725, 1318328, 1318936, 1319477, 1320003, 1320577, 1321139, 1321689, 1322232]","[1310346, 1311029, 1311693, 1312228, 1312832, 1313399, 1314004, 1314546, 1315165, 1315694, 1316277, 1316819, 1317434, 1317933, 1318548, 1319140, 1319766, 1320329, 1320826, 1321399, 1321946, 1322490]","[1308959, 1309558, 1310158, 1310758, 1311358, 1311959, 1312559, 1313159, 1313730, 1314362, 1314894, 1315426, 1316019, 1316640, 1317207, 1317750, 1318353, 1318962, 1319502, 1320029, 1320602, 1321164, 1321714, 1322258]",37,R,ITM,1.1,
3,600,trial,0,69,69,69,trial,"['S', 'S', 'S', 'S', 'S', 'S', 'C', 'C', 'C', 'C', 'C', 'C', 'C', 'C', 'C', 'C', 'C', 'C', 'C', 'C', 'C', 'C']","[1329133, 1329784, 1330439, 1330965, 1331582, 1332192, 1332805, 1333388, 1333956, 1334536, 1335149, 1335731, 1336317, 1336865, 1337413, 1337995, 1338605, 1339200, 1339746, 1340352, 1340917, 1341477]","[1329466, 1330091, 1330680, 1331260, 1331838, 1332472, 1333059, 1333652, 1334221, 1334823, 1335416, 1335997, 1336586, 1337142, 1337714, 1338258, 1338849, 1339416, 1339990, 1340556, 1341149, 1341709]","[1328032, 1328631, 1329231, 1329831, 1330432, 1331032, 1331632, 1332231, 1332831, 1333413, 1333982, 1334561, 1335175, 1335756, 1336343, 1336891, 1337439, 1338020, 1338631, 1339226, 1339772, 1340378, 1340943, 1341503]",37,R,ITM,1.1,
6,600,trial,0,70,70,70,trial,"['S', 'S', 'S', 'S', 'S', 'S', 'S', 'C', 'C', 'C', 'C', 'C', 'C', 'C', 'C', 'C', 'C', 'C', 'C', 'C', 'C', 'C', 'C']","[1347729, 1348371, 1349005, 1349617, 1350207, 1350811, 1351397, 1351989, 1352558, 1353136, 1353747, 1354356, 1354923, 1355504, 1356059, 1356638, 1357195, 1357755, 1358347, 1358918, 1359513, 1360063, 1360663]","[1347971, 1348648, 1349270, 1349847, 1350440, 1351057, 1351619, 1352232, 1352828, 1353387, 1354017, 1354560, 1355205, 1355739, 1356322, 1356905, 1357455, 1357969, 1358612, 1359190, 1359760, 1360295, 1360923]","[1347248, 1347847, 1348446, 1349046, 1349646, 1350246, 1350846, 1351446, 1352016, 1352585, 1353162, 1353774, 1354384, 1354949, 1355531, 1356086, 1356664, 1357222, 1357783, 1358374, 1358945, 1359540, 1360091, 1360691]",37,R,ITM,1.1,
4,400,trial,0,71,71,71,trial,"['S', 'S', 'S', 'S', 'S', 'S', 'S', 'C', 'C', 'C', 'C', 'C', 'C', 'C', 'C', 'C', 'C', 'C', 'C', 'C', 'C', 'C', 'C']","[1366623, 1366987, 1367359, 1367741, 1368129, 1368537, 1368957, 1369371, 1369741, 1370160, 1370531, 1370921, 1371318, 1371727, 1372114, 1372397, 1372813, 1373195, 1373575, 1373980, 1374345, 1374736, 1375113]","[1366764, 1367124, 1367478, 1367851, 1368244, 1368656, 1369067, 1369467, 1369850, 1370236, 1370646, 1371025, 1371449, 1371830, 1372185, 1372530, 1372924, 1373340, 1373717, 1374112, 1374472, 1374867, 1375236]","[1366204, 1366603, 1367004, 1367403, 1367803, 1368203, 1368603, 1369004, 1369397, 1369766, 1370185, 1370557, 1370947, 1371343, 1371754, 1372140, 1372424, 1372838, 1373220, 1373600, 1374007, 1374370, 1374761, 1375138]",37,R,ITM,1.1,
2,400,trial,0,72,72,72,trial,"['S', 'S', 'S', 'S', 'S', 'S', 'C', 'C', 'C', 'C', 'C', 'C', 'C', 'C', 'C', 'C', 'C', 'C', 'C', 'C', 'C', 'C']","[1381364, 1381755, 1382146, 1382548, 1382944, 1383335, 1383733, 1384124, 1384512, 1384882, 1385260, 1385625, 1386011, 1386394, 1386756, 1387159, 1387527, 1387888, 1388286, 1388623, 1389010, 1389385]","[1381520, 1381871, 1382262, 1382658, 1383061, 1383444, 1383854, 1384231, 1384627, 1384984, 1385369, 1385735, 1386123, 1386499, 1386866, 1387254, 1387631, 1387982, 1388372, 1388766, 1389115, 1389488]","[1380600, 1381001, 1381401, 1381801, 1382201, 1382600, 1383002, 1383401, 1383760, 1384152, 1384539, 1384909, 1385287, 1385652, 1386038, 1386422, 1386782, 1387186, 1387554, 1387915, 1388314, 1388650, 1389037, 1389413]",37,R,ITM,1.1,
6,400,trial,0,73,73,73,trial,"['S', 'S', 'S', 'S', 'S', 'S', 'C', 'C', 'C', 'C', 'C', 'C', 'C', 'C', 'C', 'C', 'C', 'C', 'C', 'C', 'C', 'C']","[1395701, 1396103, 1396513, 1396904, 1397324, 1397752, 1398141, 1398520, 1398924, 1399332, 1399710, 1400102, 1400510, 1400913, 1401306, 1401716, 1402130, 1402529, 1402881, 1403285, 1403664, 1404040]","[1395850, 1396230, 1396647, 1397096, 1397490, 1397879, 1398303, 1398662, 1399070, 1399453, 1399876, 1400243, 1400640, 1401040, 1401435, 1401844, 1402234, 1402647, 1403029, 1403402, 1403797, 1404149]","[1394968, 1395367, 1395767, 1396167, 1396568, 1396967, 1397367, 1397768, 1398168, 1398547, 1398950, 1399360, 1399737, 1400130, 1400537, 1400940, 1401333, 1401743, 1402157, 1402557, 1402908, 1403312, 1403691, 1404066]",37,R,ITM,1.1,
5,600,trial,0,74,74,74,trial,"['S', 'S', 'S', 'S', 'S', 'S', 'S', 'C', 'C', 'C', 'C', 'C', 'C', 'C', 'C', 'C', 'C', 'C', 'C', 'C', 'C', 'C', 'C']","[1410127, 1410927, 1411634, 1412206, 1412771, 1413371, 1413980, 1414564, 1415136, 1415724, 1416324, 1416914, 1417491, 1418093, 1418701, 1419299, 1419910, 1420471, 1421092, 1421692, 1422264, 1422831, 1423409]","[1410294, 1411233, 1411850, 1412448, 1413044, 1413629, 1414217, 1414814, 1415420, 1416023, 1416595, 1417169, 1417762, 1418365, 1418949, 1419536, 1420148, 1420721, 1421323, 1421982, 1422530, 1423104, 1423660]","[1409836, 1410435, 1411035, 1411634, 1412234, 1412834, 1413434, 1414034, 1414590, 1415161, 1415749, 1416349, 1416940, 1417517, 1418119, 1418727, 1419326, 1419936, 1420496, 1421119, 1421718, 1422289, 1422857, 1423434]",37,R,ITM,1.1,
6,400,trial,0,75,75,75,trial,"['S', 'S', 'S', 'S', 'S', 'S', 'S', 'C', 'C', 'C', 'C', 'C', 'C', 'C', 'C', 'C', 'C', 'C', 'C', 'C', 'C', 'C', 'C']","[1429331, 1429681, 1430059, 1430497, 1430896, 1431292, 1431708, 1432124, 1432502, 1432885, 1433250, 1433626, 1433999, 1434389, 1434752, 1435139, 1435508, 1435864, 1436223, 1436620, 1436982, 1437357, 1437721]","[1429493, 1429820, 1430220, 1430673, 1431071, 1431449, 1431834, 1432273, 1432647, 1433021, 1433392, 1433766, 1434146, 1434517, 1434885, 1435276, 1435638, 1435986, 1436342, 1436768, 1437108, 1437491, 1437829]","[1428985, 1429384, 1429784, 1430184, 1430584, 1430984, 1431385, 1431784, 1432152, 1432528, 1432912, 1433277, 1433653, 1434027, 1434416, 1434778, 1435165, 1435536, 1435890, 1436250, 1436647, 1437008, 1437383, 1437749]",37,R,ITM,1.1,
2,400,trial,0,76,76,76,trial,"['S', 'S', 'S', 'S', 'S', 'S', 'S', 'C', 'C', 'C', 'C', 'C', 'C', 'C', 'C', 'C', 'C', 'C', 'C', 'C', 'C', 'C', 'C']","[1443659, 1444028, 1444425, 1444815, 1445222, 1445615, 1445999, 1446416, 1446818, 1447225, 1447628, 1448049, 1448442, 1448822, 1449204, 1449582, 1449979, 1450382, 1450797, 1451226, 1451644, 1452010, 1452392]","[1443818, 1444210, 1444596, 1444994, 1445430, 1445811, 1446179, 1446601, 1446991, 1447398, 1447805, 1448180, 1448599, 1448980, 1449342, 1449726, 1450128, 1450516, 1451026, 1451400, 1451784, 1452195, 1452568]","[1443273, 1443673, 1444073, 1444473, 1444873, 1445273, 1445673, 1446073, 1446444, 1446846, 1447251, 1447656, 1448077, 1448470, 1448850, 1449232, 1449610, 1450007, 1450409, 1450823, 1451253, 1451671, 1452038, 1452420]",37,R,ITM,1.1,
2,600,trial,0,77,77,77,trial,"['S', 'S', 'S', 'S', 'S', 'S', 'C', 'C', 'C', 'C', 'C', 'C', 'C', 'C', 'C', 'C', 'C', 'C', 'C', 'C', 'C', 'C']","[1459018, 1459653, 1460268, 1460849, 1461452, 1462042, 1462674, 1463239, 1463821, 1464432, 1465043, 1465619, 1466213, 1466803, 1467395, 1467960, 1468550, 1469166, 1469774, 1470365, 1471003, 1471594]","[1459360, 1459929, 1460516, 1461123, 1461704, 1462315, 1462918, 1463528, 1464118, 1464712, 1465304, 1465891, 1466481, 1467076, 1467673, 1468236, 1468830, 1469443, 1470052, 1470668, 1471291, 1471861]","[1457899, 1458499, 1459099, 1459699, 1460299, 1460899, 1461499, 1462099, 1462702, 1463267, 1463847, 1464459, 1465071, 1465647, 1466241, 1466830, 1467421, 1467987, 1468577, 1469194, 1469802, 1470393, 1471031, 1471621]",37,R,ITM,1.1,
6,600,trial,0,78,78,78,trial,"['S', 'S', 'S', 'S', 'S', 'S', 'C', 'C', 'C', 'C', 'C', 'C', 'C', 'C', 'C', 'C', 'C', 'C', 'C', 'C', 'C', 'C']","[1478247, 1478921, 1479513, 1480100, 1480700, 1481316, 1481964, 1482558, 1483153, 1483747, 1484363, 1484943, 1485531, 1486127, 1486714, 1487328, 1487904, 1488522, 1489141, 1489731, 1490314, 1490903]","[1478569, 1479176, 1479788, 1480380, 1480979, 1481606, 1482238, 1482808, 1483419, 1484024, 1484609, 1485225, 1485791, 1486381, 1486955, 1487580, 1488169, 1488785, 1489397, 1490008, 1490580]","[1477167, 1477766, 1478366, 1478966, 1479566, 1480166, 1480766, 1481366, 1481991, 1482585, 1483180, 1483773, 1484390, 1484969, 1485557, 1486154, 1486741, 1487355, 1487931, 1488548, 1489168, 1489758, 1490340, 1490929]",37,R,ITM,1.1,
2,400,trial,0,79,79,79,trial,"['S', 'S', 'S', 'S', 'S', 'S', 'C', 'C', 'C', 'C', 'C', 'C', 'C', 'C', 'C', 'C', 'C', 'C', 'C', 'C', 'C', 'C']","[1497388, 1497814, 1498227, 1498645, 1499055, 1499462, 1499851, 1500244, 1500644, 1501024, 1501422, 1501831, 1502203, 1502607, 1502987, 1503410, 1503804, 1504219, 1504593, 1505000, 1505419, 1505896]","[1497503, 1497939, 1498373, 1498786, 1499198, 1499583, 1499967, 1500364, 1500747, 1501125, 1501528, 1501937, 1502313, 1502720, 1503101, 1503524, 1503926, 1504329, 1504645, 1505090, 1505502, 1505998]","[1496684, 1497084, 1497484, 1497883, 1498285, 1498684, 1499084, 1499484, 1499879, 1500270, 1500672, 1501051, 1501449, 1501858, 1502231, 1502635, 1503014, 1503436, 1503831, 1504246, 1504621, 1505027, 1505445, 1505924]",37,R,ITM,1.1,
5,600,trial,0,80,80,80,trial,"['S', 'S', 'S', 'S', 'S', 'S', 'C', 'C', 'C', 'C', 'C', 'C', 'C', 'C', 'C', 'C', 'C', 'C', 'C', 'C', 'C', 'C']","[1512596, 1513230, 1513836, 1514434, 1515040, 1515617, 1516212, 1516773, 1517352, 1517939, 1518482, 1519046, 1519617, 1520166, 1520717, 1521287, 1521868, 1522429, 1522983, 1523510, 1524077, 1524643]","[1512887, 1513507, 1514098, 1514689, 1515281, 1515878, 1516443, 1517017, 1517611, 1518182, 1518726, 1519293, 1519858, 1520432, 1521018, 1521559, 1522143, 1522670, 1523337, 1523795, 1524353, 1524887]","[1511494, 1512093, 1512693, 1513293, 1513893, 1514493, 1515094, 1515694, 1516237, 1516798, 1517378, 1517966, 1518508, 1519072, 1519642, 1520192, 1520743, 1521312, 1521894, 1522455, 1523009, 1523535, 1524103, 1524670]",37,R,ITM,1.1,
3,600,trial,0,81,81,81,trial,"['S', 'S', 'S', 'S', 'S', 'S', 'C', 'C', 'C', 'C', 'C', 'C', 'C', 'C', 'C', 'C', 'C', 'C', 'C', 'C', 'C', 'C']","[1531254, 1531874, 1532498, 1533101, 1533713, 1534295, 1534916, 1535494, 1536054, 1536638, 1537242, 1537830, 1538417, 1539011, 1539622, 1540197, 1540758, 1541336, 1541915, 1542465, 1543043, 1543618]","[1531570, 1532179, 1532787, 1533385, 1533966, 1534593, 1535213, 1535746, 1536315, 1536897, 1537503, 1538115, 1538676, 1539270, 1539852, 1540469, 1541033, 1541586, 1542138, 1542735, 1543325, 1543882]","[1530161, 1530760, 1531360, 1531960, 1532560, 1533160, 1533760, 1534360, 1534942, 1535519, 1536079, 1536664, 1537267, 1537856, 1538443, 1539037, 1539648, 1540222, 1540784, 1541361, 1541941, 1542491, 1543068, 1543644]",37,R,ITM,1.1,
6,600,trial,0,82,82,82,trial,"['S', 'S', 'S', 'S', 'S', 'S', 'S', 'C', 'C', 'C', 'C', 'C', 'C', 'C', 'C', 'C', 'C', 'C', 'C', 'C', 'C', 'C', 'C']","[1549520, 1550251, 1550916, 1551498, 1552092, 1552709, 1553297, 1553914, 1554533, 1555128, 1555717, 1556346, 1556962, 1557575, 1558160, 1558773, 1559387, 1559974, 1560567, 1561182, 1561805, 1562403, 1563001]","[1549735, 1550565, 1551156, 1551772, 1552367, 1552953, 1553556, 1554149, 1554779, 1555405, 1555988, 1556572, 1557240, 1557782, 1558413, 1559020, 1559634, 1560205, 1560872, 1561454, 1562033, 1562628, 1563246]","[1549168, 1549768, 1550368, 1550968, 1551568, 1552168, 1552769, 1553369, 1553942, 1554561, 1555154, 1555744, 1556373, 1556988, 1557603, 1558188, 1558801, 1559413, 1560001, 1560594, 1561208, 1561833, 1562431, 1563029]",37,R,ITM,1.1,
6,400,trial,0,83,83,83,trial,"['S', 'S', 'S', 'S', 'S', 'S', 'C', 'C', 'C', 'C', 'C', 'C', 'C', 'C', 'C', 'C', 'C', 'C', 'C', 'C', 'C', 'C']","[1569338, 1569724, 1570195, 1570589, 1570981, 1571343, 1571729, 1572142, 1572517, 1572880, 1573246, 1573616, 1573998, 1574355, 1574734, 1575116, 1575487, 1575832, 1576229, 1576612, 1577037, 1577412]","[1569466, 1569858, 1570327, 1570726, 1571108, 1571464, 1571838, 1572234, 1572621, 1572982, 1573348, 1573715, 1574088, 1574447, 1574832, 1575227, 1575614, 1575964, 1576332, 1576740, 1577106, 1577509]","[1568650, 1569049, 1569449, 1569849, 1570249, 1570650, 1571049, 1571449, 1571757, 1572168, 1572544, 1572907, 1573272, 1573644, 1574025, 1574382, 1574761, 1575143, 1575514, 1575859, 1576257, 1576640, 1577064, 1577439]",37,R,ITM,1.1,
2,600,trial,0,84,84,84,trial,"['S', 'S', 'S', 'S', 'S', 'S', 'C', 'C', 'C', 'C', 'C', 'C', 'C', 'C', 'C', 'C', 'C', 'C', 'C', 'C', 'C', 'C']","[1584045, 1584694, 1585268, 1585875, 1586451, 1587082, 1587657, 1588241, 1588829, 1589429, 1590026, 1590618, 1591262, 1591859, 1592437, 1593041, 1593588, 1594150, 1594744, 1595312, 1595869, 1596427]","[1584358, 1584963, 1585536, 1586127, 1586753, 1587341, 1587924, 1588518, 1589095, 1589678, 1590277, 1590924, 1591515, 1592085, 1592692, 1593273, 1593803, 1594437, 1594999, 1595563, 1596107, 1596688]","[1582906, 1583505, 1584106, 1584706, 1585306, 1585905, 1586506, 1587106, 1587684, 1588268, 1588855, 1589456, 1590052, 1590644, 1591288, 1591885, 1592465, 1593068, 1593616, 1594178, 1594772, 1595339, 1595896, 1596454]",37,R,ITM,1.1,
5,400,trial,0,85,85,85,trial,"['B', 'S', 'S', 'S', 'S', 'S', 'S', 'C', 'C', 'C', 'C', 'C', 'C', 'C', 'C', 'C', 'C', 'C', 'C', 'C', 'C', 'C', 'C']","[1601766, 1602484, 1602863, 1603269, 1603678, 1604111, 1604512, 1604898, 1605287, 1605669, 1606094, 1606447, 1606830, 1607216, 1607586, 1607951, 1608325, 1608709, 1609066, 1609358, 1609740, 1610100, 1610455]","[1602208, 1602614, 1603019, 1603422, 1603830, 1604245, 1604678, 1605062, 1605435, 1605825, 1606213, 1606626, 1606978, 1607363, 1607718, 1608077, 1608432, 1608844, 1609192, 1609485, 1609846, 1610205, 1610561]","[1601778, 1602178, 1602577, 1602977, 1603378, 1603778, 1604178, 1604578, 1604924, 1605313, 1605695, 1606120, 1606473, 1606855, 1607241, 1607612, 1607976, 1608350, 1608734, 1609092, 1609384, 1609766, 1610126, 1610481]",37,R,ITM,1.1,
4,600,trial,0,86,86,86,trial,"['S', 'S', 'S', 'S', 'S', 'S', 'C', 'C', 'C', 'C', 'C', 'C', 'C', 'C', 'C', 'C', 'C', 'C', 'C', 'C', 'C', 'C']","[1617184, 1617823, 1618413, 1619006, 1619602, 1620235, 1620850, 1621452, 1622023, 1622620, 1623217, 1623783, 1624364, 1624972, 1625558, 1626116, 1626734, 1627323, 1627960, 1628537, 1629114, 1629705]","[1617487, 1618081, 1618711, 1619282, 1619893, 1620506, 1621106, 1621697, 1622297, 1622898, 1623475, 1624052, 1624634, 1625224, 1625818, 1626412, 1627008, 1627570, 1628170, 1628770, 1629346, 1629927]","[1616071, 1616670, 1617270, 1617870, 1618470, 1619070, 1619671, 1620271, 1620876, 1621478, 1622048, 1622645, 1623242, 1623809, 1624389, 1624997, 1625583, 1626141, 1626761, 1627348, 1627985, 1628564, 1629140, 1629730]",37,R,ITM,1.1,
5,600,trial,0,87,87,87,trial,"['S', 'S', 'S', 'S', 'S', 'S', 'C', 'C', 'C', 'C', 'C', 'C', 'C', 'C', 'C', 'C', 'C', 'C', 'C', 'C', 'C', 'C']","[1636163, 1636841, 1637450, 1638063, 1638650, 1639262, 1639828, 1640433, 1641052, 1641683, 1642320, 1642954, 1643544, 1644132, 1644758, 1645378, 1645969, 1646580, 1647157, 1647762, 1648377, 1648951]","[1636476, 1637111, 1637742, 1638339, 1638916, 1639568, 1640108, 1640726, 1641291, 1641957, 1642638, 1643213, 1643873, 1644467, 1645016, 1645615, 1646234, 1646881, 1647474, 1648100, 1648659, 1649149]","[1635076, 1635675, 1636274, 1636874, 1637474, 1638074, 1638674, 1639274, 1639854, 1640459, 1641077, 1641709, 1642347, 1642980, 1643570, 1644157, 1644783, 1645405, 1645996, 1646606, 1647182, 1647789, 1648403, 1648976]",37,R,ITM,1.1,
4,600,trial,0,88,88,88,trial,"['S', 'S', 'S', 'S', 'S', 'S', 'C', 'C', 'C', 'C', 'C', 'C', 'C', 'C', 'C', 'C', 'C', 'C', 'C', 'C', 'C', 'C']","[1655711, 1656350, 1656983, 1657566, 1658171, 1658725, 1659358, 1659936, 1660524, 1661093, 1661693, 1662289, 1662909, 1663503, 1664091, 1664659, 1665225, 1665821, 1666401, 1666979, 1667551, 1668105]","[1656037, 1656615, 1657269, 1657840, 1658423, 1658989, 1659604, 1660197, 1660764, 1661386, 1661943, 1662542, 1663148, 1663710, 1664324, 1664899, 1665431, 1666063, 1666661, 1667281, 1667823]","[1654614, 1655214, 1655814, 1656413, 1657013, 1657613, 1658213, 1658813, 1659383, 1659962, 1660550, 1661119, 1661720, 1662315, 1662935, 1663528, 1664116, 1664685, 1665251, 1665847, 1666426, 1667005, 1667576, 1668131]",37,R,ITM,1.1,
7,400,trial,0,89,89,89,trial,"['S', 'S', 'S', 'S', 'S', 'S', 'C', 'C', 'C', 'C', 'C', 'C', 'C', 'C', 'C', 'C', 'C', 'C', 'C', 'C', 'C', 'C']","[1674614, 1675016, 1675423, 1675802, 1676239, 1676644, 1677022, 1677390, 1677772, 1678141, 1678508, 1678897, 1679259, 1679632, 1680034, 1680430, 1680790, 1681131, 1681507, 1681871, 1682255, 1682640]","[1674757, 1675142, 1675527, 1675933, 1676368, 1676767, 1677153, 1677519, 1677896, 1678264, 1678628, 1679010, 1679392, 1679748, 1680134, 1680542, 1680883, 1681253, 1681638, 1681989, 1682376, 1682756]","[1673895, 1674295, 1674695, 1675096, 1675495, 1675895, 1676296, 1676696, 1677049, 1677418, 1677800, 1678169, 1678534, 1678923, 1679287, 1679659, 1680061, 1680456, 1680817, 1681159, 1681533, 1681898, 1682283, 1682667]",37,R,ITM,1.1,
5,400,trial,0,90,90,90,trial,"['S', 'S', 'S', 'S', 'S', 'S', 'S', 'C', 'C', 'C', 'C', 'C', 'C', 'C', 'C', 'C', 'C', 'C', 'C', 'C', 'C', 'C', 'C', 'C']","[1688534, 1688899, 1689270, 1689706, 1690098, 1690491, 1690877, 1691276, 1691646, 1692010, 1692372, 1692730, 1693120, 1693512, 1693898, 1694278, 1694681, 1695075, 1695453, 1695816, 1696205, 1696600, 1696828, 1699777]","[1688687, 1689042, 1689413, 1689889, 1690275, 1690654, 1691040, 1691446, 1691792, 1692146, 1692498, 1692890, 1693264, 1693633, 1694051, 1694403, 1694810, 1695193, 1695572, 1695943, 1696344, 1696728, 1696977, 1699916]","[1688178, 1688578, 1688977, 1689377, 1689778, 1690178, 1690578, 1690978, 1691301, 1691671, 1692036, 1692398, 1692755, 1693146, 1693538, 1693924, 1694304, 1694706, 1695100, 1695478, 1695842, 1696231, 1696625, 1699803]",37,R,ITM,1.1,
4,400,trial,0,91,91,91,trial,"['S', 'S', 'S', 'S', 'S', 'S', 'S', 'C', 'C', 'C', 'C', 'C', 'C', 'C', 'C', 'C', 'C', 'C', 'C', 'C', 'C', 'C', 'C']","[1705710, 1706074, 1706472, 1706897, 1707284, 1707687, 1708091, 1708505, 1708869, 1709247, 1709627, 1709986, 1710356, 1710709, 1711074, 1711443, 1711813, 1712168, 1712520, 1712907, 1713263, 1713611, 1713975]","[1705835, 1706235, 1706629, 1707062, 1707445, 1707842, 1708255, 1708647, 1708997, 1709392, 1709736, 1710112, 1710474, 1710836, 1711194, 1711552, 1711916, 1712271, 1712634, 1712999, 1713372, 1713727, 1714083]","[1705361, 1705760, 1706161, 1706560, 1706960, 1707360, 1707760, 1708161, 1708530, 1708896, 1709274, 1709652, 1710013, 1710383, 1710735, 1711099, 1711469, 1711839, 1712194, 1712545, 1712932, 1713289, 1713637, 1714000]",37,R,ITM,1.1,
7,600,trial,0,92,92,92,trial,"['S', 'S', 'S', 'S', 'S', 'S', 'S', 'C', 'C', 'C', 'C', 'C', 'C', 'C', 'C', 'C', 'C', 'C', 'C', 'C', 'C', 'C', 'C']","[1719856, 1720673, 1721308, 1721902, 1722488, 1723109, 1723711, 1724344, 1724950, 1725553, 1726133, 1726737, 1727325, 1727910, 1728497, 1729084, 1729655, 1730239, 1730834, 1731433, 1732001, 1732601, 1733204]","[1720009, 1720929, 1721516, 1722112, 1722704, 1723318, 1723905, 1724564, 1725167, 1725787, 1726369, 1726978, 1727570, 1728123, 1728709, 1729332, 1729884, 1730458, 1731059, 1731630, 1732250, 1732868, 1733436]","[1719537, 1720136, 1720736, 1721336, 1721936, 1722536, 1723137, 1723737, 1724370, 1724978, 1725581, 1726159, 1726764, 1727352, 1727937, 1728525, 1729111, 1729683, 1730266, 1730861, 1731461, 1732029, 1732628, 1733230]",37,R,ITM,1.1,
4,400,trial,0,93,93,93,trial,"['S', 'S', 'S', 'S', 'S', 'S', 'C', 'C', 'C', 'C', 'C', 'C', 'C', 'C', 'C', 'C', 'C', 'C', 'C', 'C', 'C', 'C']","[1739716, 1740103, 1740541, 1740942, 1741359, 1741755, 1742167, 1742551, 1742956, 1743346, 1743730, 1744126, 1744525, 1744906, 1745335, 1745728, 1746108, 1746483, 1746891, 1747265, 1747652, 1748029]","[1739832, 1740240, 1740661, 1741061, 1741486, 1741864, 1742281, 1742667, 1743059, 1743447, 1743850, 1744225, 1744645, 1745004, 1745443, 1745837, 1746187, 1746599, 1747012, 1747377, 1747771, 1748160]","[1739011, 1739410, 1739810, 1740210, 1740610, 1741010, 1741410, 1741810, 1742192, 1742576, 1742982, 1743373, 1743756, 1744152, 1744550, 1744931, 1745361, 1745754, 1746134, 1746508, 1746917, 1747291, 1747678, 1748055]",37,R,ITM,1.1,
2,600,trial,0,94,94,94,trial,"['S', 'S', 'S', 'S', 'S', 'S', 'C', 'C', 'C', 'C', 'C', 'C', 'C', 'C', 'C', 'C', 'C', 'C', 'C', 'C', 'C', 'C']","[1754803, 1755439, 1756020, 1756659, 1757233, 1757834, 1758445, 1759019, 1759609, 1760209, 1760787, 1761382, 1761996, 1762609, 1763206, 1763809, 1764414, 1765029, 1765651, 1766242, 1766824, 1767437]","[1755124, 1755700, 1756304, 1756881, 1757513, 1758100, 1758714, 1759314, 1759878, 1760501, 1761094, 1761669, 1762287, 1762883, 1763495, 1764124, 1764687, 1765340, 1765956, 1766604, 1767182]","[1753675, 1754275, 1754875, 1755474, 1756076, 1756676, 1757276, 1757876, 1758473, 1759046, 1759637, 1760237, 1760815, 1761410, 1762023, 1762636, 1763232, 1763835, 1764441, 1765057, 1765678, 1766269, 1766852, 1767463]",37,R,ITM,1.1,
3,400,trial,0,95,95,95,trial,"['S', 'S', 'S', 'S', 'S', 'S', 'C', 'C', 'C', 'C', 'C', 'C', 'C', 'C', 'C', 'C', 'C', 'C', 'C', 'C', 'C', 'C']","[1773493, 1773888, 1774312, 1774732, 1775155, 1775554, 1775963, 1776337, 1776702, 1777091, 1777481, 1777865, 1778242, 1778612, 1779009, 1779418, 1779803, 1780192, 1780578, 1780885, 1781275, 1781681]","[1773617, 1774003, 1774445, 1774874, 1775305, 1775699, 1776090, 1776460, 1776833, 1777217, 1777608, 1777989, 1778360, 1778735, 1779147, 1779535, 1779929, 1780303, 1780694, 1781000, 1781387, 1781793]","[1772805, 1773203, 1773603, 1774003, 1774403, 1774803, 1775203, 1775603, 1775988, 1776363, 1776728, 1777117, 1777507, 1777891, 1778268, 1778637, 1779035, 1779443, 1779828, 1780217, 1780603, 1780911, 1781301, 1781706]",37,R,ITM,1.1,
3,400,trial,0,96,96,96,trial,"['S', 'S', 'S', 'S', 'S', 'S', 'S', 'C', 'C', 'C', 'C', 'C', 'C', 'C', 'C', 'C', 'C', 'C', 'C', 'C', 'C', 'C', 'C']","[1787756, 1788163, 1788585, 1789019, 1789407, 1789805, 1790234, 1790632, 1791029, 1791400, 1791793, 1792192, 1792585, 1792990, 1793427, 1793832, 1794203, 1794609, 1795037, 1795436, 1795845, 1796231, 1796609]","[1787895, 1788292, 1788736, 1789165, 1789546, 1789956, 1790364, 1790768, 1791166, 1791539, 1791927, 1792324, 1792730, 1793164, 1793581, 1793977, 1794345, 1794762, 1795177, 1795593, 1795988, 1796363, 1796743]","[1787459, 1787859, 1788259, 1788659, 1789060, 1789459, 1789859, 1790259, 1790658, 1791054, 1791426, 1791818, 1792219, 1792611, 1793015, 1793453, 1793858, 1794229, 1794634, 1795062, 1795462, 1795870, 1796256, 1796634]",37,R,ITM,1.1,
7,400,trial,0,97,97,97,trial,"['S', 'S', 'S', 'S', 'S', 'S', 'C', 'C', 'C', 'C', 'C', 'C', 'C', 'C', 'C', 'C', 'C', 'C', 'C', 'C', 'C', 'C']","[1802911, 1803299, 1803756, 1804157, 1804548, 1804926, 1805341, 1805710, 1806111, 1806522, 1806911, 1807289, 1807710, 1808099, 1808461, 1808837, 1809248, 1809626, 1809996, 1810392, 1810774, 1811138]","[1803061, 1803483, 1803932, 1804299, 1804657, 1805066, 1805477, 1805865, 1806263, 1806661, 1807049, 1807452, 1807849, 1808240, 1808606, 1808980, 1809366, 1809740, 1810102, 1810501, 1810902, 1811274]","[1802213, 1802612, 1803013, 1803412, 1803812, 1804212, 1804612, 1805012, 1805368, 1805736, 1806138, 1806550, 1806938, 1807315, 1807736, 1808125, 1808489, 1808864, 1809275, 1809652, 1810024, 1810419, 1810801, 1811165]",37,R,ITM,1.1,
7,600,trial,0,98,98,98,trial,"['S', 'S', 'S', 'S', 'S', 'S', 'S', 'C', 'C', 'C', 'C', 'C', 'C', 'C', 'C', 'C', 'C', 'C', 'C', 'C', 'C', 'C', 'C']","[1816902, 1817673, 1818342, 1818916, 1819529, 1820108, 1820717, 1821316, 1821932, 1822557, 1823164, 1823770, 1824391, 1825015, 1825624, 1826241, 1826854, 1827449, 1828068, 1828674, 1829300, 1829879, 1830531]","[1817064, 1817930, 1818522, 1819127, 1819704, 1820323, 1820892, 1821513, 1822125, 1822724, 1823368, 1823975, 1824624, 1825218, 1825801, 1826481, 1827076, 1827724, 1828261, 1828874, 1829519, 1830119, 1830775]","[1816563, 1817162, 1817762, 1818362, 1818962, 1819563, 1820163, 1820763, 1821342, 1821960, 1822583, 1823192, 1823797, 1824418, 1825043, 1825650, 1826269, 1826881, 1827476, 1828096, 1828702, 1829327, 1829906, 1830558]",37,R,ITM,1.1,
6,400,trial,0,99,99,99,trial,"['S', 'S', 'S', 'S', 'S', 'S', 'S', 'C', 'C', 'C', 'C', 'C', 'C', 'C', 'C', 'C', 'C', 'C', 'C', 'C', 'C', 'C', 'C']","[1836640, 1837022, 1837403, 1837830, 1838209, 1838599, 1839012, 1839427, 1839815, 1840181, 1840572, 1840956, 1841340, 1841718, 1842105, 1842492, 1842854, 1843261, 1843618, 1844003, 1844363, 1844740, 1845106]","[1836819, 1837161, 1837532, 1837953, 1838341, 1838734, 1839137, 1839553, 1839933, 1840296, 1840695, 1841086, 1841454, 1841845, 1842236, 1842601, 1842976, 1843357, 1843752, 1844117, 1844484, 1844866, 1845229]","[1836279, 1836679, 1837078, 1837478, 1837878, 1838278, 1838679, 1839078, 1839454, 1839842, 1840208, 1840599, 1840984, 1841368, 1841745, 1842132, 1842519, 1842881, 1843289, 1843645, 1844030, 1844389, 1844767, 1845133]",37,R,ITM,1.1,
2,400,trial,0,100,100,100,trial,"['S', 'S', 'S', 'S', 'S', 'S', 'C', 'C', 'C', 'C', 'C', 'C', 'C', 'C', 'C', 'C', 'C', 'C', 'C', 'C', 'C', 'C']","[1851496, 1851900, 1852332, 1852759, 1853171, 1853600, 1853998, 1854403, 1854785, 1855194, 1855605, 1855987, 1856354, 1856764, 1857171, 1857548, 1857969, 1858427, 1858785, 1859142, 1859535, 1859898]","[1851618, 1852029, 1852471, 1852912, 1853317, 1853709, 1854121, 1854538, 1854908, 1855330, 1855713, 1856108, 1856475, 1856888, 1857289, 1857701, 1858032, 1858551, 1858913, 1859298, 1859689, 1860042]","[1850801, 1851200, 1851600, 1852000, 1852399, 1852801, 1853200, 1853600, 1854025, 1854430, 1854812, 1855221, 1855633, 1856014, 1856381, 1856791, 1857199, 1857575, 1857995, 1858454, 1858811, 1859169, 1859563, 1859926]",37,R,ITM,1.1,
3,600,trial,0,101,101,101,trial,"['S', 'S', 'S', 'S', 'S', 'S', 'C', 'C', 'C', 'C', 'C', 'C', 'C', 'C', 'C', 'C', 'C', 'C', 'C', 'C', 'C', 'C']","[1866332, 1866943, 1867524, 1868171, 1868753, 1869347, 1869963, 1870525, 1871102, 1871696, 1872270, 1872878, 1873480, 1874055, 1874619, 1875213, 1875802, 1876378, 1876954, 1877548, 1878128, 1878751]","[1866593, 1867181, 1867804, 1868403, 1869029, 1869615, 1870187, 1870809, 1871353, 1871944, 1872534, 1873114, 1873718, 1874314, 1874867, 1875471, 1876034, 1876642, 1877231, 1877825, 1878415, 1878998]","[1865209, 1865808, 1866408, 1867009, 1867609, 1868209, 1868808, 1869408, 1869988, 1870551, 1871128, 1871722, 1872295, 1872904, 1873506, 1874080, 1874646, 1875238, 1875827, 1876404, 1876979, 1877573, 1878154, 1878776]",37,R,ITM,1.1,
3,600,trial,0,102,102,102,trial,"['S', 'S', 'S', 'S', 'S', 'C', 'C', 'C', 'C', 'C', 'C', 'C', 'C', 'C', 'C', 'C', 'C', 'C', 'C', 'C', 'C']","[1886045, 1886669, 1887300, 1887891, 1888480, 1889110, 1889698, 1890269, 1890847, 1891462, 1892048, 1892614, 1893190, 1893792, 1894384, 1894953, 1895519, 1896101, 1896695, 1897285, 1897879]","[1886268, 1886956, 1887572, 1888138, 1888765, 1889370, 1889964, 1890555, 1891149, 1891721, 1892354, 1892893, 1893498, 1894095, 1894653, 1895248, 1895864, 1896414, 1896996, 1897565]","[1884335, 1884935, 1885535, 1886135, 1886735, 1887335, 1887935, 1888535, 1889135, 1889725, 1890294, 1890873, 1891487, 1892074, 1892639, 1893216, 1893818, 1894410, 1894979, 1895544, 1896127, 1896721, 1897311, 1897905]",37,R,ITM,1.1,
7,600,trial,0,103,103,103,trial,"['S', 'S', 'S', 'S', 'S', 'S', 'C', 'C', 'C', 'C', 'C', 'C', 'C', 'C', 'C', 'C', 'C', 'C', 'C', 'C', 'C', 'C']","[1904327, 1904987, 1905611, 1906191, 1906786, 1907371, 1907983, 1908561, 1909143, 1909731, 1910323, 1910912, 1911476, 1912041, 1912674, 1913289, 1913891, 1914438, 1915029, 1915621, 1916209, 1916778]","[1904559, 1905235, 1905818, 1906402, 1906982, 1907580, 1908174, 1908798, 1909373, 1909967, 1910552, 1911151, 1911711, 1912287, 1912924, 1913510, 1914084, 1914676, 1915256, 1915870, 1916436, 1916999]","[1903212, 1903811, 1904411, 1905011, 1905611, 1906211, 1906811, 1907411, 1908009, 1908588, 1909170, 1909757, 1910349, 1910938, 1911503, 1912069, 1912700, 1913317, 1913918, 1914465, 1915056, 1915648, 1916235, 1916806]",37,R,ITM,1.1,
5,400,trial,0,104,104,104,trial,"['S', 'S', 'S', 'S', 'S', 'S', 'C', 'C', 'C', 'C', 'C', 'C', 'C', 'C', 'C', 'C', 'C', 'C', 'C', 'C', 'C', 'C']","[1923272, 1923658, 1924084, 1924464, 1924878, 1925300, 1925693, 1926076, 1926479, 1926885, 1927274, 1927660, 1928065, 1928438, 1928837, 1929221, 1929624, 1930010, 1930392, 1930774, 1931152, 1931527]","[1923459, 1923836, 1924227, 1924657, 1925074, 1925473, 1925851, 1926240, 1926647, 1927032, 1927413, 1927777, 1928194, 1928590, 1928991, 1929369, 1929767, 1930144, 1930541, 1930915, 1931296, 1931685]","[1922548, 1922949, 1923348, 1923748, 1924148, 1924548, 1924948, 1925348, 1925720, 1926103, 1926505, 1926910, 1927300, 1927686, 1928090, 1928465, 1928862, 1929247, 1929650, 1930036, 1930418, 1930800, 1931177, 1931552]",37,R,ITM,1.1,
2,600,trial,0,105,105,105,trial,"['S', 'S', 'S', 'S', 'S', 'S', 'C', 'C', 'C', 'C', 'C', 'C', 'C', 'C', 'C', 'C', 'C', 'C', 'C', 'C', 'C', 'C']","[1938097, 1938759, 1939428, 1939972, 1940577, 1941172, 1941787, 1942397, 1943001, 1943607, 1944245, 1944858, 1945483, 1946091, 1946781, 1947422, 1948024, 1948571, 1949146, 1949701, 1950278, 1950829]","[1938430, 1939043, 1939650, 1940234, 1940790, 1941410, 1942020, 1942623, 1943227, 1943877, 1944459, 1945109, 1945764, 1946360, 1947084, 1947700, 1948262, 1948871, 1949426, 1949979, 1950518]","[1937012, 1937612, 1938212, 1938812, 1939412, 1940013, 1940613, 1941213, 1941814, 1942425, 1943027, 1943634, 1944272, 1944886, 1945509, 1946119, 1946809, 1947450, 1948052, 1948599, 1949173, 1949728, 1950305, 1950856]",37,R,ITM,1.1,
6,600,trial,0,106,106,106,trial,"['S', 'S', 'S', 'S', 'S', 'S', 'C', 'C', 'C', 'C', 'C', 'C', 'C', 'C', 'C', 'C', 'C', 'C', 'C', 'C', 'C', 'C']","[1957683, 1958312, 1958904, 1959502, 1960113, 1960718, 1961312, 1961911, 1962523, 1963124, 1963719, 1964294, 1964871, 1965484, 1966072, 1966650, 1967262, 1967870, 1968416, 1969031, 1969640, 1970230]","[1957991, 1958600, 1959194, 1959786, 1960363, 1960973, 1961605, 1962193, 1962778, 1963375, 1963931, 1964567, 1965163, 1965735, 1966343, 1966962, 1967524, 1968095, 1968629, 1969260, 1969853, 1970438]","[1956569, 1957168, 1957768, 1958368, 1958968, 1959568, 1960168, 1960768, 1961339, 1961937, 1962550, 1963151, 1963747, 1964321, 1964899, 1965510, 1966099, 1966676, 1967289, 1967896, 1968443, 1969057, 1969667, 1970256]",37,R,ITM,1.1,
5,600,trial,0,107,107,107,trial,"['S', 'S', 'S', 'S', 'S', 'S', 'C', 'C', 'C', 'C', 'C', 'C', 'C', 'C', 'C', 'C', 'C', 'C', 'C', 'C', 'C', 'C']","[1976895, 1977587, 1978195, 1978773, 1979398, 1980007, 1980638, 1981254, 1981833, 1982372, 1982965, 1983544, 1984105, 1984707, 1985357, 1985954, 1986568, 1987168, 1987768, 1988355, 1988888, 1989476]","[1977191, 1977852, 1978492, 1979046, 1979621, 1980278, 1980900, 1981505, 1982145, 1982692, 1983272, 1983855, 1984402, 1984987, 1985629, 1986220, 1986832, 1987436, 1988047, 1988643, 1989188, 1989744]","[1975837, 1976436, 1977036, 1977636, 1978236, 1978836, 1979437, 1980037, 1980663, 1981280, 1981858, 1982398, 1982991, 1983570, 1984131, 1984733, 1985383, 1985981, 1986594, 1987193, 1987794, 1988380, 1988914, 1989501]",37,R,ITM,1.1,
3,400,trial,0,108,108,108,trial,"['S', 'S', 'S', 'S', 'S', 'S', 'C', 'C', 'C', 'C', 'C', 'C', 'C', 'C', 'C', 'C', 'C', 'C', 'C', 'C', 'C', 'C']","[1995703, 1996109, 1996560, 1996961, 1997387, 1997785, 1998191, 1998592, 1998982, 1999370, 1999769, 2000165, 2000533, 2000943, 2001338, 2001734, 2002126, 2002528, 2002911, 2003317, 2003749, 2004128]","[1995814, 1996220, 1996678, 1997089, 1997515, 1997901, 1998306, 1998703, 1999109, 1999493, 1999879, 2000287, 2000659, 2001060, 2001445, 2001845, 2002231, 2002633, 2003035, 2003448, 2003865, 2004260]","[1995011, 1995409, 1995809, 1996210, 1996610, 1997010, 1997410, 1997810, 1998217, 1998617, 1999007, 1999395, 1999795, 2000191, 2000559, 2000968, 2001363, 2001760, 2002152, 2002553, 2002936, 2003343, 2003775, 2004154]",37,R,ITM,1.1,
5,600,trial,0,109,109,109,trial,"['S', 'S', 'S', 'S', 'S', 'S', 'S', 'C', 'C', 'C', 'C', 'C', 'C', 'C', 'C', 'C', 'C', 'C', 'C', 'C', 'C', 'C', 'C']","[2009999, 2010732, 2011374, 2012008, 2012585, 2013193, 2013822, 2014422, 2015020, 2015620, 2016181, 2016742, 2017338, 2017931, 2018510, 2019091, 2019683, 2020227, 2020814, 2021388, 2021976, 2022533, 2023122]","[2010159, 2011006, 2011648, 2012258, 2012841, 2013452, 2014064, 2014693, 2015276, 2015858, 2016431, 2017026, 2017600, 2018212, 2018765, 2019383, 2019937, 2020499, 2021089, 2021652, 2022236, 2022803]","[2009670, 2010269, 2010869, 2011469, 2012069, 2012669, 2013270, 2013870, 2014447, 2015046, 2015645, 2016206, 2016769, 2017363, 2017957, 2018537, 2019118, 2019709, 2020252, 2020841, 2021413, 2022001, 2022559, 2023148]",37,R,ITM,1.1,
7,400,trial,0,110,110,110,trial,"['S', 'S', 'S', 'S', 'S', 'S', 'C', 'C', 'C', 'C', 'C', 'C', 'C', 'C', 'C', 'C', 'C', 'C', 'C', 'C', 'C', 'C']","[2029555, 2029947, 2030359, 2030766, 2031162, 2031586, 2031976, 2032354, 2032755, 2033142, 2033543, 2033925, 2034322, 2034731, 2035149, 2035544, 2035939, 2036316, 2036689, 2037093, 2037480, 2037860]","[2029753, 2030144, 2030568, 2030955, 2031355, 2031775, 2032156, 2032534, 2032898, 2033284, 2033672, 2034054, 2034475, 2034895, 2035298, 2035717, 2036084, 2036452, 2036865, 2037242, 2037633, 2038001]","[2028826, 2029227, 2029626, 2030026, 2030427, 2030826, 2031226, 2031626, 2032003, 2032381, 2032782, 2033170, 2033569, 2033952, 2034349, 2034757, 2035177, 2035570, 2035966, 2036343, 2036716, 2037120, 2037508, 2037886]",37,R,ITM,1.1,
3,600,trial,0,111,111,111,trial,"['S', 'S', 'S', 'S', 'S', 'S', 'C', 'C', 'C', 'C', 'C', 'C', 'C', 'C', 'C', 'C', 'C', 'C', 'C', 'C', 'C', 'C']","[2044779, 2045374, 2046003, 2046575, 2047223, 2047797, 2048382, 2048971, 2049576, 2050166, 2050750, 2051329, 2051926, 2052506, 2053085, 2053661, 2054262, 2054861, 2055430, 2056002, 2056599, 2057192]","[2044990, 2045632, 2046264, 2046856, 2047466, 2048048, 2048652, 2049220, 2049819, 2050405, 2050998, 2051604, 2052165, 2052744, 2053327, 2053921, 2054526, 2055098, 2055686, 2056240, 2056854, 2057452]","[2043645, 2044246, 2044846, 2045446, 2046045, 2046645, 2047245, 2047845, 2048408, 2048997, 2049603, 2050192, 2050776, 2051354, 2051951, 2052532, 2053110, 2053687, 2054288, 2054887, 2055455, 2056028, 2056625, 2057218]",37,R,ITM,1.1,
4,400,trial,0,112,112,112,trial,"['S', 'S', 'S', 'S', 'S', 'S', 'C', 'C', 'C', 'C', 'C', 'C', 'C', 'C', 'C', 'C', 'C', 'C', 'C', 'C', 'C', 'C']","[2063686, 2064107, 2064512, 2064912, 2065327, 2065727, 2066114, 2066525, 2066915, 2067307, 2067705, 2068111, 2068507, 2068908, 2069324, 2069731, 2070087, 2070476, 2070867, 2071248, 2071646, 2072025]","[2063821, 2064234, 2064670, 2065079, 2065502, 2065899, 2066292, 2066698, 2067093, 2067482, 2067889, 2068294, 2068687, 2069098, 2069515, 2069925, 2070282, 2070649, 2071041, 2071437, 2071824, 2072187]","[2062973, 2063373, 2063773, 2064174, 2064573, 2064973, 2065373, 2065773, 2066141, 2066550, 2066940, 2067333, 2067731, 2068136, 2068533, 2068933, 2069350, 2069756, 2070113, 2070503, 2070893, 2071274, 2071671, 2072051]",37,R,ITM,1.1,
2,400,trial,0,113,113,113,trial,"['S', 'S', 'S', 'S', 'S', 'S', 'S', 'C', 'C', 'C', 'C', 'C', 'C', 'C', 'C', 'C', 'C', 'C', 'C', 'C', 'C', 'C', 'C']","[2077940, 2078327, 2078698, 2079123, 2079527, 2079958, 2080367, 2080773, 2081176, 2081566, 2081967, 2082382, 2082748, 2083162, 2083558, 2083954, 2084367, 2084755, 2085167, 2085587, 2085958, 2086361, 2086736]","[2078135, 2078518, 2078895, 2079322, 2079734, 2080168, 2080558, 2080970, 2081363, 2081761, 2082159, 2082558, 2082939, 2083357, 2083744, 2084129, 2084537, 2084955, 2085360, 2085768, 2086169, 2086529, 2086923]","[2077593, 2077993, 2078393, 2078793, 2079194, 2079593, 2079993, 2080392, 2080799, 2081204, 2081593, 2081993, 2082409, 2082775, 2083188, 2083585, 2083981, 2084395, 2084782, 2085193, 2085614, 2085985, 2086387, 2086763]",37,R,ITM,1.1,
7,400,trial,0,114,114,114,trial,"['S', 'S', 'S', 'S', 'S', 'S', 'C', 'C', 'C', 'C', 'C', 'C', 'C', 'C', 'C', 'C', 'C', 'C', 'C', 'C', 'C', 'C']","[2093206, 2093597, 2094015, 2094401, 2094787, 2095199, 2095605, 2095983, 2096376, 2096770, 2097143, 2097529, 2097915, 2098293, 2098677, 2099067, 2099456, 2099817, 2100188, 2100572, 2100966, 2101342]","[2093338, 2093782, 2094157, 2094590, 2094972, 2095390, 2095791, 2096178, 2096563, 2096951, 2097335, 2097709, 2098097, 2098492, 2098881, 2099250, 2099623, 2099993, 2100378, 2100751, 2101144, 2101516]","[2092485, 2092886, 2093285, 2093685, 2094086, 2094485, 2094885, 2095285, 2095632, 2096011, 2096403, 2096797, 2097170, 2097556, 2097942, 2098321, 2098704, 2099094, 2099483, 2099844, 2100215, 2100598, 2100993, 2101368]",37,R,ITM,1.1,
2,600,trial,0,115,115,115,trial,"['S', 'S', 'S', 'S', 'S', 'S', 'S', 'C', 'C', 'C', 'C', 'C', 'C', 'C', 'C', 'C', 'C', 'C', 'C', 'C', 'C', 'C', 'C']","[2107119, 2107952, 2108573, 2109203, 2109789, 2110393, 2110969, 2111574, 2112193, 2112785, 2113376, 2113972, 2114590, 2115235, 2115836, 2116427, 2117013, 2117646, 2118236, 2118816, 2119405, 2119961, 2120551]","[2107293, 2108230, 2108862, 2109476, 2110076, 2110676, 2111249, 2111883, 2112495, 2113060, 2113654, 2114284, 2114886, 2115512, 2116119, 2116743, 2117322, 2117893, 2118467, 2119097, 2119599, 2120223]","[2106820, 2107419, 2108020, 2108620, 2109220, 2109820, 2110420, 2111020, 2111600, 2112220, 2112813, 2113403, 2113999, 2114617, 2115262, 2115864, 2116454, 2117041, 2117673, 2118263, 2118843, 2119432, 2119989, 2120579]",37,R,ITM,1.1,
6,400,trial,0,116,116,116,trial,"['S', 'S', 'S', 'S', 'S', 'S', 'C', 'C', 'C', 'C', 'C', 'C', 'C', 'C', 'C', 'C', 'C', 'C', 'C', 'C', 'C', 'C']","[2126638, 2127051, 2127454, 2127854, 2128286, 2128688, 2129088, 2129474, 2129865, 2130243, 2130612, 2131003, 2131365, 2131741, 2132121, 2132481, 2132877, 2133246, 2133617, 2133965, 2134335, 2134714]","[2126754, 2127166, 2127589, 2127997, 2128428, 2128840, 2129234, 2129618, 2130004, 2130377, 2130740, 2131122, 2131500, 2131859, 2132242, 2132603, 2133004, 2133374, 2133733, 2134103, 2134475, 2134841]","[2125954, 2126352, 2126752, 2127153, 2127552, 2127952, 2128352, 2128752, 2129115, 2129501, 2129893, 2130271, 2130638, 2131030, 2131393, 2131768, 2132149, 2132507, 2132904, 2133274, 2133645, 2133993, 2134362, 2134742]",37,R,ITM,1.1,
6,400,trial,0,117,117,117,trial,"['S', 'S', 'S', 'S', 'S', 'S', 'C', 'C', 'C', 'C', 'C', 'C', 'C', 'C', 'C', 'C', 'C', 'C', 'C', 'C', 'C', 'C']","[2140923, 2141321, 2141745, 2142149, 2142536, 2142948, 2143390, 2143784, 2144159, 2144559, 2144947, 2145338, 2145733, 2146126, 2146523, 2146910, 2147308, 2147694, 2148097, 2148485, 2148882, 2149273]","[2141101, 2141491, 2141930, 2142326, 2142729, 2143151, 2143572, 2143964, 2144335, 2144728, 2145127, 2145505, 2145896, 2146288, 2146673, 2147082, 2147450, 2147841, 2148240, 2148633, 2149030, 2149423]","[2140224, 2140623, 2141023, 2141423, 2141824, 2142223, 2142623, 2143024, 2143417, 2143811, 2144186, 2144585, 2144974, 2145364, 2145760, 2146153, 2146549, 2146937, 2147336, 2147721, 2148123, 2148512, 2148910, 2149301]",37,R,ITM,1.1,
3,400,trial,0,118,118,118,trial,"['S', 'S', 'S', 'S', 'S', 'S', 'C', 'C', 'C', 'C', 'C', 'C', 'C', 'C', 'C', 'C', 'C', 'C', 'C', 'C', 'C', 'C']","[2155641, 2156040, 2156439, 2156831, 2157244, 2157639, 2158044, 2158420, 2158807, 2159194, 2159577, 2159951, 2160321, 2160702, 2161093, 2161439, 2161810, 2162177, 2162566, 2162951, 2163325, 2163692]","[2155826, 2156218, 2156625, 2157019, 2157417, 2157829, 2158195, 2158590, 2158974, 2159372, 2159744, 2160117, 2160477, 2160861, 2161215, 2161576, 2161959, 2162332, 2162715, 2163089, 2163459, 2163828]","[2154925, 2155323, 2155723, 2156124, 2156523, 2156923, 2157323, 2157723, 2158069, 2158446, 2158832, 2159219, 2159602, 2159977, 2160347, 2160728, 2161119, 2161465, 2161836, 2162202, 2162591, 2162976, 2163351, 2163718]",37,R,ITM,1.1,
5,400,trial,0,119,119,119,trial,"['S', 'S', 'S', 'S', 'S', 'S', 'S', 'C', 'C', 'C', 'C', 'C', 'C', 'C', 'C', 'C', 'C', 'C', 'C', 'C', 'C', 'C', 'C']","[2169560, 2169960, 2170361, 2170768, 2171141, 2171566, 2171978, 2172377, 2172769, 2173173, 2173570, 2173964, 2174354, 2174759, 2175147, 2175548, 2175962, 2176336, 2176713, 2177115, 2177511, 2177904, 2178282]","[2169723, 2170150, 2170537, 2170930, 2171337, 2171754, 2172163, 2172571, 2172959, 2173324, 2173709, 2174097, 2174474, 2174917, 2175280, 2175679, 2176081, 2176475, 2176850, 2177251, 2177626, 2178035, 2178415]","[2169233, 2169632, 2170033, 2170432, 2170832, 2171232, 2171632, 2172033, 2172402, 2172795, 2173199, 2173596, 2173989, 2174380, 2174785, 2175172, 2175574, 2175987, 2176362, 2176739, 2177140, 2177537, 2177930, 2178308]",37,R,ITM,1.1,
2,400,trial,0,120,120,120,trial,"['S', 'S', 'S', 'S', 'S', 'S', 'C', 'C', 'C', 'C', 'C', 'C', 'C', 'C', 'C', 'C', 'C', 'C', 'C', 'C', 'C', 'C']","[2184347, 2184727, 2185154, 2185540, 2185949, 2186351, 2186772, 2187167, 2187568, 2187966, 2188367, 2188746, 2189145, 2189560, 2189953, 2190344, 2190764, 2191201, 2191607, 2191992, 2192417, 2192818]","[2184504, 2184914, 2185346, 2185722, 2186145, 2186570, 2186978, 2187365, 2187762, 2188168, 2188558, 2188919, 2189330, 2189741, 2190126, 2190501, 2190947, 2191356, 2191759, 2192142, 2192516, 2192974]","[2183617, 2184016, 2184417, 2184817, 2185218, 2185617, 2186017, 2186417, 2186799, 2187194, 2187594, 2187993, 2188395, 2188774, 2189172, 2189588, 2189979, 2190371, 2190790, 2191227, 2191635, 2192019, 2192444, 2192845]",37,R,ITM,1.1,
4,400,trial,0,121,121,121,trial,"['S', 'S', 'S', 'S', 'S', 'S', 'C', 'C', 'C', 'C', 'C', 'C', 'C', 'C', 'C', 'C', 'C', 'C', 'C', 'C', 'C', 'C']","[2199133, 2199536, 2199940, 2200346, 2200778, 2201167, 2201552, 2201945, 2202339, 2202704, 2203101, 2203485, 2203870, 2204268, 2204674, 2205058, 2205434, 2205805, 2206186, 2206598, 2206997, 2207360]","[2199299, 2199686, 2200100, 2200526, 2200951, 2201336, 2201714, 2202122, 2202498, 2202849, 2203279, 2203634, 2204037, 2204432, 2204824, 2205191, 2205554, 2205954, 2206345, 2206748, 2207143, 2207511]","[2198425, 2198825, 2199225, 2199625, 2200026, 2200425, 2200825, 2201225, 2201578, 2201970, 2202365, 2202730, 2203126, 2203511, 2203895, 2204294, 2204699, 2205084, 2205460, 2205831, 2206212, 2206623, 2207024, 2207385]",37,R,ITM,1.1,
4,600,trial,0,122,122,122,trial,"['S', 'S', 'S', 'S', 'S', 'S', 'C', 'C', 'C', 'C', 'C', 'C', 'C', 'C', 'C', 'C', 'C', 'C', 'C', 'C', 'C', 'C']","[2213982, 2214646, 2215222, 2215794, 2216395, 2217021, 2217627, 2218218, 2218815, 2219415, 2220009, 2220596, 2221170, 2221789, 2222415, 2223031, 2223633, 2224205, 2224777, 2225390, 2226043, 2226609]","[2214284, 2214889, 2215473, 2216038, 2216665, 2217263, 2217868, 2218469, 2219076, 2219662, 2220263, 2220835, 2221442, 2222040, 2222661, 2223255, 2223865, 2224422, 2225029, 2225622, 2226231]","[2212874, 2213474, 2214074, 2214674, 2215274, 2215874, 2216474, 2217074, 2217654, 2218244, 2218841, 2219441, 2220035, 2220621, 2221196, 2221814, 2222441, 2223056, 2223659, 2224231, 2224802, 2225416, 2226070, 2226634]",37,R,ITM,1.1,
7,600,trial,0,123,123,123,trial,"['S', 'S', 'S', 'S', 'S', 'S', 'C', 'C', 'C', 'C', 'C', 'C', 'C', 'C', 'C', 'C', 'C', 'C', 'C', 'C', 'C', 'C']","[2233530, 2234176, 2234783, 2235376, 2235959, 2236552, 2237171, 2237763, 2238352, 2238954, 2239556, 2240152, 2240729, 2241317, 2241890, 2242484, 2243072, 2243675, 2244244, 2244819, 2245400, 2245978]","[2233795, 2234415, 2235014, 2235598, 2236186, 2236815, 2237422, 2238014, 2238608, 2239208, 2239807, 2240397, 2240979, 2241567, 2242139, 2242764, 2243364, 2243934, 2244482, 2245083, 2245654]","[2232406, 2233005, 2233605, 2234205, 2234804, 2235404, 2236004, 2236604, 2237198, 2237790, 2238379, 2238981, 2239583, 2240180, 2240755, 2241344, 2241916, 2242510, 2243098, 2243701, 2244272, 2244847, 2245428, 2246004]",37,R,ITM,1.1,
6,600,trial,0,124,124,124,trial,"['S', 'S', 'S', 'S', 'S', 'S', 'C', 'C', 'C', 'C', 'C', 'C', 'C', 'C', 'C', 'C', 'C', 'C', 'C', 'C', 'C', 'C']","[2252451, 2253118, 2253726, 2254312, 2254906, 2255518, 2256116, 2256684, 2257267, 2257852, 2258449, 2259031, 2259604, 2260165, 2260730, 2261318, 2261915, 2262497, 2263054, 2263629, 2264238, 2264819]","[2252782, 2253413, 2254012, 2254593, 2255217, 2255813, 2256398, 2256948, 2257522, 2258160, 2258681, 2259295, 2259844, 2260417, 2260978, 2261588, 2262158, 2262731, 2263313, 2263878, 2264451, 2265033]","[2251390, 2251991, 2252591, 2253191, 2253790, 2254390, 2254990, 2255590, 2256143, 2256711, 2257295, 2257879, 2258476, 2259057, 2259631, 2260193, 2260757, 2261345, 2261943, 2262524, 2263080, 2263656, 2264264, 2264846]",37,R,ITM,1.1,
4,600,trial,0,125,125,125,trial,"['S', 'S', 'S', 'S', 'S', 'S', 'C', 'C', 'C', 'C', 'C', 'C', 'C', 'C', 'C', 'C', 'C', 'C', 'C', 'C', 'C', 'C']","[2271239, 2271877, 2272491, 2273060, 2273666, 2274246, 2274873, 2275439, 2276007, 2276584, 2277161, 2277711, 2278305, 2278859, 2279406, 2279983, 2280572, 2281154, 2281714, 2282284, 2282849, 2283403]","[2271561, 2272148, 2272738, 2273369, 2273939, 2274552, 2275097, 2275717, 2276299, 2276870, 2277427, 2277984, 2278550, 2279128, 2279663, 2280250, 2280880, 2281406, 2281976, 2282561, 2283137]","[2270151, 2270751, 2271351, 2271951, 2272551, 2273152, 2273752, 2274352, 2274898, 2275465, 2276033, 2276610, 2277187, 2277737, 2278331, 2278885, 2279432, 2280008, 2280598, 2281180, 2281740, 2282309, 2282874, 2283428]",37,R,ITM,1.1,
