octave,ioi,event,.thisRepN,.thisTrialN,.thisN,.thisIndex,tap_types,tap_times,release_times,tone_times,subject,handedness,experiment,version
,,SPR,0,-1,-1,0,"[b'P', b'P', b'P', b'P', b'P', b'P', b'P', b'P', b'P', b'P', b'P', b'P', b'P', b'P', b'P', b'P', b'P', b'P', b'P', b'P', b'P', b'P', b'P', b'P', b'P', b'P', b'P', b'P', b'P', b'P']","[4417.126607083892, 4417.6590233997995, 4418.240602051928, 4418.883620706436, 4419.526634406132, 4420.136887961474, 4420.726669302154, 4421.340998189017, 4421.918484875619, 4422.573793937223, 4423.106263340384, 4423.6468554473, 4424.150652070739, 4424.613467811605, 4425.190951666887, 4425.768459588389, 4426.333634986907, 4426.8783618830685, 4427.423060466028, 4428.021048034409, 4428.561671993678, 4429.077710537856, 4429.647021079533, 4430.158953855497, 4430.666838905313, 4431.244352489456, 4431.7399046623705, 4432.268273606043, 4432.788411547964, 4433.320887675511]","[4417.282233076403, 4417.740907303638, 4418.322493741897, 4418.957311477428, 4419.600327300615, 4420.21879557762, 4420.820869448887, 4421.431106370223, 4422.0085916411645, 4422.663890793148, 4423.208622644121, 4423.724685608435, 4424.236645635856, 4424.715829592747, 4425.29740152049, 4425.862599569568, 4426.4441920243835, 4426.9889256449305, 4427.521391155026, 4428.107038060376, 4428.659944994527, 4429.180094261728, 4429.76990887042, 4430.265461397249, 4430.781498879682, 4431.34669409744, 4431.850484350409, 4432.366523602416, 4432.886668622637, 4433.435483945175]",,6,R,ITM,1
2,500,practice,0,0,0,0,"['S', 'S', 'S', 'S', 'S', 'C', 'C', 'C', 'C', 'C', 'C', 'C', 'C', 'C', 'C', 'C', 'C', 'C', 'C', 'C', 'C']","[4493.031457383146, 4493.477898537517, 4493.96117198253, 4494.358460002471, 4494.767994544046, 4495.267681506206, 4495.714120183172, 4496.176945125829, 4496.619249721381, 4497.086211576773, 4497.528495645252, 4497.999506288539, 4498.4213492868785, 4498.863682903462, 4499.289617513415, 4499.736071762642, 4500.170201628929, 4500.620733333169, 4501.034382490832, 4501.480817274734, 4501.902653902604]","[4493.125653636813, 4493.551595325066, 4494.030801578602, 4494.43216528398, 4494.845870360218, 4495.337302254404, 4495.783715449488, 4496.246548178276, 4496.688916478532, 4497.1557827768665, 4497.594025135753, 4498.069094122639, 4498.482782918787, 4498.916897566728, 4499.355163637921, 4499.797493361439, 4500.227515689938, 4500.678065797758, 4501.099887561197, 4501.550408647984, 4501.988666579132]","[4491.311331261987, 4491.810941070671, 4492.310627678916, 4492.814383602126, 4493.31406596339, 4493.8137419541845, 4494.313388570031, 4494.8130344780475, 4495.288224503873, 4495.738686840767, 4496.2014962111625, 4496.643832659066, 4497.1107350567345, 4497.553049915821, 4498.024051003402, 4498.445902141788, 4498.888243544501, 4499.314183463179, 4499.76061824708, 4500.194755545583, 4500.645267076666, 4501.058939592722, 4501.505355973041, 4501.927232239394]",6,R,ITM,1
3,500,practice,0,1,1,1,"['S', 'S', 'S', 'S', 'S', 'S', 'S', 'C', 'C', 'C', 'C', 'C', 'C', 'C', 'C', 'C', 'C', 'C', 'C', 'C', 'C', 'C', 'C']","[4507.480975120836, 4508.025649283658, 4508.562195787916, 4509.119233972162, 4509.704884770576, 4510.2455260716815, 4510.732919087593, 4511.2161801455795, 4511.678995886446, 4512.129560504782, 4512.575954588455, 4513.026471428263, 4513.436065427563, 4513.845653764222, 4514.255166716982, 4514.648359940075, 4515.053829413666, 4515.430678840871, 4515.819721702459, 4516.184238252764, 4516.606070987568, 4516.958308102141, 4517.326909893588]","[4507.501426454511, 4508.091203194295, 4508.640013562023, 4509.197038297499, 4509.766351670497, 4510.319246217622, 4510.806678872016, 4511.302173002867, 4511.752714616726, 4512.207318821165, 4512.657856895875, 4513.100167861897, 4513.501559880476, 4513.923421282397, 4514.316611320255, 4514.713911727222, 4515.119340500584, 4515.5002390696, 4515.905712082341, 4516.266108707831, 4516.659316441441, 4517.036115612714, 4517.4088741361375]","[4507.304903103374, 4507.804500171118, 4508.304177931487, 4508.803859231007, 4509.303499476383, 4509.803200949059, 4510.3069943872615, 4510.806621537782, 4511.240739370958, 4511.703594396393, 4512.154076906443, 4512.600540711376, 4513.051037731942, 4513.456510390768, 4513.870149992727, 4514.279734082406, 4514.672907840173, 4515.078369527633, 4515.455180378101, 4515.844280927838, 4516.208802432953, 4516.630633752097, 4516.982870512756, 4517.347392371787]",6,R,ITM,1
7,500,practice,0,2,2,2,"['S', 'S', 'S', 'S', 'S', 'S', 'S', 'C', 'C', 'C', 'C', 'C', 'C', 'C', 'C', 'C', 'C', 'C', 'C', 'C', 'C', 'C', 'C', 'C']","[4523.454042895209, 4523.9578012958245, 4524.457469854403, 4524.98988475465, 4525.518239895638, 4526.009728770142, 4526.525783948326, 4526.992720321836, 4527.4227079666625, 4527.856871100962, 4528.295104258058, 4528.680079928169, 4529.0609834519955, 4529.462356005248, 4529.806390785186, 4530.162714910475, 4530.486315698573, 4530.805728610172, 4531.100647062842, 4531.358639437389, 4531.559340401488, 4531.964809875079, 4532.3497979322165, 4532.767629657655]","[4523.540061588293, 4524.039817563883, 4524.551657968025, 4525.075893892028, 4525.600144680462, 4526.099863141059, 4526.62405730309, 4527.078705746908, 4527.516915191696, 4527.942860419099, 4528.377003734157, 4528.786578975961, 4529.146994005034, 4529.552458877728, 4529.916979675014, 4530.248710245168, 4530.580471252013, 4530.891756858961, 4531.203001765682, 4531.444662731367, 4531.587995131545, 4532.067196784186, 4532.4562785764265, 4532.865839661629]","[4523.040388782734, 4523.540028674195, 4524.039759167903, 4524.539376408803, 4525.0390325803555, 4525.5387351147765, 4526.038384915859, 4526.538056659672, 4527.0172317686865, 4527.451372252425, 4527.881429264597, 4528.323768897735, 4528.704685516417, 4529.085532767754, 4529.486926201993, 4529.83095602712, 4530.18728581505, 4530.51083740896, 4530.8303345523345, 4531.125196024685, 4531.583890778992, 4531.989376532673, 4532.374371314197, 4532.792114914793]",6,R,ITM,1
4,500,practice,0,3,3,3,"['S', 'S', 'S', 'S', 'S', 'S', 'S', 'C', 'C', 'C', 'C', 'C', 'C', 'C', 'C', 'C', 'C', 'C', 'C', 'C', 'C', 'C', 'C', 'C']","[4538.74719389624, 4539.148640771648, 4539.6482778317895, 4540.127506028058, 4540.659904294299, 4541.143212422984, 4541.630566508243, 4542.109755066028, 4542.519329953917, 4542.941196310649, 4543.313895730263, 4543.621046194051, 4543.874994381599, 4566.245496696734, 4597.094026374455, 4597.864008859201, 4598.244884777655, 4598.6667341464645, 4599.002603752844, 4599.408094461336, 4599.821708581413, 4600.3173035780455, 4600.75551833156, 4601.316634324732]","[4538.845527770473, 4539.2305087493105, 4539.648325610317, 4540.229940715694, 4540.745903522056, 4541.216882666906, 4541.712480140943, 4542.1916747152845, 4542.597131094019, 4543.023089416277, 4543.399881509249, 4543.727542764437, 4543.981458037888, 4566.356070722131, 4597.1922997292195, 4597.949998531252, 4598.3267729284735, 4598.719978538593, 4599.076304787373, 4599.473572634158, 4599.89951432241, 4600.399196683675, 4600.82924201665, 4601.378048491313]","[4538.227112580724, 4538.726753180015, 4539.226401565437, 4539.726075786656, 4540.229864977879, 4540.729506285, 4541.229171304428, 4541.728852957863, 4542.134326678433, 4542.543888825381, 4542.965739963766, 4543.338437613806, 4543.645620991691, 4566.270072910034, 4597.118567196253, 4597.888544372273, 4598.269463822276, 4598.687219455983, 4599.027159792988, 4599.428520667045, 4599.84216911688, 4600.337749249081, 4600.780068355148, 4601.341208768457]",6,R,ITM,1
5,500,practice,0,4,4,4,"['S', 'S', 'S', 'S', 'S', 'S', 'S', 'S', 'S', 'S', 'S', 'S', 'S', 'S', 'C', 'C', 'C', 'C', 'C', 'C', 'C', 'C', 'C', 'C', 'C', 'C', 'C', 'C', 'C', 'C', 'C', 'C']","[4607.124273722128, 4607.4887927498385, 4607.76729414621, 4608.029431573538, 4608.254678668161, 4608.504511177875, 4608.733867579862, 4609.012383840664, 4609.241721485155, 4609.507940968389, 4609.729114854981, 4609.946187220341, 4610.196003449963, 4610.454022368138, 4610.724365669252, 4611.02746274425, 4611.2281166376515, 4611.453382489771, 4611.719617899182, 4612.202901961645, 4612.628839402917, 4613.062994043256, 4613.423408718413, 4613.837053629098, 4614.238448478997, 4614.660281921631, 4615.1394892369135, 4615.5941107831895, 4616.03234641769, 4616.482855825282, 4616.937507100421, 4617.363436047732]","[4607.206179922613, 4607.566622910972, 4607.877886575189, 4608.107221034444, 4608.352941051559, 4608.594606972055, 4608.823974345408, 4609.090181441617, 4609.335938619809, 4609.589853539345, 4609.806932275174, 4610.036348842716, 4610.310691029706, 4610.548232070576, 4610.830833926436, 4611.1011478526025, 4611.3059400744, 4611.568055558996, 4611.826080493725, 4612.325764624565, 4612.74761717861, 4613.161310221738, 4613.521704369824, 4613.914869279715, 4614.320359634293, 4614.750402135948, 4615.221398976549, 4615.6637347166225, 4616.11424943294, 4616.552474096075, 4617.015281696895, 4617.441257714905]","[4606.845854080127, 4607.345459287916, 4607.845141295265, 4608.34475889008, 4608.844446206155, 4609.344115826479, 4609.843794648593, 4610.343455421041, 4610.744841423064, 4611.0520109982635, 4611.477953040431, 4612.22747569754, 4612.653408537917, 4613.087547605995, 4613.44387491652, 4613.86165320079, 4614.2589075988035, 4614.684846101821, 4615.164048462292, 4615.618718141011, 4616.05691626052, 4616.507423544622, 4616.962051815283, 4617.387985717405]",6,R,ITM,1
6,500,practice,0,5,5,5,"['S', 'S', 'S', 'S', 'S', 'S', 'S', 'S', 'S', 'C', 'C', 'C', 'C', 'C', 'C', 'C', 'C', 'C', 'C', 'C', 'C', 'C', 'C', 'C', 'C']","[4623.420925650593, 4623.73625473671, 4624.21549921307, 4624.665969336094, 4625.087852680747, 4625.513788352444, 4625.9315507105375, 4626.144511645043, 4626.541797541494, 4627.021002379371, 4627.508380530851, 4627.979379494942, 4628.446294279636, 4628.876331472566, 4629.302281300864, 4629.732320617284, 4630.182857276333, 4630.641562648091, 4631.042932370024, 4631.468874412191, 4631.878449653995, 4632.333078986401, 4632.754982150295, 4633.1563005545495, 4633.578157001661]","[4623.506923816605, 4623.8304803653255, 4624.326060851442, 4624.743793126758, 4625.1656605452345, 4625.595695260759, 4625.988876804657, 4626.2551454820805, 4626.652393863538, 4627.127490455797, 4627.610797168822, 4628.085877834904, 4628.540493718539, 4628.954156678889, 4629.392374263724, 4629.83060671299, 4630.281130985013, 4630.727559044529, 4631.133031703354, 4631.5548842574, 4631.976723008759, 4632.410876233438, 4632.853217990067, 4633.25459549813, 4633.672368473674]","[4623.130176670842, 4623.625671509521, 4624.129473087771, 4624.629127135833, 4625.12878082998, 4625.628456820774, 4626.12815616996, 4626.627824020708, 4627.045566913475, 4627.53294117189, 4628.0039419055565, 4628.466751275952, 4628.896797316758, 4629.326841234073, 4629.75689576884, 4630.207414024308, 4630.666105947294, 4631.0675022128535, 4631.493439654126, 4631.9030212664, 4632.35762900999, 4632.7794713005, 4633.180864734739, 4633.60271905836]",6,R,ITM,1
2,600,trial,0,6,6,6,"['S', 'S', 'S', 'S', 'S', 'S', 'S', 'C', 'C', 'C', 'C', 'C', 'C', 'C', 'C', 'C', 'C', 'C', 'C', 'C', 'C', 'C', 'C']","[4680.2195582645, 4680.8134085662305, 4681.354026508943, 4681.915187803239, 4682.5540617588795, 4683.143856194415, 4683.733621962834, 4684.327490668145, 4684.904962844231, 4685.445599898356, 4685.973950438448, 4686.481810360297, 4686.989657541204, 4687.4975224178625, 4687.972620425781, 4688.447713478889, 4688.951488159596, 4689.430722018505, 4689.909867398657, 4690.38908674705, 4690.843730589972, 4691.339262235816, 4691.76110063326]","[4680.342407832564, 4680.895342372087, 4681.452368169307, 4682.0175287033935, 4682.627761731664, 4683.238011040025, 4683.827795212025, 4684.405282960372, 4685.011489851309, 4685.539796505938, 4686.05994860446, 4686.571874656039, 4687.05927050327, 4687.587609364167, 4688.058638057119, 4688.537801486938, 4689.053870467808, 4689.51668585476, 4690.004037462613, 4690.479142548832, 4690.954258606417, 4691.429366170041, 4691.863475863172]","[4679.850954349563, 4680.452992475412, 4681.050954561912, 4681.653012507003, 4682.250998659724, 4682.8530562509, 4683.455152418815, 4684.0530621258895, 4684.35205095527, 4684.929538349701, 4685.4701654942055, 4685.9985471788195, 4686.506363923035, 4687.014255343321, 4687.517996048185, 4687.99717752767, 4688.4722783669085, 4688.976059064171, 4689.455231341865, 4689.934430163186, 4690.41365871337, 4690.868238851588, 4691.363799872378, 4691.78566410562]",6,R,ITM,1
2,400,trial,0,7,7,7,"['S', 'S', 'S', 'S', 'S', 'C', 'C', 'C', 'C', 'C', 'C', 'C', 'C', 'C', 'C', 'C', 'C', 'C', 'C', 'C', 'C']","[4698.641831977426, 4699.0841478982575, 4699.460944592125, 4699.890985324206, 4700.345617134018, 4700.820714788021, 4701.271229150423, 4701.623462018017, 4701.9797634927445, 4702.332000253403, 4702.696522820263, 4703.056947405042, 4703.417344030533, 4703.761382703536, 4704.109526790837, 4704.4699435894845, 4704.793484212028, 4705.112956581351, 4705.465182016728, 4705.76419562016, 4706.1040995039175]","[4698.740104978275, 4699.16607356407, 4699.551070822998, 4700.005662286497, 4700.43987850805, 4700.914887683297, 4701.389983567726, 4701.72585494368, 4702.08218119246, 4702.446686063569, 4702.786614721379, 4703.15115144484, 4703.507446549099, 4703.847389363508, 4704.203720921014, 4704.560040445409, 4704.8876886057415, 4705.211251171017, 4705.54299094296, 4705.862465081859, 4706.202407896269]","[4697.331232965627, 4697.7325835761485, 4698.129952288716, 4698.531227161421, 4698.932618118255, 4699.32989587466, 4699.731247193012, 4700.132652306446, 4700.845256671563, 4701.295862344043, 4701.643928570038, 4702.004342537365, 4702.352471406321, 4702.716991495776, 4703.081513708722, 4703.441923429068, 4703.7859536081105, 4704.134095218006, 4704.494513786229, 4704.818057947923, 4705.137534210311, 4705.485657062711, 4705.788784574402, 4706.128664745852]",6,R,ITM,1
4,600,trial,0,8,8,8,"['S', 'S', 'S', 'S', 'S', 'S', 'S', 'S', 'S', 'C', 'C', 'C', 'C', 'C', 'C', 'C', 'C', 'C', 'C', 'C', 'C', 'C', 'C', 'C', 'C']","[4711.809380305407, 4712.33772942984, 4712.759599325721, 4713.132254859873, 4713.62784808693, 4713.992366052896, 4714.590327077649, 4715.176003711861, 4715.745306821323, 4716.425173338732, 4716.945318358953, 4717.424520365509, 4717.842282369687, 4718.2969134716695, 4718.722845958131, 4719.103731078376, 4719.492844015138, 4719.8614203247025, 4720.254608239071, 4720.627339864953, 4720.979534863638, 4721.344057784414, 4721.696288882432, 4722.060808264057, 4722.445781456764]","[4711.932239429178, 4712.44008130136, 4712.845609878759, 4713.279690904773, 4713.7343223606695, 4714.111127548498, 4714.6558540907445, 4715.257911328006, 4715.810799858576, 4716.490703890977, 4717.03951461262, 4717.510506144496, 4717.932389135233, 4718.386987677032, 4718.808836691928, 4719.206118695313, 4719.595211458919, 4719.959742165825, 4720.320148347022, 4720.721547443902, 4721.0655259513505, 4721.434160656894, 4721.802753246551, 4722.150938387995, 4722.535900609336]","[4711.4694633267945, 4712.0673917913655, 4712.669455399097, 4713.267418547342, 4713.869454903616, 4714.467467246049, 4715.069507141475, 4715.667473828868, 4716.4497888365995, 4716.965787742294, 4717.444984794041, 4717.866860352563, 4718.321462433512, 4718.7433011848725, 4719.1283101229965, 4719.517402178772, 4719.885991229278, 4720.279181621051, 4720.6519274035345, 4721.000007078301, 4721.368638244695, 4721.720857309601, 4722.081271630844, 4722.470343867378]",6,R,ITM,1
5,600,trial,0,9,9,9,"['S', 'S', 'S', 'S', 'S', 'S', 'S', 'S', 'C', 'C', 'C', 'C', 'C', 'C', 'C', 'C', 'C', 'C', 'C', 'C', 'C', 'C', 'C', 'C']","[4728.126477197078, 4728.654807917928, 4729.256881435281, 4729.842546390297, 4730.3667957630705, 4731.058946317107, 4731.656943441194, 4732.316387999874, 4733.020790030355, 4733.504077631968, 4733.897383400041, 4734.22491936931, 4734.605823600965, 4735.007177750636, 4735.400358232789, 4735.809950462514, 4736.199032608669, 4736.604505975324, 4736.997666992151, 4737.394963859967, 4737.792298242776, 4738.140383226269, 4738.533538580454, 4738.922661072922]","[4728.241181410825, 4728.789968420162, 4729.346975105971, 4729.93674229005, 4730.36684708075, 4731.144972088491, 4731.747031095328, 4732.410530812373, 4733.1231705689925, 4733.614648118216, 4734.011947109523, 4734.356001708702, 4734.71230884607, 4735.109563597999, 4735.474082271795, 4735.900026791367, 4736.289118493228, 4736.71506018148, 4737.079593365792, 4737.4973390898795, 4737.874142154217, 4738.242748900475, 4738.586776956026, 4739.016841400414]","[4727.909430667515, 4728.51146843945, 4729.1094358346745, 4729.711504043302, 4730.3094781629125, 4730.911540354984, 4731.509496071012, 4732.111586222371, 4733.045408359544, 4733.528646059139, 4733.921822294311, 4734.249518233171, 4734.630410785631, 4735.0276648297295, 4735.424925244299, 4735.8345334002, 4736.2235971427735, 4736.629069801599, 4737.022277181293, 4737.415428288499, 4737.816824907974, 4738.164937850752, 4738.55813071993, 4738.947244364523]",6,R,ITM,1
6,600,trial,0,10,10,10,"['B', 'S', 'S', 'S', 'S', 'S', 'S', 'S', 'S', 'S', 'S', 'C', 'C', 'C', 'C', 'C', 'C', 'C', 'C', 'C', 'C', 'C', 'C', 'C', 'C', 'C', 'C', 'C']","[4744.2511915434125, 4744.648364894885, 4744.746666562852, 4745.2053882147, 4745.741944274663, 4746.262126809877, 4746.814971101068, 4747.245032006305, 4747.679167535233, 4748.207490116039, 4748.698998809784, 4749.243710487599, 4749.8129803290485, 4750.288087184843, 4750.775472414624, 4751.226050835647, 4751.6601569896275, 4752.106555320281, 4752.569367168082, 4752.995340000856, 4753.441747887216, 4753.835008708079, 4754.23222913025, 4754.563986244031, 4754.8875197882735, 4755.2029016077295, 4755.477313162064, 4755.735344113349]","[4744.357567428776, 4744.64842718393, 4744.771229327381, 4745.332342135318, 4745.836130972626, 4746.39720272642, 4746.93784155012, 4747.376112576123, 4747.810222977084, 4748.3180984711935, 4748.813674002499, 4749.382938535224, 4749.944073285892, 4750.3986838608025, 4750.894256206873, 4751.324297292868, 4751.791190134831, 4752.213051536753, 4752.659493752869, 4753.101830908602, 4753.531838726585, 4753.961891137861, 4754.342806694798, 4754.674539388442, 4754.99401281951, 4755.305301611694, 4755.5796809597605]","[4744.259311061933, 4744.861329014626, 4745.459315167347, 4746.061360725413, 4746.659339799833, 4747.261385711813, 4747.859392391606, 4748.461425562646, 4749.26829094788, 4749.837565390225, 4750.312675077339, 4750.800071632401, 4751.250559805092, 4751.684711968026, 4752.131171525979, 4752.593938072657, 4753.01989462534, 4753.466312067405, 4753.855410847566, 4754.256770659878, 4754.588530604979, 4754.9120867997835, 4755.2274696809845, 4755.501853629947]",6,R,ITM,1
4,600,trial,0,11,11,11,"['S', 'S', 'S', 'S', 'S', 'S', 'S', 'S', 'C', 'C', 'C', 'C', 'C', 'C', 'C', 'C', 'C', 'C', 'C', 'C', 'C', 'C', 'C', 'C']","[4761.342286439711, 4761.444661669622, 4762.054926550245, 4762.706147539388, 4763.2017159923935, 4763.869314399351, 4764.463195491689, 4765.0652435271595, 4765.708244485915, 4766.359465828973, 4766.961527313215, 4767.518544616475, 4768.038692468016, 4768.534271184557, 4769.070837154141, 4769.586888439259, 4770.098829355269, 4770.631233638066, 4771.122734545681, 4771.61421032533, 4772.126166459685, 4772.61352160669, 4773.084551007472, 4773.559682283403]","[4761.346376281747, 4761.47745366633, 4762.173700432873, 4762.82085139922, 4763.201749614321, 4763.988065277503, 4764.463228051871, 4765.196283750664, 4765.82703641821, 4766.486425058316, 4767.088493974774, 4767.608631562779, 4768.120605746802, 4768.6407659853685, 4769.181380742846, 4769.697420348769, 4770.21756182984, 4770.7500085824395, 4771.245586237235, 4771.720705833971, 4772.261290862586, 4772.715954170835, 4773.195129633766, 4773.66611621083]","[4761.129363728028, 4761.7272815751485, 4762.329339874155, 4762.927287450138, 4763.529375478007, 4764.131406879471, 4764.7293986948325, 4765.331440713748, 4765.728726964114, 4766.384030009162, 4766.98609538647, 4767.543107381004, 4768.059151941737, 4768.558842443047, 4769.095346477501, 4769.611417227947, 4770.123371592727, 4770.655806312216, 4771.147294124975, 4771.638756101937, 4772.150727808555, 4772.638092511264, 4773.109125805113, 4773.580113090007]",6,R,ITM,1
7,600,trial,0,12,12,12,"['S', 'S', 'S', 'S', 'S', 'S', 'S', 'S', 'C', 'C', 'C', 'C', 'C', 'C', 'C', 'C', 'C', 'C', 'C', 'C', 'C', 'C', 'C', 'C']","[4779.342720693447, 4779.989811848155, 4780.5755688210775, 4781.206249997788, 4781.812412649348, 4781.9106729092555, 4782.414456791753, 4783.041113246792, 4783.573526023549, 4784.105964990018, 4784.6711881670635, 4785.232291419295, 4785.752527041763, 4786.288957461891, 4786.8541533874795, 4787.267842183627, 4787.787976232483, 4788.324496193113, 4788.885661734389, 4789.37298219772, 4789.8849422251415, 4790.3764158813, 4790.917052581509, 4791.371655016374]","[4779.469680276705, 4780.088117763102, 4780.665589585272, 4781.308639384301, 4781.812451226086, 4781.939379310907, 4782.5373265329745, 4783.147583273551, 4783.680014807805, 4784.216531229285, 4784.789926658189, 4785.322369871638, 4785.842524447565, 4786.383150884239, 4786.948342916762, 4787.378443460482, 4787.923133903396, 4788.4268731926, 4788.992071595594, 4789.532711834954, 4790.01597926341, 4790.466525832081, 4791.048090327608, 4791.482250630588]","[4779.023281592136, 4779.6253080387905, 4780.223325336034, 4780.825354614008, 4781.423326964043, 4782.025390571775, 4782.623343810398, 4783.225401401574, 4783.598087018503, 4784.130534832848, 4784.695739252397, 4785.256810652276, 4785.776970183013, 4786.313535798682, 4786.878719337245, 4787.2924530806, 4787.816646888716, 4788.349066035943, 4788.910151592423, 4789.397542838759, 4789.909505697501, 4790.400970151868, 4790.945723945572, 4791.400378405945]",6,R,ITM,1
2,400,trial,0,13,13,13,"['S', 'S', 'S', 'S', 'S', 'S', 'C', 'C', 'C', 'C', 'C', 'C', 'C', 'C', 'C', 'C', 'C', 'C', 'C', 'C', 'C', 'C']","[4797.052347925368, 4797.617543850956, 4798.244190750289, 4798.735661929042, 4799.1779920064755, 4799.595739854052, 4800.353447150046, 4800.865393374782, 4801.344599628318, 4801.84838032558, 4802.323475856094, 4802.819046786504, 4803.3310227401025, 4803.847052082489, 4804.379510514284, 4804.862788560193, 4805.391176615277, 4805.898971416761, 4806.382303257752, 4806.861468811061, 4807.357022753551, 4807.848520829846]","[4797.212074731281, 4797.715837378877, 4798.383413843103, 4798.850343138313, 4799.288579126729, 4799.780079680429, 4800.513232705854, 4801.004643365137, 4801.487956094717, 4802.012220685838, 4802.499577602417, 4802.962374585787, 4803.478449583212, 4803.965802252811, 4804.502357251029, 4804.981524573913, 4805.509888916691, 4805.993173333069, 4806.488741078245, 4806.988419900359, 4807.492175115739, 4807.963225043593]","[4796.749332250825, 4797.146556919976, 4797.547954955111, 4797.949285746391, 4798.346582968123, 4798.747939949114, 4799.149325951138, 4799.546606538864, 4800.378021947687, 4800.885886824345, 4801.369221142742, 4801.87293955096, 4802.348043575434, 4802.843613444099, 4803.355581611566, 4803.871618740084, 4804.404062661363, 4804.887347431656, 4805.415681337742, 4805.92353842827, 4806.4068207211585, 4806.886007509369, 4807.381591888551, 4807.873115092812]",6,R,ITM,1
6,600,trial,0,14,14,14,"['B', 'S', 'S', 'S', 'S', 'S', 'S', 'C', 'C', 'C', 'C', 'C', 'C', 'C', 'C', 'C', 'C', 'C', 'C', 'C', 'C', 'C', 'C']","[4813.45550421035, 4814.295091871032, 4815.044581614044, 4815.683496269912, 4816.277379131825, 4816.920409819443, 4817.510175941777, 4818.116322667161, 4818.7552741301915, 4819.3327438288725, 4819.881560567071, 4820.36492178301, 4820.90956480131, 4821.491160087446, 4822.03999487531, 4822.584700182656, 4823.162185099682, 4823.690517944023, 4824.198395915538, 4824.751289754832, 4825.24283242442, 4825.795692287873, 4826.3158366002635]","[4813.611098704423, 4814.389295910831, 4815.155149622886, 4815.80638830778, 4816.404338715083, 4817.067825337273, 4817.653508695869, 4818.2392062110675, 4818.87811131123, 4819.44331714644, 4820.004418629096, 4820.500017518793, 4821.028336560448, 4821.597649225616, 4822.158740090822, 4822.703480081839, 4823.26457130096, 4823.82566322791, 4824.345847886614, 4824.906959632806, 4825.373832301612, 4825.922655056366, 4826.438703156249]","[4813.463699820601, 4814.0657237898495, 4814.663692246819, 4815.265771072897, 4815.86372643501, 4816.465771993076, 4817.063789644234, 4817.665803349947, 4818.1409519677145, 4818.779858129623, 4819.357315795192, 4819.90612050028, 4820.3893957148675, 4820.934128627585, 4821.5157210824, 4822.064532865788, 4822.609256576715, 4823.186770160858, 4823.715082832042, 4824.222951955681, 4824.775869861198, 4825.263248012679, 4825.8202692090035, 4826.336298905306]",6,R,ITM,1
3,400,trial,0,15,15,15,"['B', 'S', 'S', 'S', 'S', 'C', 'C', 'C', 'C', 'C', 'C', 'C', 'C', 'C', 'C', 'C', 'C', 'C', 'C', 'C', 'C']","[4831.682003456334, 4832.189001595095, 4832.873016350521, 4833.966533087339, 4834.470316615922, 4834.929016678953, 4835.4164047400545, 4835.920179420761, 4836.456712476248, 4836.93997530381, 4837.456033667228, 4837.939339318508, 4838.455399451503, 4838.963249817645, 4839.491646012776, 4840.024021628455, 4840.540077160554, 4841.015198526864, 4841.518939585643, 4842.02270577239, 4842.493686686814]","[4831.832725248333, 4832.295496041991, 4832.97949416341, 4834.068917872956, 4834.556302394908, 4835.055979801362, 4835.522892816481, 4836.022582963876, 4836.546805439108, 4837.058727951537, 4837.542039973287, 4838.054014511224, 4838.545475426441, 4839.065627171048, 4839.57347966068, 4840.118212219482, 4840.6547413819035, 4841.138036061818, 4841.649974146508, 4842.1537824491415, 4842.637042799298]","[4831.693451191756, 4832.090731779481, 4832.492106102309, 4832.893452819765, 4833.2948338669785, 4833.692148430546, 4834.093520983799, 4834.490778213132, 4834.953585460038, 4835.4409685663295, 4835.944719888645, 4836.4812685163915, 4836.964542315319, 4837.48061766666, 4837.963908807423, 4838.479954429901, 4838.987802318639, 4839.51614648826, 4840.048580853834, 4840.560573441438, 4841.035628625638, 4841.543559330492, 4842.047259335128, 4842.518259360964]",6,R,ITM,1
2,600,trial,0,16,16,16,"['B', 'S', 'S', 'S', 'S', 'S', 'S', 'S', 'S', 'S', 'S', 'S', 'C', 'C', 'C', 'C', 'C', 'C', 'C', 'C', 'C', 'C', 'C', 'C', 'C', 'C', 'C', 'C']","[4847.809922149312, 4848.284980872662, 4848.866561294366, 4848.968943248664, 4849.493215271999, 4850.11983031898, 4850.73418433381, 4850.832450610274, 4851.287117811587, 4851.385402137717, 4851.86048209597, 4851.962865112012, 4852.454391855425, 4852.986807817417, 4853.494652520919, 4854.00660971702, 4854.498091513224, 4854.981374513942, 4855.452403206895, 4855.911093714221, 4856.394396180266, 4856.853110399899, 4857.340483242654, 4857.803298983521, 4858.294771224018, 4858.7452785081205, 4859.199915272743, 4859.638136750643]","[4847.936827229656, 4848.4610762485145, 4848.870651844233, 4849.034467784354, 4849.632427039533, 4850.287741409863, 4850.734222202717, 4850.852921409275, 4851.287172668417, 4851.422283976462, 4851.86054757025, 4851.975181000992, 4852.597690987589, 4853.1219308046575, 4853.633896494719, 4854.141757832228, 4854.616843807035, 4855.120626273873, 4855.599806691613, 4856.0462421833445, 4856.541822315546, 4857.000534765604, 4857.471554610681, 4857.934382030743, 4858.433998563813, 4858.859958301731, 4859.33505630965, 4859.7691755584865]","[4847.818087676785, 4848.4201105842885, 4849.018097444839, 4849.6201352167745, 4850.222207672382, 4850.8201577257705, 4851.422233720528, 4852.0201989922625, 4852.478911088406, 4853.011367042795, 4853.515128628646, 4854.031162571929, 4854.522652862093, 4855.001839296388, 4855.476924563366, 4855.935669573607, 4856.41895929871, 4856.877648390377, 4857.365041406289, 4857.827846883619, 4858.319310630156, 4858.769843750055, 4859.220374038634, 4859.662710486537]",6,R,ITM,1
6,400,trial,0,17,17,17,"['B', 'S', 'S', 'S', 'S', 'S', 'C', 'C', 'C', 'C', 'C', 'C', 'C', 'C', 'C', 'C', 'C', 'C', 'C', 'C', 'C', 'C']","[4865.213303878166, 4865.5850413567405, 4866.072424816946, 4866.719554902307, 4867.223337369144, 4867.677918215192, 4868.374177722677, 4868.882050385467, 4869.406334087998, 4869.955123928655, 4870.479367638789, 4871.011799880872, 4871.556529254439, 4872.105333251697, 4872.654150343811, 4873.202991502147, 4873.727217516529, 4874.292415565607, 4874.833104999156, 4875.373685426876, 4875.979820826979, 4876.495887330444]","[4865.2778526701295, 4865.757062462817, 4866.183005212814, 4866.830142376476, 4867.309304390635, 4867.768030997294, 4868.488855746713, 4868.988542708873, 4869.50457488258, 4870.0616006798, 4870.5981114386395, 4871.126476489248, 4871.630221795008, 4872.19952419664, 4872.76474418845, 4873.313542169152, 4873.854157988375, 4874.374300885106, 4874.935434220115, 4875.492432765878, 4876.0658373965725, 4876.577783267393]","[4865.22465959568, 4865.625974460784, 4866.023275575581, 4866.424658746284, 4866.826012188126, 4867.223306224622, 4867.624690457071, 4868.0260531007025, 4868.398737655886, 4868.906618458721, 4869.430888712482, 4869.975566414455, 4870.503926510252, 4871.036370431532, 4871.581072907557, 4872.129907695422, 4872.678706030039, 4873.227537278754, 4873.747680883315, 4874.317035664371, 4874.85758848672, 4875.394142777108, 4876.004387130659, 4876.520456465443]",6,R,ITM,1
3,600,trial,0,18,18,18,"['S', 'S', 'S', 'S', 'S', 'S', 'S', 'C', 'C', 'C', 'C', 'C', 'C', 'C', 'C', 'C', 'C', 'C', 'C', 'C', 'C', 'C', 'C']","[4887.722068052904, 4888.168508499446, 4888.754197520684, 4889.364441874235, 4889.9542203835945, 4890.568556702673, 4891.174780581532, 4891.752218073945, 4892.284654563009, 4892.866239231693, 4893.386378943189, 4893.910624422897, 4894.434901047129, 4894.967300729029, 4895.483365462919, 4895.995312041569, 4896.494982369723, 4897.060197052808, 4897.580355875715, 4898.116893886012, 4898.641107513368, 4899.202221736966, 4899.693702117509]","[4887.836797748534, 4888.348709289597, 4888.922096932371, 4889.52006892849, 4890.109840713464, 4890.71601362856, 4891.313988102084, 4891.899651995355, 4892.452566361721, 4893.013736857808, 4893.546122029193, 4894.0785719670275, 4894.598705308053, 4895.11886413096, 4895.63493594315, 4896.146852439023, 4896.642431509479, 4897.224013346843, 4897.723676596696, 4898.2397438079915, 4898.772174634415, 4899.345619965337, 4899.82476676115]","[4887.038136113595, 4887.636082627833, 4888.23814163467, 4888.836106552489, 4889.438173345456, 4890.03613578587, 4890.63817249606, 4891.236142722604, 4891.776778361069, 4892.309224405839, 4892.890843050365, 4893.410945600783, 4893.935216562374, 4894.459435498456, 4894.9877941785935, 4895.5038454637115, 4896.015811507688, 4896.519551150808, 4897.084755924272, 4897.604899174918, 4898.141449218326, 4898.661628568304, 4899.2267965346055, 4899.718265589869]",6,R,ITM,1
5,600,trial,0,19,19,19,"['S', 'S', 'S', 'S', 'S', 'S', 'S', 'C', 'C', 'C', 'C', 'C', 'C', 'C', 'C', 'C', 'C', 'C', 'C', 'C', 'C', 'C', 'C']","[4905.517745476347, 4906.111597901567, 4906.762832693396, 4907.373074923457, 4908.007902922524, 4908.630500680048, 4909.187479052654, 4909.756742523634, 4910.338328254063, 4910.87893451758, 4911.440072453484, 4911.870112477734, 4912.410731128278, 4912.980034237739, 4913.5288354036775, 4914.122715080354, 4914.683821871737, 4915.26539875429, 4915.814219739469, 4916.391726245312, 4916.932342064535, 4917.5180073734655, 4918.0791530955]","[4905.689755964972, 4906.27950686896, 4906.934833272401, 4907.545172121264, 4908.175816136897, 4908.806546507796, 4909.347156310464, 4909.941069962984, 4910.48985272534, 4910.997708046293, 4911.571107368263, 4912.021623500241, 4912.545868272119, 4913.119262993194, 4913.663983518885, 4914.24557880502, 4914.790364804991, 4915.396466229251, 4915.941185693197, 4916.514572628141, 4917.038841466242, 4917.653156904334, 4918.206087550791]","[4905.145076139509, 4905.742980537859, 4906.345063964832, 4906.943013664305, 4907.545118680096, 4908.143081828339, 4908.7450983653725, 4909.343070361492, 4909.781305995993, 4910.358802592215, 4910.899425135824, 4911.464629555373, 4911.894674888349, 4912.431188478508, 4913.0046118667, 4913.553408077827, 4914.147276429224, 4914.7083885293305, 4915.285875569847, 4915.838787812724, 4916.416338557945, 4916.956901289914, 4917.542599866857, 4918.099602305686]",6,R,ITM,1
3,400,trial,0,20,20,20,"['S', 'S', 'S', 'C', 'C', 'C', 'C', 'C', 'C', 'C', 'C', 'C', 'C', 'C', 'C', 'C', 'C', 'C', 'C']","[4923.854065616553, 4924.611706730438, 4925.897760319543, 4926.5694719269295, 4927.089553242446, 4927.613829512762, 4928.093012761822, 4928.596777532908, 4929.08005310141, 4929.563392020703, 4930.0671366186325, 4930.5667963293345, 4931.045996920231, 4931.516985266871, 4931.992089999176, 4932.475414054036, 4932.970933666768, 4933.433745160654, 4933.917059305894]","[4924.054694381988, 4924.755075583863, 4926.020614488502, 4926.7332514138025, 4927.216541846736, 4927.732597024919, 4928.232262398263, 4928.723734638761, 4929.202921426971, 4929.6903133811375, 4930.177678791678, 4930.701941259307, 4931.168861352727, 4931.643957944985, 4932.147730502202, 4932.598237078474, 4933.081516893957, 4933.568891152372, 4934.019464264669]","[4923.4895147364905, 4923.890833140745, 4924.292244270735, 4924.689515302754, 4925.090892456903, 4925.49225616228, 4925.889526840385, 4926.290916735474, 4926.589899194383, 4927.114206609222, 4927.638396524271, 4928.117620473559, 4928.621342774843, 4929.104630376456, 4929.587909484108, 4930.091694428351, 4930.59136581825, 4931.070543758585, 4931.541552632296, 4932.0166555950245, 4932.49583424319, 4932.995503509598, 4933.45832314353, 4933.941596588542]",6,R,ITM,1
4,400,trial,0,21,21,21,"['S', 'S', 'S', 'S', 'S', 'S', 'S', 'C', 'C', 'C', 'C', 'C', 'C', 'C', 'C', 'C', 'C', 'C', 'C', 'C', 'C', 'C', 'C']","[4939.696022738332, 4940.1506605647, 4940.613486215187, 4941.027084409087, 4941.424370659453, 4941.850334290438, 4942.210850893122, 4942.64492023994, 4943.111836794209, 4943.574604402632, 4944.029234796783, 4944.475642329228, 4944.893404687321, 4945.364439750745, 4945.782186536577, 4946.228597608171, 4946.642274017293, 4947.129654646179, 4947.584249648828, 4948.014294981804, 4948.464824562552, 4948.935815740512, 4949.39865059279]","[4939.872133686446, 4940.326744969187, 4940.728121061589, 4941.158175950271, 4941.559519836406, 4941.9773037833165, 4942.370522134376, 4942.780049243736, 4943.263349586291, 4943.734337579016, 4944.172581707478, 4944.594425767562, 4945.081911863125, 4945.5036444399775, 4945.933687649463, 4946.34737715344, 4946.781496402276, 4947.289358093701, 4947.686643990151, 4948.174053993984, 4948.608175012396, 4949.062800805652, 4949.546079205475]","[4939.4134474261, 4939.810712087649, 4940.212083225242, 4940.613447284534, 4941.010753000226, 4941.412085914996, 4941.813486073621, 4942.210797451953, 4942.669460353908, 4943.136362043746, 4943.599169644566, 4944.0538049935285, 4944.500214295548, 4944.913902029951, 4945.388972432497, 4945.806742930636, 4946.253157187466, 4946.666835366163, 4947.154192990572, 4947.608832586514, 4948.038875088169, 4948.489386973167, 4948.95629821871, 4949.42322751392]",6,R,ITM,1
7,400,trial,0,22,22,22,"['S', 'S', 'S', 'S', 'S', 'C', 'C', 'C', 'C', 'C', 'C', 'C', 'C', 'C', 'C', 'C', 'C', 'C', 'C', 'C', 'C']","[4955.132578692122, 4955.75510991362, 4956.238418042305, 4957.508032986296, 4957.60636969185, 4958.146972062302, 4958.634374987834, 4959.154516468905, 4959.645983046762, 4960.129257907435, 4960.616664018203, 4961.1613629550775, 4961.652845813026, 4962.111585868456, 4962.639907741431, 4963.115000794539, 4963.573708997617, 4964.065198933867, 4964.568981754619, 4965.039972224748, 4965.510962694879]","[4955.255443832447, 4955.894376891897, 4956.357139191595, 4957.508072624779, 4957.6350148662, 4958.298509628436, 4958.7490073568315, 4959.260966322508, 4959.75248527979, 4960.256228815973, 4960.747720875713, 4961.259655421252, 4961.755248294395, 4962.222140782443, 4962.721811464511, 4963.217396551523, 4963.680192119233, 4964.188066905512, 4964.679558257421, 4965.130060940628, 4965.61745254088]","[4955.0547697658885, 4955.456108697214, 4955.857480542637, 4956.2547536981465, 4956.656152441111, 4957.057521455214, 4957.454822923925, 4957.856177073597, 4958.171549337348, 4958.658943061089, 4959.1790495045725, 4959.670542626057, 4960.153829165925, 4960.641216873111, 4961.185945538848, 4961.677420610667, 4962.140221487101, 4962.664477230346, 4963.143656940256, 4963.598273885636, 4964.089762406225, 4964.593543103488, 4965.064537112768, 4965.53554103167]",6,R,ITM,1
5,400,trial,0,23,23,23,"['S', 'S', 'S', 'S', 'C', 'C', 'C', 'C', 'C', 'C', 'C', 'C', 'C', 'C', 'C', 'C', 'C', 'C', 'C', 'C']","[4971.126119742902, 4971.724069442375, 4972.383481440873, 4973.0387710371515, 4974.095493706152, 4974.812204547313, 4975.320097383258, 4975.774676459731, 4976.249787562506, 4976.7330649005835, 4977.22045614692, 4977.699660276967, 4978.178846711262, 4978.682622453714, 4979.145414482274, 4979.59185386707, 4980.021885751275, 4980.492917629463, 4981.0089437866145, 4981.467673224594]","[4971.294052776517, 4971.879703221016, 4972.48586197951, 4973.137091462614, 4974.197907158887, 4974.918695808974, 4975.414272402025, 4975.881175861438, 4976.335776526727, 4976.843672901824, 4977.306464222553, 4977.789753947657, 4978.268948521998, 4978.764530777689, 4979.239615690752, 4979.69013536188, 4980.124314068441, 4980.570699658154, 4981.082666056045, 4981.5618507207655]","[4971.031945431966, 4971.4332751615, 4971.830577691957, 4972.231976081007, 4972.629201811903, 4973.030610110573, 4973.431972046375, 4973.833405826927, 4974.120047622806, 4974.836778283207, 4975.34461944756, 4975.799249841712, 4976.274354220101, 4976.757639698224, 4977.245018557534, 4977.7242184406, 4978.203409829706, 4978.707187695649, 4979.169977600718, 4979.616402828914, 4980.046448161889, 4980.517460574751, 4981.033508320719, 4981.492265364071]",6,R,ITM,1
5,400,trial,0,24,24,24,"['B', 'S', 'S', 'S', 'S', 'S', 'C', 'C', 'C', 'C', 'C', 'C', 'C', 'C', 'C', 'C', 'C', 'C', 'C', 'C', 'C', 'C']","[4987.000923364302, 4987.45550916516, 4988.13952215101, 4988.659626117089, 4989.380491566736, 4989.974362395537, 4990.519135654567, 4991.002360259306, 4991.43650251262, 4991.919810995219, 4992.358027164394, 4992.771704281346, 4993.230413546168, 4993.635858953537, 4994.086398797822, 4994.508255952762, 4994.971059660517, 4995.368348388289, 4995.818869121162, 4996.244797714558, 4996.683042196934, 4997.109040157677]","[4987.119646990996, 4987.5783849229365, 4988.139603551466, 4988.749731820889, 4989.470555862478, 4990.109517235131, 4990.66651967396, 4991.108849043562, 4991.575772676132, 4992.030358830905, 4992.493176695262, 4992.927296298013, 4993.336889589484, 4993.762852158722, 4994.221529217278, 4994.639289451881, 4995.044751493256, 4995.487093249885, 4995.904866579344, 4996.3512949927745, 4996.801810063008, 4997.215457451097]","[4987.013216248805, 4987.410474893799, 4987.811836121771, 4988.209168027175, 4988.61049704888, 4989.011862169917, 4989.409145942877, 4989.810538669287, 4990.543617018641, 4991.026923377751, 4991.46114632369, 4991.944361726638, 4992.382584974112, 4992.792135441865, 4993.254965693247, 4993.660433751177, 4994.110960146691, 4994.532823672102, 4994.995630565092, 4995.392927432909, 4995.843430116116, 4996.269376759179, 4996.707594344013, 4997.133563637638]",6,R,ITM,1
4,400,trial,0,25,25,25,"['S', 'S', 'S', 'S', 'S', 'S', 'S', 'C', 'C', 'C', 'C', 'C', 'C', 'C', 'C', 'C', 'C', 'C', 'C', 'C', 'C', 'C', 'C']","[5003.215590169231, 5003.662054681995, 5004.026558137444, 5004.468921836805, 5004.886723479466, 5005.300328397752, 5005.6689043534025, 5006.10716086889, 5006.51262467984, 5006.959046368885, 5007.40140475952, 5007.831430981084, 5008.220491538423, 5008.63417254844, 5009.006896034276, 5009.465608130419, 5009.891548403011, 5010.309300497569, 5010.632850675818, 5011.275879239946, 5011.767368114451, 5012.226063576587, 5012.668409226281]","[5003.3671479085215, 5003.809496035621, 5004.165824761806, 5004.612247158681, 5005.029998191494, 5005.435458463294, 5005.840931122119, 5006.275096733824, 5006.676440266045, 5007.090122337807, 5007.569287891116, 5007.9624708506735, 5008.388462440945, 5008.752934397957, 5009.154318276491, 5009.621230583779, 5010.0144135433375, 5010.452633251662, 5010.8048742593, 5011.439696241811, 5011.89841223102, 5012.3817713234685, 5012.795374118265]","[5002.883961172691, 5003.285239584547, 5003.682514863546, 5004.08389944991, 5004.485264924862, 5004.886657651271, 5005.28391877367, 5005.685322471445, 5006.13173071172, 5006.533085923136, 5006.98361798129, 5007.42184370617, 5007.855994807359, 5008.245063858658, 5008.658736020799, 5009.031472247576, 5009.490149306132, 5009.916088870894, 5010.333848751582, 5010.657417333413, 5011.30043457226, 5011.791925216339, 5012.250632003757, 5012.69296066553]",6,R,ITM,1
3,600,trial,0,26,26,26,"['B', 'S', 'S', 'S', 'S', 'S', 'S', 'S', 'C', 'C', 'C', 'C', 'C', 'C', 'C', 'C', 'C', 'C', 'C', 'C', 'C', 'C', 'C', 'C']","[5017.980492557698, 5018.316330311724, 5018.906087586182, 5019.557316007541, 5020.0569888131, 5020.691801947736, 5021.388071364841, 5021.990130371678, 5022.608619529668, 5023.124627637154, 5023.554672262299, 5023.947852390536, 5024.386100058148, 5024.82840960851, 5025.287136215169, 5025.733554011149, 5026.171804510081, 5026.605923405003, 5027.035979001514, 5027.506975134284, 5028.00254924993, 5028.477648319594, 5028.948679489952, 5029.399175094858]","[5018.037835285823, 5018.471973999986, 5019.098585153902, 5019.651497750693, 5020.167552928877, 5020.798276929306, 5021.388137546951, 5022.121201385789, 5022.686386340012, 5023.2024227607, 5023.677586950728, 5024.070713991712, 5024.500757909028, 5024.967663491931, 5025.40588355417, 5025.860555002465, 5026.298747459333, 5026.708313499345, 5027.138363787131, 5027.638051811036, 5028.129520158469, 5028.616897956034, 5029.046938688115, 5029.562975108803]","[5017.98871364983, 5018.590718153752, 5019.188679532422, 5019.786639849345, 5020.388740618155, 5020.986683593243, 5021.588746139229, 5022.190824965308, 5022.629043965802, 5023.149188278193, 5023.575132443851, 5023.972415862896, 5024.410650789567, 5024.852975558274, 5025.311706765829, 5025.758132701854, 5026.196355241499, 5026.630522268864, 5027.060554506984, 5027.527523440677, 5028.0271176771, 5028.502258154822, 5028.973268090278, 5029.423745291603]",6,R,ITM,1
7,600,trial,0,27,27,27,"['S', 'S', 'S', 'S', 'S', 'S', 'S', 'S', 'C', 'C', 'C', 'C', 'C', 'C', 'C', 'C', 'C', 'C', 'C', 'C', 'C', 'C', 'C', 'C']","[5035.133102840275, 5035.772028113594, 5036.427383184152, 5037.021209773576, 5037.664224888933, 5038.274506049646, 5038.868381479344, 5038.966655541938, 5039.458115749325, 5040.105243711196, 5040.92437012858, 5041.538751040953, 5042.108021944147, 5042.652742823753, 5043.152411028417, 5043.63982174008, 5044.139464108946, 5044.585903847658, 5045.011868540387, 5045.527944953473, 5046.056225772305, 5046.543606047275, 5047.002360967136, 5047.514271800369]","[5035.301028441673, 5035.919495303016, 5036.554285079261, 5037.156368506235, 5037.791201814027, 5038.372763124319, 5038.8684653572045, 5038.970718486433, 5039.6137350174495, 5040.236320034032, 5041.0513244031135, 5041.645210096346, 5042.218594553885, 5042.734637345043, 5043.267070294956, 5043.738060765087, 5044.229553532656, 5044.671907322396, 5045.11831414701, 5045.626228571772, 5046.142237741003, 5046.6337021953705, 5047.100619103555, 5047.612584439701]","[5034.875114004878, 5035.473060165201, 5036.0750947519, 5036.673054007079, 5037.275116199151, 5037.873085717865, 5038.47517693097, 5039.073120259972, 5039.48268806956, 5040.1297749772875, 5040.94892581481, 5041.563274520914, 5042.13256453552, 5042.681398615555, 5043.17696352941, 5043.6684591283, 5044.164026519561, 5044.614546898519, 5045.03641183959, 5045.552463124709, 5046.080789244664, 5046.568202433732, 5047.031004725827, 5047.542969000229]",6,R,ITM,1
7,400,trial,0,28,28,28,"['S', 'S', 'S', 'S', 'S', 'S', 'C', 'C', 'C', 'C', 'C', 'C', 'C', 'C', 'C', 'C', 'C', 'C', 'C', 'C', 'C', 'C']","[5053.379251802401, 5053.989508542978, 5054.558821562061, 5055.021628101136, 5055.480342674685, 5055.857136537232, 5056.262624060489, 5056.676320642766, 5057.065375183549, 5057.442158428646, 5057.810786055889, 5058.257216946726, 5058.679092859163, 5059.088605104092, 5059.490008801867, 5059.891364721113, 5060.292751430967, 5060.698222320218, 5061.1118820953325, 5061.5337498677245, 5061.947409288925, 5062.336494620315]","[5053.502117296642, 5054.096004759449, 5054.693961891138, 5055.148602548825, 5055.5499528054315, 5055.951352610141, 5056.352689771891, 5056.762274923315, 5057.151400954934, 5057.5527313922985, 5057.941855300426, 5058.343195647411, 5058.793715318539, 5059.178705499167, 5059.584172141437, 5059.997841118343, 5060.391033633607, 5060.784213054014, 5061.19788557007, 5061.623826550493, 5062.012952228196, 5062.442956153113]","[5053.076219493852, 5053.473458319604, 5053.8748248563015, 5054.276293674441, 5054.677597214264, 5055.074854443597, 5055.476280791934, 5055.877603797084, 5056.287182578038, 5056.700855448009, 5057.089928746288, 5057.466739596756, 5057.836787484998, 5058.281768739889, 5058.703614569549, 5059.11728390037, 5059.514573335971, 5059.915993667752, 5060.317318442477, 5060.722782253427, 5061.136443090287, 5061.558300953057, 5061.9678800879265, 5062.365134839855]",6,R,ITM,1
6,400,trial,0,29,29,29,"['S', 'S', 'S', 'S', 'S', 'S', 'S', 'C', 'C', 'C', 'C', 'C', 'C', 'C', 'C', 'C', 'C', 'C', 'C', 'C', 'C', 'C', 'C']","[5067.800110209139, 5068.557879794177, 5068.9960237646865, 5069.401482974741, 5069.794664872554, 5070.191995008382, 5070.503248409063, 5070.949655941507, 5071.34283783932, 5071.748304481591, 5072.1456215225635, 5072.547008586333, 5072.956532156542, 5073.341506057079, 5073.7347725405825, 5074.131977036577, 5074.508783640065, 5074.881467487419, 5075.274674513199, 5075.647370039748, 5076.015973954685, 5076.409165408204, 5076.790057252833]","[5067.902508797442, 5068.680651854851, 5069.094297827281, 5069.4998957720245, 5069.884838881954, 5070.277973355153, 5070.62200105679, 5071.015176938047, 5071.416560462666, 5071.822026397106, 5072.2356783860905, 5072.637088454337, 5073.034355947206, 5073.427545631149, 5073.812518116026, 5074.205753808922, 5074.607080707136, 5074.959291985912, 5075.336142474864, 5075.721124515446, 5076.110166315288, 5076.4951710064315, 5076.8556005460205]","[5067.791938311196, 5068.193277242521, 5068.590549336285, 5068.991945601845, 5069.39328665666, 5069.790595557588, 5070.191954662069, 5070.593324030087, 5070.974222245188, 5071.367400957764, 5071.772868307865, 5072.170159513042, 5072.571510477477, 5072.981089612346, 5073.366076253824, 5073.759256382061, 5074.1565433402575, 5074.53334746634, 5074.906090771418, 5075.299240109049, 5075.67195828616, 5076.0364539554785, 5076.433746576315, 5076.814621079108]",6,R,ITM,1
5,600,trial,0,30,30,30,"['S', 'S', 'S', 'S', 'S', 'S', 'S', 'S', 'C', 'C', 'C', 'C', 'C', 'C', 'C', 'C', 'C', 'C', 'C', 'C', 'C', 'C', 'C', 'C']","[5088.65110667459, 5089.105696368513, 5089.5849143012465, 5090.191086862426, 5090.801336524703, 5091.403405087245, 5092.001339568373, 5092.611595601119, 5093.1604732127025, 5093.68056868482, 5094.233495084297, 5094.729055751172, 5095.200055423093, 5095.703827980309, 5096.195310838259, 5096.678622506093, 5097.157795845533, 5097.616486352859, 5098.079376415882, 5098.533953368864, 5099.009031557541, 5099.451358803654, 5099.910106645215, 5100.409753968892]","[5088.753522958645, 5089.249069115003, 5089.695497528434, 5090.277064855282, 5090.887344246421, 5091.4771156774805, 5092.079176807807, 5092.689480972997, 5093.266891213953, 5093.7788731841065, 5094.29492694663, 5094.810965136892, 5095.290147324208, 5095.789824730662, 5096.277194742097, 5096.75641833747, 5097.260150902289, 5097.714785897336, 5098.165371750573, 5098.619939501766, 5099.09504706539, 5099.508679235133, 5099.98788124169, 5100.479348173462]","[5088.487263129097, 5089.085258837524, 5089.687289177243, 5090.285239584547, 5090.887318056709, 5091.485285805848, 5092.087346228345, 5092.689453367625, 5093.184995630919, 5093.70513852765, 5094.258060680147, 5094.753622408767, 5095.224615710217, 5095.728398884885, 5096.219865462742, 5096.703173591427, 5097.182381614539, 5097.64107106012, 5098.103864858255, 5098.558496314152, 5099.033593968155, 5099.475912012477, 5099.934643927862, 5100.434319564741]",6,R,ITM,1
3,400,trial,0,31,31,31,"['S', 'S', 'S', 'S', 'S', 'S', 'S', 'C', 'C', 'C', 'C', 'C', 'C', 'C', 'C', 'C', 'C', 'C', 'C', 'C', 'C', 'C', 'C']","[5106.397597341674, 5106.848110996246, 5107.212640641407, 5107.605817230495, 5107.962122598288, 5108.367616492015, 5108.789489573132, 5109.194934980501, 5109.592204950775, 5110.026339064043, 5110.394967753033, 5110.816818183588, 5111.218191090756, 5111.607296241387, 5112.004605142314, 5112.3854438996905, 5112.807319104298, 5113.237361252038, 5113.634653872875, 5114.040113436844, 5114.433280470225, 5114.851096623403, 5115.223759235855]","[5106.53685794948, 5106.946392137141, 5107.327288936581, 5107.691808318206, 5108.0727302456135, 5108.469972610516, 5108.908236912134, 5109.297300300793, 5109.698695858522, 5110.124632945879, 5110.49323084426, 5110.894630648971, 5111.308275559654, 5111.685134896482, 5112.102839566426, 5112.483720085775, 5112.9056335132045, 5113.335643100762, 5113.724717460787, 5114.130212062344, 5114.531566919845, 5114.949319368318, 5115.313843704755]","[5106.020820820962, 5106.422223810908, 5106.823548231717, 5107.220818909821, 5107.622202788355, 5108.023576403352, 5108.420852744098, 5108.8222122024945, 5109.2194984528605, 5109.616776917096, 5110.050898289423, 5110.419532994967, 5110.841387318587, 5111.242753855285, 5111.6318498041255, 5112.029140301472, 5112.405919299588, 5112.831876560102, 5113.257826034484, 5113.659185846796, 5114.064659567367, 5114.457851020886, 5114.875611609404, 5115.248319876894]",6,R,ITM,1
3,600,trial,0,32,32,32,"['S', 'S', 'S', 'S', 'S', 'S', 'S', 'C', 'C', 'C', 'C', 'C', 'C', 'C', 'C', 'C', 'C', 'C', 'C', 'C', 'C', 'C', 'C']","[5121.055983340512, 5121.662116263209, 5122.333822561871, 5123.005497008179, 5123.640325361162, 5124.230118381037, 5124.828084360601, 5125.43422790075, 5125.995340000856, 5126.5482441036875, 5127.088910886674, 5127.633602745248, 5128.178333534475, 5128.698477139036, 5129.2391049913695, 5129.787906511223, 5130.287569761075, 5130.8200218224, 5131.323830125035, 5131.876710515558, 5132.384563359106, 5132.863808543297, 5133.379821959507]","[5121.162430362795, 5121.789081509108, 5122.444389155053, 5123.112008442997, 5123.746809544522, 5124.352964056036, 5124.955057746545, 5125.540689787464, 5126.122292151899, 5126.65062782756, 5127.1748902951895, 5127.727789089296, 5128.264310819501, 5128.80494327273, 5129.308711582967, 5129.869838193589, 5130.389961978909, 5130.914222676964, 5131.422097109328, 5132.003657003961, 5132.478799605173, 5132.957954187115, 5133.457618144798]","[5120.724240029417, 5121.322168493989, 5121.924243780917, 5122.52220268218, 5123.124262750762, 5123.722244302588, 5124.324302955509, 5124.9223011413405, 5125.458785356554, 5126.015792042363, 5126.572809699537, 5127.11343188923, 5127.658172588078, 5128.202874002358, 5128.7230161912585, 5129.263662447173, 5129.812470691412, 5130.308046222718, 5130.840476341312, 5131.348357851976, 5131.901282481878, 5132.409125769721, 5132.884243596881, 5133.404372690926]",6,R,ITM,1
6,600,trial,0,33,33,33,"['S', 'S', 'S', 'S', 'S', 'S', 'S', 'S', 'C', 'C', 'C', 'C', 'C', 'C', 'C', 'C', 'C', 'C', 'C', 'C', 'C', 'C', 'C', 'C']","[5138.958086905251, 5139.396323247581, 5139.994294535871, 5140.7560845956, 5141.255827476334, 5141.8250481235955, 5142.414830879936, 5143.0210137046515, 5143.639457561519, 5144.143217023879, 5144.634691033953, 5145.146668403209, 5145.634016117998, 5146.170588811968, 5146.649736669525, 5147.128956725748, 5147.620429674076, 5148.140585665663, 5148.656621024606, 5149.135828693802, 5149.6150176055025, 5150.16793551102, 5150.6471421184715, 5151.1303844189615]","[5139.089166059407, 5139.5683362136115, 5140.1335413409915, 5140.846188175911, 5141.386806472539, 5141.943852442916, 5142.521323557256, 5143.102892299765, 5143.762292972981, 5144.249677494933, 5144.761656633766, 5145.2777047336485, 5145.769169895846, 5146.272955194004, 5146.772630476968, 5147.259998010997, 5147.735104512877, 5148.242970805196, 5148.759022444229, 5149.230003712569, 5149.71739035801, 5150.249826847074, 5150.7249291019725, 5151.240974370536]","[5138.941741693703, 5139.543770617762, 5140.141730580771, 5140.743842674861, 5141.341758044577, 5141.943828730609, 5142.545893400086, 5143.143857963991, 5143.664014309492, 5144.167773064023, 5144.659254506311, 5145.171185158786, 5145.658597640024, 5146.195122909379, 5146.674299434055, 5147.153591335028, 5147.645005533462, 5148.165119763075, 5148.681199361396, 5149.160403845358, 5149.639576476967, 5150.192509954745, 5150.671686833335, 5151.154960278347]",6,R,ITM,1
6,400,trial,0,34,34,34,"['S', 'S', 'S', 'S', 'S', 'S', 'C', 'C', 'C', 'C', 'C', 'C', 'C', 'C', 'C', 'C', 'C', 'C', 'C', 'C', 'C', 'C']","[5156.987190753474, 5157.630203037511, 5158.052070809903, 5158.506690940519, 5158.912181649011, 5159.305384781725, 5159.723096883884, 5160.054851166345, 5160.411165028099, 5160.759361848739, 5161.177086337924, 5161.627599638582, 5162.094476200453, 5162.553210947158, 5163.056970763434, 5163.544359532365, 5164.019454001133, 5164.486347904841, 5164.990114445502, 5165.436562678174, 5165.895271589082, 5166.329384113533]","[5157.130531647613, 5157.740780248144, 5158.20360165165, 5158.633679544809, 5159.0350110439185, 5159.4036284076265, 5159.800901563137, 5160.1408571184875, 5160.480780113657, 5160.878074857983, 5161.258954315586, 5161.721765809472, 5162.188674931526, 5162.6310131490045, 5163.118404041426, 5163.622167396852, 5164.117724170662, 5164.564161431968, 5165.055657030858, 5165.518440211542, 5165.981286035186, 5166.415412008408]","[5156.643220739987, 5157.04452781896, 5157.441819024136, 5157.843178128618, 5158.244558468001, 5158.641842948791, 5159.043188250587, 5159.4445972570875, 5159.747664603224, 5160.075344261993, 5160.435730270034, 5160.783852414603, 5161.201612295291, 5161.652129842929, 5162.119045689368, 5162.5777733577725, 5163.081529634897, 5163.568921235149, 5164.044012872598, 5164.51090642239, 5165.014708000638, 5165.461094298181, 5165.9198329379515, 5166.353957495513]",6,R,ITM,1
5,400,trial,0,35,35,35,"['S', 'S', 'S', 'S', 'S', 'S', 'S', 'C', 'C', 'C', 'C', 'C', 'C', 'C', 'C', 'C', 'C', 'C', 'C', 'C', 'C', 'C', 'C']","[5172.026448777701, 5172.468780624709, 5172.907052358542, 5173.324788880839, 5173.906365409478, 5174.340512971517, 5174.733709025931, 5175.315256533537, 5175.708474176767, 5176.097541458491, 5176.511217513697, 5176.924865255702, 5177.322170617479, 5177.723532907196, 5178.101364802514, 5178.5385694825445, 5178.956325824082, 5179.361808038613, 5179.7590716384175, 5180.172737076174, 5180.602772499528, 5181.0410215828, 5181.454660830844]","[5172.145227969055, 5172.60803167681, 5173.005318281092, 5173.435388388119, 5174.004645488628, 5174.463381650992, 5174.848376432516, 5175.434131281948, 5175.8313368396875, 5176.208160431097, 5176.642270832058, 5177.031364303493, 5177.416347759736, 5177.821815109835, 5178.202710847531, 5178.632757950082, 5179.046427280903, 5179.460088117763, 5179.86144474484, 5180.283346139158, 5180.721539303856, 5181.151579682021, 5181.540687310058]","[5171.719295482593, 5172.120648216604, 5172.522050144805, 5172.919292155792, 5173.320706471018, 5173.7221275106285, 5174.123429634791, 5174.520720486053, 5175.339829561602, 5175.733097460766, 5176.122128643157, 5176.535783463462, 5176.949442530748, 5177.346717101917, 5177.748083992529, 5178.124900859553, 5178.559048421592, 5178.980880094651, 5179.386343905601, 5179.783633341202, 5180.197318244284, 5180.627363223345, 5181.065586116904, 5181.479240937209]",6,R,ITM,1
7,400,trial,0,36,36,36,"['S', 'S', 'S', 'S', 'S', 'S', 'S', 'C', 'C', 'C', 'C', 'C', 'C', 'C', 'C', 'C', 'C', 'C', 'C', 'C', 'C', 'C', 'C']","[5187.139437919234, 5187.643228526117, 5188.085590455903, 5188.527884080088, 5188.896510291672, 5189.338865850987, 5189.703314449607, 5190.125175851528, 5190.518358103256, 5190.923867923159, 5191.3293140383585, 5191.751166592404, 5192.1689091312555, 5192.615347808222, 5193.016710097939, 5193.430387922721, 5193.835886063428, 5194.257729415683, 5194.65089609515, 5195.076849462598, 5195.535569698786, 5195.93695216166, 5196.358754813687]","[5187.27869428006, 5187.753793349724, 5188.2002157465995, 5188.609792050148, 5188.998883398094, 5189.416640093546, 5189.797516719831, 5190.202984777761, 5190.608448942626, 5190.993435230188, 5191.415311142625, 5191.849467198625, 5192.267224601907, 5192.693154257049, 5193.115022737271, 5193.516384673073, 5193.917819869285, 5194.351889923933, 5194.753280172937, 5195.166929330601, 5195.613347834412, 5196.027030967919, 5196.444787309457]","[5186.922457925697, 5187.323742708023, 5187.725139327497, 5188.122394079426, 5188.523796715456, 5188.925142371167, 5189.322430391108, 5189.723859570765, 5190.149743924783, 5190.542931485236, 5190.948400250996, 5191.357973015395, 5191.775743513534, 5192.19347791234, 5192.639919774542, 5193.041277109449, 5193.4549616586155, 5193.864509295047, 5194.286354770792, 5194.6754691232145, 5195.105504546569, 5195.560132109401, 5195.961499707843, 5196.3833186399615]",6,R,ITM,1
3,600,trial,0,37,37,37,"['S', 'S', 'S', 'S', 'S', 'S', 'S', 'S', 'C', 'C', 'C', 'C', 'C', 'C', 'C', 'C', 'C', 'C', 'C', 'C', 'C', 'C', 'C', 'C']","[5201.986223149795, 5202.489968809468, 5203.08796911879, 5203.563032796951, 5204.115937607612, 5204.672975437943, 5205.246370159018, 5205.844344632543, 5206.430023390244, 5206.995218961918, 5207.535842213356, 5208.137913253304, 5208.686746625509, 5209.264201459758, 5209.817122904425, 5210.374140561599, 5210.906555461846, 5211.475874497485, 5212.065642389393, 5212.622657215248, 5213.1837586979045, 5213.757136431057, 5214.318250300739, 5214.862989937842]","[5202.084505706349, 5202.694756076456, 5203.202645019336, 5203.677703742686, 5204.201967625977, 5204.77534889828, 5205.344658378212, 5205.942620110796, 5206.532409237607, 5207.093492670597, 5207.646416946584, 5208.223914958467, 5208.768605047465, 5209.354301147003, 5209.899029458825, 5210.468320181261, 5211.008955465811, 5211.570060841532, 5212.1229727304935, 5212.708640516829, 5213.28206461285, 5213.847218776466, 5214.400169242165, 5214.94486393206]","[5201.707729539553, 5202.309771912383, 5202.907733644967, 5203.509803623169, 5204.107775973204, 5204.70982719391, 5205.307789988239, 5205.909855365547, 5206.4545907556685, 5207.015687991345, 5207.5604053318, 5208.162489112689, 5208.7071873417335, 5209.288766347778, 5209.841689208104, 5210.398705803534, 5210.931116102886, 5211.496348127807, 5212.086095492645, 5212.647217856287, 5213.208314384133, 5213.781700611246, 5214.342822620974, 5214.883446580243]",6,R,ITM,1
6,400,trial,0,38,38,38,"['S', 'S', 'S', 'S', 'S', 'S', 'S', 'C', 'C', 'C', 'C', 'C', 'C', 'C', 'C', 'C', 'C', 'C', 'C', 'C', 'C', 'C', 'C']","[5220.940975821587, 5221.416019326592, 5221.784621118039, 5222.210595012559, 5222.566993813919, 5222.931433210749, 5223.353335666813, 5223.783324373385, 5224.188818267112, 5224.606577793885, 5225.04887000241, 5225.42569430165, 5225.827074287118, 5226.257155365511, 5226.670771609079, 5227.100818711629, 5227.5144703466985, 5227.95271659865, 5228.362304581395, 5228.833256828702, 5229.238787529592, 5229.705671877594, 5230.18074865061]","[5221.059688476916, 5221.506137063503, 5221.878844977079, 5222.292485286867, 5222.657022718159, 5223.017421467141, 5223.447469631436, 5223.873407072709, 5224.282972404892, 5224.700733347325, 5225.143107664136, 5225.536276821008, 5225.933529095531, 5226.355385896557, 5226.760858909298, 5227.2032495062, 5227.608668016027, 5228.034601210318, 5228.460570503943, 5228.939752337344, 5229.3370269085135, 5229.795730156781, 5230.270833473424]","[5220.568300468194, 5220.965504610274, 5221.366897336683, 5221.764158812997, 5222.165558263792, 5222.566915244784, 5222.964178490673, 5223.3655528135005, 5223.807871211738, 5224.21335696542, 5224.631105166912, 5225.069365221549, 5225.450283609805, 5225.85160909236, 5226.281674598492, 5226.695307122151, 5227.125389616204, 5227.539025679012, 5227.977272284879, 5228.3868369092315, 5228.857832334173, 5229.263284819841, 5229.7302070367505, 5230.205322386506]",6,R,ITM,1
6,600,trial,0,39,39,39,"['S', 'S', 'S', 'S', 'S', 'S', 'S', 'C', 'C', 'C', 'C', 'C', 'C', 'C', 'C', 'C', 'C', 'C', 'C', 'C', 'C', 'C', 'C']","[5236.295589829473, 5237.090126584787, 5237.696287112857, 5238.318815503036, 5238.97005064878, 5239.539325445039, 5240.129102538739, 5240.72304521229, 5241.3291430974, 5241.894331944689, 5242.488193571699, 5242.983833161626, 5243.549011391463, 5244.167431536023, 5244.757214292363, 5245.297848161252, 5245.920371950536, 5246.514250565468, 5247.104052079304, 5247.661048855492, 5248.254961092352, 5248.873347261069, 5249.442622765159]","[5236.4061518217595, 5237.192498629464, 5237.819155792333, 5238.425308534272, 5239.060130870698, 5239.633511789087, 5240.133205121717, 5240.833571105245, 5241.431516911653, 5242.013095209866, 5242.598830947887, 5243.073892148643, 5243.639090905552, 5244.269834371307, 5244.8391006736065, 5245.396108775075, 5246.014551924112, 5246.608422045084, 5247.177731171101, 5247.771632436596, 5248.328609393542, 5248.971634418519, 5249.5327320081105]","[5235.959751721532, 5236.557683017423, 5237.159742378174, 5237.757697032458, 5238.359774088961, 5238.9577616573415, 5239.559813585877, 5240.1577799193565, 5240.747523037214, 5241.35370727759, 5241.918894709218, 5242.508679589048, 5243.008325497065, 5243.573561061136, 5244.192004564088, 5244.7817664394415, 5245.3223925222, 5245.944963736097, 5246.534714286169, 5247.128586176716, 5247.685599940825, 5248.279452719961, 5248.897917103899, 5249.467184821859]",6,R,ITM,1
4,400,trial,0,40,40,40,"['S', 'S', 'S', 'S', 'S', 'S', 'S', 'C', 'C', 'C', 'C', 'C', 'C', 'C', 'C', 'C', 'C', 'C', 'C', 'C', 'C', 'C', 'C']","[5255.364964252813, 5255.901499785705, 5256.347904486828, 5256.753425985928, 5257.138474208619, 5257.507003447487, 5257.891989027218, 5258.301570285577, 5258.715215550177, 5259.1247656640135, 5259.546617156314, 5259.976726901824, 5260.353510854751, 5260.787630103588, 5261.2012951874285, 5261.62721988776, 5262.065442427404, 5262.450483925711, 5262.839551207434, 5263.273696999898, 5263.675043363439, 5264.10103920069, 5264.481909810418]","[5255.487824792243, 5256.012068502377, 5256.458480989631, 5256.8721765101645, 5257.236677842124, 5257.625755741298, 5258.014849212734, 5258.408036773187, 5258.809453565817, 5259.2189587324465, 5259.644936166116, 5260.074971235556, 5260.459956815289, 5260.890029045806, 5261.299571373513, 5261.729683950343, 5262.155612189825, 5262.528274802276, 5262.966520346398, 5263.376057011464, 5263.761070550483, 5264.174730679513, 5264.571993925402]","[5255.13971998951, 5255.5369722640335, 5255.938341985966, 5256.339797355335, 5256.73701176095, 5257.138409088255, 5257.53974872741, 5257.9370349777755, 5258.32611075346, 5258.735734481623, 5259.149335152929, 5259.571185937399, 5260.0012365791, 5260.378051322634, 5260.812206316888, 5261.225853704977, 5261.65179680889, 5262.090021472025, 5262.475031825808, 5262.864105831918, 5263.298228619905, 5263.699659215222, 5264.125565511972, 5264.506484961974]",6,R,ITM,1
2,600,trial,0,41,41,41,"['S', 'S', 'S', 'S', 'S', 'S', 'S', 'C', 'C', 'C', 'C', 'C', 'C', 'C', 'C', 'C', 'C', 'C', 'C', 'C', 'C', 'C', 'C']","[5270.563970317855, 5271.292999879315, 5271.968798497418, 5272.5790506371, 5273.197514313209, 5273.832308690348, 5274.393410880834, 5274.98726719912, 5275.486946375149, 5276.076723468848, 5276.564130641361, 5277.157969263896, 5277.743644482447, 5278.349808549667, 5278.935506064865, 5279.500707653094, 5280.090475545003, 5280.6515752580835, 5281.249552916844, 5281.814735039747, 5282.367657900074, 5282.9778955292395, 5283.59225945369]","[5270.727772101374, 5271.448669757288, 5272.120299964219, 5272.7018665832375, 5273.349002685153, 5273.979722792517, 5274.532668303405, 5275.122465924176, 5275.605720965607, 5276.211855303965, 5276.670569877513, 5277.317693592404, 5277.874724698349, 5278.472684307443, 5279.029703380278, 5279.611281324576, 5280.192850067085, 5280.75394659493, 5281.364205458997, 5281.933525556381, 5282.4946146520115, 5283.0925717837, 5283.678244878761]","[5270.248648663953, 5270.850640073019, 5271.448635073616, 5272.046563538188, 5272.64863776337, 5273.2506946467165, 5273.848667704581, 5274.45074440717, 5275.011831733224, 5275.507464598765, 5276.101291542103, 5276.588676064054, 5277.182538044981, 5277.768230251453, 5278.370277933009, 5278.960071660715, 5279.525276080264, 5280.115039725192, 5280.676136960868, 5281.269984077363, 5281.839392299587, 5282.388127283415, 5283.002466079899, 5283.616826819114]",6,R,ITM,1
2,600,trial,0,42,42,42,"['S', 'S', 'S', 'S', 'S', 'S', 'S', 'C', 'C', 'C', 'C', 'C', 'C', 'C', 'C', 'C', 'C', 'C', 'C', 'C', 'C', 'C', 'C']","[5297.382349974536, 5298.033549020947, 5298.6560926294715, 5299.290911780663, 5299.901198604018, 5300.470488264708, 5301.084842633453, 5301.6254747327675, 5302.178371757298, 5302.735397200603, 5303.317019738195, 5303.837124058188, 5304.398218462544, 5304.9961695776765, 5305.508152609575, 5306.093805177565, 5306.638527826746, 5307.232426614834, 5307.777115288173, 5308.371015138007, 5308.891196611476, 5309.464545323597, 5310.017478801375]","[5297.509310619539, 5298.148232353708, 5298.783080525932, 5299.389196460708, 5300.0117298056975, 5300.5810385777995, 5301.179043488017, 5301.736035663309, 5302.309419059103, 5302.854167897996, 5303.415256285796, 5303.943579220516, 5304.521064845373, 5305.09855896419, 5305.590054563079, 5306.196188193607, 5306.7409412794805, 5307.334797951681, 5307.879505736431, 5308.461101730397, 5309.00991457553, 5309.575117579419, 5310.123967231716]","[5296.956445093446, 5297.5584386260025, 5298.156403189907, 5298.758467859384, 5299.360538545417, 5299.958510187621, 5300.560566009222, 5301.158551100198, 5301.650019801546, 5302.202933106167, 5302.75993306759, 5303.337421523767, 5303.861677974842, 5304.422763885236, 5305.020733050036, 5305.532707234059, 5306.118371127329, 5306.663114657497, 5307.256961066162, 5307.797600597692, 5308.395572947727, 5308.915726461908, 5309.489110919447, 5310.042040858074]",6,R,ITM,1
3,400,trial,0,43,43,43,"['B', 'S', 'S', 'S', 'S', 'S', 'S', 'S', 'C', 'C', 'C', 'C', 'C', 'C', 'C', 'C', 'C', 'C', 'C', 'C', 'C', 'C', 'C', 'C']","[5315.7841762468515, 5316.2387967313825, 5316.644236476111, 5317.000526625558, 5317.344591842188, 5317.71319115623, 5318.1023012616715, 5318.495481743825, 5318.917342084001, 5319.343273154802, 5319.7487468753725, 5320.211551644873, 5320.633410215474, 5321.042998552133, 5321.460738259665, 5321.8620892241015, 5322.271695610428, 5322.714033827906, 5323.135873287096, 5323.561819222328, 5323.99594307206, 5324.430091695844, 5324.876527541491, 5325.306583138002]","[5315.878355158683, 5316.353454936177, 5316.754803423208, 5317.102935123483, 5317.438814285568, 5317.819683479636, 5318.204672244603, 5318.585564089233, 5319.032029663742, 5319.4497817583, 5319.863415343702, 5320.318034412574, 5320.735804910712, 5321.1371502125085, 5321.567205455105, 5321.968593934534, 5322.374057745484, 5322.812287009514, 5323.238232590831, 5323.635520964687, 5324.110671705945, 5324.507893189861, 5324.962508719582, 5325.4007549715325]","[5315.792345313475, 5316.193773785301, 5316.59508192602, 5316.992355081529, 5317.393803018683, 5317.795105142845, 5318.196469909967, 5318.593760761229, 5318.941901309379, 5319.367878035219, 5319.773308578157, 5320.236114055488, 5320.657978288729, 5321.067552114872, 5321.485281912784, 5321.882548697823, 5322.292123939626, 5322.738573587959, 5323.160414462808, 5323.5863770320475, 5324.020499112205, 5324.454660476928, 5324.896994801342, 5325.3311331615905]",6,R,ITM,1
4,600,trial,0,44,44,44,"['B', 'S', 'S', 'S', 'S', 'S', 'S', 'S', 'C', 'C', 'C', 'C', 'C', 'C', 'C', 'C', 'C', 'C', 'C', 'C', 'C', 'C', 'C', 'C']","[5331.08967534313, 5331.490993039553, 5332.187273781939, 5332.879446632623, 5333.477464637695, 5334.058984893845, 5334.6487591562245, 5335.263140068596, 5335.852865490701, 5336.434475995183, 5336.995622425047, 5337.5894536153655, 5338.166944195033, 5338.756690852039, 5339.317818878323, 5339.887104645949, 5340.476882093563, 5341.066665911648, 5341.623682507077, 5342.1929941105, 5342.77045319173, 5343.40938837467, 5343.921349109922, 5344.48655352947]","[5331.101935667451, 5331.6712125872, 5332.338787281851, 5332.998199988179, 5333.649413545107, 5334.231012724307, 5334.828962777695, 5335.418740225309, 5336.012606099301, 5336.56556010415, 5337.13071249819, 5337.76145207088, 5338.343042756121, 5338.900059705465, 5339.485726076141, 5340.038669463539, 5340.628437355448, 5341.201817919921, 5341.795708921879, 5342.324026193959, 5342.917888174885, 5343.544528349832, 5344.048340899447, 5344.6339637385745]","[5331.0978348540475, 5331.699876165132, 5332.297849222998, 5332.899907522004, 5333.4979163252865, 5334.09994064845, 5334.697906981929, 5335.29995430957, 5335.877498330406, 5336.4590426527775, 5337.020134579728, 5337.614025227771, 5338.19148360117, 5338.78126423402, 5339.342415264779, 5339.91170421764, 5340.501448043327, 5341.091221951792, 5341.648235715901, 5342.217527853997, 5342.795011355363, 5343.4298436014105, 5343.945891347379, 5344.511097182589]",6,R,ITM,1
7,600,trial,0,45,45,45,"['S', 'S', 'S', 'S', 'S', 'S', 'S', 'S', 'C', 'C', 'C', 'C', 'C', 'C', 'C', 'C', 'C', 'C', 'C', 'C', 'C', 'C', 'C', 'C']","[5350.204121198908, 5350.937225030145, 5351.0396013218015, 5351.576158089595, 5352.190482021648, 5352.845787898017, 5353.476516853257, 5354.0540081407535, 5354.680642299145, 5355.311371962214, 5355.8683924507095, 5356.49501174467, 5357.068425577156, 5357.62131021466, 5358.194767224779, 5358.78450291042, 5359.337444528243, 5359.964096028471, 5360.512864988142, 5361.065775815358, 5361.643266395025, 5362.179799804427, 5362.745044570289, 5363.31020616612]","[5350.35970365987, 5350.941275941529, 5351.068246496153, 5351.719443772989, 5352.305212071192, 5352.944054174481, 5353.587076722053, 5354.1768605401385, 5354.799398486022, 5355.462882984722, 5356.011718834331, 5356.6752075800105, 5357.207668489211, 5357.768745905645, 5358.32576356282, 5358.903249187677, 5359.480747907389, 5360.086895694518, 5360.660302448703, 5361.221401453954, 5361.721072489937, 5362.347700277859, 5362.880146322628, 5363.445333400341]","[5349.901041819661, 5350.503064727165, 5351.101017257958, 5351.703082635266, 5352.301052507895, 5352.903105852091, 5353.501069708165, 5354.103167999569, 5354.705186306178, 5355.335932957169, 5355.8970351476555, 5356.51958300316, 5357.092958966738, 5357.649985117873, 5358.219303799597, 5358.809095757727, 5359.361972963015, 5359.988601812682, 5360.537430583991, 5361.090343180783, 5361.667830575215, 5362.204358675891, 5362.773688682894, 5363.334743802682]",6,R,ITM,1
2,400,trial,0,46,46,46,"['B', 'S', 'S', 'S', 'S', 'S', 'S', 'C', 'C', 'C', 'C', 'C', 'C', 'C', 'C', 'C', 'C', 'C', 'C', 'C', 'C', 'C', 'C']","[5369.01134545398, 5369.498730329845, 5370.084416165847, 5370.604569680029, 5371.04693762637, 5371.407317263939, 5371.7759601095295, 5372.21006484785, 5372.578658499252, 5373.037375550205, 5373.4797098746185, 5373.9015723382845, 5374.3480152622315, 5374.749389938975, 5375.195826492451, 5375.6135704469625, 5376.031332097226, 5376.481849290949, 5376.879147928341, 5377.362411463732, 5377.800639666018, 5378.255274307149, 5378.681227320682]","[5369.179285565894, 5369.662561842227, 5370.305571294944, 5370.780665409797, 5371.153397035679, 5371.517897659808, 5371.898795874908, 5372.3288691671705, 5372.705640733071, 5373.147996646301, 5373.578055428048, 5373.999855956585, 5374.446319053688, 5374.855859611819, 5375.302279885204, 5375.736429924648, 5376.12959837369, 5376.551466853912, 5376.977410311739, 5377.4688662721455, 5377.911225370611, 5378.37401315219, 5378.779512708557]","[5369.0236443550375, 5369.4209284819135, 5369.82229643427, 5370.21956675846, 5370.620954176145, 5371.0223274372265, 5371.42369928265, 5371.820977039055, 5372.23463327502, 5372.603239667363, 5373.057860151894, 5373.504291750559, 5373.926130855833, 5374.368467303737, 5374.773941732138, 5375.220373330804, 5375.638139228047, 5376.055866902469, 5376.50230380986, 5376.903692289288, 5377.386972104771, 5377.825220834128, 5378.275767402798, 5378.705766372906]",6,R,ITM,1
5,600,trial,0,47,47,47,"['S', 'S', 'S', 'S', 'S', 'S', 'S', 'C', 'C', 'C', 'C', 'C', 'C', 'C', 'C', 'C', 'C', 'C', 'C', 'C', 'C', 'C', 'C']","[5384.750973000884, 5385.430887296822, 5386.065692999242, 5386.671834769815, 5387.237031049319, 5387.822754046399, 5388.346969797246, 5388.99408183294, 5389.546992660156, 5390.075321611432, 5390.603725238778, 5391.086971786248, 5391.64396113022, 5392.151858213147, 5392.680182563527, 5393.25769190069, 5393.826968466525, 5394.412636960691, 5394.924599819433, 5395.514359925211, 5396.063196482651, 5396.607913823107, 5397.124016071989]","[5384.922994106961, 5385.582392656688, 5386.21722030184, 5386.8028962282215, 5387.380384684398, 5387.9619498877555, 5388.510796354817, 5389.1743027962475, 5389.682137236214, 5390.206415983935, 5390.738846102528, 5391.209830202188, 5391.742260674697, 5392.291077058981, 5392.794855986667, 5393.37235116723, 5393.929322461536, 5394.527295165485, 5395.039259439887, 5395.633147610525, 5396.1573768101425, 5396.722582291437, 5397.234556121544]","[5384.378291630936, 5384.9762232807425, 5385.57829573635, 5386.176253575869, 5386.778327447137, 5387.376288825805, 5387.978339692597, 5388.576332215787, 5389.0186966229785, 5389.571588692698, 5390.099896409072, 5390.6282377473735, 5391.11156357181, 5391.668556808847, 5392.176391602729, 5392.704763377723, 5393.282244755599, 5393.851526630159, 5394.437200079135, 5394.949159752642, 5395.538948525537, 5396.087737304449, 5396.632475171976, 5397.148532119735]",6,R,ITM,1
2,400,trial,0,48,48,48,"['S', 'S', 'S', 'S', 'S', 'S', 'S', 'C', 'C', 'C', 'C', 'C', 'C', 'C', 'C', 'C', 'C', 'C', 'C', 'C', 'C', 'C', 'C']","[5403.226516233905, 5403.664792922549, 5404.03744350189, 5404.40196111394, 5404.803359856905, 5405.221085761751, 5405.630646846953, 5406.023831222171, 5406.429395898904, 5406.802000823206, 5407.260735923826, 5407.678478816593, 5408.112635934337, 5408.518104700098, 5408.964521434333, 5409.341335470036, 5409.83281372709, 5410.262832516439, 5410.7051703800025, 5411.163917867648, 5411.557082777539, 5412.0116703479725, 5412.404883744222]","[5403.361655855152, 5403.791689155018, 5404.148019650778, 5404.516623565715, 5404.91389990646, 5405.3316718202595, 5405.745347521551, 5406.1098838910975, 5406.539914713557, 5406.916675308092, 5407.35900786293, 5407.776762788808, 5408.210920968298, 5408.640967009103, 5409.0546239528985, 5409.455997567896, 5409.918814724422, 5410.36933227206, 5410.799386806826, 5411.24171405294, 5411.630770009382, 5412.089492015146, 5412.507268175926]","[5402.866113591859, 5403.2633782534085, 5403.66474302053, 5404.066090799731, 5404.467490250526, 5404.864749957264, 5405.266126757498, 5405.663409114798, 5406.048439287824, 5406.453886818683, 5406.826568542546, 5407.285308951891, 5407.703051490743, 5408.133094700229, 5408.542670649862, 5408.984986924609, 5409.365908852016, 5409.857369767234, 5410.287397758373, 5410.729741992407, 5411.188452318975, 5411.581658636925, 5412.036242668208, 5412.429424212106]",6,R,ITM,1
7,400,trial,0,49,49,49,"['S', 'S', 'S', 'S', 'S', 'S', 'S', 'C', 'C', 'C', 'C', 'C', 'C', 'C', 'C', 'C', 'C', 'C', 'C', 'C', 'C', 'C', 'C']","[5418.0159346701175, 5418.491024537991, 5418.929254155935, 5419.347026069735, 5419.723812853981, 5420.13338349489, 5420.538849429329, 5420.956625590109, 5421.341612231587, 5421.710212961289, 5422.070614895505, 5422.418788711668, 5422.779195600695, 5423.115053173963, 5423.508213129044, 5423.950552408268, 5424.413348329893, 5424.859800101715, 5425.2898266771945, 5425.732163832928, 5426.215451788456, 5426.6782675293225, 5427.132874565083]","[5418.204334609669, 5418.626176546263, 5419.056223648814, 5419.449392451771, 5419.875359621906, 5420.284927785408, 5420.6985847292035, 5421.0835770333215, 5421.46446109182, 5421.874056506781, 5422.201702189707, 5422.5498370752175, 5422.885684031035, 5423.229700761307, 5423.594224035997, 5424.052924452944, 5424.4993571133555, 5424.954019005945, 5425.396293164804, 5425.838626427472, 5426.309611942792, 5426.760146124436, 5427.251666143462]","[5417.802967719056, 5418.200250784187, 5418.601651296727, 5419.0029750097065, 5419.404340838573, 5419.801630274174, 5420.20303892676, 5420.604375734595, 5420.9811741980375, 5421.36616685607, 5421.734776433648, 5422.095210220216, 5422.443347583132, 5422.803753410413, 5423.139601427976, 5423.532776247489, 5423.975112695392, 5424.437907909187, 5424.884345878323, 5425.31440253658, 5425.756706070386, 5426.239987301529, 5426.702816491166, 5427.1574182182]",6,R,ITM,1
4,400,trial,0,50,50,50,"['S', 'S', 'S', 'S', 'S', 'S', 'S', 'C', 'C', 'C', 'C', 'C', 'C', 'C', 'C', 'C', 'C', 'C', 'C', 'C', 'C', 'C', 'C']","[5432.965099023655, 5433.419744282237, 5433.915280528976, 5434.304365152536, 5434.6893571027385, 5435.078461191625, 5435.443075776392, 5435.807501724451, 5436.249839588015, 5436.692132858285, 5437.101716947965, 5437.552234495602, 5437.994605273263, 5438.486067604141, 5438.912016724608, 5439.374797781802, 5439.813050758139, 5440.263576445823, 5440.730485213961, 5441.176889207255, 5441.651989692578, 5442.065655130335, 5442.520269952225]","[5433.104358215801, 5433.5548817799945, 5434.01768548775, 5434.382179033579, 5434.791740472696, 5435.189032739618, 5435.537153114611, 5435.9508312933085, 5436.3768257148995, 5436.802715377643, 5437.2246107554065, 5437.658724341603, 5438.076460509985, 5438.56796991156, 5439.006172278048, 5439.47719247704, 5439.931800928461, 5440.361829981345, 5440.836943915439, 5441.2833797610865, 5441.7502867596495, 5442.159852799662, 5442.622732953064]","[5432.64155132281, 5433.038797226864, 5433.440185706292, 5433.841572770061, 5434.242947092889, 5434.640199721327, 5435.041588554671, 5435.442991190701, 5435.832040776673, 5436.274376516747, 5436.716695976729, 5437.126254938442, 5437.576804692347, 5438.015032186802, 5438.510672838473, 5438.936550822021, 5439.399351344541, 5439.837610337433, 5440.288133901627, 5440.755038422785, 5441.197347619232, 5441.676554580598, 5442.090228158399, 5442.544861383872]",6,R,ITM,1
7,600,trial,0,51,51,51,"['S', 'S', 'S', 'S', 'S', 'S', 'S', 'C', 'C', 'C', 'C', 'C', 'C', 'C', 'C', 'C', 'C', 'C', 'C', 'C', 'C', 'C', 'C']","[5448.409824044066, 5449.065140891802, 5449.728648041063, 5450.35935788489, 5450.969629843814, 5451.596269310931, 5452.198318054232, 5452.763556803538, 5453.263226423862, 5453.73419495126, 5454.258425920453, 5454.762211218611, 5455.286444311294, 5455.863942323176, 5456.433223843822, 5456.973865498841, 5457.469492347826, 5458.059191934135, 5458.591632316264, 5459.107703774539, 5459.656528652784, 5460.172569674366, 5460.704987759849]","[5448.528631548623, 5449.192120294301, 5449.8801965785615, 5450.506802423752, 5451.1334234872875, 5451.7068341345375, 5452.333453428499, 5452.915062871235, 5453.381945095746, 5453.828392974504, 5454.32397275279, 5454.852320107647, 5455.380649766752, 5455.982692847413, 5456.5028254806075, 5457.051640803146, 5457.567714030996, 5458.14109813462, 5458.669467078294, 5459.2265204808855, 5459.734308911899, 5460.279046071596, 5460.774614878517]","[5448.078120371455, 5448.680172299991, 5449.278117044654, 5449.880161894889, 5450.478137430159, 5451.0801879430355, 5451.6781769270765, 5452.280242658298, 5452.788072851285, 5453.287763352595, 5453.758748867915, 5454.283005318989, 5454.786760180455, 5455.311014154124, 5455.888505795536, 5456.457791917076, 5456.99848807501, 5457.49397866671, 5458.083755760409, 5458.616194372963, 5459.132263353833, 5459.68518196718, 5460.197104833524, 5460.729563973149]",6,R,ITM,1
5,400,trial,0,52,52,52,"['S', 'S', 'S', 'S', 'S', 'S', 'S', 'C', 'C', 'C', 'C', 'C', 'C', 'C', 'C', 'C', 'C', 'C', 'C', 'C', 'C', 'C', 'C']","[5466.410255466483, 5466.942681692011, 5467.319475554558, 5467.696397534345, 5468.1222277393645, 5468.47856354385, 5468.879944944979, 5469.256750840636, 5469.711349028521, 5470.08817120427, 5470.501825316745, 5470.895038005165, 5471.320963767242, 5471.718254618502, 5472.107331455932, 5472.5250920444505, 5472.996071543214, 5473.479364099639, 5473.954456444916, 5474.404998766606, 5474.728544697875, 5475.146317319504, 5475.781206545871]","[5466.569994305507, 5467.036879007424, 5467.413684549168, 5467.786391754912, 5468.208314030218, 5468.576865211817, 5468.953655889129, 5469.3714518691495, 5469.801463226282, 5470.190541479372, 5470.587842948084, 5470.993293310263, 5471.423331211023, 5471.808323869056, 5472.189240133823, 5472.635657575887, 5473.094357285005, 5473.573561415052, 5474.052759528543, 5474.503282384906, 5474.835067104058, 5475.240507910532, 5475.8957879511045]","[5466.094929565601, 5466.496256463815, 5466.897641404094, 5467.294931901441, 5467.696345154921, 5468.097660020025, 5468.4949147719535, 5468.896324132368, 5469.281307942526, 5469.735915686116, 5470.11273255314, 5470.52645603296, 5470.919579180878, 5471.3455190995555, 5471.742803226431, 5472.127799423614, 5472.54965622464, 5473.02064811043, 5473.49981791072, 5473.979041152177, 5474.429547374534, 5474.753116664195, 5475.170874421393, 5475.805678708153]",6,R,ITM,1
4,600,trial,0,53,53,53,"['S', 'S', 'S', 'S', 'S', 'S', 'S', 'C', 'C', 'C', 'C', 'C', 'C', 'C', 'C', 'C', 'C', 'C', 'C', 'C', 'C', 'C', 'C']","[5481.793563842908, 5482.3669458230415, 5483.214767670712, 5483.861872628106, 5484.472133615664, 5485.094686425979, 5485.709039379063, 5486.274214777581, 5486.847633918791, 5487.367766198071, 5487.916598862446, 5488.362989406969, 5488.9322935781765, 5489.5384735715725, 5490.079088682965, 5490.578738484048, 5491.127579642383, 5491.668195461606, 5492.241597260981, 5492.798600407639, 5493.31874330437, 5493.867551902524, 5494.391821448454]","[5481.8795549306205, 5482.5307794589135, 5483.288477199201, 5483.931516026865, 5484.558148061767, 5485.160175570166, 5485.782770142454, 5486.364315880486, 5486.941806106238, 5487.470158415905, 5488.035327797867, 5488.489987566965, 5489.051048349394, 5489.6244526261735, 5490.173270072202, 5490.67705324687, 5491.213556927409, 5491.76647589467, 5492.323493551845, 5492.888693370499, 5493.433426991046, 5493.961750633596, 5494.481916888719]","[5481.5806269746245, 5482.182641388168, 5482.780587548491, 5483.382662835418, 5483.980629168897, 5484.5826991471, 5485.180642476103, 5485.78271493171, 5486.298776126449, 5486.872165184884, 5487.392328962601, 5487.941145346885, 5488.387553233244, 5488.956850680065, 5489.563005545495, 5490.099549218432, 5490.603311158197, 5491.152141345167, 5491.692779107122, 5492.2661557785295, 5492.819064836171, 5493.34330890022, 5493.892132008889, 5494.416373595533]",6,R,ITM,1
3,400,trial,0,54,54,54,"['S', 'S', 'S', 'S', 'S', 'S', 'S', 'C', 'C', 'C', 'C', 'C', 'C', 'C', 'C', 'C', 'C', 'C', 'C', 'C', 'C', 'C', 'C']","[5509.033807378916, 5509.537563656041, 5509.967611466423, 5510.344407806375, 5510.749923288919, 5511.13076806285, 5511.511673356251, 5511.917152031631, 5512.314436512423, 5512.7116902026055, 5513.129493968757, 5513.514469638869, 5513.952697841154, 5514.345884339862, 5514.739049603668, 5515.156814085251, 5515.554090425997, 5515.975966338434, 5516.393711354691, 5516.766414313456, 5517.175989909175, 5517.548662431248, 5517.925495932278]","[5509.1279746115515, 5509.648128479648, 5510.053620249885, 5510.4304010175765, 5510.831802945776, 5511.200389872793, 5511.589474142437, 5511.986743758797, 5512.400424414899, 5512.801799445557, 5513.215463113737, 5513.588154039391, 5514.018220253353, 5514.431863394463, 5514.829142920443, 5515.238722055312, 5515.64422302734, 5516.057839978736, 5516.483812103682, 5516.872875138425, 5517.278362307767, 5517.6756347554465, 5518.036037751408]","[5508.7594103350975, 5509.160752451658, 5509.562127128401, 5509.9594109013615, 5510.360768944098, 5510.7621701644675, 5511.159445797383, 5511.56081162625, 5511.941692499514, 5512.338979811625, 5512.73625473671, 5513.149919466636, 5513.534900799388, 5513.9731643931755, 5514.370428346895, 5514.759546946298, 5515.181372956716, 5515.578691059434, 5516.0005287490485, 5516.418241912953, 5516.786870955857, 5517.200527191822, 5517.573259525534, 5517.950039939311]",6,R,ITM,1
4,400,trial,0,55,55,55,"['S', 'S', 'S', 'S', 'S', 'S', 'S', 'C', 'C', 'C', 'C', 'C', 'C', 'C', 'C', 'C', 'C', 'C', 'C', 'C', 'C', 'C', 'C']","[5523.630733556135, 5524.09353584823, 5524.572747056577, 5525.00688293942, 5525.428714966394, 5525.879299757887, 5526.280687883401, 5526.681992838883, 5527.099765460513, 5527.501148277301, 5527.935341848293, 5528.32845437876, 5528.807652492252, 5529.213126212822, 5529.630873706485, 5530.044552946926, 5530.470483309899, 5530.88416538166, 5531.346978999036, 5531.760628864531, 5532.190658979161, 5532.616597482178, 5533.038459945844]","[5523.737219155155, 5524.183627749345, 5524.646459416387, 5525.080635645543, 5525.514735782968, 5525.957068337806, 5526.350249881704, 5526.780348301933, 5527.181659627887, 5527.5830389055245, 5528.021325503789, 5528.422630105357, 5528.869075860624, 5529.303270139446, 5529.716879304713, 5530.126429772465, 5530.5605691944575, 5530.982438382509, 5531.408375469867, 5531.8425315258655, 5532.280763975131, 5532.718989346096, 5533.108079632297]","[5523.479237751974, 5523.876484363857, 5524.277834620463, 5524.679225223383, 5525.080582204374, 5525.477867746909, 5525.879261888979, 5526.280637273552, 5526.706565513034, 5527.124344859048, 5527.521603504042, 5527.959825689772, 5528.353033777296, 5528.832232244703, 5529.233590287439, 5529.655429392714, 5530.069108987071, 5530.4950418274475, 5530.9087277922745, 5531.371522298239, 5531.781066041605, 5532.215266690898, 5532.641164847602, 5533.063025895609]",6,R,ITM,1
2,400,trial,0,56,56,56,"['B', 'S', 'S', 'S', 'S', 'S', 'S', 'S', 'C', 'C', 'C', 'C', 'C', 'C', 'C', 'C', 'C', 'C', 'C', 'C', 'C', 'C', 'C', 'C']","[5538.682553440284, 5539.055004057635, 5539.497319624553, 5539.870031431194, 5540.250930354124, 5540.660504888097, 5541.070121184044, 5541.471430740422, 5541.876909061888, 5542.28646731577, 5542.679636472642, 5543.052349341028, 5543.4864965491515, 5543.871455585257, 5544.264671458912, 5544.641487618106, 5545.022367429625, 5545.423735028067, 5545.792362655311, 5546.1814338301, 5546.595075909464, 5546.971890299083, 5547.373291519452, 5547.799229668555]","[5538.792862029412, 5539.198339643049, 5539.591504199025, 5539.992896925434, 5540.377895600022, 5540.771128107684, 5541.1929332371155, 5541.581985300493, 5541.9915761145585, 5542.388859179689, 5542.769760580024, 5543.179315648671, 5543.580680769708, 5543.965665287696, 5544.371151041377, 5544.747942780435, 5545.132945702003, 5545.513831176162, 5545.89882985075, 5546.279733728491, 5546.672923766349, 5547.062042365752, 5547.467467953879, 5547.893423798732]","[5538.694603539079, 5539.091861122328, 5539.493232613836, 5539.894601274023, 5540.2959663950605, 5540.693255476746, 5541.094608918588, 5541.495994566697, 5541.901470056842, 5542.311092723259, 5542.70012532131, 5543.076913521218, 5543.511084441648, 5543.896057634354, 5544.289222544246, 5544.666061354001, 5545.046932671559, 5545.448309117877, 5545.816967889644, 5546.206032693963, 5546.619639381824, 5546.996468281958, 5547.397852160492, 5547.819688434446]",6,R,ITM,1
4,600,trial,0,57,57,57,"['S', 'S', 'S', 'S', 'S', 'S', 'S', 'C', 'C', 'C', 'C', 'C', 'C', 'C', 'C', 'C', 'C', 'C', 'C', 'C', 'C', 'C', 'C']","[5553.680595936277, 5554.339987761618, 5555.015776824016, 5555.589189594757, 5556.2240168859935, 5556.797407360088, 5557.391290222, 5557.98512849062, 5558.55034281979, 5559.119634250056, 5559.643882561085, 5560.229565211852, 5560.753816000286, 5561.282151675947, 5561.806403880041, 5562.359307628957, 5562.908112334045, 5563.375020040438, 5563.923872524055, 5564.4440065729095, 5565.009174185297, 5565.598956233806, 5566.115064853159]","[5553.782960548738, 5554.471051697429, 5555.126367129505, 5555.707919591921, 5556.326401671611, 5556.9161447894685, 5557.51820627371, 5558.120279791063, 5558.660903396416, 5559.230204736304, 5559.762667768994, 5560.344218107921, 5560.856185921472, 5561.413202516902, 5561.921065977901, 5562.4575912472565, 5563.014609612262, 5563.501983870677, 5564.042614908246, 5564.570945629096, 5565.13613907728, 5565.697281260164, 5566.233813961735]","[5553.303825432122, 5553.905904258199, 5554.503806886974, 5555.105885713052, 5555.703871511858, 5556.305895835022, 5556.903886234722, 5557.505924360573, 5558.009688069914, 5558.574904168659, 5559.144204800716, 5559.668466206601, 5560.254117712845, 5560.7783720404295, 5561.306700283875, 5561.83095956627, 5562.379768872253, 5562.932675452489, 5563.399594484164, 5563.9483984814215, 5564.464464984886, 5565.029743726591, 5565.623521121825, 5566.139597180996]",6,R,ITM,1
5,400,trial,0,58,58,58,"['S', 'S', 'S', 'S', 'S', 'S', 'S', 'S', 'C', 'C', 'C', 'C', 'C', 'C', 'C', 'C', 'C', 'C', 'C', 'C', 'C', 'C', 'C', 'C']","[5571.828454201803, 5572.463293172236, 5572.922054462568, 5573.409374571984, 5573.814864926561, 5573.913150668351, 5574.22857566544, 5574.625807766807, 5575.215565041265, 5575.690675790124, 5576.165783707664, 5576.661359946799, 5577.083233735747, 5577.521453797986, 5577.980165894129, 5578.467538382969, 5578.905761276529, 5579.352203846561, 5579.823238202154, 5580.2655431516205, 5580.740645052604, 5581.158402101973, 5581.572034271715, 5581.9938921344865]","[5572.016886347622, 5572.614821536578, 5573.036662057513, 5573.515876451096, 5573.814888284953, 5573.929573033374, 5574.38007500875, 5574.744572093729, 5575.371218639148, 5575.821741849425, 5576.2517709023095, 5576.771923708661, 5577.21426688095, 5577.67705961734, 5578.107114152106, 5578.578098251766, 5579.040931334468, 5579.483296449489, 5579.9337771899645, 5580.38020666514, 5580.838914514303, 5581.289445864627, 5581.70308086569, 5582.124965626003]","[5571.77114686518, 5572.172508093152, 5572.573853394948, 5572.975252137912, 5573.372608463453, 5573.77389749276, 5574.175268276437, 5574.572558065954, 5575.240150456356, 5575.715231830268, 5576.190319574651, 5576.685926958309, 5577.1077657096685, 5577.541910440387, 5578.004723349934, 5578.492101147499, 5578.930328641954, 5579.376776874626, 5579.847766990841, 5580.2901037926595, 5580.76109850977, 5581.182931952404, 5581.596606238036, 5582.0184403885]",6,R,ITM,1
6,600,trial,0,59,59,59,"['B', 'S', 'S', 'S', 'S', 'S', 'S', 'S', 'C', 'C', 'C', 'C', 'C', 'C', 'C', 'C', 'C', 'C', 'C', 'C', 'C', 'C', 'C', 'C']","[5587.629543339903, 5588.002214092401, 5588.637052355004, 5589.255510722386, 5589.865749767212, 5590.46375750875, 5591.073960454243, 5591.6637718777, 5592.2453374349725, 5592.7900678702845, 5593.293854938017, 5593.777100423742, 5594.280907664632, 5594.768245469799, 5595.2352335149035, 5595.677491039756, 5596.128006463904, 5596.599024539406, 5597.057729203334, 5597.459102110502, 5597.9628782068685, 5598.519887370082, 5599.056413701183, 5599.605249550793]","[5587.731911491514, 5588.211106773686, 5588.8623320098095, 5589.411147686263, 5590.013179087728, 5590.594774019947, 5591.192765127478, 5591.807097907406, 5592.405061409566, 5592.937505330845, 5593.445375870145, 5593.9204643223575, 5594.395552420655, 5594.915709827902, 5595.403095411598, 5595.816743153602, 5596.254969940227, 5596.766989071458, 5597.217454239672, 5597.63521765951, 5598.11852684994, 5598.663236404266, 5599.22024485965, 5599.748587613612]","[5587.641827730446, 5588.239762211572, 5588.841836436755, 5589.439825420796, 5590.041860715326, 5590.639836250596, 5591.24186128159, 5591.839870792703, 5592.269906923887, 5592.814603383357, 5593.318393636325, 5593.801664957847, 5594.305446716854, 5594.792808942158, 5595.2597244346825, 5595.702062298246, 5596.152573121499, 5596.623594736151, 5597.082299400078, 5597.483647533195, 5597.987446634038, 5598.544443410226, 5599.080980358778, 5599.625729551586]",6,R,ITM,1
7,600,trial,0,60,60,60,"['S', 'S', 'S', 'S', 'S', 'S', 'S', 'C', 'C', 'C', 'C', 'C', 'C', 'C', 'C', 'C', 'C', 'C', 'C', 'C', 'C', 'C', 'C']","[5605.625850590525, 5606.3548978477365, 5607.06751955469, 5607.706456153291, 5608.296242802696, 5608.857346408842, 5609.451229270755, 5610.081998926222, 5610.647150966347, 5611.236991056921, 5611.757089360359, 5612.326355662658, 5612.871088929291, 5613.428097384674, 5613.952325168631, 5614.538042149156, 5615.078684865921, 5615.615172266369, 5616.164008115979, 5616.67189422754, 5617.2411647768195, 5617.761318644916, 5618.314240443498]","[5605.806068014682, 5606.522806815129, 5607.206772376366, 5607.845709682797, 5608.451856054265, 5609.00888716021, 5609.569996782912, 5610.212986416387, 5610.77410594871, 5611.335202830471, 5611.879946006724, 5612.457415351489, 5612.985761998516, 5613.559143978649, 5614.083392997508, 5614.652731144558, 5615.185119855093, 5615.73803705278, 5616.282775628138, 5616.794740964284, 5617.3885799407335, 5617.904644320708, 5618.4575601027345]","[5605.330995488645, 5605.928927138452, 5606.531037816882, 5607.128947877873, 5607.731019979565, 5608.329016749736, 5608.931064785207, 5609.529067571934, 5610.1105881819985, 5610.675790124143, 5611.261454371328, 5611.781616025555, 5612.350943555154, 5612.895648508585, 5613.45673866596, 5613.976922970749, 5614.56259535798, 5615.103195958856, 5615.63975697363, 5616.192648689435, 5616.696429032782, 5617.269865161914, 5617.78587751638, 5618.342871107333]",6,R,ITM,1
7,400,trial,0,61,61,61,"['S', 'S', 'S', 'S', 'S', 'S', 'S', 'C', 'C', 'C', 'C', 'C', 'C', 'C', 'C', 'C', 'C', 'C', 'C', 'C', 'C', 'C', 'C']","[5624.1874093313945, 5624.719829186452, 5625.088430270069, 5625.47752621891, 5625.878899833908, 5626.251606685738, 5626.607942844139, 5627.013401346364, 5627.431162288797, 5627.840700369523, 5628.237997237339, 5628.610691702143, 5629.028494052635, 5629.442121621483, 5629.847586848093, 5630.273578084449, 5630.6872014063165, 5631.076295231667, 5631.5145223722075, 5631.915892448055, 5632.345945567161, 5632.775993023627, 5633.201927279664]","[5624.367578269193, 5624.842744936626, 5625.207208753593, 5625.579885522646, 5625.9853843711835, 5626.3580869760335, 5626.730791704374, 5627.136259762304, 5627.521246403781, 5627.955432896472, 5628.352693311042, 5628.70900115624, 5629.122691014133, 5629.5445184402115, 5629.941790887891, 5630.3882100995315, 5630.7814100470105, 5631.182769151492, 5631.6087143788955, 5632.001922112505, 5632.440140405169, 5632.857896038877, 5633.29204678615]","[5623.904822693881, 5624.302103281606, 5624.703454599958, 5625.1048193670795, 5625.506172101091, 5625.9034466722605, 5626.304826657729, 5626.706223277203, 5627.042038026754, 5627.455724699411, 5627.865267381032, 5628.262556462719, 5628.635265438039, 5629.05306283372, 5629.466689694737, 5629.872155983093, 5630.302217950075, 5630.711753553395, 5631.100848086576, 5631.539099293338, 5631.940469369186, 5632.370512932586, 5632.800612768476, 5633.226493229428]",6,R,ITM,1
2,400,trial,0,62,62,62,"['B', 'S', 'S', 'S', 'S', 'S', 'S', 'S', 'C', 'C', 'C', 'C', 'C', 'C', 'C', 'C', 'C', 'C', 'C', 'C', 'C', 'C', 'C', 'C']","[5638.837602197387, 5639.238926618197, 5639.636219946863, 5640.025303154763, 5640.4307874927845, 5640.799382205931, 5641.213038087981, 5641.610309827831, 5642.023998270063, 5642.433573511867, 5642.851318882039, 5643.2649669779585, 5643.658161970628, 5644.092297499555, 5644.493665097997, 5644.927819738336, 5645.337433910793, 5645.783800743009, 5646.197477506046, 5646.615246588524, 5647.057554015396, 5647.454856191938, 5647.823452320745, 5648.28626027548]","[5638.935852547675, 5639.357745801948, 5639.730444867648, 5640.107198737797, 5640.508589694631, 5640.905872051932, 5641.319526518322, 5641.7250009467225, 5642.130456971542, 5642.548212251335, 5642.95367924752, 5643.355067373034, 5643.789224844693, 5644.186476765301, 5644.591945177147, 5645.017930750862, 5645.44386642256, 5645.8902849263695, 5646.320413075461, 5646.705377774208, 5647.159973838601, 5647.5613704580755, 5647.934035547933, 5648.409117629675]","[5638.849899682786, 5639.247121520617, 5639.648495843445, 5640.045770414615, 5640.447166326259, 5640.848530385551, 5641.249884181308, 5641.647171493419, 5642.048563158083, 5642.458105485789, 5642.875912437175, 5643.28542786734, 5643.682725796902, 5644.116894239927, 5644.518228570357, 5644.952416124794, 5645.3619605759895, 5645.804289591678, 5646.2179564450935, 5646.639800505179, 5647.082117841671, 5647.475375477298, 5647.848055077672, 5648.31082445567]",6,R,ITM,1
3,600,trial,0,63,63,63,"['S', 'S', 'S', 'S', 'S', 'S', 'S', 'C', 'C', 'C', 'C', 'C', 'C', 'C', 'C', 'C', 'C', 'C', 'C', 'C', 'C', 'C', 'C']","[5654.036583488378, 5654.675500267736, 5655.31034490081, 5655.9492517705485, 5656.555409113383, 5657.145229384715, 5657.796399764009, 5658.377963197792, 5658.9267873682065, 5659.418268810495, 5659.897492051953, 5660.376643094746, 5660.859963964372, 5661.355545158319, 5661.818347450414, 5662.281136293738, 5662.760327328929, 5663.198583136586, 5663.620403838279, 5664.095501492283, 5664.586983288486, 5665.057998886583, 5665.516763008235]","[5654.1635310385245, 5654.8106466133695, 5655.424975854147, 5656.051626646546, 5656.6577825737195, 5657.288515775939, 5657.911069294085, 5658.484469323885, 5659.045552402959, 5659.512484175574, 5660.012164059433, 5660.479026464704, 5660.954149954504, 5661.437412782066, 5661.92889953308, 5662.39583307527, 5662.866805849649, 5663.300930053296, 5663.72690217824, 5664.210186948534, 5664.689375152405, 5665.164480592539, 5665.590404938955]","[5653.721208747223, 5654.323312701267, 5654.92126523206, 5655.523315391021, 5656.121226867672, 5656.723300031109, 5657.3212688419935, 5657.923328910575, 5658.402528085811, 5658.95134340835, 5659.442829097619, 5659.922026857195, 5660.401211521916, 5660.884493814804, 5661.380141190861, 5661.8429013670675, 5662.305727371469, 5662.784885492563, 5663.223111925273, 5663.644967664553, 5664.120097878739, 5664.607461519704, 5665.082555988472, 5665.537152052866]",6,R,ITM,1
5,600,trial,0,64,64,64,"['S', 'S', 'S', 'S', 'S', 'S', 'S', 'C', 'C', 'C', 'C', 'C', 'C', 'C', 'C', 'C', 'C', 'C', 'C', 'C', 'C', 'C', 'C']","[5671.246530128609, 5671.860874587734, 5672.516187542404, 5673.081395855018, 5673.7162150062095, 5674.29369178319, 5674.871202182098, 5675.4896471007105, 5676.034358424611, 5676.61593353759, 5677.136118196293, 5677.672627893388, 5678.164084561625, 5678.684284084759, 5679.1716169351175, 5679.716359049625, 5680.236500884611, 5680.719842635223, 5681.289091241771, 5681.764203052376, 5682.259815744759, 5682.816806858307, 5683.328828113028]","[5671.422647093278, 5672.01651225944, 5672.6554301005435, 5673.245217811694, 5673.867749033193, 5674.445249168565, 5675.018633626104, 5675.641178296373, 5676.169505478074, 5676.759284341349, 5677.234373855306, 5677.78732255143, 5678.282903745377, 5678.815328201329, 5679.30676965122, 5679.831046983281, 5680.343004179383, 5680.822165485712, 5681.383287141524, 5681.878876121601, 5682.366249318271, 5682.915050130294, 5683.431112386778]","[5670.853365572632, 5671.451290498054, 5672.053364015406, 5672.651339550676, 5673.253398911428, 5673.851363475333, 5674.453426375234, 5675.051386692158, 5675.514206326089, 5676.054817898333, 5676.640493824713, 5677.16065123196, 5677.69722675725, 5678.1886834254865, 5678.708861359805, 5679.196242342606, 5679.736841527822, 5680.261084530127, 5680.744352312498, 5681.313653652385, 5681.788815011094, 5682.284332146421, 5682.837232710101, 5683.349205478463]",6,R,ITM,1
