octave,ioi,event,.thisRepN,.thisTrialN,.thisN,.thisIndex,event,tap_types,tap_times,release_times,tone_times,subject,handedness,experiment,version,
,,SPR,0,-1,-1,0,SPR,"['P', 'P', 'P', 'P', 'P', 'P', 'P', 'P', 'P', 'P', 'P', 'P', 'P', 'P', 'P', 'P', 'P', 'P', 'P', 'P', 'P', 'P', 'P', 'P', 'P', 'P', 'P', 'P', 'P', 'P']","[70418, 70707, 70996, 71271, 71575, 71852, 72154, 72446, 72734, 73039, 73322, 73592, 73878, 74145, 74467, 74724, 75031, 75304, 75597, 75868, 76192, 76444, 76780, 77047, 77316, 77630, 77918, 78222, 78515, 78797]","[70545, 70821, 71106, 71393, 71696, 71993, 72264, 72557, 72835, 73118, 73417, 73708, 73967, 74240, 74574, 74846, 75136, 75401, 75699, 75980, 76289, 76553, 76883, 77148, 77411, 77725, 78020, 78323, 78587, 78870]",,44,R,ITM,1.1,
4,500,practice,0,0,0,0,practice,"['S', 'S', 'S', 'S', 'S', 'S', 'S', 'S', 'C', 'C', 'C', 'C', 'C', 'C', 'C', 'C', 'C', 'C', 'C', 'C', 'C', 'C', 'C', 'C']","[154930, 155260, 155720, 156195, 156717, 157206, 157698, 158228, 158726, 159222, 159734, 160220, 160729, 161219, 161715, 162179, 162662, 163181, 163665, 164187, 164659, 165157, 165657, 166182]","[155011, 155362, 155857, 156381, 156914, 157430, 157925, 158426, 158932, 159443, 159956, 160455, 160937, 161399, 161909, 162390, 162895, 163408, 163860, 164362, 164797, 165316, 165825, 166315]","[154737, 155236, 155737, 156236, 156736, 157236, 157736, 158236, 158751, 159248, 159760, 160245, 160754, 161245, 161740, 162205, 162689, 163207, 163691, 164212, 164684, 165183, 165683, 166208]",44,R,ITM,1.1,
2,500,practice,0,1,1,1,practice,"['S', 'S', 'S', 'S', 'S', 'S', 'S', 'C', 'C', 'C', 'C', 'C', 'C', 'C', 'C', 'C', 'C', 'C', 'C', 'C', 'C', 'C', 'C']","[172339, 172905, 173465, 173944, 174429, 174944, 175462, 175958, 176413, 176919, 177414, 177915, 178434, 178938, 179453, 179941, 180452, 180986, 181490, 181962, 182491, 183035, 183532]","[172583, 173139, 173705, 174169, 174691, 175204, 175739, 176216, 176697, 177183, 177626, 178136, 178642, 179125, 179637, 180166, 180667, 181179, 181672, 182174, 182673, 183212, 183735]","[171962, 172463, 172961, 173462, 173962, 174462, 174962, 175462, 175984, 176441, 176947, 177441, 177942, 178461, 178966, 179480, 179968, 180478, 181013, 181517, 181990, 182518, 183062, 183560]",44,R,ITM,1.1,
3,500,practice,0,2,2,2,practice,"['S', 'S', 'S', 'S', 'S', 'S', 'S', 'C', 'C', 'C', 'C', 'C', 'C', 'C', 'C', 'C', 'C', 'C', 'C', 'C', 'C', 'C', 'C']","[189383, 189992, 190564, 191069, 191587, 192065, 192560, 193057, 193512, 193995, 194469, 194955, 195412, 195888, 196330, 196775, 197254, 197714, 198148, 198629, 199109, 199570, 200004]","[189571, 190182, 190730, 191271, 191760, 192246, 192776, 193235, 193685, 194158, 194636, 195127, 195623, 196077, 196501, 196964, 197408, 197871, 198377, 198801, 199260, 199764, 200201]","[189086, 189586, 190087, 190587, 191087, 191587, 192088, 192587, 193083, 193538, 194021, 194495, 194980, 195437, 195914, 196356, 196801, 197279, 197740, 198173, 198654, 199135, 199596, 200030]",44,R,ITM,1.1,
6,500,practice,0,3,3,3,practice,"['S', 'S', 'S', 'S', 'S', 'S', 'S', 'C', 'C', 'C', 'C', 'C', 'C', 'C', 'C', 'C', 'C', 'C', 'C', 'C', 'C', 'C', 'C']","[206000, 206501, 207013, 207501, 208013, 208530, 209013, 209489, 209998, 210483, 210974, 211469, 211979, 212480, 212970, 213481, 213977, 214466, 214949, 215441, 215936, 216471, 216955]","[206170, 206696, 207195, 207735, 208290, 208728, 209219, 209689, 210232, 210703, 211148, 211648, 212137, 212707, 213172, 213686, 214173, 214662, 215140, 215644, 216142, 216651, 217123]","[205514, 206013, 206514, 207013, 207513, 208013, 208514, 209013, 209516, 210026, 210509, 211002, 211496, 212005, 212507, 212997, 213508, 214003, 214493, 214976, 215469, 215962, 216498, 216982]",44,R,ITM,1.1,
5,500,practice,0,4,4,4,practice,"['S', 'S', 'S', 'S', 'S', 'S', 'S', 'C', 'C', 'C', 'C', 'C', 'C', 'C', 'C', 'C', 'C', 'C', 'C', 'C', 'C', 'C', 'C']","[222970, 223489, 224036, 224508, 225031, 225529, 226038, 226541, 227020, 227493, 228000, 228428, 228944, 229433, 229970, 230456, 230986, 231468, 231956, 232472, 232963, 233435, 233968]","[223178, 223708, 224237, 224745, 225251, 225755, 226251, 226742, 227218, 227708, 228175, 228634, 229183, 229646, 230184, 230670, 231166, 231695, 232180, 232612, 233077, 233575, 234095]","[222554, 223052, 223552, 224052, 224552, 225052, 225552, 226053, 226567, 227046, 227519, 228027, 228454, 228970, 229458, 229996, 230481, 231012, 231493, 231982, 232498, 232988, 233461, 233995]",44,R,ITM,1.1,
7,500,practice,0,5,5,5,practice,"['S', 'S', 'S', 'S', 'S', 'S', 'S', 'C', 'C', 'C', 'C', 'C', 'C', 'C', 'C', 'C', 'C', 'C', 'C', 'C', 'C', 'C', 'C']","[239821, 240301, 240779, 241286, 241804, 242301, 242807, 243308, 243819, 244324, 244815, 245350, 245830, 246353, 246857, 247400, 247896, 248413, 248920, 249415, 249943, 250420, 250914]","[239997, 240523, 241031, 241518, 242037, 242543, 243034, 243544, 243984, 244538, 245024, 245581, 246105, 246609, 247120, 247623, 248094, 248629, 249140, 249636, 250133, 250618, 251146]","[239323, 239821, 240321, 240821, 241321, 241821, 242321, 242822, 243336, 243847, 244352, 244842, 245378, 245858, 246380, 246884, 247428, 247923, 248440, 248946, 249442, 249969, 250447, 250941]",44,R,ITM,1.1,
7,600,trial,0,6,6,6,trial,"['S', 'S', 'S', 'S', 'S', 'S', 'S', 'S', 'C', 'C', 'C', 'C', 'C', 'C', 'C', 'C', 'C', 'C', 'C', 'C', 'C', 'C', 'C', 'C']","[258595, 258922, 259534, 260190, 260773, 261403, 262039, 262535, 263198, 263835, 264465, 265117, 265766, 266394, 267032, 267653, 268285, 268912, 269571, 270160, 270785, 271452, 272041, 272655]","[258727, 259153, 259832, 260449, 261051, 261642, 262243, 262843, 263416, 264085, 264694, 265400, 266010, 266601, 267242, 267858, 268495, 269052, 269733, 270448, 271088, 271724, 272352]","[258385, 258984, 259585, 260185, 260785, 261384, 261984, 262584, 263226, 263863, 264493, 265145, 265794, 266422, 267059, 267679, 268312, 268940, 269598, 270188, 270812, 271479, 272069, 272681]",44,R,ITM,1.1,
2,600,trial,0,7,7,7,trial,"['S', 'S', 'S', 'S', 'S', 'S', 'S', 'C', 'C', 'C', 'C', 'C', 'C', 'C', 'C', 'C', 'C', 'C', 'C', 'C', 'C', 'C', 'C']","[278813, 279387, 280041, 280636, 281226, 281856, 282423, 283053, 283629, 284183, 284756, 285337, 285937, 286527, 287110, 287687, 288314, 288896, 289482, 290045, 290601, 291162, 291748]","[279036, 279656, 280304, 280871, 281476, 282065, 282669, 283215, 283816, 284406, 284954, 285532, 286147, 286715, 287327, 287879, 288532, 289064, 289714, 290276, 290835, 291463]","[278296, 278896, 279496, 280096, 280696, 281296, 281896, 282497, 283080, 283657, 284210, 284784, 285364, 285965, 286555, 287137, 287715, 288340, 288922, 289509, 290073, 290629, 291189, 291775]",44,R,ITM,1.1,
3,400,trial,0,8,8,8,trial,"['S', 'S', 'S', 'S', 'S', 'S', 'C', 'C', 'C', 'C', 'C', 'C', 'C', 'C', 'C', 'C', 'C', 'C', 'C', 'C', 'C', 'C']","[297690, 298082, 299092, 299482, 299846, 300260, 300650, 301018, 301357, 301706, 302066, 302397, 302750, 303099, 303461, 303805, 304133, 304464, 304816, 305144, 305467, 305815]","[297807, 298240, 299220, 299604, 300004, 300411, 300809, 301172, 301484, 301825, 302184, 302504, 302854, 303210, 303562, 303919, 304254, 304586, 304919, 305247, 305559, 305901]","[297506, 297906, 298306, 298706, 299106, 299506, 299907, 300306, 300676, 301043, 301382, 301731, 302092, 302423, 302776, 303125, 303486, 303831, 304158, 304490, 304841, 305170, 305492, 305841]",44,R,ITM,1.1,
5,600,trial,0,9,9,9,trial,"['S', 'S', 'S', 'S', 'S', 'S', 'S', 'C', 'C', 'C', 'C', 'C', 'C', 'C', 'C', 'C', 'C', 'C', 'C', 'C', 'C', 'C', 'C']","[311605, 312320, 312965, 313603, 314249, 314855, 315455, 316076, 316698, 317292, 317915, 318472, 319083, 319685, 320288, 320933, 321537, 322096, 322719, 323216, 323760, 324324, 324898]","[311814, 312566, 313209, 313885, 314505, 315129, 315744, 316300, 316942, 317519, 318162, 318720, 319312, 319868, 320514, 321041, 321714, 322288, 322887, 323431, 324063, 324579, 325121]","[311247, 311847, 312448, 313048, 313648, 314247, 314847, 315447, 316101, 316725, 317318, 317940, 318497, 319109, 319712, 320314, 320959, 321562, 322122, 322745, 323241, 323786, 324349, 324924]",44,R,ITM,1.1,
4,400,trial,0,10,10,10,trial,"['S', 'S', 'S', 'S', 'S', 'S', 'S', 'C', 'C', 'C', 'C', 'C', 'C', 'C', 'C', 'C', 'C', 'C', 'C', 'C', 'C', 'C', 'C']","[330653, 331042, 331491, 331900, 332310, 332701, 333085, 333508, 333875, 334266, 334639, 335028, 335417, 335811, 336236, 336569, 336968, 337363, 337738, 338124, 338509, 338876, 339275]","[330834, 331190, 331636, 332015, 332436, 332822, 333227, 333634, 334011, 334410, 334763, 335185, 335564, 335949, 336374, 336680, 337091, 337492, 337848, 338241, 338637, 339007, 339365]","[330349, 330749, 331149, 331549, 331950, 332349, 332749, 333149, 333534, 333900, 334292, 334664, 335053, 335443, 335837, 336262, 336595, 336994, 337390, 337764, 338150, 338535, 338902, 339302]",44,R,ITM,1.1,
6,600,trial,0,11,11,11,trial,"['B', 'S', 'S', 'S', 'S', 'S', 'S', 'S', 'C', 'C', 'C', 'C', 'C', 'C', 'C', 'C', 'C', 'C', 'C', 'C', 'C', 'C', 'C', 'C']","[345031, 345426, 346109, 346786, 347387, 347968, 348556, 349132, 349686, 350200, 350684, 351144, 351583, 352023, 352460, 352868, 353281, 353686, 354075, 354469, 354875, 355267, 355658, 356067]","[345197, 345796, 346585, 347181, 347790, 348372, 348908, 349466, 349959, 350444, 350917, 351364, 351790, 352226, 352659, 353021, 353444, 353837, 354236, 354625, 355025, 355391, 355759, 356188]","[345044, 345644, 346244, 346844, 347443, 348043, 348643, 349243, 349713, 350227, 350711, 351171, 351609, 352051, 352487, 352896, 353307, 353713, 354102, 354496, 354902, 355295, 355686, 356093]",44,R,ITM,1.1,
5,600,trial,0,12,12,12,trial,"['S', 'S', 'S', 'S', 'S', 'S', 'S', 'C', 'C', 'C', 'C', 'C', 'C', 'C', 'C', 'C', 'C', 'C', 'C', 'C', 'C', 'C', 'C']","[361934, 362570, 363270, 363854, 364439, 365001, 365600, 366272, 366851, 367434, 368019, 368611, 369231, 369824, 370427, 371011, 371614, 372214, 372828, 373435, 374026, 374604, 375226]","[362125, 362834, 363450, 364118, 364844, 365401, 366009, 366524, 367159, 367769, 368347, 368945, 369521, 370129, 370680, 371220, 371855, 372444, 373021, 373637, 374234, 374885]","[361516, 362115, 362715, 363314, 363914, 364514, 365114, 365714, 366299, 366877, 367461, 368045, 368636, 369257, 369850, 370453, 371037, 371640, 372240, 372853, 373460, 374051, 374630, 375252]",44,R,ITM,1.1,
3,600,trial,0,13,13,13,trial,"['S', 'S', 'S', 'S', 'S', 'S', 'S', 'S', 'C', 'C', 'C', 'C', 'C', 'C', 'C', 'C', 'C', 'C', 'C', 'C', 'C', 'C', 'C', 'C']","[381125, 381433, 382015, 382648, 383228, 383852, 384447, 385037, 385624, 386154, 386699, 387267, 387794, 388356, 388832, 389356, 389917, 390470, 390985, 391536, 392095, 392648, 393092, 393677]","[381223, 381692, 382322, 382923, 383511, 384104, 384713, 385290, 385829, 386433, 387023, 387514, 388060, 388530, 389083, 389666, 390184, 390714, 391241, 391768, 392322, 392779, 393300, 393873]","[380941, 381540, 382140, 382740, 383340, 383940, 384540, 385140, 385649, 386180, 386724, 387293, 387820, 388381, 388857, 389382, 389944, 390496, 391011, 391562, 392121, 392674, 393117, 393703]",44,R,ITM,1.1,
7,400,trial,0,14,14,14,trial,"['S', 'S', 'S', 'S', 'S', 'S', 'S', 'C', 'C', 'C', 'C', 'C', 'C', 'C', 'C', 'C', 'C', 'C', 'C', 'C', 'C', 'C', 'C']","[399800, 400157, 400528, 400897, 401337, 401735, 402141, 402497, 402890, 403278, 403695, 404086, 404457, 404892, 405274, 405702, 406089, 406503, 406896, 407298, 407709, 408121, 408509]","[399955, 400299, 400667, 401071, 401488, 401876, 402254, 402633, 403012, 403426, 403805, 404178, 404583, 405029, 405439, 405825, 406219, 406620, 406977, 407393, 407800, 408227, 408620]","[399357, 399756, 400156, 400557, 400956, 401356, 401757, 402156, 402524, 402918, 403305, 403723, 404113, 404484, 404920, 405302, 405730, 406117, 406530, 406923, 407325, 407736, 408148, 408536]",44,R,ITM,1.1,
7,600,trial,0,15,15,15,trial,"['S', 'S', 'S', 'S', 'S', 'S', 'S', 'C', 'C', 'C', 'C', 'C', 'C', 'C', 'C', 'C', 'C', 'C', 'C', 'C', 'C', 'C', 'C']","[414333, 415052, 415696, 416252, 416851, 417386, 417996, 418557, 419111, 419710, 420250, 420820, 421350, 421892, 422470, 423048, 423639, 424155, 424762, 425339, 425899, 426451, 427026]","[414570, 415261, 415843, 416401, 416969, 417526, 418095, 418673, 419277, 419876, 420444, 420929, 421501, 422045, 422665, 423218, 423774, 424380, 424897, 425539, 426015, 426677, 427225]","[413895, 414494, 415094, 415694, 416294, 416894, 417495, 418095, 418584, 419139, 419736, 420278, 420847, 421377, 421918, 422497, 423074, 423665, 424181, 424790, 425367, 425926, 426479, 427054]",44,R,ITM,1.1,
2,600,trial,0,16,16,16,trial,"['S', 'S', 'S', 'S', 'S', 'S', 'S', 'C', 'C', 'C', 'C', 'C', 'C', 'C', 'C', 'C', 'C', 'C', 'C', 'C', 'C', 'C', 'C']","[432698, 433519, 434166, 434819, 435393, 435991, 436609, 437166, 437713, 438281, 438823, 439406, 439973, 440493, 441061, 441631, 442207, 442763, 443309, 443863, 444455, 445053, 445628]","[432842, 433756, 434400, 435081, 435623, 436218, 436794, 437419, 437998, 438547, 439131, 439662, 440183, 440765, 441320, 441895, 442320, 442920, 443504, 444089, 444682, 445282, 445888]","[432448, 433047, 433648, 434248, 434848, 435448, 436048, 436648, 437193, 437741, 438307, 438851, 439434, 440000, 440519, 441088, 441658, 442233, 442790, 443335, 443890, 444483, 445081, 445655]",44,R,ITM,1.1,
7,400,trial,0,17,17,17,trial,"['S', 'S', 'S', 'S', 'C', 'C', 'C', 'C', 'C', 'C', 'C', 'C', 'C', 'C', 'C', 'C', 'C', 'C', 'C', 'C']","[452804, 453222, 453573, 453979, 454363, 454771, 455192, 455591, 455974, 456395, 456781, 457206, 457603, 457967, 458382, 458788, 459199, 459521, 459938, 460344]","[452942, 453351, 453722, 454128, 454508, 454898, 455337, 455724, 456134, 456535, 456938, 457357, 457761, 458105, 458498, 458902, 459329, 459637, 460053, 460502]","[451204, 451602, 452002, 452403, 452803, 453203, 453603, 454003, 454389, 454798, 455219, 455618, 456001, 456423, 456808, 457233, 457629, 457994, 458409, 458816, 459226, 459547, 459965, 460370]",44,R,ITM,1.1,
5,400,trial,0,18,18,18,trial,"['S', 'S', 'S', 'S', 'S', 'S', 'S', 'C', 'C', 'C', 'C', 'C', 'C', 'C', 'C', 'C', 'C', 'C', 'C', 'C', 'C', 'C', 'C']","[488493, 488883, 489275, 489662, 490058, 490472, 490912, 491312, 491703, 492108, 492465, 492875, 493298, 493704, 494107, 494518, 494941, 495298, 495724, 496124, 496513, 496942, 497340]","[488658, 489018, 489394, 489766, 490166, 490602, 491041, 491449, 491814, 492217, 492599, 493011, 493450, 493854, 494275, 494652, 495050, 495434, 495857, 496229, 496658, 497077, 497474]","[488114, 488512, 488912, 489312, 489712, 490113, 490512, 490912, 491337, 491728, 492134, 492491, 492902, 493324, 493730, 494133, 494544, 494967, 495324, 495750, 496150, 496539, 496967, 497366]",44,R,ITM,1.1,
2,400,trial,0,19,19,19,trial,"['S', 'S', 'S', 'S', 'S', 'S', 'S', 'S', 'C', 'C', 'C', 'C', 'C', 'C', 'C', 'C', 'C', 'C', 'C', 'C', 'C', 'C', 'C', 'C']","[503247, 503588, 503905, 504293, 504670, 505094, 505505, 505911, 506310, 506704, 507105, 507557, 507976, 508371, 508806, 509198, 509594, 510027, 510433, 510887, 511264, 511685, 512090, 512520]","[503374, 503720, 504080, 504484, 504869, 505286, 505682, 506103, 506487, 506864, 507260, 507710, 508127, 508538, 508945, 509332, 509790, 510150, 510584, 510976, 511435, 511826, 512234, 512647]","[503105, 503505, 503905, 504305, 504706, 505105, 505505, 505906, 506337, 506732, 507131, 507584, 508003, 508398, 508832, 509225, 509622, 510055, 510459, 510915, 511291, 511713, 512117, 512546]",44,R,ITM,1.1,
4,600,trial,0,20,20,20,trial,"['S', 'S', 'S', 'S', 'S', 'S', 'S', 'C', 'C', 'C', 'C', 'C', 'C', 'C', 'C', 'C', 'C', 'C', 'C', 'C', 'C', 'C', 'C']","[518705, 519374, 520003, 520572, 521155, 521753, 522455, 522944, 523505, 524084, 524624, 525172, 525736, 526283, 526818, 527386, 527932, 528459, 528980, 529491, 530015, 530560, 531125]","[518935, 519603, 520231, 520794, 521387, 522011, 522635, 523183, 523770, 524354, 524965, 525512, 526068, 526605, 527141, 527706, 528246, 528773, 529318, 529819, 530333, 530892, 531363]","[518196, 518795, 519395, 519995, 520595, 521195, 521795, 522395, 522970, 523531, 524109, 524650, 525198, 525763, 526309, 526843, 527412, 527958, 528486, 529007, 529517, 530040, 530585, 531150]",44,R,ITM,1.1,
4,400,trial,0,21,21,21,trial,"['S', 'S', 'S', 'S', 'S', 'S', 'S', 'C', 'C', 'C', 'C', 'C', 'C', 'C', 'C', 'C', 'C', 'C', 'C', 'C', 'C', 'C', 'C']","[537321, 537638, 538060, 538433, 538835, 539243, 539655, 540073, 540461, 540858, 541243, 541660, 542058, 542469, 542868, 543278, 543657, 544033, 544433, 544835, 545184, 545603, 546023]","[537482, 537810, 538234, 538597, 538987, 539404, 539797, 540189, 540582, 540995, 541371, 541786, 542201, 542601, 543005, 543407, 543790, 544143, 544537, 544941, 545317, 545746, 546158]","[536877, 537276, 537676, 538077, 538477, 538877, 539277, 539677, 540099, 540487, 540883, 541268, 541685, 542085, 542494, 542895, 543303, 543682, 544059, 544458, 544861, 545210, 545629, 546050]",44,R,ITM,1.1,
6,400,trial,0,22,22,22,trial,"['S', 'S', 'S', 'S', 'S', 'S', 'S', 'C', 'C', 'C', 'C', 'C', 'C', 'C', 'C', 'C', 'C', 'C', 'C', 'C', 'C', 'C', 'C']","[551773, 552272, 552709, 553110, 553556, 553956, 554312, 554697, 555105, 555487, 555846, 556217, 556614, 557007, 557399, 557747, 558184, 558575, 558961, 559334, 559737, 560121, 560514]","[552001, 552428, 552856, 553234, 553654, 554068, 554416, 554814, 555209, 555598, 555956, 556349, 556747, 557146, 557529, 557888, 558327, 558716, 559087, 559512, 559893, 560262, 560658]","[551558, 551956, 552356, 552756, 553156, 553556, 553956, 554356, 554724, 555132, 555514, 555873, 556243, 556641, 557034, 557425, 557773, 558211, 558602, 558989, 559361, 559765, 560148, 560541]",44,R,ITM,1.1,
2,400,trial,0,23,23,23,trial,"['S', 'S', 'S', 'S', 'S', 'S', 'S', 'S', 'C', 'C', 'C', 'C', 'C', 'C', 'C', 'C', 'C', 'C', 'C', 'C', 'C', 'C', 'C', 'C']","[566232, 566591, 566937, 567301, 567684, 568105, 568525, 568914, 569316, 569710, 570086, 570485, 570891, 571310, 571679, 572100, 572485, 572943, 573352, 573724, 574127, 574523, 574921, 575342]","[566327, 566707, 567079, 567428, 567852, 568267, 568683, 569051, 569455, 569835, 570237, 570643, 571015, 571445, 571856, 572240, 572664, 573045, 573483, 573851, 574280, 574673, 575066, 575507]","[566137, 566537, 566937, 567336, 567737, 568137, 568538, 568937, 569342, 569738, 570113, 570513, 570918, 571337, 571707, 572128, 572512, 572971, 573380, 573751, 574153, 574550, 574949, 575370]",44,R,ITM,1.1,
3,400,trial,0,24,24,24,trial,"['S', 'S', 'S', 'S', 'S', 'S', 'S', 'C', 'C', 'C', 'C', 'C', 'C', 'C', 'C', 'C', 'C', 'C', 'C', 'C', 'C', 'C', 'C']","[581122, 581611, 582007, 582434, 582849, 583247, 583651, 584058, 584459, 584864, 585265, 585648, 586060, 586446, 586841, 587243, 587636, 588021, 588440, 588848, 589248, 589652, 590061]","[581239, 581757, 582154, 582572, 582985, 583366, 583794, 584209, 584616, 585019, 585384, 585779, 586212, 586597, 586976, 587407, 587785, 588203, 588601, 589002, 589454, 589814, 590191]","[580948, 581347, 581747, 582148, 582547, 582947, 583347, 583747, 584084, 584484, 584890, 585290, 585673, 586086, 586472, 586866, 587269, 587662, 588047, 588466, 588873, 589274, 589678, 590087]",44,R,ITM,1.1,
3,600,trial,0,25,25,25,trial,"['S', 'S', 'S', 'S', 'S', 'S', 'S', 'S', 'C', 'C', 'C', 'C', 'C', 'C', 'C', 'C', 'C', 'C', 'C', 'C', 'C', 'C', 'C', 'C']","[595693, 596012, 596691, 597265, 597864, 598438, 599076, 599733, 600223, 600792, 601357, 601912, 602493, 603085, 603668, 604229, 604765, 605308, 605859, 606408, 606955, 607525, 608094, 608666]","[595804, 596286, 596980, 597578, 598132, 598727, 599378, 599957, 600520, 601082, 601646, 602184, 602752, 603350, 603959, 604477, 605066, 605608, 606170, 606656, 607195, 607781, 608367, 608897]","[595513, 596113, 596713, 597313, 597913, 598513, 599113, 599713, 600249, 600817, 601382, 601937, 602519, 603111, 603694, 604255, 604790, 605334, 605885, 606434, 606982, 607551, 608119, 608692]",44,R,ITM,1.1,
4,600,trial,0,26,26,26,trial,"['S', 'S', 'S', 'S', 'S', 'S', 'S', 'C', 'C', 'C', 'C', 'C', 'C', 'C', 'C', 'C', 'C', 'C', 'C', 'C', 'C', 'C', 'C']","[614610, 615357, 616117, 616712, 617278, 617913, 618505, 619089, 619712, 620248, 620841, 621416, 621997, 622568, 623177, 623726, 624234, 624834, 625425, 626016, 626561, 627120, 627691]","[614753, 615503, 616251, 616878, 617505, 618146, 618723, 619344, 619902, 620479, 621076, 621638, 622233, 622864, 623406, 623986, 624543, 625116, 625708, 626275, 626848, 627388]","[614354, 614955, 615555, 616155, 616754, 617354, 617954, 618554, 619115, 619738, 620273, 620866, 621442, 622023, 622594, 623204, 623753, 624260, 624860, 625451, 626041, 626586, 627145, 627717]",44,R,ITM,1.1,
6,400,trial,0,27,27,27,trial,"['S', 'S', 'S', 'S', 'S', 'S', 'S', 'C', 'C', 'C', 'C', 'C', 'C', 'C', 'C', 'C', 'C', 'C', 'C', 'C', 'C', 'C', 'C']","[633481, 633889, 634333, 634737, 635161, 635567, 635944, 636349, 636754, 637151, 637577, 637966, 638386, 638808, 639233, 639626, 640043, 640460, 640889, 641300, 641730, 642172, 642553]","[633668, 634045, 634511, 634942, 635282, 635686, 636078, 636499, 636904, 637308, 637722, 638082, 638520, 638960, 639371, 639799, 640205, 640618, 641039, 641462, 641874, 642307, 642733]","[633193, 633592, 633992, 634392, 634792, 635192, 635592, 635993, 636376, 636781, 637177, 637604, 637992, 638413, 638834, 639259, 639653, 640069, 640487, 640917, 641327, 641758, 642199, 642581]",44,R,ITM,1.1,
5,400,trial,0,28,28,28,trial,"['S', 'S', 'S', 'S', 'S', 'S', 'S', 'S', 'C', 'C', 'C', 'C', 'C', 'C', 'C', 'C', 'C', 'C', 'C', 'C', 'C', 'C', 'C', 'C']","[648378, 648688, 649010, 649435, 649803, 650226, 650596, 650997, 651399, 651794, 652210, 652593, 652993, 653396, 653789, 654213, 654596, 655021, 655450, 655841, 656252, 656654, 657043, 657469]","[648493, 648833, 649175, 649584, 649991, 650397, 650773, 651175, 651556, 651953, 652355, 652749, 653162, 653588, 653961, 654385, 654786, 655212, 655621, 656049, 656437, 656829, 657168, 657616]","[648225, 648626, 649026, 649426, 649826, 650226, 650627, 651026, 651424, 651820, 652235, 652618, 653019, 653422, 653815, 654238, 654621, 655046, 655476, 655866, 656278, 656679, 657069, 657495]",44,R,ITM,1.1,
6,600,trial,0,29,29,29,trial,"['S', 'S', 'S', 'S', 'S', 'S', 'S', 'C', 'C', 'C', 'C', 'C', 'C', 'C', 'C', 'C', 'C', 'C', 'C', 'C', 'C', 'C', 'C']","[663541, 664298, 664961, 665549, 666161, 666760, 667343, 667923, 668506, 669080, 669624, 670209, 670797, 671367, 671967, 672560, 673125, 673709, 674273, 674862, 675456, 676077, 676687]","[663684, 664478, 665182, 665784, 666411, 667025, 667614, 668201, 668821, 669399, 669968, 670529, 671095, 671634, 672230, 672886, 673451, 674003, 674597, 675180, 675755, 676374]","[663192, 663791, 664391, 664991, 665591, 666191, 666791, 667392, 667950, 668533, 669107, 669650, 670236, 670824, 671393, 671994, 672586, 673152, 673736, 674300, 674888, 675482, 676104, 676715]",44,R,ITM,1.1,
6,400,trial,0,30,30,30,trial,"['S', 'S', 'S', 'S', 'S', 'S', 'S', 'C', 'C', 'C', 'C', 'C', 'C', 'C', 'C', 'C', 'C', 'C', 'C', 'C', 'C', 'C', 'C']","[684105, 684477, 684953, 685371, 685816, 686232, 686652, 687014, 687396, 687813, 688208, 688606, 689035, 689451, 689844, 690240, 690638, 691061, 691471, 691850, 692279, 692724, 693115]","[684254, 684605, 685072, 685528, 685976, 686371, 686764, 687131, 687521, 687944, 688354, 688740, 689134, 689573, 689955, 690373, 690782, 691182, 691587, 691971, 692389, 692815, 693233]","[683893, 684293, 684692, 685092, 685492, 685892, 686292, 686692, 687042, 687424, 687841, 688235, 688632, 689061, 689477, 689870, 690267, 690665, 691088, 691497, 691876, 692305, 692751, 693142]",44,R,ITM,1.1,
7,600,trial,0,31,31,31,trial,"['B', 'S', 'S', 'S', 'S', 'S', 'S', 'S', 'C', 'C', 'C', 'C', 'C', 'C', 'C', 'C', 'C', 'C', 'C', 'C', 'C', 'C', 'C', 'C']","[698575, 698923, 699649, 700390, 700991, 701600, 702213, 702803, 703365, 703956, 704542, 705143, 705756, 706369, 706982, 707558, 708092, 708689, 709253, 709828, 710380, 710981, 711573, 712117]","[698649, 699285, 700066, 700722, 701267, 701880, 702533, 703127, 703702, 704223, 704836, 705465, 705981, 706589, 707269, 707838, 708422, 708990, 709572, 710084, 710696, 711294, 711945]","[698589, 699187, 699787, 700387, 700987, 701587, 702187, 702787, 703392, 703983, 704569, 705171, 705783, 706396, 707010, 707585, 708119, 708716, 709280, 709856, 710408, 711008, 711601, 712143]",44,R,ITM,1.1,
2,400,trial,0,32,32,32,trial,"['S', 'S', 'S', 'S', 'S', 'S', 'S', 'C', 'C', 'C', 'C', 'C', 'C', 'C', 'C', 'C', 'C', 'C', 'C', 'C', 'C', 'C', 'C']","[718177, 718554, 718974, 719357, 719745, 720152, 720573, 720953, 721342, 721741, 722130, 722509, 722927, 723318, 723710, 724089, 724472, 724859, 725257, 725648, 726087, 726456, 726855]","[718341, 718718, 719115, 719488, 719906, 720319, 720723, 721113, 721475, 721863, 722258, 722677, 723068, 723452, 723859, 724254, 724609, 724999, 725359, 725778, 726182, 726568, 726981]","[717794, 718194, 718595, 718994, 719394, 719795, 720194, 720593, 720980, 721370, 721769, 722157, 722537, 722955, 723345, 723737, 724117, 724500, 724886, 725283, 725676, 726115, 726482, 726882]",44,R,ITM,1.1,
6,600,trial,0,33,33,33,trial,"['S', 'S', 'S', 'S', 'S', 'S', 'S', 'C', 'C', 'C', 'C', 'C', 'C', 'C', 'C', 'C', 'C', 'C', 'C', 'C', 'C', 'C', 'C']","[732442, 733211, 733888, 734538, 735180, 735810, 736357, 736946, 737521, 738107, 738706, 739302, 739885, 740458, 741019, 741560, 742169, 742734, 743269, 743842, 744415, 744995, 745594]","[732573, 733449, 734150, 734797, 735302, 736018, 736594, 737188, 737778, 738350, 738983, 739538, 740137, 740750, 741316, 741866, 742462, 743052, 743622, 744180, 744718, 745295]","[732190, 732789, 733389, 733989, 734589, 735190, 735790, 736390, 736973, 737548, 738135, 738733, 739330, 739912, 740486, 741046, 741586, 742196, 742761, 743296, 743869, 744441, 745022, 745622]",44,R,ITM,1.1,
2,600,trial,0,34,34,34,trial,"['S', 'S', 'S', 'S', 'S', 'S', 'S', 'C', 'C', 'C', 'C', 'C', 'C', 'C', 'C', 'C', 'C', 'C', 'C', 'C', 'C', 'C', 'C']","[751554, 752254, 752904, 753494, 754159, 754727, 755354, 755959, 756542, 757133, 757752, 758341, 758929, 759579, 760196, 760781, 761348, 761919, 762509, 763096, 763663, 764244, 764814]","[751692, 752436, 753115, 753759, 754417, 755009, 755625, 756224, 756847, 757450, 758014, 758632, 759252, 759859, 760436, 761000, 761588, 762202, 762786, 763328, 763855, 764485, 765014]","[751184, 751784, 752385, 752985, 753584, 754185, 754785, 755385, 755987, 756570, 757159, 757779, 758369, 758957, 759607, 760223, 760809, 761374, 761947, 762535, 763123, 763691, 764272, 764840]",44,R,ITM,1.1,
5,400,trial,0,35,35,35,trial,"['S', 'S', 'S', 'S', 'S', 'S', 'S', 'C', 'C', 'C', 'C', 'C', 'C', 'C', 'C', 'C', 'C', 'C', 'C', 'C', 'C', 'C', 'C']","[770652, 771066, 771476, 771884, 772295, 772679, 773124, 773495, 773882, 774270, 774668, 775044, 775440, 775820, 776211, 776608, 776988, 777383, 777782, 778146, 778560, 778950, 779314]","[770835, 771245, 771665, 772072, 772525, 772899, 773278, 773624, 773985, 774416, 774782, 775201, 775596, 775960, 776350, 776761, 777163, 777512, 777918, 778314, 778698, 779075, 779503]","[770324, 770723, 771123, 771523, 771923, 772323, 772723, 773124, 773521, 773908, 774295, 774693, 775069, 775465, 775845, 776237, 776634, 777015, 777409, 777807, 778172, 778587, 778976, 779339]",44,R,ITM,1.1,
6,600,trial,0,36,36,36,trial,"['S', 'S', 'S', 'S', 'S', 'S', 'S', 'C', 'C', 'C', 'C', 'C', 'C', 'C', 'C', 'C', 'C', 'C', 'C', 'C', 'C', 'C', 'C']","[785090, 785788, 786417, 787027, 787617, 788263, 788809, 789438, 790007, 790601, 791180, 791769, 792335, 792900, 793458, 794047, 794655, 795256, 795830, 796381, 796978, 797560, 798124]","[785340, 786038, 786728, 787311, 787878, 788524, 789105, 789734, 790329, 790840, 791394, 791994, 792579, 793229, 793803, 794383, 794978, 795501, 796081, 796706, 797266, 797818, 798390]","[784686, 785286, 785886, 786486, 787086, 787686, 788286, 788886, 789466, 790035, 790628, 791206, 791795, 792363, 792927, 793485, 794074, 794683, 795284, 795856, 796407, 797004, 797587, 798151]",44,R,ITM,1.1,
4,400,trial,0,37,37,37,trial,"['S', 'S', 'S', 'S', 'S', 'S', 'S', 'C', 'C', 'C', 'C', 'C', 'C', 'C', 'C', 'C', 'C', 'C', 'C', 'C', 'C', 'C', 'C']","[804042, 804402, 804878, 805297, 805753, 806206, 806602, 807022, 807380, 807744, 808086, 808460, 808852, 809237, 809602, 809971, 810345, 810722, 811109, 811465, 811831, 812213, 812542]","[804159, 804506, 804998, 805444, 805877, 806332, 806754, 807150, 807500, 807869, 808213, 808598, 808975, 809354, 809733, 810105, 810468, 810838, 811206, 811585, 811945, 812341, 812672]","[803853, 804252, 804653, 805052, 805452, 805853, 806253, 806653, 807048, 807406, 807770, 808112, 808485, 808878, 809263, 809627, 809997, 810371, 810747, 811134, 811491, 811856, 812238, 812568]",44,R,ITM,1.1,
6,400,trial,0,38,38,38,trial,"['S', 'S', 'S', 'S', 'S', 'S', 'S', 'C', 'C', 'C', 'C', 'C', 'C', 'C', 'C', 'C', 'C', 'C', 'C', 'C', 'C', 'C', 'C']","[818428, 818844, 819348, 819758, 820184, 820574, 820971, 821372, 821756, 822153, 822537, 822910, 823303, 823696, 824051, 824423, 824844, 825219, 825606, 825985, 826362, 826756, 827162]","[818519, 819006, 819494, 819895, 820315, 820723, 821136, 821529, 821931, 822326, 822673, 823063, 823431, 823800, 824186, 824564, 824965, 825363, 825704, 826094, 826497, 826870, 827267]","[818223, 818622, 819022, 819422, 819822, 820222, 820622, 821022, 821399, 821784, 822179, 822563, 822938, 823329, 823724, 824078, 824450, 824871, 825245, 825633, 826012, 826389, 826782, 827190]",44,R,ITM,1.1,
7,400,trial,0,39,39,39,trial,"['S', 'S', 'S', 'S', 'S', 'S', 'S', 'C', 'C', 'C', 'C', 'C', 'C', 'C', 'C', 'C', 'C', 'C', 'C', 'C', 'C', 'C', 'C']","[833060, 833453, 833971, 834404, 834855, 835239, 835645, 836030, 836420, 836794, 837200, 837606, 837986, 838380, 838775, 839185, 839565, 839979, 840406, 840782, 841181, 841626, 842072]","[833170, 833605, 834123, 834577, 835021, 835448, 835855, 836232, 836608, 837000, 837382, 837796, 838131, 838524, 838924, 839348, 839749, 840085, 840522, 840947, 841365, 841756, 842172]","[832890, 833289, 833689, 834089, 834489, 834889, 835290, 835689, 836057, 836447, 836820, 837227, 837633, 838012, 838407, 838803, 839212, 839592, 840006, 840433, 840809, 841208, 841653, 842098]",44,R,ITM,1.1,
3,400,trial,0,40,40,40,trial,"['S', 'S', 'S', 'S', 'S', 'S', 'S', 'C', 'C', 'C', 'C', 'C', 'C', 'C', 'C', 'C', 'C', 'C', 'C', 'C', 'C', 'C', 'C']","[848023, 848547, 848944, 849426, 849850, 850241, 850651, 850991, 851408, 851795, 852192, 852581, 852959, 853373, 853807, 854174, 854565, 854955, 855330, 855694, 856078, 856459, 856828]","[848112, 848651, 849078, 849571, 849976, 850380, 850775, 851144, 851565, 851977, 852339, 852709, 853112, 853507, 853918, 854305, 854697, 855088, 855442, 855812, 856178, 856566, 856951]","[847850, 848250, 848650, 849050, 849451, 849850, 850250, 850651, 851016, 851434, 851821, 852217, 852606, 852984, 853399, 853832, 854200, 854591, 854981, 855356, 855719, 856103, 856484, 856854]",44,R,ITM,1.1,
7,400,trial,0,41,41,41,trial,"['S', 'S', 'S', 'S', 'S', 'S', 'S', 'C', 'C', 'C', 'C', 'C', 'C', 'C', 'C', 'C', 'C', 'C', 'C', 'C', 'C', 'C', 'C']","[862581, 863050, 863473, 863928, 864313, 864755, 865108, 865517, 865921, 866322, 866714, 867118, 867507, 867919, 868312, 868703, 869103, 869534, 869934, 870316, 870713, 871129, 871510]","[862673, 863180, 863612, 864044, 864453, 864866, 865243, 865661, 866058, 866466, 866860, 867269, 867663, 868064, 868453, 868855, 869240, 869667, 870057, 870477, 870854, 871247, 871626]","[862356, 862755, 863155, 863555, 863955, 864355, 864755, 865156, 865545, 865947, 866349, 866741, 867144, 867534, 867946, 868338, 868729, 869131, 869562, 869960, 870343, 870740, 871156, 871537]",44,R,ITM,1.1,
4,600,trial,0,42,42,42,trial,"['S', 'S', 'S', 'S', 'S', 'S', 'S', 'C', 'C', 'C', 'C', 'C', 'C', 'C', 'C', 'C', 'C', 'C', 'C', 'C', 'C', 'C', 'C']","[882094, 882715, 883362, 883960, 884575, 885181, 885777, 886366, 886892, 887431, 887965, 888488, 889000, 889502, 890046, 890576, 891101, 891603, 892174, 892733, 893251, 893734, 894246]","[882291, 882994, 883627, 884234, 884856, 885462, 886043, 886626, 887155, 887687, 888208, 888736, 889254, 889828, 890364, 890864, 891398, 891954, 892527, 893103, 893557, 894076]","[881650, 882249, 882849, 883449, 884049, 884649, 885250, 885850, 886391, 886918, 887457, 887992, 888514, 889026, 889529, 890072, 890602, 891126, 891629, 892199, 892759, 893277, 893761, 894272]",44,R,ITM,1.1,
4,600,trial,0,43,43,43,trial,"['S', 'S', 'S', 'S', 'S', 'S', 'S', 'C', 'C', 'C', 'C', 'C', 'C', 'C', 'C', 'C', 'C', 'C', 'C', 'C', 'C', 'C', 'C']","[899827, 900600, 901316, 901885, 902512, 903126, 903761, 904333, 904907, 905454, 906030, 906574, 907130, 907715, 908297, 908870, 909466, 909977, 910535, 911090, 911656, 912210, 912775]","[899921, 900745, 901427, 902104, 902729, 903361, 903918, 904489, 905159, 905735, 906307, 906940, 907480, 908046, 908588, 909171, 909774, 910319, 910843, 911459, 911983, 912582]","[899597, 900197, 900797, 901397, 901997, 902597, 903197, 903797, 904358, 904934, 905480, 906055, 906600, 907156, 907741, 908322, 908896, 909492, 910004, 910561, 911116, 911682, 912237, 912801]",44,R,ITM,1.1,
7,600,trial,0,44,44,44,trial,"['S', 'S', 'S', 'S', 'S', 'S', 'S', 'S', 'C', 'C', 'C', 'C', 'C', 'C', 'C', 'C', 'C', 'C', 'C', 'C', 'C', 'C', 'C', 'C']","[918730, 919057, 919718, 920372, 921014, 921572, 922181, 922807, 923365, 923943, 924481, 925079, 925637, 926199, 926759, 927332, 927858, 928413, 928975, 929538, 930116, 930658, 931209, 931771]","[918820, 919413, 920100, 920721, 921291, 921889, 922478, 923001, 923550, 924169, 924744, 925306, 925847, 926416, 927051, 927441, 928124, 928706, 929233, 929794, 930345, 930922, 931505]","[918592, 919191, 919791, 920391, 920991, 921591, 922191, 922791, 923392, 923970, 924508, 925106, 925665, 926227, 926787, 927360, 927885, 928440, 929002, 929564, 930143, 930685, 931235, 931799]",44,R,ITM,1.1,
5,400,trial,0,45,45,45,trial,"['S', 'S', 'S', 'S', 'S', 'S', 'S', 'S', 'C', 'C', 'C', 'C', 'C', 'C', 'C', 'C', 'C', 'C', 'C', 'C', 'C', 'C', 'C', 'C']","[937518, 937886, 938175, 938535, 938886, 939280, 939695, 940095, 940526, 940903, 941279, 941667, 942041, 942413, 942817, 943199, 943574, 943980, 944344, 944764, 945127, 945513, 945905, 946282]","[937634, 937992, 938322, 938657, 939025, 939422, 939845, 940244, 940658, 941060, 941456, 941834, 942206, 942551, 942955, 943313, 943728, 944116, 944492, 944899, 945312, 945665, 946066, 946417]","[937354, 937754, 938155, 938554, 938954, 939355, 939754, 940154, 940552, 940929, 941304, 941692, 942066, 942439, 942842, 943225, 943599, 944006, 944369, 944790, 945153, 945539, 945931, 946309]",44,R,ITM,1.1,
3,600,trial,0,46,46,46,trial,"['S', 'S', 'S', 'S', 'S', 'S', 'S', 'C', 'C', 'C', 'C', 'C', 'C', 'C', 'C', 'C', 'C', 'C', 'C', 'C', 'C', 'C', 'C']","[951985, 952804, 953399, 954049, 954657, 955247, 955855, 956455, 957005, 957555, 958117, 958676, 959224, 959725, 960284, 960811, 961329, 961837, 962368, 962879, 963405, 963933, 964476]","[952142, 952987, 953665, 954331, 954947, 955556, 956141, 956709, 957285, 957825, 958364, 958883, 959455, 959948, 960492, 960998, 961557, 962099, 962623, 963124, 963638, 964196]","[951729, 952328, 952928, 953528, 954128, 954728, 955328, 955928, 956481, 957031, 957581, 958143, 958702, 959250, 959751, 960310, 960836, 961354, 961862, 962394, 962905, 963431, 963958, 964502]",44,R,ITM,1.1,
5,600,trial,0,47,47,47,trial,"['B', 'S', 'S', 'S', 'S', 'S', 'S', 'S', 'C', 'C', 'C', 'C', 'C', 'C', 'C', 'C', 'C', 'C', 'C', 'C', 'C', 'C', 'C', 'C']","[970183, 970647, 971271, 971899, 972513, 973120, 973709, 974331, 974905, 975462, 976054, 976600, 977159, 977712, 978272, 978837, 979399, 979935, 980500, 981038, 981593, 982172, 982743, 983257]","[970398, 971022, 971661, 972258, 972922, 973515, 974084, 974694, 975275, 975862, 976377, 976891, 977436, 977901, 978499, 979084, 979653, 980242, 980809, 981354, 981922, 982462, 983031]","[970195, 970795, 971395, 971995, 972594, 973194, 973794, 974394, 974930, 975489, 976080, 976626, 977184, 977737, 978297, 978863, 979426, 979961, 980526, 981063, 981618, 982198, 982768, 983282]",44,R,ITM,1.1,
5,600,trial,0,48,48,48,trial,"['S', 'S', 'S', 'S', 'S', 'S', 'S', 'S', 'C', 'C', 'C', 'C', 'C', 'C', 'C', 'C', 'C', 'C', 'C', 'C', 'C', 'C', 'C', 'C']","[988994, 989362, 989897, 990521, 991126, 991680, 992270, 992913, 993498, 994016, 994543, 995031, 995558, 996025, 996525, 997059, 997536, 998056, 998504, 999012, 999447, 999993, 1000523, 1001076]","[989135, 989630, 990192, 990825, 991409, 991970, 992587, 993248, 993815, 994304, 994845, 995324, 995859, 996326, 996832, 997321, 997804, 998281, 998756, 999242, 999711, 1000286, 1000814]","[988796, 989395, 989996, 990596, 991196, 991795, 992395, 992995, 993523, 994041, 994570, 995056, 995584, 996050, 996551, 997086, 997562, 998082, 998531, 999038, 999473, 1000019, 1000549, 1001102]",44,R,ITM,1.1,
2,400,trial,0,49,49,49,trial,"['S', 'S', 'S', 'S', 'S', 'S', 'S', 'C', 'C', 'C', 'C', 'C', 'C', 'C', 'C', 'C', 'C', 'C', 'C', 'C', 'C', 'C', 'C', 'C', 'C']","[1006788, 1007193, 1007580, 1008011, 1008448, 1008815, 1009197, 1009567, 1009808, 1010524, 1010631, 1010945, 1011305, 1011663, 1012082, 1012454, 1012862, 1013255, 1013640, 1014036, 1014447, 1014864, 1015266, 1015688, 1016036]","[1007025, 1007375, 1007805, 1008259, 1008599, 1008937, 1009277, 1009688, 1009899, 1010551, 1010741, 1011063, 1011419, 1011771, 1012214, 1012602, 1013007, 1013393, 1013822, 1014198, 1014593, 1015036, 1015412, 1015838, 1016185]","[1006465, 1006863, 1007264, 1007665, 1008064, 1008464, 1008864, 1009264, 1009594, 1010551, 1010972, 1011332, 1011691, 1012109, 1012481, 1012890, 1013281, 1013667, 1014064, 1014474, 1014892, 1015293, 1015715, 1016064]",44,R,ITM,1.1,
4,400,trial,0,50,50,50,trial,"['S', 'S', 'S', 'S', 'S', 'S', 'S', 'C', 'C', 'C', 'C', 'C', 'C', 'C', 'C', 'C', 'C', 'C', 'C', 'C', 'C', 'C', 'C']","[1022110, 1022486, 1022874, 1023256, 1023648, 1024037, 1024442, 1024823, 1025220, 1025606, 1026021, 1026447, 1026843, 1027268, 1027653, 1028045, 1028466, 1028848, 1029228, 1029636, 1030032, 1030422, 1030837]","[1022249, 1022638, 1023008, 1023396, 1023787, 1024193, 1024586, 1024973, 1025375, 1025772, 1026189, 1026616, 1027031, 1027412, 1027789, 1028176, 1028575, 1028957, 1029377, 1029767, 1030178, 1030574, 1030968]","[1021675, 1022074, 1022474, 1022874, 1023275, 1023674, 1024074, 1024475, 1024848, 1025246, 1025633, 1026046, 1026472, 1026869, 1027294, 1027679, 1028071, 1028492, 1028874, 1029255, 1029661, 1030057, 1030448, 1030862]",44,R,ITM,1.1,
3,600,trial,0,51,51,51,trial,"['S', 'S', 'S', 'S', 'S', 'S', 'S', 'S', 'C', 'C', 'C', 'C', 'C', 'C', 'C', 'C', 'C', 'C', 'C', 'C', 'C', 'C', 'C', 'C']","[1036395, 1036674, 1037342, 1037941, 1038546, 1039158, 1039749, 1040360, 1040974, 1041538, 1042087, 1042638, 1043211, 1043749, 1044310, 1044886, 1045445, 1045998, 1046534, 1047068, 1047605, 1048144, 1048709, 1049235]","[1036530, 1037042, 1037662, 1038249, 1038873, 1039472, 1040016, 1040653, 1041293, 1041861, 1042429, 1042980, 1043612, 1044110, 1044651, 1045171, 1045701, 1046329, 1046854, 1047394, 1047877, 1048497, 1049061]","[1036226, 1036826, 1037426, 1038026, 1038626, 1039226, 1039826, 1040427, 1041000, 1041563, 1042113, 1042664, 1043236, 1043775, 1044335, 1044913, 1045471, 1046024, 1046559, 1047094, 1047630, 1048170, 1048734, 1049261]",44,R,ITM,1.1,
3,400,trial,0,52,52,52,trial,"['B', 'S', 'S', 'S', 'S', 'S', 'S', 'S', 'C', 'C', 'C', 'C', 'C', 'C', 'C', 'C', 'C', 'C', 'C', 'C', 'C', 'C', 'C', 'C']","[1054876, 1055376, 1055673, 1056045, 1056422, 1056856, 1057261, 1057655, 1058046, 1058442, 1058836, 1059232, 1059617, 1060007, 1060402, 1060811, 1061174, 1061567, 1061957, 1062334, 1062739, 1063137, 1063525, 1063916]","[1055110, 1055527, 1055828, 1056179, 1056577, 1057006, 1057416, 1057774, 1058177, 1058563, 1058937, 1059340, 1059744, 1060142, 1060524, 1060916, 1061295, 1061686, 1062078, 1062454, 1062859, 1063252, 1063646, 1064025]","[1054887, 1055287, 1055687, 1056088, 1056487, 1056887, 1057287, 1057687, 1058071, 1058467, 1058862, 1059258, 1059643, 1060033, 1060427, 1060837, 1061199, 1061593, 1061983, 1062360, 1062765, 1063162, 1063550, 1063942]",44,R,ITM,1.1,
2,600,trial,0,53,53,53,trial,"['S', 'S', 'S', 'S', 'S', 'S', 'S', 'S', 'C', 'C', 'C', 'C', 'C', 'C', 'C', 'C', 'C', 'C', 'C', 'C', 'C', 'C', 'C', 'C']","[1069717, 1070042, 1070653, 1071262, 1071862, 1072485, 1073086, 1073687, 1074265, 1074833, 1075369, 1075942, 1076502, 1077074, 1077627, 1078256, 1078816, 1079378, 1079929, 1080459, 1080996, 1081559, 1082096, 1082627]","[1069814, 1070379, 1071015, 1071605, 1072193, 1072832, 1073388, 1073981, 1074615, 1075162, 1075685, 1076233, 1076799, 1077380, 1077916, 1078493, 1079111, 1079616, 1080164, 1080719, 1081284, 1081811, 1082305, 1082826]","[1069542, 1070142, 1070741, 1071342, 1071942, 1072542, 1073142, 1073742, 1074292, 1074860, 1075395, 1075969, 1076529, 1077102, 1077655, 1078283, 1078843, 1079406, 1079956, 1080485, 1081023, 1081586, 1082124, 1082653]",44,R,ITM,1.1,
6,600,trial,0,54,54,54,trial,"['B', 'S', 'S', 'S', 'S', 'S', 'S', 'S', 'C', 'C', 'C', 'C', 'C', 'C', 'C', 'C', 'C', 'C', 'C', 'C', 'C', 'C', 'C', 'C']","[1111883, 1112346, 1113060, 1113618, 1114262, 1114816, 1115407, 1116032, 1116589, 1117129, 1117678, 1118222, 1118767, 1119273, 1119807, 1120324, 1120881, 1121396, 1121861, 1122396, 1122890, 1123392, 1123885, 1124367]","[1112071, 1112704, 1113348, 1114032, 1114592, 1115159, 1115762, 1116341, 1116933, 1117450, 1117969, 1118511, 1119066, 1119574, 1120089, 1120615, 1121048, 1121602, 1122132, 1122655, 1123129, 1123594, 1124156, 1124581]","[1111896, 1112496, 1113096, 1113696, 1114296, 1114896, 1115496, 1116096, 1116615, 1117156, 1117705, 1118248, 1118793, 1119299, 1119834, 1120351, 1120908, 1121424, 1121888, 1122422, 1122917, 1123419, 1123911, 1124395]",44,R,ITM,1.1,
4,600,trial,0,55,55,55,trial,"['S', 'S', 'S', 'S', 'S', 'S', 'S', 'S', 'C', 'C', 'C', 'C', 'C', 'C', 'C', 'C', 'C', 'C', 'C', 'C', 'C', 'C', 'C', 'C']","[1130349, 1130729, 1131259, 1131872, 1132540, 1133100, 1133702, 1134297, 1134858, 1135361, 1135861, 1136334, 1136842, 1137363, 1137850, 1138339, 1138828, 1139317, 1139785, 1140254, 1140723, 1141206, 1141675, 1142152]","[1130489, 1130985, 1131525, 1132216, 1132824, 1133404, 1133985, 1134564, 1135106, 1135621, 1136098, 1136570, 1137101, 1137561, 1138103, 1138629, 1139057, 1139569, 1140043, 1140438, 1141003, 1141484, 1141913, 1142333]","[1130190, 1130789, 1131389, 1131990, 1132590, 1133190, 1133789, 1134389, 1134883, 1135386, 1135887, 1136360, 1136868, 1137389, 1137875, 1138366, 1138853, 1139343, 1139811, 1140280, 1140749, 1141231, 1141700, 1142177]",44,R,ITM,1.1,
7,600,trial,0,56,56,56,trial,"['S', 'S', 'S', 'S', 'S', 'S', 'S', 'C', 'C', 'C', 'C', 'C', 'C', 'C', 'C', 'C', 'C', 'C', 'C', 'C', 'C', 'C', 'C']","[1148067, 1148855, 1149478, 1150116, 1150752, 1151322, 1151953, 1152527, 1153108, 1153673, 1154266, 1154797, 1155375, 1155946, 1156540, 1157109, 1157671, 1158219, 1158780, 1159336, 1159901, 1160463, 1161057]","[1148359, 1149177, 1149799, 1150419, 1151003, 1151618, 1152212, 1152795, 1153363, 1153932, 1154485, 1155098, 1155655, 1156221, 1156801, 1157381, 1157949, 1158458, 1159031, 1159649, 1160179, 1160791]","[1147770, 1148369, 1148969, 1149570, 1150170, 1150770, 1151369, 1151969, 1152553, 1153135, 1153699, 1154292, 1154824, 1155401, 1155973, 1156568, 1157136, 1157699, 1158247, 1158808, 1159363, 1159928, 1160491, 1161083]",44,R,ITM,1.1,
7,600,trial,0,57,57,57,trial,"['S', 'S', 'S', 'S', 'S', 'S', 'S', 'S', 'C', 'C', 'C', 'C', 'C', 'C', 'C', 'C', 'C', 'C', 'C', 'C', 'C', 'C', 'C', 'C']","[1166594, 1166932, 1167510, 1168162, 1168736, 1169336, 1169898, 1170521, 1171115, 1171634, 1172151, 1172686, 1173208, 1173720, 1174265, 1174788, 1175330, 1175831, 1176370, 1176881, 1177395, 1177906, 1178436, 1178968]","[1166765, 1167293, 1167943, 1168518, 1169105, 1169701, 1170317, 1170882, 1171456, 1171975, 1172506, 1173026, 1173547, 1174110, 1174541, 1175090, 1175631, 1176151, 1176695, 1177227, 1177748, 1178210, 1178682]","[1166418, 1167019, 1167619, 1168219, 1168819, 1169419, 1170019, 1170619, 1171142, 1171661, 1172178, 1172713, 1173235, 1173747, 1174292, 1174815, 1175358, 1175858, 1176397, 1176907, 1177422, 1177933, 1178464, 1178994]",44,R,ITM,1.1,
5,400,trial,0,58,58,58,trial,"['S', 'S', 'S', 'S', 'S', 'S', 'S', 'C', 'C', 'C', 'C', 'C', 'C', 'C', 'C', 'C', 'C', 'C', 'C', 'C', 'C', 'C', 'C']","[1184594, 1185051, 1185471, 1185922, 1186319, 1186679, 1187090, 1187480, 1187864, 1188254, 1188647, 1189038, 1189444, 1189834, 1190210, 1190576, 1190978, 1191371, 1191769, 1192130, 1192526, 1192907, 1193298]","[1184791, 1185234, 1185664, 1186123, 1186485, 1186820, 1187204, 1187639, 1188011, 1188402, 1188783, 1189209, 1189583, 1189954, 1190382, 1190806, 1191194, 1191553, 1191901, 1192320, 1192713, 1193084, 1193455]","[1184339, 1184738, 1185138, 1185539, 1185938, 1186338, 1186738, 1187138, 1187506, 1187891, 1188280, 1188673, 1189064, 1189470, 1189860, 1190236, 1190601, 1191005, 1191397, 1191795, 1192156, 1192552, 1192933, 1193325]",44,R,ITM,1.1,
6,400,trial,0,59,59,59,trial,"['S', 'S', 'S', 'S', 'S', 'S', 'S', 'S', 'C', 'C', 'C', 'C', 'C', 'C', 'C', 'C', 'C', 'C', 'C', 'C', 'C', 'C', 'C', 'C']","[1198959, 1199319, 1199605, 1199993, 1200381, 1200773, 1201173, 1201530, 1201927, 1202325, 1202719, 1203120, 1203525, 1203916, 1204324, 1204738, 1205105, 1205509, 1205896, 1206327, 1206681, 1207073, 1207501, 1207907]","[1199098, 1199458, 1199770, 1200164, 1200572, 1200924, 1201311, 1201664, 1202089, 1202472, 1202914, 1203275, 1203697, 1204103, 1204491, 1204882, 1205279, 1205664, 1206047, 1206444, 1206878, 1207199, 1207631, 1208039]","[1198793, 1199194, 1199593, 1199993, 1200393, 1200793, 1201193, 1201593, 1201953, 1202353, 1202746, 1203147, 1203553, 1203943, 1204350, 1204765, 1205133, 1205535, 1205922, 1206353, 1206708, 1207101, 1207528, 1207933]",44,R,ITM,1.1,
6,600,trial,0,60,60,60,trial,"['S', 'S', 'S', 'S', 'S', 'S', 'S', 'S', 'C', 'C', 'C', 'C', 'C', 'C', 'C', 'C', 'C', 'C', 'C', 'C', 'C', 'C', 'C', 'C']","[1213851, 1214128, 1214787, 1215432, 1216020, 1216625, 1217178, 1217771, 1218368, 1218911, 1219459, 1220018, 1220544, 1221099, 1221656, 1222190, 1222751, 1223310, 1223847, 1224371, 1224949, 1225488, 1226038, 1226629]","[1213962, 1214522, 1215205, 1215776, 1216378, 1216984, 1217557, 1218167, 1218709, 1219258, 1219800, 1220356, 1220895, 1221432, 1222028, 1222567, 1223065, 1223588, 1224162, 1224745, 1225271, 1225807, 1226360, 1226891]","[1213678, 1214277, 1214877, 1215477, 1216077, 1216677, 1217277, 1217878, 1218395, 1218937, 1219485, 1220044, 1220571, 1221127, 1221683, 1222216, 1222777, 1223336, 1223874, 1224398, 1224976, 1225516, 1226065, 1226655]",44,R,ITM,1.1,
2,400,trial,0,61,61,61,trial,"['S', 'S', 'S', 'S', 'S', 'S', 'S', 'C', 'C', 'C', 'C', 'C', 'C', 'C', 'C', 'C', 'C', 'C', 'C', 'C', 'C', 'C', 'C']","[1232698, 1233065, 1233423, 1233845, 1234266, 1234643, 1235040, 1235441, 1235827, 1236230, 1236634, 1237042, 1237428, 1237823, 1238221, 1238587, 1238993, 1239411, 1239783, 1240206, 1240598, 1241004, 1241394]","[1232851, 1233228, 1233628, 1234024, 1234434, 1234822, 1235210, 1235618, 1236014, 1236432, 1236783, 1237187, 1237587, 1237961, 1238366, 1238765, 1239174, 1239554, 1239965, 1240367, 1240754, 1241162, 1241543]","[1232265, 1232665, 1233065, 1233464, 1233865, 1234265, 1234665, 1235065, 1235469, 1235855, 1236256, 1236662, 1237069, 1237455, 1237850, 1238249, 1238614, 1239020, 1239438, 1239810, 1240232, 1240626, 1241030, 1241420]",44,R,ITM,1.1,
2,600,trial,0,62,62,62,trial,"['S', 'S', 'S', 'S', 'S', 'S', 'S', 'C', 'C', 'C', 'C', 'C', 'C', 'C', 'C', 'C', 'C', 'C', 'C', 'C', 'C', 'C', 'C']","[1247544, 1248266, 1248891, 1249521, 1250081, 1250691, 1251332, 1251843, 1252374, 1252952, 1253514, 1254054, 1254609, 1255142, 1255707, 1256227, 1256795, 1257347, 1257920, 1258449, 1259027, 1259603, 1260113]","[1247892, 1248547, 1249173, 1249778, 1250366, 1250945, 1251537, 1252102, 1252686, 1253225, 1253791, 1254348, 1254927, 1255479, 1256039, 1256595, 1257106, 1257678, 1258244, 1258792, 1259308, 1259845]","[1247121, 1247721, 1248320, 1248921, 1249521, 1250121, 1250721, 1251321, 1251869, 1252402, 1252978, 1253540, 1254082, 1254637, 1255170, 1255735, 1256255, 1256821, 1257374, 1257947, 1258477, 1259055, 1259631, 1260141]",44,R,ITM,1.1,
4,400,trial,0,63,63,63,trial,"['S', 'S', 'S', 'S', 'S', 'S', 'S', 'C', 'C', 'C', 'C', 'C', 'C', 'C', 'C', 'C', 'C', 'C', 'C', 'C', 'C', 'C', 'C']","[1266182, 1266554, 1266930, 1267356, 1267744, 1268133, 1268535, 1268947, 1269310, 1269731, 1270145, 1270535, 1270956, 1271344, 1271741, 1272152, 1272532, 1272931, 1273317, 1273750, 1274182, 1274558, 1274949]","[1266339, 1266710, 1267117, 1267505, 1267904, 1268276, 1268702, 1269102, 1269507, 1269893, 1270310, 1270685, 1271092, 1271510, 1271875, 1272295, 1272699, 1273103, 1273487, 1273868, 1274313, 1274694, 1275077]","[1265774, 1266173, 1266573, 1266973, 1267374, 1267773, 1268173, 1268573, 1268974, 1269337, 1269756, 1270170, 1270560, 1270981, 1271369, 1271767, 1272177, 1272558, 1272956, 1273342, 1273776, 1274208, 1274584, 1274975]",44,R,ITM,1.1,
4,600,trial,0,64,64,64,trial,"['S', 'S', 'S', 'S', 'S', 'S', 'S', 'S', 'C', 'C', 'C', 'C', 'C', 'C', 'C', 'C', 'C', 'C', 'C', 'C', 'C', 'C', 'C', 'C']","[1280835, 1281412, 1281817, 1282365, 1282989, 1283627, 1284252, 1284835, 1285389, 1285976, 1286545, 1287137, 1287699, 1288293, 1288872, 1289458, 1290051, 1290640, 1291181, 1291738, 1292326, 1292908, 1293485, 1294098]","[1280966, 1281580, 1282138, 1282754, 1283330, 1283909, 1284508, 1285101, 1285644, 1286247, 1286838, 1287369, 1287947, 1288555, 1289133, 1289711, 1290302, 1290875, 1291489, 1292065, 1292645, 1293214, 1293815, 1294340]","[1280649, 1281248, 1281848, 1282448, 1283048, 1283648, 1284248, 1284848, 1285414, 1286001, 1286571, 1287162, 1287726, 1288318, 1288898, 1289484, 1290078, 1290665, 1291206, 1291763, 1292352, 1292934, 1293511, 1294124]",44,R,ITM,1.1,
3,600,trial,0,65,65,65,trial,"['S', 'S', 'S', 'S', 'S', 'S', 'S', 'C', 'C', 'C', 'C', 'C', 'C', 'C', 'C', 'C', 'C', 'C', 'C', 'C', 'C', 'C', 'C']","[1300069, 1300761, 1301394, 1302059, 1302669, 1303264, 1303890, 1304466, 1305058, 1305606, 1306149, 1306694, 1307258, 1307830, 1308370, 1308917, 1309449, 1309982, 1310557, 1311079, 1311629, 1312155, 1312686]","[1300299, 1301020, 1301728, 1302387, 1303035, 1303639, 1304199, 1304754, 1305316, 1305880, 1306425, 1306972, 1307517, 1308127, 1308601, 1309175, 1309673, 1310256, 1310811, 1311344, 1311864, 1312408]","[1299712, 1300311, 1300911, 1301511, 1302111, 1302711, 1303311, 1303911, 1304492, 1305083, 1305631, 1306175, 1306720, 1307284, 1307855, 1308396, 1308943, 1309474, 1310008, 1310582, 1311105, 1311654, 1312181, 1312711]",44,R,ITM,1.1,
7,400,trial,0,66,66,66,trial,"['S', 'S', 'S', 'S', 'S', 'S', 'S', 'C', 'C', 'C', 'C', 'C', 'C', 'C', 'C', 'C', 'C', 'C', 'C', 'C', 'C', 'C', 'C']","[1318401, 1318923, 1319354, 1319768, 1320200, 1320597, 1320997, 1321372, 1321797, 1322195, 1322591, 1323008, 1323424, 1323825, 1324224, 1324619, 1325051, 1325473, 1325904, 1326269, 1326685, 1327067, 1327504]","[1318582, 1319073, 1319502, 1319927, 1320350, 1320737, 1321115, 1321524, 1321943, 1322336, 1322716, 1323151, 1323565, 1323959, 1324388, 1324758, 1325191, 1325606, 1326011, 1326403, 1326799, 1327199, 1327606]","[1318198, 1318597, 1318998, 1319397, 1319797, 1320198, 1320597, 1320997, 1321400, 1321824, 1322223, 1322618, 1323034, 1323452, 1323852, 1324251, 1324646, 1325078, 1325500, 1325931, 1326296, 1326712, 1327093, 1327531]",44,R,ITM,1.1,
3,400,trial,0,67,67,67,trial,"['S', 'S', 'S', 'S', 'S', 'S', 'S', 'S', 'C', 'C', 'C', 'C', 'C', 'C', 'C', 'C', 'C', 'C', 'C', 'C', 'C', 'C', 'C', 'C']","[1333023, 1333317, 1333668, 1334034, 1334437, 1334840, 1335249, 1335628, 1336001, 1336394, 1336784, 1337152, 1337552, 1337952, 1338328, 1338741, 1339143, 1339543, 1339918, 1340318, 1340708, 1341080, 1341473, 1341844]","[1333161, 1333467, 1333807, 1334209, 1334651, 1335033, 1335444, 1335804, 1336226, 1336612, 1336962, 1337344, 1337786, 1338141, 1338560, 1338937, 1339341, 1339707, 1340098, 1340459, 1340863, 1341222, 1341621, 1341969]","[1332862, 1333261, 1333661, 1334062, 1334461, 1334861, 1335261, 1335661, 1336027, 1336420, 1336810, 1337178, 1337578, 1337977, 1338353, 1338767, 1339168, 1339569, 1339943, 1340344, 1340734, 1341106, 1341500, 1341870]",44,R,ITM,1.1,
5,600,trial,0,68,68,68,trial,"['S', 'S', 'S', 'S', 'S', 'S', 'S', 'C', 'C', 'C', 'C', 'C', 'C', 'C', 'C', 'C', 'C', 'C', 'C', 'C', 'C', 'C', 'C']","[1347690, 1348404, 1349047, 1349630, 1350224, 1350821, 1351426, 1352018, 1352580, 1353125, 1353656, 1354194, 1354733, 1355302, 1355811, 1356351, 1356872, 1357367, 1357875, 1358384, 1358915, 1359432, 1360001]","[1347852, 1348636, 1349257, 1349875, 1350499, 1351105, 1351787, 1352349, 1352844, 1353388, 1353981, 1354548, 1355035, 1355539, 1356061, 1356600, 1357119, 1357617, 1358111, 1358687, 1359176, 1359678, 1360218]","[1347290, 1347889, 1348488, 1349088, 1349688, 1350288, 1350888, 1351488, 1352044, 1352605, 1353151, 1353681, 1354220, 1354759, 1355328, 1355838, 1356377, 1356898, 1357392, 1357900, 1358409, 1358941, 1359459, 1360026]",44,R,ITM,1.1,
3,600,trial,0,69,69,69,trial,"['S', 'S', 'S', 'S', 'S', 'S', 'S', 'S', 'C', 'C', 'C', 'C', 'C', 'C', 'C', 'C', 'C', 'C', 'C', 'C', 'C', 'C', 'C', 'C']","[1365573, 1366162, 1366500, 1367134, 1367686, 1368275, 1368908, 1369497, 1370079, 1370626, 1371158, 1371741, 1372291, 1372844, 1373371, 1373906, 1374425, 1374982, 1375540, 1376064, 1376571, 1377091, 1377590, 1378101]","[1365774, 1366307, 1366787, 1367429, 1368017, 1368606, 1369205, 1369761, 1370327, 1370865, 1371459, 1371950, 1372528, 1373034, 1373629, 1374271, 1374777, 1375276, 1375789, 1376362, 1376796, 1377323, 1377787, 1378279]","[1365363, 1365962, 1366562, 1367162, 1367762, 1368363, 1368963, 1369563, 1370104, 1370651, 1371184, 1371766, 1372316, 1372869, 1373396, 1373932, 1374450, 1375007, 1375565, 1376090, 1376596, 1377117, 1377615, 1378126]",44,R,ITM,1.1,
2,600,trial,0,70,70,70,trial,"['S', 'S', 'S', 'S', 'S', 'S', 'S', 'C', 'C', 'C', 'C', 'C', 'C', 'C', 'C', 'C', 'C', 'C', 'C', 'C', 'C', 'C', 'C']","[1384304, 1384955, 1385555, 1386035, 1386631, 1387362, 1388001, 1388589, 1389133, 1389662, 1390174, 1390766, 1391351, 1391908, 1392393, 1392934, 1393500, 1394100, 1394648, 1395193, 1395722, 1396226, 1396734]","[1384514, 1385119, 1385734, 1386126, 1386823, 1387552, 1388157, 1388767, 1389343, 1389857, 1390349, 1390911, 1391504, 1391991, 1392560, 1393063, 1393676, 1394244, 1394780, 1395341, 1395828, 1396328, 1396869]","[1383890, 1384491, 1385091, 1385690, 1386291, 1386890, 1387490, 1388090, 1388615, 1389160, 1389688, 1390201, 1390792, 1391378, 1391936, 1392419, 1392961, 1393526, 1394127, 1394675, 1395220, 1395748, 1396252, 1396762]",44,R,ITM,1.1,
5,600,trial,0,71,71,71,trial,"['S', 'S', 'S', 'S', 'S', 'S', 'S', 'C', 'C', 'C', 'C', 'C', 'C', 'C', 'C', 'C', 'C', 'C', 'C', 'C', 'C', 'C', 'C']","[1402678, 1403463, 1404118, 1404692, 1405317, 1405904, 1406518, 1407127, 1407719, 1408313, 1408889, 1409478, 1410056, 1410606, 1411183, 1411764, 1412328, 1412891, 1413492, 1414089, 1414683, 1415249, 1415801]","[1402823, 1403642, 1404299, 1404947, 1405549, 1406170, 1406750, 1407385, 1407936, 1408551, 1409178, 1409721, 1410320, 1410871, 1411481, 1412060, 1412659, 1413213, 1413805, 1414422, 1414973, 1415572]","[1402366, 1402966, 1403566, 1404166, 1404765, 1405365, 1405965, 1406565, 1407153, 1407745, 1408338, 1408916, 1409505, 1410081, 1410631, 1411210, 1411790, 1412354, 1412918, 1413518, 1414115, 1414709, 1415275, 1415828]",44,R,ITM,1.1,
4,400,trial,0,72,72,72,trial,"['S', 'S', 'S', 'S', 'S', 'S', 'S', 'C', 'C', 'C', 'C', 'C', 'C', 'C', 'C', 'C', 'C', 'C', 'C', 'C', 'C', 'C', 'C']","[1421903, 1422269, 1422650, 1423027, 1423450, 1423876, 1424237, 1424623, 1425024, 1425392, 1425778, 1426163, 1426563, 1426966, 1427313, 1427715, 1428106, 1428510, 1428919, 1429312, 1429686, 1430083, 1430469]","[1422057, 1422447, 1422836, 1423224, 1423677, 1423987, 1424388, 1424817, 1425163, 1425566, 1425959, 1426330, 1426722, 1427122, 1427472, 1427904, 1428293, 1428674, 1429102, 1429474, 1429814, 1430221, 1430612]","[1421495, 1421895, 1422296, 1422695, 1423095, 1423495, 1423895, 1424295, 1424649, 1425049, 1425418, 1425804, 1426189, 1426588, 1426992, 1427339, 1427740, 1428131, 1428536, 1428945, 1429338, 1429712, 1430109, 1430496]",44,R,ITM,1.1,
5,400,trial,0,73,73,73,trial,"['B', 'S', 'S', 'S', 'S', 'S', 'S', 'S', 'C', 'C', 'C', 'C', 'C', 'C', 'C', 'C', 'C', 'C', 'C', 'C', 'C', 'C', 'C', 'C']","[1436254, 1436665, 1437047, 1437411, 1437847, 1438236, 1438624, 1439075, 1439421, 1439797, 1440169, 1440566, 1440956, 1441324, 1441716, 1442071, 1442475, 1442842, 1443213, 1443579, 1443999, 1444365, 1444751, 1445109]","[1436464, 1436859, 1437221, 1437622, 1438012, 1438379, 1438755, 1439200, 1439585, 1439925, 1440315, 1440744, 1441105, 1441481, 1441848, 1442223, 1442610, 1442970, 1443379, 1443734, 1444133, 1444501, 1444891, 1445250]","[1436265, 1436665, 1437065, 1437465, 1437865, 1438265, 1438665, 1439066, 1439447, 1439822, 1440196, 1440591, 1440982, 1441349, 1441741, 1442097, 1442500, 1442868, 1443238, 1443605, 1444025, 1444390, 1444776, 1445135]",44,R,ITM,1.1,
2,400,trial,0,74,74,74,trial,"['S', 'S', 'S', 'S', 'S', 'S', 'S', 'S', 'C', 'C', 'C', 'C', 'C', 'C', 'C', 'C', 'C', 'C', 'C', 'C', 'C', 'C', 'C', 'C']","[1450909, 1451220, 1451553, 1451916, 1452316, 1452709, 1453125, 1453520, 1453900, 1454281, 1454683, 1455065, 1455434, 1455831, 1456229, 1456603, 1457026, 1457420, 1457827, 1458207, 1458617, 1458994, 1459434, 1459823]","[1450996, 1451353, 1451727, 1452087, 1452480, 1452926, 1453279, 1453659, 1454043, 1454407, 1454836, 1455196, 1455567, 1456000, 1456367, 1456782, 1457160, 1457567, 1457956, 1458355, 1458750, 1459155, 1459550, 1459960]","[1450752, 1451151, 1451550, 1451952, 1452351, 1452751, 1453151, 1453551, 1453928, 1454309, 1454709, 1455092, 1455462, 1455858, 1456256, 1456629, 1457053, 1457447, 1457854, 1458234, 1458644, 1459021, 1459462, 1459851]",44,R,ITM,1.1,
3,400,trial,0,75,75,75,trial,"['S', 'S', 'S', 'S', 'S', 'S', 'S', 'C', 'C', 'C', 'C', 'C', 'C', 'C', 'C', 'C', 'C', 'C', 'C', 'C', 'C', 'C', 'C']","[1465858, 1466271, 1466681, 1467105, 1467491, 1467890, 1468274, 1468681, 1469064, 1469445, 1469842, 1470222, 1470614, 1471022, 1471436, 1471835, 1472222, 1472604, 1473019, 1473417, 1473816, 1474209, 1474598]","[1466013, 1466445, 1466875, 1467261, 1467671, 1468042, 1468452, 1468834, 1469211, 1469574, 1469968, 1470355, 1470722, 1471170, 1471619, 1471981, 1472358, 1472741, 1473117, 1473552, 1473930, 1474334, 1474713]","[1465530, 1465930, 1466331, 1466730, 1467130, 1467530, 1467930, 1468331, 1468706, 1469089, 1469470, 1469868, 1470247, 1470640, 1471047, 1471462, 1471860, 1472247, 1472629, 1473045, 1473442, 1473842, 1474235, 1474624]",44,R,ITM,1.1,
7,400,trial,0,76,76,76,trial,"['S', 'S', 'S', 'S', 'S', 'S', 'C', 'C', 'C', 'C', 'C', 'C', 'C', 'C', 'C', 'C', 'C', 'C', 'C', 'C', 'C', 'C']","[1481036, 1481458, 1481880, 1482305, 1482689, 1483106, 1483499, 1483924, 1484362, 1484744, 1485160, 1485551, 1485956, 1486368, 1486769, 1487155, 1487537, 1487951, 1488308, 1488721, 1489156, 1489564]","[1481177, 1481568, 1482007, 1482428, 1482828, 1483238, 1483689, 1484045, 1484481, 1484900, 1485276, 1485677, 1486065, 1486478, 1486872, 1487299, 1487636, 1488064, 1488429, 1488855, 1489278, 1489680]","[1480335, 1480734, 1481135, 1481534, 1481934, 1482334, 1482734, 1483134, 1483526, 1483951, 1484389, 1484771, 1485188, 1485579, 1485982, 1486396, 1486795, 1487181, 1487563, 1487978, 1488334, 1488749, 1489183, 1489591]",44,R,ITM,1.1,
6,400,trial,0,77,77,77,trial,"['S', 'S', 'S', 'S', 'S', 'C', 'C', 'C', 'C', 'C', 'C', 'C', 'C', 'C', 'C', 'C', 'C', 'C', 'C', 'C', 'C']","[1496536, 1496922, 1497321, 1497691, 1498056, 1498546, 1498925, 1499327, 1499719, 1500075, 1500462, 1500892, 1501320, 1501705, 1502118, 1502472, 1502863, 1503280, 1503875, 1504306, 1504695]","[1496643, 1497021, 1497441, 1497781, 1498182, 1498647, 1499059, 1499427, 1499826, 1500173, 1500566, 1500992, 1501407, 1501811, 1502209, 1502545, 1502961, 1503372, 1503987, 1504407, 1504780]","[1495321, 1495721, 1496121, 1496521, 1496922, 1497321, 1497721, 1498121, 1498573, 1498951, 1499354, 1499746, 1500101, 1500488, 1500919, 1501346, 1501731, 1502146, 1502498, 1502889, 1503306, 1503901, 1504332, 1504721]",44,R,ITM,1.1,
5,400,trial,0,78,78,78,trial,"['S', 'S', 'S', 'S', 'S', 'S', 'C', 'C', 'C', 'C', 'C', 'C', 'C', 'C', 'C', 'C', 'C', 'C', 'C', 'C', 'C', 'C']","[1511318, 1511644, 1512006, 1512363, 1512775, 1513145, 1513529, 1513909, 1514310, 1514694, 1515085, 1515494, 1515871, 1516274, 1516631, 1517068, 1517447, 1517829, 1518217, 1518614, 1519012, 1519399]","[1511448, 1511760, 1512176, 1512506, 1512903, 1513275, 1513676, 1514053, 1514460, 1514826, 1515235, 1515626, 1515992, 1516387, 1516783, 1517215, 1517581, 1517945, 1518342, 1518747, 1519160, 1519563]","[1510423, 1510823, 1511223, 1511623, 1512024, 1512423, 1512823, 1513223, 1513554, 1513934, 1514337, 1514720, 1515111, 1515521, 1515896, 1516300, 1516657, 1517094, 1517472, 1517854, 1518242, 1518640, 1519038, 1519425]",44,R,ITM,1.1,
3,600,trial,0,79,79,79,trial,"['B', 'S', 'S', 'S', 'S', 'S', 'S', 'S', 'C', 'C', 'C', 'C', 'C', 'C', 'C', 'C', 'C', 'C', 'C', 'C', 'C', 'C', 'C', 'C']","[1524939, 1525334, 1526010, 1526642, 1527275, 1527881, 1528486, 1529131, 1529675, 1530205, 1530736, 1531284, 1531815, 1532331, 1532848, 1533333, 1533800, 1534287, 1534773, 1535263, 1535739, 1536215, 1536699, 1537170]","[1525114, 1525645, 1526292, 1527010, 1527641, 1528181, 1528772, 1529407, 1529963, 1530509, 1530998, 1531535, 1532055, 1532529, 1533072, 1533538, 1534062, 1534607, 1535040, 1535534, 1535952, 1536421, 1536903, 1537402]","[1524951, 1525551, 1526151, 1526751, 1527351, 1527951, 1528551, 1529151, 1529701, 1530230, 1530762, 1531310, 1531841, 1532356, 1532873, 1533359, 1533826, 1534313, 1534798, 1535289, 1535765, 1536240, 1536724, 1537196]",44,R,ITM,1.1,
2,600,trial,0,80,80,80,trial,"['B', 'S', 'S', 'S', 'S', 'S', 'S', 'S', 'C', 'C', 'C', 'C', 'C', 'C', 'C', 'C', 'C', 'C', 'C', 'C', 'C', 'C', 'C', 'C']","[1542703, 1543087, 1543792, 1544451, 1545065, 1545650, 1546262, 1546846, 1547458, 1547997, 1548518, 1549089, 1549613, 1550174, 1550731, 1551290, 1551833, 1552391, 1552956, 1553497, 1554060, 1554595, 1555112, 1555648]","[1542871, 1543497, 1544165, 1544795, 1545379, 1545976, 1546521, 1547114, 1547707, 1548234, 1548792, 1549319, 1549887, 1550432, 1550972, 1551523, 1552081, 1552619, 1553168, 1553722, 1554309, 1554845, 1555372, 1555891]","[1542716, 1543316, 1543916, 1544516, 1545115, 1545716, 1546316, 1546916, 1547486, 1548024, 1548546, 1549117, 1549639, 1550200, 1550757, 1551318, 1551859, 1552418, 1552984, 1553524, 1554086, 1554623, 1555140, 1555675]",44,R,ITM,1.1,
7,400,trial,0,81,81,81,trial,"['S', 'S', 'S', 'S', 'S', 'S', 'S', 'S', 'C', 'C', 'C', 'C', 'C', 'C', 'C', 'C', 'C', 'C', 'C', 'C', 'C', 'C', 'C', 'C']","[1561387, 1561718, 1562109, 1562484, 1562860, 1563235, 1563654, 1564078, 1564470, 1564831, 1565220, 1565599, 1565980, 1566375, 1566745, 1567161, 1567561, 1567940, 1568322, 1568676, 1569088, 1569475, 1569855, 1570246]","[1561502, 1561883, 1562266, 1562637, 1563023, 1563412, 1563826, 1564209, 1564616, 1564930, 1565336, 1565704, 1566101, 1566479, 1566875, 1567289, 1567690, 1568055, 1568450, 1568809, 1569214, 1569582, 1569990, 1570379]","[1561307, 1561705, 1562105, 1562505, 1562905, 1563305, 1563705, 1564105, 1564497, 1564858, 1565248, 1565626, 1566007, 1566402, 1566772, 1567188, 1567589, 1567968, 1568350, 1568703, 1569115, 1569503, 1569882, 1570274]",44,R,ITM,1.1,
6,600,trial,0,82,82,82,trial,"['S', 'S', 'S', 'S', 'S', 'S', 'S', 'C', 'C', 'C', 'C', 'C', 'C', 'C', 'C', 'C', 'C', 'C', 'C', 'C', 'C', 'C', 'C']","[1576020, 1576907, 1577524, 1578101, 1578747, 1579334, 1579877, 1580494, 1581049, 1581598, 1582110, 1582607, 1583098, 1583612, 1584101, 1584589, 1585069, 1585552, 1586048, 1586496, 1586993, 1587497, 1587976]","[1576150, 1577131, 1577780, 1578346, 1579105, 1579604, 1580214, 1580783, 1581329, 1581844, 1582376, 1582889, 1583367, 1583845, 1584365, 1584851, 1585314, 1585796, 1586276, 1586743, 1587192, 1587721, 1588209]","[1575776, 1576375, 1576975, 1577575, 1578175, 1578775, 1579375, 1579975, 1580522, 1581076, 1581626, 1582137, 1582633, 1583126, 1583639, 1584128, 1584616, 1585095, 1585579, 1586074, 1586524, 1587020, 1587524, 1588003]",44,R,ITM,1.1,
5,600,trial,0,83,83,83,trial,"['S', 'S', 'S', 'S', 'S', 'S', 'S', 'C', 'C', 'C', 'C', 'C', 'C', 'C', 'C', 'C', 'C', 'C', 'C', 'C', 'C', 'C', 'C']","[1593876, 1594578, 1595274, 1595909, 1596572, 1597176, 1597746, 1598337, 1598909, 1599478, 1600088, 1600662, 1601219, 1601836, 1602408, 1602971, 1603513, 1604103, 1604681, 1605236, 1605817, 1606362, 1606931]","[1594065, 1594846, 1595615, 1596192, 1596860, 1597421, 1597997, 1598596, 1599145, 1599762, 1600324, 1600912, 1601491, 1602086, 1602658, 1603234, 1603804, 1604392, 1604975, 1605555, 1606093, 1606665]","[1593596, 1594195, 1594796, 1595396, 1595996, 1596595, 1597195, 1597795, 1598362, 1598936, 1599504, 1600113, 1600689, 1601246, 1601861, 1602435, 1602997, 1603538, 1604128, 1604707, 1605262, 1605842, 1606387, 1606957]",44,R,ITM,1.1,
2,600,trial,0,84,84,84,trial,"['S', 'S', 'S', 'S', 'S', 'S', 'S', 'C', 'C', 'C', 'C', 'C', 'C', 'C', 'C', 'C', 'C', 'C', 'C', 'C', 'C', 'C', 'C']","[1612776, 1613577, 1614218, 1614824, 1615389, 1615997, 1616632, 1617202, 1617765, 1618337, 1618925, 1619489, 1620039, 1620613, 1621166, 1621712, 1622260, 1622804, 1623376, 1623927, 1624537, 1625075, 1625627]","[1613025, 1613884, 1614499, 1615115, 1615715, 1616314, 1616900, 1617492, 1618067, 1618642, 1619205, 1619793, 1620334, 1620892, 1621440, 1621992, 1622581, 1623127, 1623672, 1624208, 1624774, 1625328, 1625891]","[1612478, 1613078, 1613677, 1614278, 1614878, 1615477, 1616078, 1616678, 1617229, 1617793, 1618365, 1618952, 1619517, 1620066, 1620640, 1621192, 1621740, 1622287, 1622832, 1623404, 1623954, 1624564, 1625103, 1625655]",44,R,ITM,1.1,
7,600,trial,0,85,85,85,trial,"['S', 'S', 'S', 'S', 'S', 'S', 'S', 'C', 'C', 'C', 'C', 'C', 'C', 'C', 'C', 'C', 'C', 'C', 'C', 'C', 'C', 'C', 'C']","[1631509, 1632222, 1632864, 1633474, 1634068, 1634612, 1635236, 1635817, 1636372, 1636933, 1637486, 1638040, 1638568, 1639107, 1639683, 1640225, 1640809, 1641363, 1641889, 1642409, 1642946, 1643508, 1644014]","[1631694, 1632399, 1633076, 1633699, 1634329, 1634902, 1635487, 1636092, 1636640, 1637179, 1637752, 1638194, 1638829, 1639383, 1639966, 1640519, 1641047, 1641604, 1642147, 1642728, 1643274, 1643710, 1644266]","[1631113, 1631712, 1632312, 1632912, 1633512, 1634112, 1634712, 1635312, 1635845, 1636400, 1636960, 1637513, 1638067, 1638596, 1639134, 1639709, 1640252, 1640836, 1641391, 1641916, 1642437, 1642974, 1643535, 1644042]",44,R,ITM,1.1,
3,600,trial,0,86,86,86,trial,"['S', 'S', 'S', 'S', 'S', 'S', 'S', 'S', 'C', 'C', 'C', 'C', 'C', 'C', 'C', 'C', 'C', 'C', 'C', 'C', 'C', 'C', 'C', 'C']","[1649654, 1650010, 1650555, 1651154, 1651749, 1652382, 1652939, 1653590, 1654189, 1654759, 1655303, 1655868, 1656406, 1656984, 1657542, 1658107, 1658647, 1659185, 1659763, 1660313, 1660881, 1661428, 1661980, 1662521]","[1649813, 1650307, 1650882, 1651500, 1652133, 1652722, 1653314, 1653924, 1654505, 1655040, 1655603, 1656121, 1656700, 1657295, 1657837, 1658381, 1658935, 1659511, 1660046, 1660601, 1661167, 1661724, 1662262, 1662773]","[1649461, 1650061, 1650661, 1651261, 1651861, 1652461, 1653061, 1653661, 1654214, 1654785, 1655328, 1655894, 1656431, 1657010, 1657568, 1658133, 1658673, 1659210, 1659789, 1660339, 1660907, 1661454, 1662006, 1662546]",44,R,ITM,1.1,
4,600,trial,0,87,87,87,trial,"['S', 'S', 'S', 'S', 'S', 'S', 'S', 'C', 'C', 'C', 'C', 'C', 'C', 'C', 'C', 'C', 'C', 'C', 'C', 'C', 'C', 'C', 'C']","[1668402, 1669019, 1669627, 1670223, 1670812, 1671425, 1672014, 1672584, 1673108, 1673623, 1674168, 1674746, 1675311, 1675870, 1676472, 1677045, 1677574, 1678142, 1678713, 1679267, 1679803, 1680384, 1680923]","[1668589, 1669330, 1669954, 1670588, 1671166, 1671756, 1672339, 1672876, 1673402, 1673958, 1674471, 1674994, 1675535, 1676148, 1676779, 1677351, 1677888, 1678480, 1679010, 1679551, 1680115, 1680654]","[1667890, 1668490, 1669090, 1669690, 1670290, 1670890, 1671490, 1672090, 1672609, 1673134, 1673649, 1674193, 1674772, 1675336, 1675895, 1676497, 1677071, 1677599, 1678168, 1678739, 1679293, 1679828, 1680410, 1680949]",44,R,ITM,1.1,
6,400,trial,0,88,88,88,trial,"['S', 'S', 'S', 'S', 'S', 'S', 'S', 'S', 'C', 'C', 'C', 'C', 'C', 'C', 'C', 'C', 'C', 'C', 'C', 'C', 'C', 'C', 'C', 'C']","[1686460, 1686827, 1687110, 1687474, 1687846, 1688247, 1688660, 1689047, 1689435, 1689811, 1690188, 1690585, 1690972, 1691351, 1691746, 1692128, 1692516, 1692887, 1693283, 1693667, 1694045, 1694433, 1694810, 1695202]","[1686672, 1686932, 1687292, 1687659, 1688027, 1688421, 1688850, 1689201, 1689601, 1689943, 1690355, 1690749, 1691120, 1691483, 1691891, 1692292, 1692674, 1693058, 1693421, 1693816, 1694193, 1694570, 1694950, 1695324]","[1686270, 1686670, 1687070, 1687471, 1687870, 1688270, 1688670, 1689070, 1689461, 1689839, 1690215, 1690611, 1690998, 1691377, 1691773, 1692155, 1692542, 1692913, 1693310, 1693693, 1694072, 1694459, 1694836, 1695228]",44,R,ITM,1.1,
5,400,trial,0,89,89,89,trial,"['S', 'S', 'S', 'S', 'S', 'S', 'S', 'S', 'C', 'C', 'C', 'C', 'C', 'C', 'C', 'C', 'C', 'C', 'C', 'C', 'C', 'C', 'C', 'C']","[1701028, 1701330, 1701643, 1702045, 1702397, 1702812, 1703211, 1703609, 1704003, 1704364, 1704759, 1705152, 1705537, 1705936, 1706330, 1706701, 1707088, 1707484, 1707781, 1708218, 1708575, 1708999, 1709403, 1709808]","[1701145, 1701451, 1701785, 1702189, 1702587, 1702990, 1703396, 1703767, 1704163, 1704509, 1704898, 1705279, 1705671, 1706083, 1706458, 1706867, 1707208, 1707597, 1707881, 1708353, 1708719, 1709115, 1709522, 1709923]","[1700855, 1701255, 1701655, 1702055, 1702455, 1702855, 1703256, 1703655, 1704030, 1704389, 1704784, 1705179, 1705563, 1705962, 1706355, 1706727, 1707115, 1707509, 1707807, 1708243, 1708601, 1709025, 1709428, 1709835]",44,R,ITM,1.1,
2,400,trial,0,90,90,90,trial,"['S', 'S', 'S', 'S', 'S', 'S', 'S', 'S', 'C', 'C', 'C', 'C', 'C', 'C', 'C', 'C', 'C', 'C', 'C', 'C', 'C', 'C', 'C', 'C']","[1715471, 1715735, 1716100, 1716439, 1716846, 1717264, 1717641, 1718013, 1718410, 1718814, 1719202, 1719596, 1720003, 1720394, 1720781, 1721179, 1721567, 1722016, 1722389, 1722808, 1723236, 1723623, 1724024, 1724432]","[1715561, 1715880, 1716224, 1716585, 1717012, 1717398, 1717763, 1718137, 1718556, 1718936, 1719337, 1719729, 1720132, 1720528, 1720913, 1721326, 1721766, 1722167, 1722588, 1722955, 1723371, 1723768, 1724171, 1724558]","[1715264, 1715663, 1716063, 1716464, 1716865, 1717264, 1717663, 1718065, 1718436, 1718842, 1719229, 1719623, 1720030, 1720422, 1720808, 1721206, 1721593, 1722044, 1722417, 1722835, 1723264, 1723650, 1724051, 1724460]",44,R,ITM,1.1,
4,600,trial,0,91,91,91,trial,"['B', 'S', 'S', 'S', 'S', 'S', 'S', 'S', 'C', 'C', 'C', 'C', 'C', 'C', 'C', 'C', 'C', 'C', 'C', 'C', 'C', 'C', 'C', 'C']","[1730197, 1730608, 1731304, 1731901, 1732529, 1733142, 1733757, 1734368, 1734929, 1735444, 1736017, 1736559, 1737105, 1737670, 1738221, 1738764, 1739309, 1739855, 1740361, 1740873, 1741401, 1741910, 1742471, 1742982]","[1730419, 1731060, 1731702, 1732286, 1732880, 1733523, 1734088, 1734665, 1735201, 1735787, 1736333, 1736846, 1737390, 1737933, 1738505, 1739083, 1739558, 1740068, 1740605, 1741131, 1741598, 1742197, 1742702]","[1730208, 1730808, 1731408, 1732008, 1732609, 1733209, 1733809, 1734408, 1734955, 1735471, 1736043, 1736585, 1737131, 1737696, 1738247, 1738789, 1739334, 1739881, 1740387, 1740899, 1741426, 1741935, 1742496, 1743007]",44,R,ITM,1.1,
2,400,trial,0,92,92,92,trial,"['S', 'S', 'S', 'S', 'S', 'S', 'S', 'S', 'C', 'C', 'C', 'C', 'C', 'C', 'C', 'C', 'C', 'C', 'C', 'C', 'C', 'C', 'C', 'C']","[1748780, 1749111, 1749403, 1749713, 1750121, 1750542, 1750921, 1751342, 1751755, 1752117, 1752483, 1752829, 1753197, 1753560, 1753899, 1754245, 1754609, 1754926, 1755244, 1755563, 1755914, 1756259, 1756589, 1756939]","[1748913, 1749227, 1749544, 1749886, 1750313, 1750737, 1751156, 1751573, 1751969, 1752313, 1752664, 1753007, 1753363, 1753705, 1754014, 1754375, 1754700, 1755030, 1755351, 1755668, 1756003, 1756351, 1756689, 1757036]","[1748601, 1749001, 1749400, 1749801, 1750201, 1750600, 1751002, 1751401, 1751783, 1752144, 1752511, 1752857, 1753225, 1753587, 1753926, 1754272, 1754636, 1754953, 1755271, 1755590, 1755941, 1756285, 1756616, 1756965]",44,R,ITM,1.1,
5,600,trial,0,93,93,93,trial,"['B', 'S', 'S', 'S', 'S', 'S', 'S', 'S', 'C', 'C', 'C', 'C', 'C', 'C', 'C', 'C', 'C', 'C', 'C', 'C', 'C', 'C', 'C', 'C']","[1762418, 1762785, 1763517, 1764174, 1764793, 1765392, 1765990, 1766562, 1767152, 1767701, 1768260, 1768820, 1769378, 1769972, 1770535, 1771103, 1771649, 1772190, 1772749, 1773267, 1773800, 1774313, 1774827, 1775351]","[1762536, 1762940, 1763840, 1764503, 1765115, 1765702, 1766265, 1766840, 1767427, 1767999, 1768569, 1769212, 1769732, 1770318, 1770853, 1771396, 1771949, 1772514, 1772988, 1773515, 1774063, 1774578, 1775098]","[1762430, 1763030, 1763630, 1764230, 1764829, 1765429, 1766029, 1766629, 1767178, 1767727, 1768286, 1768846, 1769404, 1769998, 1770561, 1771128, 1771675, 1772216, 1772775, 1773293, 1773826, 1774340, 1774854, 1775378]",44,R,ITM,1.1,
4,400,trial,0,94,94,94,trial,"['S', 'S', 'S', 'S', 'S', 'S', 'S', 'C', 'C', 'C', 'C', 'C', 'C', 'C', 'C', 'C', 'C', 'C', 'C', 'C', 'C', 'C', 'C']","[1781277, 1781633, 1782011, 1782385, 1782784, 1783195, 1783634, 1784026, 1784398, 1784794, 1785203, 1785593, 1785978, 1786412, 1786807, 1787188, 1787579, 1788006, 1788423, 1788822, 1789239, 1789655, 1790065]","[1781364, 1781714, 1782106, 1782501, 1782934, 1783393, 1783796, 1784159, 1784536, 1784942, 1785305, 1785713, 1786098, 1786503, 1786910, 1787307, 1787719, 1788119, 1788542, 1788942, 1789344, 1789754, 1790156]","[1780844, 1781244, 1781644, 1782044, 1782445, 1782844, 1783244, 1783645, 1784051, 1784424, 1784819, 1785230, 1785619, 1786005, 1786437, 1786832, 1787213, 1787606, 1788032, 1788448, 1788849, 1789264, 1789680, 1790091]",44,R,ITM,1.1,
6,400,trial,0,95,95,95,trial,"['S', 'S', 'S', 'S', 'S', 'S', 'S', 'S', 'C', 'C', 'C', 'C', 'C', 'C', 'C', 'C', 'C', 'C', 'C', 'C', 'C', 'C', 'C', 'C']","[1795447, 1795794, 1796174, 1796594, 1796990, 1797395, 1797784, 1798227, 1798571, 1798965, 1799336, 1799711, 1800138, 1800510, 1800897, 1801290, 1801684, 1802081, 1802455, 1802846, 1803231, 1803625, 1804002, 1804389]","[1795608, 1795980, 1796378, 1796792, 1797208, 1797593, 1798026, 1798364, 1798737, 1799145, 1799510, 1799888, 1800305, 1800675, 1801077, 1801450, 1801836, 1802245, 1802634, 1803022, 1803442, 1803779, 1804154, 1804554]","[1795428, 1795827, 1796228, 1796627, 1797027, 1797427, 1797827, 1798227, 1798597, 1798991, 1799363, 1799739, 1800165, 1800537, 1800925, 1801318, 1801712, 1802107, 1802482, 1802873, 1803257, 1803652, 1804028, 1804416]",44,R,ITM,1.1,
7,400,trial,0,96,96,96,trial,"['B', 'S', 'S', 'S', 'S', 'S', 'S', 'S', 'C', 'C', 'C', 'C', 'C', 'C', 'C', 'C', 'C', 'C', 'C', 'C', 'C', 'C', 'C', 'C']","[1809879, 1810272, 1810666, 1811078, 1811464, 1811856, 1812246, 1812656, 1813021, 1813428, 1813853, 1814252, 1814648, 1815050, 1815467, 1815845, 1816242, 1816675, 1817091, 1817516, 1817889, 1818302, 1818701, 1819134]","[1809973, 1810440, 1810839, 1811236, 1811645, 1812018, 1812389, 1812813, 1813207, 1813607, 1814008, 1814439, 1814829, 1815215, 1815600, 1815988, 1816410, 1816847, 1817248, 1817649, 1818010, 1818411, 1818834, 1819248]","[1809892, 1810292, 1810693, 1811092, 1811492, 1811892, 1812292, 1812692, 1813049, 1813455, 1813880, 1814280, 1814675, 1815076, 1815493, 1815873, 1816269, 1816701, 1817117, 1817542, 1817917, 1818329, 1818729, 1819160]",44,R,ITM,1.1,
7,600,trial,0,97,97,97,trial,"['S', 'S', 'S', 'S', 'S', 'S', 'S', 'C', 'C', 'C', 'C', 'C', 'C', 'C', 'C', 'C', 'C', 'C', 'C', 'C', 'C', 'C', 'C']","[1824726, 1825517, 1826189, 1826811, 1827434, 1828030, 1828609, 1829234, 1829810, 1830382, 1830943, 1831499, 1832033, 1832573, 1833129, 1833695, 1834257, 1834791, 1835331, 1835879, 1836427, 1836952, 1837496]","[1824850, 1825686, 1826441, 1827088, 1827695, 1828320, 1828913, 1829557, 1830146, 1830666, 1831224, 1831798, 1832296, 1832882, 1833417, 1834007, 1834560, 1835069, 1835642, 1836178, 1836704, 1837328]","[1824484, 1825083, 1825683, 1826283, 1826883, 1827483, 1828083, 1828683, 1829262, 1829836, 1830409, 1830971, 1831526, 1832059, 1832601, 1833157, 1833722, 1834284, 1834819, 1835359, 1835907, 1836453, 1836980, 1837523]",44,R,ITM,1.1,
6,600,trial,0,98,98,98,trial,"['S', 'S', 'S', 'S', 'S', 'S', 'S', 'C', 'C', 'C', 'C', 'C', 'C', 'C', 'C', 'C', 'C', 'C', 'C', 'C', 'C', 'C', 'C']","[1843355, 1844049, 1844681, 1845310, 1845895, 1846488, 1847079, 1847640, 1848192, 1848731, 1849276, 1849802, 1850345, 1850900, 1851442, 1851980, 1852559, 1853099, 1853647, 1854170, 1854708, 1855253, 1855715]","[1843574, 1844328, 1845014, 1845595, 1846154, 1846768, 1847360, 1847934, 1848510, 1849034, 1849560, 1850091, 1850659, 1851201, 1851715, 1852296, 1852835, 1853384, 1853954, 1854465, 1855026, 1855552]","[1842988, 1843588, 1844188, 1844787, 1845387, 1845987, 1846587, 1847187, 1847666, 1848219, 1848758, 1849303, 1849829, 1850373, 1850927, 1851468, 1852007, 1852587, 1853125, 1853674, 1854196, 1854735, 1855280, 1855742]",44,R,ITM,1.1,
4,400,trial,0,99,99,99,trial,"['B', 'S', 'S', 'S', 'S', 'S', 'S', 'S', 'C', 'C', 'C', 'C', 'C', 'C', 'C', 'C', 'C', 'C', 'C', 'C', 'C', 'C', 'C', 'C']","[1861260, 1861585, 1862026, 1862397, 1862797, 1863214, 1863615, 1864017, 1864422, 1864799, 1865149, 1865586, 1865998, 1866373, 1866763, 1867147, 1867537, 1867918, 1868336, 1868753, 1869135, 1869559, 1869953, 1870345]","[1861304, 1861791, 1862206, 1862566, 1862966, 1863359, 1863760, 1864185, 1864588, 1864931, 1865331, 1865744, 1866136, 1866516, 1866891, 1867284, 1867674, 1868050, 1868450, 1868866, 1869279, 1869687, 1870084, 1870483]","[1861272, 1861671, 1862071, 1862471, 1862872, 1863271, 1863671, 1864071, 1864448, 1864824, 1865175, 1865612, 1866023, 1866398, 1866788, 1867172, 1867563, 1867943, 1868361, 1868779, 1869161, 1869585, 1869978, 1870370]",44,R,ITM,1.1,
3,400,trial,0,100,100,100,trial,"['B', 'S', 'S', 'S', 'S', 'S', 'S', 'S', 'C', 'C', 'C', 'C', 'C', 'C', 'C', 'C', 'C', 'C', 'C', 'C', 'C', 'C', 'C', 'C']","[1875656, 1876070, 1876439, 1876830, 1877218, 1877638, 1878041, 1878438, 1878819, 1879197, 1879617, 1880008, 1880400, 1880803, 1881186, 1881578, 1881965, 1882383, 1882757, 1883165, 1883564, 1883975, 1884360, 1884747]","[1875852, 1876244, 1876645, 1876997, 1877432, 1877849, 1878240, 1878631, 1879008, 1879398, 1879767, 1880169, 1880564, 1880957, 1881364, 1881747, 1882156, 1882529, 1882940, 1883316, 1883719, 1884125, 1884498, 1884888]","[1875667, 1876067, 1876467, 1876868, 1877267, 1877667, 1878067, 1878467, 1878845, 1879223, 1879643, 1880035, 1880426, 1880828, 1881211, 1881604, 1881991, 1882408, 1882782, 1883191, 1883589, 1884001, 1884386, 1884773]",44,R,ITM,1.1,
3,400,trial,0,101,101,101,trial,"['S', 'S', 'S', 'S', 'S', 'S', 'S', 'S', 'C', 'C', 'C', 'C', 'C', 'C', 'C', 'C', 'C', 'C', 'C', 'C', 'C', 'C', 'C', 'C']","[1890322, 1890610, 1890924, 1891310, 1891694, 1892101, 1892506, 1892912, 1893330, 1893722, 1894108, 1894495, 1894882, 1895275, 1895673, 1896080, 1896458, 1896857, 1897269, 1897649, 1898078, 1898503, 1898905, 1899304]","[1890430, 1890753, 1891081, 1891480, 1891893, 1892297, 1892680, 1893079, 1893445, 1893874, 1894267, 1894685, 1895077, 1895458, 1895852, 1896248, 1896653, 1897018, 1897435, 1897853, 1898252, 1898650, 1899079, 1899481]","[1890145, 1890545, 1890946, 1891345, 1891745, 1892146, 1892546, 1892946, 1893356, 1893747, 1894133, 1894520, 1894907, 1895301, 1895699, 1896105, 1896483, 1896883, 1897294, 1897674, 1898103, 1898528, 1898931, 1899330]",44,R,ITM,1.1,
5,400,trial,0,102,102,102,trial,"['S', 'S', 'S', 'S', 'S', 'S', 'S', 'C', 'C', 'C', 'C', 'C', 'C', 'C', 'C', 'C', 'C', 'C', 'C', 'C', 'C', 'C', 'C']","[1905048, 1905435, 1905833, 1906245, 1906637, 1907047, 1907452, 1907810, 1908225, 1908614, 1909007, 1909410, 1909810, 1910235, 1910646, 1911046, 1911428, 1911821, 1912216, 1912616, 1913013, 1913412, 1913815]","[1905184, 1905576, 1905997, 1906406, 1906806, 1907203, 1907580, 1907966, 1908358, 1908747, 1909157, 1909550, 1909970, 1910397, 1910802, 1911183, 1911560, 1911936, 1912352, 1912739, 1913142, 1913543, 1913938]","[1904680, 1905079, 1905479, 1905880, 1906279, 1906679, 1907079, 1907479, 1907836, 1908250, 1908639, 1909032, 1909436, 1909835, 1910261, 1910672, 1911071, 1911453, 1911846, 1912242, 1912642, 1913038, 1913438, 1913841]",44,R,ITM,1.1,
3,400,trial,0,103,103,103,trial,"['S', 'S', 'S', 'S', 'S', 'S', 'S', 'S', 'C', 'C', 'C', 'C', 'C', 'C', 'C', 'C', 'C', 'C', 'C', 'C', 'C', 'C', 'C', 'C']","[1919706, 1919991, 1920312, 1920686, 1921074, 1921464, 1921848, 1922286, 1922688, 1923102, 1923488, 1923896, 1924275, 1924666, 1925070, 1925477, 1925861, 1926257, 1926673, 1927063, 1927478, 1927857, 1928248, 1928649]","[1919800, 1920111, 1920452, 1920837, 1921229, 1921624, 1922027, 1922442, 1922842, 1923257, 1923641, 1924038, 1924416, 1924807, 1925225, 1925609, 1925999, 1926391, 1926770, 1927189, 1927602, 1928014, 1928396, 1928802]","[1919512, 1919912, 1920312, 1920712, 1921113, 1921512, 1921912, 1922312, 1922713, 1923128, 1923514, 1923921, 1924300, 1924691, 1925096, 1925502, 1925886, 1926283, 1926699, 1927089, 1927503, 1927882, 1928273, 1928675]",44,R,ITM,1.1,
6,600,trial,0,104,104,104,trial,"['S', 'S', 'S', 'S', 'S', 'S', 'S', 'C', 'C', 'C', 'C', 'C', 'C', 'C', 'C', 'C', 'C', 'C', 'C', 'C', 'C', 'C', 'C']","[1934437, 1935287, 1935890, 1936490, 1937083, 1937711, 1938302, 1938903, 1939439, 1939988, 1940524, 1941084, 1941632, 1942173, 1942755, 1943300, 1943870, 1944414, 1944939, 1945497, 1946053, 1946585, 1947119]","[1934590, 1935510, 1936104, 1936746, 1937387, 1938026, 1938607, 1939161, 1939709, 1940262, 1940784, 1941374, 1941920, 1942450, 1943020, 1943601, 1944163, 1944665, 1945198, 1945764, 1946291, 1946856, 1947368]","[1934185, 1934784, 1935384, 1935984, 1936584, 1937184, 1937784, 1938384, 1938929, 1939466, 1940015, 1940550, 1941110, 1941658, 1942200, 1942781, 1943326, 1943897, 1944440, 1944966, 1945525, 1946080, 1946611, 1947146]",44,R,ITM,1.1,
4,600,trial,0,105,105,105,trial,"['S', 'S', 'S', 'S', 'S', 'S', 'S', 'S', 'C', 'C', 'C', 'C', 'C', 'C', 'C', 'C', 'C', 'C', 'C', 'C', 'C', 'C', 'C', 'C']","[1952873, 1953197, 1953837, 1954454, 1955066, 1955656, 1956245, 1956857, 1957465, 1958048, 1958586, 1959138, 1959681, 1960217, 1960758, 1961325, 1961875, 1962425, 1962950, 1963494, 1964006, 1964585, 1965168, 1965727]","[1952983, 1953538, 1954189, 1954791, 1955404, 1956016, 1956614, 1957179, 1957753, 1958302, 1958878, 1959419, 1959967, 1960486, 1961029, 1961573, 1962102, 1962628, 1963201, 1963732, 1964292, 1964822, 1965409]","[1952745, 1953344, 1953944, 1954544, 1955144, 1955744, 1956344, 1956944, 1957490, 1958074, 1958611, 1959163, 1959706, 1960243, 1960783, 1961351, 1961901, 1962451, 1962976, 1963520, 1964032, 1964611, 1965194, 1965754]",44,R,ITM,1.1,
3,400,trial,0,106,106,106,trial,"['S', 'S', 'S', 'S', 'S', 'S', 'S', 'S', 'C', 'C', 'C', 'C', 'C', 'C', 'C', 'C', 'C', 'C', 'C', 'C', 'C', 'C', 'C', 'C']","[1971192, 1971478, 1971804, 1972208, 1972629, 1973019, 1973409, 1973831, 1974225, 1974586, 1974986, 1975369, 1975750, 1976139, 1976521, 1976920, 1977315, 1977695, 1978070, 1978454, 1978863, 1979251, 1979662, 1980061]","[1971284, 1971616, 1971980, 1972390, 1972788, 1973175, 1973549, 1973965, 1974381, 1974726, 1975115, 1975519, 1975892, 1976281, 1976671, 1977067, 1977453, 1977856, 1978238, 1978593, 1979001, 1979379, 1979782, 1980164]","[1971075, 1971474, 1971874, 1972274, 1972674, 1973074, 1973474, 1973874, 1974251, 1974611, 1975012, 1975395, 1975776, 1976165, 1976547, 1976945, 1977340, 1977720, 1978095, 1978479, 1978889, 1979277, 1979687, 1980087]",44,R,ITM,1.1,
3,600,trial,0,107,107,107,trial,"['S', 'S', 'S', 'S', 'S', 'S', 'S', 'S', 'C', 'C', 'C', 'C', 'C', 'C', 'C', 'C', 'C', 'C', 'C', 'C', 'C', 'C', 'C', 'C']","[1985988, 1986309, 1986922, 1987538, 1988157, 1988762, 1989327, 1989941, 1990523, 1991063, 1991610, 1992115, 1992643, 1993151, 1993669, 1994202, 1994710, 1995212, 1995726, 1996250, 1996763, 1997282, 1997792, 1998345]","[1986103, 1986654, 1987290, 1987911, 1988526, 1989069, 1989650, 1990225, 1990757, 1991350, 1991891, 1992392, 1992922, 1993428, 1993960, 1994470, 1994998, 1995479, 1995987, 1996493, 1997010, 1997541, 1998093, 1998580]","[1985833, 1986433, 1987033, 1987633, 1988232, 1988832, 1989432, 1990032, 1990549, 1991089, 1991635, 1992140, 1992669, 1993177, 1993695, 1994227, 1994735, 1995238, 1995752, 1996275, 1996788, 1997307, 1997817, 1998370]",44,R,ITM,1.1,
7,400,trial,0,108,108,108,trial,"['B', 'S', 'S', 'S', 'S', 'S', 'S', 'S', 'C', 'C', 'C', 'C', 'C', 'C', 'C', 'C', 'C', 'C', 'C', 'C', 'C', 'C', 'C', 'C']","[2003704, 2004184, 2004518, 2004894, 2005284, 2005679, 2006054, 2006473, 2006887, 2007277, 2007656, 2008045, 2008471, 2008860, 2009242, 2009639, 2010051, 2010417, 2010811, 2011204, 2011611, 2012001, 2012413, 2012823]","[2003940, 2004339, 2004685, 2005037, 2005429, 2005787, 2006175, 2006627, 2007021, 2007410, 2007798, 2008185, 2008592, 2009016, 2009400, 2009776, 2010203, 2010574, 2011003, 2011355, 2011750, 2012158, 2012550, 2012972]","[2003718, 2004116, 2004516, 2004916, 2005316, 2005716, 2006116, 2006516, 2006915, 2007305, 2007683, 2008072, 2008498, 2008887, 2009270, 2009666, 2010079, 2010444, 2010839, 2011232, 2011637, 2012028, 2012441, 2012850]",44,R,ITM,1.1,
2,600,trial,0,109,109,109,trial,"['S', 'S', 'S', 'S', 'S', 'S', 'S', 'S', 'C', 'C', 'C', 'C', 'C', 'C', 'C', 'C', 'C', 'C', 'C', 'C', 'C', 'C', 'C', 'C']","[2018764, 2019083, 2019670, 2020278, 2020899, 2021497, 2022090, 2022744, 2023310, 2023826, 2024339, 2024835, 2025309, 2025794, 2026259, 2026719, 2027184, 2027611, 2028053, 2028499, 2028941, 2029394, 2029827, 2030269]","[2018912, 2019341, 2019964, 2020550, 2021136, 2021718, 2022294, 2022865, 2023510, 2024017, 2024520, 2025003, 2025500, 2025970, 2026427, 2026902, 2027347, 2027769, 2028209, 2028661, 2029087, 2029495, 2029973, 2030442]","[2018589, 2019189, 2019789, 2020389, 2020989, 2021588, 2022190, 2022790, 2023337, 2023853, 2024367, 2024862, 2025335, 2025821, 2026287, 2026746, 2027211, 2027638, 2028081, 2028527, 2028968, 2029421, 2029854, 2030297]",44,R,ITM,1.1,
6,400,trial,0,110,110,110,trial,"['S', 'S', 'S', 'S', 'S', 'S', 'S', 'C', 'C', 'C', 'C', 'C', 'C', 'C', 'C', 'C', 'C', 'C', 'C', 'C', 'C', 'C', 'C']","[2035963, 2036441, 2036853, 2037260, 2037681, 2038115, 2038508, 2038893, 2039218, 2039641, 2040070, 2040495, 2040858, 2041266, 2041654, 2042092, 2042468, 2042927, 2043338, 2043754, 2044145, 2044538, 2044929]","[2036091, 2036556, 2036973, 2037380, 2037791, 2038209, 2038593, 2038993, 2039330, 2039767, 2040096, 2040597, 2040994, 2041394, 2041771, 2042227, 2042652, 2043074, 2043502, 2043894, 2044279, 2044636, 2045041]","[2035744, 2036144, 2036543, 2036943, 2037343, 2037743, 2038144, 2038543, 2038920, 2039245, 2039667, 2040096, 2040522, 2040885, 2041293, 2041681, 2042119, 2042496, 2042953, 2043365, 2043782, 2044172, 2044565, 2044956]",44,R,ITM,1.1,
6,600,trial,0,111,111,111,trial,"['B', 'S', 'S', 'S', 'S', 'S', 'S', 'S', 'C', 'C', 'C', 'C', 'C', 'C', 'C', 'C', 'C', 'C', 'C', 'C', 'C', 'C', 'C', 'C']","[2050575, 2050953, 2051714, 2052337, 2052942, 2053513, 2054111, 2054735, 2055330, 2055855, 2056355, 2056890, 2057405, 2057911, 2058422, 2058960, 2059474, 2059979, 2060507, 2061020, 2061556, 2062069, 2062583, 2063134]","[2050723, 2051421, 2052112, 2052713, 2053292, 2053898, 2054498, 2055089, 2055641, 2056143, 2056654, 2057189, 2057666, 2058209, 2058724, 2059246, 2059759, 2060285, 2060777, 2061315, 2061837, 2062355, 2062929]","[2050588, 2051187, 2051787, 2052387, 2052987, 2053587, 2054188, 2054788, 2055357, 2055881, 2056382, 2056916, 2057433, 2057937, 2058448, 2058987, 2059501, 2060006, 2060533, 2061047, 2061583, 2062097, 2062611, 2063162]",44,R,ITM,1.1,
5,600,trial,0,112,112,112,trial,"['S', 'S', 'S', 'S', 'S', 'S', 'S', 'C', 'C', 'C', 'C', 'C', 'C', 'C', 'C', 'C', 'C', 'C', 'C', 'C', 'C', 'C', 'C']","[2068877, 2069569, 2070285, 2070862, 2071432, 2072043, 2072663, 2073272, 2073825, 2074365, 2074929, 2075485, 2076032, 2076605, 2077131, 2077709, 2078276, 2078814, 2079380, 2079894, 2080472, 2081017, 2081584]","[2069085, 2069757, 2070431, 2071021, 2071648, 2072315, 2072942, 2073527, 2074061, 2074630, 2075175, 2075725, 2076261, 2076846, 2077387, 2077953, 2078437, 2079031, 2079610, 2080200, 2080732, 2081261, 2081850]","[2068571, 2069170, 2069770, 2070370, 2070970, 2071570, 2072170, 2072770, 2073298, 2073850, 2074391, 2074954, 2075510, 2076057, 2076631, 2077157, 2077734, 2078302, 2078839, 2079406, 2079920, 2080497, 2081043, 2081609]",44,R,ITM,1.1,
7,600,trial,0,113,113,113,trial,"['S', 'S', 'S', 'S', 'S', 'S', 'S', 'C', 'C', 'C', 'C', 'C', 'C', 'C', 'C', 'C', 'C', 'C', 'C', 'C', 'C', 'C', 'C']","[2087346, 2088108, 2088758, 2089373, 2090010, 2090647, 2091204, 2091837, 2092416, 2092978, 2093526, 2094086, 2094664, 2095220, 2095760, 2096304, 2096890, 2097427, 2097988, 2098525, 2099063, 2099606, 2100185]","[2087559, 2088410, 2089075, 2089666, 2090243, 2090903, 2091500, 2092077, 2092625, 2093189, 2093774, 2094307, 2094852, 2095406, 2095996, 2096557, 2097105, 2097646, 2098250, 2098777, 2099328, 2099869]","[2087076, 2087675, 2088275, 2088876, 2089476, 2090076, 2090675, 2091275, 2091865, 2092442, 2093004, 2093552, 2094112, 2094691, 2095247, 2095787, 2096330, 2096917, 2097454, 2098015, 2098552, 2099090, 2099634, 2100211]",44,R,ITM,1.1,
2,400,trial,0,114,114,114,trial,"['S', 'S', 'S', 'S', 'S', 'S', 'S', 'S', 'C', 'C', 'C', 'C', 'C', 'C', 'C', 'C', 'C', 'C', 'C', 'C', 'C', 'C', 'C', 'C']","[2105835, 2105942, 2106297, 2106719, 2107118, 2107500, 2107913, 2108309, 2108704, 2109077, 2109467, 2109833, 2110206, 2110629, 2111007, 2111365, 2111733, 2112122, 2112502, 2112852, 2113242, 2113625, 2113981, 2114366]","[2105862, 2106029, 2106456, 2106859, 2107254, 2107646, 2108050, 2108428, 2108821, 2109223, 2109591, 2109991, 2110351, 2110738, 2111129, 2111484, 2111854, 2112248, 2112623, 2112990, 2113356, 2113723, 2114107, 2114469]","[2105556, 2105956, 2106356, 2106756, 2107156, 2107556, 2107956, 2108356, 2108731, 2109105, 2109494, 2109860, 2110234, 2110656, 2111035, 2111392, 2111760, 2112149, 2112529, 2112880, 2113268, 2113651, 2114008, 2114394]",44,R,ITM,1.1,
3,600,trial,0,115,115,115,trial,"['S', 'S', 'S', 'S', 'S', 'S', 'S', 'C', 'C', 'C', 'C', 'C', 'C', 'C', 'C', 'C', 'C', 'C', 'C', 'C', 'C', 'C', 'C']","[2120433, 2121076, 2121709, 2122329, 2122887, 2123484, 2124073, 2124656, 2125172, 2125662, 2126148, 2126636, 2127137, 2127620, 2128093, 2128588, 2129068, 2129518, 2130003, 2130478, 2130967, 2131423, 2131886]","[2120740, 2121447, 2121978, 2122574, 2123159, 2123767, 2124358, 2124896, 2125401, 2125899, 2126391, 2126883, 2127370, 2127863, 2128348, 2128842, 2129303, 2129763, 2130241, 2130686, 2131191, 2131664, 2132134]","[2119987, 2120586, 2121186, 2121786, 2122386, 2122986, 2123586, 2124186, 2124682, 2125198, 2125687, 2126174, 2126661, 2127163, 2127645, 2128118, 2128614, 2129093, 2129544, 2130029, 2130503, 2130993, 2131448, 2131911]",44,R,ITM,1.1,
2,600,trial,0,116,116,116,trial,"['S', 'S', 'S', 'S', 'S', 'S', 'S', 'C', 'C', 'C', 'C', 'C', 'C', 'C', 'C', 'C', 'C', 'C', 'C', 'C', 'C', 'C', 'C']","[2137899, 2138583, 2139234, 2139878, 2140463, 2141053, 2141668, 2142261, 2142792, 2143330, 2143880, 2144375, 2144884, 2145414, 2145876, 2146412, 2146939, 2147456, 2147955, 2148454, 2148951, 2149441, 2149910]","[2138156, 2138928, 2139594, 2140204, 2140805, 2141398, 2141985, 2142544, 2143044, 2143582, 2144067, 2144580, 2145098, 2145616, 2146096, 2146664, 2147154, 2147667, 2148115, 2148660, 2149102, 2149609, 2150090]","[2137541, 2138141, 2138741, 2139341, 2139941, 2140541, 2141142, 2141742, 2142287, 2142820, 2143357, 2143907, 2144402, 2144911, 2145441, 2145904, 2146440, 2146967, 2147483, 2147982, 2148481, 2148978, 2149469, 2149938]",44,R,ITM,1.1,
2,400,trial,0,117,117,117,trial,"['S', 'S', 'S', 'S', 'S', 'S', 'S', 'S', 'C', 'C', 'C', 'C', 'C', 'C', 'C', 'C', 'C', 'C', 'C', 'C', 'C', 'C', 'C', 'C']","[2155461, 2155832, 2156128, 2156478, 2156844, 2157239, 2157646, 2158035, 2158434, 2158824, 2159208, 2159584, 2159960, 2160349, 2160721, 2161096, 2161454, 2161841, 2162220, 2162592, 2162953, 2163334, 2163689, 2164080]","[2155586, 2155924, 2156255, 2156590, 2156961, 2157353, 2157757, 2158143, 2158544, 2158925, 2159309, 2159691, 2160077, 2160446, 2160835, 2161200, 2161562, 2161943, 2162322, 2162698, 2163062, 2163432, 2163792, 2164175]","[2155278, 2155678, 2156079, 2156478, 2156878, 2157278, 2157679, 2158078, 2158460, 2158851, 2159236, 2159611, 2159986, 2160375, 2160749, 2161124, 2161480, 2161867, 2162247, 2162619, 2162980, 2163361, 2163717, 2164107]",44,R,ITM,1.1,
7,600,trial,0,118,118,118,trial,"['S', 'S', 'S', 'S', 'S', 'S', 'S', 'C', 'C', 'C', 'C', 'C', 'C', 'C', 'C', 'C', 'C', 'C', 'C', 'C', 'C', 'C', 'C']","[2169862, 2170573, 2171245, 2171899, 2172445, 2173022, 2173622, 2174234, 2174783, 2175316, 2175858, 2176418, 2176977, 2177545, 2178094, 2178663, 2179209, 2179741, 2180278, 2180808, 2181370, 2181920, 2182472]","[2169998, 2170800, 2171474, 2172108, 2172703, 2173298, 2173908, 2174490, 2175039, 2175584, 2176122, 2176671, 2177200, 2177833, 2178373, 2178904, 2179444, 2179966, 2180535, 2181091, 2181613, 2182178]","[2169521, 2170120, 2170720, 2171320, 2171920, 2172520, 2173120, 2173720, 2174261, 2174811, 2175343, 2175885, 2176445, 2177005, 2177571, 2178121, 2178691, 2179235, 2179768, 2180304, 2180836, 2181397, 2181947, 2182499]",44,R,ITM,1.1,
4,600,trial,0,119,119,119,trial,"['B', 'S', 'S', 'S', 'S', 'S', 'S', 'S', 'C', 'C', 'C', 'C', 'C', 'C', 'C', 'C', 'C', 'C', 'C', 'C', 'C', 'C', 'C', 'C']","[2187840, 2188214, 2188794, 2189430, 2189999, 2190620, 2191255, 2191825, 2192411, 2192862, 2193272, 2193686, 2194069, 2194460, 2194861, 2195241, 2195627, 2196017, 2196392, 2196788, 2197157, 2197530, 2197909, 2198279]","[2187988, 2188395, 2189034, 2189625, 2190199, 2190768, 2191412, 2191993, 2192573, 2193041, 2193441, 2193810, 2194217, 2194600, 2194983, 2195352, 2195727, 2196106, 2196496, 2196874, 2197243, 2197605, 2197987, 2198341]","[2187851, 2188451, 2189051, 2189651, 2190252, 2190852, 2191452, 2192051, 2192437, 2192887, 2193298, 2193712, 2194095, 2194486, 2194886, 2195267, 2195652, 2196042, 2196419, 2196813, 2197183, 2197556, 2197935, 2198304]",44,R,ITM,1.1,
6,400,trial,0,120,120,120,trial,"['S', 'S', 'S', 'S', 'S', 'S', 'S', 'C', 'C', 'C', 'C', 'C', 'C', 'C', 'C', 'C', 'C', 'C', 'C', 'C', 'C', 'C', 'C']","[2204162, 2204511, 2204880, 2205277, 2205704, 2206068, 2206480, 2206871, 2207242, 2207624, 2208010, 2208411, 2208781, 2209163, 2209556, 2209945, 2210326, 2210697, 2211063, 2211472, 2211848, 2212214, 2212597]","[2204285, 2204612, 2204997, 2205405, 2205785, 2206186, 2206598, 2206989, 2207350, 2207738, 2208122, 2208510, 2208897, 2209275, 2209655, 2210046, 2210437, 2210818, 2211178, 2211594, 2211966, 2212342, 2212709]","[2203750, 2204149, 2204550, 2204949, 2205349, 2205749, 2206149, 2206550, 2206899, 2207268, 2207651, 2208037, 2208438, 2208808, 2209189, 2209583, 2209972, 2210354, 2210723, 2211090, 2211499, 2211874, 2212242, 2212624]",44,R,ITM,1.1,
7,400,trial,0,121,121,121,trial,"['S', 'S', 'S', 'S', 'S', 'S', 'S', 'S', 'C', 'C', 'C', 'C', 'C', 'C', 'C', 'C', 'C', 'C', 'C', 'C', 'C', 'C', 'C', 'C']","[2218451, 2218780, 2219079, 2219451, 2219857, 2220256, 2220654, 2221062, 2221465, 2221832, 2222222, 2222607, 2222985, 2223390, 2223798, 2224183, 2224558, 2224928, 2225301, 2225704, 2226080, 2226426, 2226792, 2227167]","[2218573, 2218921, 2219267, 2219711, 2220107, 2220484, 2220860, 2221220, 2221607, 2222006, 2222380, 2222757, 2223148, 2223522, 2223906, 2224265, 2224656, 2225177, 2225506, 2225837, 2226223, 2226550, 2226942, 2227311]","[2218294, 2218693, 2219094, 2219493, 2219893, 2220294, 2220693, 2221093, 2221493, 2221858, 2222248, 2222633, 2223012, 2223417, 2223824, 2224209, 2224584, 2224956, 2225328, 2225731, 2226107, 2226454, 2226819, 2227193]",44,R,ITM,1.1,
5,600,trial,0,122,122,122,trial,"['S', 'S', 'S', 'S', 'S', 'S', 'S', 'S', 'C', 'C', 'C', 'C', 'C', 'C', 'C', 'C', 'C', 'C', 'C', 'C', 'C', 'C', 'C', 'C']","[2233076, 2233416, 2234029, 2234583, 2235207, 2235799, 2236390, 2236997, 2237602, 2238099, 2238563, 2239023, 2239509, 2240018, 2240475, 2240961, 2241443, 2241887, 2242330, 2242760, 2243205, 2243660, 2244128, 2244556]","[2233190, 2233703, 2234299, 2234865, 2235465, 2236127, 2236731, 2237324, 2237856, 2238334, 2238788, 2239249, 2239739, 2240232, 2240705, 2241103, 2241569, 2242027, 2242505, 2242919, 2243387, 2243874, 2244312, 2244783]","[2232912, 2233512, 2234113, 2234713, 2235313, 2235912, 2236512, 2237112, 2237628, 2238125, 2238588, 2239048, 2239535, 2240044, 2240501, 2240987, 2241469, 2241913, 2242356, 2242786, 2243230, 2243687, 2244154, 2244583]",44,R,ITM,1.1,
4,400,trial,0,123,123,123,trial,"['S', 'S', 'S', 'S', 'S', 'S', 'S', 'S', 'C', 'C', 'C', 'C', 'C', 'C', 'C', 'C', 'C', 'C', 'C', 'C', 'C', 'C', 'C', 'C']","[2250352, 2250726, 2251089, 2251517, 2251924, 2252299, 2252711, 2253113, 2253511, 2253923, 2254285, 2254691, 2255098, 2255502, 2255891, 2256280, 2256704, 2257111, 2257501, 2257892, 2258295, 2258693, 2259103, 2259497]","[2250402, 2250858, 2251229, 2251650, 2252046, 2252435, 2252848, 2253238, 2253655, 2254021, 2254426, 2254836, 2255214, 2255627, 2256025, 2256430, 2256804, 2257228, 2257632, 2258021, 2258427, 2258794, 2259204, 2259584]","[2250352, 2250752, 2251151, 2251551, 2251952, 2252351, 2252751, 2253151, 2253537, 2253949, 2254311, 2254716, 2255124, 2255527, 2255917, 2256306, 2256730, 2257137, 2257526, 2257917, 2258321, 2258718, 2259129, 2259523]",44,R,ITM,1.1,
5,400,trial,0,124,124,124,trial,"['S', 'S', 'S', 'S', 'S', 'S', 'S', 'C', 'C', 'C', 'C', 'C', 'C', 'C', 'C', 'C', 'C', 'C', 'C', 'C', 'C', 'C', 'C']","[2265164, 2265618, 2266022, 2266433, 2266852, 2267264, 2267621, 2267966, 2268346, 2268725, 2269042, 2269421, 2269799, 2270162, 2270550, 2270937, 2271318, 2271713, 2272093, 2272478, 2272864, 2273277, 2273648]","[2265338, 2265771, 2266168, 2266577, 2266992, 2267392, 2267717, 2268060, 2268459, 2268808, 2269118, 2269496, 2269896, 2270247, 2270635, 2271019, 2271414, 2271798, 2272176, 2272592, 2272974, 2273372, 2273766]","[2264912, 2265311, 2265711, 2266112, 2266511, 2266911, 2267312, 2267711, 2267992, 2268371, 2268751, 2269069, 2269447, 2269825, 2270189, 2270575, 2270963, 2271344, 2271738, 2272118, 2272504, 2272889, 2273303, 2273674]",44,R,ITM,1.1,
4,400,trial,0,125,125,125,trial,"['S', 'S', 'S', 'S', 'S', 'S', 'S', 'C', 'C', 'C', 'C', 'C', 'C', 'C', 'C', 'C', 'C', 'C', 'C', 'C', 'C', 'C', 'C']","[2279643, 2280083, 2280496, 2280913, 2281320, 2281719, 2282123, 2282512, 2282887, 2283280, 2283643, 2284028, 2284426, 2284816, 2285194, 2285594, 2285975, 2286352, 2286749, 2287162, 2287534, 2287937, 2288361]","[2279821, 2280239, 2280650, 2281075, 2281483, 2281865, 2282250, 2282632, 2283024, 2283397, 2283770, 2284158, 2284548, 2284938, 2285303, 2285714, 2286081, 2286472, 2286859, 2287262, 2287653, 2288054, 2288458]","[2279368, 2279769, 2280168, 2280568, 2280968, 2281368, 2281768, 2282168, 2282537, 2282912, 2283305, 2283669, 2284055, 2284451, 2284841, 2285220, 2285620, 2286002, 2286377, 2286775, 2287188, 2287559, 2287963, 2288387]",44,R,ITM,1.1,
