octave,ioi,event,.thisRepN,.thisTrialN,.thisN,.thisIndex,event,tap_types,tap_times,release_times,tone_times,subject,handedness,experiment,version,
,,SPR,0,-1,-1,0,SPR,"['P', 'P', 'P', 'P', 'P', 'P', 'P', 'P', 'P', 'P', 'P', 'P', 'P', 'P', 'P', 'P', 'P', 'P', 'P', 'P', 'P', 'P', 'P', 'P', 'P', 'P', 'P', 'P', 'P', 'P']","[53097, 53648, 54237, 54839, 55455, 56079, 56655, 57240, 57851, 58477, 59088, 59663, 60255, 60851, 61455, 62063, 62686, 63263, 63848, 64417, 65044, 65583, 66157, 66756, 67349, 67934, 68497, 69069, 69648, 70202]","[53207, 53779, 54359, 54965, 55582, 56189, 56770, 57351, 57969, 58596, 59200, 59776, 60375, 60961, 61560, 62167, 62819, 63409, 63954, 64521, 65131, 65678, 66259, 66855, 67443, 68045, 68612, 69185, 69755, 70328]",,34,R,ITM,1.1,
4,500,practice,0,0,0,0,practice,"['S', 'S', 'S', 'S', 'S', 'S', 'S', 'C', 'C', 'C', 'C', 'C', 'C', 'C', 'C', 'C', 'C', 'C', 'C', 'C', 'C', 'C', 'C', 'C']","[130424, 130849, 131333, 131838, 132327, 132830, 133318, 133847, 134300, 134707, 135070, 135406, 135723, 136020, 136312, 136591, 136854, 138158, 138683, 139234, 139748, 140271, 140795, 141344]","[130522, 130957, 131436, 131949, 132433, 132926, 133413, 133944, 134386, 134789, 135149, 135483, 135811, 136105, 136388, 136664, 136913, 138254, 138765, 139338, 139848, 140391, 140906, 141463]","[129900, 130400, 130900, 131400, 131900, 132401, 132900, 133400, 133872, 134326, 134732, 135096, 135432, 135748, 136046, 136338, 136616, 138183, 138708, 139259, 139773, 140297, 140821, 141370]",34,R,ITM,1.1,
3,500,practice,0,1,1,1,practice,"['S', 'S', 'S', 'S', 'S', 'S', 'S', 'C', 'C', 'C', 'C', 'C', 'C', 'C', 'C', 'C', 'C', 'C', 'C', 'C', 'C', 'C', 'C']","[147153, 147753, 148272, 148779, 149262, 149751, 150278, 150750, 151248, 151766, 152254, 152753, 153266, 153745, 154225, 154714, 155226, 155743, 156252, 156731, 157200, 157720, 158224]","[147219, 147845, 148379, 148877, 149370, 149855, 150364, 150854, 151336, 151852, 152350, 152843, 153353, 153830, 154315, 154803, 155324, 155842, 156348, 156831, 157307, 157809, 158315]","[146827, 147326, 147826, 148326, 148827, 149326, 149826, 150326, 150775, 151274, 151791, 152280, 152778, 153291, 153771, 154251, 154739, 155251, 155768, 156277, 156756, 157225, 157746, 158249]",34,R,ITM,1.1,
2,500,practice,0,2,2,2,practice,"['S', 'S', 'S', 'S', 'S', 'S', 'S', 'S', 'C', 'C', 'C', 'C', 'C', 'C', 'C', 'C', 'C', 'C', 'C', 'C', 'C', 'C', 'C', 'C']","[163979, 164298, 164762, 165232, 165735, 166238, 166770, 167259, 167784, 168322, 168815, 169300, 169786, 170289, 170799, 171313, 171801, 172255, 172766, 173246, 173722, 174230, 174732, 175230]","[164036, 164392, 164861, 165319, 165814, 166326, 166854, 167345, 167878, 168408, 168915, 169390, 169875, 170384, 170886, 171405, 171891, 172363, 172857, 173350, 173837, 174323, 174825, 175328]","[163812, 164313, 164812, 165312, 165811, 166312, 166812, 167312, 167812, 168348, 168842, 169328, 169814, 170316, 170826, 171340, 171829, 172281, 172793, 173274, 173750, 174257, 174759, 175256]",34,R,ITM,1.1,
5,500,practice,0,3,3,3,practice,"['S', 'S', 'S', 'S', 'S', 'S', 'S', 'S', 'C', 'C', 'C', 'C', 'C', 'C', 'C', 'C', 'C', 'C', 'C', 'C', 'C', 'C', 'C', 'C']","[181076, 181350, 181797, 182277, 182797, 183299, 183794, 184284, 184791, 185269, 185776, 186241, 186699, 187179, 187666, 188163, 188631, 189095, 189588, 190046, 190541, 191044, 191506, 192009]","[181133, 181438, 181900, 182381, 182889, 183398, 183890, 184397, 184891, 185367, 185861, 186335, 186808, 187281, 187769, 188259, 188745, 189212, 189692, 190161, 190646, 191141, 191622, 192100]","[180882, 181382, 181881, 182381, 182881, 183382, 183881, 184381, 184816, 185294, 185801, 186266, 186725, 187205, 187692, 188188, 188656, 189121, 189614, 190071, 190567, 191070, 191532, 192034]",34,R,ITM,1.1,
7,500,practice,0,4,4,4,practice,"['S', 'S', 'S', 'S', 'S', 'S', 'S', 'C', 'C', 'C', 'C', 'C', 'C', 'C', 'C', 'C', 'C', 'C', 'C', 'C', 'C', 'C', 'C']","[197784, 198289, 198798, 199288, 199799, 200303, 200810, 201335, 201826, 202336, 202823, 203294, 203810, 204284, 204770, 205253, 205743, 206265, 206758, 207266, 207729, 208235, 208711]","[197885, 198377, 198903, 199393, 199903, 200399, 200918, 201412, 201920, 202426, 202923, 203402, 203908, 204387, 204879, 205377, 205875, 206377, 206874, 207365, 207842, 208327, 208828]","[197368, 197867, 198367, 198867, 199367, 199867, 200368, 200867, 201362, 201852, 202363, 202851, 203322, 203837, 204312, 204797, 205281, 205770, 206291, 206786, 207294, 207756, 208263, 208739]",34,R,ITM,1.1,
6,500,practice,0,5,5,5,practice,"['S', 'S', 'S', 'S', 'S', 'S', 'S', 'C', 'C', 'C', 'C', 'C', 'C', 'C', 'C', 'C', 'C', 'C', 'C', 'C', 'C', 'C', 'C']","[214621, 215151, 215645, 216135, 216643, 217147, 217640, 218129, 218632, 219117, 219676, 220152, 220616, 221076, 221596, 222069, 222564, 223056, 223551, 224025, 224501, 225018, 225514]","[214720, 215239, 215772, 216257, 216761, 217262, 217761, 218246, 218735, 219228, 219780, 220274, 220722, 221190, 221709, 222179, 222669, 223158, 223661, 224140, 224608, 225111, 225614]","[214233, 214731, 215231, 215731, 216231, 216731, 217231, 217732, 218156, 218658, 219144, 219703, 220179, 220643, 221103, 221623, 222096, 222590, 223084, 223578, 224053, 224528, 225045, 225541]",34,R,ITM,1.1,
6,600,trial,0,6,6,6,trial,"['S', 'S', 'S', 'S', 'S', 'S', 'S', 'C', 'C', 'C', 'C', 'C', 'C', 'C', 'C', 'C', 'C', 'C', 'C', 'C', 'C', 'C', 'C']","[280984, 281620, 282188, 282756, 283348, 284000, 284610, 285228, 285903, 286431, 286965, 287522, 288025, 288565, 289105, 289620, 290163, 290711, 291247, 291820, 292356, 292913, 293451]","[281096, 281701, 282275, 282849, 283468, 284102, 284726, 285326, 285998, 286543, 287081, 287634, 288126, 288651, 289186, 289719, 290254, 290801, 291348, 291916, 292446, 292997, 293539]","[280651, 281250, 281850, 282450, 283051, 283651, 284251, 284851, 285254, 285930, 286457, 286992, 287549, 288052, 288591, 289132, 289648, 290190, 290738, 291273, 291848, 292382, 292939, 293478]",34,R,ITM,1.1,
4,400,trial,0,7,7,7,trial,"['S', 'S', 'S', 'S', 'S', 'S', 'S', 'C', 'C', 'C', 'C', 'C', 'C', 'C', 'C', 'C', 'C', 'C', 'C', 'C', 'C', 'C', 'C']","[299208, 299531, 299925, 300361, 300804, 301139, 301515, 301904, 302265, 302673, 303078, 303446, 303825, 304216, 304609, 305005, 305389, 305758, 306141, 306512, 306892, 307295, 307699]","[299296, 299617, 300028, 300475, 300882, 301211, 301594, 301986, 302361, 302759, 303141, 303542, 303913, 304312, 304713, 305072, 305469, 305855, 306233, 306613, 306974, 307376, 307788]","[298773, 299172, 299572, 299972, 300372, 300772, 301172, 301573, 301930, 302290, 302699, 303104, 303472, 303851, 304241, 304634, 305031, 305415, 305783, 306166, 306538, 306918, 307320, 307725]",34,R,ITM,1.1,
7,400,trial,0,8,8,8,trial,"['S', 'S', 'S', 'S', 'S', 'S', 'S', 'C', 'C', 'C', 'C', 'C', 'C', 'C', 'C', 'C', 'C', 'C', 'C', 'C', 'C', 'C', 'C']","[313425, 313767, 314173, 314584, 314977, 315378, 315770, 316189, 316579, 316969, 317365, 317752, 318151, 318532, 318925, 319313, 319717, 320111, 320501, 320886, 321264, 321676, 322094]","[313484, 313848, 314254, 314658, 315055, 315454, 315835, 316237, 316643, 317047, 317440, 317829, 318219, 318602, 318992, 319396, 319789, 320191, 320562, 320958, 321342, 321747, 322134]","[313049, 313447, 313847, 314248, 314648, 315048, 315448, 315848, 316216, 316607, 316996, 317391, 317778, 318179, 318560, 318953, 319340, 319745, 320138, 320529, 320913, 321292, 321702, 322121]",34,R,ITM,1.1,
2,600,trial,0,9,9,9,trial,"['S', 'S', 'S', 'S', 'S', 'S', 'S', 'C', 'C', 'C', 'C', 'C', 'C', 'C', 'C', 'C', 'C', 'C', 'C', 'C', 'C', 'C', 'C']","[327842, 328606, 329238, 329844, 330438, 331029, 331656, 332256, 332832, 333438, 334002, 334557, 335099, 335681, 336251, 336834, 337424, 338013, 338615, 339190, 339771, 340338, 340911]","[327916, 328704, 329326, 329926, 330526, 331114, 331755, 332363, 332933, 333536, 334126, 334667, 335253, 335814, 336375, 336967, 337545, 338119, 338712, 339297, 339881, 340459, 341009]","[327526, 328126, 328725, 329325, 329926, 330525, 331125, 331726, 332283, 332860, 333465, 334028, 334584, 335127, 335708, 336278, 336862, 337452, 338040, 338641, 339217, 339799, 340365, 340938]",34,R,ITM,1.1,
7,600,trial,0,10,10,10,trial,"['S', 'S', 'S', 'S', 'S', 'S', 'S', 'C', 'C', 'C', 'C', 'C', 'C', 'C', 'C', 'C', 'C', 'C', 'C', 'C', 'C', 'C', 'C']","[346958, 347731, 348399, 348959, 349548, 350156, 350774, 351350, 351974, 352570, 353168, 353772, 354354, 354961, 355560, 356127, 356749, 357323, 357926, 358487, 359088, 359668, 360248]","[347038, 347834, 348503, 349054, 349637, 350257, 350871, 351456, 352072, 352680, 353272, 353867, 354459, 355051, 355650, 356229, 356827, 357409, 358009, 358584, 359171, 359760, 360345]","[346609, 347208, 347808, 348408, 349008, 349608, 350209, 350809, 351377, 352002, 352596, 353195, 353800, 354380, 354989, 355588, 356154, 356775, 357351, 357954, 358513, 359114, 359695, 360274]",34,R,ITM,1.1,
2,400,trial,0,11,11,11,trial,"['S', 'S', 'S', 'S', 'S', 'S', 'S', 'C', 'C', 'C', 'C', 'C', 'C', 'C', 'C', 'C', 'C', 'C', 'C', 'C', 'C', 'C', 'C']","[366388, 366658, 367048, 367432, 367850, 368254, 368655, 369063, 369448, 369839, 370229, 370617, 371018, 371421, 371795, 372202, 372570, 372967, 373330, 373667, 374069, 374490, 374890]","[366454, 366718, 367118, 367514, 367916, 368332, 368744, 369145, 369527, 369911, 370294, 370685, 371083, 371489, 371879, 372283, 372652, 373042, 373400, 373763, 374157, 374569, 374956]","[365901, 366302, 366701, 367101, 367500, 367901, 368301, 368701, 369091, 369476, 369866, 370256, 370644, 371046, 371447, 371823, 372230, 372597, 372995, 373357, 373695, 374095, 374517, 374918]",34,R,ITM,1.1,
5,400,trial,0,12,12,12,trial,"['S', 'S', 'S', 'S', 'S', 'S', 'S', 'C', 'C', 'C', 'C', 'C', 'C', 'C', 'C', 'C', 'C', 'C', 'C', 'C', 'C', 'C', 'C']","[380890, 381297, 381693, 382138, 382516, 382922, 383316, 383706, 384068, 384442, 384837, 385240, 385618, 386004, 386399, 386764, 387150, 387532, 387940, 388336, 388725, 389093, 389452]","[380962, 381376, 381776, 382186, 382576, 382977, 383392, 383774, 384134, 384524, 384908, 385303, 385683, 386066, 386449, 386836, 387226, 387602, 388001, 388395, 388791, 389166, 389516]","[380577, 380977, 381376, 381776, 382176, 382576, 382977, 383376, 383731, 384094, 384468, 384863, 385266, 385644, 386030, 386424, 386790, 387177, 387558, 387965, 388362, 388752, 389118, 389478]",34,R,ITM,1.1,
3,400,trial,0,13,13,13,trial,"['S', 'S', 'S', 'S', 'S', 'S', 'C', 'C', 'C', 'C', 'C', 'C', 'C', 'C', 'C', 'C', 'C', 'C', 'C', 'C', 'C', 'C']","[395496, 395908, 396301, 396696, 397099, 397502, 397912, 398266, 398652, 399030, 399439, 399819, 400214, 400602, 401002, 401383, 401753, 402160, 402552, 402953, 403364, 403735]","[395571, 395980, 396372, 396778, 397175, 397572, 397995, 398351, 398734, 399112, 399521, 399905, 400291, 400678, 401084, 401465, 401846, 402229, 402632, 403031, 403428, 403809]","[394798, 395196, 395596, 395997, 396397, 396797, 397197, 397597, 397937, 398291, 398678, 399055, 399465, 399845, 400239, 400627, 401028, 401409, 401778, 402186, 402578, 402978, 403390, 403761]",34,R,ITM,1.1,
7,400,trial,0,14,14,14,trial,"['S', 'S', 'S', 'S', 'S', 'S', 'S', 'C', 'C', 'C', 'C', 'C', 'C', 'C', 'C', 'C', 'C', 'C', 'C', 'C', 'C', 'C', 'C']","[409647, 410021, 410433, 410857, 411243, 411650, 412032, 412470, 412848, 413239, 413632, 414016, 414398, 414791, 415172, 415565, 415953, 416355, 416727, 417118, 417492, 417889, 418272]","[409693, 410106, 410488, 410911, 411307, 411718, 412106, 412527, 412907, 413286, 413678, 414076, 414457, 414836, 415223, 415622, 416008, 416406, 416792, 417167, 417532, 417947, 418326]","[409307, 409705, 410105, 410505, 410905, 411305, 411705, 412105, 412496, 412875, 413265, 413659, 414044, 414425, 414818, 415200, 415592, 415980, 416381, 416754, 417144, 417519, 417916, 418298]",34,R,ITM,1.1,
5,600,trial,0,15,15,15,trial,"['S', 'S', 'S', 'S', 'S', 'S', 'S', 'C', 'C', 'C', 'C', 'C', 'C', 'C', 'C', 'C', 'C', 'C', 'C', 'C', 'C', 'C', 'C']","[424043, 424846, 425521, 426093, 426713, 427278, 427901, 428506, 429103, 429732, 430354, 430967, 431580, 432181, 432764, 433327, 433953, 434546, 435161, 435745, 436341, 436937, 437529]","[424090, 424964, 425618, 426200, 426814, 427395, 428008, 428608, 429224, 429860, 430473, 431084, 431696, 432289, 432885, 433444, 434074, 434667, 435275, 435880, 436467, 437054, 437625]","[423736, 424335, 424935, 425535, 426135, 426735, 427335, 427935, 428531, 429129, 429758, 430380, 430993, 431605, 432207, 432791, 433352, 433979, 434572, 435186, 435772, 436367, 436963, 437555]",34,R,ITM,1.1,
6,600,trial,0,16,16,16,trial,"['S', 'S', 'S', 'S', 'S', 'S', 'S', 'C', 'C', 'C', 'C', 'C', 'C', 'C', 'C', 'C', 'C', 'C', 'C', 'C', 'C', 'C', 'C']","[443224, 444011, 444623, 445205, 445760, 446435, 447027, 447623, 448235, 448829, 449425, 450022, 450587, 451177, 451746, 452327, 452943, 453524, 454128, 454729, 455325, 455921, 456551]","[443310, 444118, 444711, 445294, 445854, 446514, 447112, 447720, 448339, 448940, 449534, 450114, 450685, 451267, 451856, 452425, 453042, 453621, 454232, 454824, 455442, 456023, 456640]","[442854, 443454, 444054, 444654, 445254, 445854, 446454, 447054, 447650, 448262, 448856, 449452, 450050, 450615, 451204, 451774, 452354, 452970, 453551, 454155, 454756, 455353, 455949, 456578]",34,R,ITM,1.1,
7,600,trial,0,17,17,17,trial,"['S', 'S', 'S', 'S', 'S', 'S', 'S', 'C', 'C', 'C', 'C', 'C', 'C', 'C', 'C', 'C', 'C', 'C', 'C', 'C', 'C', 'C', 'C']","[462724, 463480, 464090, 464699, 465281, 465893, 466529, 467135, 467713, 468305, 468910, 469526, 470080, 470654, 471219, 471833, 472390, 472961, 473535, 474106, 474713, 475281, 475868]","[462812, 463586, 464186, 464822, 465410, 466046, 466622, 467221, 467825, 468412, 469019, 469630, 470204, 470773, 471342, 471942, 472509, 473070, 473659, 474228, 474820, 475405, 475970]","[462358, 462957, 463557, 464157, 464757, 465357, 465957, 466557, 467162, 467740, 468332, 468936, 469553, 470108, 470682, 471245, 471860, 472417, 472987, 473562, 474134, 474740, 475309, 475895]",34,R,ITM,1.1,
2,400,trial,0,18,18,18,trial,"['S', 'S', 'S', 'S', 'S', 'S', 'C', 'C', 'C', 'C', 'C', 'C', 'C', 'C', 'C', 'C', 'C', 'C', 'C', 'C', 'C', 'C']","[492137, 492544, 492944, 493339, 493759, 494162, 494564, 494956, 495329, 495716, 496117, 496503, 496889, 497274, 497659, 498032, 498425, 498805, 499197, 499585, 499985, 500366]","[492217, 492638, 493037, 493427, 493838, 494245, 494653, 495036, 495426, 495806, 496201, 496599, 496975, 497360, 497735, 498129, 498513, 498904, 499280, 499671, 500058, 500452]","[491438, 491837, 492237, 492638, 493037, 493437, 493837, 494236, 494590, 494983, 495355, 495742, 496145, 496531, 496916, 497301, 497686, 498059, 498453, 498833, 499225, 499611, 500013, 500393]",34,R,ITM,1.1,
5,400,trial,0,19,19,19,trial,"['S', 'S', 'S', 'S', 'C', 'C', 'C', 'C', 'C', 'C', 'C', 'C', 'C', 'C', 'C', 'C', 'C', 'C', 'C', 'C']","[507506, 507909, 508310, 508706, 509099, 509464, 509838, 510237, 510614, 510992, 511379, 511770, 512153, 512521, 512921, 513293, 513679, 514045, 514428, 514802]","[507576, 507988, 508391, 508778, 509178, 509551, 509923, 510311, 510691, 511069, 511458, 511851, 512231, 512611, 512993, 513379, 513760, 514128, 514507, 514887]","[505990, 506388, 506788, 507188, 507588, 507988, 508388, 508788, 509124, 509490, 509863, 510263, 510640, 511017, 511405, 511796, 512179, 512546, 512947, 513318, 513704, 514071, 514454, 514828]",34,R,ITM,1.1,
4,600,trial,0,20,20,20,trial,"['S', 'S', 'S', 'S', 'S', 'S', 'C', 'C', 'C', 'C', 'C', 'C', 'C', 'C', 'C', 'C', 'C', 'C', 'C', 'C', 'C', 'C']","[521374, 521969, 522564, 523152, 523757, 524334, 524955, 525562, 526135, 526692, 527303, 527880, 528438, 529019, 529583, 530180, 530737, 531319, 531830, 532480, 533011, 533561]","[521474, 522084, 522670, 523294, 523899, 524463, 525076, 525690, 526284, 526859, 527454, 528012, 528576, 529163, 529716, 530322, 530865, 531450, 532004, 532626, 533178, 533711]","[520203, 520803, 521403, 522003, 522603, 523203, 523803, 524403, 524981, 525588, 526160, 526718, 527329, 527905, 528463, 529046, 529608, 530205, 530762, 531345, 531857, 532505, 533037, 533586]",34,R,ITM,1.1,
6,400,trial,0,21,21,21,trial,"['S', 'S', 'S', 'S', 'C', 'C', 'C', 'C', 'C', 'C', 'C', 'C', 'C', 'C', 'C', 'C', 'C', 'C', 'C', 'C']","[540831, 541231, 541649, 542064, 542446, 542837, 543213, 543618, 543995, 544398, 544777, 545166, 545540, 545903, 546318, 546705, 547104, 547510, 547900, 548265]","[540911, 541324, 541735, 542155, 542516, 542914, 543303, 543680, 544075, 544461, 544864, 545249, 545626, 545991, 546414, 546798, 547198, 547605, 547997, 548365]","[539313, 539711, 540111, 540511, 540911, 541312, 541711, 542111, 542473, 542864, 543240, 543644, 544023, 544425, 544803, 545192, 545566, 545930, 546345, 546732, 547131, 547536, 547928, 548293]",34,R,ITM,1.1,
3,600,trial,0,22,22,22,trial,"['S', 'S', 'S', 'S', 'C', 'C', 'C', 'C', 'C', 'C', 'C', 'C', 'C', 'C', 'C', 'C', 'C', 'C', 'C', 'C']","[555941, 556532, 557123, 557753, 558355, 558951, 559542, 560164, 560749, 561350, 561961, 562550, 563112, 563689, 564278, 564872, 565399, 566012, 566601, 567204]","[556098, 556696, 557279, 557901, 558489, 559113, 559705, 560322, 560908, 561502, 562115, 562694, 563232, 563836, 564422, 565009, 565561, 566183, 566761, 567350]","[553603, 554202, 554802, 555402, 556002, 556602, 557202, 557802, 558381, 558977, 559567, 560190, 560775, 561376, 561987, 562576, 563138, 563715, 564303, 564897, 565425, 566038, 566627, 567230]",34,R,ITM,1.1,
2,600,trial,0,23,23,23,trial,"['C', 'C', 'C', 'C', 'C', 'C', 'C', 'C', 'C', 'C', 'C', 'C', 'C', 'C', 'C', 'C']","[577374, 577954, 578539, 579131, 579721, 580296, 580912, 581510, 582083, 582691, 583264, 583871, 584582, 585187, 585800, 586384]","[577488, 578102, 578688, 579295, 579877, 580464, 581083, 581658, 582220, 582842, 583407, 584006, 584680, 585350, 585950, 586530]","[572633, 573233, 573833, 574433, 575032, 575632, 576233, 576833, 577400, 577981, 578567, 579159, 579748, 580324, 580938, 581537, 582110, 582719, 583290, 583898, 584609, 585214, 585828, 586411]",34,R,ITM,1.1,
3,400,trial,0,24,24,24,trial,"['C', 'C', 'C', 'C', 'C', 'C', 'C', 'C', 'C', 'C', 'C', 'C', 'C', 'C', 'C', 'C']","[595024, 595418, 595804, 596209, 596602, 596992, 597379, 597760, 598155, 598541, 598926, 599326, 599739, 600138, 600510, 600905]","[595118, 595518, 595900, 596319, 596714, 597112, 597484, 597868, 598264, 598650, 599030, 599431, 599830, 600247, 600610, 601010]","[591882, 592282, 592683, 593082, 593482, 593883, 594282, 594682, 595050, 595443, 595829, 596235, 596628, 597017, 597404, 597785, 598180, 598566, 598951, 599352, 599764, 600164, 600536, 600931]",34,R,ITM,1.1,
5,600,trial,0,25,25,25,trial,"['S', 'S', 'S', 'S', 'C', 'C', 'C', 'C', 'C', 'C', 'C', 'C', 'C', 'C', 'C', 'C', 'C', 'C', 'C', 'C']","[608627, 609226, 609825, 610445, 611040, 611653, 612210, 612807, 613362, 613932, 614509, 615090, 615696, 616252, 616825, 617412, 618004, 618609, 619194, 619765]","[608735, 609398, 609991, 610588, 611210, 611822, 612379, 612965, 613524, 614087, 614668, 615260, 615851, 616418, 616986, 617580, 618164, 618802, 619372, 619957]","[606295, 606894, 607494, 608093, 608693, 609293, 609893, 610493, 611065, 611679, 612236, 612834, 613388, 613957, 614535, 615116, 615721, 616278, 616852, 617438, 618030, 618635, 619219, 619792]",34,R,ITM,1.1,
4,400,trial,0,26,26,26,trial,"['C', 'C', 'C', 'C', 'C', 'C', 'C', 'C', 'C', 'C', 'C', 'C', 'C', 'C', 'C', 'C']","[628788, 629181, 629555, 629949, 630344, 630730, 631131, 631542, 631937, 632317, 632713, 633118, 633515, 633899, 634284, 634688]","[628886, 629291, 629660, 630069, 630456, 630851, 631247, 631653, 632050, 632431, 632828, 633241, 633628, 633996, 634403, 634823]","[625190, 625590, 625990, 626391, 626790, 627190, 627591, 627991, 628813, 629208, 629580, 629975, 630370, 630756, 631156, 631568, 631962, 632343, 632738, 633144, 633540, 633924, 634309, 634714]",34,R,ITM,1.1,
4,600,trial,0,27,27,27,trial,"['S', 'S', 'S', 'S', 'C', 'C', 'C', 'C', 'C', 'C', 'C', 'C', 'C', 'C', 'C', 'C', 'C', 'C', 'C', 'C']","[642464, 643079, 643639, 644267, 644870, 645460, 646031, 646593, 647193, 647768, 648349, 648983, 649522, 650122, 650690, 651287, 651912, 652478, 653045, 653621]","[642583, 643215, 643799, 644427, 645008, 645639, 646177, 646725, 647348, 647936, 648509, 649122, 649693, 650289, 650854, 651447, 652077, 652659, 653200, 653778]","[640120, 640719, 641319, 641920, 642520, 643120, 643719, 644319, 644895, 645485, 646056, 646619, 647219, 647793, 648375, 649009, 649547, 650147, 650716, 651313, 651938, 652504, 653071, 653646]",34,R,ITM,1.1,
3,600,trial,0,28,28,28,trial,"['S', 'S', 'S', 'S', 'C', 'C', 'C', 'C', 'C', 'C', 'C', 'C', 'C', 'C', 'C', 'C', 'C', 'C', 'C', 'C']","[661709, 662289, 662900, 663546, 664086, 664665, 665223, 665806, 666417, 667013, 667595, 668194, 668789, 669381, 669945, 670564, 671144, 671695, 672290, 672882]","[661829, 662453, 663046, 663671, 664237, 664819, 665361, 665991, 666614, 667207, 667790, 668368, 668986, 669562, 670107, 670730, 671323, 671888, 672479, 673046]","[659347, 659946, 660546, 661146, 661746, 662346, 662946, 663546, 664112, 664690, 665248, 665832, 666442, 667038, 667621, 668220, 668815, 669408, 669971, 670589, 671170, 671721, 672316, 672908]",34,R,ITM,1.1,
6,400,trial,0,29,29,29,trial,"['C', 'C', 'C', 'C', 'C', 'C', 'C', 'C', 'C', 'C', 'C', 'C', 'C', 'C', 'C', 'C']","[681626, 682027, 682420, 682834, 683234, 683615, 684012, 684396, 684798, 685212, 685582, 685972, 686338, 686706, 687111, 687498]","[681730, 682125, 682534, 682938, 683340, 683737, 684133, 684514, 684912, 685323, 685706, 686091, 686455, 686833, 687220, 687612]","[678480, 678880, 679280, 679681, 680080, 680480, 680881, 681280, 681653, 682053, 682447, 682861, 683261, 683641, 684039, 684423, 684825, 685239, 685608, 685999, 686365, 686733, 687137, 687524]",34,R,ITM,1.1,
3,400,trial,0,30,30,30,trial,"['C', 'C', 'C', 'C', 'C', 'C', 'C', 'C', 'C', 'C', 'C', 'C', 'C', 'C', 'C', 'C']","[706588, 706955, 707364, 707759, 708152, 708557, 708938, 709346, 709739, 710122, 710518, 710910, 711306, 711681, 712056, 712451]","[706674, 707059, 707475, 707856, 708272, 708660, 709059, 709455, 709839, 710241, 710638, 711033, 711429, 711794, 712181, 712563]","[703459, 703859, 704260, 704659, 705059, 705459, 705859, 706259, 706614, 706980, 707390, 707784, 708177, 708583, 708964, 709371, 709765, 710148, 710544, 710936, 711331, 711706, 712082, 712476]",34,R,ITM,1.1,
6,400,trial,0,31,31,31,trial,"['C', 'C', 'C', 'C', 'C', 'C', 'C', 'C', 'C', 'C', 'C', 'C', 'C', 'C', 'C', 'C']","[720989, 721367, 721777, 722156, 722570, 722956, 723346, 723747, 724136, 724512, 724905, 725303, 725693, 726084, 726432, 726812]","[721063, 721467, 721875, 722249, 722673, 723047, 723456, 723835, 724227, 724608, 725000, 725396, 725784, 726160, 726526, 726922]","[717816, 718216, 718616, 719016, 719416, 719816, 720217, 720616, 721015, 721393, 721804, 722183, 722596, 722982, 723373, 723774, 724164, 724539, 724932, 725329, 725720, 726112, 726459, 726839]",34,R,ITM,1.1,
3,600,trial,0,32,32,32,trial,"['C', 'C', 'C', 'C', 'C', 'C', 'C', 'C', 'C', 'C', 'C', 'C', 'C', 'C', 'C', 'C']","[737093, 737683, 738291, 738883, 739480, 740079, 740653, 741256, 741851, 742427, 743034, 743609, 744203, 744810, 745402, 745990]","[737209, 737853, 738460, 739060, 739641, 740241, 740812, 741411, 742012, 742588, 743181, 743786, 744354, 744971, 745556, 746136]","[732365, 732965, 733565, 734166, 734766, 735366, 735965, 736565, 737119, 737709, 738317, 738909, 739506, 740105, 740678, 741281, 741876, 742453, 743060, 743634, 744228, 744836, 745427, 746015]",34,R,ITM,1.1,
4,600,trial,0,33,33,33,trial,"['C', 'C', 'C', 'C', 'C', 'C', 'C', 'C', 'C', 'C', 'C', 'C', 'C', 'C', 'C', 'C']","[756115, 756690, 757291, 757891, 758457, 759018, 759621, 760231, 760783, 761396, 761945, 762529, 763105, 763693, 764258, 764861]","[756246, 756834, 757426, 758030, 758592, 759184, 759795, 760398, 760933, 761543, 762128, 762703, 763262, 763863, 764428, 765015]","[751345, 751945, 752545, 753145, 753745, 754345, 754946, 755546, 756141, 756716, 757316, 757917, 758482, 759044, 759648, 760257, 760809, 761421, 761970, 762556, 763130, 763718, 764284, 764887]",34,R,ITM,1.1,
3,400,trial,0,34,34,34,trial,"['C', 'C', 'C', 'C', 'C', 'C', 'C', 'C', 'C', 'C', 'C', 'C', 'C', 'C', 'C', 'C']","[773556, 773943, 774358, 774750, 775150, 775561, 775941, 776337, 776727, 777159, 777558, 777935, 778350, 778755, 779164, 779552]","[773653, 774055, 774478, 774848, 775244, 775673, 776069, 776457, 776851, 777272, 777670, 778055, 778472, 778865, 779281, 779669]","[770370, 770770, 771170, 771570, 771971, 772370, 772770, 773170, 773581, 773968, 774383, 774775, 775176, 775586, 775966, 776363, 776753, 777185, 777583, 777961, 778376, 778780, 779190, 779578]",34,R,ITM,1.1,
4,400,trial,0,35,35,35,trial,"['C', 'C', 'C', 'C', 'C', 'C', 'C', 'C', 'C', 'C', 'C', 'C', 'C', 'C', 'C', 'C']","[788451, 788839, 789225, 789608, 790006, 790404, 790787, 791193, 791579, 791954, 792333, 792737, 793125, 793516, 793918, 794294]","[788547, 788955, 789332, 789720, 790116, 790507, 790902, 791294, 791675, 792056, 792444, 792832, 793229, 793619, 794031, 794409]","[785304, 785703, 786103, 786503, 786904, 787303, 787703, 788103, 788476, 788866, 789251, 789635, 790032, 790430, 790812, 791219, 791605, 791981, 792359, 792763, 793151, 793541, 793944, 794320]",34,R,ITM,1.1,
2,600,trial,0,36,36,36,trial,"['C', 'C', 'C', 'C', 'C', 'C', 'C', 'C', 'C', 'C', 'C', 'C', 'C', 'C', 'C', 'C']","[804535, 805136, 805725, 806319, 806907, 807514, 808119, 808709, 809282, 809891, 810474, 811082, 811674, 812273, 812855, 813454]","[804658, 805292, 805876, 806463, 807054, 807661, 808278, 808860, 809423, 810052, 810622, 811220, 811800, 812416, 813017, 813598]","[799791, 800391, 800991, 801590, 802191, 802791, 803391, 803991, 804561, 805163, 805752, 806346, 806934, 807540, 808146, 808735, 809309, 809918, 810502, 811109, 811701, 812301, 812881, 813480]",34,R,ITM,1.1,
7,600,trial,0,37,37,37,trial,"['C', 'C', 'C', 'C', 'C', 'C', 'C', 'C', 'C', 'C', 'C', 'C', 'C', 'C', 'C', 'C']","[823613, 824186, 824772, 825377, 825995, 826556, 827134, 827747, 828331, 828905, 829487, 830065, 830659, 831220, 831806, 832409]","[823739, 824363, 824943, 825545, 826143, 826735, 827302, 827900, 828503, 829086, 829667, 830233, 830819, 831382, 831949, 832547]","[818841, 819440, 820040, 820640, 821240, 821840, 822440, 823041, 823641, 824213, 824799, 825405, 826021, 826583, 827162, 827773, 828357, 828933, 829513, 830092, 830687, 831247, 831833, 832437]",34,R,ITM,1.1,
4,600,trial,0,38,38,38,trial,"['C', 'C', 'C', 'C', 'C', 'C', 'C', 'C', 'C', 'C', 'C', 'C', 'C', 'C', 'C', 'C']","[842909, 843500, 844088, 844655, 845257, 845850, 846429, 847021, 847617, 848184, 848774, 849388, 849941, 850539, 851085, 851676]","[843064, 843677, 844242, 844807, 845420, 846023, 846597, 847188, 847774, 848353, 848940, 849522, 850113, 850694, 851246, 851845]","[838144, 838744, 839344, 839943, 840543, 841143, 841743, 842343, 842935, 843526, 844113, 844681, 845283, 845876, 846454, 847047, 847642, 848209, 848799, 849414, 849967, 850566, 851110, 851701]",34,R,ITM,1.1,
5,400,trial,0,39,39,39,trial,"['C', 'C', 'C', 'C', 'C', 'C', 'C', 'C', 'C', 'C', 'C', 'C', 'C', 'C', 'C', 'C']","[860537, 860969, 861359, 861754, 862183, 862584, 862978, 863387, 863792, 864179, 864586, 864978, 865384, 865763, 866184, 866590]","[860645, 861091, 861488, 861874, 862302, 862721, 863121, 863520, 863921, 864302, 864712, 865107, 865501, 865894, 866296, 866698]","[857334, 857735, 858135, 858535, 858935, 859335, 859736, 860135, 860563, 860995, 861384, 861780, 862209, 862610, 863003, 863413, 863817, 864204, 864612, 865004, 865410, 865788, 866210, 866616]",34,R,ITM,1.1,
7,600,trial,0,40,40,40,trial,"['C', 'C', 'C', 'C', 'C', 'C', 'C', 'C', 'C', 'C', 'C', 'C', 'C', 'C', 'C', 'C']","[876963, 877523, 878118, 878674, 879228, 879815, 880396, 880957, 881520, 882092, 882647, 883236, 883810, 884359, 884913, 885481]","[877076, 877631, 878227, 878758, 879350, 879929, 880493, 881060, 881617, 882204, 882760, 883353, 883918, 884463, 885025, 885596]","[872197, 872796, 873395, 873995, 874595, 875195, 875795, 876395, 876991, 877551, 878145, 878702, 879255, 879842, 880422, 880985, 881547, 882118, 882674, 883263, 883836, 884385, 884940, 885508]",34,R,ITM,1.1,
3,600,trial,0,41,41,41,trial,"['C', 'C', 'C', 'C', 'C', 'C', 'C', 'C', 'C', 'C', 'C', 'C', 'C', 'C', 'C', 'C']","[895913, 896527, 897133, 897709, 898320, 898937, 899493, 900076, 900663, 901232, 901788, 902394, 902978, 903526, 904073, 904607]","[896025, 896658, 897242, 897818, 898423, 899046, 899597, 900196, 900771, 901355, 901903, 902488, 903090, 903652, 904193, 904740]","[891144, 891744, 892344, 892944, 893544, 894144, 894744, 895344, 895939, 896552, 897159, 897734, 898345, 898963, 899519, 900102, 900688, 901258, 901814, 902420, 903004, 903552, 904098, 904633]",34,R,ITM,1.1,
5,600,trial,0,42,42,42,trial,"['C', 'C', 'C', 'C', 'C', 'C', 'C', 'C', 'C', 'C', 'C', 'C', 'C', 'C', 'C', 'C']","[927092, 927679, 928264, 928848, 929429, 929993, 930565, 931150, 931712, 932294, 932860, 933417, 933992, 934555, 935123, 935661]","[927270, 927865, 928423, 929017, 929592, 930153, 930738, 931323, 931901, 932493, 933062, 933588, 934183, 934743, 935293, 935836]","[922342, 922941, 923541, 924141, 924741, 925341, 925941, 926541, 927119, 927705, 928289, 928874, 929455, 930019, 930590, 931176, 931738, 932320, 932887, 933444, 934018, 934582, 935149, 935688]",34,R,ITM,1.1,
6,600,trial,0,43,43,43,trial,"['C', 'C', 'C', 'C', 'C', 'C', 'C', 'C', 'C', 'C', 'C', 'C', 'C', 'C', 'C', 'C']","[946046, 946595, 947196, 947769, 948324, 948927, 949482, 950075, 950646, 951204, 951767, 952345, 952886, 953472, 954036, 954627]","[946180, 946790, 947363, 947922, 948472, 949071, 949647, 950224, 950793, 951351, 951922, 952505, 953062, 953629, 954153, 954763]","[941292, 941891, 942491, 943091, 943691, 944291, 944891, 945491, 946074, 946623, 947223, 947796, 948352, 948954, 949509, 950102, 950673, 951232, 951793, 952372, 952912, 953499, 954062, 954653]",34,R,ITM,1.1,
2,600,trial,0,44,44,44,trial,"['C', 'C', 'C', 'C', 'C', 'C', 'C', 'C', 'C', 'C', 'C', 'C', 'C', 'C', 'C', 'C']","[964980, 965540, 966146, 966720, 967320, 967912, 968514, 969083, 969690, 970275, 970880, 971476, 972043, 972641, 973194, 973769]","[965125, 965723, 966318, 966914, 967508, 968105, 968668, 969257, 969858, 970455, 971006, 971600, 972188, 972762, 973349, 973925]","[960233, 960833, 961432, 962033, 962633, 963233, 963833, 964432, 965008, 965568, 966173, 966747, 967347, 967940, 968542, 969111, 969716, 970302, 970906, 971503, 972070, 972667, 973221, 973797]",34,R,ITM,1.1,
2,400,trial,0,45,45,45,trial,"['C', 'C', 'C', 'C', 'C', 'C', 'C', 'C', 'C', 'C', 'C', 'C', 'C', 'C', 'C', 'C']","[982682, 983097, 983497, 983895, 984291, 984694, 985085, 985477, 985890, 986278, 986689, 987085, 987491, 987869, 988261, 988663]","[982792, 983220, 983604, 984006, 984407, 984796, 985191, 985583, 985989, 986374, 986787, 987177, 987583, 987962, 988361, 988770]","[979466, 979866, 980267, 980666, 981066, 981467, 981866, 982266, 982709, 983124, 983524, 983921, 984318, 984721, 985113, 985503, 985917, 986305, 986717, 987112, 987518, 987896, 988289, 988691]",34,R,ITM,1.1,
6,600,trial,0,46,46,46,trial,"['C', 'C', 'C', 'C', 'C', 'C', 'C', 'C', 'C', 'C', 'C', 'C', 'C', 'C', 'C', 'C']","[999232, 999805, 1000402, 1000989, 1001575, 1002146, 1002717, 1003331, 1003887, 1004440, 1005036, 1005608, 1006195, 1006766, 1007336, 1007860]","[999348, 999950, 1000547, 1001135, 1001718, 1002296, 1002853, 1003484, 1004039, 1004599, 1005180, 1005749, 1006327, 1006888, 1007428, 1007989]","[994448, 995047, 995647, 996247, 996847, 997447, 998047, 998647, 999259, 999833, 1000430, 1001016, 1001602, 1002173, 1002743, 1003358, 1003914, 1004467, 1005063, 1005636, 1006222, 1006792, 1007364, 1007887]",34,R,ITM,1.1,
6,400,trial,0,47,47,47,trial,"['C', 'C', 'C', 'C', 'C', 'C', 'C', 'C', 'C', 'C', 'C', 'C', 'C', 'C', 'C', 'C']","[1016558, 1016945, 1017338, 1017783, 1018185, 1018585, 1018978, 1019374, 1019778, 1020146, 1020563, 1020966, 1021356, 1021751, 1022149, 1022539]","[1016647, 1017057, 1017449, 1017878, 1018288, 1018690, 1019081, 1019488, 1019876, 1020261, 1020677, 1021078, 1021462, 1021859, 1022253, 1022660]","[1013371, 1013770, 1014170, 1014571, 1014970, 1015370, 1015771, 1016170, 1016585, 1016972, 1017366, 1017809, 1018213, 1018611, 1019004, 1019401, 1019804, 1020173, 1020591, 1020994, 1021383, 1021777, 1022176, 1022566]",34,R,ITM,1.1,
7,400,trial,0,48,48,48,trial,"['C', 'C', 'C', 'C', 'C', 'C', 'C', 'C', 'C', 'C', 'C', 'C', 'C', 'C', 'C', 'C']","[1031100, 1031497, 1031909, 1032290, 1032711, 1033106, 1033501, 1033893, 1034275, 1034674, 1035073, 1035475, 1035874, 1036262, 1036684, 1037070]","[1031186, 1031588, 1031991, 1032399, 1032804, 1033207, 1033590, 1033981, 1034359, 1034761, 1035170, 1035580, 1035949, 1036364, 1036781, 1037178]","[1027928, 1028326, 1028726, 1029127, 1029526, 1029926, 1030326, 1030726, 1031127, 1031524, 1031937, 1032316, 1032738, 1033133, 1033529, 1033921, 1034302, 1034701, 1035100, 1035502, 1035900, 1036289, 1036710, 1037096]",34,R,ITM,1.1,
7,400,trial,0,49,49,49,trial,"['C', 'C', 'C', 'C', 'C', 'C', 'C', 'C', 'C', 'C', 'C', 'C', 'C', 'C', 'C', 'C']","[1045943, 1046338, 1046719, 1047110, 1047486, 1047875, 1048285, 1048687, 1049071, 1049438, 1049839, 1050225, 1050614, 1051012, 1051397, 1051792]","[1046027, 1046420, 1046814, 1047198, 1047584, 1047977, 1048389, 1048782, 1049170, 1049551, 1049939, 1050319, 1050723, 1051110, 1051502, 1051917]","[1042795, 1043195, 1043595, 1043995, 1044396, 1044795, 1045195, 1045596, 1045970, 1046365, 1046746, 1047137, 1047514, 1047902, 1048311, 1048714, 1049098, 1049464, 1049867, 1050252, 1050641, 1051039, 1051424, 1051820]",34,R,ITM,1.1,
5,600,trial,0,50,50,50,trial,"['C', 'C', 'C', 'C', 'C', 'C', 'C', 'C', 'C', 'C', 'C', 'C', 'C', 'C', 'C', 'C']","[1062146, 1062737, 1063299, 1063927, 1064504, 1065079, 1065666, 1066215, 1066808, 1067376, 1067943, 1068534, 1069087, 1069656, 1070205, 1070809]","[1062328, 1062912, 1063478, 1064096, 1064659, 1065236, 1065819, 1066399, 1066966, 1067540, 1068112, 1068699, 1069244, 1069822, 1070380, 1070983]","[1057393, 1057992, 1058592, 1059192, 1059792, 1060392, 1060993, 1061593, 1062172, 1062763, 1063324, 1063953, 1064530, 1065105, 1065692, 1066241, 1066833, 1067402, 1067970, 1068561, 1069113, 1069682, 1070232, 1070835]",34,R,ITM,1.1,
5,400,trial,0,51,51,51,trial,"['C', 'C', 'C', 'C', 'C', 'C', 'C', 'C', 'C', 'C', 'C', 'C', 'C', 'C', 'C', 'C']","[1079742, 1080146, 1080543, 1080947, 1081348, 1081762, 1082162, 1082561, 1082964, 1083356, 1083764, 1084166, 1084577, 1084985, 1085383, 1085775]","[1079834, 1080261, 1080669, 1081067, 1081459, 1081871, 1082259, 1082660, 1083070, 1083471, 1083870, 1084270, 1084678, 1085091, 1085500, 1085895]","[1076562, 1076962, 1077362, 1077763, 1078162, 1078562, 1078962, 1079362, 1079768, 1080172, 1080568, 1080974, 1081373, 1081789, 1082188, 1082587, 1082990, 1083381, 1083790, 1084191, 1084603, 1085011, 1085410, 1085801]",34,R,ITM,1.1,
2,400,trial,0,52,52,52,trial,"['C', 'C', 'C', 'C', 'C', 'C', 'C', 'C', 'C', 'C', 'C', 'C', 'C', 'C', 'C', 'C']","[1094750, 1095144, 1095559, 1095944, 1096330, 1096731, 1097112, 1097496, 1097894, 1098291, 1098699, 1099094, 1099485, 1099877, 1100259, 1100630]","[1094854, 1095250, 1095666, 1096054, 1096432, 1096824, 1097207, 1097597, 1097993, 1098383, 1098798, 1099193, 1099583, 1099969, 1100356, 1100720]","[1091591, 1091990, 1092390, 1092790, 1093190, 1093591, 1093989, 1094390, 1094777, 1095172, 1095586, 1095970, 1096357, 1096758, 1097139, 1097524, 1097922, 1098317, 1098726, 1099121, 1099512, 1099904, 1100286, 1100656]",34,R,ITM,1.1,
4,400,trial,0,53,53,53,trial,"['C', 'C', 'C', 'C', 'C', 'C', 'C', 'C', 'C', 'C', 'C', 'C', 'C', 'C', 'C', 'C']","[1109369, 1109762, 1110155, 1110559, 1110968, 1111369, 1111752, 1112100, 1112467, 1112870, 1113261, 1113658, 1114035, 1114439, 1114829, 1115217]","[1109479, 1109863, 1110267, 1110656, 1111054, 1111468, 1111849, 1112206, 1112577, 1112973, 1113366, 1113758, 1114134, 1114528, 1114923, 1115333]","[1106244, 1106643, 1107043, 1107443, 1107844, 1108243, 1108643, 1109043, 1109395, 1109788, 1110180, 1110585, 1110993, 1111395, 1111779, 1112126, 1112493, 1112896, 1113286, 1113683, 1114060, 1114465, 1114855, 1115243]",34,R,ITM,1.1,
4,600,trial,0,54,54,54,trial,"['C', 'C', 'C', 'C', 'C', 'C', 'C', 'C', 'C', 'C', 'C', 'C', 'C', 'C', 'C', 'C']","[1135083, 1135667, 1136267, 1136831, 1137427, 1137999, 1138609, 1139198, 1139760, 1140365, 1140963, 1141539, 1142125, 1142688, 1143266, 1143815]","[1135244, 1135834, 1136428, 1137020, 1137623, 1138183, 1138785, 1139361, 1139945, 1140542, 1141129, 1141694, 1142278, 1142845, 1143413, 1143981]","[1130315, 1130915, 1131515, 1132115, 1132716, 1133316, 1133916, 1134515, 1135109, 1135692, 1136292, 1136858, 1137453, 1138025, 1138634, 1139224, 1139785, 1140390, 1140988, 1141565, 1142151, 1142715, 1143291, 1143840]",34,R,ITM,1.1,
3,600,trial,0,55,55,55,trial,"['C', 'C', 'C', 'C', 'C', 'C', 'C', 'C', 'C', 'C', 'C', 'C', 'C', 'C', 'C', 'C']","[1154400, 1155006, 1155623, 1156227, 1156842, 1157444, 1158021, 1158597, 1159179, 1159762, 1160367, 1160951, 1161551, 1162145, 1162700, 1163272]","[1154549, 1155170, 1155763, 1156376, 1156994, 1157613, 1158180, 1158748, 1159333, 1159905, 1160478, 1161110, 1161690, 1162283, 1162845, 1163439]","[1149574, 1150173, 1150773, 1151373, 1151973, 1152573, 1153173, 1153773, 1154425, 1155032, 1155649, 1156252, 1156868, 1157470, 1158046, 1158623, 1159204, 1159788, 1160392, 1160977, 1161577, 1162171, 1162726, 1163297]",34,R,ITM,1.1,
7,600,trial,0,56,56,56,trial,"['C', 'C', 'C', 'C', 'C', 'C', 'C', 'C', 'C', 'C', 'C', 'C', 'C', 'C', 'C', 'C']","[1173614, 1174189, 1174784, 1175395, 1175988, 1176594, 1177188, 1177750, 1178354, 1178938, 1179531, 1180112, 1180696, 1181231, 1181815, 1182385]","[1173731, 1174341, 1174912, 1175504, 1176089, 1176702, 1177293, 1177860, 1178486, 1179061, 1179660, 1180239, 1180828, 1181373, 1181945, 1182529]","[1168849, 1169448, 1170049, 1170649, 1171249, 1171848, 1172448, 1173048, 1173641, 1174215, 1174810, 1175422, 1176015, 1176621, 1177214, 1177777, 1178381, 1178966, 1179558, 1180139, 1180723, 1181258, 1181843, 1182411]",34,R,ITM,1.1,
4,400,trial,0,57,57,57,trial,"['C', 'C', 'C', 'C', 'C', 'C', 'C', 'C', 'C', 'C', 'C', 'C', 'C', 'C', 'C', 'C']","[1191136, 1191535, 1191938, 1192350, 1192749, 1193125, 1193502, 1193911, 1194313, 1194708, 1195110, 1195479, 1195897, 1196253, 1196681, 1197088]","[1191232, 1191634, 1192032, 1192442, 1192840, 1193225, 1193602, 1194007, 1194399, 1194802, 1195210, 1195591, 1196001, 1196365, 1196785, 1197213]","[1187972, 1188370, 1188770, 1189170, 1189570, 1189970, 1190370, 1190770, 1191161, 1191562, 1191963, 1192376, 1192774, 1193151, 1193528, 1193936, 1194339, 1194734, 1195136, 1195505, 1195923, 1196278, 1196706, 1197114]",34,R,ITM,1.1,
6,400,trial,0,58,58,58,trial,"['C', 'C', 'C', 'C', 'C', 'C', 'C', 'C', 'C', 'C', 'C', 'C', 'C', 'C', 'C', 'C']","[1205760, 1206169, 1206572, 1206965, 1207369, 1207770, 1208161, 1208545, 1208972, 1209362, 1209755, 1210138, 1210519, 1210903, 1211309, 1211679]","[1205872, 1206280, 1206672, 1207066, 1207464, 1207856, 1208260, 1208638, 1209058, 1209454, 1209842, 1210214, 1210620, 1211001, 1211410, 1211781]","[1202597, 1202997, 1203397, 1203798, 1204197, 1204597, 1204998, 1205397, 1205786, 1206196, 1206598, 1206991, 1207396, 1207797, 1208187, 1208572, 1208998, 1209389, 1209782, 1210166, 1210546, 1210930, 1211335, 1211707]",34,R,ITM,1.1,
3,400,trial,0,59,59,59,trial,"['C', 'C', 'C', 'C', 'C', 'C', 'C', 'C', 'C', 'C', 'C', 'C', 'C', 'C', 'C', 'C']","[1220226, 1220613, 1221033, 1221457, 1221853, 1222233, 1222625, 1223016, 1223420, 1223818, 1224208, 1224608, 1224996, 1225397, 1225805, 1226175]","[1220319, 1220734, 1221142, 1221554, 1221951, 1222336, 1222726, 1223112, 1223512, 1223897, 1224299, 1224705, 1225095, 1225493, 1225890, 1226287]","[1217052, 1217452, 1217851, 1218251, 1218652, 1219051, 1219451, 1219851, 1220251, 1220638, 1221060, 1221483, 1221878, 1222258, 1222650, 1223042, 1223446, 1223843, 1224233, 1224634, 1225022, 1225422, 1225831, 1226201]",34,R,ITM,1.1,
5,400,trial,0,60,60,60,trial,"['C', 'C', 'C', 'C', 'C', 'C', 'C', 'C', 'C', 'C', 'C', 'C', 'C', 'C', 'C', 'C']","[1234820, 1235221, 1235631, 1236025, 1236412, 1236817, 1237210, 1237607, 1237999, 1238393, 1238782, 1239187, 1239575, 1239965, 1240376, 1240763]","[1234914, 1235328, 1235731, 1236133, 1236515, 1236923, 1237307, 1237707, 1238102, 1238497, 1238909, 1239297, 1239678, 1240068, 1240492, 1240889]","[1231670, 1232070, 1232471, 1232870, 1233270, 1233671, 1234071, 1234471, 1234845, 1235247, 1235656, 1236050, 1236438, 1236843, 1237235, 1237633, 1238025, 1238419, 1238808, 1239214, 1239601, 1239991, 1240401, 1240788]",34,R,ITM,1.1,
2,600,trial,0,61,61,61,trial,"['C', 'C', 'C', 'C', 'C', 'C', 'C', 'C', 'C', 'C', 'C', 'C', 'C', 'C', 'C', 'C']","[1251235, 1251829, 1252452, 1253044, 1253611, 1254184, 1254767, 1255382, 1255976, 1256542, 1257088, 1257710, 1258305, 1258865, 1259412, 1260018]","[1251368, 1251988, 1252591, 1253204, 1253745, 1254316, 1254910, 1255525, 1256090, 1256671, 1257232, 1257856, 1258438, 1259004, 1259551, 1260152]","[1246479, 1247079, 1247679, 1248279, 1248879, 1249478, 1250079, 1250679, 1251263, 1251856, 1252480, 1253071, 1253639, 1254212, 1254794, 1255408, 1256003, 1256568, 1257114, 1257737, 1258333, 1258893, 1259439, 1260045]",34,R,ITM,1.1,
4,600,trial,0,62,62,62,trial,"['C', 'C', 'C', 'C', 'C', 'C', 'C', 'C', 'C', 'C', 'C', 'C', 'C', 'C', 'C', 'C']","[1270473, 1271053, 1271644, 1272233, 1272830, 1273394, 1273974, 1274584, 1275154, 1275716, 1276321, 1276909, 1277479, 1278052, 1278622, 1279212]","[1270605, 1271219, 1271804, 1272409, 1272996, 1273569, 1274140, 1274745, 1275329, 1275890, 1276476, 1277069, 1277618, 1278197, 1278800, 1279387]","[1265736, 1266335, 1266935, 1267535, 1268135, 1268736, 1269336, 1269936, 1270499, 1271078, 1271669, 1272259, 1272856, 1273419, 1274000, 1274609, 1275180, 1275742, 1276347, 1276936, 1277505, 1278077, 1278649, 1279238]",34,R,ITM,1.1,
5,600,trial,0,63,63,63,trial,"['C', 'C', 'C', 'C', 'C', 'C', 'C', 'C', 'C', 'C', 'C', 'C', 'C', 'C', 'C', 'C']","[1289464, 1290084, 1290655, 1291259, 1291880, 1292471, 1293024, 1293602, 1294176, 1294777, 1295337, 1295928, 1296482, 1297031, 1297620, 1298206]","[1289584, 1290194, 1290793, 1291371, 1291983, 1292602, 1293162, 1293725, 1294321, 1294905, 1295476, 1296060, 1296629, 1297181, 1297775, 1298373]","[1284687, 1285286, 1285886, 1286487, 1287087, 1287687, 1288287, 1288887, 1289490, 1290109, 1290681, 1291285, 1291906, 1292496, 1293049, 1293629, 1294201, 1294802, 1295363, 1295954, 1296508, 1297056, 1297646, 1298232]",34,R,ITM,1.1,
6,400,trial,0,64,64,64,trial,"['C', 'C', 'C', 'C', 'C', 'C', 'C', 'C', 'C', 'C', 'C', 'C', 'C', 'C', 'C', 'C']","[1306708, 1307110, 1307517, 1307908, 1308324, 1308715, 1309130, 1309553, 1309961, 1310318, 1310715, 1311118, 1311520, 1311935, 1312339, 1312738]","[1306791, 1307186, 1307590, 1308007, 1308396, 1308797, 1309205, 1309644, 1310035, 1310402, 1310808, 1311194, 1311602, 1312014, 1312422, 1312844]","[1303528, 1303927, 1304328, 1304728, 1305128, 1305528, 1305928, 1306329, 1306735, 1307138, 1307545, 1307934, 1308352, 1308742, 1309157, 1309580, 1309987, 1310345, 1310742, 1311144, 1311547, 1311963, 1312367, 1312764]",34,R,ITM,1.1,
2,600,trial,0,65,65,65,trial,"['C', 'C', 'C', 'C', 'C', 'C', 'C', 'C', 'C', 'C', 'C', 'C', 'C', 'C', 'C', 'C']","[1323025, 1323610, 1324191, 1324813, 1325405, 1325975, 1326543, 1327113, 1327696, 1328260, 1328848, 1329470, 1330030, 1330551, 1331148, 1331710]","[1323182, 1323767, 1324358, 1324968, 1325543, 1326131, 1326693, 1327265, 1327845, 1328443, 1329010, 1329589, 1330184, 1330744, 1331321, 1331916]","[1318252, 1318852, 1319451, 1320052, 1320652, 1321252, 1321851, 1322452, 1323053, 1323637, 1324218, 1324839, 1325432, 1326003, 1326571, 1327139, 1327724, 1328287, 1328876, 1329498, 1330058, 1330578, 1331176, 1331737]",34,R,ITM,1.1,
5,400,trial,0,66,66,66,trial,"['C', 'C', 'C', 'C', 'C', 'C', 'C', 'C', 'C', 'C', 'C', 'C', 'C', 'C', 'C', 'C']","[1340418, 1340810, 1341217, 1341630, 1342042, 1342435, 1342829, 1343247, 1343660, 1344064, 1344454, 1344865, 1345260, 1345647, 1346074, 1346481]","[1340523, 1340936, 1341315, 1341739, 1342144, 1342531, 1342935, 1343354, 1343756, 1344168, 1344545, 1344959, 1345359, 1345763, 1346173, 1346589]","[1337239, 1337638, 1338038, 1338438, 1338839, 1339238, 1339638, 1340039, 1340444, 1340835, 1341243, 1341656, 1342067, 1342460, 1342855, 1343272, 1343685, 1344090, 1344480, 1344890, 1345287, 1345673, 1346100, 1346506]",34,R,ITM,1.1,
6,600,trial,0,67,67,67,trial,"['C', 'C', 'C', 'C', 'C', 'C', 'C', 'C', 'C', 'C', 'C', 'C', 'C', 'C', 'C', 'C']","[1356899, 1357469, 1358030, 1358625, 1359222, 1359779, 1360335, 1360902, 1361470, 1362026, 1362619, 1363185, 1363742, 1364306, 1364892, 1365480]","[1357051, 1357636, 1358194, 1358785, 1359380, 1359920, 1360457, 1361031, 1361617, 1362163, 1362755, 1363341, 1363885, 1364454, 1365026, 1365626]","[1352116, 1352715, 1353315, 1353915, 1354515, 1355115, 1355715, 1356315, 1356925, 1357496, 1358057, 1358653, 1359250, 1359806, 1360363, 1360928, 1361498, 1362053, 1362647, 1363212, 1363769, 1364334, 1364920, 1365507]",34,R,ITM,1.1,
5,600,trial,0,68,68,68,trial,"['C', 'C', 'C', 'C', 'C', 'C', 'C', 'C', 'C', 'C', 'C', 'C', 'C', 'C', 'C', 'C']","[1375761, 1376343, 1376924, 1377491, 1378042, 1378593, 1379186, 1379743, 1380322, 1380876, 1381453, 1382044, 1382575, 1383145, 1383702, 1384264]","[1375913, 1376522, 1377094, 1377626, 1378197, 1378751, 1379341, 1379895, 1380473, 1381048, 1381623, 1382197, 1382720, 1383301, 1383852, 1384428]","[1371031, 1371631, 1372231, 1372831, 1373431, 1374031, 1374631, 1375232, 1375787, 1376368, 1376950, 1377517, 1378068, 1378619, 1379212, 1379770, 1380347, 1380901, 1381479, 1382071, 1382600, 1383171, 1383728, 1384290]",34,R,ITM,1.1,
2,400,trial,0,69,69,69,trial,"['C', 'C', 'C', 'C', 'C', 'C', 'C', 'C', 'C', 'C', 'C', 'C', 'C', 'C', 'C', 'C']","[1392879, 1393287, 1393683, 1394078, 1394480, 1394869, 1395274, 1395675, 1396090, 1396505, 1396886, 1397301, 1397696, 1398103, 1398511, 1398912]","[1392990, 1393402, 1393798, 1394194, 1394592, 1394973, 1395376, 1395770, 1396192, 1396601, 1396990, 1397405, 1397791, 1398200, 1398596, 1399002]","[1389704, 1390103, 1390503, 1390903, 1391303, 1391704, 1392102, 1392503, 1392907, 1393313, 1393710, 1394106, 1394507, 1394895, 1395301, 1395702, 1396118, 1396533, 1396914, 1397327, 1397724, 1398130, 1398539, 1398939]",34,R,ITM,1.1,
3,400,trial,0,70,70,70,trial,"['C', 'C', 'C', 'C', 'C', 'C', 'C', 'C', 'C', 'C', 'C', 'C', 'C', 'C', 'C', 'C']","[1407506, 1407895, 1408290, 1408679, 1409074, 1409480, 1409865, 1410282, 1410694, 1411074, 1411470, 1411870, 1412264, 1412651, 1413048, 1413440]","[1407595, 1408003, 1408398, 1408769, 1409174, 1409569, 1409968, 1410400, 1410798, 1411184, 1411572, 1411956, 1412365, 1412755, 1413150, 1413552]","[1404354, 1404754, 1405154, 1405554, 1405955, 1406354, 1406754, 1407154, 1407532, 1407921, 1408316, 1408705, 1409099, 1409506, 1409891, 1410309, 1410719, 1411099, 1411495, 1411896, 1412290, 1412676, 1413073, 1413466]",34,R,ITM,1.1,
3,600,trial,0,71,71,71,trial,"['C', 'C', 'C', 'C', 'C', 'C', 'C', 'C', 'C', 'C', 'C', 'C', 'C', 'C', 'C', 'C']","[1423812, 1424363, 1424971, 1425552, 1426148, 1426734, 1427299, 1427902, 1428491, 1429085, 1429668, 1430260, 1430820, 1431420, 1431987, 1432568]","[1423962, 1424548, 1425138, 1425703, 1426305, 1426907, 1427460, 1428063, 1428640, 1429239, 1429836, 1430419, 1430975, 1431587, 1432144, 1432736]","[1419074, 1419674, 1420274, 1420874, 1421474, 1422074, 1422674, 1423275, 1423838, 1424389, 1424997, 1425577, 1426173, 1426759, 1427324, 1427928, 1428516, 1429110, 1429694, 1430286, 1430846, 1431446, 1432012, 1432594]",34,R,ITM,1.1,
2,400,trial,0,72,72,72,trial,"['C', 'C', 'C', 'C', 'C', 'C', 'C', 'C', 'C', 'C', 'C', 'C', 'C', 'C', 'C', 'C']","[1441123, 1441532, 1441927, 1442326, 1442715, 1443108, 1443508, 1443905, 1444307, 1444706, 1445105, 1445526, 1445909, 1446297, 1446695, 1447104]","[1441229, 1441651, 1442045, 1442428, 1442834, 1443213, 1443612, 1444024, 1444417, 1444816, 1445212, 1445620, 1446014, 1446405, 1446805, 1447234]","[1437942, 1438342, 1438741, 1439142, 1439542, 1439942, 1440342, 1440742, 1441149, 1441560, 1441954, 1442354, 1442743, 1443136, 1443534, 1443933, 1444334, 1444732, 1445132, 1445554, 1445936, 1446325, 1446723, 1447131]",34,R,ITM,1.1,
7,400,trial,0,73,73,73,trial,"['C', 'C', 'C', 'C', 'C', 'C', 'C', 'C', 'C', 'C', 'C', 'C', 'C', 'C', 'C', 'C']","[1455788, 1456180, 1456585, 1456983, 1457402, 1457818, 1458210, 1458598, 1458985, 1459391, 1459779, 1460167, 1460569, 1460969, 1461341, 1461722]","[1455897, 1456292, 1456684, 1457103, 1457504, 1457923, 1458309, 1458699, 1459079, 1459479, 1459880, 1460276, 1460683, 1461075, 1461441, 1461831]","[1452601, 1453000, 1453401, 1453800, 1454200, 1454600, 1455000, 1455400, 1455815, 1456206, 1456613, 1457009, 1457429, 1457845, 1458237, 1458626, 1459013, 1459418, 1459806, 1460194, 1460595, 1460996, 1461368, 1461748]",34,R,ITM,1.1,
6,600,trial,0,74,74,74,trial,"['C', 'C', 'C', 'C', 'C', 'C', 'C', 'C', 'C', 'C', 'C', 'C', 'C', 'C', 'C', 'C']","[1471982, 1472556, 1473142, 1473731, 1474325, 1474893, 1475493, 1476079, 1476638, 1477211, 1477793, 1478379, 1478949, 1479526, 1480097, 1480671]","[1472121, 1472738, 1473289, 1473876, 1474452, 1475044, 1475632, 1476222, 1476784, 1477383, 1477949, 1478525, 1479117, 1479690, 1480250, 1480819]","[1467210, 1467809, 1468409, 1469009, 1469609, 1470210, 1470810, 1471410, 1472009, 1472583, 1473169, 1473759, 1474353, 1474921, 1475521, 1476106, 1476666, 1477238, 1477820, 1478406, 1478976, 1479553, 1480124, 1480698]",34,R,ITM,1.1,
4,400,trial,0,75,75,75,trial,"['C', 'C', 'C', 'C', 'C', 'C', 'C', 'C', 'C', 'C', 'C', 'C', 'C', 'C', 'C', 'C']","[1489612, 1490003, 1490382, 1490782, 1491177, 1491568, 1491959, 1492355, 1492753, 1493145, 1493536, 1493940, 1494339, 1494743, 1495137, 1495549]","[1489716, 1490117, 1490505, 1490897, 1491290, 1491677, 1492061, 1492466, 1492855, 1493256, 1493650, 1494043, 1494445, 1494844, 1495250, 1495670]","[1486466, 1486865, 1487265, 1487666, 1488066, 1488466, 1488866, 1489266, 1489638, 1490029, 1490408, 1490807, 1491203, 1491594, 1491985, 1492380, 1492779, 1493171, 1493562, 1493965, 1494365, 1494768, 1495162, 1495575]",34,R,ITM,1.1,
7,400,trial,0,76,76,76,trial,"['C', 'C', 'C', 'C', 'C', 'C', 'C', 'C', 'C', 'C', 'C', 'C', 'C', 'C', 'C', 'C']","[1504442, 1504843, 1505242, 1505638, 1506053, 1506459, 1506840, 1507212, 1507595, 1507956, 1508359, 1508759, 1509166, 1509566, 1509941, 1510338]","[1504504, 1504915, 1505308, 1505709, 1506105, 1506510, 1506904, 1507277, 1507667, 1508028, 1508438, 1508827, 1509226, 1509629, 1510006, 1510418]","[1501261, 1501661, 1502060, 1502460, 1502860, 1503260, 1503661, 1504060, 1504470, 1504870, 1505268, 1505666, 1506080, 1506486, 1506868, 1507238, 1507621, 1507983, 1508386, 1508787, 1509192, 1509594, 1509968, 1510366]",34,R,ITM,1.1,
7,600,trial,0,77,77,77,trial,"['C', 'C', 'C', 'C', 'C', 'C', 'C', 'C', 'C', 'C', 'C', 'C', 'C', 'C', 'C', 'C']","[1520493, 1521091, 1521664, 1522280, 1522862, 1523441, 1524035, 1524614, 1525203, 1525782, 1526332, 1526928, 1527501, 1528108, 1528711, 1529282]","[1520604, 1521207, 1521796, 1522378, 1522994, 1523567, 1524140, 1524723, 1525304, 1525882, 1526436, 1527026, 1527611, 1528208, 1528822, 1529406]","[1515752, 1516351, 1516951, 1517551, 1518151, 1518751, 1519351, 1519951, 1520520, 1521118, 1521690, 1522308, 1522888, 1523468, 1524063, 1524641, 1525230, 1525810, 1526359, 1526955, 1527528, 1528134, 1528738, 1529310]",34,R,ITM,1.1,
2,400,trial,0,78,78,78,trial,"['C', 'C', 'C', 'C', 'C', 'C', 'C', 'C', 'C', 'C', 'C', 'C', 'C', 'C', 'C', 'C']","[1537963, 1538357, 1538743, 1539151, 1539544, 1539924, 1540316, 1540714, 1541104, 1541510, 1541907, 1542288, 1542666, 1543069, 1543475, 1543868]","[1538030, 1538434, 1538823, 1539226, 1539625, 1540001, 1540398, 1540788, 1541176, 1541570, 1541971, 1542354, 1542745, 1543135, 1543536, 1543949]","[1534824, 1535223, 1535624, 1536024, 1536425, 1536825, 1537225, 1537626, 1537989, 1538383, 1538769, 1539178, 1539571, 1539952, 1540342, 1540741, 1541132, 1541537, 1541934, 1542316, 1542692, 1543096, 1543502, 1543896]",34,R,ITM,1.1,
6,600,trial,0,79,79,79,trial,"['C', 'C', 'C', 'C', 'C', 'C', 'C', 'C', 'C', 'C', 'C', 'C', 'C', 'C', 'C', 'C']","[1554386, 1554983, 1555557, 1556140, 1556713, 1557298, 1557878, 1558455, 1558980, 1559555, 1560127, 1560694, 1561267, 1561835, 1562372, 1562942]","[1554553, 1555128, 1555694, 1556256, 1556839, 1557426, 1558001, 1558576, 1559105, 1559689, 1560254, 1560826, 1561389, 1561951, 1562501, 1563092]","[1549598, 1550197, 1550797, 1551397, 1551997, 1552598, 1553198, 1553798, 1554413, 1555010, 1555585, 1556166, 1556740, 1557324, 1557905, 1558481, 1559007, 1559582, 1560154, 1560721, 1561293, 1561863, 1562398, 1562969]",34,R,ITM,1.1,
5,600,trial,0,80,80,80,trial,"['C', 'C', 'C', 'C', 'C', 'C', 'C', 'C', 'C', 'C', 'C', 'C', 'C', 'C', 'C', 'C']","[1573395, 1573967, 1574578, 1575175, 1575793, 1576371, 1576951, 1577535, 1578116, 1578695, 1579261, 1579844, 1580424, 1580981, 1581585, 1582157]","[1573526, 1574125, 1574740, 1575335, 1575944, 1576546, 1577094, 1577657, 1578235, 1578834, 1579407, 1579973, 1580532, 1581109, 1581728]","[1568625, 1569224, 1569824, 1570424, 1571024, 1571624, 1572225, 1572825, 1573421, 1573993, 1574603, 1575200, 1575819, 1576397, 1576977, 1577561, 1578141, 1578722, 1579287, 1579871, 1580450, 1581006, 1581612, 1582183]",34,R,ITM,1.1,
3,400,trial,0,81,81,81,trial,"['C', 'C', 'C', 'C', 'C', 'C', 'C', 'C', 'C', 'C', 'C', 'C', 'C', 'C', 'C', 'C']","[1591060, 1591445, 1591873, 1592268, 1592663, 1593051, 1593474, 1593885, 1594293, 1594679, 1595087, 1595492, 1595875, 1596271, 1596691, 1597105]","[1591128, 1591539, 1591936, 1592336, 1592727, 1593117, 1593543, 1593954, 1594359, 1594743, 1595165, 1595560, 1595943, 1596355, 1596765, 1597186]","[1587895, 1588295, 1588696, 1589095, 1589495, 1589895, 1590295, 1590695, 1591086, 1591471, 1591899, 1592294, 1592688, 1593076, 1593499, 1593911, 1594318, 1594704, 1595113, 1595517, 1595900, 1596297, 1596717, 1597130]",34,R,ITM,1.1,
6,400,trial,0,82,82,82,trial,"['C', 'C', 'C', 'C', 'C', 'C', 'C', 'C', 'C', 'C', 'C', 'C', 'C', 'C', 'C', 'C']","[1605716, 1606111, 1606511, 1606905, 1607276, 1607661, 1608061, 1608469, 1608861, 1609206, 1609600, 1609999, 1610372, 1610756, 1611150, 1611535]","[1605799, 1606214, 1606603, 1606991, 1607368, 1607755, 1608138, 1608551, 1608933, 1609304, 1609689, 1610080, 1610460, 1610851, 1611249, 1611653]","[1602560, 1602958, 1603358, 1603759, 1604158, 1604558, 1604958, 1605358, 1605743, 1606137, 1606539, 1606932, 1607303, 1607688, 1608088, 1608496, 1608888, 1609233, 1609626, 1610025, 1610398, 1610782, 1611177, 1611563]",34,R,ITM,1.1,
7,600,trial,0,83,83,83,trial,"['C', 'C', 'C', 'C', 'C', 'C', 'C', 'C', 'C', 'C', 'C', 'C', 'C', 'C', 'C', 'C']","[1621837, 1622421, 1623014, 1623596, 1624174, 1624749, 1625345, 1625933, 1626530, 1627128, 1627700, 1628293, 1628867, 1629425, 1630030, 1630585]","[1621961, 1622571, 1623158, 1623728, 1624308, 1624901, 1625501, 1626087, 1626671, 1627279, 1627852, 1628442, 1629017, 1629573, 1630153, 1630735]","[1617085, 1617684, 1618284, 1618884, 1619484, 1620084, 1620684, 1621284, 1621864, 1622448, 1623041, 1623623, 1624201, 1624776, 1625372, 1625960, 1626557, 1627156, 1627726, 1628319, 1628895, 1629452, 1630058, 1630612]",34,R,ITM,1.1,
3,600,trial,0,84,84,84,trial,"['C', 'C', 'C', 'C', 'C', 'C', 'C', 'C', 'C', 'C', 'C', 'C', 'C', 'C', 'C', 'C']","[1641071, 1641657, 1642238, 1642841, 1643416, 1644023, 1644592, 1645189, 1645759, 1646351, 1646913, 1647506, 1648073, 1648651, 1649249, 1649852]","[1641207, 1641802, 1642397, 1643006, 1643582, 1644189, 1644772, 1645346, 1645907, 1646510, 1647090, 1647664, 1648257, 1648835, 1649415, 1650007]","[1636284, 1636883, 1637483, 1638083, 1638683, 1639283, 1639883, 1640483, 1641097, 1641682, 1642264, 1642866, 1643442, 1644049, 1644617, 1645214, 1645785, 1646376, 1646939, 1647532, 1648099, 1648676, 1649274, 1649878]",34,R,ITM,1.1,
7,400,trial,0,85,85,85,trial,"['C', 'C', 'C', 'C', 'C', 'C', 'C', 'C', 'C', 'C', 'C', 'C', 'C', 'C', 'C', 'C']","[1658512, 1658935, 1659369, 1659765, 1660188, 1660583, 1660980, 1661379, 1661782, 1662162, 1662566, 1662960, 1663362, 1663749, 1664151, 1664563]","[1658594, 1659030, 1659457, 1659854, 1660280, 1660687, 1661077, 1661474, 1661854, 1662272, 1662661, 1663060, 1663454, 1663858, 1664254, 1664676]","[1655326, 1655726, 1656125, 1656525, 1656926, 1657326, 1657726, 1658126, 1658539, 1658961, 1659396, 1659793, 1660216, 1660610, 1661006, 1661407, 1661808, 1662189, 1662594, 1662988, 1663389, 1663776, 1664179, 1664590]",34,R,ITM,1.1,
3,600,trial,0,86,86,86,trial,"['C', 'C', 'C', 'C', 'C', 'C', 'C', 'C', 'C', 'C', 'C', 'C', 'C', 'C', 'C', 'C', 'C']","[1674817, 1675405, 1675968, 1676574, 1676680, 1677153, 1677719, 1678306, 1678884, 1679439, 1680026, 1680592, 1681182, 1681741, 1682339, 1682903, 1683487]","[1674949, 1675544, 1676092, 1676600, 1676700, 1677293, 1677862, 1678437, 1678988, 1679545, 1680142, 1680719, 1681316, 1681872, 1682445, 1683020, 1683637]","[1670086, 1670685, 1671285, 1671885, 1672485, 1673085, 1673686, 1674286, 1674843, 1675430, 1675994, 1676600, 1677178, 1677745, 1678331, 1678910, 1679465, 1680052, 1680618, 1681208, 1681767, 1682365, 1682928, 1683513]",34,R,ITM,1.1,
4,600,trial,0,87,87,87,trial,"['C', 'C', 'C', 'C', 'C', 'C', 'C', 'C', 'C', 'C', 'C', 'C', 'C', 'C', 'C', 'C']","[1693921, 1694481, 1695063, 1695681, 1696274, 1696845, 1697413, 1698008, 1698593, 1699198, 1699764, 1700288, 1700869, 1701445, 1702002, 1702580]","[1694024, 1694647, 1695219, 1695825, 1696429, 1696998, 1697562, 1698140, 1698733, 1699328, 1699903, 1700457, 1701023, 1701585, 1702172, 1702742]","[1689174, 1689773, 1690373, 1690973, 1691573, 1692173, 1692773, 1693373, 1693947, 1694507, 1695088, 1695707, 1696300, 1696871, 1697438, 1698033, 1698619, 1699224, 1699790, 1700314, 1700894, 1701471, 1702028, 1702605]",34,R,ITM,1.1,
4,400,trial,0,88,88,88,trial,"['C', 'C', 'C', 'C', 'C', 'C', 'C', 'C', 'C', 'C', 'C', 'C', 'C', 'C', 'C', 'C']","[1711345, 1711745, 1712143, 1712529, 1712931, 1713334, 1713750, 1714146, 1714564, 1714949, 1715351, 1715739, 1716141, 1716546, 1716946, 1717353]","[1711423, 1711827, 1712218, 1712610, 1713015, 1713419, 1713820, 1714228, 1714636, 1715034, 1715438, 1715826, 1716226, 1716614, 1717031, 1717430]","[1708194, 1708594, 1708994, 1709394, 1709794, 1710194, 1710595, 1710994, 1711371, 1711771, 1712168, 1712555, 1712957, 1713359, 1713775, 1714171, 1714589, 1714974, 1715378, 1715765, 1716167, 1716572, 1716972, 1717379]",34,R,ITM,1.1,
4,600,trial,0,89,89,89,trial,"['C', 'C', 'C', 'C', 'C', 'C', 'C', 'C', 'C', 'C', 'C', 'C', 'C', 'C', 'C', 'C']","[1727624, 1728211, 1728805, 1729385, 1729980, 1730551, 1731133, 1731720, 1732289, 1732855, 1733451, 1734036, 1734636, 1735211, 1735785, 1736398]","[1727790, 1728379, 1728991, 1729551, 1730136, 1730712, 1731283, 1731863, 1732426, 1733021, 1733611, 1734214, 1734804, 1735394, 1735991, 1736584]","[1722887, 1723485, 1724085, 1724685, 1725285, 1725885, 1726485, 1727085, 1727649, 1728237, 1728831, 1729411, 1730007, 1730577, 1731159, 1731746, 1732315, 1732881, 1733477, 1734063, 1734662, 1735237, 1735812, 1736424]",34,R,ITM,1.1,
6,400,trial,0,90,90,90,trial,"['C', 'C', 'C', 'C', 'C', 'C', 'C', 'C', 'C', 'C', 'C', 'C', 'C', 'C', 'C', 'C']","[1745289, 1745680, 1746077, 1746489, 1746903, 1747306, 1747702, 1748090, 1748515, 1748923, 1749324, 1749731, 1750128, 1750525, 1750943, 1751344]","[1745391, 1745798, 1746190, 1746610, 1747016, 1747425, 1747805, 1748208, 1748632, 1749032, 1749424, 1749859, 1750245, 1750652, 1751065, 1751495]","[1742102, 1742502, 1742902, 1743302, 1743703, 1744102, 1744502, 1744903, 1745315, 1745707, 1746104, 1746516, 1746929, 1747334, 1747730, 1748118, 1748542, 1748950, 1749351, 1749757, 1750156, 1750552, 1750971, 1751370]",34,R,ITM,1.1,
2,600,trial,0,91,91,91,trial,"['C', 'C', 'C', 'C', 'C', 'C', 'C', 'C', 'C', 'C', 'C', 'C', 'C', 'C', 'C', 'C']","[1761787, 1762352, 1762961, 1763560, 1764127, 1764705, 1765274, 1765844, 1766421, 1767020, 1767577, 1768128, 1768674, 1769252, 1769816, 1770380]","[1761943, 1762526, 1763122, 1763730, 1764287, 1764843, 1765448, 1766028, 1766601, 1767185, 1767759, 1768279, 1768846, 1769420, 1770002, 1770585]","[1757052, 1757651, 1758252, 1758852, 1759453, 1760051, 1760652, 1761252, 1761815, 1762379, 1762989, 1763587, 1764155, 1764732, 1765302, 1765872, 1766448, 1767047, 1767605, 1768155, 1768700, 1769279, 1769843, 1770406]",34,R,ITM,1.1,
5,600,trial,0,92,92,92,trial,"['C', 'C', 'C', 'C', 'C', 'C', 'C', 'C', 'C', 'C', 'C', 'C', 'C', 'C', 'C', 'C']","[1780923, 1781514, 1782070, 1782641, 1783215, 1783760, 1784331, 1784931, 1785503, 1786088, 1786627, 1787216, 1787780, 1788329, 1788870, 1789441]","[1781109, 1781697, 1782247, 1782811, 1783376, 1783956, 1784512, 1785091, 1785684, 1786267, 1786825, 1787420, 1787959, 1788516, 1789071, 1789666]","[1776138, 1776737, 1777337, 1777937, 1778537, 1779137, 1779737, 1780337, 1780950, 1781540, 1782095, 1782667, 1783241, 1783787, 1784356, 1784956, 1785529, 1786114, 1786652, 1787243, 1787805, 1788355, 1788896, 1789467]",34,R,ITM,1.1,
5,400,trial,0,93,93,93,trial,"['C', 'C', 'C', 'C', 'C', 'C', 'C', 'C', 'C', 'C', 'C', 'C', 'C', 'C', 'C', 'C']","[1798064, 1798469, 1798862, 1799273, 1799662, 1800065, 1800452, 1800859, 1801265, 1801672, 1802072, 1802473, 1802881, 1803275, 1803675, 1804091]","[1798141, 1798565, 1798956, 1799362, 1799753, 1800156, 1800541, 1800950, 1801353, 1801755, 1802161, 1802557, 1802967, 1803373, 1803778, 1804211]","[1794903, 1795301, 1795701, 1796102, 1796501, 1796901, 1797301, 1797701, 1798089, 1798495, 1798888, 1799299, 1799688, 1800090, 1800477, 1800886, 1801290, 1801699, 1802097, 1802499, 1802906, 1803300, 1803701, 1804116]",34,R,ITM,1.1,
5,400,trial,0,94,94,94,trial,"['C', 'C', 'C', 'C', 'C', 'C', 'C', 'C', 'C', 'C', 'C', 'C', 'C', 'C', 'C', 'C']","[1812712, 1813123, 1813502, 1813892, 1814293, 1814670, 1815058, 1815449, 1815856, 1816247, 1816632, 1817021, 1817406, 1817792, 1818192, 1818569]","[1812799, 1813220, 1813587, 1814000, 1814387, 1814769, 1815144, 1815538, 1815955, 1816346, 1816718, 1817106, 1817506, 1817892, 1818301, 1818689]","[1809547, 1809946, 1810347, 1810746, 1811146, 1811547, 1811946, 1812346, 1812738, 1813149, 1813528, 1813918, 1814319, 1814695, 1815085, 1815475, 1815881, 1816272, 1816658, 1817047, 1817433, 1817819, 1818218, 1818595]",34,R,ITM,1.1,
3,400,trial,0,95,95,95,trial,"['C', 'C', 'C', 'C', 'C', 'C', 'C', 'C', 'C', 'C', 'C', 'C', 'C', 'C', 'C', 'C']","[1827200, 1827591, 1828003, 1828396, 1828772, 1829172, 1829572, 1829967, 1830377, 1830796, 1831196, 1831571, 1831991, 1832386, 1832795, 1833175]","[1827288, 1827699, 1828104, 1828499, 1828868, 1829268, 1829657, 1830049, 1830466, 1830886, 1831280, 1831673, 1832092, 1832480, 1832905, 1833323]","[1824051, 1824450, 1824850, 1825250, 1825650, 1826051, 1826450, 1826850, 1827225, 1827617, 1828029, 1828421, 1828799, 1829197, 1829598, 1829993, 1830403, 1830821, 1831222, 1831597, 1832017, 1832412, 1832820, 1833201]",34,R,ITM,1.1,
7,600,trial,0,96,96,96,trial,"['C', 'C', 'C', 'C', 'C', 'C', 'C', 'C', 'C', 'C', 'C', 'C', 'C', 'C', 'C', 'C']","[1843394, 1843957, 1844552, 1845164, 1845741, 1846313, 1846888, 1847474, 1848049, 1848601, 1849160, 1849740, 1850297, 1850868, 1851407, 1851973]","[1843542, 1844128, 1844714, 1845302, 1845909, 1846452, 1847028, 1847618, 1848181, 1848750, 1849316, 1849880, 1850436, 1851018, 1851565, 1852153]","[1838618, 1839217, 1839817, 1840417, 1841017, 1841617, 1842217, 1842818, 1843421, 1843984, 1844580, 1845190, 1845768, 1846340, 1846916, 1847500, 1848076, 1848629, 1849187, 1849766, 1850324, 1850895, 1851433, 1852001]",34,R,ITM,1.1,
7,400,trial,0,97,97,97,trial,"['C', 'C', 'C', 'C', 'C', 'C', 'C', 'C', 'C', 'C', 'C', 'C', 'C', 'C', 'C', 'C']","[1860646, 1861043, 1861439, 1861848, 1862249, 1862647, 1863052, 1863435, 1863862, 1864251, 1864659, 1865058, 1865467, 1865882, 1866302, 1866690]","[1860736, 1861151, 1861560, 1861963, 1862341, 1862757, 1863149, 1863541, 1863973, 1864370, 1864770, 1865172, 1865588, 1865995, 1866416, 1866824]","[1857468, 1857867, 1858268, 1858667, 1859067, 1859467, 1859867, 1860268, 1860673, 1861069, 1861466, 1861875, 1862277, 1862675, 1863078, 1863461, 1863888, 1864279, 1864687, 1865084, 1865494, 1865909, 1866329, 1866717]",34,R,ITM,1.1,
6,600,trial,0,98,98,98,trial,"['C', 'C', 'C', 'C', 'C', 'C', 'C', 'C', 'C', 'C', 'C', 'C', 'C', 'C', 'C', 'C']","[1876985, 1877590, 1878168, 1878794, 1879412, 1880000, 1880543, 1881138, 1881729, 1882331, 1882917, 1883487, 1884080, 1884674, 1885243, 1885816]","[1877117, 1877771, 1878324, 1878910, 1879539, 1880156, 1880718, 1881310, 1881930, 1882521, 1883110, 1883672, 1884247, 1884836, 1885413, 1886007]","[1872243, 1872843, 1873443, 1874043, 1874643, 1875244, 1875844, 1876444, 1877012, 1877616, 1878195, 1878820, 1879440, 1880028, 1880569, 1881164, 1881755, 1882357, 1882944, 1883513, 1884106, 1884700, 1885270, 1885843]",34,R,ITM,1.1,
4,400,trial,0,99,99,99,trial,"['C', 'C', 'C', 'C', 'C', 'C', 'C', 'C', 'C', 'C', 'C', 'C', 'C', 'C', 'C', 'C']","[1894336, 1894744, 1895168, 1895555, 1895956, 1896348, 1896747, 1897139, 1897560, 1897970, 1898349, 1898740, 1899151, 1899551, 1899955, 1900328]","[1894433, 1894860, 1895275, 1895662, 1896052, 1896446, 1896838, 1897245, 1897667, 1898068, 1898454, 1898854, 1899253, 1899671, 1900063, 1900455]","[1891185, 1891585, 1891984, 1892384, 1892785, 1893184, 1893584, 1893984, 1894362, 1894769, 1895193, 1895580, 1895982, 1896374, 1896772, 1897164, 1897585, 1897996, 1898375, 1898766, 1899176, 1899577, 1899980, 1900355]",34,R,ITM,1.1,
2,400,trial,0,100,100,100,trial,"['C', 'C', 'C', 'C', 'C', 'C', 'C', 'C', 'C', 'C', 'C', 'C', 'C', 'C', 'C', 'C']","[1909191, 1909592, 1909977, 1910380, 1910774, 1911159, 1911567, 1911953, 1912316, 1912722, 1913138, 1913551, 1913954, 1914344, 1914718, 1915133]","[1909273, 1909688, 1910078, 1910481, 1910875, 1911258, 1911645, 1912033, 1912415, 1912801, 1913224, 1913643, 1914041, 1914427, 1914816, 1915216]","[1906019, 1906419, 1906820, 1907219, 1907618, 1908020, 1908419, 1908820, 1909219, 1909619, 1910004, 1910407, 1910802, 1911187, 1911593, 1911981, 1912344, 1912749, 1913164, 1913578, 1913981, 1914372, 1914745, 1915161]",34,R,ITM,1.1,
2,600,trial,0,101,101,101,trial,"['C', 'C', 'C', 'C', 'C', 'C', 'C', 'C', 'C', 'C', 'C', 'C', 'C', 'C', 'C', 'C']","[1925585, 1926144, 1926725, 1927303, 1927896, 1928504, 1929059, 1929669, 1930244, 1930844, 1931438, 1932022, 1932605, 1933201, 1933782, 1934406]","[1925725, 1926291, 1926882, 1927429, 1928055, 1928639, 1929217, 1929831, 1930388, 1930959, 1931585, 1932174, 1932733, 1933351, 1933928, 1934561]","[1920827, 1921426, 1922026, 1922627, 1923227, 1923827, 1924427, 1925026, 1925613, 1926171, 1926753, 1927330, 1927923, 1928531, 1929085, 1929696, 1930271, 1930870, 1931464, 1932050, 1932633, 1933229, 1933808, 1934434]",34,R,ITM,1.1,
4,600,trial,0,102,102,102,trial,"['C', 'C', 'C', 'C', 'C', 'C', 'C', 'C', 'C', 'C', 'C', 'C', 'C', 'C', 'C', 'C']","[1944738, 1945315, 1945896, 1946529, 1947108, 1947678, 1948291, 1948870, 1949464, 1950054, 1950641, 1951229, 1951801, 1952398, 1952970, 1953585]","[1944904, 1945459, 1946067, 1946668, 1947279, 1947867, 1948430, 1949062, 1949656, 1950234, 1950843, 1951408, 1952003, 1952605, 1953155, 1953787]","[1939949, 1940548, 1941148, 1941748, 1942348, 1942948, 1943548, 1944148, 1944764, 1945340, 1945922, 1946555, 1947133, 1947704, 1948316, 1948896, 1949490, 1950081, 1950667, 1951255, 1951826, 1952424, 1952996, 1953610]",34,R,ITM,1.1,
5,400,trial,0,103,103,103,trial,"['C', 'C', 'C', 'C', 'C', 'C', 'C', 'C', 'C', 'C', 'C', 'C', 'C', 'C', 'C', 'C']","[1962303, 1962717, 1963120, 1963513, 1963914, 1964340, 1964748, 1965165, 1965595, 1966003, 1966397, 1966803, 1967196, 1967619, 1968030, 1968457]","[1962408, 1962818, 1963232, 1963631, 1964027, 1964449, 1964869, 1965280, 1965717, 1966116, 1966508, 1966914, 1967321, 1967738, 1968156, 1968595]","[1959122, 1959521, 1959921, 1960322, 1960721, 1961121, 1961522, 1961922, 1962330, 1962742, 1963146, 1963539, 1963940, 1964366, 1964774, 1965192, 1965621, 1966028, 1966423, 1966829, 1967221, 1967644, 1968056, 1968483]",34,R,ITM,1.1,
2,600,trial,0,104,104,104,trial,"['C', 'C', 'C', 'C', 'C', 'C', 'C', 'C', 'C', 'C', 'C', 'C', 'C', 'C', 'C', 'C']","[1978642, 1979197, 1979779, 1980379, 1980968, 1981541, 1982161, 1982726, 1983308, 1983892, 1984455, 1985052, 1985634, 1986187, 1986756, 1987306]","[1978790, 1979373, 1979970, 1980578, 1981155, 1981747, 1982346, 1982929, 1983522, 1984084, 1984660, 1985231, 1985807, 1986373, 1986951, 1987566]","[1973875, 1974475, 1975074, 1975675, 1976275, 1976876, 1977476, 1978075, 1978669, 1979224, 1979806, 1980405, 1980995, 1981568, 1982188, 1982753, 1983336, 1983919, 1984482, 1985080, 1985660, 1986214, 1986784, 1987333]",34,R,ITM,1.1,
5,600,trial,0,105,105,105,trial,"['C', 'C', 'C', 'C', 'C', 'C', 'C', 'C', 'C', 'C', 'C', 'C', 'C', 'C', 'C', 'C']","[1997810, 1998388, 1998971, 1999565, 2000150, 2000758, 2001315, 2001906, 2002477, 2003055, 2003628, 2004193, 2004771, 2005349, 2005905, 2006496]","[1997993, 1998606, 1999180, 1999794, 2000386, 2000959, 2001516, 2002120, 2002664, 2003241, 2003828, 2004419, 2004945, 2005548, 2006097, 2006706]","[1993035, 1993635, 1994235, 1994835, 1995436, 1996036, 1996636, 1997235, 1997837, 1998413, 1998997, 1999592, 2000176, 2000784, 2001341, 2001932, 2002503, 2003081, 2003653, 2004219, 2004797, 2005374, 2005931, 2006521]",34,R,ITM,1.1,
3,400,trial,0,106,106,106,trial,"['C', 'C', 'C', 'C', 'C', 'C', 'C', 'C', 'C', 'C', 'C', 'C', 'C', 'C', 'C', 'C']","[2015096, 2015495, 2015886, 2016285, 2016684, 2017080, 2017475, 2017878, 2018291, 2018701, 2019084, 2019500, 2019890, 2020288, 2020704, 2021092]","[2015193, 2015600, 2015995, 2016390, 2016776, 2017182, 2017585, 2017989, 2018387, 2018801, 2019200, 2019610, 2020002, 2020415, 2020832, 2021234]","[2011916, 2012315, 2012716, 2013115, 2013515, 2013916, 2014315, 2014715, 2015122, 2015520, 2015911, 2016311, 2016709, 2017105, 2017501, 2017903, 2018317, 2018726, 2019109, 2019525, 2019915, 2020314, 2020729, 2021117]",34,R,ITM,1.1,
7,600,trial,0,107,107,107,trial,"['C', 'C', 'C', 'C', 'C', 'C', 'C', 'C', 'C', 'C', 'C', 'C', 'C', 'C', 'C', 'C']","[2031424, 2031981, 2032544, 2033127, 2033685, 2034260, 2034820, 2035417, 2035991, 2036542, 2037114, 2037709, 2038297, 2038849, 2039424, 2039994]","[2031580, 2032133, 2032703, 2033315, 2033867, 2034419, 2035010, 2035572, 2036165, 2036722, 2037303, 2037929, 2038479, 2039040, 2039622, 2040186]","[2026640, 2027240, 2027840, 2028440, 2029040, 2029640, 2030240, 2030840, 2031451, 2032009, 2032571, 2033155, 2033713, 2034286, 2034847, 2035443, 2036018, 2036570, 2037142, 2037736, 2038324, 2038876, 2039450, 2040022]",34,R,ITM,1.1,
2,600,trial,0,108,108,108,trial,"['C', 'C', 'C', 'C', 'C', 'C', 'C', 'C', 'C', 'C', 'C', 'C', 'C', 'C', 'C', 'C']","[2050266, 2050861, 2051439, 2052003, 2052593, 2053178, 2053754, 2054368, 2054941, 2055503, 2056090, 2056660, 2057248, 2057801, 2058357, 2058961]","[2050432, 2051041, 2051641, 2052198, 2052779, 2053378, 2053960, 2054551, 2055130, 2055701, 2056282, 2056848, 2057436, 2057938, 2058553, 2059167]","[2045480, 2046080, 2046681, 2047281, 2047881, 2048481, 2049081, 2049680, 2050293, 2050888, 2051466, 2052031, 2052621, 2053204, 2053782, 2054395, 2054969, 2055530, 2056117, 2056686, 2057275, 2057829, 2058384, 2058988]",34,R,ITM,1.1,
4,600,trial,0,109,109,109,trial,"['C', 'C', 'C', 'C', 'C', 'C', 'C', 'C', 'C', 'C', 'C', 'C', 'C', 'C', 'C', 'C']","[2069455, 2070012, 2070593, 2071180, 2071737, 2072310, 2072853, 2073456, 2074039, 2074622, 2075203, 2075779, 2076358, 2076931, 2077519, 2078070]","[2069621, 2070192, 2070781, 2071364, 2071901, 2072442, 2073020, 2073649, 2074249, 2074829, 2075387, 2075979, 2076536, 2077092, 2077685, 2078300]","[2064702, 2065302, 2065902, 2066502, 2067102, 2067702, 2068302, 2068902, 2069481, 2070038, 2070619, 2071205, 2071762, 2072336, 2072879, 2073482, 2074064, 2074647, 2075229, 2075804, 2076384, 2076957, 2077545, 2078096]",34,R,ITM,1.1,
7,600,trial,0,110,110,110,trial,"['C', 'C', 'C', 'C', 'C', 'C', 'C', 'C', 'C', 'C', 'C', 'C', 'C', 'C', 'C', 'C']","[2088203, 2088765, 2089360, 2089947, 2090527, 2091115, 2091687, 2092239, 2092849, 2093455, 2094038, 2094580, 2095195, 2095747, 2096329, 2096910]","[2088378, 2088984, 2089539, 2090155, 2090712, 2091302, 2091885, 2092431, 2093043, 2093636, 2094235, 2094759, 2095374, 2095926, 2096524, 2097143]","[2083414, 2084014, 2084614, 2085214, 2085814, 2086414, 2087014, 2087614, 2088229, 2088792, 2089388, 2089974, 2090555, 2091142, 2091714, 2092267, 2092875, 2093481, 2094065, 2094608, 2095221, 2095773, 2096356, 2096936]",34,R,ITM,1.1,
6,600,trial,0,111,111,111,trial,"['C', 'C', 'C', 'C', 'C', 'C', 'C', 'C', 'C', 'C', 'C', 'C', 'C', 'C', 'C', 'C']","[2107257, 2107857, 2108467, 2109088, 2109671, 2110235, 2110771, 2111329, 2111908, 2112500, 2113059, 2113636, 2114206, 2114785, 2115359, 2115938]","[2107427, 2108023, 2108643, 2109236, 2109838, 2110394, 2110897, 2111461, 2112065, 2112654, 2113216, 2113815, 2114380, 2114956, 2115531, 2116149]","[2102457, 2103056, 2103656, 2104256, 2104856, 2105456, 2106056, 2106656, 2107284, 2107885, 2108493, 2109115, 2109698, 2110262, 2110797, 2111355, 2111936, 2112527, 2113086, 2113662, 2114233, 2114811, 2115386, 2115964]",34,R,ITM,1.1,
5,400,trial,0,112,112,112,trial,"['C', 'C', 'C', 'C', 'C', 'C', 'C', 'C', 'C', 'C', 'C', 'C', 'C', 'C', 'C', 'C']","[2124661, 2125046, 2125455, 2125859, 2126247, 2126666, 2127047, 2127451, 2127853, 2128260, 2128638, 2129067, 2129439, 2129828, 2130232, 2130620]","[2124765, 2125160, 2125553, 2125968, 2126358, 2126778, 2127164, 2127582, 2127970, 2128359, 2128751, 2129181, 2129559, 2129944, 2130340, 2130768]","[2121508, 2121907, 2122307, 2122707, 2123107, 2123507, 2123908, 2124307, 2124687, 2125072, 2125480, 2125885, 2126274, 2126692, 2127073, 2127477, 2127879, 2128285, 2128665, 2129093, 2129465, 2129855, 2130258, 2130647]",34,R,ITM,1.1,
7,400,trial,0,113,113,113,trial,"['C', 'C', 'C', 'C', 'C', 'C', 'C', 'C', 'C', 'C', 'C', 'C', 'C', 'C', 'C', 'C']","[2139301, 2139711, 2140122, 2140519, 2140945, 2141337, 2141754, 2142150, 2142564, 2142969, 2143372, 2143778, 2144157, 2144548, 2144962, 2145368]","[2139387, 2139819, 2140216, 2140621, 2141039, 2141447, 2141854, 2142261, 2142657, 2143057, 2143459, 2143857, 2144237, 2144628, 2145046, 2145486]","[2136107, 2136506, 2136906, 2137307, 2137706, 2138106, 2138506, 2138906, 2139329, 2139739, 2140148, 2140547, 2140973, 2141365, 2141782, 2142177, 2142590, 2142997, 2143399, 2143805, 2144184, 2144575, 2144989, 2145394]",34,R,ITM,1.1,
4,400,trial,0,114,114,114,trial,"['C', 'C', 'C', 'C', 'C', 'C', 'C', 'C', 'C', 'C', 'C', 'C', 'C', 'C', 'C', 'C']","[2154104, 2154505, 2154887, 2155289, 2155683, 2156081, 2156480, 2156876, 2157262, 2157638, 2158064, 2158469, 2158861, 2159251, 2159632, 2160041]","[2154210, 2154606, 2154991, 2155398, 2155786, 2156182, 2156573, 2156952, 2157360, 2157748, 2158162, 2158565, 2158959, 2159341, 2159723, 2160150]","[2150938, 2151339, 2151738, 2152138, 2152539, 2152938, 2153338, 2153738, 2154130, 2154530, 2154912, 2155315, 2155709, 2156106, 2156506, 2156903, 2157288, 2157664, 2158091, 2158494, 2158886, 2159277, 2159657, 2160067]",34,R,ITM,1.1,
2,400,trial,0,115,115,115,trial,"['C', 'C', 'C', 'C', 'C', 'C', 'C', 'C', 'C', 'C', 'C', 'C', 'C', 'C', 'C', 'C']","[2168904, 2169300, 2169702, 2170106, 2170508, 2170892, 2171294, 2171700, 2172095, 2172487, 2172867, 2173263, 2173650, 2174045, 2174456, 2174864]","[2169005, 2169420, 2169799, 2170208, 2170607, 2171002, 2171413, 2171801, 2172197, 2172585, 2172962, 2173373, 2173749, 2174146, 2174550, 2174974]","[2165707, 2166108, 2166506, 2166907, 2167306, 2167707, 2168108, 2168507, 2168932, 2169326, 2169730, 2170133, 2170534, 2170919, 2171321, 2171727, 2172123, 2172515, 2172895, 2173290, 2173677, 2174071, 2174483, 2174891]",34,R,ITM,1.1,
7,400,trial,0,116,116,116,trial,"['C', 'C', 'C', 'C', 'C', 'C', 'C', 'C', 'C', 'C', 'C', 'C', 'C', 'C', 'C', 'C']","[2183438, 2183845, 2184248, 2184653, 2185073, 2185481, 2185864, 2186260, 2186659, 2187055, 2187445, 2187850, 2188236, 2188639, 2189045, 2189456]","[2183542, 2183959, 2184359, 2184763, 2185172, 2185575, 2185962, 2186364, 2186753, 2187146, 2187538, 2187932, 2188335, 2188733, 2189131, 2189551]","[2180239, 2180638, 2181039, 2181438, 2181838, 2182238, 2182638, 2183038, 2183464, 2183872, 2184275, 2184680, 2185101, 2185507, 2185891, 2186287, 2186687, 2187082, 2187472, 2187878, 2188264, 2188665, 2189072, 2189484]",34,R,ITM,1.1,
6,400,trial,0,117,117,117,trial,"['C', 'C', 'C', 'C', 'C', 'C', 'C', 'C', 'C', 'C', 'C', 'C', 'C', 'C', 'C', 'C']","[2198363, 2198766, 2199156, 2199541, 2199956, 2200358, 2200758, 2201143, 2201532, 2201938, 2202333, 2202724, 2203120, 2203509, 2203885, 2204273]","[2198457, 2198858, 2199248, 2199645, 2200044, 2200453, 2200848, 2201236, 2201631, 2202022, 2202419, 2202811, 2203211, 2203589, 2203964, 2204379]","[2195202, 2195601, 2196001, 2196402, 2196801, 2197201, 2197601, 2198001, 2198389, 2198794, 2199183, 2199568, 2199983, 2200385, 2200785, 2201169, 2201559, 2201966, 2202359, 2202750, 2203148, 2203537, 2203912, 2204300]",34,R,ITM,1.1,
3,600,trial,0,118,118,118,trial,"['C', 'C', 'C', 'C', 'C', 'C', 'C', 'C', 'C', 'C', 'C', 'C', 'C', 'C', 'C', 'C']","[2214804, 2215415, 2215981, 2216597, 2217172, 2217757, 2218366, 2218939, 2219526, 2220132, 2220733, 2221352, 2221929, 2222514, 2223094, 2223676]","[2214984, 2215566, 2216163, 2216732, 2217335, 2217909, 2218506, 2219105, 2219680, 2220288, 2220886, 2221489, 2222071, 2222686, 2223254, 2223842]","[2210061, 2210660, 2211260, 2211860, 2212460, 2213060, 2213660, 2214260, 2214830, 2215441, 2216006, 2216623, 2217198, 2217783, 2218392, 2218964, 2219551, 2220157, 2220759, 2221379, 2221955, 2222539, 2223120, 2223702]",34,R,ITM,1.1,
5,600,trial,0,119,119,119,trial,"['C', 'C', 'C', 'C', 'C', 'C', 'C', 'C', 'C', 'C', 'C', 'C', 'C', 'C', 'C', 'C']","[2233997, 2234580, 2235182, 2235786, 2236359, 2236916, 2237521, 2238111, 2238715, 2239318, 2239921, 2240492, 2241076, 2241645, 2242221, 2242802]","[2234126, 2234730, 2235308, 2235923, 2236486, 2237037, 2237676, 2238269, 2238864, 2239459, 2240064, 2240631, 2241210, 2241816, 2242380, 2242981]","[2229263, 2229863, 2230463, 2231063, 2231663, 2232263, 2232863, 2233463, 2234022, 2234606, 2235207, 2235811, 2236385, 2236942, 2237547, 2238137, 2238742, 2239344, 2239946, 2240518, 2241102, 2241672, 2242246, 2242828]",34,R,ITM,1.1,
3,400,trial,0,120,120,120,trial,"['C', 'C', 'C', 'C', 'C', 'C', 'C', 'C', 'C', 'C', 'C', 'C', 'C', 'C', 'C', 'C']","[2251760, 2252146, 2252561, 2252964, 2253361, 2253765, 2254162, 2254563, 2254961, 2255373, 2255770, 2256180, 2256575, 2256959, 2257363, 2257759]","[2251868, 2252260, 2252662, 2253079, 2253470, 2253859, 2254275, 2254663, 2255053, 2255471, 2255868, 2256268, 2256662, 2257048, 2257441, 2257860]","[2248603, 2249003, 2249402, 2249802, 2250203, 2250602, 2251002, 2251402, 2251786, 2252172, 2252587, 2252990, 2253386, 2253791, 2254188, 2254588, 2254987, 2255398, 2255796, 2256206, 2256601, 2256985, 2257389, 2257784]",34,R,ITM,1.1,
4,400,trial,0,121,121,121,trial,"['C', 'C', 'C', 'C', 'C', 'C', 'C', 'C', 'C', 'C', 'C', 'C', 'C', 'C', 'C', 'C']","[2266400, 2266782, 2267183, 2267579, 2267986, 2268370, 2268771, 2269169, 2269569, 2269961, 2270364, 2270752, 2271156, 2271548, 2271953, 2272353]","[2266486, 2266878, 2267272, 2267667, 2268061, 2268449, 2268846, 2269251, 2269647, 2270031, 2270434, 2270833, 2271238, 2271638, 2272051, 2272453]","[2263247, 2263647, 2264047, 2264448, 2264847, 2265247, 2265648, 2266047, 2266426, 2266808, 2267209, 2267604, 2268012, 2268396, 2268796, 2269195, 2269595, 2269986, 2270390, 2270779, 2271182, 2271574, 2271979, 2272378]",34,R,ITM,1.1,
6,600,trial,0,122,122,122,trial,"['C', 'C', 'C', 'C', 'C', 'C', 'C', 'C', 'C', 'C', 'C', 'C', 'C', 'C', 'C', 'C']","[2282800, 2283364, 2283972, 2284565, 2285129, 2285715, 2286308, 2286931, 2287495, 2288063, 2288626, 2289243, 2289817, 2290382, 2290948, 2291525]","[2282952, 2283579, 2284116, 2284697, 2285293, 2285873, 2286464, 2287043, 2287616, 2288189, 2288771, 2289386, 2289957, 2290499, 2291081, 2291659]","[2278035, 2278634, 2279234, 2279834, 2280434, 2281034, 2281634, 2282234, 2282826, 2283390, 2283999, 2284592, 2285156, 2285743, 2286334, 2286958, 2287522, 2288091, 2288654, 2289269, 2289844, 2290409, 2290975, 2291553]",34,R,ITM,1.1,
2,400,trial,0,123,123,123,trial,"['C', 'C', 'C', 'C', 'C', 'C', 'C', 'C', 'C', 'C', 'C', 'C', 'C', 'C', 'C', 'C']","[2300238, 2300640, 2301039, 2301440, 2301819, 2302220, 2302616, 2303010, 2303410, 2303803, 2304193, 2304587, 2305003, 2305384, 2305781, 2306165]","[2300341, 2300754, 2301142, 2301536, 2301918, 2302308, 2302714, 2303097, 2303472, 2303882, 2304277, 2304662, 2305079, 2305478, 2305867, 2306253]","[2297030, 2297431, 2297830, 2298230, 2298630, 2299029, 2299429, 2299830, 2300265, 2300666, 2301067, 2301467, 2301847, 2302246, 2302644, 2303037, 2303436, 2303830, 2304221, 2304615, 2305030, 2305412, 2305808, 2306193]",34,R,ITM,1.1,
3,600,trial,0,124,124,124,trial,"['C', 'C', 'C', 'C', 'C', 'C', 'C', 'C', 'C', 'C', 'C', 'C', 'C', 'C', 'C', 'C']","[2316284, 2316874, 2317465, 2318039, 2318608, 2319183, 2319739, 2320306, 2320851, 2321409, 2321973, 2322525, 2323112, 2323685, 2324235, 2324786]","[2316425, 2317007, 2317580, 2318155, 2318707, 2319280, 2319834, 2320403, 2320976, 2321520, 2322070, 2322653, 2323224, 2323804, 2324368, 2324950]","[2311558, 2312157, 2312757, 2313357, 2313957, 2314557, 2315157, 2315757, 2316310, 2316900, 2317491, 2318065, 2318633, 2319209, 2319765, 2320331, 2320877, 2321434, 2321998, 2322550, 2323138, 2323710, 2324260, 2324811]",34,R,ITM,1.1,
6,400,trial,0,125,125,125,trial,"['C', 'C', 'C', 'C', 'C', 'C', 'C', 'C', 'C', 'C', 'C', 'C', 'C', 'C', 'C', 'C']","[2333604, 2334022, 2334420, 2334815, 2335218, 2335624, 2336032, 2336437, 2336815, 2337225, 2337610, 2338001, 2338400, 2338785, 2339190, 2339595]","[2333698, 2334119, 2334516, 2334915, 2335309, 2335715, 2336125, 2336520, 2336906, 2337300, 2337693, 2338087, 2338488, 2338873, 2339265, 2339664]","[2330423, 2330822, 2331223, 2331622, 2332022, 2332423, 2332822, 2333222, 2333631, 2334049, 2334448, 2334841, 2335245, 2335650, 2336060, 2336463, 2336841, 2337253, 2337638, 2338029, 2338426, 2338811, 2339217, 2339621]",34,R,ITM,1.1,
