octave,ioi,event,.thisRepN,.thisTrialN,.thisN,.thisIndex,event,tap_types,tap_times,release_times,tone_times,subject,handedness,experiment,version,
,,SPR,0,-1,-1,0,SPR,"['P', 'P', 'P', 'P', 'P', 'P', 'P', 'P', 'P', 'P', 'P', 'P', 'P', 'P', 'P', 'P', 'P', 'P', 'P', 'P', 'P', 'P', 'P', 'P', 'P', 'P', 'P', 'P', 'P', 'P']","[41797, 42567, 43433, 44358, 45340, 46221, 47172, 48034, 48902, 49756, 50571, 51420, 52270, 53158, 53999, 54776, 55609, 56409, 57239, 58070, 58925, 59734, 60605, 61419, 62285, 63079, 63951, 64700, 65545, 66428]","[41940, 42742, 43591, 44517, 45472, 46383, 47332, 48201, 49058, 49904, 50696, 51560, 52403, 53284, 54161, 54860, 55709, 56524, 57357, 58213, 59094, 59881, 60738, 61502, 62410, 63254, 64092, 64846, 65730, 66564]",,27,R,ITM,1.1,
7,500,practice,0,0,0,0,practice,"['S', 'S', 'S', 'S', 'S', 'S', 'S', 'C', 'C', 'C', 'C', 'C', 'C', 'C', 'C', 'C', 'C', 'C', 'C', 'C', 'C', 'C', 'C']","[146502, 146961, 147473, 148012, 148535, 149042, 149571, 150089, 150557, 151052, 151497, 152002, 152477, 152975, 153458, 153973, 154423, 154941, 155408, 155887, 156322, 156797, 157281]","[146591, 147050, 147572, 148101, 148641, 149137, 149643, 150196, 150646, 151150, 151584, 152094, 152559, 153061, 153544, 154033, 154528, 155010, 155472, 155953, 156395, 156862, 157330]","[146132, 146632, 147132, 147633, 148132, 148632, 149132, 149633, 150116, 150585, 151079, 151524, 152029, 152504, 153001, 153486, 154000, 154449, 154969, 155436, 155915, 156350, 156824, 157308]",27,R,ITM,1.1,
2,500,practice,0,1,1,1,practice,"['S', 'S', 'S', 'S', 'S', 'S', 'S', 'C', 'C', 'C', 'C', 'C', 'C', 'C', 'C', 'C', 'C', 'C', 'C', 'C', 'C', 'C', 'C']","[163367, 163865, 164376, 164900, 165422, 165921, 166439, 166961, 167460, 167915, 168420, 168937, 169411, 169904, 170366, 170854, 171355, 171828, 172299, 172807, 173250, 173771, 174265]","[163432, 163962, 164455, 164989, 165502, 166025, 166516, 167032, 167526, 167996, 168499, 169007, 169481, 169975, 170435, 170928, 171427, 171895, 172370, 172872, 173316, 173835, 174333]","[162989, 163489, 163989, 164489, 164988, 165488, 165988, 166489, 166987, 167488, 167943, 168448, 168965, 169439, 169931, 170394, 170881, 171382, 171855, 172326, 172833, 173278, 173799, 174292]",27,R,ITM,1.1,
3,500,practice,0,2,2,2,practice,"['S', 'S', 'S', 'S', 'S', 'S', 'S', 'C', 'C', 'C', 'C', 'C', 'C', 'C', 'C', 'C', 'C', 'C', 'C', 'C', 'C', 'C', 'C']","[180249, 180718, 181242, 181749, 182236, 182747, 183275, 183744, 184244, 184738, 185202, 185691, 186152, 186658, 187140, 187596, 188108, 188559, 189010, 189487, 189981, 190445, 190914]","[180318, 180808, 181323, 181843, 182319, 182843, 183336, 183819, 184309, 184800, 185265, 185752, 186226, 186732, 187193, 187662, 188175, 188611, 189064, 189560, 190040, 190519, 190982]","[179860, 180359, 180859, 181359, 181859, 182360, 182859, 183359, 183770, 184269, 184764, 185228, 185716, 186178, 186684, 187165, 187622, 188134, 188584, 189036, 189512, 190007, 190471, 190940]",27,R,ITM,1.1,
6,500,practice,0,3,3,3,practice,"['S', 'S', 'S', 'S', 'S', 'S', 'S', 'C', 'C', 'C', 'C', 'C', 'C', 'C', 'C', 'C', 'C', 'C', 'C', 'C', 'C', 'C', 'C']","[196746, 197294, 197820, 198347, 198867, 199347, 199844, 200344, 200847, 201315, 201783, 202285, 202763, 203246, 203694, 204181, 204650, 205142, 205600, 206076, 206531, 207037, 207501]","[196816, 197376, 197938, 198425, 198947, 199433, 199926, 200424, 200906, 201401, 201838, 202345, 202825, 203307, 203756, 204223, 204702, 205195, 205642, 206136, 206592, 207099, 207560]","[196468, 196967, 197468, 197967, 198467, 198967, 199468, 199967, 200371, 200873, 201342, 201809, 202311, 202789, 203273, 203720, 204209, 204677, 205168, 205627, 206104, 206559, 207065, 207527]",27,R,ITM,1.1,
4,500,practice,0,4,4,4,practice,"['S', 'S', 'S', 'S', 'S', 'S', 'S', 'C', 'C', 'C', 'C', 'C', 'C', 'C', 'C', 'C', 'C', 'C', 'C', 'C', 'C', 'C', 'C']","[213195, 213708, 214232, 214768, 215247, 215768, 216271, 216780, 217298, 217780, 218254, 218747, 219224, 219707, 220179, 220710, 221209, 221686, 222155, 222652, 223118, 223633, 224097]","[213268, 213789, 214321, 214850, 215326, 215837, 216338, 216840, 217355, 217845, 218315, 218812, 219294, 219774, 220255, 220749, 221276, 221748, 222223, 222711, 223180, 223700, 224158]","[212891, 213391, 213892, 214391, 214891, 215391, 215891, 216391, 216806, 217324, 217805, 218280, 218773, 219249, 219732, 220205, 220737, 221235, 221712, 222181, 222678, 223143, 223659, 224123]",27,R,ITM,1.1,
5,500,practice,0,5,5,5,practice,"['S', 'S', 'S', 'S', 'S', 'S', 'S', 'C', 'C', 'C', 'C', 'C', 'C', 'C', 'C', 'C', 'C', 'C', 'C', 'C', 'C', 'C', 'C']","[230213, 230750, 231272, 231780, 232260, 232738, 233250, 233771, 234261, 234772, 235265, 235738, 236230, 236716, 237203, 237697, 238211, 238672, 239130, 239681, 240142, 240633, 241113]","[230294, 230836, 231348, 231868, 232338, 232834, 233345, 233856, 234327, 234843, 235318, 235801, 236306, 236787, 237282, 237763, 238271, 238738, 239199, 239736, 240200, 240696, 241186]","[229898, 230398, 230898, 231398, 231899, 232398, 232898, 233398, 233796, 234287, 234798, 235290, 235763, 236256, 236742, 237230, 237722, 238237, 238698, 239157, 239707, 240167, 240659, 241138]",27,R,ITM,1.1,
3,600,trial,0,6,6,6,trial,"['S', 'S', 'S', 'S', 'S', 'S', 'S', 'S', 'C', 'C', 'C', 'C', 'C', 'C', 'C', 'C', 'C', 'C', 'C', 'C', 'C', 'C', 'C', 'C']","[289953, 290574, 290894, 291381, 291996, 292591, 293229, 293804, 294373, 294973, 295599, 296166, 296778, 297326, 297907, 298527, 299101, 299760, 300329, 300913, 301518, 302103, 302696, 303282]","[290024, 290660, 290990, 291481, 292083, 292659, 293283, 293863, 294430, 295041, 295671, 296236, 296840, 297366, 297956, 298589, 299164, 299822, 300404, 301000, 301586, 302161, 302770, 303324]","[289675, 290275, 290875, 291475, 292075, 292675, 293275, 293875, 294398, 294999, 295624, 296192, 296804, 297352, 297932, 298553, 299126, 299786, 300355, 300939, 301544, 302129, 302722, 303307]",27,R,ITM,1.1,
2,600,trial,0,7,7,7,trial,"['S', 'S', 'S', 'S', 'S', 'S', 'S', 'S', 'C', 'C', 'C', 'C', 'C', 'C', 'C', 'C', 'C', 'C', 'C', 'C', 'C', 'C', 'C', 'C']","[309218, 309488, 310097, 310692, 311301, 311899, 312508, 313074, 313648, 314278, 314869, 315463, 316025, 316589, 317181, 317745, 318295, 318888, 319476, 320050, 320658, 321226, 321804, 322386]","[309304, 309588, 310218, 310795, 311384, 311977, 312594, 313162, 313731, 314377, 314962, 315527, 316116, 316666, 317252, 317824, 318362, 318966, 319556, 320119, 320704, 321308, 321888, 322464]","[308959, 309559, 310158, 310759, 311358, 311959, 312559, 313159, 313674, 314305, 314896, 315491, 316053, 316615, 317208, 317772, 318321, 318916, 319503, 320077, 320685, 321254, 321831, 322414]",27,R,ITM,1.1,
4,400,trial,0,8,8,8,trial,"['S', 'S', 'S', 'S', 'S', 'S', 'S', 'C', 'C', 'C', 'C', 'C', 'C', 'C', 'C', 'C', 'C', 'C', 'C', 'C', 'C', 'C', 'C']","[328337, 328649, 329204, 329583, 329985, 330409, 330826, 331229, 331595, 331960, 332340, 332789, 333151, 333559, 333933, 334313, 334734, 335091, 335498, 335880, 336292, 336709, 337105]","[328430, 328735, 329285, 329663, 330067, 330494, 330890, 331291, 331662, 332023, 332402, 332838, 333217, 333622, 333978, 334383, 334780, 335150, 335546, 335947, 336361, 336759, 337174]","[328145, 328544, 328944, 329345, 329744, 330144, 330545, 330944, 331254, 331621, 331985, 332365, 332815, 333176, 333586, 333959, 334339, 334759, 335117, 335523, 335905, 336318, 336735, 337132]",27,R,ITM,1.1,
3,400,trial,0,9,9,9,trial,"['S', 'S', 'S', 'S', 'S', 'S', 'S', 'S', 'C', 'C', 'C', 'C', 'C', 'C', 'C', 'C', 'C', 'C', 'C', 'C', 'C', 'C', 'C', 'C']","[342899, 343189, 343504, 343828, 344235, 344623, 345010, 345371, 345784, 346212, 346605, 346999, 347396, 347832, 348211, 348597, 349031, 349415, 349799, 350202, 350607, 350992, 351398, 351783]","[342991, 343272, 343566, 343907, 344299, 344668, 345080, 345418, 345839, 346248, 346650, 347052, 347440, 347857, 348272, 348647, 349070, 349469, 349868, 350257, 350665, 351071, 351462, 351853]","[342681, 343080, 343480, 343880, 344281, 344680, 345080, 345480, 345809, 346237, 346631, 347025, 347421, 347857, 348236, 348622, 349057, 349441, 349825, 350228, 350632, 351017, 351424, 351809]",27,R,ITM,1.1,
5,400,trial,0,10,10,10,trial,"['S', 'S', 'S', 'S', 'S', 'S', 'S', 'C', 'C', 'C', 'C', 'C', 'C', 'C', 'C', 'C', 'C', 'C', 'C', 'C', 'C', 'C', 'C']","[357772, 358136, 358561, 358993, 359343, 359766, 360192, 360573, 361042, 361420, 361810, 362171, 362568, 362975, 363375, 363764, 364172, 364574, 364972, 365372, 365748, 366166, 366570]","[357846, 358213, 358615, 359043, 359384, 359786, 360245, 360621, 361078, 361460, 361843, 362219, 362615, 363039, 363416, 363823, 364218, 364618, 365006, 365398, 365791, 366203, 366626]","[357454, 357854, 358254, 358654, 359054, 359454, 359855, 360254, 360599, 361068, 361446, 361836, 362196, 362594, 363000, 363401, 363790, 364198, 364601, 364997, 365398, 365774, 366191, 366597]",27,R,ITM,1.1,
6,600,trial,0,11,11,11,trial,"['S', 'S', 'S', 'S', 'S', 'S', 'S', 'S', 'C', 'C', 'C', 'C', 'C', 'C', 'C', 'C', 'C', 'C', 'C', 'C', 'C', 'C', 'C', 'C']","[372268, 372676, 373095, 373731, 374334, 374971, 375531, 376119, 376663, 377285, 377884, 378430, 379039, 379621, 380173, 380784, 381324, 381964, 382536, 383038, 383651, 384229, 384736, 385292]","[372337, 372771, 373260, 373841, 374416, 375038, 375612, 376184, 376737, 377354, 377977, 378530, 379116, 379702, 380270, 380845, 381405, 382054, 382604, 383116, 383697, 384306, 384822, 385357]","[371972, 372571, 373171, 373771, 374371, 374971, 375571, 376171, 376690, 377312, 377912, 378457, 379066, 379648, 380199, 380811, 381350, 381990, 382563, 383065, 383679, 384256, 384762, 385319]",27,R,ITM,1.1,
5,400,trial,0,12,12,12,trial,"['S', 'S', 'S', 'S', 'S', 'S', 'S', 'C', 'C', 'C', 'C', 'C', 'C', 'C', 'C', 'C', 'C', 'C', 'C', 'C', 'C', 'C', 'C']","[391120, 391532, 391959, 392391, 392782, 393165, 393572, 393965, 394382, 394757, 395165, 395557, 395934, 396324, 396709, 397094, 397508, 397892, 398277, 398696, 399141, 399520, 399917]","[391186, 391599, 392007, 392442, 392837, 393185, 393623, 394011, 394436, 394804, 395198, 395583, 395967, 396351, 396747, 397121, 397534, 397918, 398311, 398725, 399167, 399576, 399964]","[390875, 391274, 391674, 392074, 392474, 392875, 393274, 393674, 393991, 394407, 394782, 395191, 395583, 395960, 396351, 396735, 397121, 397534, 397918, 398303, 398722, 399167, 399546, 399943]",27,R,ITM,1.1,
2,600,trial,0,13,13,13,trial,"['S', 'S', 'S', 'S', 'S', 'S', 'S', 'S', 'C', 'C', 'C', 'C', 'C', 'C', 'C', 'C', 'C', 'C', 'C', 'C', 'C', 'C', 'C', 'C']","[405614, 405958, 406500, 407073, 407665, 408233, 408841, 409454, 410012, 410594, 411172, 411739, 412297, 412860, 413454, 414018, 414514, 415147, 415703, 416227, 416769, 417277, 417857, 418391]","[405688, 406065, 406625, 407199, 407759, 408346, 408946, 409546, 410109, 410681, 411248, 411809, 412383, 412942, 413520, 414099, 414617, 415237, 415790, 416303, 416840, 417367, 417957, 418481]","[405346, 405946, 406546, 407146, 407746, 408346, 408946, 409546, 410039, 410621, 411199, 411765, 412324, 412888, 413481, 414046, 414540, 415173, 415729, 416254, 416795, 417305, 417884, 418418]",27,R,ITM,1.1,
7,600,trial,0,14,14,14,trial,"['S', 'S', 'S', 'S', 'S', 'S', 'S', 'S', 'C', 'C', 'C', 'C', 'C', 'C', 'C', 'C', 'C', 'C', 'C', 'C', 'C', 'C', 'C', 'C']","[424485, 424848, 425303, 425908, 426500, 427053, 427684, 428306, 428892, 429516, 430135, 430672, 431286, 431861, 432466, 433086, 433606, 434226, 434785, 435318, 435844, 436364, 436882, 437465]","[424576, 424933, 425411, 425986, 426577, 427121, 427748, 428367, 428961, 429561, 430229, 430737, 431366, 431936, 432552, 433158, 433693, 434312, 434848, 435392, 435915, 436445, 436968, 437506]","[424178, 424777, 425377, 425977, 426577, 427177, 427778, 428378, 428919, 429543, 430161, 430700, 431312, 431889, 432494, 433113, 433633, 434253, 434812, 435345, 435871, 436391, 436909, 437491]",27,R,ITM,1.1,
3,600,trial,0,15,15,15,trial,"['S', 'S', 'S', 'S', 'S', 'S', 'S', 'S', 'C', 'C', 'C', 'C', 'C', 'C', 'C', 'C', 'C', 'C', 'C', 'C', 'C', 'C', 'C', 'C']","[443414, 443662, 444269, 444865, 445465, 446071, 446679, 447245, 447856, 448444, 449045, 449611, 450241, 450790, 451381, 451981, 452511, 453154, 453745, 454293, 454900, 455481, 456031, 456512]","[443502, 443742, 444387, 444949, 445551, 446148, 446759, 447358, 447959, 448541, 449129, 449689, 450296, 450863, 451453, 452046, 452582, 453212, 453815, 454363, 454955, 455566, 456104, 456570]","[443204, 443803, 444403, 445003, 445603, 446203, 446803, 447404, 447882, 448470, 449071, 449637, 450267, 450816, 451406, 452006, 452537, 453180, 453771, 454319, 454926, 455506, 456056, 456538]",27,R,ITM,1.1,
5,600,trial,0,16,16,16,trial,"['S', 'S', 'S', 'S', 'S', 'S', 'S', 'S', 'C', 'C', 'C', 'C', 'C', 'C', 'C', 'C', 'C', 'C', 'C', 'C', 'C', 'C', 'C', 'C']","[462606, 463050, 463380, 463981, 464589, 465172, 465767, 466383, 466995, 467590, 468163, 468744, 469312, 469896, 470502, 471095, 471666, 472308, 472929, 473512, 474080, 474659, 475228, 475832]","[462696, 463137, 463555, 464101, 464681, 465247, 465864, 466464, 467080, 467718, 468242, 468830, 469413, 470007, 470606, 471185, 471787, 472404, 473016, 473591, 474165, 474694, 475295, 475911]","[462264, 462864, 463464, 464064, 464664, 465264, 465864, 466464, 467020, 467615, 468189, 468769, 469338, 469921, 470528, 471120, 471692, 472334, 472954, 473538, 474105, 474685, 475253, 475858]",27,R,ITM,1.1,
4,600,trial,0,17,17,17,trial,"['S', 'S', 'S', 'S', 'S', 'S', 'S', 'S', 'C', 'C', 'C', 'C', 'C', 'C', 'C', 'C', 'C', 'C', 'C', 'C', 'C', 'C', 'C', 'C']","[481780, 482150, 482596, 483203, 483783, 484375, 485006, 485630, 486217, 486857, 487516, 488132, 488751, 489335, 489913, 490501, 491136, 491703, 492288, 492884, 493458, 494032, 494626, 495179]","[481850, 482237, 482697, 483317, 483909, 484493, 485118, 485733, 486338, 486973, 487577, 488215, 488832, 489411, 489998, 490582, 491203, 491790, 492387, 492974, 493558, 494106, 494712, 495269]","[481494, 482094, 482694, 483293, 483893, 484493, 485093, 485693, 486243, 486883, 487542, 488158, 488776, 489361, 489938, 490527, 491161, 491728, 492313, 492910, 493485, 494058, 494652, 495205]",27,R,ITM,1.1,
6,400,trial,0,18,18,18,trial,"['S', 'S', 'S', 'S', 'S', 'S', 'S', 'S', 'C', 'C', 'C', 'C', 'C', 'C', 'C', 'C', 'C', 'C', 'C', 'C', 'C', 'C', 'C', 'C']","[504478, 504727, 505005, 505361, 505752, 506129, 506515, 506946, 507337, 507764, 508169, 508561, 508963, 509342, 509719, 510137, 510501, 510947, 511352, 511736, 512122, 512513, 512950, 513368]","[504553, 504798, 505062, 505435, 505814, 506172, 506578, 507004, 507404, 507824, 508226, 508612, 509023, 509393, 509775, 510189, 510575, 511013, 511408, 511789, 512192, 512600, 513016, 513422]","[504205, 504604, 505005, 505404, 505804, 506205, 506604, 507004, 507365, 507791, 508195, 508588, 508990, 509370, 509746, 510163, 510528, 510973, 511379, 511763, 512150, 512539, 512976, 513395]",27,R,ITM,1.1,
2,400,trial,0,19,19,19,trial,"['S', 'S', 'S', 'S', 'S', 'S', 'S', 'S', 'C', 'C', 'C', 'C', 'C', 'C', 'C', 'C', 'C', 'C', 'C', 'C', 'C', 'C', 'C', 'C']","[519047, 519284, 519556, 519932, 520349, 520752, 521151, 521545, 521932, 522393, 522755, 523169, 523567, 523936, 524351, 524733, 525123, 525550, 525913, 526333, 526714, 527130, 527510, 527898]","[519107, 519336, 519621, 519993, 520408, 520794, 521213, 521617, 521990, 522445, 522826, 523235, 523638, 523988, 524406, 524796, 525188, 525613, 525973, 526414, 526804, 527188, 527574, 527966]","[518773, 519173, 519572, 519973, 520373, 520773, 521174, 521573, 521959, 522421, 522782, 523196, 523593, 523964, 524378, 524761, 525151, 525577, 525939, 526361, 526741, 527158, 527538, 527925]",27,R,ITM,1.1,
6,400,trial,0,20,20,20,trial,"['S', 'S', 'S', 'S', 'S', 'S', 'S', 'S', 'C', 'C', 'C', 'C', 'C', 'C', 'C', 'C', 'C', 'C', 'C', 'C', 'C', 'C', 'C', 'C']","[533804, 534062, 534312, 534706, 535119, 535498, 535891, 536270, 536666, 537099, 537487, 537853, 538261, 538597, 539013, 539388, 539783, 540154, 540548, 540944, 541333, 541702, 542120, 542516]","[533869, 534126, 534370, 534746, 535177, 535556, 535949, 536340, 536725, 537157, 537554, 537928, 538312, 538664, 539072, 539458, 539845, 540209, 540615, 540995, 541400, 541777, 542157, 542547]","[533537, 533937, 534336, 534736, 535136, 535536, 535937, 536336, 536692, 537126, 537513, 537881, 538289, 538625, 539039, 539415, 539809, 540181, 540575, 540971, 541361, 541729, 542148, 542543]",27,R,ITM,1.1,
7,600,trial,0,21,21,21,trial,"['S', 'S', 'S', 'S', 'S', 'S', 'S', 'S', 'C', 'C', 'C', 'C', 'C', 'C', 'C', 'C', 'C', 'C', 'C', 'C', 'C', 'C', 'C', 'C']","[548468, 548758, 549359, 549953, 550580, 551149, 551787, 552396, 552946, 553577, 554193, 554750, 555377, 555990, 556564, 557165, 557714, 558329, 558908, 559485, 560100, 560697, 561303, 561848]","[548531, 548868, 549438, 550022, 550646, 551244, 551868, 552468, 553018, 553636, 554262, 554827, 555471, 556049, 556665, 557241, 557782, 558395, 558997, 559560, 560167, 560760, 561371, 561905]","[548197, 548796, 549396, 549996, 550596, 551196, 551796, 552396, 552974, 553604, 554221, 554777, 555404, 556017, 556591, 557192, 557741, 558356, 558936, 559512, 560126, 560723, 561331, 561874]",27,R,ITM,1.1,
4,400,trial,0,22,22,22,trial,"['S', 'S', 'S', 'S', 'S', 'S', 'S', 'C', 'C', 'C', 'C', 'C', 'C', 'C', 'C', 'C', 'C', 'C', 'C', 'C', 'C', 'C', 'C']","[567883, 568279, 568679, 569076, 569481, 569880, 570274, 570687, 571084, 571478, 571874, 572281, 572668, 573065, 573442, 573869, 574251, 574639, 575050, 575459, 575850, 576235, 576634]","[567947, 568347, 568727, 569136, 569544, 569927, 570340, 570746, 571132, 571536, 571939, 572348, 572708, 573121, 573511, 573915, 574322, 574706, 575100, 575509, 575889, 576300, 576699]","[567572, 567971, 568371, 568771, 569171, 569571, 569971, 570372, 570713, 571110, 571503, 571899, 572307, 572694, 573090, 573467, 573894, 574276, 574665, 575077, 575484, 575876, 576261, 576660]",27,R,ITM,1.1,
2,400,trial,0,23,23,23,trial,"['S', 'S', 'S', 'S', 'S', 'S', 'S', 'S', 'C', 'C', 'C', 'C', 'C', 'C', 'C', 'C', 'C', 'C', 'C', 'C', 'C', 'C', 'C', 'C']","[582517, 582789, 583077, 583463, 583883, 584269, 584659, 585081, 585491, 585916, 586292, 586684, 587086, 587469, 587874, 588259, 588639, 589071, 589433, 589845, 590225, 590621, 591002, 591375]","[582586, 582865, 583138, 583531, 583945, 584338, 584721, 585126, 585537, 585958, 586364, 586749, 587146, 587534, 587945, 588327, 588698, 589137, 589480, 589905, 590304, 590684, 591066, 591411]","[582300, 582701, 583100, 583500, 583901, 584300, 584700, 585100, 585518, 585944, 586319, 586712, 587114, 587496, 587901, 588286, 588665, 589099, 589460, 589873, 590253, 590648, 591029, 591403]",27,R,ITM,1.1,
6,600,trial,0,24,24,24,trial,"['S', 'S', 'S', 'S', 'S', 'S', 'S', 'S', 'C', 'C', 'C', 'C', 'C', 'C', 'C', 'C', 'C', 'C', 'C', 'C', 'C', 'C', 'C', 'C']","[597254, 597587, 598131, 598710, 599299, 599882, 600462, 601080, 601658, 602250, 602786, 603333, 603851, 604382, 604932, 605474, 605993, 606518, 607060, 607577, 608076, 608583, 609147, 609644]","[597327, 597694, 598221, 598800, 599376, 599968, 600548, 601189, 601753, 602343, 602874, 603413, 603939, 604476, 604997, 605560, 606054, 606589, 607142, 607625, 608141, 608666, 609186, 609730]","[597001, 597600, 598200, 598800, 599400, 600000, 600600, 601200, 601684, 602276, 602813, 603360, 603879, 604409, 604959, 605501, 606020, 606544, 607087, 607603, 608103, 608610, 609174, 609671]",27,R,ITM,1.1,
7,400,trial,0,25,25,25,trial,"['S', 'S', 'S', 'S', 'S', 'S', 'S', 'S', 'C', 'C', 'C', 'C', 'C', 'C', 'C', 'C', 'C', 'C', 'C', 'C', 'C', 'C', 'C', 'C']","[615484, 615734, 615973, 616337, 616748, 617152, 617531, 617926, 618351, 618748, 619150, 619541, 619932, 620307, 620715, 621119, 621487, 621875, 622285, 622650, 623052, 623433, 623839, 624237]","[615557, 615795, 616037, 616400, 616821, 617217, 617606, 618011, 618407, 618819, 619225, 619614, 619993, 620371, 620786, 621187, 621557, 621949, 622346, 622714, 623112, 623497, 623901, 624300]","[615201, 615601, 616000, 616400, 616800, 617200, 617601, 618000, 618379, 618775, 619177, 619569, 619959, 620335, 620741, 621147, 621513, 621901, 622313, 622676, 623079, 623460, 623865, 624264]",27,R,ITM,1.1,
5,600,trial,0,26,26,26,trial,"['S', 'S', 'S', 'S', 'S', 'S', 'S', 'S', 'C', 'C', 'C', 'C', 'C', 'C', 'C', 'C', 'C', 'C', 'C', 'C', 'C', 'C', 'C', 'C']","[630266, 630594, 631145, 631743, 632327, 632894, 633490, 634053, 634682, 635233, 635765, 636338, 636912, 637487, 638082, 638604, 639144, 639708, 640235, 640760, 641248, 641794, 642324, 642873]","[630328, 630688, 631229, 631826, 632415, 632990, 633572, 634148, 634773, 635310, 635855, 636437, 637014, 637589, 638190, 638695, 639257, 639802, 640346, 640850, 641335, 641886, 642420, 642959]","[629987, 630586, 631186, 631786, 632386, 632986, 633586, 634186, 634707, 635258, 635791, 636363, 636938, 637512, 638107, 638629, 639171, 639733, 640261, 640786, 641274, 641819, 642350, 642899]",27,R,ITM,1.1,
4,600,trial,0,27,27,27,trial,"['S', 'S', 'S', 'S', 'S', 'S', 'S', 'S', 'C', 'C', 'C', 'C', 'C', 'C', 'C', 'C', 'C', 'C', 'C', 'C', 'C', 'C', 'C', 'C']","[648541, 648791, 649408, 650001, 650645, 651210, 651807, 652403, 652975, 653569, 654111, 654684, 655232, 655799, 656346, 656901, 657472, 658030, 658597, 659176, 659720, 660282, 660777, 661414]","[648602, 648866, 649581, 650133, 650755, 651312, 651921, 652505, 653066, 653652, 654209, 654770, 655306, 655875, 656427, 656971, 657549, 658100, 658667, 659244, 659792, 660353, 660882, 661490]","[648281, 648881, 649480, 650080, 650680, 651280, 651880, 652480, 653000, 653594, 654138, 654709, 655257, 655825, 656372, 656926, 657498, 658056, 658623, 659202, 659745, 660307, 660804, 661440]",27,R,ITM,1.1,
7,400,trial,0,28,28,28,trial,"['S', 'S', 'S', 'S', 'S', 'S', 'S', 'C', 'C', 'C', 'C', 'C', 'C', 'C', 'C', 'C', 'C', 'C', 'C', 'C', 'C', 'C', 'C']","[667422, 667815, 668204, 668648, 669047, 669444, 669837, 670253, 670621, 671010, 671414, 671816, 672195, 672593, 672974, 673356, 673772, 674183, 674578, 674966, 675359, 675758, 676149]","[667495, 667870, 668294, 668733, 669118, 669523, 669920, 670326, 670693, 671077, 671483, 671885, 672266, 672670, 673018, 673431, 673836, 674241, 674625, 675028, 675411, 675824, 676203]","[667095, 667493, 667893, 668294, 668693, 669093, 669493, 669893, 670279, 670648, 671038, 671440, 671843, 672222, 672620, 673001, 673383, 673800, 674209, 674605, 674993, 675386, 675785, 676176]",27,R,ITM,1.1,
3,400,trial,0,29,29,29,trial,"['S', 'S', 'S', 'S', 'S', 'S', 'S', 'S', 'C', 'C', 'C', 'C', 'C', 'C', 'C', 'C', 'C', 'C', 'C', 'C', 'C', 'C', 'C', 'C']","[682196, 682428, 682736, 683138, 683530, 683940, 684340, 684733, 685103, 685550, 685954, 686356, 686724, 687113, 687511, 687896, 688258, 688659, 689055, 689398, 689819, 690221, 690611, 690998]","[682267, 682503, 682802, 683207, 683594, 684015, 684413, 684798, 685173, 685630, 686026, 686414, 686783, 687174, 687583, 687956, 688321, 688735, 689128, 689482, 689896, 690307, 690686, 691063]","[681954, 682353, 682754, 683153, 683553, 683954, 684354, 684754, 685128, 685576, 685979, 686382, 686749, 687138, 687538, 687922, 688283, 688685, 689081, 689424, 689845, 690246, 690636, 691023]",27,R,ITM,1.1,
2,400,trial,0,30,30,30,trial,"['S', 'S', 'S', 'S', 'S', 'S', 'S', 'S', 'C', 'C', 'C', 'C', 'C', 'C', 'C', 'C', 'C', 'C', 'C', 'C', 'C', 'C', 'C', 'C']","[698080, 698337, 698602, 698979, 699390, 699794, 700180, 700573, 700969, 701398, 701804, 702182, 702577, 702962, 703367, 703763, 704155, 704539, 704936, 705313, 705736, 706115, 706533, 706941]","[698159, 698414, 698690, 699057, 699461, 699868, 700262, 700649, 701035, 701464, 701858, 702241, 702637, 703023, 703435, 703826, 704210, 704603, 704996, 705370, 705799, 706185, 706598, 707007]","[697819, 698218, 698617, 699017, 699418, 699819, 700218, 700617, 700997, 701424, 701831, 702210, 702604, 702989, 703394, 703791, 704183, 704566, 704963, 705340, 705764, 706143, 706560, 706969]",27,R,ITM,1.1,
7,400,trial,0,31,31,31,trial,"['S', 'S', 'S', 'S', 'S', 'S', 'S', 'C', 'C', 'C', 'C', 'C', 'C', 'C', 'C', 'C', 'C', 'C', 'C', 'C', 'C', 'C', 'C']","[712897, 713322, 713736, 714160, 714563, 714979, 715392, 715784, 716190, 716581, 716979, 717366, 717753, 718135, 718520, 718881, 719299, 719665, 720045, 720450, 720830, 721203, 721582]","[712976, 713396, 713803, 714231, 714626, 715056, 715454, 715838, 716240, 716650, 717047, 717429, 717816, 718179, 718569, 718944, 719350, 719727, 720088, 720508, 720859, 721268, 721636]","[712625, 713023, 713423, 713823, 714223, 714624, 715023, 715423, 715810, 716217, 716609, 717005, 717393, 717780, 718162, 718547, 718908, 719326, 719691, 720071, 720478, 720857, 721230, 721609]",27,R,ITM,1.1,
7,600,trial,0,32,32,32,trial,"['S', 'S', 'S', 'S', 'S', 'S', 'S', 'S', 'C', 'C', 'C', 'C', 'C', 'C', 'C', 'C', 'C', 'C', 'C', 'C', 'C', 'C', 'C', 'C']","[727364, 727762, 728270, 728835, 729427, 730029, 730616, 731220, 731803, 732405, 733008, 733584, 734142, 734705, 735312, 735870, 736408, 736990, 737571, 738117, 738669, 739218, 739785, 740375]","[727427, 727844, 728357, 728921, 729517, 730095, 730701, 731291, 731894, 732491, 733084, 733659, 734219, 734789, 735387, 735960, 736491, 737064, 737646, 738205, 738762, 739299, 739887, 740485]","[727115, 727714, 728314, 728914, 729515, 730115, 730715, 731315, 731830, 732433, 733036, 733612, 734170, 734732, 735339, 735896, 736435, 737017, 737599, 738145, 738696, 739246, 739813, 740403]",27,R,ITM,1.1,
7,600,trial,0,33,33,33,trial,"['S', 'S', 'S', 'S', 'S', 'S', 'S', 'S', 'C', 'C', 'C', 'C', 'C', 'C', 'C', 'C', 'C', 'C', 'C', 'C', 'C', 'C', 'C', 'C']","[746374, 746660, 747293, 747889, 748488, 749096, 749688, 750301, 750869, 751456, 752023, 752574, 753165, 753751, 754336, 754916, 755502, 756046, 756683, 757294, 757863, 758438, 759006, 759623]","[746460, 746753, 747430, 748019, 748623, 749199, 749821, 750444, 751003, 751558, 752135, 752684, 753254, 753856, 754427, 755030, 755617, 756226, 756776, 757404, 757954, 758539, 759094, 759698]","[746171, 746771, 747371, 747971, 748571, 749171, 749771, 750371, 750897, 751482, 752050, 752601, 753191, 753777, 754363, 754942, 755528, 756074, 756710, 757321, 757890, 758465, 759032, 759651]",27,R,ITM,1.1,
5,600,trial,0,34,34,34,trial,"['S', 'S', 'S', 'S', 'S', 'S', 'S', 'S', 'C', 'C', 'C', 'C', 'C', 'C', 'C', 'C', 'C', 'C', 'C', 'C', 'C', 'C', 'C', 'C']","[765501, 765776, 766329, 766937, 767580, 768118, 768749, 769335, 769954, 770525, 771151, 771715, 772295, 772877, 773455, 774046, 774588, 775194, 775757, 776336, 776898, 777446, 777958, 778578]","[765571, 765888, 766479, 767076, 767671, 768236, 768864, 769440, 770052, 770627, 771228, 771817, 772385, 772957, 773541, 774124, 774686, 775262, 775852, 776397, 776983, 777521, 778055, 778657]","[765232, 765831, 766431, 767031, 767631, 768231, 768831, 769431, 769981, 770551, 771177, 771740, 772321, 772902, 773481, 774072, 774614, 775220, 775783, 776361, 776924, 777472, 777985, 778604]",27,R,ITM,1.1,
3,600,trial,0,35,35,35,trial,"['S', 'S', 'S', 'S', 'S', 'S', 'S', 'S', 'C', 'C', 'C', 'C', 'C', 'C', 'C', 'C', 'C', 'C', 'C', 'C', 'C', 'C', 'C', 'C']","[784627, 784870, 785453, 786039, 786674, 787229, 787829, 788452, 789046, 789653, 790215, 790818, 791410, 791977, 792576, 793141, 793721, 794281, 794862, 795408, 795968, 796490, 797110, 797688]","[784706, 784961, 785588, 786177, 786800, 787321, 787960, 788559, 789129, 789732, 790296, 790895, 791501, 792053, 792655, 793202, 793801, 794361, 794941, 795492, 796060, 796575, 797185, 797779]","[784358, 784957, 785557, 786157, 786757, 787357, 787957, 788557, 789071, 789679, 790241, 790844, 791436, 792003, 792601, 793166, 793747, 794307, 794888, 795433, 795994, 796516, 797135, 797714]",27,R,ITM,1.1,
4,600,trial,0,36,36,36,trial,"['S', 'S', 'S', 'S', 'S', 'S', 'S', 'S', 'C', 'C', 'C', 'C', 'C', 'C', 'C', 'C', 'C', 'C', 'C', 'C', 'C', 'C', 'C', 'C']","[803576, 803814, 804365, 804928, 805578, 806233, 806802, 807387, 807948, 808527, 809139, 809729, 810296, 810869, 811433, 812020, 812578, 813126, 813737, 814321, 814893, 815412, 816026, 816600]","[803656, 803915, 804461, 805049, 805668, 806300, 806871, 807463, 808030, 808605, 809208, 809791, 810372, 810946, 811492, 812086, 812652, 813192, 813788, 814396, 814982, 815490, 816092, 816685]","[803262, 803861, 804461, 805061, 805661, 806261, 806861, 807461, 807973, 808553, 809164, 809754, 810321, 810895, 811459, 812046, 812604, 813152, 813763, 814347, 814918, 815437, 816052, 816625]",27,R,ITM,1.1,
2,600,trial,0,37,37,37,trial,"['S', 'S', 'S', 'S', 'S', 'S', 'S', 'S', 'C', 'C', 'C', 'C', 'C', 'C', 'C', 'C', 'C', 'C', 'C', 'C', 'C', 'C', 'C', 'C']","[822654, 822887, 823456, 824038, 824651, 825235, 825886, 826490, 827055, 827662, 828271, 828840, 829429, 829996, 830548, 831158, 831693, 832292, 832839, 833427, 833974, 834538, 835112, 835680]","[822729, 822991, 823574, 824151, 824734, 825336, 825980, 826585, 827153, 827748, 828346, 828915, 829513, 830076, 830637, 831229, 831784, 832340, 832922, 833467, 834046, 834609, 835178, 835747]","[822362, 822962, 823561, 824161, 824761, 825361, 825961, 826561, 827082, 827689, 828299, 828868, 829457, 830023, 830576, 831185, 831720, 832320, 832866, 833455, 834001, 834566, 835140, 835706]",27,R,ITM,1.1,
4,400,trial,0,38,38,38,trial,"['S', 'S', 'S', 'S', 'S', 'S', 'S', 'S', 'C', 'C', 'C', 'C', 'C', 'C', 'C', 'C', 'C', 'C', 'C', 'C', 'C', 'C', 'C', 'C']","[841696, 841985, 842360, 842599, 842976, 843373, 843793, 844183, 844578, 845002, 845401, 845828, 846223, 846630, 847016, 847435, 847824, 848236, 848640, 849039, 849425, 849837, 850265, 850665]","[841805, 842073, 842446, 842688, 843061, 843447, 843865, 844248, 844649, 845061, 845497, 845900, 846282, 846703, 847070, 847510, 847903, 848314, 848724, 849100, 849498, 849914, 850329, 850745]","[841428, 841827, 842227, 842628, 843027, 843427, 843827, 844227, 844605, 845028, 845426, 845853, 846248, 846656, 847042, 847462, 847851, 848262, 848665, 849064, 849451, 849862, 850290, 850692]",27,R,ITM,1.1,
2,600,trial,0,39,39,39,trial,"['S', 'S', 'S', 'S', 'S', 'S', 'S', 'S', 'C', 'C', 'C', 'C', 'C', 'C', 'C', 'C', 'C', 'C', 'C', 'C', 'C', 'C', 'C', 'C']","[856322, 856568, 857220, 857814, 858464, 859003, 859615, 860210, 860801, 861379, 861973, 862523, 863092, 863632, 864218, 864761, 865301, 865795, 866365, 866937, 867484, 867997, 868575, 869138]","[856386, 856697, 857417, 857976, 858583, 859170, 859738, 860335, 860918, 861471, 862051, 862600, 863176, 863715, 864284, 864814, 865385, 865892, 866446, 867023, 867564, 868079, 868656, 869184]","[856094, 856694, 857294, 857894, 858494, 859095, 859694, 860295, 860828, 861407, 862000, 862550, 863120, 863659, 864245, 864788, 865328, 865822, 866393, 866964, 867511, 868024, 868602, 869166]",27,R,ITM,1.1,
6,400,trial,0,40,40,40,trial,"['S', 'S', 'S', 'S', 'S', 'S', 'S', 'S', 'C', 'C', 'C', 'C', 'C', 'C', 'C', 'C', 'C', 'C', 'C', 'C', 'C', 'C', 'C', 'C']","[874859, 875100, 875371, 875748, 876145, 876545, 876940, 877331, 877730, 878116, 878496, 878909, 879293, 879694, 880102, 880491, 880897, 881309, 881724, 882125, 882515, 882921, 883341, 883735]","[874954, 875180, 875446, 875822, 876218, 876619, 877020, 877405, 877804, 878197, 878575, 878953, 879365, 879750, 880165, 880557, 880977, 881395, 881794, 882192, 882592, 882995, 883421, 883807]","[874569, 874970, 875369, 875769, 876169, 876569, 876969, 877369, 877757, 878143, 878523, 878937, 879321, 879721, 880129, 880519, 880924, 881336, 881752, 882153, 882542, 882948, 883367, 883763]",27,R,ITM,1.1,
6,600,trial,0,41,41,41,trial,"['S', 'S', 'S', 'S', 'S', 'S', 'S', 'S', 'C', 'C', 'C', 'C', 'C', 'C', 'C', 'C', 'C', 'C', 'C', 'C', 'C', 'C', 'C', 'C']","[889590, 889853, 890426, 891040, 891634, 892223, 892859, 893448, 894007, 894580, 895166, 895731, 896317, 896872, 897406, 897926, 898516, 899016, 899540, 900148, 900680, 901200, 901756, 902327]","[889669, 889933, 890522, 891144, 891738, 892320, 892928, 893522, 894085, 894660, 895257, 895809, 896405, 896956, 897507, 898030, 898607, 899099, 899612, 900234, 900769, 901288, 901838, 902397]","[889320, 889919, 890519, 891119, 891719, 892319, 892919, 893519, 894033, 894607, 895193, 895758, 896345, 896900, 897434, 897952, 898543, 899044, 899568, 900174, 900707, 901228, 901784, 902353]",27,R,ITM,1.1,
2,400,trial,0,42,42,42,trial,"['S', 'S', 'S', 'S', 'S', 'S', 'S', 'C', 'C', 'C', 'C', 'C', 'C', 'C', 'C', 'C', 'C', 'C', 'C', 'C', 'C', 'C', 'C']","[909541, 909941, 910317, 910737, 911161, 911554, 911969, 912353, 912768, 913175, 913587, 913980, 914378, 914784, 915193, 915586, 916009, 916409, 916826, 917232, 917605, 918049, 918488]","[909633, 909996, 910395, 910808, 911220, 911625, 912019, 912428, 912839, 913241, 913636, 914029, 914442, 914827, 915249, 915664, 916076, 916484, 916903, 917302, 917682, 918117, 918539]","[909195, 909594, 909996, 910395, 910795, 911196, 911595, 911995, 912379, 912794, 913203, 913614, 914008, 914406, 914811, 915220, 915613, 916036, 916435, 916853, 917260, 917632, 918077, 918514]",27,R,ITM,1.1,
5,600,trial,0,43,43,43,trial,"['S', 'S', 'S', 'S', 'S', 'S', 'S', 'S', 'C', 'C', 'C', 'C', 'C', 'C', 'C', 'C', 'C', 'C', 'C', 'C', 'C', 'C', 'C', 'C']","[924446, 924731, 925306, 925879, 926509, 927095, 927705, 928295, 928890, 929446, 930013, 930616, 931136, 931668, 932238, 932764, 933285, 933797, 934338, 934832, 935300, 935858, 936357, 936822]","[924546, 924818, 925410, 925961, 926580, 927180, 927772, 928367, 928980, 929518, 930086, 930692, 931222, 931748, 932315, 932856, 933370, 933874, 934393, 934912, 935391, 935943, 936438, 936906]","[924190, 924789, 925389, 925989, 926589, 927190, 927790, 928390, 928916, 929473, 930038, 930641, 931162, 931693, 932264, 932790, 933311, 933823, 934364, 934858, 935325, 935883, 936383, 936848]",27,R,ITM,1.1,
6,400,trial,0,44,44,44,trial,"['S', 'S', 'S', 'S', 'S', 'S', 'S', 'C', 'C', 'C', 'C', 'C', 'C', 'C', 'C', 'C', 'C', 'C', 'C', 'C', 'C', 'C', 'C']","[942610, 942877, 943396, 943840, 944278, 944683, 945080, 945487, 945891, 946300, 946678, 947118, 947528, 947926, 948315, 948697, 949093, 949495, 949877, 950279, 950653, 951056, 951439]","[942686, 942991, 943481, 943919, 944347, 944758, 945155, 945562, 945972, 946391, 946764, 947161, 947591, 947977, 948385, 948765, 949165, 949571, 949951, 950356, 950716, 951131, 951515]","[942300, 942698, 943098, 943498, 943898, 944299, 944698, 945098, 945514, 945917, 946327, 946705, 947144, 947555, 947953, 948341, 948724, 949120, 949522, 949904, 950305, 950680, 951084, 951467]",27,R,ITM,1.1,
5,400,trial,0,45,45,45,trial,"['S', 'S', 'S', 'S', 'S', 'S', 'S', 'C', 'C', 'C', 'C', 'C', 'C', 'C', 'C', 'C', 'C', 'C', 'C', 'C', 'C', 'C', 'C']","[957118, 957541, 957950, 958363, 958770, 959199, 959600, 960017, 960433, 960856, 961252, 961626, 962060, 962447, 962843, 963225, 963643, 964032, 964435, 964817, 965222, 965633, 966071]","[957203, 957622, 958021, 958452, 958845, 959276, 959680, 960095, 960499, 960934, 961317, 961707, 962115, 962534, 962912, 963306, 963713, 964098, 964513, 964895, 965291, 965709, 966189]","[956841, 957240, 957640, 958041, 958440, 958840, 959240, 959640, 960043, 960458, 960881, 961277, 961651, 962085, 962473, 962869, 963251, 963668, 964058, 964461, 964844, 965249, 965658, 966097]",27,R,ITM,1.1,
3,400,trial,0,46,46,46,trial,"['S', 'S', 'S', 'S', 'S', 'S', 'S', 'C', 'C', 'C', 'C', 'C', 'C', 'C', 'C', 'C', 'C', 'C', 'C', 'C', 'C', 'C', 'C']","[971781, 972205, 972632, 973050, 973454, 973863, 974261, 974671, 975065, 975485, 975888, 976215, 976648, 977063, 977453, 977835, 978215, 978622, 979019, 979415, 979779, 980201, 980585]","[971858, 972288, 972705, 973126, 973518, 973930, 974329, 974723, 975129, 975561, 975966, 976293, 976699, 977136, 977504, 977908, 978284, 978693, 979076, 979484, 979860, 980264, 980649]","[971483, 971881, 972281, 972681, 973081, 973481, 973881, 974281, 974697, 975090, 975511, 975913, 976240, 976673, 977089, 977478, 977860, 978241, 978648, 979045, 979440, 979805, 980227, 980611]",27,R,ITM,1.1,
3,400,trial,0,47,47,47,trial,"['S', 'S', 'S', 'S', 'S', 'S', 'S', 'S', 'C', 'C', 'C', 'C', 'C', 'C', 'C', 'C', 'C', 'C', 'C', 'C', 'C', 'C', 'C', 'C']","[986606, 986903, 987166, 987552, 987983, 988337, 988740, 989164, 989577, 989957, 990338, 990782, 991180, 991552, 991966, 992327, 992707, 993102, 993520, 993882, 994262, 994655, 995063, 995430]","[986706, 986959, 987228, 987596, 988047, 988409, 988808, 989223, 989612, 990022, 990413, 990826, 991239, 991607, 992010, 992373, 992782, 993175, 993571, 993927, 994287, 994725, 995128, 995510]","[986396, 986796, 987195, 987595, 987996, 988395, 988795, 989195, 989602, 989982, 990363, 990808, 991206, 991578, 991991, 992353, 992733, 993128, 993546, 993907, 994287, 994680, 995089, 995456]",27,R,ITM,1.1,
4,400,trial,0,48,48,48,trial,"['S', 'S', 'S', 'S', 'S', 'S', 'S', 'C', 'C', 'C', 'C', 'C', 'C', 'C', 'C', 'C', 'C', 'C', 'C', 'C', 'C', 'C', 'C']","[1001210, 1001583, 1002040, 1002460, 1002851, 1003269, 1003667, 1004057, 1004478, 1004874, 1005244, 1005632, 1006033, 1006396, 1006804, 1007149, 1007604, 1007978, 1008375, 1008718, 1009129, 1009541, 1009907]","[1001280, 1001671, 1002114, 1002533, 1002936, 1003362, 1003744, 1004133, 1004555, 1004943, 1005308, 1005694, 1006099, 1006470, 1006889, 1007221, 1007640, 1008053, 1008439, 1008789, 1009202, 1009609, 1010000]","[1000933, 1001333, 1001734, 1002133, 1002533, 1002933, 1003333, 1003734, 1004083, 1004505, 1004900, 1005270, 1005658, 1006059, 1006422, 1006830, 1007174, 1007630, 1008004, 1008402, 1008744, 1009155, 1009566, 1009934]",27,R,ITM,1.1,
5,400,trial,0,49,49,49,trial,"['S', 'S', 'S', 'S', 'S', 'S', 'S', 'C', 'C', 'C', 'C', 'C', 'C', 'C', 'C', 'C', 'C', 'C', 'C', 'C', 'C', 'C', 'C']","[1015955, 1016359, 1016770, 1017205, 1017601, 1018029, 1018461, 1018853, 1019226, 1019623, 1020011, 1020390, 1020773, 1021174, 1021554, 1021927, 1022331, 1022725, 1023104, 1023469, 1023843, 1024239, 1024610]","[1016026, 1016443, 1016848, 1017282, 1017686, 1018116, 1018539, 1018928, 1019298, 1019698, 1020078, 1020451, 1020847, 1021261, 1021633, 1021997, 1022401, 1022786, 1023168, 1023544, 1023929, 1024324, 1024686]","[1015696, 1016095, 1016496, 1016895, 1017295, 1017695, 1018095, 1018496, 1018878, 1019251, 1019650, 1020037, 1020416, 1020800, 1021200, 1021580, 1021953, 1022357, 1022750, 1023129, 1023496, 1023868, 1024265, 1024635]",27,R,ITM,1.1,
7,400,trial,0,50,50,50,trial,"['S', 'S', 'S', 'S', 'S', 'S', 'S', 'S', 'C', 'C', 'C', 'C', 'C', 'C', 'C', 'C', 'C', 'C', 'C', 'C', 'C', 'C', 'C', 'C']","[1030286, 1030571, 1030827, 1031231, 1031602, 1031991, 1032394, 1032775, 1033179, 1033564, 1033952, 1034344, 1034738, 1035115, 1035489, 1035904, 1036307, 1036666, 1037060, 1037437, 1037824, 1038186, 1038608, 1038995]","[1030375, 1030640, 1030895, 1031279, 1031666, 1032052, 1032468, 1032851, 1033254, 1033638, 1034021, 1034399, 1034803, 1035189, 1035570, 1035960, 1036363, 1036747, 1037129, 1037508, 1037901, 1038262, 1038683, 1039074]","[1030052, 1030451, 1030851, 1031251, 1031651, 1032051, 1032452, 1032851, 1033205, 1033591, 1033978, 1034372, 1034766, 1035142, 1035516, 1035930, 1036334, 1036694, 1037086, 1037465, 1037851, 1038214, 1038636, 1039022]",27,R,ITM,1.1,
4,600,trial,0,51,51,51,trial,"['S', 'S', 'S', 'S', 'S', 'S', 'S', 'S', 'C', 'C', 'C', 'C', 'C', 'C', 'C', 'C', 'C', 'C', 'C', 'C', 'C', 'C', 'C', 'C']","[1045050, 1045368, 1045934, 1046529, 1047129, 1047696, 1048305, 1048911, 1049482, 1050055, 1050605, 1051145, 1051697, 1052247, 1052825, 1053360, 1053877, 1054433, 1054985, 1055485, 1056068, 1056579, 1057156, 1057661]","[1045094, 1045444, 1046039, 1046612, 1047200, 1047769, 1048388, 1048986, 1049550, 1050137, 1050677, 1051201, 1051767, 1052306, 1052869, 1053429, 1053945, 1054491, 1055044, 1055570, 1056138, 1056641, 1057185, 1057721]","[1044801, 1045400, 1046000, 1046600, 1047200, 1047800, 1048400, 1049000, 1049508, 1050081, 1050632, 1051171, 1051722, 1052272, 1052851, 1053385, 1053902, 1054458, 1055010, 1055512, 1056094, 1056606, 1057181, 1057687]",27,R,ITM,1.1,
6,600,trial,0,52,52,52,trial,"['S', 'S', 'S', 'S', 'S', 'S', 'S', 'S', 'C', 'C', 'C', 'C', 'C', 'C', 'C', 'C', 'C', 'C', 'C', 'C', 'C', 'C', 'C', 'C']","[1063344, 1063604, 1064205, 1064825, 1065423, 1066021, 1066646, 1067216, 1067839, 1068417, 1068974, 1069532, 1070093, 1070598, 1071155, 1071715, 1072278, 1072792, 1073362, 1073918, 1074434, 1074976, 1075565, 1076132]","[1063424, 1063695, 1064331, 1064943, 1065524, 1066106, 1066707, 1067236, 1067914, 1068482, 1069036, 1069593, 1070119, 1070653, 1071201, 1071771, 1072305, 1072857, 1073389, 1073976, 1074493, 1075016, 1075598, 1076159]","[1063106, 1063706, 1064306, 1064906, 1065506, 1066106, 1066706, 1067307, 1067866, 1068444, 1069000, 1069559, 1070119, 1070624, 1071181, 1071741, 1072305, 1072819, 1073389, 1073945, 1074460, 1075004, 1075592, 1076159]",27,R,ITM,1.1,
3,600,trial,0,53,53,53,trial,"['S', 'S', 'S', 'S', 'S', 'S', 'S', 'S', 'C', 'C', 'C', 'C', 'C', 'C', 'C', 'C', 'C', 'C', 'C', 'C', 'C', 'C', 'C', 'C']","[1082122, 1082362, 1082914, 1083486, 1084157, 1084734, 1085320, 1085944, 1086564, 1087108, 1087670, 1088233, 1088782, 1089344, 1089915, 1090450, 1090985, 1091531, 1092146, 1092694, 1093223, 1093757, 1094296, 1094848]","[1082191, 1082446, 1083009, 1083599, 1084221, 1084795, 1085340, 1086034, 1086652, 1087181, 1087726, 1088295, 1088849, 1089375, 1089941, 1090502, 1091011, 1091564, 1092171, 1092719, 1093294, 1093783, 1094322, 1094874]","[1081821, 1082421, 1083021, 1083621, 1084221, 1084821, 1085421, 1086021, 1086589, 1087133, 1087695, 1088259, 1088807, 1089370, 1089941, 1090477, 1091011, 1091557, 1092171, 1092719, 1093249, 1093783, 1094322, 1094874]",27,R,ITM,1.1,
2,400,trial,0,54,54,54,trial,"['S', 'S', 'S', 'S', 'S', 'S', 'S', 'S', 'C', 'C', 'C', 'C', 'C', 'C', 'C', 'C', 'C', 'C', 'C', 'C', 'C', 'C', 'C', 'C']","[1102779, 1103087, 1103341, 1103707, 1104083, 1104493, 1104900, 1105302, 1105720, 1106088, 1106490, 1106890, 1107296, 1107667, 1108064, 1108452, 1108859, 1109243, 1109645, 1110020, 1110437, 1110807, 1111236, 1111619]","[1102868, 1103132, 1103415, 1103764, 1104137, 1104557, 1104967, 1105362, 1105773, 1106160, 1106555, 1106962, 1107360, 1107716, 1108132, 1108524, 1108935, 1109314, 1109696, 1110090, 1110507, 1110878, 1111315, 1111690]","[1102517, 1102916, 1103318, 1103717, 1104117, 1104518, 1104917, 1105317, 1105747, 1106115, 1106518, 1106918, 1107323, 1107694, 1108091, 1108480, 1108887, 1109271, 1109672, 1110047, 1110465, 1110834, 1111263, 1111647]",27,R,ITM,1.1,
5,600,trial,0,55,55,55,trial,"['S', 'S', 'S', 'S', 'S', 'S', 'S', 'S', 'C', 'C', 'C', 'C', 'C', 'C', 'C', 'C', 'C', 'C', 'C', 'C', 'C', 'C', 'C', 'C']","[1117602, 1117844, 1118353, 1118944, 1119550, 1120201, 1120800, 1121389, 1121997, 1122571, 1123168, 1123690, 1124259, 1124791, 1125342, 1125925, 1126488, 1127045, 1127608, 1128165, 1128714, 1129280, 1129881, 1130452]","[1117663, 1117953, 1118466, 1119052, 1119653, 1120292, 1120885, 1121473, 1122085, 1122659, 1123229, 1123766, 1124344, 1124865, 1125411, 1125992, 1126574, 1127108, 1127689, 1128243, 1128810, 1129367, 1129955, 1130537]","[1117265, 1117865, 1118466, 1119066, 1119666, 1120266, 1120866, 1121466, 1122023, 1122597, 1123194, 1123716, 1124285, 1124816, 1125367, 1125951, 1126513, 1127071, 1127633, 1128190, 1128739, 1129306, 1129907, 1130479]",27,R,ITM,1.1,
6,400,trial,0,56,56,56,trial,"['S', 'S', 'S', 'S', 'S', 'S', 'S', 'S', 'C', 'C', 'C', 'C', 'C', 'C', 'C', 'C', 'C', 'C', 'C', 'C', 'C', 'C', 'C', 'C']","[1136420, 1136675, 1136935, 1137327, 1137746, 1138153, 1138553, 1138940, 1139331, 1139771, 1140146, 1140576, 1140988, 1141402, 1141769, 1142185, 1142563, 1142955, 1143333, 1143753, 1144173, 1144547, 1144924, 1145350]","[1136514, 1136752, 1137017, 1137410, 1137822, 1138226, 1138636, 1139016, 1139402, 1139832, 1140217, 1140640, 1141047, 1141467, 1141836, 1142250, 1142640, 1143024, 1143408, 1143821, 1144242, 1144615, 1145003, 1145415]","[1136178, 1136577, 1136977, 1137377, 1137777, 1138178, 1138577, 1138977, 1139358, 1139799, 1140172, 1140603, 1141015, 1141430, 1141795, 1142213, 1142591, 1142981, 1143360, 1143781, 1144201, 1144574, 1144951, 1145376]",27,R,ITM,1.1,
2,400,trial,0,57,57,57,trial,"['S', 'S', 'S', 'S', 'S', 'S', 'S', 'S', 'C', 'C', 'C', 'C', 'C', 'C', 'C', 'C', 'C', 'C', 'C', 'C', 'C', 'C', 'C', 'C']","[1151209, 1151471, 1151723, 1152067, 1152480, 1152835, 1153240, 1153637, 1154018, 1154463, 1154855, 1155265, 1155659, 1156023, 1156432, 1156825, 1157212, 1157598, 1157976, 1158365, 1158761, 1159143, 1159558, 1159934]","[1151281, 1151557, 1151795, 1152139, 1152549, 1152902, 1153316, 1153715, 1154100, 1154534, 1154925, 1155336, 1155720, 1156087, 1156493, 1156868, 1157277, 1157663, 1158038, 1158405, 1158823, 1159220, 1159625, 1160000]","[1150880, 1151281, 1151680, 1152080, 1152479, 1152879, 1153281, 1153680, 1154044, 1154491, 1154882, 1155292, 1155686, 1156050, 1156459, 1156852, 1157239, 1157625, 1158002, 1158392, 1158788, 1159170, 1159584, 1159962]",27,R,ITM,1.1,
4,600,trial,0,58,58,58,trial,"['S', 'S', 'S', 'S', 'S', 'S', 'S', 'S', 'S', 'C', 'C', 'C', 'C', 'C', 'C', 'C', 'C', 'C', 'C', 'C', 'C', 'C', 'C', 'C', 'C']","[1165516, 1165761, 1166046, 1166400, 1166997, 1167557, 1168161, 1168774, 1169371, 1169995, 1170583, 1171179, 1171773, 1172359, 1172910, 1173473, 1174057, 1174605, 1175191, 1175767, 1176313, 1176863, 1177425, 1177985, 1178566]","[1165596, 1165837, 1166114, 1166578, 1167099, 1167667, 1168249, 1168863, 1169437, 1170034, 1170640, 1171245, 1171834, 1172424, 1172976, 1173561, 1174130, 1174681, 1175256, 1175845, 1176406, 1176925, 1177513, 1178010, 1178659]","[1165260, 1165860, 1166460, 1167060, 1167661, 1168261, 1168861, 1169461, 1170021, 1170609, 1171205, 1171800, 1172384, 1172935, 1173498, 1174082, 1174631, 1175217, 1175792, 1176339, 1176889, 1177451, 1178010, 1178593]",27,R,ITM,1.1,
3,600,trial,0,59,59,59,trial,"['S', 'S', 'S', 'S', 'S', 'S', 'S', 'S', 'C', 'C', 'C', 'C', 'C', 'C', 'C', 'C', 'C', 'C', 'C', 'C', 'C', 'C', 'C', 'C']","[1184504, 1184757, 1185325, 1185923, 1186555, 1187201, 1187827, 1188391, 1189003, 1189584, 1190177, 1190750, 1191361, 1191933, 1192500, 1193073, 1193622, 1194209, 1194790, 1195331, 1195923, 1196474, 1197058, 1197631]","[1184596, 1184848, 1185434, 1186035, 1186664, 1187284, 1187915, 1188413, 1189054, 1189675, 1190233, 1190830, 1191425, 1192031, 1192594, 1193135, 1193702, 1194281, 1194864, 1195407, 1195994, 1196549, 1197147, 1197716]","[1184275, 1184874, 1185474, 1186074, 1186674, 1187274, 1187874, 1188474, 1189028, 1189610, 1190203, 1190775, 1191387, 1191959, 1192525, 1193099, 1193648, 1194234, 1194816, 1195357, 1195949, 1196499, 1197083, 1197657]",27,R,ITM,1.1,
4,600,trial,0,60,60,60,trial,"['S', 'S', 'S', 'S', 'S', 'S', 'S', 'S', 'C', 'C', 'C', 'C', 'C', 'C', 'C', 'C', 'C', 'C', 'C', 'C', 'C', 'C', 'C', 'C']","[1203335, 1203555, 1204109, 1204737, 1205345, 1205941, 1206522, 1207120, 1207752, 1208313, 1208906, 1209497, 1210040, 1210627, 1211229, 1211799, 1212374, 1212940, 1213512, 1214084, 1214691, 1215267, 1215848, 1216446]","[1203406, 1203653, 1204224, 1204833, 1205430, 1206018, 1206619, 1207195, 1207816, 1208389, 1208981, 1209536, 1210143, 1210701, 1211327, 1211911, 1212465, 1213039, 1213602, 1214187, 1214776, 1215345, 1215940, 1216515]","[1203044, 1203643, 1204243, 1204843, 1205443, 1206043, 1206643, 1207243, 1207778, 1208339, 1208932, 1209523, 1210065, 1210652, 1211254, 1211826, 1212400, 1212966, 1213539, 1214109, 1214716, 1215293, 1215874, 1216472]",27,R,ITM,1.1,
7,600,trial,0,61,61,61,trial,"['S', 'S', 'S', 'S', 'S', 'S', 'S', 'S', 'C', 'C', 'C', 'C', 'C', 'C', 'C', 'C', 'C', 'C', 'C', 'C', 'C', 'C', 'C', 'C']","[1222036, 1222265, 1222849, 1223497, 1224130, 1224709, 1225318, 1225944, 1226544, 1227145, 1227751, 1228338, 1228952, 1229556, 1230173, 1230766, 1231349, 1231934, 1232487, 1233058, 1233651, 1234208, 1234770, 1235378]","[1222121, 1222370, 1222961, 1223605, 1224228, 1224815, 1225414, 1226028, 1226606, 1227207, 1227826, 1228424, 1229026, 1229628, 1230242, 1230842, 1231425, 1232028, 1232581, 1233148, 1233728, 1234236, 1234860, 1235477]","[1221760, 1222360, 1222960, 1223560, 1224160, 1224760, 1225360, 1225960, 1226570, 1227171, 1227778, 1228365, 1228979, 1229583, 1230199, 1230792, 1231376, 1231962, 1232515, 1233085, 1233678, 1234236, 1234797, 1235404]",27,R,ITM,1.1,
2,600,trial,0,62,62,62,trial,"['S', 'S', 'S', 'S', 'S', 'S', 'S', 'S', 'C', 'C', 'C', 'C', 'C', 'C', 'C', 'C', 'C', 'C', 'C', 'C', 'C', 'C', 'C', 'C']","[1241177, 1241501, 1242046, 1242650, 1243249, 1243831, 1244436, 1245017, 1245592, 1246134, 1246705, 1247302, 1247852, 1248394, 1248971, 1249536, 1250086, 1250660, 1251205, 1251722, 1252276, 1252847, 1253401, 1253978]","[1241253, 1241552, 1242131, 1242735, 1243331, 1243916, 1244496, 1245090, 1245671, 1246240, 1246787, 1247366, 1247925, 1248464, 1249037, 1249633, 1250177, 1250735, 1251299, 1251828, 1252359, 1252912, 1253480, 1254031]","[1240915, 1241515, 1242116, 1242715, 1243316, 1243915, 1244515, 1245116, 1245620, 1246161, 1246733, 1247330, 1247880, 1248421, 1248999, 1249562, 1250114, 1250686, 1251232, 1251748, 1252302, 1252874, 1253428, 1254005]",27,R,ITM,1.1,
7,600,trial,0,63,63,63,trial,"['S', 'S', 'S', 'S', 'S', 'S', 'S', 'S', 'C', 'C', 'C', 'C', 'C', 'C', 'C', 'C', 'C', 'C', 'C', 'C', 'C', 'C', 'C', 'C']","[1259727, 1259962, 1260503, 1261084, 1261706, 1262299, 1262886, 1263503, 1264104, 1264702, 1265235, 1265802, 1266386, 1266937, 1267502, 1268041, 1268619, 1269182, 1269735, 1270259, 1270803, 1271321, 1271900, 1272442]","[1259793, 1260049, 1260589, 1261192, 1261787, 1262398, 1262965, 1263586, 1264182, 1264777, 1265323, 1265880, 1266490, 1266998, 1267594, 1268117, 1268703, 1269264, 1269834, 1270354, 1270901, 1271405, 1271983, 1272535]","[1259413, 1260012, 1260612, 1261212, 1261812, 1262412, 1263012, 1263612, 1264132, 1264729, 1265263, 1265828, 1266413, 1266964, 1267529, 1268069, 1268646, 1269210, 1269762, 1270286, 1270831, 1271349, 1271927, 1272469]",27,R,ITM,1.1,
5,600,trial,0,64,64,64,trial,"['S', 'S', 'S', 'S', 'S', 'S', 'S', 'S', 'C', 'C', 'C', 'C', 'C', 'C', 'C', 'C', 'C', 'C', 'C', 'C', 'C', 'C', 'C', 'C']","[1278464, 1278725, 1279302, 1279869, 1280519, 1281107, 1281711, 1282328, 1282932, 1283474, 1284080, 1284659, 1285215, 1285758, 1286284, 1286859, 1287438, 1287968, 1288545, 1289092, 1289626, 1290166, 1290714, 1291271]","[1278527, 1278806, 1279383, 1279942, 1280596, 1281197, 1281797, 1282410, 1283034, 1283563, 1284127, 1284697, 1285301, 1285820, 1286358, 1286932, 1287504, 1288046, 1288595, 1289182, 1289716, 1290235, 1290784, 1291334]","[1278196, 1278796, 1279396, 1279996, 1280596, 1281197, 1281797, 1282397, 1282958, 1283500, 1284107, 1284684, 1285241, 1285784, 1286309, 1286885, 1287463, 1287995, 1288570, 1289117, 1289652, 1290192, 1290740, 1291297]",27,R,ITM,1.1,
5,400,trial,0,65,65,65,trial,"['S', 'S', 'S', 'S', 'S', 'S', 'S', 'S', 'C', 'C', 'C', 'C', 'C', 'C', 'C', 'C', 'C', 'C', 'C', 'C', 'C', 'C', 'C', 'C']","[1297070, 1297367, 1297639, 1298008, 1298420, 1298792, 1299208, 1299605, 1300004, 1300434, 1300854, 1301241, 1301664, 1302070, 1302479, 1302890, 1303302, 1303700, 1304418, 1304826, 1305569, 1305939, 1306328, 1306736]","[1297141, 1297429, 1297694, 1298030, 1298440, 1298812, 1299229, 1299630, 1300031, 1300462, 1300880, 1301267, 1301691, 1302095, 1302506, 1302917, 1303328, 1303727, 1304443, 1304852, 1305594, 1305999, 1306397, 1306810]","[1296829, 1297228, 1297629, 1298029, 1298429, 1298829, 1299229, 1299630, 1300030, 1300460, 1300880, 1301267, 1301691, 1302095, 1302506, 1302917, 1303328, 1303727, 1304443, 1304852, 1305594, 1305965, 1306353, 1306762]",27,R,ITM,1.1,
4,400,trial,0,66,66,66,trial,"['S', 'S', 'S', 'S', 'S', 'S', 'S', 'S', 'C', 'C', 'C', 'C', 'C', 'C', 'C', 'C', 'C', 'C', 'C', 'C', 'C', 'C', 'C', 'C']","[1312465, 1312715, 1313003, 1313405, 1313814, 1314188, 1314612, 1315022, 1315422, 1315790, 1316199, 1316591, 1316978, 1317381, 1317775, 1318179, 1318554, 1318927, 1319341, 1319699, 1320124, 1320526, 1320947, 1321302]","[1312550, 1312795, 1313082, 1313483, 1313888, 1314268, 1314694, 1315094, 1315492, 1315872, 1316280, 1316666, 1317060, 1317449, 1317859, 1318242, 1318636, 1319006, 1319404, 1319776, 1320206, 1320625, 1321016, 1321393]","[1312244, 1312644, 1313043, 1313443, 1313843, 1314243, 1314643, 1315043, 1315447, 1315816, 1316225, 1316617, 1317004, 1317406, 1317800, 1318205, 1318581, 1318952, 1319366, 1319726, 1320150, 1320552, 1320973, 1321328]",27,R,ITM,1.1,
6,400,trial,0,67,67,67,trial,"['S', 'S', 'S', 'S', 'S', 'S', 'S', 'S', 'C', 'C', 'C', 'C', 'C', 'C', 'C', 'C', 'C', 'C', 'C', 'C', 'C', 'C', 'C', 'C']","[1327238, 1327492, 1327821, 1328239, 1328612, 1329012, 1329409, 1329840, 1330173, 1330565, 1330970, 1331366, 1331738, 1332109, 1332477, 1332889, 1333280, 1333638, 1334041, 1334409, 1334812, 1335200, 1335603, 1336005]","[1327310, 1327578, 1327918, 1328280, 1328683, 1329070, 1329480, 1329888, 1330249, 1330628, 1331021, 1331397, 1331769, 1332160, 1332526, 1332922, 1333337, 1333683, 1334095, 1334472, 1334883, 1335275, 1335667, 1336056]","[1327040, 1327439, 1327839, 1328239, 1328640, 1329039, 1329439, 1329840, 1330200, 1330591, 1330998, 1331393, 1331765, 1332135, 1332504, 1332916, 1333307, 1333665, 1334068, 1334436, 1334839, 1335228, 1335629, 1336032]",27,R,ITM,1.1,
3,600,trial,0,68,68,68,trial,"['S', 'S', 'S', 'S', 'S', 'S', 'S', 'S', 'C', 'C', 'C', 'C', 'C', 'C', 'C', 'C', 'C', 'C', 'C', 'C', 'C', 'C', 'C', 'C']","[1341806, 1342064, 1342695, 1343276, 1343909, 1344466, 1345058, 1345701, 1346269, 1346876, 1347433, 1347986, 1348576, 1349153, 1349710, 1350290, 1350887, 1351443, 1352013, 1352535, 1353105, 1353627, 1354184, 1354741]","[1341881, 1342147, 1342776, 1343343, 1343967, 1344534, 1345134, 1345746, 1346350, 1346911, 1347468, 1348042, 1348639, 1349230, 1349780, 1350377, 1350974, 1351510, 1352086, 1352608, 1353169, 1353701, 1354272, 1354847]","[1341534, 1342134, 1342734, 1343334, 1343934, 1344534, 1345134, 1345734, 1346294, 1346902, 1347459, 1348012, 1348601, 1349179, 1349736, 1350316, 1350913, 1351469, 1352039, 1352560, 1353131, 1353653, 1354211, 1354767]",27,R,ITM,1.1,
4,400,trial,0,69,69,69,trial,"['S', 'S', 'S', 'S', 'S', 'S', 'S', 'S', 'C', 'C', 'C', 'C', 'C', 'C', 'C', 'C', 'C', 'C', 'C', 'C', 'C', 'C', 'C', 'C']","[1360662, 1360912, 1361184, 1361588, 1362011, 1362398, 1362784, 1363176, 1363640, 1364023, 1364432, 1364796, 1365224, 1365637, 1366057, 1366444, 1366845, 1367258, 1367668, 1368068, 1368446, 1368866, 1369256, 1369654]","[1360746, 1360980, 1361263, 1361664, 1362082, 1362459, 1362862, 1363250, 1363691, 1364089, 1364501, 1364865, 1365293, 1365714, 1366125, 1366511, 1366920, 1367347, 1367742, 1368135, 1368503, 1368925, 1369336, 1369728]","[1360433, 1360832, 1361232, 1361632, 1362032, 1362433, 1362832, 1363232, 1363665, 1364048, 1364458, 1364823, 1365250, 1365662, 1366083, 1366469, 1366871, 1367283, 1367695, 1368093, 1368472, 1368892, 1369282, 1369679]",27,R,ITM,1.1,
5,400,trial,0,70,70,70,trial,"['S', 'S', 'S', 'S', 'S', 'S', 'S', 'S', 'C', 'C', 'C', 'C', 'C', 'C', 'C', 'C', 'C', 'C', 'C', 'C', 'C', 'C', 'C', 'C']","[1375334, 1375571, 1375860, 1376251, 1376665, 1377052, 1377466, 1377861, 1378289, 1378708, 1379143, 1379529, 1379929, 1380295, 1380692, 1381095, 1381491, 1381884, 1382240, 1382652, 1383023, 1383438, 1383846, 1384231]","[1375385, 1375635, 1375923, 1376305, 1376728, 1377116, 1377528, 1377924, 1378347, 1378776, 1379202, 1379563, 1379988, 1380354, 1380737, 1381124, 1381538, 1381910, 1382311, 1382705, 1383081, 1383484, 1383876, 1384283]","[1375096, 1375495, 1375895, 1376295, 1376695, 1377095, 1377496, 1377895, 1378315, 1378734, 1379169, 1379555, 1379954, 1380321, 1380718, 1381121, 1381517, 1381910, 1382266, 1382678, 1383049, 1383463, 1383873, 1384257]",27,R,ITM,1.1,
6,600,trial,0,71,71,71,trial,"['S', 'S', 'S', 'S', 'S', 'S', 'S', 'S', 'C', 'C', 'C', 'C', 'C', 'C', 'C', 'C', 'C', 'C', 'C', 'C', 'C', 'C', 'C', 'C']","[1389904, 1390133, 1390782, 1391433, 1392029, 1392631, 1393230, 1393825, 1394432, 1395019, 1395629, 1396194, 1396787, 1397317, 1397870, 1398461, 1399036, 1399584, 1400147, 1400707, 1401261, 1401784, 1402350, 1402878]","[1389971, 1390219, 1390926, 1391526, 1392126, 1392717, 1393321, 1393890, 1394478, 1395070, 1395659, 1396262, 1396854, 1397381, 1397945, 1398520, 1399088, 1399638, 1400174, 1400733, 1401304, 1401861, 1402377, 1402937]","[1389670, 1390270, 1390870, 1391470, 1392070, 1392670, 1393270, 1393870, 1394458, 1395046, 1395656, 1396220, 1396814, 1397345, 1397897, 1398489, 1399063, 1399612, 1400174, 1400733, 1401288, 1401810, 1402377, 1402905]",27,R,ITM,1.1,
3,400,trial,0,72,72,72,trial,"['S', 'S', 'S', 'S', 'S', 'S', 'S', 'S', 'C', 'C', 'C', 'C', 'C', 'C', 'C', 'C', 'C', 'C', 'C', 'C', 'C', 'C', 'C', 'C']","[1408613, 1408873, 1409111, 1409479, 1409886, 1410277, 1410661, 1411098, 1411489, 1411886, 1412288, 1412673, 1413081, 1413481, 1413889, 1414257, 1414700, 1415112, 1415505, 1415881, 1416282, 1416666, 1417098, 1417504]","[1408690, 1408932, 1409180, 1409540, 1409959, 1410334, 1410734, 1411158, 1411534, 1411937, 1412349, 1412739, 1413147, 1413535, 1413924, 1414326, 1414759, 1415153, 1415565, 1415933, 1416347, 1416727, 1417131, 1417539]","[1408300, 1408698, 1409098, 1409499, 1409898, 1410298, 1410698, 1411098, 1411515, 1411911, 1412314, 1412699, 1413106, 1413507, 1413914, 1414283, 1414725, 1415138, 1415531, 1415907, 1416307, 1416691, 1417123, 1417530]",27,R,ITM,1.1,
2,600,trial,0,73,73,73,trial,"['S', 'S', 'S', 'S', 'S', 'S', 'S', 'S', 'C', 'C', 'C', 'C', 'C', 'C', 'C', 'C', 'C', 'C', 'C', 'C', 'C', 'C', 'C', 'C']","[1423396, 1423636, 1424229, 1424857, 1425467, 1426066, 1426652, 1427245, 1427814, 1428409, 1429006, 1429545, 1430093, 1430638, 1431197, 1431739, 1432245, 1432785, 1433326, 1433873, 1434379, 1434889, 1435411, 1435916]","[1423468, 1423720, 1424345, 1424955, 1425546, 1426140, 1426720, 1427304, 1427883, 1428463, 1429035, 1429580, 1430158, 1430665, 1431231, 1431768, 1432320, 1432817, 1433357, 1433901, 1434444, 1434915, 1435446, 1435943]","[1423120, 1423720, 1424319, 1424920, 1425520, 1426120, 1426720, 1427320, 1427841, 1428436, 1429033, 1429571, 1430120, 1430665, 1431225, 1431766, 1432271, 1432812, 1433354, 1433900, 1434406, 1434915, 1435439, 1435943]",27,R,ITM,1.1,
6,600,trial,0,74,74,74,trial,"['S', 'S', 'S', 'S', 'S', 'S', 'S', 'S', 'C', 'C', 'C', 'C', 'C', 'C', 'C', 'C', 'C', 'C', 'C', 'C', 'C', 'C', 'C', 'C']","[1441747, 1441986, 1442608, 1443244, 1443867, 1444461, 1445043, 1445687, 1446263, 1446797, 1447351, 1447907, 1448458, 1449018, 1449547, 1450131, 1450649, 1451210, 1451758, 1452306, 1452860, 1453385, 1453922, 1454436]","[1441812, 1442098, 1442701, 1443308, 1443940, 1444529, 1445116, 1445745, 1446327, 1446873, 1447416, 1447965, 1448493, 1449069, 1449596, 1450168, 1450725, 1451269, 1451824, 1452354, 1452887, 1453448, 1453950, 1454468]","[1441542, 1442141, 1442740, 1443340, 1443940, 1444540, 1445140, 1445740, 1446291, 1446823, 1447378, 1447933, 1448484, 1449046, 1449575, 1450158, 1450677, 1451238, 1451785, 1452333, 1452887, 1453413, 1453948, 1454464]",27,R,ITM,1.1,
7,400,trial,0,75,75,75,trial,"['S', 'S', 'S', 'S', 'S', 'S', 'S', 'S', 'C', 'C', 'C', 'C', 'C', 'C', 'C', 'C', 'C', 'C', 'C', 'C', 'C', 'C', 'C', 'C']","[1460094, 1460337, 1460571, 1460945, 1461343, 1461743, 1462161, 1462590, 1462990, 1463367, 1463798, 1464161, 1464603, 1465003, 1465437, 1465840, 1466237, 1466660, 1467049, 1467471, 1467847, 1468264, 1468679, 1469066]","[1460160, 1460398, 1460646, 1461015, 1461410, 1461824, 1462239, 1462654, 1463037, 1463433, 1463861, 1464230, 1464662, 1465050, 1465494, 1465906, 1466300, 1466724, 1467118, 1467529, 1467918, 1468318, 1468733, 1469125]","[1459791, 1460190, 1460590, 1460990, 1461390, 1461790, 1462191, 1462590, 1463017, 1463394, 1463825, 1464187, 1464631, 1465029, 1465464, 1465868, 1466264, 1466688, 1467075, 1467498, 1467874, 1468292, 1468706, 1469093]",27,R,ITM,1.1,
7,400,trial,0,76,76,76,trial,"['S', 'S', 'S', 'S', 'S', 'S', 'S', 'S', 'C', 'C', 'C', 'C', 'C', 'C', 'C', 'C', 'C', 'C', 'C', 'C', 'C', 'C', 'C', 'C']","[1474679, 1474911, 1475168, 1475566, 1475973, 1476385, 1476808, 1477213, 1477579, 1477978, 1478387, 1478782, 1479142, 1479555, 1479945, 1480331, 1480713, 1481112, 1481506, 1481869, 1482253, 1482689, 1483086, 1483500]","[1474750, 1474984, 1475238, 1475633, 1476052, 1476470, 1476882, 1477280, 1477646, 1478053, 1478438, 1478839, 1479208, 1479621, 1480010, 1480391, 1480776, 1481181, 1481564, 1481921, 1482336, 1482749, 1483160, 1483561]","[1474408, 1474807, 1475208, 1475608, 1476008, 1476408, 1476808, 1477209, 1477607, 1478004, 1478415, 1478809, 1479169, 1479581, 1479971, 1480358, 1480740, 1481140, 1481533, 1481896, 1482280, 1482716, 1483113, 1483528]",27,R,ITM,1.1,
3,400,trial,0,77,77,77,trial,"['S', 'S', 'S', 'S', 'S', 'S', 'S', 'S', 'C', 'C', 'C', 'C', 'C', 'C', 'C', 'C', 'C', 'C', 'C', 'C', 'C', 'C', 'C', 'C']","[1489532, 1489784, 1490045, 1490428, 1490818, 1491225, 1491627, 1492065, 1492451, 1492831, 1493258, 1493625, 1494052, 1494410, 1494807, 1495212, 1495605, 1495964, 1496376, 1496763, 1497141, 1497567, 1497922, 1498343]","[1489618, 1489863, 1490128, 1490500, 1490900, 1491288, 1491707, 1492108, 1492476, 1492892, 1493312, 1493684, 1494086, 1494456, 1494837, 1495237, 1495662, 1496031, 1496414, 1496794, 1497182, 1497617, 1497991, 1498374]","[1489264, 1489665, 1490064, 1490464, 1490865, 1491264, 1491664, 1492064, 1492476, 1492856, 1493283, 1493651, 1494078, 1494435, 1494833, 1495237, 1495630, 1495990, 1496401, 1496788, 1497166, 1497592, 1497948, 1498369]",27,R,ITM,1.1,
7,400,trial,0,78,78,78,trial,"['S', 'S', 'S', 'S', 'S', 'S', 'S', 'S', 'C', 'C', 'C', 'C', 'C', 'C', 'C', 'C', 'C', 'C', 'C', 'C', 'C', 'C', 'C', 'C']","[1504202, 1504449, 1504800, 1505147, 1505525, 1505909, 1506318, 1506698, 1507085, 1507493, 1507886, 1508275, 1508676, 1509067, 1509446, 1509821, 1510183, 1510579, 1511011, 1511413, 1511775, 1512161, 1512567, 1512942]","[1504286, 1504522, 1504849, 1505189, 1505613, 1505979, 1506382, 1506770, 1507187, 1507550, 1507949, 1508302, 1508708, 1509095, 1509474, 1509848, 1510211, 1510606, 1511038, 1511476, 1511801, 1512187, 1512595, 1512998]","[1504002, 1504400, 1504800, 1505201, 1505600, 1506000, 1506400, 1506800, 1507111, 1507521, 1507913, 1508302, 1508703, 1509095, 1509474, 1509848, 1510210, 1510606, 1511038, 1511440, 1511801, 1512187, 1512595, 1512969]",27,R,ITM,1.1,
4,600,trial,0,79,79,79,trial,"['S', 'S', 'S', 'S', 'S', 'S', 'S', 'S', 'C', 'C', 'C', 'C', 'C', 'C', 'C', 'C', 'C', 'C', 'C', 'C', 'C', 'C', 'C', 'C']","[1518631, 1518875, 1519442, 1520014, 1520636, 1521231, 1521848, 1522423, 1523028, 1523575, 1524126, 1524702, 1525242, 1525797, 1526364, 1526925, 1527453, 1527995, 1528556, 1529089, 1529566, 1530119, 1530671, 1531206]","[1518685, 1518966, 1519517, 1520094, 1520707, 1521308, 1521925, 1522504, 1523097, 1523660, 1524197, 1524767, 1525309, 1525859, 1526419, 1526978, 1527500, 1528054, 1528592, 1529132, 1529622, 1530169, 1530741, 1531276]","[1518304, 1518903, 1519503, 1520103, 1520703, 1521303, 1521903, 1522503, 1523054, 1523601, 1524152, 1524727, 1525269, 1525823, 1526389, 1526950, 1527479, 1528020, 1528582, 1529114, 1529591, 1530144, 1530696, 1531232]",27,R,ITM,1.1,
3,600,trial,0,80,80,80,trial,"['S', 'S', 'S', 'S', 'S', 'S', 'S', 'S', 'C', 'C', 'C', 'C', 'C', 'C', 'C', 'C', 'C', 'C', 'C', 'C', 'C', 'C', 'C', 'C']","[1537281, 1537518, 1538092, 1538650, 1539344, 1539871, 1540421, 1541046, 1541630, 1542215, 1542770, 1543300, 1543854, 1544398, 1544933, 1545487, 1546054, 1546566, 1547089, 1547660, 1548157, 1548690, 1549239, 1549774]","[1537347, 1537600, 1538159, 1538723, 1539406, 1539936, 1540490, 1541120, 1541692, 1542288, 1542841, 1543379, 1543915, 1544441, 1544984, 1545553, 1546104, 1546645, 1547153, 1547730, 1548227, 1548758, 1549308, 1549836]","[1536957, 1537556, 1538156, 1538756, 1539356, 1539956, 1540556, 1541156, 1541655, 1542241, 1542796, 1543325, 1543879, 1544424, 1544958, 1545512, 1546080, 1546592, 1547115, 1547685, 1548183, 1548716, 1549264, 1549800]",27,R,ITM,1.1,
5,400,trial,0,81,81,81,trial,"['S', 'S', 'S', 'S', 'S', 'S', 'S', 'S', 'C', 'C', 'C', 'C', 'C', 'C', 'C', 'C', 'C', 'C', 'C', 'C', 'C', 'C', 'C', 'C']","[1555551, 1555790, 1556045, 1556431, 1556827, 1557231, 1557622, 1558035, 1558416, 1558862, 1559262, 1559668, 1560047, 1560433, 1560821, 1561234, 1561661, 1562046, 1562471, 1562878, 1563276, 1563692, 1564071, 1564493]","[1555637, 1555863, 1556113, 1556494, 1556909, 1557298, 1557687, 1558100, 1558496, 1558927, 1559325, 1559707, 1560099, 1560486, 1560883, 1561309, 1561697, 1562116, 1562545, 1562952, 1563356, 1563758, 1564138, 1564552]","[1555265, 1555664, 1556064, 1556464, 1556865, 1557264, 1557664, 1558065, 1558441, 1558888, 1559287, 1559695, 1560074, 1560460, 1560847, 1561261, 1561688, 1562072, 1562497, 1562904, 1563302, 1563717, 1564097, 1564519]",27,R,ITM,1.1,
5,600,trial,0,82,82,82,trial,"['S', 'S', 'S', 'S', 'S', 'S', 'S', 'S', 'C', 'C', 'C', 'C', 'C', 'C', 'C', 'C', 'C', 'C', 'C', 'C', 'C', 'C', 'C', 'C']","[1570446, 1570682, 1571320, 1571916, 1572559, 1573087, 1573747, 1574343, 1574901, 1575485, 1576100, 1576654, 1577254, 1577795, 1578355, 1578949, 1579480, 1580091, 1580627, 1581184, 1581689, 1582312, 1582829, 1583313]","[1570520, 1570771, 1571402, 1571984, 1572640, 1573157, 1573801, 1574402, 1574968, 1575552, 1576154, 1576730, 1577292, 1577869, 1578425, 1579029, 1579556, 1580149, 1580705, 1581253, 1581768, 1582366, 1582885, 1583377]","[1570192, 1570792, 1571392, 1571992, 1572592, 1573192, 1573792, 1574392, 1574927, 1575511, 1576126, 1576681, 1577280, 1577821, 1578382, 1578975, 1579506, 1580116, 1580653, 1581210, 1581716, 1582338, 1582856, 1583339]",27,R,ITM,1.1,
3,400,trial,0,83,83,83,trial,"['S', 'S', 'S', 'S', 'S', 'S', 'S', 'S', 'C', 'C', 'C', 'C', 'C', 'C', 'C', 'C', 'C', 'C', 'C', 'C', 'C', 'C', 'C', 'C']","[1589073, 1589331, 1589591, 1589987, 1590414, 1590812, 1591201, 1591614, 1592023, 1592430, 1592877, 1593257, 1593655, 1594051, 1594437, 1594834, 1595230, 1595585, 1596012, 1596398, 1596811, 1597180, 1597581, 1597985]","[1589143, 1589396, 1589654, 1590052, 1590477, 1590870, 1591246, 1591671, 1592065, 1592482, 1592927, 1593308, 1593728, 1594106, 1594487, 1594878, 1595300, 1595656, 1596075, 1596460, 1596864, 1597245, 1597643, 1598025]","[1588827, 1589226, 1589626, 1590026, 1590426, 1590827, 1591226, 1591626, 1592048, 1592456, 1592902, 1593283, 1593680, 1594077, 1594463, 1594860, 1595255, 1595611, 1596038, 1596424, 1596836, 1597206, 1597606, 1598011]",27,R,ITM,1.1,
2,400,trial,0,84,84,84,trial,"['S', 'S', 'S', 'S', 'S', 'S', 'S', 'S', 'C', 'C', 'C', 'C', 'C', 'C', 'C', 'C', 'C', 'C', 'C', 'C', 'C', 'C', 'C', 'C']","[1603819, 1604050, 1604391, 1604775, 1605171, 1605553, 1605960, 1606377, 1606779, 1607186, 1607587, 1607965, 1608394, 1608795, 1609180, 1609582, 1609943, 1610340, 1610749, 1611142, 1611544, 1611901, 1612350, 1612733]","[1603877, 1604126, 1604449, 1604828, 1605191, 1605623, 1606029, 1606452, 1606833, 1607266, 1607654, 1608032, 1608470, 1608844, 1609254, 1609636, 1609999, 1610411, 1610805, 1611200, 1611610, 1611984, 1612402, 1612806]","[1603603, 1604003, 1604404, 1604804, 1605203, 1605604, 1606003, 1606405, 1606807, 1607214, 1607615, 1607992, 1608421, 1608822, 1609206, 1609609, 1609969, 1610368, 1610777, 1611169, 1611572, 1611928, 1612378, 1612761]",27,R,ITM,1.1,
4,400,trial,0,85,85,85,trial,"['S', 'S', 'S', 'S', 'S', 'S', 'S', 'C', 'C', 'C', 'C', 'C', 'C', 'C', 'C', 'C', 'C', 'C', 'C', 'C', 'C', 'C', 'C']","[1618720, 1619086, 1619502, 1619910, 1620319, 1620719, 1621149, 1621519, 1621917, 1622324, 1622686, 1623103, 1623503, 1623887, 1624265, 1624664, 1625059, 1625467, 1625832, 1626225, 1626632, 1627003, 1627411]","[1618783, 1619134, 1619564, 1619989, 1620408, 1620787, 1621217, 1621560, 1621961, 1622375, 1622759, 1623176, 1623557, 1623966, 1624336, 1624711, 1625109, 1625519, 1625908, 1626277, 1626691, 1627079, 1627442]","[1618384, 1618783, 1619183, 1619584, 1619983, 1620383, 1620784, 1621183, 1621544, 1621943, 1622349, 1622712, 1623129, 1623529, 1623913, 1624291, 1624689, 1625084, 1625493, 1625858, 1626251, 1626657, 1627029, 1627437]",27,R,ITM,1.1,
4,400,trial,0,86,86,86,trial,"['S', 'S', 'S', 'S', 'S', 'S', 'S', 'S', 'C', 'C', 'C', 'C', 'C', 'C', 'C', 'C', 'C', 'C', 'C', 'C', 'C', 'C', 'C', 'C']","[1633063, 1633338, 1633617, 1633978, 1634421, 1634810, 1635191, 1635580, 1635975, 1636369, 1636771, 1637141, 1637541, 1637934, 1638338, 1638718, 1639117, 1639496, 1639891, 1640263, 1640681, 1641048, 1641459, 1641824]","[1633120, 1633391, 1633683, 1634041, 1634468, 1634875, 1635267, 1635648, 1636043, 1636440, 1636829, 1637194, 1637611, 1638012, 1638406, 1638792, 1639192, 1639573, 1639956, 1640337, 1640747, 1641118, 1641522, 1641897]","[1632841, 1633242, 1633641, 1634041, 1634441, 1634841, 1635241, 1635641, 1636000, 1636395, 1636798, 1637167, 1637568, 1637959, 1638364, 1638744, 1639143, 1639522, 1639918, 1640289, 1640707, 1641073, 1641485, 1641849]",27,R,ITM,1.1,
3,400,trial,0,87,87,87,trial,"['S', 'S', 'S', 'S', 'S', 'S', 'S', 'S', 'C', 'C', 'C', 'C', 'C', 'C', 'C', 'C', 'C', 'C', 'C', 'C', 'C', 'C', 'C', 'C']","[1647882, 1648147, 1648378, 1648752, 1649153, 1649575, 1649986, 1650372, 1650727, 1651150, 1651544, 1651928, 1652323, 1652703, 1653094, 1653476, 1653851, 1654210, 1654624, 1655003, 1655394, 1655768, 1656152, 1656543]","[1647962, 1648214, 1648455, 1648822, 1649234, 1649666, 1650054, 1650441, 1650807, 1651214, 1651618, 1651996, 1652389, 1652779, 1653164, 1653532, 1653921, 1654294, 1654706, 1655050, 1655474, 1655843, 1656227, 1656601]","[1647605, 1648006, 1648405, 1648805, 1649205, 1649605, 1650006, 1650405, 1650753, 1651176, 1651569, 1651953, 1652348, 1652728, 1653121, 1653501, 1653876, 1654236, 1654649, 1655028, 1655419, 1655793, 1656177, 1656568]",27,R,ITM,1.1,
2,600,trial,0,88,88,88,trial,"['S', 'S', 'S', 'S', 'S', 'S', 'S', 'S', 'C', 'C', 'C', 'C', 'C', 'C', 'C', 'C', 'C', 'C', 'C', 'C', 'C', 'C', 'C', 'C']","[1662251, 1662474, 1663080, 1663685, 1664317, 1664914, 1665502, 1666086, 1666637, 1667236, 1667819, 1668388, 1668987, 1669569, 1670170, 1670739, 1671291, 1671833, 1672467, 1673023, 1673602, 1674175, 1674787, 1675346]","[1662313, 1662552, 1663185, 1663799, 1664386, 1664997, 1665586, 1666162, 1666698, 1667320, 1667898, 1668455, 1669064, 1669638, 1670226, 1670805, 1671347, 1671920, 1672507, 1673119, 1673668, 1674207, 1674815, 1675416]","[1661973, 1662573, 1663172, 1663773, 1664373, 1664973, 1665572, 1666173, 1666665, 1667263, 1667847, 1668416, 1669014, 1669597, 1670197, 1670767, 1671319, 1671860, 1672495, 1673051, 1673629, 1674203, 1674815, 1675373]",27,R,ITM,1.1,
2,400,trial,0,89,89,89,trial,"['S', 'S', 'S', 'S', 'S', 'S', 'S', 'S', 'C', 'C', 'C', 'C', 'C', 'C', 'C', 'C', 'C', 'C', 'C', 'C', 'C', 'C', 'C', 'C']","[1681057, 1681294, 1681580, 1681975, 1682363, 1682783, 1683198, 1683624, 1683999, 1684381, 1684819, 1685196, 1685637, 1686030, 1686420, 1686807, 1687185, 1687573, 1687975, 1688366, 1688759, 1689146, 1689573, 1689940]","[1681149, 1681386, 1681650, 1682036, 1682436, 1682849, 1683266, 1683682, 1684041, 1684456, 1684872, 1685260, 1685688, 1686102, 1686491, 1686871, 1687245, 1687638, 1688045, 1688441, 1688838, 1689207, 1689651, 1690018]","[1680823, 1681222, 1681624, 1682023, 1682423, 1682823, 1683223, 1683623, 1684027, 1684409, 1684846, 1685224, 1685663, 1686056, 1686448, 1686835, 1687212, 1687601, 1688003, 1688393, 1688786, 1689174, 1689600, 1689968]",27,R,ITM,1.1,
2,600,trial,0,90,90,90,trial,"['S', 'S', 'S', 'S', 'S', 'S', 'S', 'S', 'C', 'C', 'C', 'C', 'C', 'C', 'C', 'C', 'C', 'C', 'C', 'C', 'C', 'C', 'C', 'C']","[1695808, 1696062, 1696647, 1697224, 1697863, 1698486, 1699116, 1699666, 1700219, 1700793, 1701387, 1701952, 1702494, 1703065, 1703615, 1704187, 1704728, 1705248, 1705806, 1706315, 1706830, 1707365, 1707899, 1709147]","[1695898, 1696151, 1696745, 1697317, 1697929, 1698557, 1699180, 1699751, 1700278, 1700872, 1701450, 1702029, 1702573, 1703137, 1703702, 1704253, 1704762, 1705313, 1705847, 1706395, 1706908, 1707428, 1707970, 1709274]","[1695545, 1696144, 1696745, 1697345, 1697944, 1698544, 1699144, 1699745, 1700247, 1700819, 1701414, 1701980, 1702520, 1703092, 1703642, 1704215, 1704755, 1705276, 1705833, 1706343, 1706857, 1707393, 1707926, 1709173]",27,R,ITM,1.1,
7,400,trial,0,91,91,91,trial,"['S', 'S', 'S', 'S', 'S', 'S', 'S', 'S', 'C', 'C', 'C', 'C', 'C', 'C', 'C', 'C', 'C', 'C', 'C', 'C', 'C', 'C', 'C', 'C']","[1715252, 1715486, 1715755, 1716142, 1716554, 1716930, 1717323, 1717702, 1718090, 1718512, 1718896, 1719322, 1719730, 1720135, 1720502, 1720910, 1721335, 1721708, 1722087, 1722470, 1722873, 1723248, 1723639, 1724016]","[1715316, 1715558, 1715827, 1716213, 1716604, 1716998, 1717398, 1717774, 1718162, 1718579, 1718972, 1719391, 1719804, 1720189, 1720574, 1720966, 1721393, 1721771, 1722156, 1722535, 1722930, 1723320, 1723716, 1724088]","[1714954, 1715353, 1715753, 1716153, 1716553, 1716954, 1717353, 1717753, 1718118, 1718540, 1718923, 1719350, 1719756, 1720162, 1720529, 1720937, 1721362, 1721736, 1722114, 1722497, 1722901, 1723275, 1723666, 1724044]",27,R,ITM,1.1,
6,600,trial,0,92,92,92,trial,"['S', 'S', 'S', 'S', 'S', 'S', 'S', 'S', 'C', 'C', 'C', 'C', 'C', 'C', 'C', 'C', 'C', 'C', 'C', 'C', 'C', 'C', 'C', 'C']","[1729940, 1730232, 1730848, 1731409, 1732056, 1732641, 1733285, 1733876, 1734462, 1734982, 1735562, 1736101, 1736679, 1737232, 1737772, 1738350, 1738905, 1739448, 1740007, 1740507, 1741081, 1741631, 1742158, 1742695]","[1730044, 1730331, 1730932, 1731429, 1732076, 1732661, 1733365, 1733933, 1734531, 1735062, 1735589, 1736128, 1736712, 1737260, 1737806, 1738390, 1738968, 1739475, 1740044, 1740567, 1741109, 1741719, 1742236, 1742765]","[1729719, 1730318, 1730918, 1731518, 1732118, 1732718, 1733318, 1733918, 1734489, 1735010, 1735589, 1736128, 1736706, 1737260, 1737799, 1738378, 1738932, 1739475, 1740035, 1740534, 1741109, 1741659, 1742185, 1742722]",27,R,ITM,1.1,
6,400,trial,0,93,93,93,trial,"['S', 'S', 'S', 'S', 'S', 'S', 'S', 'S', 'C', 'C', 'C', 'C', 'C', 'C', 'C', 'C', 'C', 'C', 'C', 'C', 'C', 'C', 'C', 'C']","[1748458, 1748729, 1749035, 1749371, 1749776, 1750166, 1750592, 1751019, 1751455, 1751865, 1752294, 1752684, 1753081, 1753479, 1753856, 1754247, 1754651, 1755037, 1755424, 1755826, 1756218, 1756587, 1756988, 1757368]","[1748542, 1748805, 1749086, 1749459, 1749848, 1750220, 1750660, 1751040, 1751482, 1751902, 1752321, 1752724, 1753113, 1753546, 1753913, 1754303, 1754678, 1755072, 1755485, 1755857, 1756244, 1756617, 1757025, 1757404]","[1748259, 1748659, 1749059, 1749459, 1749859, 1750259, 1750660, 1751059, 1751482, 1751891, 1752321, 1752712, 1753108, 1753505, 1753882, 1754273, 1754678, 1755065, 1755452, 1755853, 1756244, 1756613, 1757015, 1757394]",27,R,ITM,1.1,
7,600,trial,0,94,94,94,trial,"['S', 'S', 'S', 'S', 'S', 'S', 'S', 'S', 'C', 'C', 'C', 'C', 'C', 'C', 'C', 'C', 'C', 'C', 'C', 'C', 'C', 'C', 'C', 'C']","[1763051, 1763311, 1763887, 1764496, 1765148, 1765728, 1766330, 1766910, 1767495, 1768101, 1769187, 1769707, 1770232, 1770764, 1771303, 1771897, 1772859, 1773344, 1773830, 1774346, 1774881, 1775474, 1776018, 1776517]","[1763140, 1763401, 1763907, 1764601, 1765168, 1765748, 1766350, 1766930, 1767523, 1768128, 1769321, 1769811, 1770315, 1770862, 1771331, 1771924, 1773031, 1773480, 1773941, 1774418, 1774959, 1775557, 1776113, 1776624]","[1762801, 1763401, 1764001, 1764601, 1765201, 1765801, 1766402, 1767002, 1767523, 1768128, 1769214, 1769735, 1770259, 1770791, 1771331, 1771924, 1772886, 1773372, 1773857, 1774373, 1774909, 1775502, 1776045, 1776544]",27,R,ITM,1.1,
7,600,trial,0,95,95,95,trial,"['S', 'S', 'S', 'S', 'S', 'S', 'S', 'S', 'C', 'C', 'C', 'C', 'C', 'C', 'C', 'C', 'C', 'C', 'C', 'C', 'C', 'C', 'C', 'C']","[1782136, 1782447, 1783094, 1783713, 1784301, 1784894, 1785511, 1786103, 1786711, 1787311, 1787892, 1788485, 1789057, 1789601, 1790253, 1790829, 1791398, 1791952, 1792513, 1793051, 1793598, 1794201, 1794738, 1795283]","[1782237, 1782565, 1783199, 1783794, 1784414, 1785003, 1785651, 1786228, 1786821, 1787417, 1788016, 1788585, 1789155, 1789691, 1790351, 1790899, 1791489, 1792021, 1792604, 1793078, 1793668, 1794273, 1794768, 1795352]","[1781946, 1782545, 1783145, 1783745, 1784345, 1784945, 1785545, 1786145, 1786738, 1787337, 1787920, 1788513, 1789084, 1789628, 1790279, 1790857, 1791425, 1791979, 1792540, 1793078, 1793625, 1794229, 1794764, 1795310]",27,R,ITM,1.1,
6,400,trial,0,96,96,96,trial,"['S', 'S', 'S', 'S', 'S', 'S', 'S', 'S', 'C', 'C', 'C', 'C', 'C', 'C', 'C', 'C', 'C', 'C', 'C', 'C', 'C', 'C', 'C', 'C']","[1801141, 1801358, 1801623, 1802034, 1802446, 1802851, 1803243, 1803636, 1804050, 1804455, 1804846, 1805223, 1805662, 1806057, 1806437, 1806846, 1807225, 1807640, 1808026, 1808430, 1808793, 1809187, 1809588, 1809979]","[1801211, 1801445, 1801730, 1802117, 1802546, 1802969, 1803337, 1803729, 1804140, 1804556, 1804939, 1805334, 1805759, 1806144, 1806542, 1806947, 1807311, 1807734, 1808113, 1808518, 1808868, 1809291, 1809680, 1810057]","[1800876, 1801274, 1801674, 1802075, 1802474, 1802874, 1803274, 1803674, 1804077, 1804482, 1804872, 1805250, 1805688, 1806085, 1806464, 1806872, 1807252, 1807667, 1808054, 1808456, 1808821, 1809215, 1809614, 1810006]",27,R,ITM,1.1,
6,600,trial,0,97,97,97,trial,"['S', 'S', 'S', 'S', 'S', 'S', 'S', 'S', 'C', 'C', 'C', 'C', 'C', 'C', 'C', 'C', 'C', 'C', 'C', 'C', 'C', 'C', 'C', 'C']","[1815901, 1816140, 1816759, 1817396, 1818031, 1818599, 1819193, 1819817, 1820399, 1821002, 1821589, 1822124, 1822710, 1823323, 1823910, 1824451, 1825002, 1825582, 1826135, 1826667, 1827244, 1827833, 1828386, 1828932]","[1815987, 1816233, 1816868, 1817495, 1818122, 1818699, 1819286, 1819907, 1820490, 1821082, 1821679, 1822219, 1822796, 1823403, 1824002, 1824553, 1825093, 1825658, 1826212, 1826757, 1827335, 1827910, 1828492, 1829015]","[1815688, 1816286, 1816886, 1817486, 1818086, 1818686, 1819286, 1819886, 1820426, 1821029, 1821616, 1822150, 1822738, 1823349, 1823938, 1824479, 1825029, 1825608, 1826161, 1826694, 1827270, 1827860, 1828414, 1828960]",27,R,ITM,1.1,
5,400,trial,0,98,98,98,trial,"['S', 'S', 'S', 'S', 'S', 'S', 'S', 'S', 'C', 'C', 'C', 'C', 'C', 'C', 'C', 'C', 'C', 'C', 'C', 'C', 'C', 'C', 'C', 'C']","[1834838, 1835078, 1835315, 1835683, 1836091, 1836489, 1836887, 1837287, 1837687, 1838110, 1838505, 1838909, 1839296, 1839686, 1840080, 1840463, 1840854, 1841267, 1841667, 1842050, 1842453, 1842864, 1843248, 1843652]","[1834923, 1835163, 1835396, 1835766, 1836171, 1836559, 1836957, 1837361, 1837761, 1838180, 1838567, 1838950, 1839367, 1839759, 1840147, 1840527, 1840927, 1841341, 1841742, 1842108, 1842527, 1842928, 1843320, 1843728]","[1834549, 1834948, 1835348, 1835748, 1836148, 1836549, 1836948, 1837348, 1837713, 1838136, 1838531, 1838935, 1839322, 1839712, 1840106, 1840489, 1840880, 1841293, 1841692, 1842075, 1842480, 1842889, 1843273, 1843678]",27,R,ITM,1.1,
4,600,trial,0,99,99,99,trial,"['S', 'S', 'S', 'S', 'S', 'S', 'S', 'S', 'C', 'C', 'C', 'C', 'C', 'C', 'C', 'C', 'C', 'C', 'C', 'C', 'C', 'C', 'C', 'C']","[1849672, 1849950, 1850518, 1851116, 1851763, 1852388, 1852963, 1853544, 1854159, 1854728, 1855305, 1855872, 1856460, 1856990, 1857567, 1858146, 1858705, 1859260, 1859827, 1860385, 1860939, 1861480, 1862027, 1862543]","[1849781, 1850047, 1850620, 1851218, 1851839, 1852467, 1853051, 1853612, 1854221, 1854815, 1855387, 1855938, 1856525, 1857100, 1857658, 1858230, 1858803, 1859348, 1859908, 1860459, 1861000, 1861576, 1862096, 1862611]","[1849411, 1850011, 1850611, 1851211, 1851811, 1852411, 1853011, 1853612, 1854185, 1854753, 1855331, 1855897, 1856486, 1857015, 1857593, 1858171, 1858731, 1859286, 1859854, 1860411, 1860966, 1861506, 1862052, 1862568]",27,R,ITM,1.1,
5,600,trial,0,100,100,100,trial,"['S', 'S', 'S', 'S', 'S', 'S', 'S', 'S', 'C', 'C', 'C', 'C', 'C', 'C', 'C', 'C', 'C', 'C', 'C', 'C', 'C', 'C', 'C', 'C']","[1868347, 1868580, 1869096, 1869714, 1870331, 1870931, 1871564, 1872150, 1872801, 1873376, 1873987, 1874562, 1875139, 1875744, 1876324, 1876926, 1877558, 1878099, 1878712, 1879215, 1879777, 1880329, 1880873, 1881458]","[1868433, 1868676, 1869198, 1869817, 1870409, 1871015, 1871656, 1872224, 1872863, 1873454, 1874054, 1874636, 1875224, 1875836, 1876429, 1876993, 1877628, 1878179, 1878793, 1879289, 1879858, 1880404, 1880944, 1881497]","[1868034, 1868633, 1869233, 1869832, 1870432, 1871032, 1871632, 1872232, 1872827, 1873401, 1874014, 1874587, 1875166, 1875770, 1876349, 1876952, 1877583, 1878125, 1878737, 1879240, 1879803, 1880354, 1880899, 1881484]",27,R,ITM,1.1,
3,600,trial,0,101,101,101,trial,"['S', 'S', 'S', 'C', 'C', 'C', 'C', 'C', 'C', 'C', 'C', 'C', 'C', 'C', 'C', 'C', 'C', 'C', 'C']","[1889746, 1890283, 1890925, 1891546, 1892118, 1892673, 1893219, 1893788, 1894342, 1894900, 1895449, 1895981, 1896520, 1897067, 1897578, 1898132, 1898672, 1899203, 1899751]","[1889835, 1890362, 1891000, 1891607, 1892183, 1892734, 1893265, 1893846, 1894404, 1894951, 1895475, 1896006, 1896555, 1897142, 1897653, 1898201, 1898732, 1899288, 1899820]","[1886831, 1887431, 1888031, 1888631, 1889231, 1889831, 1890432, 1891032, 1891571, 1892144, 1892699, 1893244, 1893814, 1894368, 1894926, 1895475, 1896006, 1896546, 1897093, 1897604, 1898158, 1898697, 1899229, 1899777]",27,R,ITM,1.1,
3,400,trial,0,102,102,102,trial,"['S', 'S', 'S', 'S', 'S', 'S', 'S', 'S', 'C', 'C', 'C', 'C', 'C', 'C', 'C', 'C', 'C', 'C', 'C', 'C', 'C', 'C', 'C', 'C']","[1905430, 1905696, 1905946, 1906332, 1906761, 1907156, 1907548, 1907938, 1908324, 1908737, 1909138, 1909508, 1909933, 1910332, 1910716, 1911119, 1911496, 1911896, 1912303, 1912693, 1913097, 1913494, 1913878, 1914248]","[1905508, 1905769, 1906015, 1906402, 1906808, 1907221, 1907603, 1907987, 1908374, 1908800, 1909173, 1909574, 1910008, 1910402, 1910780, 1911189, 1911543, 1911965, 1912353, 1912745, 1913151, 1913556, 1913942, 1914324]","[1905174, 1905574, 1905974, 1906374, 1906775, 1907174, 1907574, 1907975, 1908349, 1908762, 1909164, 1909533, 1909958, 1910358, 1910742, 1911145, 1911522, 1911921, 1912329, 1912719, 1913122, 1913520, 1913904, 1914273]",27,R,ITM,1.1,
2,400,trial,0,103,103,103,trial,"['S', 'S', 'S', 'S', 'S', 'S', 'S', 'S', 'C', 'C', 'C', 'C', 'C', 'C', 'C', 'C', 'C', 'C', 'C', 'C', 'C', 'C', 'C', 'C']","[1920080, 1920303, 1920552, 1920937, 1921320, 1921721, 1922109, 1922548, 1922929, 1923339, 1923732, 1924122, 1924503, 1924892, 1925274, 1925648, 1926024, 1926418, 1926819, 1927225, 1927619, 1928002, 1928376, 1928755]","[1920138, 1920378, 1920631, 1921008, 1921392, 1921808, 1922208, 1922616, 1922994, 1923406, 1923796, 1924193, 1924572, 1924960, 1925350, 1925699, 1926102, 1926505, 1926893, 1927280, 1927694, 1928077, 1928455, 1928829]","[1919773, 1920173, 1920573, 1920972, 1921374, 1921773, 1922172, 1922572, 1922957, 1923365, 1923759, 1924149, 1924531, 1924920, 1925301, 1925676, 1926050, 1926445, 1926846, 1927252, 1927647, 1928029, 1928403, 1928782]",27,R,ITM,1.1,
5,600,trial,0,104,104,104,trial,"['S', 'S', 'S', 'S', 'S', 'S', 'S', 'S', 'S', 'C', 'C', 'C', 'C', 'C', 'C', 'C', 'C', 'C', 'C', 'C', 'C', 'C', 'C', 'C', 'C']","[1934536, 1934756, 1935053, 1935478, 1936034, 1936603, 1937193, 1937769, 1938371, 1938974, 1939525, 1940088, 1940656, 1941196, 1941739, 1942274, 1942822, 1943330, 1943903, 1944433, 1944966, 1945500, 1946005, 1946518, 1947111]","[1934609, 1934837, 1935153, 1935616, 1936133, 1936696, 1937278, 1937866, 1938440, 1939034, 1939618, 1940162, 1940722, 1941260, 1941815, 1942361, 1942888, 1943409, 1943965, 1944513, 1945029, 1945575, 1946070, 1946596, 1947179]","[1934298, 1934897, 1935496, 1936096, 1936696, 1937296, 1937896, 1938496, 1939001, 1939551, 1940115, 1940681, 1941222, 1941765, 1942299, 1942848, 1943356, 1943928, 1944459, 1944992, 1945527, 1946032, 1946544, 1947137]",27,R,ITM,1.1,
6,600,trial,0,105,105,105,trial,"['S', 'S', 'S', 'S', 'S', 'S', 'S', 'S', 'C', 'C', 'C', 'C', 'C', 'C', 'C', 'C', 'C', 'C', 'C', 'C', 'C', 'C', 'C', 'C']","[1953058, 1953272, 1953833, 1954408, 1955048, 1955661, 1956239, 1956833, 1957465, 1958035, 1958595, 1959160, 1959749, 1960318, 1960860, 1961375, 1961932, 1962446, 1963017, 1963568, 1964095, 1964614, 1965161, 1965707]","[1953116, 1953388, 1953939, 1954506, 1955159, 1955757, 1956331, 1956926, 1957492, 1958088, 1958675, 1959223, 1959813, 1960382, 1960931, 1961447, 1961992, 1962502, 1963095, 1963628, 1964174, 1964670, 1965229, 1965765]","[1952751, 1953350, 1953950, 1954550, 1955150, 1955750, 1956350, 1956951, 1957492, 1958063, 1958622, 1959187, 1959777, 1960346, 1960887, 1961402, 1961959, 1962474, 1963043, 1963595, 1964123, 1964641, 1965188, 1965734]",27,R,ITM,1.1,
5,400,trial,0,106,106,106,trial,"['S', 'S', 'S', 'S', 'S', 'S', 'S', 'S', 'C', 'C', 'C', 'C', 'C', 'C', 'C', 'C', 'C', 'C', 'C', 'C', 'C', 'C', 'C', 'C']","[1971686, 1971920, 1972166, 1972554, 1972978, 1973362, 1973747, 1974151, 1974580, 1975020, 1975385, 1975776, 1976171, 1976546, 1976927, 1977314, 1977707, 1978087, 1978496, 1978859, 1979246, 1979651, 1980040, 1980402]","[1971768, 1971995, 1972273, 1972638, 1973066, 1973450, 1973810, 1974215, 1974626, 1975046, 1975447, 1975829, 1976217, 1976597, 1976985, 1977379, 1977777, 1978165, 1978559, 1978923, 1979322, 1979725, 1980109, 1980477]","[1971379, 1971778, 1972178, 1972578, 1972978, 1973379, 1973778, 1974178, 1974605, 1975046, 1975411, 1975801, 1976197, 1976571, 1976953, 1977340, 1977733, 1978113, 1978521, 1978885, 1979272, 1979676, 1980065, 1980429]",27,R,ITM,1.1,
7,400,trial,0,107,107,107,trial,"['S', 'S', 'S', 'S', 'S', 'S', 'S', 'S', 'C', 'C', 'C', 'C', 'C', 'C', 'C', 'C', 'C', 'C', 'C', 'C', 'C', 'C', 'C', 'C']","[1986180, 1986414, 1986704, 1987077, 1987488, 1987866, 1988269, 1988664, 1989083, 1989477, 1989909, 1990274, 1990668, 1991053, 1991455, 1991828, 1992227, 1992615, 1992985, 1993381, 1993768, 1994155, 1994546, 1994925]","[1986263, 1986500, 1986784, 1987143, 1987559, 1987951, 1988359, 1988748, 1989156, 1989555, 1989972, 1990344, 1990727, 1991116, 1991530, 1991916, 1992293, 1992673, 1993057, 1993447, 1993827, 1994225, 1994604, 1994976]","[1985923, 1986322, 1986722, 1987123, 1987523, 1987923, 1988323, 1988723, 1989109, 1989504, 1989936, 1990301, 1990694, 1991080, 1991483, 1991855, 1992254, 1992643, 1993013, 1993408, 1993795, 1994181, 1994572, 1994952]",27,R,ITM,1.1,
6,400,trial,0,108,108,108,trial,"['S', 'S', 'S', 'S', 'S', 'S', 'S', 'S', 'C', 'C', 'C', 'C', 'C', 'C', 'C', 'C', 'C', 'C', 'C', 'C', 'C', 'C', 'C', 'C']","[2000816, 2001124, 2001370, 2001747, 2002146, 2002532, 2002932, 2003357, 2003751, 2004133, 2004524, 2004911, 2005284, 2005670, 2006076, 2006434, 2006810, 2007235, 2007595, 2007977, 2008366, 2008750, 2009135, 2009506]","[2000927, 2001212, 2001452, 2001822, 2002234, 2002606, 2003014, 2003423, 2003826, 2004219, 2004592, 2004978, 2005351, 2005729, 2006139, 2006512, 2006878, 2007303, 2007677, 2008052, 2008435, 2008821, 2009202, 2009574]","[2000587, 2000987, 2001386, 2001786, 2002186, 2002586, 2002987, 2003386, 2003779, 2004161, 2004550, 2004937, 2005311, 2005698, 2006103, 2006461, 2006837, 2007263, 2007622, 2008004, 2008392, 2008776, 2009161, 2009534]",27,R,ITM,1.1,
4,600,trial,0,109,109,109,trial,"['S', 'S', 'S', 'S', 'S', 'S', 'S', 'S', 'C', 'C', 'C', 'C', 'C', 'C', 'C', 'C', 'C', 'C', 'C', 'C', 'C', 'C', 'C', 'C']","[2015430, 2015710, 2016186, 2016776, 2017387, 2017982, 2018603, 2019176, 2019775, 2020348, 2020919, 2021460, 2022040, 2022599, 2023158, 2023698, 2024215, 2024791, 2025344, 2025879, 2026396, 2026953, 2027451, 2027959]","[2015504, 2015819, 2016296, 2016900, 2017496, 2018087, 2018696, 2019259, 2019858, 2020430, 2020985, 2021538, 2022095, 2022702, 2023235, 2023762, 2024273, 2024841, 2025414, 2025938, 2026455, 2027008, 2027508, 2028034]","[2015078, 2015678, 2016278, 2016878, 2017478, 2018078, 2018678, 2019278, 2019801, 2020374, 2020945, 2021485, 2022066, 2022626, 2023184, 2023724, 2024241, 2024816, 2025370, 2025905, 2026422, 2026980, 2027476, 2027984]",27,R,ITM,1.1,
7,600,trial,0,110,110,110,trial,"['S', 'S', 'S', 'S', 'S', 'S', 'S', 'S', 'S', 'C', 'C', 'C', 'C', 'C', 'C', 'C', 'C', 'C', 'C', 'C', 'C', 'C', 'C', 'C', 'C']","[2033585, 2033817, 2034108, 2034461, 2035048, 2035680, 2036274, 2036938, 2037495, 2038145, 2038776, 2039383, 2039979, 2040564, 2041151, 2041754, 2042339, 2042908, 2043490, 2044073, 2044638, 2045203, 2045782, 2046383, 2046943]","[2033662, 2033901, 2034192, 2034706, 2035193, 2035771, 2036346, 2037025, 2037583, 2038226, 2038857, 2039460, 2040044, 2040620, 2041222, 2041807, 2042411, 2042984, 2043561, 2044160, 2044679, 2045287, 2045850, 2046412, 2046996]","[2033339, 2033938, 2034538, 2035138, 2035738, 2036338, 2036938, 2037538, 2038171, 2038804, 2039410, 2040005, 2040591, 2041179, 2041781, 2042366, 2042936, 2043516, 2044101, 2044665, 2045231, 2045809, 2046409, 2046969]",27,R,ITM,1.1,
4,400,trial,0,111,111,111,trial,"['S', 'S', 'S', 'S', 'S', 'S', 'S', 'S', 'C', 'C', 'C', 'C', 'C', 'C', 'C', 'C', 'C', 'C', 'C', 'C', 'C', 'C', 'C', 'C']","[2052794, 2053011, 2053277, 2053673, 2054069, 2054464, 2054855, 2055261, 2055690, 2056113, 2056521, 2056936, 2057341, 2057743, 2058133, 2058535, 2058956, 2059350, 2059764, 2060169, 2060555, 2060977, 2061384, 2061774]","[2052880, 2053103, 2053384, 2053734, 2054134, 2054529, 2054917, 2055307, 2055754, 2056166, 2056589, 2056995, 2057406, 2057793, 2058206, 2058602, 2059016, 2059409, 2059820, 2060212, 2060624, 2061028, 2061448, 2061829]","[2052517, 2052916, 2053316, 2053716, 2054116, 2054516, 2054917, 2055316, 2055716, 2056138, 2056547, 2056962, 2057367, 2057768, 2058159, 2058561, 2058982, 2059376, 2059790, 2060194, 2060580, 2061002, 2061411, 2061801]",27,R,ITM,1.1,
3,600,trial,0,112,112,112,trial,"['S', 'S', 'S', 'S', 'S', 'S', 'S', 'S', 'C', 'C', 'C', 'C', 'C', 'C', 'C', 'C', 'C', 'C', 'C', 'C', 'C', 'C', 'C', 'C']","[2067437, 2067655, 2068244, 2068830, 2069462, 2070040, 2070599, 2071182, 2071822, 2072359, 2072955, 2073530, 2074105, 2074680, 2075224, 2075824, 2076369, 2076903, 2077468, 2078071, 2078602, 2079136, 2079656, 2080204]","[2067506, 2067752, 2068365, 2068937, 2069556, 2070129, 2070684, 2071241, 2071905, 2072436, 2072981, 2073555, 2074131, 2074741, 2075299, 2075887, 2076420, 2076972, 2077526, 2078097, 2078671, 2079206, 2079739, 2080257]","[2067148, 2067748, 2068348, 2068948, 2069549, 2070149, 2070749, 2071349, 2071847, 2072385, 2072981, 2073555, 2074131, 2074705, 2075249, 2075849, 2076395, 2076929, 2077494, 2078097, 2078627, 2079162, 2079682, 2080230]",27,R,ITM,1.1,
5,600,trial,0,113,113,113,trial,"['S', 'S', 'S', 'S', 'S', 'S', 'S', 'S', 'C', 'C', 'C', 'C', 'C', 'C', 'C', 'C', 'C', 'C', 'C', 'C', 'C', 'C', 'C', 'C']","[2086208, 2086433, 2086932, 2087526, 2088156, 2088702, 2089344, 2089988, 2090617, 2091247, 2091832, 2092434, 2093036, 2093608, 2094175, 2094758, 2095327, 2095887, 2096440, 2096980, 2097531, 2098114, 2098711, 2099321]","[2086290, 2086543, 2087024, 2087607, 2088226, 2088760, 2089399, 2090056, 2090672, 2091279, 2091908, 2092466, 2093063, 2093663, 2094239, 2094818, 2095360, 2095917, 2096493, 2097038, 2097606, 2098173, 2098752, 2099371]","[2085922, 2086521, 2087121, 2087721, 2088322, 2088922, 2089522, 2090122, 2090643, 2091273, 2091858, 2092460, 2093062, 2093634, 2094201, 2094784, 2095352, 2095913, 2096465, 2097007, 2097558, 2098141, 2098737, 2099347]",27,R,ITM,1.1,
2,600,trial,0,114,114,114,trial,"['S', 'S', 'S', 'S', 'S', 'S', 'S', 'S', 'C', 'C', 'C', 'C', 'C', 'C', 'C', 'C', 'C', 'C', 'C', 'C', 'C', 'C', 'C', 'C']","[2105367, 2105650, 2106251, 2106847, 2107438, 2108034, 2108624, 2109205, 2109830, 2110430, 2111037, 2111581, 2112187, 2112759, 2113316, 2113881, 2114436, 2114970, 2115591, 2116121, 2116681, 2117211, 2117731, 2118249]","[2105442, 2105755, 2106349, 2106928, 2107510, 2108110, 2108694, 2109257, 2109871, 2110476, 2111065, 2111641, 2112258, 2112830, 2113385, 2113941, 2114495, 2115034, 2115618, 2116179, 2116740, 2117260, 2117780, 2118298]","[2105120, 2105720, 2106320, 2106920, 2107521, 2108121, 2108721, 2109321, 2109856, 2110456, 2111065, 2111607, 2112215, 2112787, 2113343, 2113907, 2114462, 2114998, 2115618, 2116148, 2116709, 2117237, 2117757, 2118277]",27,R,ITM,1.1,
7,400,trial,0,115,115,115,trial,"['S', 'S', 'S', 'S', 'S', 'S', 'S', 'S', 'C', 'C', 'C', 'C', 'C', 'C', 'C', 'C', 'C', 'C', 'C', 'C', 'C', 'C', 'C', 'C']","[2124232, 2124469, 2124711, 2125109, 2125507, 2125907, 2126324, 2126731, 2127134, 2127539, 2127959, 2128365, 2128739, 2129154, 2129559, 2129920, 2130337, 2130712, 2131115, 2131516, 2131927, 2132317, 2132728, 2133127]","[2124323, 2124541, 2124785, 2125179, 2125579, 2125966, 2126367, 2126774, 2127180, 2127590, 2128018, 2128423, 2128796, 2129198, 2129608, 2129984, 2130385, 2130765, 2131172, 2131559, 2131986, 2132387, 2132793, 2133173]","[2123941, 2124340, 2124740, 2125140, 2125540, 2125940, 2126341, 2126740, 2127162, 2127565, 2127986, 2128392, 2128766, 2129180, 2129586, 2129947, 2130364, 2130740, 2131141, 2131543, 2131953, 2132343, 2132755, 2133154]",27,R,ITM,1.1,
2,400,trial,0,116,116,116,trial,"['S', 'S', 'S', 'S', 'S', 'S', 'S', 'S', 'C', 'C', 'C', 'C', 'C', 'C', 'C', 'C', 'C', 'C', 'C', 'C', 'C', 'C', 'C', 'C']","[2138875, 2139089, 2139403, 2139769, 2140194, 2140609, 2141004, 2141391, 2141807, 2142208, 2142592, 2143004, 2143408, 2143775, 2144187, 2144565, 2144955, 2145346, 2145767, 2146159, 2146558, 2146963, 2147346, 2147745]","[2138950, 2139177, 2139466, 2139827, 2140250, 2140661, 2141056, 2141442, 2141859, 2142264, 2142646, 2143063, 2143439, 2143832, 2144245, 2144611, 2145013, 2145411, 2145829, 2146225, 2146624, 2147030, 2147402, 2147800]","[2138627, 2139026, 2139426, 2139826, 2140226, 2140625, 2141026, 2141426, 2141834, 2142235, 2142618, 2143032, 2143435, 2143803, 2144214, 2144591, 2144982, 2145373, 2145794, 2146187, 2146586, 2146991, 2147374, 2147772]",27,R,ITM,1.1,
3,400,trial,0,117,117,117,trial,"['S', 'S', 'S', 'S', 'S', 'S', 'S', 'S', 'C', 'C', 'C', 'C', 'C', 'C', 'C', 'C', 'C', 'C', 'C', 'C', 'C', 'C', 'C', 'C']","[2153675, 2153914, 2154252, 2154617, 2155022, 2155430, 2155842, 2156230, 2156643, 2157029, 2157442, 2157833, 2158236, 2158617, 2159008, 2159397, 2159749, 2160168, 2160545, 2160932, 2161311, 2161705, 2162091, 2162482]","[2153749, 2153992, 2154311, 2154693, 2155098, 2155501, 2155898, 2156297, 2156699, 2157096, 2157474, 2157871, 2158292, 2158688, 2159053, 2159459, 2159811, 2160235, 2160615, 2160992, 2161377, 2161754, 2162146, 2162538]","[2153461, 2153862, 2154261, 2154661, 2155061, 2155461, 2155862, 2156261, 2156668, 2157054, 2157467, 2157858, 2158262, 2158643, 2159034, 2159423, 2159774, 2160194, 2160571, 2160958, 2161337, 2161730, 2162116, 2162507]",27,R,ITM,1.1,
6,400,trial,0,118,118,118,trial,"['S', 'S', 'S', 'S', 'S', 'S', 'S', 'S', 'C', 'C', 'C', 'C', 'C', 'C', 'C', 'C', 'C', 'C', 'C', 'C', 'C', 'C', 'C', 'C']","[2168340, 2168567, 2168821, 2169194, 2169608, 2170020, 2170395, 2170787, 2171174, 2171554, 2171945, 2172322, 2172705, 2173097, 2173490, 2173863, 2174258, 2174628, 2175016, 2175423, 2175792, 2176181, 2176572, 2176944]","[2168424, 2168646, 2168911, 2169274, 2169686, 2170092, 2170474, 2170850, 2171238, 2171626, 2172011, 2172389, 2172761, 2173157, 2173542, 2173904, 2174311, 2174693, 2175069, 2175474, 2175841, 2176224, 2176611, 2176980]","[2168059, 2168459, 2168859, 2169260, 2169659, 2170059, 2170460, 2170859, 2171201, 2171581, 2171972, 2172350, 2172732, 2173124, 2173517, 2173890, 2174284, 2174655, 2175043, 2175450, 2175818, 2176208, 2176599, 2176971]",27,R,ITM,1.1,
2,600,trial,0,119,119,119,trial,"['S', 'S', 'S', 'S', 'S', 'S', 'S', 'S', 'C', 'C', 'C', 'C', 'C', 'C', 'C', 'C', 'C', 'C', 'C', 'C', 'C', 'C', 'C', 'C']","[2182789, 2183021, 2183609, 2184232, 2184852, 2185428, 2186023, 2186633, 2187259, 2187794, 2188353, 2188946, 2189518, 2190105, 2190660, 2191217, 2191759, 2192342, 2192902, 2193492, 2194042, 2194593, 2195124, 2195640]","[2182876, 2183097, 2183700, 2184299, 2184904, 2185481, 2186083, 2186694, 2187308, 2187846, 2188393, 2188982, 2189549, 2190139, 2190693, 2191253, 2191802, 2192369, 2192928, 2193523, 2194069, 2194620, 2195158, 2195668]","[2182532, 2183132, 2183732, 2184332, 2184932, 2185532, 2186132, 2186732, 2187287, 2187822, 2188381, 2188974, 2189545, 2190132, 2190688, 2191245, 2191785, 2192368, 2192928, 2193520, 2194069, 2194620, 2195151, 2195666]",27,R,ITM,1.1,
4,400,trial,0,120,120,120,trial,"['S', 'S', 'S', 'S', 'S', 'S', 'S', 'S', 'C', 'C', 'C', 'C', 'C', 'C', 'C', 'C', 'C', 'C', 'C', 'C', 'C', 'C', 'C', 'C']","[2201590, 2201825, 2202105, 2202482, 2202917, 2203298, 2203696, 2204114, 2204528, 2204909, 2205305, 2205704, 2206112, 2206505, 2206913, 2207330, 2207711, 2208115, 2208510, 2208881, 2209293, 2209679, 2210075, 2210463]","[2201637, 2201889, 2202162, 2202517, 2202949, 2203335, 2203727, 2204145, 2204554, 2204942, 2205332, 2205731, 2206141, 2206533, 2206941, 2207355, 2207737, 2208146, 2208553, 2208924, 2209324, 2209704, 2210107, 2210494]","[2201335, 2201735, 2202135, 2202535, 2202935, 2203335, 2203736, 2204135, 2204554, 2204935, 2205331, 2205729, 2206138, 2206531, 2206939, 2207355, 2207736, 2208141, 2208535, 2208907, 2209318, 2209704, 2210102, 2210489]",27,R,ITM,1.1,
6,600,trial,0,121,121,121,trial,"['S', 'S', 'S', 'S', 'S', 'S', 'S', 'S', 'C', 'C', 'C', 'C', 'C', 'C', 'C', 'C', 'C', 'C', 'C', 'C', 'C', 'C', 'C', 'C']","[2216112, 2216430, 2216905, 2217493, 2218116, 2218712, 2219275, 2219883, 2220531, 2221067, 2221647, 2222220, 2222786, 2223333, 2223902, 2224443, 2225019, 2225525, 2226130, 2226678, 2227253, 2227782, 2228385, 2228971]","[2216147, 2216482, 2216956, 2217540, 2218153, 2218741, 2219321, 2219927, 2220564, 2221104, 2221680, 2222256, 2222818, 2223363, 2223953, 2224474, 2225052, 2225561, 2226157, 2226711, 2227279, 2227815, 2228413, 2228998]","[2215803, 2216402, 2217003, 2217603, 2218203, 2218803, 2219403, 2220003, 2220559, 2221093, 2221675, 2222246, 2222813, 2223361, 2223929, 2224470, 2225046, 2225553, 2226157, 2226705, 2227279, 2227809, 2228413, 2228998]",27,R,ITM,1.1,
7,600,trial,0,122,122,122,trial,"['S', 'S', 'S', 'S', 'S', 'S', 'S', 'S', 'C', 'C', 'C', 'C', 'C', 'C', 'C', 'C', 'C', 'C', 'C', 'C', 'C', 'C', 'C', 'C']","[2234962, 2235188, 2235915, 2236507, 2237130, 2237707, 2238323, 2238904, 2239502, 2240082, 2240662, 2241233, 2241792, 2242380, 2242927, 2243517, 2244064, 2244634, 2245184, 2245713, 2246295, 2246815, 2247372, 2247953]","[2234989, 2235231, 2235936, 2236547, 2237159, 2237747, 2238347, 2238945, 2239528, 2240111, 2240694, 2241260, 2241819, 2242407, 2242960, 2243545, 2244110, 2244662, 2245218, 2245772, 2246323, 2246846, 2247399, 2247980]","[2234746, 2235345, 2235945, 2236546, 2237146, 2237746, 2238345, 2238945, 2239528, 2240110, 2240689, 2241260, 2241818, 2242407, 2242954, 2243545, 2244090, 2244661, 2245212, 2245740, 2246323, 2246843, 2247399, 2247980]",27,R,ITM,1.1,
3,600,trial,0,123,123,123,trial,"['S', 'S', 'S', 'S', 'S', 'S', 'S', 'C', 'C', 'C', 'C', 'C', 'C', 'C', 'C', 'C', 'C', 'C', 'C', 'C', 'C', 'C', 'C']","[2253777, 2254325, 2255006, 2255747, 2256215, 2256804, 2257381, 2257968, 2258510, 2259084, 2259627, 2260153, 2260707, 2261222, 2261800, 2262356, 2262866, 2263415, 2263961, 2264513, 2265012, 2265548, 2266094]","[2253839, 2254405, 2255052, 2255794, 2256263, 2256842, 2257423, 2257999, 2258542, 2259117, 2259661, 2260185, 2260736, 2261252, 2261826, 2262383, 2262917, 2263443, 2263993, 2264539, 2265054, 2265598, 2266128]","[2253304, 2253904, 2254504, 2255105, 2255705, 2256305, 2256904, 2257504, 2257993, 2258536, 2259109, 2259652, 2260178, 2260732, 2261248, 2261826, 2262382, 2262892, 2263441, 2263987, 2264539, 2265037, 2265574, 2266120]",27,R,ITM,1.1,
5,400,trial,0,124,124,124,trial,"['S', 'S', 'S', 'S', 'S', 'S', 'S', 'S', 'C', 'C', 'C', 'C', 'C', 'C', 'C', 'C', 'C', 'C', 'C', 'C', 'C', 'C', 'C', 'C']","[2271930, 2272164, 2272493, 2272875, 2273245, 2273628, 2274050, 2274446, 2274860, 2275231, 2275625, 2276271, 2276642, 2277025, 2277422, 2277786, 2278171, 2278556, 2278946, 2279329, 2279704, 2280123, 2280491, 2280888]","[2271965, 2272222, 2272536, 2272917, 2273289, 2273665, 2274087, 2274493, 2274893, 2275264, 2275656, 2276317, 2276672, 2277066, 2277455, 2277839, 2278221, 2278615, 2279005, 2279372, 2279762, 2280158, 2280536, 2280930]","[2271688, 2272088, 2272487, 2272887, 2273287, 2273687, 2274087, 2274487, 2274885, 2275258, 2275651, 2276296, 2276668, 2277051, 2277447, 2277812, 2278197, 2278582, 2278973, 2279355, 2279731, 2280148, 2280517, 2280914]",27,R,ITM,1.1,
