octave,ioi,event,.thisRepN,.thisTrialN,.thisN,.thisIndex,event,tap_types,tap_times,release_times,tone_times,subject,handedness,experiment,version,
,,SPR,0,-1,-1,0,SPR,"['P', 'P', 'P', 'P', 'P', 'P', 'P', 'P', 'P', 'P', 'P', 'P', 'P', 'P', 'P', 'P', 'P', 'P', 'P', 'P', 'P', 'P', 'P', 'P', 'P', 'P', 'P', 'P', 'P', 'P']","[28632, 29882, 31084, 32242, 33445, 34702, 35860, 37070, 38257, 39438, 40633, 41841, 43087, 44323, 45527, 46696, 47962, 49185, 50376, 51565, 52792, 54005, 55202, 56537, 57750, 59008, 60262, 61446, 62674, 63851]","[28776, 30029, 31211, 32365, 33575, 34799, 35987, 37216, 38394, 39574, 40759, 41985, 43247, 44491, 45682, 46856, 48128, 49348, 50564, 51734, 52966, 54208, 55402, 56725, 57933, 59186, 60469, 61661, 62860, 64043]",,41,R,ITM,1.1,
4,500,practice,0,0,0,0,practice,"['S', 'S', 'S', 'S', 'S', 'S', 'S', 'C', 'C', 'C', 'C', 'C', 'C', 'C', 'C', 'C', 'C', 'C', 'C', 'C', 'C', 'C', 'C']","[128870, 129461, 129863, 130323, 130821, 131329, 131824, 132322, 132828, 133354, 133838, 134346, 134859, 135358, 135868, 136365, 136859, 137357, 137846, 138354, 138849, 139352, 139847]","[128978, 129553, 129977, 130451, 130938, 131463, 131956, 132444, 132964, 133497, 133972, 134492, 135014, 135510, 136034, 136516, 137034, 137536, 138016, 138544, 139055, 139541, 140042]","[128342, 128841, 129341, 129842, 130342, 130842, 131342, 131843, 132348, 132853, 133380, 133864, 134372, 134886, 135384, 135894, 136391, 136885, 137382, 137872, 138380, 138874, 139377, 139873]",41,R,ITM,1.1,
2,500,practice,0,1,1,1,practice,"['S', 'S', 'S', 'S', 'S', 'S', 'S', 'C', 'C', 'C', 'C', 'C', 'C', 'C', 'C', 'C', 'C', 'C', 'C', 'C', 'C', 'C', 'C']","[145937, 146381, 146868, 147377, 147888, 148365, 148869, 149371, 149859, 150344, 150850, 151337, 151860, 152368, 152883, 153385, 153914, 154393, 154907, 155387, 155872, 156379, 156870]","[146056, 146528, 147021, 147569, 148044, 148529, 149043, 149555, 150031, 150542, 151045, 151550, 152068, 152584, 153094, 153609, 154104, 154612, 155087, 155555, 156082, 156562, 157050]","[145400, 145900, 146400, 146899, 147400, 147900, 148401, 148900, 149398, 149885, 150372, 150877, 151363, 151887, 152394, 152910, 153413, 153940, 154420, 154935, 155414, 155899, 156405, 156898]",41,R,ITM,1.1,
5,500,practice,0,2,2,2,practice,"['S', 'S', 'S', 'S', 'S', 'S', 'C', 'C', 'C', 'C', 'C', 'C', 'C', 'C', 'C', 'C', 'C', 'C', 'C', 'C', 'C', 'C']","[163460, 164000, 164509, 165008, 165493, 166006, 166486, 166982, 167493, 167999, 168493, 169009, 169499, 170011, 170516, 171016, 171534, 172028, 172528, 173030, 173530, 174032]","[163556, 164120, 164595, 165089, 165571, 166080, 166554, 167068, 167580, 168088, 168608, 169095, 169606, 170124, 170625, 171127, 171648, 172139, 172646, 173150, 173661, 174152]","[162555, 163055, 163555, 164056, 164555, 165055, 165555, 166055, 166511, 167008, 167519, 168025, 168519, 169034, 169525, 170037, 170542, 171042, 171559, 172054, 172555, 173057, 173555, 174058]",41,R,ITM,1.1,
6,500,practice,0,3,3,3,practice,"['S', 'S', 'S', 'S', 'S', 'S', 'C', 'C', 'C', 'C', 'C', 'C', 'C', 'C', 'C', 'C', 'C', 'C', 'C', 'C', 'C', 'C']","[180620, 181146, 181649, 182160, 182647, 183161, 183660, 184157, 184674, 185172, 185672, 186171, 186694, 187183, 187678, 188157, 188648, 189164, 189669, 190164, 190688, 191161]","[180695, 181207, 181719, 182214, 182713, 183227, 183732, 184230, 184759, 185255, 185769, 186271, 186785, 187267, 187758, 188259, 188741, 189252, 189771, 190260, 190770, 191249]","[179694, 180193, 180694, 181193, 181693, 182194, 182693, 183193, 183688, 184183, 184700, 185199, 185700, 186198, 186721, 187210, 187705, 188185, 188675, 189191, 189696, 190191, 190714, 191187]",41,R,ITM,1.1,
7,500,practice,0,4,4,4,practice,"['S', 'S', 'S', 'S', 'S', 'S', 'C', 'C', 'C', 'C', 'C', 'C', 'C', 'C', 'C', 'C', 'C', 'C', 'C', 'C', 'C', 'C']","[197605, 198124, 198629, 199142, 199656, 200148, 200659, 201161, 201678, 202150, 202649, 203137, 203659, 204175, 204681, 205191, 205708, 206226, 206729, 207229, 207704, 208245]","[197697, 198239, 198740, 199245, 199777, 200268, 200749, 201251, 201831, 202366, 202874, 203413, 203940, 204435, 204943, 205434, 205963, 206476, 206978, 207462, 207992, 208483]","[196679, 197178, 197679, 198178, 198678, 199178, 199678, 200178, 200687, 201188, 201705, 202177, 202677, 203164, 203685, 204203, 204708, 205217, 205734, 206253, 206756, 207256, 207731, 208272]",41,R,ITM,1.1,
3,500,practice,0,5,5,5,practice,"['S', 'S', 'S', 'S', 'S', 'S', 'C', 'C', 'C', 'C', 'C', 'C', 'C', 'C', 'C', 'C', 'C', 'C', 'C', 'C', 'C', 'C']","[214671, 215172, 215695, 216204, 216708, 217219, 217728, 218229, 218733, 219246, 219725, 220241, 220716, 221232, 221735, 222244, 222760, 223275, 223760, 224238, 224762, 225243]","[214895, 215408, 215919, 216413, 216921, 217455, 217958, 218445, 218969, 219461, 219972, 220446, 220972, 221445, 221962, 222470, 222996, 223473, 223997, 224480, 224971, 225469]","[213719, 214218, 214718, 215218, 215718, 216218, 216718, 217219, 217753, 218255, 218759, 219272, 219751, 220267, 220741, 221257, 221761, 222270, 222786, 223300, 223785, 224264, 224788, 225268]",41,R,ITM,1.1,
4,400,trial,0,6,6,6,trial,"['S', 'S', 'S', 'S', 'C', 'C', 'C', 'C', 'C', 'C', 'C', 'C', 'C', 'C', 'C', 'C', 'C', 'C', 'C', 'C']","[261136, 261560, 261975, 262380, 262790, 263205, 263617, 264020, 264401, 264797, 265207, 265602, 265993, 266396, 266786, 267200, 267595, 267983, 268367, 268781]","[261249, 261693, 262108, 262512, 262934, 263349, 263755, 264159, 264558, 264938, 265334, 265731, 266129, 266531, 266934, 267336, 267726, 268140, 268508, 268936]","[259608, 260007, 260407, 260807, 261208, 261607, 262007, 262407, 262815, 263231, 263643, 264046, 264427, 264823, 265233, 265627, 266018, 266422, 266812, 267226, 267621, 268010, 268393, 268808]",41,R,ITM,1.1,
7,600,trial,0,7,7,7,trial,"['S', 'S', 'S', 'S', 'S', 'S', 'C', 'C', 'C', 'C', 'C', 'C', 'C', 'C', 'C', 'C', 'C', 'C', 'C', 'C', 'C', 'C']","[275261, 275886, 276503, 277126, 277729, 278287, 278901, 279516, 280089, 280687, 281308, 281906, 282510, 283088, 283711, 284301, 284877, 285475, 286078, 286679, 287288, 287901]","[275520, 276174, 276832, 277428, 277941, 278594, 279205, 279780, 280389, 281010, 281612, 282194, 282789, 283411, 283986, 284563, 285176, 285780, 286369, 286979, 287604]","[274115, 274715, 275315, 275915, 276515, 277115, 277715, 278316, 278928, 279542, 280116, 280715, 281335, 281932, 282536, 283116, 283739, 284327, 284905, 285503, 286105, 286706, 287315, 287928]",41,R,ITM,1.1,
3,600,trial,0,8,8,8,trial,"['S', 'S', 'S', 'S', 'C', 'C', 'C', 'C', 'C', 'C', 'C', 'C', 'C', 'C', 'C', 'C', 'C', 'C', 'C', 'C']","[295883, 296500, 297110, 297711, 298289, 298890, 299512, 300134, 300746, 301355, 301970, 302580, 303173, 303792, 304417, 305035, 305629, 306262, 306877, 307494]","[296156, 296798, 297405, 297987, 298586, 299205, 299834, 300444, 301059, 301681, 302290, 302873, 303483, 304094, 304736, 305356, 305968, 306573, 307174]","[293529, 294129, 294729, 295329, 295929, 296529, 297129, 297730, 298314, 298915, 299539, 300160, 300772, 301380, 301996, 302606, 303199, 303817, 304443, 305060, 305654, 306287, 306903, 307520]",41,R,ITM,1.1,
2,600,trial,0,9,9,9,trial,"['S', 'S', 'S', 'S', 'C', 'C', 'C', 'C', 'C', 'C', 'C', 'C', 'C', 'C', 'C', 'C', 'C', 'C', 'C', 'C']","[315355, 315993, 316578, 317173, 317766, 318358, 318957, 319559, 320168, 320776, 321361, 321986, 322591, 323195, 323788, 324408, 325015, 325636, 326232, 326862]","[315673, 316296, 316870, 317430, 318011, 318637, 319242, 319891, 320480, 321079, 321711, 322341, 322977, 323570, 324185, 324777, 325380, 325972, 326619]","[312992, 313591, 314192, 314792, 315393, 315992, 316593, 317193, 317794, 318385, 318984, 319587, 320195, 320802, 321389, 322013, 322618, 323222, 323815, 324435, 325042, 325663, 326259, 326889]",41,R,ITM,1.1,
4,600,trial,0,10,10,10,trial,"['S', 'S', 'S', 'S', 'S', 'S', 'C', 'C', 'C', 'C', 'C', 'C', 'C', 'C', 'C', 'C', 'C', 'C', 'C', 'C', 'C', 'C']","[333456, 334093, 334690, 335310, 335899, 336489, 337111, 337697, 338294, 338869, 339476, 340070, 340698, 341287, 341870, 342470, 343066, 343664, 344248, 344852, 345427, 346051]","[333793, 334393, 335012, 335624, 336190, 336789, 337420, 337979, 338564, 339168, 339774, 340393, 340984, 341559, 342192, 342756, 343364, 343938, 344554, 345144, 345745]","[332311, 332910, 333510, 334110, 334710, 335310, 335910, 336510, 337136, 337724, 338320, 338894, 339502, 340096, 340723, 341313, 341896, 342496, 343093, 343690, 344273, 344878, 345453, 346077]",41,R,ITM,1.1,
6,400,trial,0,11,11,11,trial,"['S', 'S', 'S', 'S', 'C', 'C', 'C', 'C', 'C', 'C', 'C', 'C', 'C', 'C', 'C', 'C', 'C', 'C', 'C', 'C']","[353346, 353813, 354208, 354575, 354961, 355381, 355771, 356158, 356560, 356956, 357370, 357754, 358150, 358546, 358939, 359332, 359697, 360119, 360513, 360891]","[353570, 353994, 354391, 354742, 355166, 355576, 355981, 356400, 356756, 357188, 357578, 357972, 358370, 358752, 359152, 359546, 359958, 360290, 360697, 361106]","[351794, 352192, 352592, 352992, 353392, 353793, 354192, 354592, 354989, 355407, 355798, 356186, 356588, 356982, 357397, 357781, 358176, 358574, 358966, 359360, 359725, 360145, 360541, 360918]",41,R,ITM,1.1,
3,600,trial,0,12,12,12,trial,"['S', 'S', 'S', 'S', 'C', 'C', 'C', 'C', 'C', 'C', 'C', 'C', 'C', 'C', 'C', 'C', 'C', 'C', 'C', 'C']","[369051, 369622, 370224, 370834, 371412, 372001, 372588, 373166, 373738, 374324, 374908, 375548, 376120, 376729, 377355, 377969, 378572, 379190, 379777, 380399]","[369286, 369917, 370525, 371115, 371712, 372277, 372876, 373432, 373990, 374611, 375221, 375810, 376429, 377024, 377621, 378216, 378860, 379465, 380060]","[366651, 367251, 367851, 368451, 369051, 369651, 370251, 370851, 371438, 372028, 372614, 373191, 373764, 374349, 374934, 375574, 376145, 376755, 377380, 377995, 378598, 379215, 379802, 380426]",41,R,ITM,1.1,
5,400,trial,0,13,13,13,trial,"['S', 'S', 'S', 'S', 'C', 'C', 'C', 'C', 'C', 'C', 'C', 'C', 'C', 'C', 'C', 'C', 'C', 'C', 'C', 'C']","[387630, 388067, 388500, 388877, 389274, 389660, 390052, 390447, 390867, 391276, 391683, 392083, 392463, 392836, 393232, 393612, 394019, 394407, 394811, 395197]","[387683, 388113, 388544, 388959, 389354, 389713, 390122, 390472, 390949, 391342, 391749, 392162, 392559, 392939, 393336, 393741, 394150, 394519, 394933, 395334]","[386097, 386495, 386895, 387295, 387695, 388096, 388495, 388895, 389300, 389686, 390079, 390472, 390893, 391302, 391708, 392109, 392488, 392862, 393257, 393637, 394045, 394433, 394836, 395223]",41,R,ITM,1.1,
7,400,trial,0,14,14,14,trial,"['S', 'S', 'S', 'S', 'C', 'C', 'C', 'C', 'C', 'C', 'C', 'C', 'C', 'C', 'C', 'C', 'C', 'C', 'C', 'C']","[402064, 402501, 402890, 403270, 403677, 404107, 404508, 404926, 405364, 405761, 406195, 406591, 406966, 407370, 407815, 408224, 408631, 409039, 409445, 409861]","[402109, 402555, 402959, 403343, 403774, 404188, 404611, 405019, 405467, 405881, 406301, 406689, 407087, 407483, 407880, 408330, 408763, 409168, 409583, 409989]","[400524, 400923, 401324, 401723, 402123, 402524, 402923, 403323, 403703, 404134, 404536, 404954, 405392, 405787, 406222, 406618, 406993, 407397, 407841, 408251, 408657, 409066, 409472, 409887]",41,R,ITM,1.1,
6,400,trial,0,15,15,15,trial,"['C', 'C', 'C', 'C', 'C', 'C', 'C', 'C', 'C', 'C', 'C', 'C', 'C', 'C', 'C', 'C']","[418387, 418805, 419227, 419614, 420012, 420416, 420792, 421191, 421571, 421976, 422366, 422770, 423152, 423566, 423951, 424349]","[418490, 418897, 419341, 419721, 420136, 420543, 420925, 421316, 421720, 422108, 422506, 422895, 423287, 423695, 424081, 424483]","[415234, 415633, 416033, 416434, 416833, 417233, 417633, 418033, 418414, 418832, 419255, 419641, 420038, 420443, 420818, 421218, 421598, 422002, 422393, 422797, 423179, 423592, 423977, 424376]",41,R,ITM,1.1,
2,400,trial,0,16,16,16,trial,"['S', 'S', 'S', 'S', 'C', 'C', 'C', 'C', 'C', 'C', 'C', 'C', 'C', 'C', 'C', 'C', 'C', 'C', 'C', 'C']","[431618, 432051, 432457, 432847, 433238, 433646, 434050, 434440, 434830, 435238, 435655, 436020, 436435, 436839, 437248, 437642, 438043, 438441, 438839, 439226]","[431770, 432194, 432601, 432990, 433393, 433786, 434184, 434566, 434989, 435390, 435792, 436171, 436585, 436983, 437394, 437784, 438181, 438586, 438984, 439371]","[430077, 430476, 430876, 431277, 431677, 432077, 432478, 432876, 433264, 433673, 434077, 434467, 434857, 435266, 435683, 436046, 436462, 436867, 437275, 437668, 438071, 438469, 438865, 439254]",41,R,ITM,1.1,
4,400,trial,0,17,17,17,trial,"['S', 'S', 'S', 'S', 'C', 'C', 'C', 'C', 'C', 'C', 'C', 'C', 'C', 'C', 'C', 'C', 'C', 'C', 'C', 'C']","[446146, 446565, 446967, 447378, 447764, 448163, 448558, 448973, 449370, 449796, 450191, 450603, 450976, 451380, 451800, 452194, 452576, 452981, 453373, 453775]","[446304, 446714, 447106, 447508, 447902, 448287, 448711, 449119, 449529, 449940, 450337, 450736, 451111, 451519, 451931, 452340, 452731, 453128, 453520, 453938]","[444579, 444978, 445378, 445778, 446178, 446578, 446979, 447378, 447791, 448189, 448583, 448999, 449395, 449821, 450216, 450628, 451002, 451405, 451825, 452220, 452601, 453008, 453399, 453800]",41,R,ITM,1.1,
5,400,trial,0,18,18,18,trial,"['S', 'S', 'S', 'S', 'C', 'C', 'C', 'C', 'C', 'C', 'C', 'C', 'C', 'C', 'C', 'C', 'C', 'C', 'C', 'C']","[473103, 473502, 473900, 474307, 474718, 475112, 475502, 475897, 476297, 476696, 477091, 477499, 477881, 478276, 478673, 479065, 479479, 479866, 480279, 480671]","[473238, 473648, 474034, 474447, 474849, 475236, 475643, 476042, 476459, 476844, 477238, 477644, 478024, 478414, 478784, 479179, 479579, 479988, 480410, 480791]","[471529, 471928, 472328, 472728, 473128, 473528, 473928, 474329, 474743, 475138, 475529, 475923, 476322, 476722, 477117, 477526, 477906, 478302, 478699, 479090, 479505, 479892, 480305, 480697]",41,R,ITM,1.1,
7,600,trial,0,19,19,19,trial,"['S', 'S', 'S', 'S', 'C', 'C', 'C', 'C', 'C', 'C', 'C', 'C', 'C', 'C', 'C', 'C', 'C', 'C', 'C', 'C']","[488742, 489345, 489961, 490541, 491162, 491810, 492426, 493073, 493674, 494295, 494913, 495525, 496159, 496803, 497390, 497985, 498612, 499218, 499819, 500421]","[488837, 489448, 490081, 490728, 491251, 491867, 492506, 493159, 493760, 494385, 495017, 495616, 496241, 496909, 497490, 498074, 498728, 499321, 499929, 500549]","[486375, 486975, 487575, 488175, 488775, 489375, 489975, 490575, 491189, 491838, 492452, 493101, 493702, 494321, 494941, 495553, 496187, 496831, 497417, 498012, 498638, 499246, 499847, 500448]",41,R,ITM,1.1,
2,400,trial,0,20,20,20,trial,"['S', 'S', 'S', 'S', 'C', 'C', 'C', 'C', 'C', 'C', 'C', 'C', 'C', 'C', 'C', 'C', 'C', 'C', 'C', 'C']","[507320, 507770, 508170, 508559, 508958, 509364, 509754, 510151, 510530, 510925, 511319, 511713, 512108, 512478, 512870, 513309, 513667, 514084, 514480, 514859]","[507453, 507895, 508300, 508698, 509102, 509510, 509912, 510295, 510683, 511074, 511467, 511849, 512238, 512620, 512994, 513427, 513826, 514225, 514630, 515015]","[505771, 506170, 506570, 506971, 507369, 507769, 508170, 508569, 508985, 509391, 509780, 510178, 510558, 510952, 511345, 511740, 512136, 512505, 512897, 513337, 513694, 514111, 514507, 514885]",41,R,ITM,1.1,
6,600,trial,0,21,21,21,trial,"['S', 'S', 'S', 'S', 'C', 'C', 'C', 'C', 'C', 'C', 'C', 'C', 'C', 'C', 'C', 'C', 'C', 'C', 'C', 'C']","[523012, 523655, 524260, 524850, 525443, 526034, 526626, 527237, 527856, 528456, 529069, 529683, 530278, 530878, 531488, 532080, 532655, 533265, 533877, 534448]","[523320, 523931, 524527, 525121, 525711, 526301, 526921, 527522, 528137, 528757, 529354, 529970, 530542, 531168, 531758, 532357, 532967, 533542, 534145]","[520675, 521274, 521874, 522474, 523074, 523674, 524274, 524874, 525470, 526062, 526653, 527263, 527883, 528484, 529096, 529711, 530306, 530905, 531516, 532107, 532681, 533292, 533905, 534474]",41,R,ITM,1.1,
5,600,trial,0,22,22,22,trial,"['S', 'S', 'S', 'S', 'C', 'C', 'C', 'C', 'C', 'C', 'C', 'C', 'C', 'C', 'C', 'C', 'C', 'C', 'C', 'C']","[542622, 543236, 543846, 544473, 545032, 545602, 546207, 546793, 547402, 547993, 548567, 549204, 549804, 550409, 550995, 551614, 552231, 552806, 553414, 554038]","[542894, 543551, 544146, 544668, 545296, 545882, 546473, 547065, 547675, 548253, 548860, 549477, 550079, 550679, 551319, 551885, 552508, 553105, 553706, 554303]","[540262, 540862, 541462, 542062, 542662, 543262, 543862, 544462, 545057, 545628, 546234, 546819, 547428, 548019, 548592, 549230, 549830, 550434, 551021, 551640, 552257, 552832, 553440, 554063]",41,R,ITM,1.1,
5,600,trial,0,23,23,23,trial,"['S', 'S', 'S', 'S', 'S', 'S', 'C', 'C', 'C', 'C', 'C', 'C', 'C', 'C', 'C', 'C', 'C', 'C', 'C', 'C', 'C', 'C']","[560955, 561610, 562245, 562842, 563409, 564002, 564585, 565174, 565786, 566376, 566951, 567530, 568140, 568732, 569314, 569911, 570501, 571096, 571681, 572276, 572870, 573451]","[561264, 561941, 562528, 563092, 563705, 564272, 564866, 565466, 566023, 566647, 567232, 567838, 568426, 569030, 569606, 570191, 570823, 571390, 571970, 572550, 573154]","[559855, 560454, 561054, 561654, 562254, 562854, 563454, 564055, 564612, 565200, 565812, 566402, 566977, 567556, 568166, 568758, 569339, 569936, 570527, 571121, 571707, 572302, 572896, 573477]",41,R,ITM,1.1,
4,600,trial,0,24,24,24,trial,"['S', 'S', 'S', 'S', 'C', 'C', 'C', 'C', 'C', 'C', 'C', 'C', 'C', 'C', 'C', 'C', 'C', 'C', 'C', 'C']","[581556, 582182, 582796, 583391, 584010, 584600, 585185, 585789, 586379, 586987, 587551, 588173, 588768, 589364, 589963, 590589, 591178, 591768, 592346, 592975]","[581853, 582465, 583075, 583697, 584292, 584871, 585478, 586078, 586684, 587224, 587848, 588441, 589051, 589654, 590278, 590878, 591453, 592033, 592664]","[579207, 579807, 580407, 581007, 581607, 582207, 582807, 583407, 584037, 584626, 585210, 585815, 586405, 587013, 587577, 588199, 588793, 589389, 589988, 590615, 591204, 591795, 592371, 593001]",41,R,ITM,1.1,
6,600,trial,0,25,25,25,trial,"['S', 'S', 'S', 'S', 'S', 'S', 'C', 'C', 'C', 'C', 'C', 'C', 'C', 'C', 'C', 'C', 'C', 'C', 'C', 'C', 'C', 'C']","[599483, 600103, 600745, 601345, 601950, 602545, 603142, 603716, 604304, 604914, 605488, 606060, 606653, 607253, 607831, 608417, 608996, 609574, 610176, 610765, 611378, 611974]","[599795, 600448, 601054, 601650, 602217, 602845, 603427, 603991, 604607, 605200, 605763, 606343, 606938, 607505, 608105, 608703, 609240, 609866, 610443, 611017, 611629]","[598360, 598960, 599560, 600160, 600760, 601360, 601960, 602560, 603168, 603744, 604332, 604941, 605514, 606087, 606681, 607281, 607857, 608444, 609024, 609601, 610203, 610792, 611404, 612001]",41,R,ITM,1.1,
3,400,trial,0,26,26,26,trial,"['S', 'S', 'S', 'S', 'C', 'C', 'C', 'C', 'C', 'C', 'C', 'C', 'C', 'C', 'C', 'C', 'C', 'C', 'C', 'C']","[619250, 619650, 620033, 620433, 620820, 621227, 621604, 622012, 622403, 622811, 623224, 623623, 624028, 624419, 624833, 625217, 625611, 625992, 626414, 626808]","[619438, 619815, 620226, 620612, 621031, 621385, 621787, 622163, 622564, 622971, 623384, 623823, 624210, 624617, 625010, 625402, 625781, 626152, 626551, 626976]","[617674, 618075, 618474, 618874, 619274, 619674, 620075, 620474, 620846, 621252, 621630, 622038, 622429, 622836, 623250, 623648, 624054, 624445, 624859, 625243, 625637, 626018, 626440, 626834]",41,R,ITM,1.1,
3,400,trial,0,27,27,27,trial,"['S', 'S', 'S', 'S', 'C', 'C', 'C', 'C', 'C', 'C', 'C', 'C', 'C', 'C', 'C', 'C', 'C', 'C', 'C', 'C']","[633989, 634416, 634792, 635190, 635582, 635985, 636371, 636779, 637155, 637574, 637968, 638362, 638741, 639150, 639545, 639953, 640329, 640762, 641190, 641583]","[634188, 634595, 634970, 635385, 635771, 636146, 636563, 636940, 637349, 637737, 638111, 638521, 638889, 639311, 639702, 640092, 640508, 640920, 641348, 641737]","[632441, 632840, 633240, 633640, 634040, 634440, 634841, 635240, 635609, 636012, 636397, 636805, 637180, 637599, 637993, 638388, 638767, 639175, 639570, 639979, 640355, 640788, 641216, 641608]",41,R,ITM,1.1,
7,400,trial,0,28,28,28,trial,"['S', 'S', 'S', 'S', 'C', 'C', 'C', 'C', 'C', 'C', 'C', 'C', 'C', 'C', 'C', 'C', 'C', 'C', 'C', 'C']","[648487, 648915, 649331, 649721, 650118, 650523, 650930, 651323, 651710, 652114, 652492, 652909, 653289, 653696, 654081, 654492, 654900, 655303, 655709, 656086]","[648657, 649083, 649478, 649870, 650275, 650633, 651081, 651530, 651878, 652281, 652672, 653077, 653465, 653865, 654267, 654644, 655066, 655488, 655864, 656260]","[646931, 647330, 647731, 648131, 648531, 648931, 649331, 649732, 650144, 650550, 650957, 651350, 651737, 652141, 652520, 652937, 653316, 653722, 654107, 654519, 654927, 655331, 655735, 656113]",41,R,ITM,1.1,
2,600,trial,0,29,29,29,trial,"['S', 'S', 'S', 'S', 'S', 'S', 'C', 'C', 'C', 'C', 'C', 'C', 'C', 'C', 'C', 'C', 'C', 'C', 'C', 'C', 'C', 'C']","[662581, 663201, 663837, 664437, 665026, 665627, 666237, 666824, 667456, 668057, 668663, 669266, 669889, 670488, 671106, 671705, 672302, 672923, 673545, 674127, 674735, 675353]","[662858, 663471, 664140, 664702, 665326, 665917, 666522, 667113, 667713, 668313, 668919, 669533, 670169, 670731, 671355, 671959, 672596, 673177, 673800, 674396, 674989, 675606]","[661437, 662037, 662637, 663236, 663837, 664437, 665037, 665637, 666264, 666851, 667484, 668085, 668691, 669294, 669917, 670516, 671133, 671732, 672329, 672950, 673571, 674155, 674762, 675380]",41,R,ITM,1.1,
5,400,trial,0,30,30,30,trial,"['S', 'S', 'S', 'S', 'C', 'C', 'C', 'C', 'C', 'C', 'C', 'C', 'C', 'C', 'C', 'C', 'C', 'C', 'C', 'C']","[692781, 693189, 693579, 693988, 694383, 694781, 695177, 695558, 695950, 696312, 696710, 697094, 697492, 697894, 698285, 698687, 699081, 699479, 699873, 700252]","[692954, 693373, 693783, 694179, 694584, 694969, 695357, 695764, 696142, 696524, 696888, 697274, 697664, 698070, 698474, 698849, 699266, 699625, 700023, 700421]","[691213, 691612, 692013, 692412, 692812, 693213, 693613, 694013, 694409, 694808, 695202, 695583, 695975, 696338, 696735, 697119, 697518, 697920, 698310, 698713, 699107, 699504, 699898, 700277]",41,R,ITM,1.1,
6,400,trial,0,31,31,31,trial,"['S', 'S', 'S', 'S', 'C', 'C', 'C', 'C', 'C', 'C', 'C', 'C', 'C', 'C', 'C', 'C', 'C', 'C', 'C', 'C']","[707562, 707995, 708396, 708785, 709161, 709574, 709953, 710350, 710735, 711139, 711534, 711927, 712318, 712702, 713092, 713496, 713885, 714290, 714678, 715079]","[707719, 708143, 708561, 708952, 709371, 709736, 710122, 710515, 710915, 711298, 711704, 712092, 712482, 712879, 713274, 713671, 714068, 714442, 714852, 715232]","[705996, 706396, 706795, 707195, 707595, 707995, 708396, 708795, 709188, 709601, 709981, 710378, 710763, 711165, 711562, 711955, 712346, 712729, 713118, 713524, 713912, 714316, 714704, 715107]",41,R,ITM,1.1,
5,400,trial,0,32,32,32,trial,"['S', 'S', 'S', 'S', 'C', 'C', 'C', 'C', 'C', 'C', 'C', 'C', 'C', 'C', 'C', 'C', 'C', 'C', 'C', 'C']","[722392, 722795, 723211, 723598, 723982, 724386, 724776, 725172, 725559, 725972, 726371, 726771, 727173, 727546, 727947, 728342, 728725, 729123, 729521, 729918]","[722568, 722980, 723382, 723764, 724176, 724541, 724938, 725334, 725742, 726138, 726545, 726929, 727353, 727708, 728104, 728519, 728927, 729297, 729695, 730114]","[720846, 721245, 721645, 722045, 722445, 722845, 723246, 723645, 724007, 724412, 724802, 725197, 725584, 725999, 726396, 726797, 727198, 727572, 727972, 728368, 728751, 729149, 729547, 729944]",41,R,ITM,1.1,
2,400,trial,0,33,33,33,trial,"['S', 'S', 'S', 'S', 'C', 'C', 'C', 'C', 'C', 'C', 'C', 'C', 'C', 'C', 'C', 'C', 'C', 'C', 'C', 'C']","[737006, 737457, 737832, 738226, 738609, 739019, 739416, 739822, 740219, 740613, 741015, 741407, 741784, 742194, 742596, 742984, 743375, 743760, 744168, 744562]","[737238, 737629, 738011, 738412, 738813, 739189, 739595, 739990, 740392, 740808, 741187, 741583, 741990, 742374, 742795, 743176, 743563, 743974, 744370, 744755]","[735456, 735855, 736257, 736655, 737056, 737457, 737856, 738255, 738635, 739046, 739442, 739850, 740247, 740639, 741042, 741434, 741812, 742220, 742624, 743011, 743403, 743788, 744195, 744590]",41,R,ITM,1.1,
2,600,trial,0,34,34,34,trial,"['S', 'S', 'S', 'S', 'C', 'C', 'C', 'C', 'C', 'C', 'C', 'C', 'C', 'C', 'C', 'C', 'C', 'C', 'C', 'C']","[752362, 752978, 753603, 754195, 754818, 755418, 756022, 756624, 757209, 757833, 758446, 759067, 759683, 760290, 760908, 761532, 762120, 762754, 763393, 764026]","[752647, 753260, 753895, 754499, 755096, 755684, 756320, 756886, 757524, 758102, 758765, 759380, 760003, 760588, 761191, 761792, 762420, 763027, 763688]","[750014, 750614, 751213, 751814, 752413, 753014, 753614, 754214, 754844, 755445, 756049, 756651, 757235, 757860, 758473, 759094, 759709, 760317, 760936, 761560, 762146, 762780, 763420, 764054]",41,R,ITM,1.1,
6,400,trial,0,35,35,35,trial,"['S', 'S', 'C', 'C', 'C', 'C', 'C', 'C', 'C', 'C', 'C', 'C', 'C', 'C', 'C', 'C', 'C', 'C']","[771768, 772176, 772554, 772971, 773371, 773768, 774172, 774581, 774975, 775357, 775757, 776153, 776555, 776951, 777348, 777735, 778132, 778492]","[771958, 772343, 772745, 773171, 773574, 773966, 774377, 774772, 775189, 775547, 775952, 776344, 776760, 777159, 777544, 777936, 778306, 778675]","[769370, 769768, 770168, 770568, 770968, 771368, 771768, 772168, 772581, 772999, 773399, 773794, 774199, 774607, 775002, 775385, 775784, 776179, 776583, 776979, 777375, 777761, 778159, 778519]",41,R,ITM,1.1,
6,600,trial,0,36,36,36,trial,"['S', 'S', 'S', 'S', 'C', 'C', 'C', 'C', 'C', 'C', 'C', 'C', 'C', 'C', 'C', 'C', 'C', 'C', 'C', 'C']","[786430, 787006, 787652, 788210, 788808, 789456, 790062, 790670, 791269, 791876, 792471, 793085, 793705, 794314, 794929, 795543, 796119, 796750, 797389, 798001]","[786711, 787335, 787890, 788492, 789120, 789732, 790324, 790938, 791536, 792119, 792716, 793342, 793978, 794631, 795167, 795809, 796418, 797006, 797641]","[784028, 784627, 785227, 785827, 786427, 787027, 787628, 788228, 788835, 789483, 790088, 790697, 791296, 791903, 792498, 793112, 793732, 794341, 794956, 795570, 796146, 796777, 797417, 798028]",41,R,ITM,1.1,
4,600,trial,0,37,37,37,trial,"['S', 'S', 'S', 'S', 'C', 'C', 'C', 'C', 'C', 'C', 'C', 'C', 'C', 'C', 'C', 'C', 'C', 'C', 'C', 'C']","[805938, 806548, 807143, 807799, 808364, 808929, 809559, 810170, 810792, 811422, 812054, 812677, 813308, 813931, 814524, 815145, 815745, 816375, 817001, 817619]","[806100, 806700, 807310, 807951, 808623, 809231, 809805, 810471, 811071, 811722, 812331, 812931, 813586, 814179, 814806, 815417, 816029, 816667, 817258, 817866]","[803576, 804175, 804775, 805376, 805976, 806576, 807175, 807775, 808389, 808954, 809584, 810195, 810818, 811448, 812080, 812702, 813334, 813957, 814550, 815171, 815771, 816401, 817027, 817645]",41,R,ITM,1.1,
3,400,trial,0,38,38,38,trial,"['S', 'S', 'S', 'C', 'C', 'C', 'C', 'C', 'C', 'C', 'C', 'C', 'C', 'C', 'C', 'C', 'C', 'C', 'C']","[825229, 825663, 826081, 826467, 826883, 827273, 827655, 828055, 828434, 828832, 829233, 829626, 830014, 830412, 830806, 831194, 831578, 831967, 832353]","[825409, 825858, 826260, 826675, 827054, 827439, 827842, 828232, 828626, 829010, 829401, 829818, 830203, 830590, 830989, 831383, 831761, 832160, 832567]","[823299, 823698, 824098, 824498, 824898, 825298, 825698, 826098, 826492, 826908, 827298, 827680, 828081, 828460, 828858, 829258, 829651, 830040, 830438, 830831, 831219, 831603, 831992, 832378]",41,R,ITM,1.1,
7,600,trial,0,39,39,39,trial,"['S', 'S', 'S', 'S', 'C', 'C', 'C', 'C', 'C', 'C', 'C', 'C', 'C', 'C', 'C', 'C', 'C', 'C', 'C', 'C']","[840221, 840747, 841374, 842004, 842592, 843194, 843800, 844414, 845050, 845645, 846239, 846848, 847403, 848060, 848648, 849269, 849889, 850486, 851112, 851728]","[840387, 840896, 841573, 842160, 842696, 843352, 843959, 844545, 845173, 845783, 846374, 846980, 847544, 848222, 848817, 849431, 850027, 850634, 851233, 851840]","[837795, 838394, 838994, 839595, 840195, 840795, 841395, 841995, 842619, 843222, 843827, 844441, 845077, 845673, 846266, 846874, 847430, 848087, 848674, 849296, 849915, 850513, 851139, 851756]",41,R,ITM,1.1,
6,600,trial,0,40,40,40,trial,"['S', 'S', 'S', 'S', 'C', 'C', 'C', 'C', 'C', 'C', 'C', 'C', 'C', 'C', 'C', 'C', 'C', 'C', 'C', 'C']","[859552, 860166, 860773, 861352, 861958, 862585, 863182, 863781, 864384, 864998, 865614, 866221, 866839, 867468, 868084, 868701, 869321, 869938, 870558, 871166]","[859708, 860310, 860914, 861485, 862086, 862710, 863308, 863911, 864500, 865122, 865727, 866339, 866945, 867577, 868196, 868816, 869430, 870063, 870675, 871291]","[857153, 857752, 858352, 858952, 859552, 860152, 860752, 861352, 861984, 862612, 863209, 863809, 864410, 865026, 865641, 866248, 866866, 867495, 868111, 868728, 869348, 869964, 870585, 871194]",41,R,ITM,1.1,
5,600,trial,0,41,41,41,trial,"['S', 'S', 'S', 'S', 'C', 'C', 'C', 'C', 'C', 'C', 'C', 'C', 'C', 'C', 'C', 'C', 'C', 'C', 'C', 'C']","[879365, 879973, 880575, 881152, 881772, 882398, 883001, 883619, 884236, 884865, 885500, 886122, 886732, 887378, 887983, 888626, 889256, 889885, 890502, 891108]","[879498, 880098, 880687, 881294, 881893, 882513, 883105, 883718, 884347, 884967, 885601, 886221, 886851, 887484, 888105, 888758, 889388, 890014, 890626, 891236]","[876965, 877564, 878164, 878765, 879365, 879965, 880565, 881165, 881798, 882424, 883026, 883645, 884261, 884890, 885526, 886148, 886758, 887404, 888009, 888651, 889282, 889911, 890527, 891133]",41,R,ITM,1.1,
5,600,trial,0,42,42,42,trial,"['S', 'S', 'S', 'S', 'S', 'S', 'C', 'C', 'C', 'C', 'C', 'C', 'C', 'C', 'C', 'C', 'C', 'C', 'C', 'C', 'C', 'C']","[921745, 922377, 922973, 923564, 924183, 924762, 925351, 925959, 926573, 927183, 927781, 928379, 928987, 929601, 930198, 930817, 931426, 932057, 932672, 933258, 933868, 934494]","[921932, 922560, 923164, 923762, 924376, 924965, 925569, 926172, 926776, 927375, 927996, 928616, 929211, 929809, 930416, 931044, 931643, 932280, 932870, 933479, 934102, 934722]","[920573, 921172, 921773, 922373, 922973, 923573, 924173, 924773, 925378, 925984, 926599, 927209, 927807, 928406, 929012, 929627, 930224, 930842, 931451, 932082, 932698, 933283, 933895, 934519]",41,R,ITM,1.1,
2,400,trial,0,43,43,43,trial,"['S', 'S', 'S', 'S', 'C', 'C', 'C', 'C', 'C', 'C', 'C', 'C', 'C', 'C', 'C', 'C', 'C', 'C', 'C', 'C']","[941636, 942070, 942449, 942832, 943248, 943664, 944054, 944438, 944838, 945228, 945629, 946013, 946408, 946809, 947189, 947597, 947978, 948386, 948776, 949180]","[941833, 942242, 942629, 943017, 943450, 943843, 944245, 944652, 945037, 945428, 945813, 946219, 946590, 946996, 947387, 947779, 948179, 948580, 948976, 949359]","[940070, 940469, 940870, 941271, 941670, 942069, 942471, 942869, 943275, 943691, 944080, 944464, 944866, 945256, 945655, 946040, 946436, 946837, 947217, 947624, 948004, 948414, 948804, 949208]",41,R,ITM,1.1,
4,600,trial,0,44,44,44,trial,"['S', 'S', 'S', 'S', 'C', 'C', 'C', 'C', 'C', 'C', 'C', 'C', 'C', 'C', 'C', 'C', 'C', 'C', 'C', 'C']","[957279, 957925, 958566, 959156, 959739, 960326, 960932, 961527, 962142, 962742, 963328, 963930, 964540, 965142, 965751, 966376, 966978, 967592, 968209, 968825]","[957510, 958184, 958790, 959386, 959958, 960562, 961140, 961751, 962375, 962963, 963574, 964154, 964752, 965343, 965954, 966546, 967130, 967748, 968379, 969008]","[954942, 955541, 956141, 956741, 957341, 957941, 958541, 959141, 959765, 960353, 960958, 961553, 962167, 962767, 963353, 963955, 964566, 965168, 965777, 966402, 967004, 967618, 968236, 968851]",41,R,ITM,1.1,
3,400,trial,0,45,45,45,trial,"['S', 'S', 'S', 'S', 'C', 'C', 'C', 'C', 'C', 'C', 'C', 'C', 'C', 'C', 'C', 'C', 'C', 'C', 'C', 'C']","[975785, 976247, 976673, 977081, 977487, 977863, 978250, 978632, 979021, 979422, 979795, 980201, 980576, 980969, 981355, 981742, 982132, 982517, 982898, 983303]","[975950, 976411, 976833, 977224, 977626, 978026, 978412, 978802, 979192, 979582, 979973, 980370, 980753, 981133, 981523, 981905, 982296, 982695, 983089, 983474]","[974247, 974647, 975047, 975448, 975847, 976247, 976647, 977047, 977513, 977889, 978276, 978658, 979047, 979447, 979821, 980227, 980601, 980995, 981381, 981768, 982158, 982543, 982924, 983328]",41,R,ITM,1.1,
3,600,trial,0,46,46,46,trial,"['S', 'S', 'S', 'S', 'C', 'C', 'C', 'C', 'C', 'C', 'C', 'C', 'C', 'C', 'C', 'C', 'C', 'C', 'C', 'C']","[991109, 991742, 992335, 992937, 993525, 994153, 994786, 995412, 996037, 996653, 997284, 997914, 998529, 999173, 999817, 1000399, 1001015, 1001656, 1002298, 1002896]","[991360, 991961, 992550, 993145, 993730, 994362, 995015, 995625, 996264, 996841, 997491, 998089, 998699, 999374, 1000005, 1000625, 1001231, 1001853, 1002512, 1003109]","[988751, 989351, 989952, 990552, 991152, 991751, 992351, 992951, 993551, 994179, 994811, 995437, 996063, 996678, 997310, 997940, 998554, 999198, 999842, 1000425, 1001040, 1001681, 1002323, 1002921]",41,R,ITM,1.1,
7,400,trial,0,47,47,47,trial,"['S', 'S', 'S', 'S', 'C', 'C', 'C', 'C', 'C', 'C', 'C', 'C', 'C', 'C', 'C', 'C', 'C', 'C', 'C', 'C']","[1010193, 1010608, 1011006, 1011407, 1011792, 1012204, 1012600, 1013015, 1013429, 1013849, 1014251, 1014657, 1015065, 1015487, 1015890, 1016316, 1016708, 1017120, 1017525, 1017938]","[1010277, 1010686, 1011111, 1011467, 1011894, 1012284, 1012703, 1013092, 1013533, 1013925, 1014362, 1014749, 1015175, 1015556, 1015987, 1016390, 1016811, 1017191, 1017619, 1018018]","[1008606, 1009006, 1009406, 1009806, 1010206, 1010607, 1011006, 1011406, 1011820, 1012232, 1012627, 1013043, 1013455, 1013876, 1014278, 1014684, 1015092, 1015515, 1015918, 1016343, 1016734, 1017147, 1017551, 1017965]",41,R,ITM,1.1,
2,600,trial,0,48,48,48,trial,"['S', 'S', 'S', 'S', 'C', 'C', 'C', 'C', 'C', 'C', 'C', 'C', 'C', 'C', 'C', 'C', 'C', 'C', 'C', 'C']","[1026079, 1026670, 1027282, 1027896, 1028511, 1029114, 1029718, 1030309, 1030940, 1031566, 1032178, 1032801, 1033407, 1034027, 1034654, 1035266, 1035876, 1036487, 1037089, 1037702]","[1026311, 1026897, 1027505, 1028128, 1028739, 1029355, 1029950, 1030524, 1031159, 1031766, 1032409, 1033015, 1033614, 1034250, 1034883, 1035491, 1036102, 1036696, 1037308, 1037921]","[1023711, 1024311, 1024911, 1025511, 1026111, 1026711, 1027311, 1027911, 1028538, 1029141, 1029744, 1030336, 1030968, 1031593, 1032206, 1032827, 1033434, 1034054, 1034682, 1035292, 1035902, 1036514, 1037117, 1037728]",41,R,ITM,1.1,
4,400,trial,0,49,49,49,trial,"['S', 'S', 'S', 'S', 'C', 'C', 'C', 'C', 'C', 'C', 'C', 'C', 'C', 'C', 'C', 'C', 'C', 'C', 'C', 'C']","[1044820, 1045237, 1045658, 1046057, 1046466, 1046846, 1047254, 1047682, 1048085, 1048506, 1048920, 1049345, 1049741, 1050168, 1050568, 1050973, 1051377, 1051779, 1052187, 1052578]","[1044910, 1045323, 1045768, 1046147, 1046575, 1046929, 1047358, 1047758, 1048185, 1048587, 1049036, 1049418, 1049849, 1050245, 1050687, 1051053, 1051491, 1051860, 1052292, 1052661]","[1043282, 1043682, 1044082, 1044483, 1044882, 1045282, 1045682, 1046082, 1046492, 1046873, 1047279, 1047707, 1048112, 1048531, 1048945, 1049370, 1049766, 1050193, 1050594, 1050999, 1051403, 1051804, 1052213, 1052604]",41,R,ITM,1.1,
7,400,trial,0,50,50,50,trial,"['S', 'S', 'S', 'S', 'C', 'C', 'C', 'C', 'C', 'C', 'C', 'C', 'C', 'C', 'C', 'C', 'C', 'C', 'C', 'C']","[1059551, 1059963, 1060376, 1060775, 1061142, 1061547, 1061947, 1062337, 1062737, 1063143, 1063542, 1063949, 1064328, 1064742, 1065152, 1065546, 1065940, 1066339, 1066730, 1067127]","[1059725, 1060121, 1060547, 1060942, 1061340, 1061721, 1062123, 1062501, 1062922, 1063310, 1063712, 1064128, 1064536, 1064922, 1065308, 1065726, 1066108, 1066511, 1066894, 1067296]","[1057975, 1058374, 1058775, 1059174, 1059574, 1059975, 1060374, 1060774, 1061170, 1061573, 1061974, 1062364, 1062764, 1063170, 1063570, 1063976, 1064354, 1064769, 1065180, 1065574, 1065968, 1066365, 1066758, 1067154]",41,R,ITM,1.1,
4,400,trial,0,51,51,51,trial,"['S', 'S', 'S', 'S', 'C', 'C', 'C', 'C', 'C', 'C', 'C', 'C', 'C', 'C', 'C', 'C', 'C', 'C', 'C', 'C']","[1074309, 1074752, 1075152, 1075536, 1075934, 1076332, 1076737, 1077127, 1077531, 1077924, 1078331, 1078712, 1079107, 1079498, 1079907, 1080315, 1080723, 1081113, 1081484, 1081882]","[1074516, 1074938, 1075317, 1075699, 1076101, 1076505, 1076912, 1077307, 1077700, 1078079, 1078506, 1078897, 1079282, 1079678, 1080082, 1080504, 1080895, 1081290, 1081675, 1082045]","[1072752, 1073153, 1073552, 1073952, 1074353, 1074752, 1075152, 1075552, 1075959, 1076358, 1076762, 1077153, 1077557, 1077950, 1078356, 1078737, 1079134, 1079525, 1079933, 1080341, 1080749, 1081139, 1081509, 1081908]",41,R,ITM,1.1,
7,600,trial,0,52,52,52,trial,"['S', 'S', 'S', 'S', 'S', 'S', 'C', 'C', 'C', 'C', 'C', 'C', 'C', 'C', 'C', 'C', 'C', 'C', 'C', 'C', 'C', 'C']","[1088733, 1089351, 1089953, 1090549, 1091160, 1091748, 1092319, 1092915, 1093532, 1094133, 1094739, 1095348, 1095947, 1096565, 1097184, 1097808, 1098415, 1099012, 1099598, 1100206, 1100824, 1101430]","[1088945, 1089566, 1090163, 1090761, 1091356, 1091934, 1092514, 1093126, 1093726, 1094330, 1094926, 1095565, 1096172, 1096786, 1097413, 1098058, 1098684, 1099210, 1099789, 1100431, 1101035, 1101647]","[1087547, 1088146, 1088746, 1089346, 1089946, 1090546, 1091146, 1091746, 1092345, 1092941, 1093560, 1094160, 1094767, 1095375, 1095973, 1096592, 1097210, 1097835, 1098442, 1099038, 1099625, 1100232, 1100851, 1101458]",41,R,ITM,1.1,
3,600,trial,0,53,53,53,trial,"['S', 'S', 'S', 'S', 'S', 'S', 'S', 'C', 'C', 'C', 'C', 'C', 'C', 'C', 'C', 'C', 'C', 'C', 'C', 'C', 'C', 'C', 'C']","[1107411, 1108391, 1109005, 1109615, 1110227, 1110815, 1111397, 1111990, 1112626, 1113247, 1113841, 1114443, 1115048, 1115665, 1116264, 1116851, 1117435, 1118076, 1118713, 1119330, 1119944, 1120552, 1121180]","[1107431, 1108687, 1109251, 1109909, 1110535, 1111067, 1111641, 1112237, 1112869, 1113468, 1114077, 1114690, 1115302, 1115890, 1116461, 1117086, 1117699, 1118300, 1118938, 1119559, 1120184, 1120764, 1121411]","[1107216, 1107815, 1108415, 1109015, 1109615, 1110215, 1110815, 1111415, 1112015, 1112651, 1113273, 1113867, 1114469, 1115074, 1115692, 1116290, 1116876, 1117461, 1118102, 1118739, 1119355, 1119970, 1120578, 1121206]",41,R,ITM,1.1,
2,600,trial,0,54,54,54,trial,"['S', 'S', 'S', 'S', 'S', 'S', 'C', 'C', 'C', 'C', 'C', 'C', 'C', 'C', 'C', 'C', 'C', 'C', 'C', 'C', 'C', 'C']","[1134317, 1134922, 1135505, 1136109, 1136727, 1137329, 1137921, 1138519, 1139126, 1139763, 1140360, 1140962, 1141591, 1142207, 1142835, 1143427, 1144029, 1144646, 1145241, 1145847, 1146447, 1147051]","[1134577, 1135170, 1135739, 1136364, 1136940, 1137538, 1138141, 1138756, 1139364, 1139996, 1140574, 1141182, 1141822, 1142433, 1143062, 1143674, 1144252, 1144879, 1145463, 1146061, 1146664, 1147291]","[1133146, 1133746, 1134345, 1134944, 1135545, 1136144, 1136745, 1137345, 1137947, 1138546, 1139153, 1139789, 1140387, 1140988, 1141618, 1142235, 1142861, 1143454, 1144055, 1144673, 1145269, 1145875, 1146475, 1147078]",41,R,ITM,1.1,
7,400,trial,0,55,55,55,trial,"['S', 'S', 'S', 'S', 'C', 'C', 'C', 'C', 'C', 'C', 'C', 'C', 'C', 'C', 'C', 'C', 'C', 'C', 'C', 'C']","[1154390, 1154851, 1155254, 1155602, 1155970, 1156353, 1156748, 1157150, 1157557, 1157959, 1158356, 1158759, 1159139, 1159541, 1159938, 1160339, 1160754, 1161155, 1161571, 1161963]","[1154557, 1155001, 1155407, 1155768, 1156141, 1156556, 1156954, 1157331, 1157742, 1158152, 1158547, 1158959, 1159347, 1159721, 1160125, 1160498, 1160923, 1161341, 1161742, 1162142]","[1152788, 1153188, 1153588, 1153988, 1154388, 1154788, 1155188, 1155589, 1155996, 1156380, 1156774, 1157178, 1157584, 1157986, 1158382, 1158786, 1159166, 1159569, 1159965, 1160366, 1160780, 1161183, 1161598, 1161990]",41,R,ITM,1.1,
6,400,trial,0,56,56,56,trial,"['S', 'S', 'S', 'S', 'C', 'C', 'C', 'C', 'C', 'C', 'C', 'C', 'C', 'C', 'C', 'C', 'C', 'C', 'C', 'C']","[1169096, 1169513, 1169909, 1170291, 1170682, 1171083, 1171485, 1171881, 1172306, 1172690, 1173082, 1173483, 1173881, 1174291, 1174668, 1175079, 1175440, 1175848, 1176237, 1176646]","[1169288, 1169711, 1170104, 1170483, 1170877, 1171271, 1171671, 1172064, 1172481, 1172861, 1173259, 1173645, 1174049, 1174445, 1174836, 1175238, 1175608, 1176002, 1176397, 1176804]","[1167510, 1167909, 1168309, 1168709, 1169110, 1169509, 1169909, 1170310, 1170710, 1171109, 1171513, 1171908, 1172333, 1172717, 1173108, 1173510, 1173909, 1174319, 1174694, 1175106, 1175468, 1175875, 1176263, 1176673]",41,R,ITM,1.1,
4,400,trial,0,57,57,57,trial,"['S', 'S', 'S', 'S', 'C', 'C', 'C', 'C', 'C', 'C', 'C', 'C', 'C', 'C', 'C', 'C', 'C', 'C', 'C', 'C']","[1183666, 1184104, 1184509, 1184889, 1185261, 1185668, 1186063, 1186448, 1186854, 1187243, 1187643, 1188024, 1188420, 1188792, 1189191, 1189579, 1189972, 1190377, 1190768, 1191156]","[1183831, 1184265, 1184665, 1185040, 1185431, 1185830, 1186230, 1186628, 1187032, 1187430, 1187806, 1188209, 1188601, 1188982, 1189360, 1189743, 1190158, 1190553, 1190934, 1191322]","[1182102, 1182501, 1182901, 1183301, 1183702, 1184101, 1184501, 1184902, 1185287, 1185693, 1186088, 1186473, 1186880, 1187268, 1187668, 1188049, 1188446, 1188817, 1189218, 1189606, 1189998, 1190404, 1190794, 1191182]",41,R,ITM,1.1,
5,600,trial,0,58,58,58,trial,"['S', 'S', 'S', 'S', 'C', 'C', 'C', 'C', 'C', 'C', 'C', 'C', 'C', 'C', 'C', 'C', 'C', 'C', 'C', 'C']","[1199095, 1199728, 1200347, 1200948, 1201543, 1202177, 1202796, 1203415, 1204011, 1204636, 1205274, 1205881, 1206499, 1207143, 1207766, 1208385, 1208991, 1209629, 1210272, 1210888]","[1199309, 1199918, 1200532, 1201133, 1201745, 1202377, 1202994, 1203617, 1204211, 1204826, 1205500, 1206110, 1206754, 1207383, 1208009, 1208629, 1209231, 1209876, 1210511, 1211123]","[1196726, 1197326, 1197926, 1198526, 1199126, 1199726, 1200326, 1200926, 1201568, 1202202, 1202822, 1203441, 1204036, 1204662, 1205300, 1205908, 1206524, 1207169, 1207791, 1208412, 1209018, 1209655, 1210298, 1210913]",41,R,ITM,1.1,
2,600,trial,0,59,59,59,trial,"['S', 'S', 'S', 'S', 'C', 'C', 'C', 'C', 'C', 'C', 'C', 'C', 'C', 'C', 'C', 'C', 'C', 'C', 'C', 'C']","[1219039, 1219620, 1220222, 1220825, 1221426, 1222041, 1222666, 1223288, 1223914, 1224525, 1225129, 1225747, 1226374, 1226995, 1227615, 1228252, 1228876, 1229508, 1230124, 1230744]","[1219262, 1219837, 1220449, 1221060, 1221646, 1222285, 1222919, 1223510, 1224133, 1224741, 1225340, 1225972, 1226596, 1227213, 1227852, 1228478, 1229104, 1229733, 1230356, 1230985]","[1216620, 1217219, 1217820, 1218420, 1219020, 1219620, 1220219, 1220819, 1221453, 1222069, 1222693, 1223315, 1223942, 1224553, 1225156, 1225775, 1226401, 1227023, 1227642, 1228279, 1228904, 1229536, 1230150, 1230772]",41,R,ITM,1.1,
7,400,trial,0,60,60,60,trial,"['S', 'S', 'S', 'S', 'C', 'C', 'C', 'C', 'C', 'C', 'C', 'C', 'C', 'C', 'C', 'C', 'C', 'C', 'C', 'C']","[1237653, 1238092, 1238520, 1238892, 1239274, 1239667, 1240065, 1240473, 1240852, 1241268, 1241653, 1242047, 1242437, 1242862, 1243244, 1243650, 1244035, 1244430, 1244827, 1245220]","[1237829, 1238262, 1238695, 1239048, 1239443, 1239862, 1240244, 1240632, 1241040, 1241432, 1241843, 1242229, 1242618, 1243025, 1243426, 1243831, 1244230, 1244606, 1245018, 1245421]","[1236092, 1236491, 1236891, 1237292, 1237691, 1238091, 1238492, 1238891, 1239301, 1239694, 1240091, 1240501, 1240879, 1241295, 1241680, 1242074, 1242465, 1242889, 1243272, 1243677, 1244062, 1244456, 1244854, 1245248]",41,R,ITM,1.1,
7,600,trial,0,61,61,61,trial,"['S', 'S', 'S', 'S', 'C', 'C', 'C', 'C', 'C', 'C', 'C', 'C', 'C', 'C', 'C', 'C', 'C', 'C', 'C', 'C']","[1253366, 1254022, 1254615, 1255215, 1255806, 1256390, 1257001, 1257635, 1258231, 1258841, 1259453, 1260082, 1260701, 1261307, 1261917, 1262551, 1263157, 1263798, 1264418, 1265044]","[1253636, 1254247, 1254827, 1255461, 1256041, 1256635, 1257249, 1257868, 1258482, 1259127, 1259736, 1260345, 1260974, 1261576, 1262190, 1262800, 1263434, 1264151, 1264685]","[1251014, 1251613, 1252213, 1252813, 1253413, 1254013, 1254614, 1255214, 1255833, 1256417, 1257027, 1257662, 1258259, 1258867, 1259480, 1260109, 1260728, 1261335, 1261944, 1262578, 1263184, 1263824, 1264446, 1265072]",41,R,ITM,1.1,
5,400,trial,0,62,62,62,trial,"['S', 'S', 'S', 'S', 'C', 'C', 'C', 'C', 'C', 'C', 'C', 'C', 'C', 'C', 'C', 'C', 'C', 'C', 'C', 'C']","[1272326, 1272762, 1273159, 1273545, 1273961, 1274343, 1274735, 1275118, 1275516, 1275913, 1276306, 1276705, 1277094, 1277486, 1277873, 1278269, 1278662, 1279060, 1279441, 1279851]","[1272524, 1272938, 1273352, 1273731, 1274134, 1274511, 1274919, 1275308, 1275706, 1276080, 1276484, 1276878, 1277266, 1277670, 1278069, 1278468, 1278843, 1279261, 1279649, 1280029]","[1270774, 1271174, 1271573, 1271973, 1272373, 1272773, 1273174, 1273573, 1273987, 1274369, 1274761, 1275144, 1275542, 1275938, 1276332, 1276731, 1277120, 1277511, 1277898, 1278296, 1278688, 1279086, 1279467, 1279878]",41,R,ITM,1.1,
4,400,trial,0,63,63,63,trial,"['S', 'S', 'S', 'S', 'C', 'C', 'C', 'C', 'C', 'C', 'C', 'C', 'C', 'C', 'C', 'C', 'C', 'C', 'C', 'C']","[1286968, 1287385, 1287775, 1288155, 1288551, 1288942, 1289337, 1289733, 1290128, 1290507, 1290902, 1291301, 1291686, 1292082, 1292467, 1292859, 1293250, 1293646, 1294049, 1294442]","[1287142, 1287546, 1287957, 1288338, 1288730, 1289111, 1289516, 1289914, 1290299, 1290700, 1291085, 1291458, 1291854, 1292260, 1292645, 1293048, 1293424, 1293840, 1294238, 1294622]","[1285413, 1285813, 1286213, 1286614, 1287013, 1287413, 1287814, 1288213, 1288577, 1288968, 1289363, 1289758, 1290153, 1290532, 1290928, 1291327, 1291713, 1292107, 1292492, 1292884, 1293276, 1293672, 1294075, 1294468]",41,R,ITM,1.1,
4,600,trial,0,64,64,64,trial,"['S', 'S', 'S', 'S', 'C', 'C', 'C', 'C', 'C', 'C', 'C', 'C', 'C', 'C', 'C', 'C', 'C', 'C', 'C', 'C']","[1302288, 1302884, 1303454, 1304038, 1304629, 1305208, 1305776, 1306327, 1306901, 1307462, 1308038, 1308611, 1309169, 1309755, 1310338, 1310898, 1311471, 1312024, 1312609, 1313168]","[1302495, 1303074, 1303669, 1304257, 1304824, 1305405, 1305962, 1306521, 1307100, 1307661, 1308239, 1308810, 1309370, 1309961, 1310544, 1311137, 1311681, 1312229, 1312813, 1313349]","[1299922, 1300523, 1301123, 1301723, 1302322, 1302922, 1303522, 1304122, 1304654, 1305235, 1305801, 1306352, 1306927, 1307488, 1308063, 1308637, 1309195, 1309780, 1310363, 1310923, 1311497, 1312050, 1312635, 1313193]",41,R,ITM,1.1,
7,600,trial,0,65,65,65,trial,"['S', 'S', 'S', 'S', 'S', 'S', 'C', 'C', 'C', 'C', 'C', 'C', 'C', 'C', 'C', 'C', 'C', 'C', 'C', 'C', 'C', 'C']","[1320135, 1320686, 1321274, 1321914, 1322550, 1323134, 1323742, 1324333, 1324921, 1325506, 1326115, 1326683, 1327292, 1327892, 1328502, 1329101, 1329705, 1330275, 1330882, 1331513, 1332121, 1332729]","[1320345, 1320938, 1321538, 1322150, 1322754, 1323348, 1323943, 1324534, 1325118, 1325709, 1326296, 1326886, 1327482, 1328088, 1328702, 1329311, 1329909, 1330507, 1331101, 1331732, 1332335, 1332921]","[1318950, 1319550, 1320151, 1320751, 1321351, 1321950, 1322550, 1323150, 1323768, 1324359, 1324948, 1325534, 1326143, 1326710, 1327319, 1327919, 1328529, 1329128, 1329732, 1330302, 1330910, 1331539, 1332149, 1332756]",41,R,ITM,1.1,
3,600,trial,0,66,66,66,trial,"['S', 'S', 'S', 'S', 'S', 'S', 'C', 'C', 'C', 'C', 'C', 'C', 'C', 'C', 'C', 'C', 'C', 'C', 'C', 'C', 'C', 'C']","[1339520, 1340120, 1340713, 1341290, 1341908, 1342483, 1343093, 1343681, 1344285, 1344862, 1345460, 1346033, 1346652, 1347253, 1347829, 1348385, 1348988, 1349590, 1350208, 1350842, 1351447, 1352045]","[1339745, 1340337, 1340937, 1341476, 1342044, 1342617, 1343225, 1343815, 1344388, 1344958, 1345592, 1346183, 1346818, 1347449, 1347978, 1348575, 1349183, 1349801, 1350425, 1351033, 1351632, 1352222]","[1338338, 1338938, 1339538, 1340138, 1340738, 1341338, 1341938, 1342538, 1343119, 1343707, 1344311, 1344887, 1345485, 1346059, 1346677, 1347278, 1347855, 1348411, 1349014, 1349615, 1350234, 1350867, 1351473, 1352071]",41,R,ITM,1.1,
6,600,trial,0,67,67,67,trial,"['S', 'S', 'S', 'S', 'S', 'S', 'C', 'C', 'C', 'C', 'C', 'C', 'C', 'C', 'C', 'C', 'C', 'C', 'C', 'C', 'C', 'C']","[1358602, 1359223, 1359823, 1360457, 1361019, 1361653, 1362224, 1362843, 1363470, 1364067, 1364665, 1365307, 1365892, 1366525, 1367158, 1367771, 1368366, 1368980, 1369603, 1370231, 1370851, 1371445]","[1358820, 1359395, 1360003, 1360629, 1361113, 1361763, 1362351, 1362987, 1363630, 1364240, 1364810, 1365428, 1366006, 1366665, 1367293, 1367931, 1368525, 1369134, 1369739, 1370409, 1371030, 1371584]","[1357454, 1358053, 1358653, 1359253, 1359853, 1360453, 1361053, 1361653, 1362250, 1362870, 1363496, 1364093, 1364692, 1365335, 1365918, 1366552, 1367185, 1367798, 1368393, 1369007, 1369629, 1370258, 1370877, 1371472]",41,R,ITM,1.1,
6,400,trial,0,68,68,68,trial,"['S', 'S', 'S', 'S', 'C', 'C', 'C', 'C', 'C', 'C', 'C', 'C', 'C', 'C', 'C', 'C', 'C', 'C', 'C', 'C']","[1378489, 1378939, 1379348, 1379748, 1380139, 1380533, 1380930, 1381313, 1381732, 1382110, 1382507, 1382914, 1383310, 1383711, 1384097, 1384483, 1384859, 1385252, 1385644, 1386038]","[1378640, 1379087, 1379502, 1379901, 1380289, 1380694, 1381087, 1381485, 1381889, 1382263, 1382665, 1383061, 1383452, 1383873, 1384242, 1384625, 1385004, 1385406, 1385788, 1386180]","[1376948, 1377348, 1377748, 1378148, 1378548, 1378949, 1379348, 1379748, 1380165, 1380559, 1380957, 1381341, 1381758, 1382137, 1382535, 1382941, 1383337, 1383738, 1384125, 1384510, 1384886, 1385279, 1385671, 1386065]",41,R,ITM,1.1,
4,600,trial,0,69,69,69,trial,"['S', 'S', 'S', 'S', 'S', 'S', 'C', 'C', 'C', 'C', 'C', 'C', 'C', 'C', 'C', 'C', 'C', 'C', 'C', 'C', 'C', 'C']","[1392641, 1393239, 1393855, 1394487, 1395077, 1395682, 1396250, 1396867, 1397483, 1398083, 1398693, 1399313, 1399939, 1400539, 1401134, 1401741, 1402361, 1403001, 1403606, 1404224, 1404841, 1405451]","[1392859, 1393451, 1394035, 1394678, 1395308, 1395877, 1396526, 1397134, 1397761, 1398371, 1398987, 1399599, 1400194, 1400824, 1401405, 1402018, 1402657, 1403266, 1403883, 1404468, 1405105, 1405702]","[1391496, 1392095, 1392695, 1393295, 1393895, 1394495, 1395095, 1395695, 1396276, 1396892, 1397509, 1398109, 1398719, 1399339, 1399964, 1400564, 1401159, 1401766, 1402387, 1403027, 1403631, 1404250, 1404867, 1405476]",41,R,ITM,1.1,
5,600,trial,0,70,70,70,trial,"['S', 'S', 'S', 'S', 'S', 'S', 'C', 'C', 'C', 'C', 'C', 'C', 'C', 'C', 'C', 'C', 'C', 'C', 'C', 'C', 'C', 'C']","[1412107, 1412741, 1413373, 1413955, 1414535, 1415174, 1415753, 1416374, 1416958, 1417575, 1418156, 1418798, 1419410, 1420024, 1420612, 1421214, 1421842, 1422437, 1423025, 1423642, 1424248, 1424852]","[1412372, 1413019, 1413611, 1414230, 1414853, 1415447, 1416038, 1416648, 1417255, 1417858, 1418457, 1419073, 1419683, 1420300, 1420902, 1421520, 1422146, 1422724, 1423315, 1423936, 1424537]","[1410973, 1411573, 1412173, 1412773, 1413373, 1413974, 1414574, 1415174, 1415779, 1416399, 1416985, 1417601, 1418181, 1418824, 1419436, 1420050, 1420638, 1421240, 1421868, 1422462, 1423050, 1423668, 1424274, 1424878]",41,R,ITM,1.1,
3,400,trial,0,71,71,71,trial,"['S', 'S', 'S', 'S', 'C', 'C', 'C', 'C', 'C', 'C', 'C', 'C', 'C', 'C', 'C', 'C', 'C', 'C', 'C', 'C']","[1431845, 1432275, 1432666, 1433066, 1433462, 1433868, 1434269, 1434650, 1435024, 1435424, 1435800, 1436197, 1436582, 1436977, 1437381, 1437761, 1438158, 1438539, 1438941, 1439329]","[1432004, 1432422, 1432815, 1433222, 1433618, 1434022, 1434423, 1434809, 1435209, 1435579, 1436002, 1436358, 1436753, 1437131, 1437530, 1437932, 1438339, 1438702, 1439108, 1439495]","[1430276, 1430675, 1431075, 1431475, 1431875, 1432275, 1432675, 1433075, 1433488, 1433893, 1434295, 1434676, 1435049, 1435450, 1435827, 1436223, 1436608, 1437002, 1437407, 1437787, 1438184, 1438565, 1438966, 1439354]",41,R,ITM,1.1,
2,400,trial,0,72,72,72,trial,"['S', 'S', 'S', 'S', 'S', 'S', 'C', 'C', 'C', 'C', 'C', 'C', 'C', 'C', 'C', 'C', 'C', 'C', 'C', 'C', 'C', 'C']","[1445620, 1446024, 1446434, 1446839, 1447239, 1447642, 1448041, 1448440, 1448828, 1449202, 1449585, 1449968, 1450374, 1450778, 1451149, 1451549, 1451935, 1452325, 1452726, 1453102, 1453499, 1453890]","[1445780, 1446167, 1446581, 1446989, 1447413, 1447803, 1448208, 1448596, 1448989, 1449356, 1449744, 1450140, 1450527, 1450934, 1451319, 1451722, 1452097, 1452492, 1452875, 1453258, 1453659, 1454047]","[1444883, 1445283, 1445684, 1446084, 1446483, 1446884, 1447283, 1447685, 1448068, 1448468, 1448856, 1449230, 1449612, 1449995, 1450401, 1450806, 1451176, 1451577, 1451963, 1452352, 1452752, 1453129, 1453527, 1453918]",41,R,ITM,1.1,
5,400,trial,0,73,73,73,trial,"['S', 'S', 'S', 'S', 'S', 'S', 'C', 'C', 'C', 'C', 'C', 'C', 'C', 'C', 'C', 'C', 'C', 'C', 'C', 'C', 'C', 'C']","[1460207, 1460619, 1461015, 1461390, 1461787, 1462199, 1462589, 1462975, 1463359, 1463766, 1464157, 1464549, 1464939, 1465345, 1465739, 1466122, 1466522, 1466894, 1467305, 1467689, 1468080, 1468471]","[1460330, 1460757, 1461141, 1461531, 1461944, 1462341, 1462746, 1463109, 1463502, 1463901, 1464304, 1464694, 1465094, 1465502, 1465889, 1466280, 1466671, 1467076, 1467464, 1467866, 1468248, 1468645]","[1459466, 1459865, 1460265, 1460665, 1461065, 1461466, 1461865, 1462265, 1462615, 1463001, 1463385, 1463792, 1464182, 1464574, 1464966, 1465370, 1465765, 1466147, 1466548, 1466919, 1467331, 1467716, 1468106, 1468496]",41,R,ITM,1.1,
3,400,trial,0,74,74,74,trial,"['S', 'S', 'S', 'S', 'C', 'C', 'C', 'C', 'C', 'C', 'C', 'C', 'C', 'C', 'C', 'C', 'C', 'C', 'C', 'C']","[1475687, 1476129, 1476499, 1476889, 1477268, 1477669, 1478056, 1478455, 1478841, 1479242, 1479612, 1480016, 1480418, 1480816, 1481216, 1481589, 1481982, 1482362, 1482760, 1483156]","[1475877, 1476275, 1476684, 1477066, 1477457, 1477827, 1478223, 1478625, 1479024, 1479406, 1479789, 1480182, 1480568, 1480958, 1481356, 1481780, 1482153, 1482559, 1482933, 1483318]","[1474130, 1474529, 1474929, 1475330, 1475729, 1476129, 1476530, 1476930, 1477294, 1477695, 1478082, 1478481, 1478866, 1479268, 1479638, 1480042, 1480443, 1480842, 1481241, 1481615, 1482008, 1482388, 1482785, 1483182]",41,R,ITM,1.1,
3,600,trial,0,75,75,75,trial,"['S', 'S', 'S', 'S', 'S', 'S', 'C', 'C', 'C', 'C', 'C', 'C', 'C', 'C', 'C', 'C', 'C', 'C', 'C', 'C', 'C', 'C']","[1489882, 1490490, 1491108, 1491714, 1492298, 1492890, 1493499, 1494099, 1494725, 1495330, 1495944, 1496578, 1497181, 1497780, 1498387, 1498972, 1499612, 1500230, 1500840, 1501459, 1502064, 1502681]","[1490102, 1490758, 1491379, 1491926, 1492529, 1493182, 1493789, 1494393, 1494975, 1495564, 1496168, 1496792, 1497460, 1498075, 1498628, 1499277, 1499881, 1500511, 1501145, 1501760, 1502371]","[1488724, 1489325, 1489925, 1490525, 1491125, 1491725, 1492325, 1492925, 1493525, 1494125, 1494751, 1495356, 1495969, 1496603, 1497206, 1497805, 1498413, 1498997, 1499637, 1500256, 1500866, 1501485, 1502090, 1502706]",41,R,ITM,1.1,
2,400,trial,0,76,76,76,trial,"['S', 'S', 'S', 'S', 'C', 'C', 'C', 'C', 'C', 'C', 'C', 'C', 'C', 'C', 'C', 'C', 'C', 'C', 'C', 'C']","[1509889, 1510302, 1510694, 1511083, 1511492, 1511885, 1512281, 1512665, 1513053, 1513449, 1513842, 1514249, 1514632, 1515028, 1515439, 1515810, 1516221, 1516601, 1516991, 1517368]","[1510079, 1510482, 1510881, 1511288, 1511674, 1512056, 1512457, 1512864, 1513229, 1513630, 1514018, 1514418, 1514814, 1515196, 1515622, 1516007, 1516395, 1516781, 1517170, 1517548]","[1508325, 1508725, 1509126, 1509525, 1509924, 1510324, 1510724, 1511126, 1511520, 1511913, 1512308, 1512692, 1513079, 1513476, 1513870, 1514276, 1514658, 1515056, 1515466, 1515838, 1516249, 1516628, 1517018, 1517395]",41,R,ITM,1.1,
6,600,trial,0,77,77,77,trial,"['S', 'S', 'S', 'S', 'S', 'S', 'C', 'C', 'C', 'C', 'C', 'C', 'C', 'C', 'C', 'C', 'C', 'C', 'C', 'C', 'C', 'C']","[1524099, 1524720, 1525315, 1525900, 1526500, 1527094, 1527677, 1528262, 1528852, 1529441, 1530053, 1530657, 1531266, 1531857, 1532455, 1533040, 1533636, 1534224, 1534817, 1535407, 1536008, 1536611]","[1524331, 1524964, 1525538, 1526117, 1526722, 1527319, 1527924, 1528520, 1529106, 1529710, 1530299, 1530899, 1531499, 1532125, 1532712, 1533282, 1533876, 1534450, 1535066, 1535640, 1536257, 1536862]","[1522940, 1523539, 1524140, 1524740, 1525340, 1525939, 1526539, 1527139, 1527705, 1528289, 1528879, 1529467, 1530080, 1530684, 1531293, 1531885, 1532483, 1533068, 1533663, 1534251, 1534843, 1535434, 1536034, 1536637]",41,R,ITM,1.1,
3,400,trial,0,78,78,78,trial,"['S', 'S', 'S', 'S', 'C', 'C', 'C', 'C', 'C', 'C', 'C', 'C', 'C', 'C', 'C', 'C', 'C', 'C', 'C', 'C']","[1543914, 1544352, 1544741, 1545112, 1545505, 1545918, 1546310, 1546699, 1547097, 1547495, 1547876, 1548272, 1548682, 1549071, 1549475, 1549862, 1550248, 1550630, 1551035, 1551416]","[1544111, 1544546, 1544920, 1545304, 1545715, 1546082, 1546484, 1546861, 1547262, 1547673, 1548053, 1548455, 1548850, 1549248, 1549637, 1550022, 1550419, 1550789, 1551193, 1551580]","[1542352, 1542752, 1543152, 1543553, 1543952, 1544352, 1544753, 1545152, 1545531, 1545944, 1546336, 1546725, 1547122, 1547521, 1547901, 1548298, 1548707, 1549096, 1549501, 1549888, 1550274, 1550656, 1551060, 1551441]",41,R,ITM,1.1,
7,400,trial,0,79,79,79,trial,"['S', 'S', 'S', 'S', 'C', 'C', 'C', 'C', 'C', 'C', 'C', 'C', 'C', 'C', 'C', 'C', 'C', 'C', 'C', 'C']","[1558460, 1558897, 1559310, 1559698, 1560097, 1560509, 1560897, 1561290, 1561675, 1562065, 1562455, 1562828, 1563236, 1563639, 1564012, 1564423, 1564809, 1565201, 1565604, 1566006]","[1558650, 1559069, 1559469, 1559845, 1560257, 1560659, 1561057, 1561448, 1561828, 1562201, 1562591, 1562984, 1563379, 1563776, 1564161, 1564558, 1564947, 1565334, 1565734, 1566132]","[1556927, 1557326, 1557726, 1558126, 1558526, 1558926, 1559326, 1559727, 1560124, 1560536, 1560924, 1561317, 1561703, 1562093, 1562481, 1562855, 1563262, 1563666, 1564039, 1564449, 1564835, 1565228, 1565632, 1566032]",41,R,ITM,1.1,
7,600,trial,0,80,80,80,trial,"['S', 'S', 'S', 'S', 'S', 'S', 'C', 'C', 'C', 'C', 'C', 'C', 'C', 'C', 'C', 'C', 'C', 'C', 'C', 'C', 'C', 'C']","[1572547, 1573189, 1573781, 1574356, 1574957, 1575565, 1576162, 1576738, 1577332, 1577943, 1578530, 1579110, 1579703, 1580299, 1580889, 1581488, 1582087, 1582671, 1583263, 1583870, 1584462, 1585061]","[1572763, 1573410, 1573999, 1574590, 1575209, 1575801, 1576390, 1577004, 1577587, 1578170, 1578765, 1579329, 1579945, 1580529, 1581126, 1581741, 1582353, 1582909, 1583512, 1584122, 1584711, 1585324]","[1571410, 1572009, 1572610, 1573210, 1573810, 1574409, 1575009, 1575609, 1576189, 1576766, 1577359, 1577970, 1578557, 1579137, 1579730, 1580325, 1580916, 1581514, 1582113, 1582699, 1583290, 1583897, 1584489, 1585088]",41,R,ITM,1.1,
2,400,trial,0,81,81,81,trial,"['S', 'S', 'S', 'S', 'S', 'S', 'C', 'C', 'C', 'C', 'C', 'C', 'C', 'C', 'C', 'C', 'C', 'C', 'C', 'C', 'C', 'C']","[1591438, 1591861, 1592284, 1592690, 1593083, 1593472, 1593863, 1594278, 1594656, 1595056, 1595453, 1595860, 1596271, 1596672, 1597068, 1597469, 1597854, 1598264, 1598663, 1599070, 1599475, 1599892]","[1591609, 1592048, 1592450, 1592861, 1593263, 1593656, 1594045, 1594429, 1594821, 1595206, 1595610, 1596017, 1596419, 1596823, 1597225, 1597609, 1598000, 1598414, 1598842, 1599249, 1599663, 1600049]","[1590701, 1591100, 1591499, 1591901, 1592300, 1592700, 1593100, 1593499, 1593889, 1594305, 1594684, 1595083, 1595480, 1595888, 1596298, 1596698, 1597094, 1597497, 1597882, 1598291, 1598691, 1599096, 1599502, 1599920]",41,R,ITM,1.1,
6,600,trial,0,82,82,82,trial,"['S', 'S', 'S', 'S', 'S', 'S', 'C', 'C', 'C', 'C', 'C', 'C', 'C', 'C', 'C', 'C', 'C', 'C', 'C', 'C', 'C', 'C']","[1606779, 1607397, 1608003, 1608584, 1609195, 1609797, 1610393, 1610988, 1611600, 1612203, 1612823, 1613442, 1614070, 1614664, 1615250, 1615874, 1616443, 1617042, 1617657, 1618257, 1618873, 1619471]","[1606994, 1607607, 1608214, 1608803, 1609414, 1610015, 1610628, 1611233, 1611849, 1612443, 1613092, 1613699, 1614308, 1614892, 1615501, 1616097, 1616675, 1617269, 1617894, 1618513, 1619102, 1619707]","[1605616, 1606215, 1606815, 1607415, 1608015, 1608615, 1609216, 1609816, 1610420, 1611015, 1611627, 1612230, 1612850, 1613469, 1614098, 1614691, 1615278, 1615901, 1616471, 1617069, 1617684, 1618285, 1618900, 1619497]",41,R,ITM,1.1,
3,600,trial,0,83,83,83,trial,"['S', 'S', 'S', 'S', 'S', 'S', 'C', 'C', 'C', 'C', 'C', 'C', 'C', 'C', 'C', 'C', 'C', 'C', 'C', 'C', 'C', 'C']","[1626156, 1626807, 1627404, 1627986, 1628584, 1629173, 1629789, 1630418, 1631036, 1631642, 1632235, 1632830, 1633426, 1634031, 1634634, 1635226, 1635814, 1636418, 1637024, 1637628, 1638232, 1638819]","[1626392, 1627015, 1627617, 1628229, 1628855, 1629472, 1630111, 1630675, 1631293, 1631885, 1632490, 1633091, 1633667, 1634290, 1634872, 1635484, 1636076, 1636703, 1637304, 1637915, 1638456]","[1624999, 1625600, 1626200, 1626800, 1627399, 1627999, 1628599, 1629199, 1629814, 1630444, 1631062, 1631668, 1632261, 1632856, 1633452, 1634057, 1634660, 1635252, 1635840, 1636444, 1637050, 1637654, 1638257, 1638845]",41,R,ITM,1.1,
6,400,trial,0,84,84,84,trial,"['S', 'S', 'S', 'S', 'S', 'S', 'C', 'C', 'C', 'C', 'C', 'C', 'C', 'C', 'C', 'C', 'C', 'C', 'C', 'C', 'C', 'C']","[1644929, 1645349, 1645775, 1646158, 1646558, 1646937, 1647307, 1647715, 1648116, 1648513, 1648910, 1649295, 1649688, 1650074, 1650468, 1650861, 1651260, 1651659, 1652052, 1652452, 1652835, 1653220]","[1645087, 1645515, 1645929, 1646330, 1646718, 1647111, 1647482, 1647883, 1648295, 1648686, 1649076, 1649470, 1649872, 1650243, 1650635, 1651026, 1651422, 1651827, 1652219, 1652623, 1653008, 1653388]","[1644158, 1644558, 1644958, 1645359, 1645758, 1646158, 1646558, 1646958, 1647334, 1647741, 1648143, 1648540, 1648937, 1649321, 1649715, 1650101, 1650495, 1650888, 1651287, 1651686, 1652079, 1652480, 1652861, 1653246]",41,R,ITM,1.1,
5,600,trial,0,85,85,85,trial,"['S', 'S', 'S', 'S', 'S', 'S', 'C', 'C', 'C', 'C', 'C', 'C', 'C', 'C', 'C', 'C', 'C', 'C', 'C', 'C', 'C', 'C']","[1659870, 1660467, 1661085, 1661704, 1662300, 1662891, 1663482, 1664077, 1664671, 1665265, 1665875, 1666484, 1667097, 1667691, 1668276, 1668884, 1669472, 1670068, 1670669, 1671280, 1671887, 1672500]","[1660069, 1660667, 1661310, 1661941, 1662542, 1663157, 1663732, 1664349, 1664933, 1665536, 1666150, 1666762, 1667366, 1667975, 1668550, 1669184, 1669752, 1670332, 1670941, 1671535, 1672153, 1672757]","[1658727, 1659326, 1659926, 1660526, 1661126, 1661726, 1662326, 1662926, 1663508, 1664103, 1664698, 1665292, 1665901, 1666509, 1667123, 1667717, 1668302, 1668910, 1669497, 1670093, 1670694, 1671306, 1671913, 1672526]",41,R,ITM,1.1,
5,400,trial,0,86,86,86,trial,"['S', 'S', 'S', 'S', 'C', 'C', 'C', 'C', 'C', 'C', 'C', 'C', 'C', 'C', 'C', 'C', 'C', 'C', 'C', 'C']","[1679620, 1680062, 1680452, 1680825, 1681222, 1681637, 1682008, 1682408, 1682790, 1683191, 1683586, 1683981, 1684371, 1684777, 1685158, 1685551, 1685917, 1686310, 1686684, 1687092]","[1679828, 1680233, 1680624, 1681002, 1681437, 1681814, 1682201, 1682574, 1682989, 1683375, 1683780, 1684147, 1684558, 1684945, 1685362, 1685752, 1686132, 1686473, 1686874, 1687258]","[1678052, 1678452, 1678853, 1679252, 1679652, 1680052, 1680452, 1680852, 1681249, 1681662, 1682033, 1682434, 1682816, 1683217, 1683612, 1684006, 1684397, 1684803, 1685184, 1685577, 1685944, 1686336, 1686711, 1687117]",41,R,ITM,1.1,
4,600,trial,0,87,87,87,trial,"['S', 'S', 'S', 'S', 'S', 'S', 'C', 'C', 'C', 'C', 'C', 'C', 'C', 'C', 'C', 'C', 'C', 'C', 'C', 'C', 'C', 'C']","[1693849, 1694482, 1695094, 1695678, 1696276, 1696872, 1697459, 1698063, 1698693, 1699310, 1699896, 1700494, 1701124, 1701702, 1702289, 1702924, 1703525, 1704142, 1704754, 1705366, 1705967, 1706522]","[1694021, 1694735, 1695299, 1695916, 1696555, 1697179, 1697744, 1698354, 1698982, 1699562, 1700172, 1700793, 1701364, 1701980, 1702581, 1703200, 1703815, 1704432, 1705077, 1705666, 1706287]","[1692695, 1693294, 1693894, 1694494, 1695094, 1695694, 1696294, 1696894, 1697484, 1698088, 1698718, 1699336, 1699921, 1700519, 1701150, 1701728, 1702316, 1702949, 1703550, 1704168, 1704779, 1705392, 1705993, 1706549]",41,R,ITM,1.1,
2,600,trial,0,88,88,88,trial,"['S', 'S', 'S', 'S', 'S', 'S', 'C', 'C', 'C', 'C', 'C', 'C', 'C', 'C', 'C', 'C', 'C', 'C', 'C', 'C', 'C', 'C']","[1713071, 1713687, 1714293, 1714895, 1715520, 1716125, 1716678, 1717296, 1717918, 1718538, 1719144, 1719774, 1720397, 1721022, 1721645, 1722252, 1722885, 1723495, 1724097, 1724684, 1725296, 1725922]","[1713295, 1713913, 1714527, 1715151, 1715759, 1716368, 1716946, 1717533, 1718157, 1718806, 1719433, 1720052, 1720690, 1721323, 1721883, 1722545, 1723150, 1723712, 1724341, 1724971, 1725595]","[1711935, 1712535, 1713134, 1713735, 1714335, 1714935, 1715534, 1716135, 1716705, 1717323, 1717946, 1718564, 1719171, 1719800, 1720425, 1721049, 1721672, 1722278, 1722912, 1723523, 1724125, 1724710, 1725324, 1725949]",41,R,ITM,1.1,
2,600,trial,0,89,89,89,trial,"['S', 'S', 'S', 'S', 'S', 'S', 'C', 'C', 'C', 'C', 'C', 'C', 'C', 'C', 'C', 'C', 'C', 'C', 'C', 'C', 'C', 'C']","[1732777, 1733365, 1733965, 1734556, 1735176, 1735792, 1736387, 1736983, 1737614, 1738204, 1738809, 1739423, 1740023, 1740607, 1741220, 1741829, 1742453, 1743060, 1743659, 1744276, 1744878, 1745499]","[1732971, 1733611, 1734244, 1734842, 1735448, 1736060, 1736640, 1737249, 1737882, 1738490, 1739087, 1739691, 1740290, 1740879, 1741499, 1742077, 1742702, 1743346, 1743976, 1744549, 1745153, 1745747]","[1731604, 1732204, 1732803, 1733404, 1734003, 1734604, 1735204, 1735804, 1736414, 1737010, 1737640, 1738230, 1738835, 1739451, 1740051, 1740635, 1741248, 1741855, 1742481, 1743088, 1743685, 1744303, 1744906, 1745525]",41,R,ITM,1.1,
6,400,trial,0,90,90,90,trial,"['S', 'S', 'S', 'S', 'S', 'S', 'C', 'C', 'C', 'C', 'C', 'C', 'C', 'C', 'C', 'C', 'C', 'C', 'C', 'C', 'C', 'C']","[1751631, 1752051, 1752459, 1752818, 1753230, 1753641, 1754025, 1754415, 1754848, 1755234, 1755631, 1756012, 1756388, 1756774, 1757154, 1757546, 1757941, 1758331, 1758720, 1759099, 1759496, 1759876]","[1751821, 1752204, 1752627, 1753015, 1753412, 1753822, 1754240, 1754630, 1754998, 1755408, 1755796, 1756203, 1756574, 1756930, 1757327, 1757713, 1758113, 1758517, 1758892, 1759270, 1759667, 1760029]","[1750852, 1751251, 1751651, 1752051, 1752452, 1752851, 1753251, 1753651, 1754052, 1754441, 1754874, 1755260, 1755659, 1756039, 1756414, 1756801, 1757181, 1757573, 1757969, 1758358, 1758746, 1759126, 1759522, 1759902]",41,R,ITM,1.1,
6,600,trial,0,91,91,91,trial,"['S', 'S', 'S', 'S', 'S', 'S', 'C', 'C', 'C', 'C', 'C', 'C', 'C', 'C', 'C', 'C', 'C', 'C', 'C', 'C', 'C', 'C']","[1766596, 1767230, 1767827, 1768426, 1769030, 1769612, 1770223, 1770818, 1771428, 1772030, 1772618, 1773214, 1773842, 1774448, 1775064, 1775657, 1776264, 1776879, 1777475, 1778082, 1778707, 1779331]","[1766829, 1767456, 1768073, 1768640, 1769267, 1769867, 1770466, 1771046, 1771660, 1772258, 1772872, 1773501, 1774094, 1774734, 1775332, 1775950, 1776541, 1777162, 1777740, 1778368, 1778979]","[1765444, 1766044, 1766644, 1767244, 1767844, 1768444, 1769044, 1769645, 1770250, 1770846, 1771455, 1772057, 1772645, 1773241, 1773869, 1774475, 1775091, 1775685, 1776290, 1776906, 1777503, 1778109, 1778734, 1779357]",41,R,ITM,1.1,
7,400,trial,0,92,92,92,trial,"['S', 'S', 'S', 'S', 'S', 'S', 'C', 'C', 'C', 'C', 'C', 'C', 'C', 'C', 'C', 'C', 'C', 'C', 'C', 'C', 'C', 'C']","[1785700, 1786119, 1786535, 1786935, 1787313, 1787725, 1788123, 1788509, 1788907, 1789304, 1789691, 1790102, 1790483, 1790865, 1791259, 1791653, 1792051, 1792451, 1792860, 1793238, 1793635, 1794025]","[1785888, 1786303, 1786711, 1787115, 1787509, 1787906, 1788308, 1788685, 1789094, 1789479, 1789879, 1790271, 1790656, 1791049, 1791438, 1791834, 1792226, 1792630, 1793042, 1793428, 1793805, 1794205]","[1784934, 1785334, 1785735, 1786134, 1786534, 1786934, 1787334, 1787735, 1788149, 1788535, 1788935, 1789331, 1789719, 1790129, 1790511, 1790893, 1791287, 1791680, 1792077, 1792479, 1792886, 1793264, 1793661, 1794052]",41,R,ITM,1.1,
4,400,trial,0,93,93,93,trial,"['S', 'S', 'S', 'S', 'S', 'S', 'C', 'C', 'C', 'C', 'C', 'C', 'C', 'C', 'C', 'C', 'C', 'C', 'C', 'C', 'C', 'C']","[1800574, 1801003, 1801408, 1801829, 1802218, 1802601, 1802979, 1803378, 1803771, 1804174, 1804580, 1804948, 1805349, 1805735, 1806121, 1806519, 1806916, 1807309, 1807713, 1808091, 1808472, 1808869]","[1800725, 1801156, 1801541, 1801964, 1802356, 1802746, 1803134, 1803532, 1803932, 1804340, 1804733, 1805127, 1805504, 1805893, 1806284, 1806682, 1807079, 1807477, 1807873, 1808257, 1808644, 1809026]","[1799830, 1800229, 1800629, 1801029, 1801430, 1801829, 1802229, 1802630, 1803005, 1803404, 1803798, 1804199, 1804606, 1804974, 1805375, 1805761, 1806147, 1806544, 1806942, 1807335, 1807738, 1808116, 1808497, 1808894]",41,R,ITM,1.1,
7,600,trial,0,94,94,94,trial,"['S', 'S', 'S', 'S', 'S', 'S', 'S', 'C', 'C', 'C', 'C', 'C', 'C', 'C', 'C', 'C', 'C', 'C', 'C', 'C', 'C', 'C', 'C']","[1815022, 1815764, 1816412, 1817023, 1817602, 1818225, 1818843, 1819429, 1820046, 1820648, 1821257, 1821857, 1822439, 1823056, 1823673, 1824253, 1824858, 1825476, 1826073, 1826705, 1827300, 1827905, 1828517]","[1815096, 1816025, 1816666, 1817270, 1817896, 1818513, 1819084, 1819730, 1820301, 1820930, 1821546, 1822119, 1822735, 1823338, 1823973, 1824552, 1825177, 1825806, 1826399, 1827035, 1827641, 1828238]","[1814637, 1815236, 1815836, 1816436, 1817036, 1817636, 1818236, 1818836, 1819456, 1820073, 1820676, 1821284, 1821884, 1822466, 1823084, 1823699, 1824280, 1824885, 1825504, 1826100, 1826733, 1827326, 1827932, 1828544]",41,R,ITM,1.1,
3,600,trial,0,95,95,95,trial,"['S', 'S', 'S', 'S', 'C', 'C', 'C', 'C', 'C', 'C', 'C', 'C', 'C', 'C', 'C', 'C', 'C', 'C', 'C', 'C']","[1836653, 1837268, 1837892, 1838525, 1839055, 1839674, 1840273, 1840871, 1841486, 1842109, 1842694, 1843312, 1843920, 1844545, 1845163, 1845766, 1846375, 1846989, 1847600, 1848224]","[1836931, 1837570, 1838208, 1838795, 1839374, 1839955, 1840549, 1841167, 1841786, 1842445, 1842988, 1843597, 1844219, 1844832, 1845427, 1846062, 1846691, 1847271, 1847898, 1848485]","[1834301, 1834900, 1835500, 1836100, 1836700, 1837300, 1837900, 1838500, 1839081, 1839699, 1840299, 1840897, 1841512, 1842135, 1842719, 1843338, 1843946, 1844571, 1845188, 1845791, 1846401, 1847015, 1847625, 1848250]",41,R,ITM,1.1,
5,600,trial,0,96,96,96,trial,"['B', 'S', 'S', 'S', 'S', 'S', 'S', 'S', 'C', 'C', 'C', 'C', 'C', 'C', 'C', 'C', 'C', 'C', 'C', 'C', 'C', 'C', 'C', 'C']","[1853891, 1854406, 1855078, 1855694, 1856292, 1856875, 1857474, 1858036, 1858684, 1859261, 1859864, 1860458, 1861058, 1861669, 1862291, 1862904, 1863474, 1864093, 1864672, 1865291, 1865877, 1866488, 1867097, 1867725]","[1854015, 1854739, 1855356, 1855998, 1856547, 1857141, 1857747, 1858368, 1858966, 1859515, 1860149, 1860758, 1861345, 1861968, 1862605, 1863184, 1863778, 1864357, 1864967, 1865563, 1866184, 1866733, 1867381]","[1853903, 1854502, 1855102, 1855703, 1856303, 1856903, 1857503, 1858103, 1858710, 1859287, 1859890, 1860485, 1861084, 1861695, 1862317, 1862931, 1863499, 1864119, 1864697, 1865317, 1865904, 1866514, 1867122, 1867751]",41,R,ITM,1.1,
4,400,trial,0,97,97,97,trial,"['S', 'S', 'S', 'S', 'S', 'S', 'S', 'C', 'C', 'C', 'C', 'C', 'C', 'C', 'C', 'C', 'C', 'C', 'C', 'C', 'C', 'C', 'C']","[1873638, 1873996, 1874390, 1874812, 1875227, 1875637, 1876044, 1876447, 1876844, 1877260, 1877623, 1878026, 1878421, 1878829, 1879224, 1879610, 1880008, 1880400, 1880818, 1881200, 1881610, 1881996, 1882385]","[1873798, 1874138, 1874564, 1874990, 1875394, 1875790, 1876177, 1876557, 1876971, 1877408, 1877793, 1878172, 1878568, 1878986, 1879375, 1879781, 1880170, 1880567, 1880965, 1881364, 1881769, 1882164, 1882549]","[1873238, 1873637, 1874037, 1874438, 1874837, 1875237, 1875637, 1876037, 1876472, 1876870, 1877285, 1877649, 1878052, 1878447, 1878854, 1879250, 1879635, 1880034, 1880426, 1880844, 1881226, 1881635, 1882021, 1882411]",41,R,ITM,1.1,
4,600,trial,0,98,98,98,trial,"['S', 'S', 'S', 'S', 'S', 'S', 'C', 'C', 'C', 'C', 'C', 'C', 'C', 'C', 'C', 'C', 'C', 'C', 'C', 'C', 'C', 'C']","[1889239, 1889870, 1890498, 1891121, 1891716, 1892307, 1892894, 1893513, 1894113, 1894716, 1895287, 1895904, 1896515, 1897154, 1897775, 1898397, 1899008, 1899616, 1900217, 1900843, 1901432, 1902054]","[1889430, 1890170, 1890795, 1891404, 1891995, 1892583, 1893186, 1893772, 1894394, 1895008, 1895573, 1896192, 1896825, 1897470, 1898077, 1898700, 1899286, 1899891, 1900512, 1901142, 1901742]","[1888108, 1888707, 1889307, 1889907, 1890507, 1891107, 1891707, 1892307, 1892920, 1893538, 1894138, 1894742, 1895313, 1895929, 1896541, 1897180, 1897800, 1898423, 1899033, 1899642, 1900242, 1900868, 1901458, 1902080]",41,R,ITM,1.1,
3,400,trial,0,99,99,99,trial,"['S', 'S', 'S', 'S', 'C', 'C', 'C', 'C', 'C', 'C', 'C', 'C', 'C', 'C', 'C', 'C', 'C', 'C', 'C', 'C']","[1908980, 1909409, 1909811, 1910196, 1910632, 1911017, 1911411, 1911805, 1912207, 1912634, 1913018, 1913408, 1913810, 1914195, 1914597, 1914983, 1915399, 1915788, 1916180, 1916579]","[1909121, 1909550, 1909944, 1910366, 1910791, 1911156, 1911570, 1911932, 1912368, 1912808, 1913192, 1913576, 1913976, 1914368, 1914770, 1915146, 1915563, 1915960, 1916348, 1916738]","[1907443, 1907844, 1908243, 1908643, 1909043, 1909443, 1909843, 1910243, 1910658, 1911043, 1911437, 1911831, 1912232, 1912659, 1913043, 1913434, 1913836, 1914221, 1914622, 1915009, 1915424, 1915813, 1916206, 1916605]",41,R,ITM,1.1,
2,400,trial,0,100,100,100,trial,"['S', 'S', 'S', 'S', 'S', 'S', 'C', 'C', 'C', 'C', 'C', 'C', 'C', 'C', 'C', 'C', 'C', 'C', 'C', 'C', 'C', 'C']","[1922753, 1923148, 1923537, 1923977, 1924377, 1924750, 1925152, 1925555, 1925955, 1926346, 1926732, 1927139, 1927535, 1927924, 1928316, 1928711, 1929090, 1929487, 1929879, 1930272, 1930661, 1931064]","[1922910, 1923308, 1923718, 1924110, 1924515, 1924888, 1925284, 1925678, 1926091, 1926492, 1926871, 1927268, 1927683, 1928070, 1928438, 1928846, 1929241, 1929631, 1930031, 1930423, 1930817, 1931204]","[1921977, 1922377, 1922778, 1923176, 1923577, 1923977, 1924376, 1924777, 1925179, 1925582, 1925983, 1926374, 1926759, 1927165, 1927562, 1927952, 1928343, 1928737, 1929117, 1929513, 1929907, 1930299, 1930688, 1931091]",41,R,ITM,1.1,
5,400,trial,0,101,101,101,trial,"['B', 'S', 'S', 'S', 'S', 'S', 'S', 'S', 'S', 'S', 'C', 'C', 'C', 'C', 'C', 'C', 'C', 'C', 'C', 'C', 'C', 'C', 'C', 'C', 'C', 'C']","[1936381, 1937164, 1937965, 1938173, 1938377, 1938574, 1938793, 1938972, 1939193, 1939368, 1939570, 1939986, 1940367, 1940765, 1941156, 1941552, 1941947, 1942351, 1942734, 1943114, 1943527, 1943930, 1944312, 1944723, 1945122, 1945524]","[1937050, 1937511, 1938076, 1938236, 1938484, 1938656, 1938883, 1939041, 1939282, 1939443, 1939667, 1940125, 1940534, 1940925, 1941311, 1941719, 1942130, 1942518, 1942897, 1943300, 1943691, 1944099, 1944495, 1944890, 1945330, 1945682]","[1936394, 1936793, 1937193, 1937593, 1937993, 1938394, 1938793, 1939193, 1939597, 1940012, 1940392, 1940791, 1941182, 1941577, 1941972, 1942378, 1942760, 1943140, 1943553, 1943957, 1944339, 1944750, 1945148, 1945549]",41,R,ITM,1.1,
5,400,trial,0,102,102,102,trial,"['S', 'S', 'S', 'S', 'C', 'C', 'C', 'C', 'C', 'C', 'C', 'C', 'C', 'C', 'C', 'C', 'C', 'C', 'C', 'C']","[1952438, 1952854, 1953245, 1953649, 1954022, 1954421, 1954814, 1955213, 1955608, 1955983, 1956370, 1956750, 1957135, 1957525, 1957923, 1958301, 1958696, 1959068, 1959455, 1959846]","[1952609, 1953027, 1953422, 1953819, 1954181, 1954579, 1954981, 1955375, 1955763, 1956151, 1956526, 1956916, 1957291, 1957679, 1958080, 1958482, 1958858, 1959243, 1959624, 1960027]","[1950866, 1951266, 1951666, 1952066, 1952466, 1952866, 1953266, 1953667, 1954048, 1954447, 1954839, 1955238, 1955634, 1956009, 1956396, 1956775, 1957160, 1957551, 1957949, 1958328, 1958722, 1959094, 1959481, 1959872]",41,R,ITM,1.1,
2,400,trial,0,103,103,103,trial,"['S', 'S', 'S', 'S', 'S', 'S', 'S', 'C', 'C', 'C', 'C', 'C', 'C', 'C', 'C', 'C', 'C', 'C', 'C', 'C', 'C', 'C', 'C']","[1965904, 1966219, 1966597, 1966977, 1967409, 1967826, 1968218, 1968624, 1969003, 1969394, 1969795, 1970157, 1970562, 1970939, 1971310, 1971713, 1972096, 1972475, 1972878, 1973262, 1973639, 1974025, 1974416]","[1966010, 1966355, 1966727, 1967133, 1967562, 1967996, 1968366, 1968782, 1969166, 1969562, 1969966, 1970344, 1970713, 1971091, 1971469, 1971872, 1972276, 1972651, 1973044, 1973441, 1973825, 1974197, 1974607]","[1965492, 1965892, 1966292, 1966692, 1967092, 1967493, 1967892, 1968291, 1968652, 1969031, 1969422, 1969822, 1970185, 1970589, 1970967, 1971338, 1971740, 1972122, 1972502, 1972905, 1973289, 1973666, 1974051, 1974444]",41,R,ITM,1.1,
6,400,trial,0,104,104,104,trial,"['S', 'S', 'S', 'S', 'S', 'S', 'S', 'C', 'C', 'C', 'C', 'C', 'C', 'C', 'C', 'C', 'C', 'C', 'C', 'C', 'C', 'C', 'C']","[1980110, 1980755, 1981166, 1981559, 1981956, 1982333, 1982736, 1983117, 1983509, 1983894, 1984276, 1984677, 1985062, 1985467, 1985863, 1986266, 1986663, 1987052, 1987466, 1987852, 1988259, 1988649, 1989075]","[1980379, 1980903, 1981324, 1981719, 1982100, 1982485, 1982876, 1983273, 1983654, 1984041, 1984432, 1984821, 1985184, 1985582, 1986012, 1986410, 1986777, 1987202, 1987591, 1988007, 1988382, 1988800, 1989196]","[1980002, 1980401, 1980802, 1981201, 1981601, 1982002, 1982401, 1982801, 1983144, 1983536, 1983921, 1984304, 1984704, 1985090, 1985494, 1985890, 1986292, 1986691, 1987080, 1987492, 1987878, 1988287, 1988676, 1989102]",41,R,ITM,1.1,
6,600,trial,0,105,105,105,trial,"['S', 'S', 'S', 'S', 'S', 'S', 'C', 'C', 'C', 'C', 'C', 'C', 'C', 'C', 'C', 'C', 'C', 'C', 'C', 'C', 'C', 'C']","[1996030, 1996668, 1997283, 1997846, 1998430, 1999046, 1999650, 2000266, 2000868, 2001489, 2002085, 2002675, 2003270, 2003860, 2004473, 2005070, 2005670, 2006268, 2006885, 2007481, 2008068, 2008662]","[1996258, 1996951, 1997540, 1998153, 1998689, 1999310, 1999936, 2000537, 2001139, 2001742, 2002342, 2002907, 2003495, 2004088, 2004709, 2005335, 2005932, 2006530, 2007134, 2007730, 2008316, 2008902]","[1994869, 1995468, 1996068, 1996668, 1997268, 1997869, 1998469, 1999069, 1999677, 2000292, 2000896, 2001516, 2002112, 2002703, 2003297, 2003888, 2004501, 2005097, 2005697, 2006296, 2006913, 2007507, 2008094, 2008688]",41,R,ITM,1.1,
3,600,trial,0,106,106,106,trial,"['S', 'S', 'S', 'S', 'S', 'S', 'C', 'C', 'C', 'C', 'C', 'C', 'C', 'C', 'C', 'C', 'C', 'C', 'C', 'C', 'C', 'C']","[2015308, 2015901, 2016528, 2017146, 2017725, 2018336, 2018922, 2019532, 2020133, 2020741, 2021356, 2021925, 2022549, 2023171, 2023756, 2024351, 2024950, 2025547, 2026180, 2026757, 2027330, 2027939]","[2015551, 2016219, 2016772, 2017364, 2017989, 2018569, 2019186, 2019773, 2020388, 2021002, 2021601, 2022172, 2022794, 2023450, 2024044, 2024651, 2025290, 2025820, 2026455, 2027016, 2027616]","[2014137, 2014736, 2015336, 2015936, 2016536, 2017136, 2017736, 2018336, 2018948, 2019558, 2020159, 2020766, 2021382, 2021951, 2022575, 2023196, 2023782, 2024377, 2024976, 2025573, 2026206, 2026782, 2027356, 2027965]",41,R,ITM,1.1,
6,600,trial,0,107,107,107,trial,"['S', 'S', 'S', 'S', 'S', 'S', 'C', 'C', 'C', 'C', 'C', 'C', 'C', 'C', 'C', 'C', 'C', 'C', 'C', 'C', 'C', 'C']","[2034441, 2035055, 2035646, 2036218, 2036855, 2037468, 2038030, 2038656, 2039234, 2039841, 2040432, 2041032, 2041619, 2042211, 2042808, 2043402, 2043994, 2044583, 2045165, 2045769, 2046374, 2046994]","[2034677, 2035262, 2035859, 2036419, 2037069, 2037679, 2038250, 2038872, 2039464, 2040046, 2040623, 2041235, 2041817, 2042421, 2043010, 2043585, 2044188, 2044789, 2045360, 2045953, 2046547, 2047173]","[2033256, 2033855, 2034455, 2035055, 2035655, 2036255, 2036855, 2037455, 2038056, 2038682, 2039262, 2039868, 2040459, 2041059, 2041647, 2042237, 2042834, 2043428, 2044021, 2044611, 2045193, 2045796, 2046401, 2047021]",41,R,ITM,1.1,
7,400,trial,0,108,108,108,trial,"['S', 'S', 'S', 'S', 'C', 'C', 'C', 'C', 'C', 'C', 'C', 'C', 'C', 'C', 'C', 'C', 'C', 'C', 'C', 'C']","[2054070, 2054494, 2054895, 2055296, 2055681, 2056068, 2056475, 2056866, 2057272, 2057669, 2058051, 2058457, 2058853, 2059240, 2059632, 2060032, 2060436, 2060825, 2061220, 2061617]","[2054233, 2054647, 2055051, 2055461, 2055855, 2056252, 2056637, 2057027, 2057421, 2057825, 2058214, 2058617, 2058987, 2059400, 2059797, 2060194, 2060577, 2061004, 2061391, 2061780]","[2052495, 2052894, 2053295, 2053694, 2054094, 2054494, 2054894, 2055294, 2055708, 2056095, 2056502, 2056893, 2057299, 2057697, 2058078, 2058484, 2058880, 2059268, 2059660, 2060058, 2060464, 2060853, 2061248, 2061644]",41,R,ITM,1.1,
4,600,trial,0,109,109,109,trial,"['S', 'S', 'S', 'S', 'S', 'S', 'C', 'C', 'C', 'C', 'C', 'C', 'C', 'C', 'C', 'C', 'C', 'C', 'C', 'C', 'C', 'C']","[2068220, 2068796, 2069387, 2069953, 2070543, 2071173, 2071753, 2072299, 2072875, 2073466, 2074049, 2074630, 2075236, 2075842, 2076433, 2077048, 2077646, 2078258, 2078863, 2079479, 2080099, 2080703]","[2068384, 2068977, 2069577, 2070181, 2070781, 2071399, 2071997, 2072560, 2073115, 2073736, 2074323, 2074886, 2075515, 2076105, 2076744, 2077339, 2077962, 2078546, 2079132, 2079753, 2080370, 2080952]","[2067077, 2067676, 2068275, 2068875, 2069475, 2070075, 2070675, 2071275, 2071779, 2072325, 2072900, 2073492, 2074075, 2074655, 2075261, 2075868, 2076460, 2077074, 2077672, 2078283, 2078888, 2079505, 2080124, 2080730]",41,R,ITM,1.1,
3,400,trial,0,110,110,110,trial,"['S', 'S', 'S', 'S', 'S', 'S', 'S', 'C', 'C', 'C', 'C', 'C', 'C', 'C', 'C', 'C', 'C', 'C', 'C', 'C', 'C', 'C', 'C']","[2086874, 2087171, 2087556, 2087942, 2088360, 2088783, 2089171, 2089571, 2089963, 2090330, 2090718, 2091113, 2091530, 2091943, 2092313, 2092702, 2093089, 2093476, 2093857, 2094244, 2094651, 2095037, 2095430]","[2087013, 2087343, 2087668, 2088091, 2088515, 2088951, 2089339, 2089711, 2090101, 2090465, 2090873, 2091253, 2091667, 2092088, 2092469, 2092861, 2093230, 2093613, 2094018, 2094372, 2094771, 2095184, 2095565]","[2086397, 2086797, 2087197, 2087598, 2087997, 2088397, 2088797, 2089197, 2089596, 2089989, 2090355, 2090743, 2091139, 2091555, 2091969, 2092339, 2092728, 2093115, 2093502, 2093883, 2094270, 2094676, 2095063, 2095456]",41,R,ITM,1.1,
3,400,trial,0,111,111,111,trial,"['S', 'S', 'S', 'S', 'S', 'S', 'S', 'S', 'C', 'C', 'C', 'C', 'C', 'C', 'C', 'C', 'C', 'C', 'C', 'C', 'C', 'C', 'C', 'C']","[2101255, 2101639, 2102047, 2102425, 2102800, 2103200, 2103567, 2103951, 2104403, 2104738, 2105103, 2105476, 2105838, 2106237, 2106628, 2107029, 2107452, 2107858, 2108259, 2108664, 2109052, 2109455, 2109850, 2110239]","[2101332, 2101738, 2102154, 2102555, 2102927, 2103324, 2103717, 2104121, 2104558, 2104864, 2105242, 2105607, 2105972, 2106359, 2106777, 2107209, 2107618, 2108033, 2108437, 2108830, 2109200, 2109633, 2110034, 2110422]","[2100912, 2101311, 2101711, 2102111, 2102511, 2102912, 2103311, 2103711, 2104429, 2104764, 2105128, 2105501, 2105864, 2106263, 2106653, 2107055, 2107478, 2107884, 2108284, 2108690, 2109078, 2109480, 2109876, 2110265]",41,R,ITM,1.1,
3,600,trial,0,112,112,112,trial,"['S', 'S', 'S', 'S', 'S', 'S', 'S', 'C', 'C', 'C', 'C', 'C', 'C', 'C', 'C', 'C', 'C', 'C', 'C', 'C', 'C', 'C', 'C']","[2116427, 2117124, 2117709, 2118324, 2118926, 2119533, 2120126, 2120718, 2121312, 2121932, 2122542, 2123144, 2123724, 2124326, 2124932, 2125536, 2126127, 2126732, 2127332, 2127922, 2128509, 2129123, 2129732]","[2116656, 2117349, 2117974, 2118553, 2119173, 2119800, 2120369, 2120970, 2121584, 2122210, 2122822, 2123422, 2124028, 2124619, 2125223, 2125821, 2126435, 2127041, 2127603, 2128229, 2128836, 2129428]","[2115985, 2116585, 2117185, 2117785, 2118385, 2118985, 2119585, 2120185, 2120743, 2121337, 2121958, 2122567, 2123169, 2123750, 2124352, 2124957, 2125561, 2126152, 2126758, 2127357, 2127947, 2128535, 2129148, 2129758]",41,R,ITM,1.1,
4,400,trial,0,113,113,113,trial,"['S', 'S', 'S', 'S', 'S', 'S', 'C', 'C', 'C', 'C', 'C', 'C', 'C', 'C', 'C', 'C', 'C', 'C', 'C', 'C', 'C', 'C']","[2136085, 2136492, 2136892, 2137314, 2137713, 2138124, 2138501, 2138908, 2139302, 2139713, 2140114, 2140521, 2140951, 2141338, 2141731, 2142104, 2142518, 2142911, 2143314, 2143704, 2144115, 2144491]","[2136230, 2136638, 2137078, 2137501, 2137909, 2138311, 2138702, 2139083, 2139451, 2139868, 2140270, 2140679, 2141115, 2141497, 2141900, 2142271, 2142653, 2143070, 2143427, 2143861, 2144250, 2144645]","[2135348, 2135747, 2136147, 2136547, 2136947, 2137348, 2137747, 2138147, 2138527, 2138934, 2139328, 2139739, 2140140, 2140547, 2140977, 2141364, 2141758, 2142131, 2142543, 2142937, 2143340, 2143729, 2144141, 2144517]",41,R,ITM,1.1,
7,600,trial,0,114,114,114,trial,"['B', 'S', 'S', 'S', 'S', 'S', 'S', 'S', 'C', 'C', 'C', 'C', 'C', 'C', 'C', 'C', 'C', 'C', 'C', 'C', 'C', 'C', 'C', 'C']","[2150254, 2150647, 2151406, 2152052, 2152667, 2153281, 2153842, 2154451, 2155053, 2155654, 2156279, 2156861, 2157474, 2158081, 2158700, 2159293, 2159917, 2160517, 2161118, 2161734, 2162349, 2162958, 2163605, 2164207]","[2150333, 2150803, 2151636, 2152293, 2152918, 2153502, 2154136, 2154719, 2155323, 2155940, 2156535, 2157140, 2157758, 2158349, 2158991, 2159556, 2160188, 2160778, 2161387, 2162001, 2162655, 2163233, 2163872, 2164464]","[2150267, 2150866, 2151467, 2152067, 2152667, 2153267, 2153867, 2154467, 2155079, 2155681, 2156306, 2156889, 2157502, 2158108, 2158727, 2159321, 2159943, 2160544, 2161144, 2161761, 2162376, 2162985, 2163633, 2164234]",41,R,ITM,1.1,
2,600,trial,0,115,115,115,trial,"['S', 'S', 'S', 'S', 'S', 'S', 'C', 'C', 'C', 'C', 'C', 'C', 'C', 'C', 'C', 'C', 'C', 'C', 'C', 'C', 'C', 'C']","[2171003, 2171637, 2172238, 2172835, 2173441, 2174032, 2174637, 2175226, 2175807, 2176411, 2177033, 2177599, 2178164, 2178756, 2179349, 2179952, 2180544, 2181156, 2181726, 2182299, 2182912, 2183487]","[2171262, 2171873, 2172447, 2173073, 2173674, 2174267, 2174883, 2175476, 2176066, 2176679, 2177248, 2177769, 2178420, 2178947, 2179590, 2180208, 2180773, 2181389, 2181975, 2182537, 2183148, 2183696]","[2169863, 2170463, 2171063, 2171663, 2172263, 2172863, 2173463, 2174063, 2174664, 2175253, 2175834, 2176439, 2177059, 2177626, 2178192, 2178784, 2179376, 2179980, 2180571, 2181184, 2181752, 2182327, 2182938, 2183514]",41,R,ITM,1.1,
2,400,trial,0,116,116,116,trial,"['S', 'S', 'S', 'S', 'S', 'S', 'S', 'C', 'C', 'C', 'C', 'C', 'C', 'C', 'C', 'C', 'C', 'C', 'C', 'C', 'C', 'C', 'C']","[2189732, 2190010, 2190412, 2190803, 2191215, 2191614, 2191993, 2192425, 2192820, 2193218, 2193610, 2194025, 2194423, 2194823, 2195209, 2195624, 2196005, 2196389, 2196776, 2197158, 2197567, 2197963, 2198346]","[2189870, 2190133, 2190526, 2190937, 2191358, 2191770, 2192164, 2192574, 2192988, 2193373, 2193771, 2194178, 2194586, 2194990, 2195368, 2195782, 2196161, 2196569, 2196946, 2197334, 2197731, 2198115, 2198528]","[2189264, 2189664, 2190064, 2190464, 2190864, 2191263, 2191665, 2192064, 2192452, 2192847, 2193246, 2193638, 2194052, 2194450, 2194849, 2195236, 2195651, 2196033, 2196417, 2196803, 2197186, 2197595, 2197990, 2198374]",41,R,ITM,1.1,
7,400,trial,0,117,117,117,trial,"['S', 'S', 'S', 'S', 'S', 'S', 'C', 'C', 'C', 'C', 'C', 'C', 'C', 'C', 'C', 'C', 'C', 'C', 'C', 'C', 'C', 'C']","[2204552, 2204944, 2205341, 2205790, 2206191, 2206574, 2206953, 2207355, 2207757, 2208155, 2208553, 2208968, 2209369, 2209768, 2210147, 2210554, 2210958, 2211347, 2211740, 2212161, 2212562, 2212953]","[2204621, 2204998, 2205408, 2205842, 2206269, 2206645, 2207016, 2207414, 2207836, 2208231, 2208628, 2209036, 2209437, 2209838, 2210227, 2210617, 2211006, 2211396, 2211818, 2212220, 2212642, 2213004]","[2203817, 2204217, 2204617, 2205018, 2205417, 2205817, 2206217, 2206617, 2206980, 2207383, 2207784, 2208182, 2208579, 2208995, 2209395, 2209796, 2210174, 2210581, 2210984, 2211374, 2211768, 2212188, 2212589, 2212980]",41,R,ITM,1.1,
5,600,trial,0,118,118,118,trial,"['S', 'S', 'S', 'S', 'S', 'S', 'C', 'C', 'C', 'C', 'C', 'C', 'C', 'C', 'C', 'C', 'C', 'C', 'C', 'C', 'C', 'C']","[2219843, 2220425, 2221041, 2221640, 2222239, 2222859, 2223457, 2224039, 2224652, 2225244, 2225865, 2226469, 2227045, 2227651, 2228255, 2228826, 2229434, 2230048, 2230641, 2231224, 2231852, 2232481]","[2220059, 2220715, 2221341, 2221939, 2222537, 2223152, 2223739, 2224338, 2224942, 2225559, 2226154, 2226751, 2227355, 2227954, 2228552, 2229136, 2229706, 2230321, 2230914, 2231534, 2232161, 2232748]","[2218688, 2219287, 2219887, 2220487, 2221087, 2221687, 2222287, 2222887, 2223482, 2224066, 2224677, 2225269, 2225891, 2226495, 2227070, 2227677, 2228281, 2228851, 2229459, 2230074, 2230667, 2231250, 2231877, 2232507]",41,R,ITM,1.1,
5,600,trial,0,119,119,119,trial,"['S', 'S', 'S', 'S', 'S', 'S', 'C', 'C', 'C', 'C', 'C', 'C', 'C', 'C', 'C', 'C', 'C', 'C', 'C', 'C', 'C', 'C']","[2238977, 2239592, 2240189, 2240801, 2241370, 2241958, 2242555, 2243145, 2243736, 2244332, 2244931, 2245533, 2246141, 2246737, 2247341, 2247942, 2248535, 2249129, 2249724, 2250287, 2250896, 2251522]","[2239269, 2239866, 2240498, 2241052, 2241643, 2242238, 2242821, 2243408, 2244011, 2244617, 2245210, 2245836, 2246418, 2247011, 2247680, 2248217, 2248827, 2249421, 2249995, 2250555, 2251176, 2251779]","[2237821, 2238420, 2239021, 2239621, 2240221, 2240821, 2241421, 2242021, 2242582, 2243171, 2243762, 2244358, 2244957, 2245560, 2246167, 2246763, 2247366, 2247967, 2248560, 2249156, 2249750, 2250312, 2250921, 2251547]",41,R,ITM,1.1,
6,400,trial,0,120,120,120,trial,"['S', 'S', 'S', 'S', 'C', 'C', 'C', 'C', 'C', 'C', 'C', 'C', 'C', 'C', 'C', 'C', 'C', 'C', 'C', 'C']","[2258981, 2259390, 2259802, 2260206, 2260404, 2260801, 2261195, 2261585, 2261982, 2262373, 2262770, 2263173, 2263582, 2263959, 2264356, 2264733, 2265120, 2265530, 2265925, 2266317]","[2259117, 2259530, 2259933, 2260253, 2260487, 2260872, 2261276, 2261665, 2262074, 2262467, 2262864, 2263248, 2263653, 2264026, 2264433, 2264812, 2265208, 2265605, 2266005, 2266397]","[2257180, 2257580, 2257979, 2258379, 2258780, 2259179, 2259579, 2259979, 2260430, 2260829, 2261222, 2261612, 2262009, 2262401, 2262797, 2263200, 2263609, 2263986, 2264383, 2264761, 2265147, 2265558, 2265952, 2266344]",41,R,ITM,1.1,
4,600,trial,0,121,121,121,trial,"['S', 'S', 'S', 'S', 'S', 'S', 'C', 'C', 'C', 'C', 'C', 'C', 'C', 'C', 'C', 'C', 'C', 'C', 'C', 'C', 'C', 'C']","[2272908, 2273520, 2274115, 2274733, 2275332, 2275904, 2276492, 2277048, 2277669, 2278269, 2278857, 2279474, 2280108, 2280749, 2281345, 2281958, 2282540, 2283147, 2283777, 2284398, 2285050, 2285656]","[2272961, 2273585, 2274178, 2274810, 2275396, 2275983, 2276593, 2277144, 2277753, 2278354, 2278943, 2279549, 2280193, 2280802, 2281413, 2282016, 2282585, 2283200, 2283817, 2284463, 2285089, 2285709]","[2271750, 2272349, 2272949, 2273549, 2274149, 2274749, 2275349, 2275949, 2276517, 2277073, 2277695, 2278295, 2278883, 2279499, 2280133, 2280774, 2281370, 2281984, 2282566, 2283172, 2283802, 2284424, 2285076, 2285681]",41,R,ITM,1.1,
4,400,trial,0,122,122,122,trial,"['S', 'S', 'S', 'S', 'S', 'S', 'C', 'C', 'C', 'C', 'C', 'C', 'C', 'C', 'C', 'C', 'C', 'C', 'C', 'C', 'C', 'C']","[2291957, 2292384, 2292797, 2293217, 2293633, 2294018, 2294409, 2294802, 2295199, 2295610, 2295989, 2296390, 2296791, 2297177, 2297568, 2297957, 2298363, 2298764, 2299166, 2299566, 2299958, 2300359]","[2291998, 2292432, 2292866, 2293287, 2293695, 2294087, 2294477, 2294868, 2295261, 2295649, 2296052, 2296448, 2296845, 2297222, 2297616, 2298028, 2298423, 2298825, 2299232, 2299631, 2300030, 2300402]","[2291232, 2291633, 2292032, 2292432, 2292832, 2293232, 2293633, 2294032, 2294435, 2294828, 2295225, 2295635, 2296014, 2296416, 2296816, 2297202, 2297593, 2297982, 2298389, 2298789, 2299192, 2299591, 2299983, 2300385]",41,R,ITM,1.1,
7,600,trial,0,123,123,123,trial,"['S', 'S', 'S', 'S', 'S', 'S', 'C', 'C', 'C', 'C', 'C', 'C', 'C', 'C', 'C', 'C', 'C', 'C', 'C', 'C', 'C', 'C']","[2307204, 2307802, 2308374, 2308981, 2309563, 2310174, 2310773, 2311340, 2311918, 2312521, 2313099, 2313684, 2314295, 2314915, 2315513, 2316114, 2316723, 2317313, 2317891, 2318488, 2319082, 2319660]","[2307274, 2307875, 2308456, 2309064, 2309652, 2310256, 2310859, 2311426, 2311977, 2312617, 2313232, 2313785, 2314377, 2314979, 2315571, 2316179, 2316776, 2317382, 2317933, 2318545, 2319140, 2319699]","[2306021, 2306620, 2307220, 2307820, 2308420, 2309020, 2309620, 2310220, 2310800, 2311367, 2311945, 2312549, 2313126, 2313712, 2314321, 2314942, 2315541, 2316142, 2316750, 2317339, 2317918, 2318516, 2319110, 2319687]",41,R,ITM,1.1,
5,400,trial,0,124,124,124,trial,"['S', 'S', 'S', 'S', 'C', 'C', 'C', 'C', 'C', 'C', 'C', 'C', 'C', 'C', 'C', 'C', 'C', 'C', 'C', 'C']","[2326832, 2327232, 2327619, 2328006, 2328410, 2328817, 2329209, 2329601, 2329997, 2330395, 2330820, 2331188, 2331576, 2331950, 2332355, 2332749, 2333137, 2333536, 2333939, 2334323]","[2326881, 2327301, 2327690, 2328082, 2328489, 2328896, 2329276, 2329679, 2330077, 2330479, 2330890, 2331256, 2331653, 2332028, 2332434, 2332835, 2333217, 2333598, 2334017, 2334400]","[2325245, 2325644, 2326044, 2326445, 2326844, 2327244, 2327645, 2328045, 2328435, 2328844, 2329236, 2329626, 2330023, 2330421, 2330846, 2331213, 2331601, 2331975, 2332382, 2332775, 2333163, 2333561, 2333965, 2334349]",41,R,ITM,1.1,
2,600,trial,0,125,125,125,trial,"['S', 'S', 'S', 'S', 'S', 'S', 'C', 'C', 'C', 'C', 'C', 'C', 'C', 'C', 'C', 'C', 'C', 'C', 'C', 'C', 'C', 'C']","[2341226, 2341836, 2342450, 2343060, 2343705, 2344289, 2344847, 2345428, 2346045, 2346662, 2347244, 2347879, 2348505, 2349120, 2349728, 2350328, 2350947, 2351566, 2352175, 2352788, 2353399, 2354004]","[2341388, 2342036, 2342674, 2343256, 2343891, 2344498, 2345097, 2345647, 2346226, 2346888, 2347482, 2348069, 2348720, 2349339, 2349939, 2350534, 2351196, 2351807, 2352423, 2353002, 2353641, 2354262]","[2340104, 2340703, 2341303, 2341903, 2342503, 2343103, 2343703, 2344303, 2344875, 2345456, 2346073, 2346689, 2347271, 2347907, 2348532, 2349148, 2349755, 2350356, 2350973, 2351594, 2352201, 2352815, 2353427, 2354032]",41,R,ITM,1.1,
