octave,ioi,event,.thisRepN,.thisTrialN,.thisN,.thisIndex,event,tap_types,tap_times,release_times,tone_times,subject,handedness,experiment,version,
,,SPR,0,-1,-1,0,SPR,"['P', 'P', 'P', 'P', 'P', 'P', 'P', 'P', 'P', 'P', 'P', 'P', 'P', 'P', 'P', 'P', 'P', 'P', 'P', 'P', 'P', 'P', 'P', 'P', 'P', 'P', 'P', 'P', 'P', 'P']","[41212, 43768, 44203, 44705, 45245, 45791, 46256, 46783, 47319, 47865, 48432, 48965, 49526, 50054, 50603, 51104, 51637, 52199, 52719, 53252, 53784, 54329, 54851, 55375, 55851, 56403, 56945, 57450, 58005, 58474]","[43365, 43845, 44302, 44792, 45351, 45853, 46346, 46865, 47395, 47940, 48500, 49033, 49599, 50141, 50710, 51204, 51723, 52308, 52835, 53363, 53899, 54450, 54947, 55500, 55969, 56526, 57051, 57563, 58115, 58578]",,20,R,ITM,1.1,
4,500,practice,0,0,0,0,practice,"['S', 'S', 'S', 'S', 'S', 'S', 'S', 'C', 'C', 'C', 'C', 'C', 'C', 'C', 'C', 'C', 'C', 'C', 'C', 'C', 'C', 'C', 'C']","[136263, 136738, 137352, 137888, 138353, 138859, 139372, 139850, 140367, 140921, 141451, 141981, 142528, 143064, 143565, 144103, 144606, 145130, 145630, 146152, 146664, 147161, 147657]","[136351, 136935, 137510, 138017, 138494, 138976, 139474, 139967, 140535, 141070, 141577, 142105, 142650, 143195, 143755, 144263, 144795, 145305, 145828, 146348, 146845, 147331, 147843]","[135820, 136321, 136820, 137320, 137821, 138321, 138821, 139321, 139876, 140393, 140947, 141476, 142007, 142554, 143089, 143591, 144129, 144631, 145156, 145655, 146178, 146690, 147186, 147683]",20,R,ITM,1.1,
7,500,practice,0,1,1,1,practice,"['S', 'S', 'S', 'S', 'S', 'S', 'S', 'C', 'C', 'C', 'C', 'C', 'C', 'C', 'C', 'C', 'C', 'C', 'C', 'C', 'C', 'C', 'C']","[153452, 153953, 154468, 155030, 155546, 156044, 156561, 157052, 157549, 158009, 158514, 159021, 159526, 160031, 160523, 161031, 161533, 162066, 162553, 163043, 163527, 163982, 164481]","[153578, 154079, 154606, 155202, 155731, 156248, 156761, 157254, 157763, 158225, 158756, 159247, 159764, 160241, 160745, 161215, 161751, 162276, 162762, 163234, 163706, 164179, 164704]","[153079, 153578, 154078, 154578, 155078, 155578, 156079, 156578, 157079, 157577, 158036, 158540, 159048, 159553, 160059, 160549, 161058, 161560, 162093, 162581, 163070, 163554, 164009, 164507]",20,R,ITM,1.1,
6,500,practice,0,2,2,2,practice,"['S', 'S', 'S', 'S', 'S', 'S', 'S', 'S', 'C', 'C', 'C', 'C', 'C', 'C', 'C', 'C', 'C', 'C', 'C', 'C', 'C', 'C', 'C', 'C']","[170356, 170662, 171142, 171618, 172104, 172590, 173117, 173607, 174118, 174596, 175048, 175531, 176051, 176543, 177057, 177540, 178013, 178480, 178960, 179428, 179913, 180389, 180876, 181367]","[170447, 170800, 171332, 171846, 172401, 172924, 173411, 173883, 174367, 174839, 175294, 175789, 176287, 176771, 177258, 177738, 178169, 178651, 179150, 179613, 180096, 180580, 181056, 181547]","[170142, 170641, 171142, 171641, 172141, 172641, 173142, 173641, 174145, 174622, 175076, 175557, 176077, 176570, 177085, 177566, 178040, 178506, 178987, 179454, 179940, 180416, 180902, 181394]",20,R,ITM,1.1,
5,500,practice,0,3,3,3,practice,"['S', 'S', 'S', 'S', 'S', 'S', 'S', 'S', 'C', 'C', 'C', 'C', 'C', 'C', 'C', 'C', 'C', 'C', 'C', 'C', 'C', 'C', 'C', 'C']","[187377, 187755, 188176, 188665, 189125, 189614, 190094, 190586, 191071, 191502, 192035, 192509, 192980, 193447, 193926, 194404, 194860, 195330, 195801, 196282, 196738, 197191, 197665, 198116]","[187524, 187929, 188395, 188901, 189389, 189888, 190358, 190830, 191291, 191741, 192236, 192726, 193189, 193617, 194141, 194623, 195098, 195538, 196017, 196475, 196935, 197381, 197792, 198299]","[187162, 187661, 188162, 188661, 189161, 189661, 190161, 190661, 191096, 191527, 192061, 192535, 193006, 193473, 193951, 194429, 194885, 195356, 195826, 196307, 196763, 197217, 197691, 198141]",20,R,ITM,1.1,
3,500,practice,0,4,4,4,practice,"['S', 'S', 'S', 'S', 'S', 'S', 'S', 'S', 'C', 'C', 'C', 'C', 'C', 'C', 'C', 'C', 'C', 'C', 'C', 'C', 'C', 'C', 'C', 'C']","[203786, 204161, 204598, 205118, 205618, 206094, 206580, 207108, 207598, 208105, 208603, 209120, 209603, 210071, 210527, 211019, 211493, 211985, 212464, 212955, 213446, 213934, 214425, 214905]","[203928, 204340, 204826, 205315, 205798, 206265, 206753, 207300, 207812, 208322, 208832, 209318, 209797, 210252, 210705, 211222, 211676, 212165, 212644, 213134, 213621, 214119, 214626, 215113]","[203618, 204119, 204618, 205118, 205618, 206118, 206618, 207118, 207624, 208131, 208628, 209145, 209630, 210097, 210552, 211045, 211520, 212011, 212490, 212980, 213472, 213959, 214451, 214931]",20,R,ITM,1.1,
2,500,practice,0,5,5,5,practice,"['S', 'S', 'S', 'S', 'S', 'S', 'S', 'S', 'C', 'C', 'C', 'C', 'C', 'C', 'C', 'C', 'C', 'C', 'C', 'C', 'C', 'C', 'C', 'C']","[220775, 221104, 221550, 222006, 222532, 223012, 223522, 224025, 224533, 225037, 225505, 226029, 226513, 227006, 227471, 227984, 228465, 228952, 229452, 229929, 230434, 230934, 231422, 231932]","[220890, 221312, 221782, 222286, 222764, 223269, 223764, 224311, 224815, 225271, 225756, 226265, 226735, 227231, 227730, 228215, 228704, 229175, 229666, 230178, 230670, 231175, 231689, 232169]","[220565, 221065, 221565, 222064, 222564, 223066, 223565, 224065, 224561, 225063, 225531, 226057, 226541, 227033, 227499, 228012, 228493, 228979, 229479, 229956, 230462, 230961, 231450, 231959]",20,R,ITM,1.1,
3,400,trial,0,6,6,6,trial,"['S', 'S', 'S', 'S', 'S', 'S', 'S', 'S', 'C', 'C', 'C', 'C', 'C', 'C', 'C', 'C', 'C', 'C', 'C', 'C', 'C', 'C', 'C', 'C']","[380118, 380439, 380772, 381095, 381459, 381822, 382195, 382574, 383015, 383429, 383840, 384224, 384631, 385044, 385458, 385841, 386263, 386691, 387074, 387462, 387859, 388242, 388624, 389005]","[380250, 380558, 380917, 381277, 381660, 382026, 382396, 382818, 383239, 383657, 384035, 384421, 384809, 385187, 385572, 385969, 386384, 386804, 387200, 387596, 387973, 388379, 388789, 389158]","[379860, 380259, 380659, 381060, 381459, 381859, 382259, 382659, 383041, 383455, 383865, 384249, 384657, 385070, 385483, 385866, 386288, 386716, 387099, 387487, 387885, 388268, 388649, 389030]",20,R,ITM,1.1,
6,600,trial,0,7,7,7,trial,"['S', 'S', 'S', 'S', 'S', 'S', 'S', 'S', 'C', 'C', 'C', 'C', 'C', 'C', 'C', 'C', 'C', 'C', 'C', 'C', 'C', 'C', 'C', 'C']","[394797, 395273, 395826, 396359, 396964, 397561, 398161, 398727, 399294, 399884, 400451, 401084, 401686, 402254, 402860, 403443, 404044, 404638, 405204, 405804, 406383, 406990, 407557, 408132]","[394914, 395394, 395961, 396492, 397114, 397691, 398290, 398876, 399503, 400109, 400770, 401436, 402079, 402661, 403245, 403862, 404381, 404959, 405577, 406171, 406743, 407354, 407922]","[394466, 395065, 395665, 396265, 396865, 397465, 398065, 398665, 399322, 399911, 400478, 401112, 401713, 402282, 402886, 403470, 404072, 404665, 405232, 405830, 406410, 407017, 407583, 408159]",20,R,ITM,1.1,
7,400,trial,0,8,8,8,trial,"['S', 'S', 'S', 'S', 'S', 'S', 'S', 'S', 'C', 'C', 'C', 'C', 'C', 'C', 'C', 'C', 'C', 'C', 'C', 'C', 'C', 'C', 'C', 'C']","[413944, 414260, 414544, 414913, 415299, 415699, 416103, 416489, 416905, 417307, 417703, 418103, 418502, 418913, 419314, 419724, 420119, 420535, 420957, 421348, 421754, 422167, 422576, 422977]","[414074, 414396, 414746, 415139, 415551, 415959, 416352, 416747, 417150, 417556, 417955, 418331, 418752, 419155, 419574, 419956, 420365, 420795, 421171, 421557, 421954, 422367, 422772, 423174]","[413701, 414099, 414499, 414899, 415299, 415699, 416099, 416499, 416932, 417335, 417730, 418130, 418529, 418940, 419341, 419750, 420147, 420562, 420984, 421376, 421782, 422195, 422603, 423004]",20,R,ITM,1.1,
6,600,trial,0,9,9,9,trial,"['S', 'S', 'S', 'S', 'S', 'S', 'S', 'C', 'C', 'C', 'C', 'C', 'C', 'C', 'C', 'C', 'C', 'C', 'C', 'C', 'C', 'C', 'C']","[429112, 429837, 430480, 431109, 431699, 432294, 432939, 433514, 434106, 434726, 435358, 435918, 436515, 437109, 437680, 438268, 438825, 439408, 439982, 440560, 441115, 441695, 442256]","[429316, 429954, 430711, 431350, 431986, 432668, 433242, 433835, 434487, 435140, 435690, 436294, 436876, 437417, 438027, 438627, 439190, 439762, 440318, 440903, 441474, 442038]","[428732, 429331, 429931, 430531, 431131, 431731, 432331, 432931, 433541, 434132, 434754, 435386, 435945, 436542, 437137, 437706, 438295, 438852, 439436, 440008, 440588, 441143, 441722, 442284]",20,R,ITM,1.1,
6,400,trial,0,10,10,10,trial,"['S', 'S', 'S', 'S', 'S', 'S', 'S', 'S', 'C', 'C', 'C', 'C', 'C', 'C', 'C', 'C', 'C', 'C', 'C', 'C', 'C', 'C', 'C', 'C']","[447965, 448269, 448628, 448959, 449333, 449729, 450139, 450542, 450935, 451342, 451736, 452134, 452550, 452934, 453320, 453700, 454070, 454464, 454851, 455234, 455593, 455965, 456394, 456786]","[448062, 448449, 448802, 449157, 449557, 449976, 450376, 450784, 451149, 451559, 451951, 452362, 452773, 453143, 453495, 453891, 454275, 454683, 455045, 455394, 455775, 456199, 456592, 456943]","[447770, 448169, 448569, 448969, 449370, 449769, 450169, 450569, 450962, 451368, 451763, 452162, 452578, 452961, 453347, 453727, 454096, 454491, 454879, 455261, 455620, 455992, 456422, 456813]",20,R,ITM,1.1,
2,600,trial,0,11,11,11,trial,"['S', 'S', 'S', 'S', 'S', 'S', 'S', 'S', 'C', 'C', 'C', 'C', 'C', 'C', 'C', 'C', 'C', 'C', 'C', 'C', 'C', 'C', 'C', 'C']","[462513, 463067, 463540, 464128, 464714, 465294, 465879, 466478, 467064, 467641, 468210, 468785, 469367, 469936, 470468, 471054, 471643, 472210, 472774, 473330, 473853, 474451, 475029, 475602]","[462644, 463184, 463692, 464384, 465004, 465627, 466217, 466808, 467431, 468004, 468551, 469147, 469696, 470255, 470820, 471388, 471930, 472520, 473127, 473663, 474201, 474776, 475341]","[462309, 462909, 463508, 464109, 464709, 465309, 465909, 466509, 467091, 467667, 468237, 468812, 469394, 469963, 470495, 471081, 471669, 472237, 472802, 473358, 473881, 474479, 475057, 475630]",20,R,ITM,1.1,
4,400,trial,0,12,12,12,trial,"['S', 'S', 'S', 'S', 'S', 'S', 'S', 'S', 'C', 'C', 'C', 'C', 'C', 'C', 'C', 'C', 'C', 'C', 'C', 'C', 'C', 'C', 'C', 'C']","[481599, 481948, 482244, 482621, 483014, 483400, 483798, 484180, 484584, 485015, 485413, 485805, 486200, 486595, 487004, 487405, 487800, 488204, 488583, 488918, 489312, 489780, 490222, 490667]","[481730, 482105, 482448, 482852, 483237, 483639, 484018, 484408, 484814, 485216, 485623, 486016, 486407, 486829, 487211, 487606, 488006, 488416, 488769, 489152, 489525, 489968, 490391, 490847]","[481377, 481777, 482178, 482577, 482977, 483378, 483778, 484178, 484611, 485041, 485440, 485830, 486225, 486621, 487029, 487431, 487826, 488229, 488608, 488944, 489337, 489805, 490248, 490692]",20,R,ITM,1.1,
6,400,trial,0,13,13,13,trial,"['S', 'S', 'S', 'S', 'S', 'S', 'S', 'S', 'C', 'C', 'C', 'C', 'C', 'C', 'C', 'C', 'C', 'C', 'C', 'C', 'C', 'C', 'C', 'C']","[496283, 496574, 496943, 497339, 497730, 498102, 498492, 498880, 499299, 499696, 500088, 500454, 500860, 501248, 501661, 502031, 502452, 502838, 503221, 503606, 504020, 504409, 504782, 505189]","[496405, 496745, 497143, 497550, 497924, 498300, 498699, 499079, 499496, 499875, 500270, 500656, 501012, 501427, 501810, 502213, 502608, 503022, 503398, 503761, 504180, 504559, 504940, 505341]","[496093, 496491, 496891, 497291, 497691, 498092, 498491, 498891, 499326, 499723, 500116, 500481, 500887, 501274, 501689, 502059, 502478, 502865, 503248, 503632, 504048, 504436, 504810, 505216]",20,R,ITM,1.1,
7,600,trial,0,14,14,14,trial,"['S', 'S', 'S', 'S', 'S', 'S', 'S', 'S', 'C', 'C', 'C', 'C', 'C', 'C', 'C', 'C', 'C', 'C', 'C', 'C', 'C', 'C', 'C', 'C']","[510803, 511121, 511878, 512449, 513038, 513626, 514201, 514785, 515373, 515973, 516574, 517183, 517756, 518340, 518920, 519524, 520115, 520721, 521332, 521890, 522507, 523104, 523692, 524296]","[510911, 511406, 512078, 512785, 513427, 514006, 514584, 515181, 515761, 516339, 516930, 517573, 518157, 518713, 519251, 519890, 520502, 521088, 521682, 522300, 522843, 523458, 524025]","[510601, 511200, 511800, 512400, 513000, 513600, 514200, 514800, 515400, 516000, 516601, 517211, 517784, 518368, 518947, 519552, 520142, 520748, 521359, 521918, 522534, 523130, 523719, 524322]",20,R,ITM,1.1,
4,400,trial,0,15,15,15,trial,"['S', 'S', 'S', 'S', 'S', 'S', 'S', 'C', 'C', 'C', 'C', 'C', 'C', 'C', 'C', 'C', 'C', 'C', 'C', 'C', 'C', 'C', 'C']","[530498, 530887, 531251, 531643, 532060, 532471, 532864, 533255, 533656, 534041, 534438, 534858, 535236, 535627, 536020, 536434, 536857, 537232, 537615, 538016, 538438, 538853, 539255]","[530677, 531073, 531477, 531891, 532315, 532695, 533098, 533499, 533876, 534270, 534705, 535072, 535474, 535851, 536267, 536687, 537075, 537436, 537807, 538203, 538614, 539022, 539427]","[530052, 530451, 530851, 531251, 531651, 532051, 532451, 532851, 533280, 533683, 534068, 534464, 534884, 535262, 535653, 536046, 536460, 536883, 537257, 537640, 538043, 538464, 538878, 539281]",20,R,ITM,1.1,
3,600,trial,0,16,16,16,trial,"['S', 'S', 'S', 'S', 'S', 'S', 'S', 'S', 'C', 'C', 'C', 'C', 'C', 'C', 'C', 'C', 'C', 'C', 'C', 'C', 'C', 'C', 'C', 'C']","[544992, 545358, 546034, 546583, 547169, 547737, 548322, 548933, 549511, 550098, 550659, 551238, 551826, 552430, 553036, 553643, 554229, 554864, 555426, 556051, 556643, 557216, 557849, 558475]","[545114, 545715, 546342, 546985, 547557, 548107, 548738, 549357, 549913, 550470, 551035, 551600, 552216, 552813, 553390, 554017, 554645, 555183, 555813, 556406, 556993, 557574, 558198]","[544777, 545377, 545977, 546577, 547177, 547777, 548377, 548977, 549536, 550124, 550684, 551264, 551852, 552456, 553062, 553668, 554255, 554891, 555452, 556077, 556668, 557242, 557875, 558500]",20,R,ITM,1.1,
3,400,trial,0,17,17,17,trial,"['S', 'S', 'S', 'S', 'S', 'S', 'S', 'S', 'C', 'C', 'C', 'C', 'C', 'C', 'C', 'C', 'C', 'C', 'C', 'C', 'C', 'C', 'C', 'C']","[564392, 564755, 565076, 565435, 565815, 566193, 566600, 567015, 567384, 567762, 568151, 568566, 568954, 569365, 569736, 570127, 570519, 570894, 571276, 571668, 572083, 572454, 572843, 573217]","[564530, 564917, 565266, 565649, 566051, 566428, 566808, 567207, 567584, 567975, 568325, 568739, 569134, 569508, 569878, 570317, 570682, 571051, 571423, 571810, 572223, 572602, 572986, 573374]","[564214, 564615, 565015, 565415, 565815, 566215, 566616, 567015, 567409, 567788, 568176, 568592, 568980, 569391, 569761, 570152, 570545, 570919, 571301, 571694, 572108, 572480, 572868, 573243]",20,R,ITM,1.1,
2,400,trial,0,18,18,18,trial,"['S', 'S', 'S', 'S', 'S', 'S', 'S', 'C', 'C', 'C', 'C', 'C', 'C', 'C', 'C', 'C', 'C', 'C', 'C', 'C', 'C', 'C', 'C']","[590971, 591354, 591749, 592166, 592566, 592968, 593373, 593776, 594179, 594576, 594976, 595375, 595804, 596221, 596601, 597009, 597417, 597807, 598198, 598611, 599029, 599448, 599854]","[591138, 591550, 591990, 592399, 592794, 593208, 593603, 593996, 594396, 594806, 595210, 595589, 596016, 596412, 596809, 597215, 597632, 598026, 598395, 598781, 599204, 599624, 600022]","[590566, 590965, 591367, 591765, 592166, 592566, 592965, 593367, 593803, 594205, 594604, 595003, 595401, 595831, 596248, 596629, 597037, 597445, 597833, 598225, 598639, 599057, 599475, 599880]",20,R,ITM,1.1,
7,400,trial,0,19,19,19,trial,"['S', 'S', 'S', 'S', 'S', 'S', 'S', 'C', 'C', 'C', 'C', 'C', 'C', 'C', 'C', 'C', 'C', 'C', 'C', 'C', 'C', 'C', 'C']","[605518, 605985, 606402, 606792, 607225, 607648, 608050, 608474, 608876, 609256, 609680, 610077, 610492, 610893, 611318, 611717, 612113, 612529, 612935, 613331, 613733, 614139, 614555]","[605692, 606171, 606613, 607064, 607498, 607897, 608300, 608710, 609090, 609481, 609900, 610280, 610686, 611097, 611492, 611890, 612276, 612684, 613108, 613499, 613896, 614320, 614734]","[605288, 605687, 606088, 606488, 606888, 607288, 607688, 608089, 608500, 608904, 609283, 609707, 610105, 610519, 610920, 611346, 611743, 612140, 612555, 612962, 613359, 613761, 614166, 614582]",20,R,ITM,1.1,
5,600,trial,0,20,20,20,trial,"['S', 'S', 'S', 'S', 'S', 'S', 'S', 'S', 'C', 'C', 'C', 'C', 'C', 'C', 'C', 'C', 'C', 'C', 'C', 'C', 'C', 'C', 'C', 'C']","[620387, 620886, 621295, 621821, 622317, 622871, 623465, 624096, 624672, 625280, 625868, 626486, 627060, 627633, 628234, 628818, 629385, 629919, 630508, 631049, 631536, 632190, 632730, 633261]","[620511, 621034, 621493, 622020, 622628, 623319, 623939, 624488, 625063, 625673, 626250, 626803, 627368, 627989, 628563, 629107, 629669, 630242, 630718, 631234, 631766, 632381, 632924, 633444]","[619928, 620527, 621127, 621727, 622327, 622927, 623527, 624128, 624698, 625305, 625894, 626512, 627086, 627658, 628259, 628844, 629410, 629945, 630534, 631074, 631562, 632215, 632756, 633287]",20,R,ITM,1.1,
5,400,trial,0,21,21,21,trial,"['S', 'S', 'S', 'S', 'S', 'S', 'S', 'C', 'C', 'C', 'C', 'C', 'C', 'C', 'C', 'C', 'C', 'C', 'C', 'C', 'C', 'C', 'C']","[639422, 639800, 640219, 640632, 641034, 641439, 641845, 642252, 642658, 643044, 643474, 643847, 644268, 644662, 645060, 645481, 645889, 646280, 646704, 647099, 647524, 647931, 648376]","[639558, 639946, 640406, 640846, 641258, 641646, 642056, 642446, 642829, 643240, 643641, 644008, 644418, 644808, 645215, 645623, 646034, 646402, 646825, 647232, 647660, 648089, 648510]","[639076, 639475, 639876, 640275, 640675, 641075, 641475, 641875, 642279, 642683, 643069, 643500, 643872, 644293, 644687, 645086, 645507, 645914, 646305, 646729, 647126, 647549, 647957, 648401]",20,R,ITM,1.1,
2,400,trial,0,22,22,22,trial,"['S', 'S', 'S', 'S', 'S', 'S', 'S', 'S', 'C', 'C', 'C', 'C', 'C', 'C', 'C', 'C', 'C', 'C', 'C', 'C', 'C', 'C', 'C', 'C']","[654009, 654299, 654655, 655011, 655412, 655812, 656225, 656612, 657008, 657421, 657816, 658204, 658605, 658991, 659412, 659794, 660226, 660648, 661073, 661480, 661905, 662279, 662683, 663106]","[654116, 654427, 654807, 655188, 655600, 656010, 656390, 656811, 657207, 657604, 657960, 658360, 658738, 659108, 659520, 659930, 660366, 660731, 661157, 661583, 662003, 662392, 662778, 663213]","[653811, 654212, 654611, 655011, 655411, 655811, 656212, 656612, 657035, 657448, 657844, 658231, 658632, 659018, 659438, 659821, 660253, 660676, 661100, 661507, 661933, 662305, 662710, 663133]",20,R,ITM,1.1,
3,600,trial,0,23,23,23,trial,"['S', 'S', 'S', 'S', 'S', 'S', 'S', 'S', 'C', 'C', 'C', 'C', 'C', 'C', 'C', 'C', 'C', 'C', 'C', 'C', 'C', 'C', 'C', 'C']","[668730, 669043, 669711, 670280, 670843, 671461, 672064, 672656, 673255, 673859, 674410, 674968, 675567, 676132, 676725, 677302, 677927, 678509, 679078, 679650, 680233, 680811, 681365, 681932]","[668792, 669155, 669856, 670490, 671067, 671831, 672405, 673019, 673608, 674165, 674697, 675228, 675829, 676401, 677004, 677623, 678215, 678756, 679344, 679899, 680495, 681033, 681582, 682187]","[668491, 669091, 669691, 670291, 670892, 671492, 672092, 672691, 673281, 673885, 674436, 674994, 675593, 676159, 676751, 677327, 677953, 678535, 679104, 679675, 680259, 680837, 681391, 681958]",20,R,ITM,1.1,
2,600,trial,0,24,24,24,trial,"['S', 'S', 'S', 'S', 'S', 'S', 'S', 'C', 'C', 'C', 'C', 'C', 'C', 'C', 'C', 'C', 'C', 'C', 'C', 'C', 'C', 'C', 'C']","[688077, 688740, 689357, 689982, 690582, 691188, 691773, 692393, 692944, 693536, 694114, 694658, 695237, 695840, 696415, 696986, 697582, 698135, 698713, 699272, 699793, 700378, 700924]","[688204, 688961, 689686, 690341, 690945, 691523, 692172, 692707, 693308, 693837, 694376, 694936, 695587, 696142, 696752, 697305, 697850, 698404, 698968, 699512, 700126, 700607, 701161]","[687617, 688217, 688817, 689417, 690017, 690617, 691217, 691816, 692420, 692972, 693563, 694141, 694685, 695264, 695868, 696441, 697014, 697609, 698163, 698740, 699298, 699820, 700404, 700951]",20,R,ITM,1.1,
4,600,trial,0,25,25,25,trial,"['S', 'S', 'S', 'S', 'S', 'S', 'S', 'S', 'C', 'C', 'C', 'C', 'C', 'C', 'C', 'C', 'C', 'C', 'C', 'C', 'C', 'C', 'C', 'C']","[706685, 706953, 707579, 708168, 708788, 709395, 709998, 710571, 711150, 711817, 712432, 713063, 713654, 714255, 714822, 715412, 715978, 716516, 717052, 717558, 718126, 718647, 719192, 719718]","[706808, 707108, 707790, 708494, 709150, 709775, 710370, 710888, 711407, 712095, 712742, 713342, 713913, 714463, 715043, 715622, 716188, 716698, 717234, 717709, 718332, 718804, 719354, 719882]","[706442, 707041, 707641, 708241, 708841, 709441, 710041, 710641, 711176, 711843, 712458, 713089, 713679, 714280, 714848, 715438, 716004, 716542, 717078, 717584, 718151, 718672, 719217, 719744]",20,R,ITM,1.1,
4,600,trial,0,26,26,26,trial,"['S', 'S', 'S', 'S', 'S', 'S', 'S', 'C', 'C', 'C', 'C', 'C', 'C', 'C', 'C', 'C', 'C', 'C', 'C', 'C', 'C', 'C', 'C']","[725807, 726405, 727042, 727618, 728226, 728875, 729493, 730099, 730693, 731268, 731873, 732440, 733025, 733562, 734115, 734691, 735240, 735785, 736349, 736919, 737440, 738002, 738558]","[725943, 726645, 727283, 727940, 728622, 729241, 729777, 730398, 730937, 731495, 732118, 732667, 733196, 733774, 734379, 734920, 735420, 736004, 736506, 737081, 737625, 738174, 738734]","[725295, 725894, 726493, 727093, 727693, 728293, 728893, 729493, 730125, 730719, 731293, 731898, 732466, 733050, 733588, 734142, 734717, 735265, 735811, 736374, 736946, 737466, 738028, 738584]",20,R,ITM,1.1,
5,600,trial,0,27,27,27,trial,"['S', 'S', 'S', 'S', 'S', 'S', 'S', 'S', 'C', 'C', 'C', 'C', 'C', 'C', 'C', 'C', 'C', 'C', 'C', 'C', 'C', 'C', 'C', 'C']","[744458, 744834, 745426, 746020, 746599, 747204, 747795, 748449, 749035, 749603, 750166, 750763, 751329, 751885, 752535, 753124, 753678, 754174, 754746, 755304, 755857, 756379, 756885, 757407]","[744542, 745144, 745778, 746384, 746966, 747491, 748127, 748762, 749278, 749799, 750371, 750922, 751512, 752031, 752701, 753241, 753850, 754286, 754930, 755450, 755994, 756519, 757018, 757534]","[744258, 744857, 745457, 746057, 746657, 747257, 747857, 748457, 749061, 749629, 750192, 750788, 751355, 751911, 752561, 753150, 753704, 754200, 754771, 755331, 755883, 756405, 756912, 757433]",20,R,ITM,1.1,
7,600,trial,0,28,28,28,trial,"['S', 'S', 'S', 'S', 'S', 'S', 'S', 'S', 'C', 'C', 'C', 'C', 'C', 'C', 'C', 'C', 'C', 'C', 'C', 'C', 'C', 'C', 'C', 'C']","[763585, 764041, 764386, 765005, 765584, 766177, 766781, 767373, 767963, 768552, 769183, 769745, 770344, 770876, 771482, 772043, 772643, 773195, 773790, 774349, 774905, 775465, 776024, 776557]","[763687, 764171, 764740, 765329, 765902, 766520, 767074, 767644, 768200, 768751, 769366, 769914, 770512, 771045, 771673, 772192, 772823, 773367, 773937, 774509, 775047, 775630, 776161, 776766]","[763205, 763804, 764404, 765004, 765604, 766204, 766804, 767405, 767990, 768580, 769210, 769772, 770372, 770904, 771509, 772070, 772670, 773223, 773817, 774377, 774932, 775492, 776050, 776585]",20,R,ITM,1.1,
5,400,trial,0,29,29,29,trial,"['S', 'S', 'S', 'S', 'S', 'S', 'S', 'C', 'C', 'C', 'C', 'C', 'C', 'C', 'C', 'C', 'C', 'C', 'C', 'C', 'C', 'C', 'C']","[782299, 782667, 783106, 783557, 783968, 784385, 784803, 785217, 785596, 786020, 786416, 786796, 787210, 787595, 787979, 788352, 788715, 789152, 789510, 789901, 790284, 790668, 791034]","[782420, 782815, 783285, 783712, 784176, 784600, 785022, 785444, 785799, 786172, 786562, 786967, 787358, 787765, 788139, 788491, 788864, 789269, 789666, 790045, 790426, 790819, 791186]","[782103, 782503, 782903, 783303, 783704, 784103, 784503, 784903, 785243, 785622, 786045, 786442, 786823, 787235, 787620, 788004, 788377, 788741, 789178, 789536, 789926, 790309, 790693, 791061]",20,R,ITM,1.1,
6,400,trial,0,30,30,30,trial,"['S', 'S', 'S', 'S', 'S', 'S', 'S', 'C', 'C', 'C', 'C', 'C', 'C', 'C', 'C', 'C', 'C', 'C', 'C', 'C', 'C', 'C', 'C']","[806057, 806396, 806805, 807224, 807617, 808014, 808387, 808792, 809187, 809593, 809974, 810361, 810765, 811156, 811553, 811956, 812336, 812729, 813166, 813545, 813933, 814327, 814670]","[806184, 806577, 807016, 807433, 807801, 808181, 808542, 808958, 809351, 809745, 810126, 810518, 810897, 811303, 811698, 812095, 812485, 812878, 813291, 813701, 814084, 814474, 814826]","[805586, 805986, 806386, 806787, 807186, 807586, 807987, 808387, 808818, 809214, 809620, 810002, 810389, 810791, 811183, 811581, 811983, 812363, 812755, 813193, 813572, 813960, 814354, 814698]",20,R,ITM,1.1,
3,400,trial,0,31,31,31,trial,"['S', 'S', 'S', 'S', 'S', 'S', 'S', 'C', 'C', 'C', 'C', 'C', 'C', 'C', 'C', 'C', 'C', 'C', 'C', 'C', 'C', 'C', 'C']","[820582, 821030, 821435, 821865, 822303, 822726, 823144, 823526, 823934, 824303, 824695, 825103, 825515, 825926, 826335, 826727, 827125, 827551, 827968, 828372, 828804, 829207, 829622]","[820721, 821218, 821636, 822068, 822531, 822953, 823328, 823729, 824121, 824509, 824897, 825278, 825694, 826104, 826506, 826912, 827311, 827720, 828111, 828544, 828949, 829377, 829784]","[820338, 820739, 821138, 821538, 821938, 822338, 822738, 823138, 823552, 823960, 824329, 824721, 825128, 825540, 825952, 826360, 826753, 827151, 827577, 827994, 828398, 828829, 829233, 829647]",20,R,ITM,1.1,
7,400,trial,0,32,32,32,trial,"['S', 'S', 'S', 'S', 'S', 'S', 'S', 'C', 'C', 'C', 'C', 'C', 'C', 'C', 'C', 'C', 'C', 'C', 'C', 'C', 'C', 'C', 'C']","[835429, 835834, 836234, 836668, 837098, 837528, 837959, 838370, 838771, 839165, 839577, 839983, 840377, 840800, 841227, 841621, 842041, 842436, 842825, 843231, 843620, 844025, 844439]","[835558, 835998, 836478, 836937, 837371, 837807, 838219, 838632, 839008, 839409, 839781, 840173, 840567, 840981, 841394, 841803, 842198, 842589, 842957, 843343, 843753, 844167, 844580]","[835160, 835558, 835958, 836359, 836758, 837158, 837558, 837958, 838396, 838798, 839192, 839605, 840009, 840403, 840827, 841253, 841648, 842067, 842464, 842852, 843258, 843646, 844052, 844467]",20,R,ITM,1.1,
4,400,trial,0,33,33,33,trial,"['S', 'S', 'S', 'S', 'S', 'S', 'S', 'S', 'C', 'C', 'C', 'C', 'C', 'C', 'C', 'C', 'C', 'C', 'C', 'C', 'C', 'C', 'C', 'C']","[850435, 850733, 851046, 851392, 851781, 852187, 852606, 853009, 853411, 853829, 854211, 854606, 855025, 855433, 855847, 856252, 856673, 857029, 857477, 857873, 858298, 858727, 859144, 859537]","[850552, 850866, 851210, 851609, 852040, 852468, 852867, 853288, 853688, 854076, 854474, 854851, 855288, 855707, 856084, 856456, 856817, 857228, 857637, 858055, 858482, 858913, 859321, 859716]","[850238, 850638, 851038, 851438, 851838, 852238, 852638, 853039, 853437, 853855, 854238, 854632, 855051, 855458, 855874, 856278, 856698, 857055, 857502, 857900, 858323, 858754, 859169, 859563]",20,R,ITM,1.1,
7,600,trial,0,34,34,34,trial,"['S', 'S', 'S', 'S', 'S', 'S', 'S', 'S', 'C', 'C', 'C', 'C', 'C', 'C', 'C', 'C', 'C', 'C', 'C', 'C', 'C', 'C', 'C', 'C']","[865458, 865759, 866232, 866950, 867506, 868036, 868646, 869283, 869934, 870490, 871042, 871597, 872180, 872747, 873338, 873857, 874435, 874905, 875533, 876027, 876568, 877066, 877593, 878087]","[865556, 865909, 866466, 867176, 867704, 868257, 868835, 869502, 870148, 870669, 871244, 871782, 872365, 872942, 873479, 874027, 874579, 875091, 875654, 876198, 876712, 877234, 877716, 878271]","[865281, 865880, 866480, 867080, 867680, 868280, 868880, 869480, 869960, 870517, 871068, 871624, 872207, 872774, 873366, 873883, 874463, 874932, 875560, 876055, 876595, 877093, 877621, 878113]",20,R,ITM,1.1,
5,600,trial,0,35,35,35,trial,"['S', 'S', 'S', 'S', 'S', 'S', 'S', 'C', 'C', 'C', 'C', 'C', 'C', 'C', 'C', 'C', 'C', 'C', 'C', 'C', 'C', 'C', 'C']","[883958, 884646, 885293, 885908, 886495, 887122, 887706, 888261, 888845, 889436, 889980, 890610, 891125, 891755, 892345, 892928, 893512, 894119, 894672, 895325, 895917, 896585, 897165]","[884108, 884813, 885468, 886125, 886700, 887292, 887842, 888474, 889028, 889620, 890221, 890789, 891335, 891932, 892538, 893113, 893720, 894305, 894904, 895523, 896114, 896733, 897348]","[883492, 884092, 884692, 885293, 885893, 886493, 887093, 887693, 888288, 888870, 889461, 890006, 890636, 891151, 891781, 892371, 892954, 893538, 894145, 894698, 895350, 895942, 896611, 897190]",20,R,ITM,1.1,
4,600,trial,0,36,36,36,trial,"['S', 'S', 'S', 'S', 'S', 'S', 'S', 'C', 'C', 'C', 'C', 'C', 'C', 'C', 'C', 'C', 'C', 'C', 'C', 'C', 'C', 'C', 'C']","[903366, 904000, 904608, 905251, 905854, 906467, 907067, 907645, 908220, 908833, 909383, 909981, 910648, 911295, 911922, 912544, 913182, 913776, 914391, 915008, 915624, 916222, 916819]","[903513, 904190, 904941, 905548, 906151, 906727, 907383, 907881, 908465, 909008, 909560, 910139, 910840, 911474, 912096, 912687, 913321, 913950, 914551, 915163, 915712, 916427, 917086]","[902868, 903468, 904068, 904668, 905267, 905867, 906467, 907067, 907671, 908246, 908859, 909409, 910007, 910673, 911321, 911947, 912570, 913208, 913802, 914416, 915034, 915650, 916248, 916845]",20,R,ITM,1.1,
6,600,trial,0,37,37,37,trial,"['S', 'S', 'S', 'S', 'S', 'S', 'S', 'S', 'C', 'C', 'C', 'C', 'C', 'C', 'C', 'C', 'C', 'C', 'C', 'C', 'C', 'C', 'C', 'C']","[922596, 923009, 923639, 924214, 924808, 925361, 925971, 926555, 927149, 927738, 928304, 928847, 929507, 930101, 930682, 931239, 931878, 932426, 933067, 933616, 934274, 934810, 935499, 936089]","[922706, 923163, 923768, 924357, 924946, 925513, 926176, 926818, 927386, 927952, 928497, 929097, 929701, 930291, 930867, 931459, 932052, 932638, 933256, 933786, 934456, 934987, 935652, 936221]","[922389, 922988, 923588, 924188, 924788, 925388, 925988, 926588, 927176, 927765, 928331, 928875, 929534, 930127, 930709, 931266, 931905, 932454, 933095, 933643, 934300, 934837, 935526, 936116]",20,R,ITM,1.1,
5,400,trial,0,38,38,38,trial,"['S', 'S', 'S', 'S', 'S', 'S', 'S', 'S', 'C', 'C', 'C', 'C', 'C', 'C', 'C', 'C', 'C', 'C', 'C', 'C', 'C', 'C', 'C', 'C']","[941981, 942305, 942631, 942928, 943315, 943702, 944122, 944522, 944947, 945373, 945777, 946155, 946528, 946952, 947364, 947781, 948189, 948587, 948932, 949364, 949790, 950208, 950606, 951023]","[942084, 942437, 942776, 943169, 943563, 943980, 944385, 944796, 945209, 945603, 945987, 946349, 946736, 947153, 947549, 947956, 948347, 948733, 949156, 949550, 949949, 950363, 950765, 951179]","[941739, 942137, 942537, 942938, 943337, 943737, 944137, 944537, 944973, 945398, 945803, 946181, 946553, 946977, 947390, 947808, 948214, 948613, 948959, 949390, 949816, 950235, 950633, 951049]",20,R,ITM,1.1,
2,600,trial,0,39,39,39,trial,"['S', 'S', 'S', 'S', 'S', 'S', 'S', 'S', 'C', 'C', 'C', 'C', 'C', 'C', 'C', 'C', 'C', 'C', 'C', 'C', 'C', 'C', 'C', 'C']","[956727, 957010, 957670, 958241, 958842, 959464, 960067, 960651, 961254, 961803, 962396, 962961, 963578, 964150, 964703, 965232, 965857, 966401, 966994, 967518, 968153, 968755, 969302, 969856]","[956843, 957176, 957850, 958458, 959155, 959753, 960334, 960906, 961480, 962018, 962625, 963210, 963761, 964330, 964884, 965425, 966016, 966571, 967170, 967693, 968316, 968935, 969518, 970036]","[956506, 957106, 957705, 958305, 958905, 959505, 960105, 960705, 961282, 961830, 962423, 962989, 963606, 964177, 964730, 965260, 965883, 966427, 967022, 967544, 968179, 968782, 969328, 969882]",20,R,ITM,1.1,
6,600,trial,0,40,40,40,trial,"['S', 'S', 'S', 'S', 'S', 'S', 'S', 'C', 'C', 'C', 'C', 'C', 'C', 'C', 'C', 'C', 'C', 'C', 'C', 'C', 'C', 'C', 'C']","[976027, 976648, 977262, 977853, 978482, 979128, 979694, 980346, 980944, 981531, 982118, 982748, 983363, 984027, 984554, 985216, 985804, 986386, 986940, 987573, 988127, 988708, 989386]","[976194, 976865, 977514, 978232, 978889, 979452, 980074, 980617, 981216, 981891, 982521, 983117, 983689, 984249, 984883, 985434, 986001, 986562, 987108, 987776, 988331, 988916, 989591]","[975526, 976126, 976727, 977327, 977927, 978526, 979126, 979726, 980374, 980971, 981558, 982145, 982774, 983391, 984053, 984581, 985242, 985831, 986414, 986968, 987599, 988153, 988735, 989413]",20,R,ITM,1.1,
7,600,trial,0,41,41,41,trial,"['S', 'S', 'S', 'S', 'S', 'S', 'S', 'S', 'C', 'C', 'C', 'C', 'C', 'C', 'C', 'C', 'C', 'C', 'C', 'C', 'C', 'C', 'C', 'C', 'C', 'C', 'C', 'C', 'C']","[995321, 995727, 996292, 996869, 997509, 998095, 998669, 999249, 999831, 1000429, 1001046, 1001631, 1002213, 1002815, 1003439, 1003545, 1004009, 1004118, 1004599, 1005159, 1005790, 1006360, 1006467, 1007116, 1007654, 1007761, 1008281, 1008797, 1008905]","[995445, 995870, 996465, 997043, 997724, 998270, 998850, 999526, 1000100, 1000631, 1001234, 1001755, 1002241, 1002962, 1003465, 1003601, 1004036, 1004156, 1004766, 1005330, 1005947, 1006387, 1006571, 1007143, 1007681, 1007787, 1008409, 1008825, 1008940]","[995079, 995678, 996278, 996878, 997478, 998078, 998678, 999278, 999859, 1000456, 1001073, 1001658, 1002241, 1002843, 1003465, 1004036, 1004625, 1005187, 1005816, 1006387, 1007143, 1007681, 1008309, 1008825]",20,R,ITM,1.1,
6,400,trial,0,42,42,42,trial,"['S', 'S', 'S', 'S', 'S', 'S', 'S', 'C', 'C', 'C', 'C', 'C', 'C', 'C', 'C', 'C', 'C', 'C', 'C', 'C', 'C', 'C', 'C']","[1032295, 1032580, 1032925, 1033300, 1033710, 1034125, 1034508, 1034932, 1035350, 1035778, 1036196, 1036609, 1037025, 1037442, 1037859, 1038269, 1038665, 1039093, 1039534, 1039959, 1040401, 1040815, 1041256]","[1032390, 1032725, 1033124, 1033530, 1033947, 1034333, 1034704, 1035111, 1035541, 1035969, 1036383, 1036791, 1037208, 1037624, 1038041, 1038428, 1038832, 1039272, 1039707, 1040132, 1040562, 1041000, 1041432]","[1031700, 1032100, 1032500, 1032900, 1033300, 1033700, 1034100, 1034501, 1034958, 1035377, 1035805, 1036224, 1036637, 1037051, 1037468, 1037886, 1038297, 1038692, 1039120, 1039561, 1039985, 1040428, 1040841, 1041283]",20,R,ITM,1.1,
4,600,trial,0,43,43,43,trial,"['S', 'S', 'S', 'S', 'S', 'S', 'S', 'S', 'C', 'C', 'C', 'C', 'C', 'C', 'C', 'C', 'C', 'C', 'C', 'C', 'C', 'C', 'C', 'C']","[1047223, 1047506, 1048179, 1048768, 1049380, 1050007, 1050606, 1051176, 1051806, 1052392, 1053032, 1053593, 1054186, 1054775, 1055356, 1055980, 1056525, 1057129, 1057727, 1058276, 1058866, 1059428, 1060023, 1060622]","[1047354, 1047711, 1048412, 1049006, 1049736, 1050290, 1050861, 1051467, 1052038, 1052635, 1053209, 1053818, 1054413, 1054988, 1055560, 1056185, 1056775, 1057338, 1057899, 1058523, 1059075, 1059631, 1060242, 1060846]","[1047020, 1047620, 1048220, 1048820, 1049420, 1050020, 1050620, 1051220, 1051832, 1052418, 1053058, 1053620, 1054212, 1054800, 1055383, 1056007, 1056550, 1057155, 1057753, 1058301, 1058891, 1059453, 1060049, 1060647]",20,R,ITM,1.1,
3,600,trial,0,44,44,44,trial,"['S', 'S', 'S', 'S', 'S', 'S', 'S', 'C', 'C', 'C', 'C', 'C', 'C', 'C', 'C', 'C', 'C', 'C', 'C', 'C', 'C', 'C', 'C']","[1066801, 1067408, 1068015, 1068684, 1069276, 1069838, 1070409, 1071001, 1071633, 1072196, 1072749, 1073342, 1073952, 1074551, 1075171, 1075776, 1076364, 1076951, 1077527, 1078150, 1078717, 1079353, 1079930]","[1066997, 1067657, 1068241, 1068953, 1069523, 1070060, 1070582, 1071191, 1071806, 1072397, 1072969, 1073567, 1074091, 1074682, 1075303, 1075927, 1076535, 1077122, 1077694, 1078331, 1078919, 1079486, 1080084]","[1066299, 1066899, 1067499, 1068099, 1068699, 1069299, 1069899, 1070499, 1071027, 1071659, 1072222, 1072775, 1073368, 1073978, 1074577, 1075196, 1075802, 1076389, 1076976, 1077553, 1078175, 1078743, 1079378, 1079956]",20,R,ITM,1.1,
2,400,trial,0,45,45,45,trial,"['S', 'S', 'S', 'S', 'S', 'S', 'S', 'C', 'C', 'C', 'C', 'C', 'C', 'C', 'C', 'C', 'C', 'C', 'C', 'C', 'C', 'C', 'C']","[1085656, 1086134, 1086529, 1086994, 1087407, 1087830, 1088199, 1088605, 1089009, 1089402, 1089777, 1090187, 1090588, 1091005, 1091400, 1091808, 1092213, 1092621, 1092987, 1093455, 1093906, 1094301, 1094719]","[1085797, 1086287, 1086768, 1087182, 1087625, 1088019, 1088399, 1088774, 1089207, 1089575, 1089974, 1090368, 1090744, 1091145, 1091559, 1091952, 1092355, 1092764, 1093150, 1093579, 1094038, 1094461, 1094859]","[1085394, 1085794, 1086194, 1086595, 1086994, 1087394, 1087795, 1088193, 1088632, 1089036, 1089429, 1089804, 1090213, 1090616, 1091033, 1091428, 1091835, 1092240, 1092647, 1093015, 1093482, 1093933, 1094329, 1094746]",20,R,ITM,1.1,
5,400,trial,0,46,46,46,trial,"['S', 'S', 'S', 'S', 'S', 'S', 'S', 'C', 'C', 'C', 'C', 'C', 'C', 'C', 'C', 'C', 'C', 'C', 'C', 'C', 'C', 'C', 'C']","[1100609, 1101087, 1101472, 1101894, 1102311, 1102759, 1103192, 1103618, 1104021, 1104415, 1104809, 1105198, 1105599, 1105995, 1106414, 1106851, 1107265, 1107656, 1108070, 1108478, 1108920, 1109348, 1109766]","[1100683, 1101221, 1101711, 1102130, 1102568, 1103001, 1103433, 1103812, 1104229, 1104596, 1104970, 1105353, 1105769, 1106152, 1106567, 1107012, 1107400, 1107795, 1108213, 1108643, 1109054, 1109498, 1109917]","[1100381, 1100779, 1101179, 1101579, 1101979, 1102380, 1102779, 1103179, 1103643, 1104047, 1104442, 1104834, 1105224, 1105625, 1106022, 1106441, 1106878, 1107291, 1107682, 1108096, 1108503, 1108945, 1109373, 1109792]",20,R,ITM,1.1,
2,600,trial,0,47,47,47,trial,"['S', 'S', 'S', 'S', 'S', 'S', 'S', 'S', 'C', 'C', 'C', 'C', 'C', 'C', 'C', 'C', 'C', 'C', 'C', 'C', 'C', 'C', 'C', 'C']","[1115550, 1115847, 1116546, 1117178, 1117759, 1118354, 1118979, 1119567, 1120157, 1120763, 1121347, 1121910, 1122544, 1123090, 1123735, 1124302, 1124900, 1125442, 1126012, 1126559, 1127103, 1127684, 1128227, 1128814]","[1115658, 1116097, 1116779, 1117455, 1118140, 1118680, 1119283, 1119828, 1120380, 1120954, 1121582, 1122102, 1122700, 1123240, 1123891, 1124405, 1125052, 1125593, 1126161, 1126710, 1127251, 1127802, 1128380, 1128933]","[1115378, 1115978, 1116578, 1117178, 1117777, 1118379, 1118979, 1119579, 1120185, 1120790, 1121375, 1121938, 1122572, 1123118, 1123763, 1124329, 1124927, 1125470, 1126039, 1126587, 1127130, 1127711, 1128255, 1128842]",20,R,ITM,1.1,
4,400,trial,0,48,48,48,trial,"['S', 'S', 'S', 'S', 'S', 'S', 'S', 'S', 'C', 'C', 'C', 'C', 'C', 'C', 'C', 'C', 'C', 'C', 'C', 'C', 'C', 'C', 'C', 'C']","[1134630, 1134959, 1135261, 1135633, 1136024, 1136405, 1136830, 1137220, 1137619, 1138041, 1138448, 1138854, 1139261, 1139644, 1140059, 1140434, 1140836, 1141248, 1141630, 1142019, 1142424, 1142813, 1143222, 1143595]","[1134726, 1135076, 1135439, 1135854, 1136240, 1136667, 1137055, 1137451, 1137874, 1138270, 1138654, 1139086, 1139459, 1139865, 1140241, 1140610, 1141039, 1141430, 1141827, 1142190, 1142588, 1142967, 1143388, 1143762]","[1134405, 1134804, 1135204, 1135604, 1136005, 1136404, 1136804, 1137204, 1137646, 1138067, 1138473, 1138880, 1139287, 1139670, 1140084, 1140461, 1140861, 1141273, 1141656, 1142044, 1142451, 1142839, 1143247, 1143620]",20,R,ITM,1.1,
7,400,trial,0,49,49,49,trial,"['S', 'S', 'S', 'S', 'S', 'S', 'S', 'C', 'C', 'C', 'C', 'C', 'C', 'C', 'C', 'C', 'C', 'C', 'C', 'C', 'C', 'C', 'C']","[1149446, 1149805, 1150199, 1150639, 1151043, 1151439, 1151857, 1152234, 1152620, 1153005, 1153390, 1153817, 1154171, 1154574, 1154950, 1155335, 1155713, 1156090, 1156468, 1156861, 1157206, 1157608, 1158016]","[1149598, 1149999, 1150460, 1150880, 1151285, 1151652, 1152065, 1152462, 1152847, 1153220, 1153593, 1153974, 1154353, 1154734, 1155109, 1155502, 1155847, 1156247, 1156624, 1156999, 1157363, 1157750, 1158167]","[1149038, 1149438, 1149838, 1150238, 1150639, 1151038, 1151438, 1151838, 1152261, 1152647, 1153033, 1153417, 1153844, 1154199, 1154600, 1154977, 1155361, 1155739, 1156118, 1156496, 1156889, 1157232, 1157636, 1158043]",20,R,ITM,1.1,
5,600,trial,0,50,50,50,trial,"['S', 'S', 'S', 'S', 'S', 'S', 'S', 'S', 'C', 'C', 'C', 'C', 'C', 'C', 'C', 'C', 'C', 'C', 'C', 'C', 'C', 'C', 'C', 'C']","[1163769, 1164223, 1164698, 1165220, 1165799, 1166403, 1167004, 1167587, 1168193, 1168804, 1169411, 1169969, 1170606, 1171150, 1171714, 1172343, 1172944, 1173544, 1174130, 1174863, 1175510, 1176078, 1176725, 1177307]","[1163899, 1164372, 1164855, 1165416, 1166024, 1166674, 1167236, 1167801, 1168414, 1169005, 1169594, 1170195, 1170776, 1171352, 1171914, 1172506, 1173138, 1173712, 1174317, 1174999, 1175667, 1176232, 1176863, 1177448]","[1163437, 1164037, 1164637, 1165237, 1165837, 1166437, 1167037, 1167637, 1168219, 1168830, 1169437, 1169994, 1170631, 1171176, 1171739, 1172369, 1172970, 1173570, 1174156, 1174889, 1175535, 1176103, 1176751, 1177333]",20,R,ITM,1.1,
2,400,trial,0,51,51,51,trial,"['S', 'S', 'S', 'S', 'S', 'S', 'S', 'C', 'C', 'C', 'C', 'C', 'C', 'C', 'C', 'C', 'C', 'C', 'C', 'C', 'C', 'C', 'C']","[1183208, 1183570, 1184064, 1184516, 1184953, 1185405, 1185814, 1186225, 1186648, 1187043, 1187451, 1187880, 1188286, 1188736, 1189145, 1189556, 1189955, 1190371, 1190797, 1191186, 1191635, 1192050, 1192464]","[1183315, 1183728, 1184227, 1184716, 1185149, 1185575, 1185974, 1186370, 1186797, 1187177, 1187596, 1188022, 1188416, 1188840, 1189257, 1189685, 1190085, 1190487, 1190915, 1191324, 1191761, 1192169, 1192570]","[1182995, 1183395, 1183795, 1184196, 1184596, 1184996, 1185396, 1185797, 1186252, 1186675, 1187070, 1187479, 1187908, 1188313, 1188763, 1189172, 1189582, 1189982, 1190397, 1190823, 1191214, 1191662, 1192078, 1192491]",20,R,ITM,1.1,
3,400,trial,0,52,52,52,trial,"['S', 'S', 'S', 'S', 'S', 'S', 'S', 'S', 'C', 'C', 'C', 'C', 'C', 'C', 'C', 'C', 'C', 'C', 'C', 'C', 'C', 'C', 'C', 'C']","[1198066, 1198392, 1198688, 1199074, 1199463, 1199857, 1200263, 1200674, 1201062, 1201446, 1201872, 1202283, 1202696, 1203105, 1203507, 1203889, 1204313, 1204729, 1205120, 1205512, 1205924, 1206318, 1206733, 1207140]","[1198178, 1198547, 1198860, 1199278, 1199675, 1200060, 1200485, 1200874, 1201247, 1201635, 1202051, 1202458, 1202878, 1203279, 1203679, 1204050, 1204471, 1204890, 1205291, 1205670, 1206091, 1206496, 1206901, 1207294]","[1197850, 1198251, 1198650, 1199050, 1199451, 1199850, 1200250, 1200650, 1201088, 1201472, 1201898, 1202309, 1202721, 1203131, 1203532, 1203914, 1204338, 1204755, 1205145, 1205537, 1205950, 1206343, 1206759, 1207165]",20,R,ITM,1.1,
3,600,trial,0,53,53,53,trial,"['S', 'S', 'S', 'S', 'S', 'S', 'S', 'S', 'C', 'C', 'C', 'C', 'C', 'C', 'C', 'C', 'C', 'C', 'C', 'C', 'C', 'C', 'C', 'C']","[1212824, 1213392, 1213853, 1214401, 1215014, 1215595, 1216228, 1216773, 1217346, 1217979, 1218580, 1219164, 1219763, 1220348, 1220957, 1221504, 1222094, 1222659, 1223267, 1223830, 1224370, 1225101, 1225730, 1226380]","[1212917, 1213501, 1213983, 1214535, 1215160, 1215760, 1216397, 1216969, 1217563, 1218171, 1218768, 1219346, 1219954, 1220590, 1221137, 1221672, 1222257, 1222808, 1223441, 1224032, 1224586, 1225241, 1225916, 1226558]","[1212610, 1213210, 1213810, 1214410, 1215010, 1215610, 1216210, 1216811, 1217372, 1218004, 1218606, 1219189, 1219788, 1220374, 1220982, 1221529, 1222120, 1222684, 1223292, 1223856, 1224395, 1225126, 1225755, 1226405]",20,R,ITM,1.1,
3,400,trial,0,54,54,54,trial,"['S', 'S', 'S', 'S', 'S', 'S', 'S', 'C', 'C', 'C', 'C', 'C', 'C', 'C', 'C', 'C', 'C', 'C', 'C', 'C', 'C', 'C', 'C']","[1237899, 1238241, 1238597, 1238978, 1239392, 1239797, 1240190, 1240609, 1241025, 1241436, 1241864, 1242274, 1242690, 1243096, 1243534, 1243939, 1244372, 1244797, 1245195, 1245590, 1246001, 1246415, 1246819]","[1238034, 1238415, 1238800, 1239208, 1239634, 1240027, 1240408, 1240799, 1241210, 1241629, 1242047, 1242452, 1242882, 1243261, 1243682, 1244105, 1244520, 1244940, 1245352, 1245741, 1246152, 1246560, 1246973]","[1237422, 1237820, 1238220, 1238621, 1239021, 1239421, 1239821, 1240221, 1240635, 1241051, 1241461, 1241890, 1242300, 1242716, 1243121, 1243559, 1243965, 1244398, 1244823, 1245220, 1245616, 1246027, 1246441, 1246844]",20,R,ITM,1.1,
6,400,trial,0,55,55,55,trial,"['S', 'S', 'S', 'S', 'S', 'S', 'S', 'S', 'C', 'C', 'C', 'C', 'C', 'C', 'C', 'C', 'C', 'C', 'C', 'C', 'C', 'C', 'C', 'C']","[1252411, 1252726, 1253057, 1253469, 1253862, 1254247, 1254633, 1255012, 1255412, 1255813, 1256203, 1256584, 1256968, 1257361, 1257732, 1258150, 1258534, 1258951, 1259342, 1259721, 1260121, 1260514, 1260919, 1261315]","[1252525, 1252865, 1253272, 1253702, 1254086, 1254481, 1254857, 1255226, 1255634, 1256018, 1256401, 1256772, 1257132, 1257512, 1257911, 1258313, 1258702, 1259101, 1259484, 1259879, 1260266, 1260675, 1261086, 1261500]","[1252203, 1252602, 1253002, 1253402, 1253803, 1254202, 1254602, 1255003, 1255440, 1255840, 1256229, 1256611, 1256995, 1257388, 1257759, 1258177, 1258562, 1258979, 1259369, 1259748, 1260147, 1260540, 1260946, 1261341]",20,R,ITM,1.1,
7,400,trial,0,56,56,56,trial,"['S', 'S', 'S', 'S', 'S', 'S', 'S', 'S', 'C', 'C', 'C', 'C', 'C', 'C', 'C', 'C', 'C', 'C', 'C', 'C', 'C', 'C', 'C', 'C']","[1267338, 1267650, 1267947, 1268326, 1268724, 1269132, 1269534, 1269936, 1270336, 1270749, 1271149, 1271550, 1271959, 1272380, 1272767, 1273178, 1273563, 1273981, 1274368, 1274798, 1275197, 1275603, 1276006, 1276429]","[1267439, 1267784, 1268144, 1268549, 1268954, 1269374, 1269782, 1270200, 1270605, 1271005, 1271408, 1271816, 1272224, 1272605, 1273034, 1273427, 1273827, 1274208, 1274631, 1275047, 1275443, 1275853, 1276255, 1276640]","[1267125, 1267524, 1267924, 1268324, 1268724, 1269125, 1269524, 1269924, 1270363, 1270776, 1271176, 1271576, 1271986, 1272407, 1272794, 1273204, 1273590, 1274008, 1274395, 1274825, 1275224, 1275630, 1276033, 1276456]",20,R,ITM,1.1,
3,400,trial,0,57,57,57,trial,"['S', 'S', 'S', 'S', 'S', 'S', 'S', 'S', 'C', 'C', 'C', 'C', 'C', 'C', 'C', 'C', 'C', 'C', 'C', 'C', 'C', 'C', 'C', 'C']","[1282402, 1282712, 1283012, 1283377, 1283750, 1284164, 1284561, 1284984, 1285367, 1285776, 1286163, 1286558, 1286981, 1287387, 1287769, 1288166, 1288578, 1288964, 1289390, 1289794, 1290207, 1290611, 1291024, 1291421]","[1282527, 1282849, 1283206, 1283582, 1283995, 1284391, 1284791, 1285175, 1285571, 1285947, 1286346, 1286743, 1287123, 1287535, 1287912, 1288279, 1288662, 1289063, 1289497, 1289888, 1290319, 1290731, 1291133, 1291536]","[1282178, 1282576, 1282976, 1283377, 1283776, 1284176, 1284576, 1284976, 1285393, 1285803, 1286189, 1286584, 1287007, 1287412, 1287794, 1288192, 1288603, 1288989, 1289415, 1289820, 1290232, 1290637, 1291049, 1291447]",20,R,ITM,1.1,
4,600,trial,0,58,58,58,trial,"['S', 'S', 'S', 'S', 'S', 'S', 'S', 'S', 'C', 'C', 'C', 'C', 'C', 'C', 'C', 'C', 'C', 'C', 'C', 'C', 'C', 'C', 'C', 'C']","[1296965, 1297264, 1297994, 1298579, 1299152, 1299747, 1300319, 1300914, 1301507, 1302088, 1302668, 1303271, 1303886, 1304466, 1305091, 1305691, 1306285, 1306861, 1307454, 1308065, 1308645, 1309222, 1309797, 1310359]","[1297062, 1297490, 1298173, 1298771, 1299406, 1299984, 1300564, 1301121, 1301781, 1302404, 1303011, 1303607, 1304195, 1304844, 1305398, 1305921, 1306510, 1307098, 1307737, 1308297, 1308871, 1309432, 1310045, 1310583]","[1296748, 1297347, 1297947, 1298547, 1299147, 1299747, 1300347, 1300947, 1301532, 1302114, 1302694, 1303297, 1303912, 1304492, 1305116, 1305716, 1306310, 1306888, 1307480, 1308091, 1308670, 1309249, 1309822, 1310386]",20,R,ITM,1.1,
2,400,trial,0,59,59,59,trial,"['S', 'S', 'S', 'S', 'S', 'S', 'S', 'S', 'C', 'C', 'C', 'C', 'C', 'C', 'C', 'C', 'C', 'C', 'C', 'C', 'C', 'C', 'C', 'C']","[1316180, 1316520, 1316824, 1317192, 1317588, 1318002, 1318420, 1318813, 1319215, 1319659, 1320095, 1320512, 1320939, 1321403, 1321811, 1322224, 1322681, 1323110, 1323573, 1324026, 1324466, 1324942, 1325406, 1325860]","[1316316, 1316659, 1317006, 1317401, 1317817, 1318231, 1318633, 1319017, 1319441, 1319860, 1320290, 1320700, 1321125, 1321562, 1321996, 1322408, 1322825, 1323291, 1323749, 1324194, 1324641, 1325113, 1325565, 1326019]","[1315984, 1316384, 1316785, 1317184, 1317584, 1317984, 1318384, 1318784, 1319242, 1319687, 1320122, 1320540, 1320967, 1321431, 1321838, 1322252, 1322707, 1323138, 1323600, 1324053, 1324493, 1324969, 1325432, 1325887]",20,R,ITM,1.1,
7,600,trial,0,60,60,60,trial,"['S', 'S', 'S', 'S', 'S', 'S', 'S', 'S', 'C', 'C', 'C', 'C', 'C', 'C', 'C', 'C', 'C', 'C', 'C', 'C', 'C', 'C', 'C', 'C']","[1331634, 1331978, 1332701, 1333299, 1333868, 1334426, 1335008, 1335631, 1336217, 1336854, 1337445, 1338025, 1338633, 1339204, 1339771, 1340303, 1340922, 1341490, 1342084, 1342653, 1343187, 1343744, 1344337, 1344951]","[1331726, 1332106, 1332861, 1333460, 1334076, 1334680, 1335287, 1335891, 1336471, 1337088, 1337677, 1338259, 1338813, 1339387, 1339950, 1340490, 1341094, 1341677, 1342254, 1342836, 1343417, 1343996, 1344613]","[1331459, 1332058, 1332658, 1333257, 1333857, 1334457, 1335057, 1335657, 1336244, 1336881, 1337473, 1338053, 1338659, 1339232, 1339798, 1340329, 1340949, 1341517, 1342111, 1342680, 1343214, 1343770, 1344365, 1344978]",20,R,ITM,1.1,
2,600,trial,0,61,61,61,trial,"['S', 'S', 'S', 'S', 'S', 'S', 'S', 'S', 'C', 'C', 'C', 'C', 'C', 'C', 'C', 'C', 'C', 'C', 'C', 'C', 'C', 'C', 'C', 'C']","[1350700, 1351192, 1351621, 1352193, 1352803, 1353405, 1354011, 1354618, 1355187, 1355785, 1356377, 1356953, 1357541, 1358135, 1358726, 1359270, 1359883, 1360436, 1360988, 1361577, 1362157, 1362671, 1363275, 1363876]","[1350757, 1351316, 1351863, 1352566, 1353200, 1353859, 1354439, 1354993, 1355599, 1356115, 1356620, 1357264, 1357828, 1358389, 1358929, 1359485, 1360079, 1360655, 1361178, 1361792, 1362327, 1362854, 1363467, 1364048]","[1350432, 1351032, 1351632, 1352232, 1352833, 1353433, 1354032, 1354633, 1355214, 1355812, 1356404, 1356981, 1357568, 1358162, 1358752, 1359297, 1359909, 1360462, 1361014, 1361604, 1362184, 1362699, 1363303, 1363903]",20,R,ITM,1.1,
3,600,trial,0,62,62,62,trial,"['S', 'S', 'S', 'S', 'S', 'S', 'S', 'S', 'C', 'C', 'C', 'C', 'C', 'C', 'C', 'C', 'C', 'C', 'C', 'C', 'C', 'C', 'C', 'C']","[1369870, 1370241, 1370853, 1371468, 1372070, 1372666, 1373257, 1373843, 1374419, 1375013, 1375614, 1376181, 1376768, 1377316, 1377903, 1378508, 1379127, 1379707, 1380304, 1380915, 1381499, 1382124, 1382764, 1383382]","[1369972, 1370576, 1371166, 1371768, 1372276, 1372910, 1373569, 1374056, 1374691, 1375296, 1375884, 1376420, 1376963, 1377549, 1378132, 1378709, 1379386, 1380004, 1380612, 1381250, 1381901, 1382540, 1383115]","[1369666, 1370266, 1370866, 1371466, 1372066, 1372666, 1373266, 1373867, 1374445, 1375039, 1375640, 1376206, 1376793, 1377342, 1377929, 1378534, 1379152, 1379733, 1380330, 1380940, 1381525, 1382150, 1382790, 1383407]",20,R,ITM,1.1,
5,600,trial,0,63,63,63,trial,"['S', 'S', 'S', 'S', 'S', 'S', 'S', 'C', 'C', 'C', 'C', 'C', 'C', 'C', 'C', 'C', 'C', 'C', 'C', 'C', 'C', 'C', 'C']","[1389308, 1389883, 1390511, 1391164, 1391780, 1392361, 1392954, 1393560, 1394167, 1394798, 1395351, 1395960, 1396538, 1397115, 1397713, 1398335, 1398898, 1399506, 1400097, 1400695, 1401286, 1401842, 1402461]","[1389451, 1390161, 1390867, 1391419, 1392036, 1392610, 1393187, 1393794, 1394397, 1395006, 1395600, 1396197, 1396770, 1397358, 1397961, 1398543, 1399158, 1399754, 1400316, 1400908, 1401482, 1402091, 1402680]","[1388781, 1389380, 1389980, 1390580, 1391180, 1391780, 1392380, 1392980, 1393586, 1394194, 1394824, 1395377, 1395986, 1396563, 1397141, 1397739, 1398361, 1398924, 1399533, 1400123, 1400721, 1401312, 1401868, 1402486]",20,R,ITM,1.1,
5,400,trial,0,64,64,64,trial,"['S', 'S', 'S', 'S', 'S', 'S', 'S', 'C', 'C', 'C', 'C', 'C', 'C', 'C', 'C', 'C', 'C', 'C', 'C', 'C', 'C', 'C', 'C']","[1408114, 1408464, 1408952, 1409374, 1409792, 1410213, 1410621, 1411032, 1411426, 1411830, 1412231, 1412609, 1413045, 1413428, 1413810, 1414173, 1414551, 1414941, 1415360, 1415736, 1416123, 1416534, 1416906]","[1408217, 1408613, 1409108, 1409575, 1410021, 1410462, 1410866, 1411248, 1411645, 1412032, 1412431, 1412833, 1413257, 1413626, 1413989, 1414341, 1414725, 1415110, 1415508, 1415883, 1416283, 1416691, 1417070]","[1407899, 1408299, 1408698, 1409098, 1409499, 1409898, 1410298, 1410698, 1411057, 1411451, 1411856, 1412256, 1412635, 1413070, 1413454, 1413836, 1414199, 1414577, 1414968, 1415387, 1415761, 1416148, 1416559, 1416932]",20,R,ITM,1.1,
4,600,trial,0,65,65,65,trial,"['S', 'S', 'S', 'S', 'S', 'S', 'S', 'S', 'S', 'C', 'C', 'C', 'C', 'C', 'C', 'C', 'C', 'C', 'C', 'C', 'C', 'C', 'C', 'C', 'C']","[1422636, 1422938, 1423581, 1423996, 1424206, 1424816, 1425412, 1425986, 1426644, 1427261, 1427834, 1428428, 1429042, 1429654, 1430244, 1430845, 1431462, 1432156, 1432754, 1433345, 1433946, 1434568, 1435223, 1435879, 1436477]","[1422745, 1423180, 1423916, 1424025, 1424661, 1425231, 1425816, 1426469, 1427044, 1427615, 1428182, 1428769, 1429340, 1429872, 1430458, 1431152, 1431759, 1432414, 1433052, 1433714, 1434305, 1434898, 1435550, 1436225]","[1422445, 1423044, 1423644, 1424244, 1424844, 1425444, 1426044, 1426644, 1427287, 1427860, 1428455, 1429067, 1429680, 1430269, 1430871, 1431489, 1432181, 1432779, 1433370, 1433971, 1434594, 1435248, 1435905, 1436503]",20,R,ITM,1.1,
6,600,trial,0,66,66,66,trial,"['S', 'S', 'S', 'S', 'S', 'S', 'S', 'C', 'C', 'C', 'C', 'C', 'C', 'C', 'C', 'C', 'C', 'C', 'C', 'C', 'C', 'C', 'C']","[1442300, 1442883, 1443494, 1444148, 1444815, 1445452, 1446045, 1446673, 1447306, 1447956, 1448589, 1449272, 1449934, 1450588, 1451232, 1451864, 1452486, 1453090, 1453723, 1454333, 1455031, 1455618, 1456222]","[1442463, 1443069, 1443897, 1444621, 1445262, 1445868, 1446479, 1447068, 1447714, 1448349, 1449029, 1449651, 1450288, 1450907, 1451582, 1452269, 1452784, 1453402, 1454004, 1454584, 1455239, 1455925]","[1441845, 1442445, 1443045, 1443645, 1444245, 1444845, 1445445, 1446045, 1446701, 1447332, 1447983, 1448616, 1449298, 1449962, 1450614, 1451258, 1451890, 1452513, 1453117, 1453750, 1454360, 1455057, 1455644, 1456249]",20,R,ITM,1.1,
4,400,trial,0,67,67,67,trial,"['S', 'S', 'S', 'S', 'S', 'S', 'S', 'S', 'C', 'C', 'C', 'C', 'C', 'C', 'C', 'C', 'C', 'C', 'C', 'C', 'C', 'C', 'C', 'C']","[1461992, 1462345, 1462682, 1463007, 1463382, 1463775, 1464190, 1464572, 1464984, 1465391, 1465802, 1466189, 1466573, 1467009, 1467389, 1467803, 1468227, 1468631, 1469029, 1469419, 1469835, 1470257, 1470659, 1471065]","[1462147, 1462505, 1462855, 1463225, 1463632, 1464042, 1464428, 1464827, 1465201, 1465644, 1466030, 1466396, 1466832, 1467215, 1467619, 1468018, 1468456, 1468839, 1469196, 1469611, 1469966, 1470382, 1470794, 1471218]","[1461765, 1462164, 1462564, 1462964, 1463364, 1463764, 1464164, 1464564, 1465010, 1465416, 1465828, 1466215, 1466599, 1467034, 1467415, 1467829, 1468253, 1468656, 1469054, 1469445, 1469860, 1470282, 1470685, 1471090]",20,R,ITM,1.1,
3,600,trial,0,68,68,68,trial,"['S', 'S', 'S', 'S', 'S', 'S', 'S', 'S', 'C', 'C', 'C', 'C', 'C', 'C', 'C', 'C', 'C', 'C', 'C', 'C', 'C', 'C', 'C', 'C']","[1476996, 1477529, 1478023, 1478600, 1479175, 1479720, 1480336, 1480975, 1481558, 1482104, 1482727, 1483275, 1483891, 1484448, 1485069, 1485639, 1486200, 1486795, 1487366, 1487935, 1488516, 1489118, 1489675, 1490274]","[1477122, 1477658, 1478213, 1478891, 1479513, 1480114, 1480783, 1481261, 1481801, 1482407, 1482982, 1483560, 1484120, 1484711, 1485295, 1485879, 1486423, 1487022, 1487591, 1488188, 1488728, 1489307, 1489883, 1490506]","[1476776, 1477376, 1477976, 1478576, 1479175, 1479775, 1480375, 1480975, 1481583, 1482130, 1482753, 1483300, 1483917, 1484474, 1485094, 1485665, 1486226, 1486821, 1487391, 1487961, 1488541, 1489143, 1489700, 1490299]",20,R,ITM,1.1,
5,400,trial,0,69,69,69,trial,"['S', 'S', 'S', 'S', 'S', 'S', 'S', 'C', 'C', 'C', 'C', 'C', 'C', 'C', 'C', 'C', 'C', 'C', 'C', 'C', 'C', 'C', 'C']","[1496357, 1496680, 1497051, 1497480, 1497897, 1498294, 1498699, 1499085, 1499459, 1499873, 1500263, 1500680, 1501108, 1501501, 1501881, 1502266, 1502657, 1503077, 1503465, 1503850, 1504248, 1504654, 1505067]","[1496486, 1496898, 1497315, 1497757, 1498143, 1498540, 1498925, 1499298, 1499687, 1500088, 1500479, 1500897, 1501312, 1501700, 1502089, 1502480, 1502868, 1503266, 1503662, 1504051, 1504435, 1504836, 1505247]","[1495880, 1496281, 1496680, 1497080, 1497480, 1497880, 1498280, 1498680, 1499111, 1499485, 1499898, 1500289, 1500705, 1501133, 1501528, 1501906, 1502291, 1502684, 1503102, 1503491, 1503876, 1504274, 1504680, 1505093]",20,R,ITM,1.1,
2,600,trial,0,70,70,70,trial,"['S', 'S', 'S', 'S', 'S', 'S', 'S', 'S', 'C', 'C', 'C', 'C', 'C', 'C', 'C', 'C', 'C', 'C', 'C', 'C', 'C', 'C', 'C', 'C']","[1510596, 1510901, 1511591, 1512201, 1512802, 1513384, 1514022, 1514559, 1515160, 1515750, 1516317, 1516891, 1517467, 1518042, 1518602, 1519163, 1519749, 1520326, 1520874, 1521468, 1522019, 1522588, 1523138, 1523756]","[1510716, 1511288, 1511969, 1512521, 1513132, 1513705, 1514242, 1514857, 1515446, 1516046, 1516648, 1517189, 1517742, 1518316, 1519002, 1519483, 1519994, 1520563, 1521132, 1521708, 1522274, 1522808, 1523352, 1523954]","[1510402, 1511002, 1511602, 1512201, 1512800, 1513401, 1514001, 1514601, 1515188, 1515777, 1516344, 1516918, 1517494, 1518068, 1518628, 1519190, 1519775, 1520353, 1520902, 1521495, 1522046, 1522616, 1523165, 1523782]",20,R,ITM,1.1,
7,400,trial,0,71,71,71,trial,"['S', 'S', 'S', 'S', 'S', 'S', 'S', 'C', 'C', 'C', 'C', 'C', 'C', 'C', 'C', 'C', 'C', 'C', 'C', 'C', 'C', 'C', 'C']","[1529531, 1529930, 1530394, 1530849, 1531241, 1531662, 1532047, 1532484, 1532826, 1533268, 1533656, 1534091, 1534499, 1534897, 1535306, 1535715, 1536129, 1536566, 1536968, 1537391, 1537737, 1538164, 1538569]","[1529663, 1530085, 1530593, 1531040, 1531430, 1531878, 1532273, 1532693, 1533087, 1533458, 1533838, 1534248, 1534664, 1535112, 1535493, 1535923, 1536315, 1536740, 1537143, 1537536, 1537924, 1538341, 1538737]","[1529361, 1529760, 1530161, 1530560, 1530960, 1531360, 1531760, 1532161, 1532511, 1532853, 1533294, 1533682, 1534118, 1534527, 1534923, 1535333, 1535741, 1536155, 1536592, 1536995, 1537418, 1537764, 1538192, 1538596]",20,R,ITM,1.1,
7,600,trial,0,72,72,72,trial,"['S', 'S', 'S', 'S', 'S', 'S', 'S', 'S', 'C', 'C', 'C', 'C', 'C', 'C', 'C', 'C', 'C', 'C', 'C', 'C', 'C', 'C', 'C', 'C']","[1544348, 1544793, 1545299, 1545856, 1546474, 1547058, 1547673, 1548262, 1548858, 1549429, 1550009, 1550603, 1551248, 1551838, 1552416, 1553011, 1553574, 1554223, 1554817, 1555392, 1556006, 1556595, 1557191, 1557711]","[1544461, 1544955, 1545469, 1546066, 1546740, 1547370, 1547947, 1548544, 1549101, 1549657, 1550243, 1550920, 1551474, 1552076, 1552667, 1553267, 1553857, 1554469, 1555058, 1555642, 1556226, 1556825, 1557409, 1557977]","[1544134, 1544733, 1545333, 1545933, 1546533, 1547133, 1547734, 1548334, 1548886, 1549456, 1550036, 1550630, 1551275, 1551865, 1552443, 1553039, 1553602, 1554249, 1554843, 1555419, 1556034, 1556623, 1557218, 1557739]",20,R,ITM,1.1,
4,400,trial,0,73,73,73,trial,"['S', 'S', 'S', 'S', 'S', 'S', 'S', 'C', 'C', 'C', 'C', 'C', 'C', 'C', 'C', 'C', 'C', 'C', 'C', 'C', 'C', 'C', 'C']","[1563754, 1564110, 1564507, 1564954, 1565375, 1565789, 1566183, 1566546, 1566951, 1567347, 1567767, 1568157, 1568558, 1568942, 1569353, 1569756, 1570158, 1570566, 1570997, 1571381, 1571758, 1572111, 1572518]","[1563914, 1564340, 1564790, 1565215, 1565619, 1566025, 1566389, 1566771, 1567171, 1567556, 1567937, 1568356, 1568753, 1569126, 1569515, 1569939, 1570331, 1570739, 1571146, 1571525, 1571903, 1572265, 1572677]","[1563375, 1563776, 1564175, 1564575, 1564976, 1565375, 1565775, 1566175, 1566572, 1566977, 1567373, 1567793, 1568183, 1568583, 1568968, 1569380, 1569781, 1570184, 1570591, 1571022, 1571406, 1571783, 1572136, 1572544]",20,R,ITM,1.1,
6,600,trial,0,74,74,74,trial,"['S', 'S', 'S', 'S', 'S', 'S', 'S', 'S', 'C', 'C', 'C', 'C', 'C', 'C', 'C', 'C', 'C', 'C', 'C', 'C', 'C', 'C', 'C', 'C']","[1578419, 1578850, 1579319, 1579866, 1580471, 1581052, 1581638, 1582190, 1582816, 1583440, 1584051, 1584655, 1585231, 1585789, 1586388, 1586971, 1587561, 1588119, 1588720, 1589269, 1589863, 1590383, 1591015, 1591587]","[1578557, 1579003, 1579572, 1580226, 1580841, 1581417, 1581979, 1582524, 1583084, 1583697, 1584288, 1584880, 1585464, 1586075, 1586619, 1587178, 1587778, 1588366, 1588929, 1589510, 1590074, 1590669, 1591233, 1591813]","[1578135, 1578735, 1579335, 1579935, 1580535, 1581135, 1581735, 1582336, 1582842, 1583467, 1584077, 1584681, 1585258, 1585816, 1586416, 1586998, 1587588, 1588146, 1588747, 1589296, 1589890, 1590410, 1591042, 1591614]",20,R,ITM,1.1,
5,600,trial,0,75,75,75,trial,"['S', 'S', 'S', 'S', 'S', 'S', 'S', 'S', 'C', 'C', 'C', 'C', 'C', 'C', 'C', 'C', 'C', 'C', 'C', 'C', 'C', 'C', 'C', 'C']","[1597471, 1597882, 1598466, 1599049, 1599618, 1600245, 1600867, 1601406, 1601971, 1602543, 1603128, 1603678, 1604255, 1604832, 1605432, 1605977, 1606560, 1607118, 1607682, 1608241, 1608787, 1609321, 1609883, 1610424]","[1597559, 1598023, 1598631, 1599241, 1599826, 1600437, 1601068, 1601610, 1602197, 1602828, 1603387, 1603913, 1604485, 1605062, 1605654, 1606235, 1606811, 1607366, 1607906, 1608450, 1608996, 1609534, 1610094, 1610674]","[1597246, 1597845, 1598445, 1599045, 1599645, 1600245, 1600845, 1601445, 1601997, 1602570, 1603153, 1603703, 1604281, 1604857, 1605458, 1606002, 1606586, 1607145, 1607707, 1608266, 1608814, 1609347, 1609909, 1610449]",20,R,ITM,1.1,
2,400,trial,0,76,76,76,trial,"['S', 'S', 'S', 'S', 'S', 'S', 'S', 'S', 'C', 'C', 'C', 'C', 'C', 'C', 'C', 'C', 'C', 'C', 'C', 'C', 'C', 'C', 'C', 'C']","[1616058, 1616386, 1616705, 1617068, 1617470, 1617873, 1618274, 1618651, 1619043, 1619434, 1619850, 1620256, 1620639, 1621039, 1621448, 1621844, 1622283, 1622662, 1623085, 1623472, 1623876, 1624292, 1624679, 1625083]","[1616156, 1616541, 1616911, 1617297, 1617696, 1618099, 1618485, 1618856, 1619250, 1619648, 1620040, 1620432, 1620818, 1621203, 1621595, 1622007, 1622423, 1622835, 1623236, 1623645, 1624028, 1624422, 1624809, 1625219]","[1615861, 1616262, 1616660, 1617061, 1617461, 1617861, 1618260, 1618661, 1619070, 1619461, 1619877, 1620283, 1620667, 1621065, 1621475, 1621872, 1622309, 1622688, 1623112, 1623499, 1623904, 1624320, 1624707, 1625111]",20,R,ITM,1.1,
6,400,trial,0,77,77,77,trial,"['S', 'S', 'S', 'S', 'S', 'S', 'S', 'C', 'C', 'C', 'C', 'C', 'C', 'C', 'C', 'C', 'C', 'C', 'C', 'C', 'C', 'C', 'C']","[1630661, 1631075, 1631470, 1631918, 1632328, 1632732, 1633154, 1633552, 1633951, 1634316, 1634714, 1635129, 1635507, 1635908, 1636288, 1636673, 1637060, 1637464, 1637909, 1638295, 1638697, 1639072, 1639464]","[1630776, 1631232, 1631756, 1632151, 1632551, 1632941, 1633368, 1633763, 1634136, 1634486, 1634895, 1635292, 1635682, 1636070, 1636439, 1636826, 1637236, 1637624, 1638036, 1638451, 1638840, 1639234, 1639625]","[1630412, 1630812, 1631211, 1631611, 1632011, 1632411, 1632812, 1633211, 1633579, 1633979, 1634343, 1634741, 1635156, 1635533, 1635935, 1636315, 1636700, 1637087, 1637490, 1637936, 1638322, 1638725, 1639100, 1639491]",20,R,ITM,1.1,
6,400,trial,0,78,78,78,trial,"['S', 'S', 'S', 'S', 'S', 'S', 'S', 'C', 'C', 'C', 'C', 'C', 'C', 'C', 'C', 'C', 'C', 'C', 'C', 'C', 'C', 'C', 'C']","[1645547, 1645945, 1646358, 1646801, 1647236, 1647668, 1648068, 1648466, 1648886, 1649268, 1649652, 1649974, 1650377, 1650833, 1651287, 1651689, 1652127, 1652496, 1652972, 1653384, 1653811, 1654232, 1654630]","[1645668, 1646096, 1646563, 1647013, 1647471, 1647876, 1648263, 1648659, 1649056, 1649429, 1649809, 1650139, 1650566, 1651025, 1651471, 1651899, 1652321, 1652700, 1653141, 1653569, 1653992, 1654393, 1654784]","[1645268, 1645668, 1646068, 1646469, 1646868, 1647268, 1647668, 1648068, 1648493, 1648913, 1649296, 1649680, 1650000, 1650404, 1650861, 1651314, 1651716, 1652154, 1652523, 1653000, 1653410, 1653837, 1654259, 1654658]",20,R,ITM,1.1,
2,400,trial,0,79,79,79,trial,"['S', 'S', 'S', 'S', 'S', 'S', 'S', 'S', 'C', 'C', 'C', 'C', 'C', 'C', 'C', 'C', 'C', 'C', 'C', 'C', 'C', 'C', 'C', 'C']","[1660550, 1660900, 1661199, 1661563, 1661968, 1662346, 1662764, 1663183, 1663567, 1663940, 1664330, 1664734, 1665123, 1665532, 1665916, 1666313, 1666765, 1667162, 1667566, 1667952, 1668378, 1668754, 1669137, 1669556]","[1660657, 1661038, 1661387, 1661770, 1662152, 1662552, 1662979, 1663377, 1663735, 1664108, 1664513, 1664898, 1665271, 1665670, 1666059, 1666475, 1666894, 1667304, 1667694, 1668119, 1668515, 1668887, 1669299, 1669689]","[1660340, 1660740, 1661139, 1661539, 1661940, 1662341, 1662739, 1663140, 1663594, 1663968, 1664357, 1664761, 1665149, 1665560, 1665944, 1666340, 1666792, 1667188, 1667593, 1667979, 1668405, 1668781, 1669164, 1669583]",20,R,ITM,1.1,
4,400,trial,0,80,80,80,trial,"['S', 'S', 'S', 'S', 'S', 'S', 'S', 'S', 'C', 'C', 'C', 'C', 'C', 'C', 'C', 'C', 'C', 'C', 'C', 'C', 'C', 'C', 'C', 'C']","[1675180, 1675472, 1675804, 1676203, 1676573, 1676981, 1677391, 1677802, 1678219, 1678620, 1678991, 1679375, 1679769, 1680192, 1680617, 1681013, 1681426, 1681828, 1682217, 1682621, 1683028, 1683423, 1683840, 1684262]","[1675285, 1675608, 1676017, 1676422, 1676819, 1677237, 1677649, 1678054, 1678419, 1678810, 1679200, 1679596, 1679985, 1680397, 1680803, 1681188, 1681588, 1681974, 1682387, 1682799, 1683184, 1683596, 1684013, 1684426]","[1675002, 1675402, 1675802, 1676203, 1676602, 1677002, 1677403, 1677802, 1678244, 1678646, 1679016, 1679400, 1679795, 1680219, 1680644, 1681039, 1681452, 1681854, 1682244, 1682647, 1683054, 1683448, 1683865, 1684288]",20,R,ITM,1.1,
5,600,trial,0,81,81,81,trial,"['S', 'S', 'S', 'S', 'S', 'S', 'S', 'S', 'C', 'C', 'C', 'C', 'C', 'C', 'C', 'C', 'C', 'C', 'C', 'C', 'C', 'C', 'C', 'C']","[1690118, 1690501, 1691080, 1691639, 1692247, 1692836, 1693422, 1694013, 1694611, 1695207, 1695772, 1696337, 1696892, 1697488, 1698071, 1698637, 1699240, 1699829, 1700462, 1701113, 1701707, 1702317, 1702931, 1703563]","[1690208, 1690639, 1691242, 1691873, 1692531, 1693117, 1693718, 1694266, 1694880, 1695447, 1696010, 1696583, 1697145, 1697722, 1698335, 1698895, 1699577, 1700125, 1700755, 1701352, 1701968, 1702615, 1703225]","[1689878, 1690478, 1691078, 1691678, 1692278, 1692878, 1693478, 1694078, 1694637, 1695233, 1695798, 1696363, 1696918, 1697514, 1698097, 1698663, 1699266, 1699856, 1700488, 1701140, 1701733, 1702343, 1702957, 1703589]",20,R,ITM,1.1,
6,600,trial,0,82,82,82,trial,"['S', 'S', 'S', 'S', 'S', 'S', 'S', 'C', 'C', 'C', 'C', 'C', 'C', 'C', 'C', 'C', 'C', 'C', 'C', 'C', 'C', 'C', 'C']","[1709455, 1710123, 1710718, 1711346, 1711953, 1712605, 1713217, 1713832, 1714433, 1715026, 1715660, 1716273, 1716875, 1717472, 1718108, 1718773, 1719344, 1719901, 1720523, 1721093, 1721684, 1722256, 1722816]","[1709633, 1710270, 1710961, 1711641, 1712321, 1712903, 1713502, 1714143, 1714747, 1715424, 1716009, 1716670, 1717298, 1717878, 1718528, 1719146, 1719717, 1720327, 1720903, 1721474, 1721973, 1722521, 1723076]","[1709016, 1709616, 1710216, 1710816, 1711416, 1712016, 1712616, 1713216, 1713859, 1714459, 1715053, 1715687, 1716299, 1716901, 1717498, 1718134, 1718801, 1719371, 1719927, 1720550, 1721119, 1721711, 1722283, 1722843]",20,R,ITM,1.1,
5,400,trial,0,83,83,83,trial,"['S', 'S', 'S', 'S', 'S', 'S', 'S', 'S', 'C', 'C', 'C', 'C', 'C', 'C', 'C', 'C', 'C', 'C', 'C', 'C', 'C', 'C', 'C', 'C']","[1728740, 1729121, 1729441, 1729787, 1730166, 1730564, 1730976, 1731368, 1731736, 1732167, 1732564, 1732975, 1733355, 1733783, 1734191, 1734611, 1735045, 1735463, 1735845, 1736258, 1736665, 1737122, 1737534, 1737925]","[1728839, 1729276, 1729605, 1729969, 1730383, 1730776, 1731191, 1731559, 1731949, 1732346, 1732747, 1733147, 1733565, 1733986, 1734406, 1734818, 1735257, 1735644, 1736023, 1736433, 1736855, 1737296, 1737694, 1738084]","[1728564, 1728963, 1729363, 1729763, 1730163, 1730564, 1730963, 1731363, 1731763, 1732193, 1732590, 1733002, 1733381, 1733809, 1734216, 1734637, 1735070, 1735489, 1735871, 1736284, 1736691, 1737149, 1737560, 1737951]",20,R,ITM,1.1,
3,600,trial,0,84,84,84,trial,"['S', 'S', 'S', 'S', 'S', 'S', 'S', 'S', 'C', 'C', 'C', 'C', 'C', 'C', 'C', 'C', 'C', 'C', 'C', 'C', 'C', 'C', 'C', 'C']","[1743610, 1743915, 1744514, 1745162, 1745745, 1746325, 1746904, 1747502, 1748115, 1748691, 1749281, 1749832, 1750444, 1751045, 1751612, 1752178, 1752753, 1753348, 1753914, 1754492, 1755059, 1755607, 1756179, 1756743]","[1743736, 1744175, 1744923, 1745500, 1746083, 1746671, 1747340, 1747906, 1748453, 1749050, 1749583, 1750195, 1750759, 1751320, 1751878, 1752426, 1752989, 1753601, 1754165, 1754708, 1755315, 1755869, 1756428]","[1743363, 1743962, 1744562, 1745162, 1745762, 1746362, 1746962, 1747562, 1748141, 1748717, 1749307, 1749858, 1750469, 1751070, 1751638, 1752204, 1752778, 1753373, 1753939, 1754518, 1755084, 1755632, 1756205, 1756769]",20,R,ITM,1.1,
4,400,trial,0,85,85,85,trial,"['S', 'S', 'S', 'S', 'S', 'S', 'S', 'S', 'C', 'C', 'C', 'C', 'C', 'C', 'C', 'C', 'C', 'C', 'C', 'C', 'C', 'C', 'C', 'C']","[1762556, 1762923, 1763270, 1763598, 1764007, 1764400, 1764782, 1765178, 1765587, 1765992, 1766401, 1766824, 1767224, 1767649, 1768065, 1768465, 1768855, 1769280, 1769706, 1770127, 1770558, 1770988, 1771380, 1771806]","[1762672, 1763120, 1763456, 1763846, 1764239, 1764613, 1765014, 1765413, 1765823, 1766219, 1766639, 1767057, 1767472, 1767875, 1768263, 1768663, 1769028, 1769454, 1769873, 1770281, 1770701, 1771140, 1771549, 1771972]","[1762370, 1762769, 1763169, 1763569, 1763970, 1764369, 1764769, 1765170, 1765613, 1766018, 1766426, 1766850, 1767249, 1767675, 1768090, 1768491, 1768881, 1769306, 1769732, 1770152, 1770584, 1771014, 1771406, 1771832]",20,R,ITM,1.1,
7,400,trial,0,86,86,86,trial,"['S', 'S', 'S', 'S', 'S', 'S', 'S', 'S', 'C', 'C', 'C', 'C', 'C', 'C', 'C', 'C', 'C', 'C', 'C', 'C', 'C', 'C', 'C', 'C']","[1777639, 1777952, 1778260, 1778593, 1779004, 1779404, 1779831, 1780217, 1780622, 1781048, 1781426, 1781843, 1782267, 1782664, 1783083, 1783508, 1783911, 1784322, 1784737, 1785142, 1785569, 1785965, 1786398, 1786788]","[1777754, 1778108, 1778430, 1778835, 1779257, 1779651, 1780059, 1780484, 1780876, 1781271, 1781681, 1782075, 1782472, 1782861, 1783270, 1783686, 1784114, 1784504, 1784912, 1785316, 1785744, 1786140, 1786565, 1786977]","[1777405, 1777804, 1778204, 1778605, 1779004, 1779404, 1779805, 1780204, 1780649, 1781075, 1781453, 1781871, 1782295, 1782690, 1783109, 1783536, 1783939, 1784348, 1784764, 1785169, 1785595, 1785992, 1786425, 1786815]",20,R,ITM,1.1,
7,400,trial,0,87,87,87,trial,"['S', 'S', 'S', 'S', 'S', 'S', 'S', 'C', 'C', 'C', 'C', 'C', 'C', 'C', 'C', 'C', 'C', 'C', 'C', 'C', 'C', 'C', 'C']","[1792385, 1792805, 1793212, 1793653, 1794081, 1794503, 1794902, 1795308, 1795706, 1796109, 1796538, 1796928, 1797342, 1797730, 1798130, 1798523, 1798946, 1799344, 1799768, 1800158, 1800569, 1800945, 1801354]","[1792552, 1793000, 1793492, 1793937, 1794349, 1794744, 1795127, 1795529, 1795927, 1796303, 1796728, 1797160, 1797521, 1797897, 1798319, 1798719, 1799126, 1799513, 1799947, 1800341, 1800711, 1801132, 1801547]","[1792129, 1792528, 1792928, 1793329, 1793728, 1794128, 1794528, 1794928, 1795335, 1795733, 1796135, 1796566, 1796955, 1797368, 1797756, 1798157, 1798551, 1798973, 1799370, 1799795, 1800184, 1800596, 1800973, 1801380]",20,R,ITM,1.1,
5,600,trial,0,88,88,88,trial,"['S', 'S', 'S', 'S', 'S', 'S', 'S', 'S', 'C', 'C', 'C', 'C', 'C', 'C', 'C', 'C', 'C', 'C', 'C', 'C', 'C', 'C', 'C', 'C']","[1807365, 1807892, 1808368, 1808892, 1809468, 1810067, 1810698, 1811311, 1811894, 1812505, 1813106, 1813725, 1814333, 1814928, 1815518, 1816102, 1816677, 1817257, 1817826, 1818425, 1819041, 1819648, 1820252, 1820786]","[1807508, 1808033, 1808524, 1809131, 1809767, 1810366, 1810992, 1811590, 1812191, 1812766, 1813386, 1813965, 1814561, 1815129, 1815740, 1816297, 1816882, 1817455, 1818062, 1818665, 1819269, 1819855, 1820445, 1821038]","[1807125, 1807725, 1808325, 1808925, 1809525, 1810125, 1810725, 1811325, 1811919, 1812532, 1813132, 1813750, 1814359, 1814953, 1815543, 1816128, 1816702, 1817283, 1817851, 1818450, 1819067, 1819673, 1820278, 1820812]",20,R,ITM,1.1,
5,400,trial,0,89,89,89,trial,"['S', 'S', 'S', 'S', 'S', 'S', 'S', 'C', 'C', 'C', 'C', 'C', 'C', 'C', 'C', 'C', 'C', 'C', 'C', 'C', 'C', 'C', 'C']","[1826511, 1826959, 1827349, 1827791, 1828239, 1828666, 1829073, 1829477, 1829881, 1830260, 1830659, 1831095, 1831485, 1831903, 1832281, 1832716, 1833126, 1833506, 1833938, 1834354, 1834777, 1835183, 1835638]","[1826617, 1827109, 1827596, 1828076, 1828518, 1828929, 1829315, 1829716, 1830108, 1830487, 1830871, 1831278, 1831664, 1832038, 1832435, 1832901, 1833283, 1833680, 1834123, 1834535, 1834951, 1835352, 1835800]","[1826240, 1826639, 1827039, 1827439, 1827840, 1828239, 1828639, 1829040, 1829502, 1829907, 1830287, 1830684, 1831120, 1831511, 1831928, 1832306, 1832742, 1833152, 1833532, 1833965, 1834381, 1834803, 1835208, 1835664]",20,R,ITM,1.1,
7,600,trial,0,90,90,90,trial,"['S', 'S', 'S', 'S', 'S', 'S', 'S', 'S', 'C', 'C', 'C', 'C', 'C', 'C', 'C', 'C', 'C', 'C', 'C', 'C', 'C', 'C', 'C', 'C']","[1841703, 1842238, 1842691, 1843142, 1843713, 1844341, 1844955, 1845529, 1846129, 1846709, 1847298, 1847912, 1848526, 1849097, 1849718, 1850293, 1850883, 1851435, 1852035, 1852661, 1853256, 1853873, 1854457, 1855071]","[1841876, 1842368, 1842945, 1843535, 1844166, 1844774, 1845317, 1845926, 1846505, 1847077, 1847586, 1848251, 1848806, 1849376, 1849945, 1850585, 1851152, 1851794, 1852386, 1852986, 1853579, 1854124, 1854803]","[1841342, 1841941, 1842541, 1843141, 1843741, 1844341, 1844941, 1845541, 1846156, 1846735, 1847324, 1847940, 1848554, 1849124, 1849745, 1850319, 1850909, 1851461, 1852062, 1852689, 1853284, 1853899, 1854485, 1855097]",20,R,ITM,1.1,
4,600,trial,0,91,91,91,trial,"['S', 'S', 'S', 'S', 'S', 'S', 'S', 'C', 'C', 'C', 'C', 'C', 'C', 'C', 'C', 'C', 'C', 'C', 'C', 'C', 'C', 'C', 'C']","[1860874, 1861410, 1862036, 1862738, 1863386, 1863997, 1864615, 1865236, 1865838, 1866475, 1867051, 1867667, 1868279, 1868890, 1869458, 1870060, 1870661, 1871307, 1871917, 1872500, 1873073, 1873669, 1874238]","[1861033, 1861657, 1862340, 1863119, 1863788, 1864428, 1865023, 1865601, 1866203, 1866765, 1867409, 1868080, 1868667, 1869212, 1869843, 1870350, 1870927, 1871598, 1872208, 1872803, 1873409, 1874025]","[1860450, 1861049, 1861649, 1862249, 1862849, 1863449, 1864049, 1864649, 1865262, 1865864, 1866501, 1867076, 1867693, 1868305, 1868915, 1869484, 1870086, 1870687, 1871333, 1871942, 1872526, 1873098, 1873694, 1874264]",20,R,ITM,1.1,
2,400,trial,0,92,92,92,trial,"['S', 'S', 'S', 'S', 'S', 'S', 'S', 'S', 'C', 'C', 'C', 'C', 'C', 'C', 'C', 'C', 'C', 'C', 'C', 'C', 'C', 'C', 'C', 'C']","[1880122, 1880481, 1880817, 1881157, 1881558, 1881942, 1882371, 1882758, 1883165, 1883590, 1883997, 1884420, 1884829, 1885252, 1885688, 1886098, 1886547, 1886969, 1887367, 1887761, 1888189, 1888605, 1889024, 1889455]","[1880245, 1880671, 1881010, 1881405, 1881801, 1882232, 1882620, 1883029, 1883460, 1883859, 1884254, 1884652, 1885070, 1885479, 1885918, 1886331, 1886740, 1887172, 1887564, 1887978, 1888376, 1888822, 1889218, 1889655]","[1879957, 1880357, 1880757, 1881156, 1881558, 1881957, 1882356, 1882758, 1883193, 1883618, 1884024, 1884447, 1884857, 1885280, 1885715, 1886126, 1886574, 1886997, 1887393, 1887789, 1888216, 1888632, 1889051, 1889482]",20,R,ITM,1.1,
3,400,trial,0,93,93,93,trial,"['S', 'S', 'S', 'S', 'S', 'S', 'S', 'S', 'C', 'C', 'C', 'C', 'C', 'C', 'C', 'C', 'C', 'C', 'C', 'C', 'C', 'C', 'C', 'C']","[1895340, 1895708, 1896005, 1896352, 1896751, 1897137, 1897549, 1897949, 1898343, 1898747, 1899159, 1899538, 1899952, 1900380, 1900779, 1901181, 1901586, 1902007, 1902427, 1902839, 1903269, 1903689, 1904112, 1904519]","[1895457, 1895839, 1896216, 1896599, 1896994, 1897391, 1897779, 1898179, 1898586, 1898983, 1899362, 1899746, 1900147, 1900559, 1900963, 1901379, 1901776, 1902168, 1902597, 1903012, 1903464, 1903899, 1904302, 1904713]","[1895149, 1895549, 1895949, 1896349, 1896750, 1897149, 1897549, 1897949, 1898369, 1898773, 1899185, 1899564, 1899977, 1900405, 1900805, 1901207, 1901612, 1902032, 1902452, 1902865, 1903295, 1903716, 1904138, 1904544]",20,R,ITM,1.1,
3,600,trial,0,94,94,94,trial,"['S', 'S', 'S', 'S', 'S', 'S', 'S', 'S', 'C', 'C', 'C', 'C', 'C', 'C', 'C', 'C', 'C', 'C', 'C', 'C', 'C', 'C', 'C', 'C']","[1910243, 1910537, 1911260, 1911858, 1912427, 1913013, 1913631, 1914242, 1914835, 1915421, 1915998, 1916571, 1917147, 1917751, 1918282, 1918909, 1919538, 1920137, 1920730, 1921280, 1921870, 1922415, 1923008, 1923567]","[1910341, 1910839, 1911539, 1912202, 1912762, 1913350, 1913972, 1914575, 1915121, 1915707, 1916260, 1916853, 1917389, 1917975, 1918537, 1919167, 1919773, 1920333, 1920957, 1921492, 1922100, 1922636, 1923221, 1923800]","[1910059, 1910659, 1911259, 1911858, 1912458, 1913058, 1913658, 1914258, 1914861, 1915447, 1916023, 1916597, 1917172, 1917776, 1918308, 1918935, 1919563, 1920162, 1920755, 1921306, 1921896, 1922441, 1923034, 1923593]",20,R,ITM,1.1,
6,600,trial,0,95,95,95,trial,"['S', 'S', 'S', 'S', 'S', 'S', 'S', 'S', 'C', 'C', 'C', 'C', 'C', 'C', 'C', 'C', 'C', 'C', 'C', 'C', 'C', 'C', 'C', 'C']","[1929397, 1929959, 1930451, 1931027, 1931577, 1932187, 1932834, 1933427, 1934075, 1934707, 1935363, 1936014, 1936651, 1937246, 1937837, 1938494, 1939112, 1939807, 1940453, 1941138, 1941766, 1942366, 1943057, 1943738]","[1929523, 1930093, 1930637, 1931226, 1931836, 1932508, 1933104, 1933762, 1934418, 1935092, 1935695, 1936291, 1936911, 1937555, 1938132, 1938760, 1939388, 1940133, 1940840, 1941458, 1942122, 1942778, 1943410]","[1929202, 1929802, 1930402, 1931002, 1931602, 1932203, 1932803, 1933403, 1934102, 1934734, 1935389, 1936041, 1936678, 1937272, 1937864, 1938521, 1939139, 1939833, 1940481, 1941166, 1941793, 1942392, 1943084, 1943764]",20,R,ITM,1.1,
2,600,trial,0,96,96,96,trial,"['S', 'S', 'S', 'S', 'S', 'S', 'S', 'S', 'C', 'C', 'C', 'C', 'C', 'C', 'C', 'C', 'C', 'C', 'C', 'C', 'C', 'C', 'C', 'C']","[1949652, 1950193, 1950675, 1951284, 1951897, 1952476, 1953076, 1953676, 1954265, 1954854, 1955425, 1956027, 1956643, 1957255, 1957844, 1958464, 1959086, 1959706, 1960306, 1960937, 1961601, 1962245, 1962882, 1963469]","[1949782, 1950321, 1950987, 1951640, 1952252, 1952848, 1953426, 1954026, 1954589, 1955156, 1955766, 1956392, 1956998, 1957606, 1958225, 1958825, 1959452, 1960024, 1960670, 1961273, 1961913, 1962501, 1963072, 1963679]","[1949475, 1950075, 1950675, 1951275, 1951876, 1952476, 1953076, 1953675, 1954291, 1954881, 1955452, 1956055, 1956670, 1957282, 1957871, 1958491, 1959113, 1959733, 1960333, 1960965, 1961628, 1962272, 1962909, 1963497]",20,R,ITM,1.1,
6,400,trial,0,97,97,97,trial,"['S', 'S', 'S', 'S', 'S', 'S', 'S', 'S', 'C', 'C', 'C', 'C', 'C', 'C', 'C', 'C', 'C', 'C', 'C', 'C', 'C', 'C', 'C', 'C']","[1969050, 1969414, 1969753, 1970094, 1970506, 1970910, 1971277, 1971664, 1972054, 1972464, 1972871, 1973274, 1973670, 1974093, 1974477, 1974877, 1975300, 1975716, 1976114, 1976501, 1976909, 1977317, 1977759, 1978157]","[1969172, 1969574, 1969920, 1970327, 1970731, 1971104, 1971478, 1971853, 1972269, 1972653, 1973069, 1973455, 1973872, 1974262, 1974628, 1975045, 1975435, 1975854, 1976246, 1976629, 1977067, 1977468, 1977891, 1978293]","[1968857, 1969255, 1969655, 1970056, 1970456, 1970856, 1971256, 1971656, 1972080, 1972491, 1972897, 1973302, 1973697, 1974120, 1974504, 1974904, 1975327, 1975744, 1976140, 1976528, 1976936, 1977344, 1977786, 1978183]",20,R,ITM,1.1,
2,600,trial,0,98,98,98,trial,"['S', 'S', 'S', 'S', 'S', 'S', 'S', 'S', 'C', 'C', 'C', 'C', 'C', 'C', 'C', 'C', 'C', 'C', 'C', 'C', 'C', 'C', 'C', 'C']","[1983671, 1983981, 1984664, 1985303, 1985932, 1986495, 1987058, 1987649, 1988255, 1988832, 1989407, 1990002, 1990586, 1991147, 1991723, 1992272, 1992909, 1993454, 1994063, 1994602, 1995258, 1995774, 1996428, 1996984]","[1983782, 1984148, 1984951, 1985659, 1986209, 1986739, 1987332, 1987975, 1988525, 1989097, 1989637, 1990181, 1990730, 1991298, 1991890, 1992437, 1993052, 1993617, 1994219, 1994752, 1995405, 1995973, 1996577, 1997143]","[1983495, 1984095, 1984694, 1985295, 1985895, 1986495, 1987095, 1987695, 1988283, 1988859, 1989435, 1990029, 1990612, 1991175, 1991749, 1992300, 1992937, 1993481, 1994091, 1994630, 1995285, 1995802, 1996455, 1997010]",20,R,ITM,1.1,
7,600,trial,0,99,99,99,trial,"['S', 'S', 'S', 'S', 'S', 'S', 'S', 'C', 'C', 'C', 'C', 'C', 'C', 'C', 'C', 'C', 'C', 'C', 'C', 'C', 'C', 'C', 'C']","[2003256, 2003865, 2004474, 2005132, 2005756, 2006322, 2006893, 2007506, 2008098, 2008681, 2009277, 2009885, 2010479, 2011052, 2011603, 2012201, 2012814, 2013375, 2014002, 2014583, 2015186, 2015752, 2016346]","[2003402, 2004231, 2004908, 2005501, 2006025, 2006606, 2007250, 2007767, 2008347, 2008919, 2009502, 2010120, 2010682, 2011259, 2011794, 2012427, 2012999, 2013590, 2014194, 2014785, 2015384, 2015980, 2016532]","[2002733, 2003332, 2003932, 2004531, 2005131, 2005731, 2006331, 2006931, 2007533, 2008125, 2008708, 2009305, 2009912, 2010506, 2011078, 2011630, 2012228, 2012840, 2013403, 2014028, 2014610, 2015213, 2015778, 2016372]",20,R,ITM,1.1,
3,400,trial,0,100,100,100,trial,"['S', 'S', 'S', 'S', 'S', 'S', 'S', 'S', 'C', 'C', 'C', 'C', 'C', 'C', 'C', 'C', 'C', 'C', 'C', 'C', 'C', 'C', 'C', 'C']","[2022288, 2022638, 2022983, 2023327, 2023732, 2024116, 2024514, 2024933, 2025333, 2025750, 2026150, 2026548, 2026959, 2027375, 2027770, 2028191, 2028598, 2029023, 2029453, 2029862, 2030306, 2030710, 2031133, 2031542]","[2022382, 2022806, 2023147, 2023516, 2023928, 2024328, 2024736, 2025117, 2025545, 2025930, 2026326, 2026736, 2027139, 2027536, 2027956, 2028363, 2028769, 2029194, 2029630, 2030047, 2030476, 2030879, 2031299, 2031682]","[2022109, 2022509, 2022909, 2023309, 2023709, 2024110, 2024509, 2024909, 2025359, 2025776, 2026176, 2026573, 2026985, 2027401, 2027796, 2028217, 2028623, 2029048, 2029478, 2029888, 2030331, 2030736, 2031159, 2031567]",20,R,ITM,1.1,
4,600,trial,0,101,101,101,trial,"['S', 'S', 'S', 'S', 'S', 'S', 'S', 'C', 'C', 'C', 'C', 'C', 'C', 'C', 'C', 'C', 'C', 'C', 'C', 'C', 'C', 'C', 'C']","[2037528, 2038232, 2038897, 2039538, 2040116, 2040720, 2041307, 2041904, 2042509, 2043098, 2043716, 2044286, 2044906, 2045522, 2046102, 2046743, 2047374, 2047992, 2048605, 2049354, 2049968, 2050612, 2051216]","[2037788, 2038510, 2039177, 2039811, 2040375, 2040973, 2041604, 2042168, 2042811, 2043346, 2043939, 2044551, 2045177, 2045767, 2046358, 2046969, 2047600, 2048241, 2048852, 2049592, 2050268, 2050898, 2051458]","[2037130, 2037729, 2038329, 2038929, 2039529, 2040129, 2040729, 2041329, 2041929, 2042534, 2043124, 2043742, 2044312, 2044932, 2045548, 2046128, 2046769, 2047399, 2048018, 2048631, 2049380, 2049993, 2050637, 2051241]",20,R,ITM,1.1,
5,600,trial,0,102,102,102,trial,"['S', 'S', 'S', 'S', 'S', 'S', 'S', 'C', 'C', 'C', 'C', 'C', 'C', 'C', 'C', 'C', 'C', 'C', 'C', 'C', 'C', 'C', 'C']","[2057115, 2057753, 2058408, 2059002, 2059591, 2060176, 2060746, 2061344, 2062015, 2062612, 2063212, 2063821, 2064419, 2065046, 2065686, 2066308, 2066945, 2067565, 2068214, 2068839, 2069458, 2070064, 2070636]","[2057335, 2058000, 2058681, 2059272, 2059851, 2060467, 2061022, 2061623, 2062251, 2062852, 2063453, 2064135, 2064738, 2065349, 2065970, 2066600, 2067227, 2067881, 2068489, 2069093, 2069703, 2070335, 2070855]","[2056630, 2057229, 2057829, 2058429, 2059029, 2059629, 2060229, 2060829, 2061370, 2062041, 2062638, 2063238, 2063847, 2064445, 2065072, 2065712, 2066333, 2066970, 2067591, 2068241, 2068865, 2069484, 2070089, 2070662]",20,R,ITM,1.1,
4,600,trial,0,103,103,103,trial,"['S', 'S', 'S', 'S', 'S', 'S', 'S', 'S', 'C', 'C', 'C', 'C', 'C', 'C', 'C', 'C', 'C', 'C', 'C', 'C', 'C', 'C', 'C', 'C']","[2076556, 2076941, 2077539, 2078134, 2078755, 2079334, 2079952, 2080515, 2081085, 2081709, 2082350, 2082972, 2083543, 2084134, 2084737, 2085327, 2085971, 2086598, 2087215, 2087870, 2088450, 2089054, 2089616, 2090192]","[2076667, 2077247, 2077917, 2078508, 2079095, 2079774, 2080328, 2080828, 2081391, 2082061, 2082678, 2083274, 2083875, 2084448, 2085031, 2085688, 2086300, 2086857, 2087457, 2088093, 2088721, 2089278, 2089845, 2090451]","[2076353, 2076952, 2077552, 2078152, 2078752, 2079352, 2079952, 2080552, 2081111, 2081734, 2082375, 2082998, 2083568, 2084160, 2084762, 2085353, 2085997, 2086625, 2087240, 2087896, 2088475, 2089079, 2089641, 2090219]",20,R,ITM,1.1,
5,400,trial,0,104,104,104,trial,"['S', 'S', 'S', 'S', 'S', 'S', 'S', 'S', 'C', 'C', 'C', 'C', 'C', 'C', 'C', 'C', 'C', 'C', 'C', 'C', 'C', 'C', 'C', 'C']","[2096175, 2096523, 2096871, 2097193, 2097587, 2097987, 2098387, 2098832, 2099215, 2099615, 2100024, 2100424, 2100813, 2101242, 2101623, 2101998, 2102408, 2102784, 2103191, 2103559, 2103954, 2104338, 2104737, 2105108]","[2096260, 2096658, 2097015, 2097386, 2097801, 2098197, 2098659, 2099047, 2099448, 2099863, 2100241, 2100637, 2101017, 2101414, 2101793, 2102166, 2102557, 2102959, 2103346, 2103739, 2104117, 2104530, 2104908, 2105278]","[2095987, 2096388, 2096787, 2097187, 2097587, 2097987, 2098387, 2098787, 2099241, 2099642, 2100049, 2100450, 2100839, 2101269, 2101649, 2102025, 2102433, 2102809, 2103217, 2103584, 2103980, 2104365, 2104764, 2105135]",20,R,ITM,1.1,
6,600,trial,0,105,105,105,trial,"['S', 'S', 'S', 'S', 'S', 'S', 'S', 'S', 'C', 'C', 'C', 'C', 'C', 'C', 'C', 'C', 'C', 'C', 'C', 'C', 'C', 'C', 'C', 'C']","[2110988, 2111332, 2111998, 2112589, 2113203, 2113789, 2114367, 2114923, 2115550, 2116106, 2116719, 2117268, 2117878, 2118443, 2119001, 2119582, 2120184, 2120763, 2121366, 2121942, 2122536, 2123131, 2123727, 2124309]","[2111074, 2111457, 2112219, 2112868, 2113463, 2114050, 2114643, 2115231, 2115817, 2116366, 2116957, 2117523, 2118092, 2118659, 2119213, 2119857, 2120444, 2121077, 2121670, 2122207, 2122791, 2123373, 2123942, 2124536]","[2110789, 2111389, 2111989, 2112589, 2113189, 2113789, 2114390, 2114990, 2115576, 2116132, 2116746, 2117296, 2117906, 2118470, 2119028, 2119609, 2120211, 2120790, 2121393, 2121968, 2122563, 2123158, 2123754, 2124336]",20,R,ITM,1.1,
7,600,trial,0,106,106,106,trial,"['S', 'S', 'S', 'S', 'S', 'S', 'S', 'S', 'C', 'C', 'C', 'C', 'C', 'C', 'C', 'C', 'C', 'C', 'C', 'C', 'C', 'C', 'C', 'C']","[2130004, 2130394, 2130956, 2131550, 2132129, 2132714, 2133366, 2133966, 2134537, 2135133, 2135743, 2136345, 2136955, 2137549, 2138199, 2138797, 2139393, 2140022, 2140695, 2141291, 2141855, 2142456, 2143034, 2143626]","[2130129, 2130558, 2131165, 2131914, 2132449, 2133076, 2133652, 2134200, 2134804, 2135367, 2135998, 2136629, 2137236, 2137908, 2138516, 2139088, 2139763, 2140416, 2141026, 2141604, 2142197, 2142752, 2143309]","[2129795, 2130394, 2130994, 2131593, 2132193, 2132793, 2133393, 2133993, 2134563, 2135159, 2135771, 2136372, 2136982, 2137576, 2138225, 2138824, 2139419, 2140050, 2140723, 2141319, 2141883, 2142483, 2143062, 2143652]",20,R,ITM,1.1,
3,400,trial,0,107,107,107,trial,"['S', 'S', 'S', 'S', 'S', 'S', 'S', 'S', 'C', 'C', 'C', 'C', 'C', 'C', 'C', 'C', 'C', 'C', 'C', 'C', 'C', 'C', 'C', 'C']","[2149350, 2149685, 2150010, 2150390, 2150781, 2151175, 2151592, 2151989, 2152387, 2152797, 2153179, 2153576, 2153976, 2154361, 2154762, 2155153, 2155541, 2155971, 2156358, 2156768, 2157168, 2157583, 2157979, 2158400]","[2149477, 2149862, 2150247, 2150633, 2151028, 2151437, 2151839, 2152260, 2152653, 2153024, 2153393, 2153799, 2154166, 2154571, 2154971, 2155377, 2155787, 2156147, 2156549, 2156948, 2157363, 2157762, 2158176, 2158555]","[2149157, 2149556, 2149956, 2150356, 2150756, 2151156, 2151557, 2151956, 2152413, 2152822, 2153204, 2153602, 2154002, 2154387, 2154788, 2155179, 2155567, 2155997, 2156384, 2156793, 2157194, 2157608, 2158005, 2158426]",20,R,ITM,1.1,
6,600,trial,0,108,108,108,trial,"['S', 'S', 'S', 'S', 'S', 'S', 'S', 'S', 'C', 'C', 'C', 'C', 'C', 'C', 'C', 'C', 'C', 'C', 'C', 'C', 'C', 'C', 'C', 'C']","[2164420, 2164864, 2165256, 2165785, 2166329, 2166942, 2167528, 2168103, 2168721, 2169330, 2169886, 2170476, 2171074, 2171609, 2172196, 2172765, 2173362, 2173885, 2174479, 2175028, 2175625, 2176234, 2176828, 2177390]","[2164677, 2165042, 2165595, 2166130, 2166739, 2167280, 2167881, 2168460, 2169028, 2169606, 2170137, 2170743, 2171309, 2171819, 2172439, 2173032, 2173573, 2174114, 2174701, 2175246, 2175850, 2176466, 2177030, 2177615]","[2164037, 2164636, 2165236, 2165836, 2166436, 2167036, 2167636, 2168237, 2168748, 2169357, 2169913, 2170503, 2171101, 2171635, 2172224, 2172792, 2173388, 2173912, 2174505, 2175054, 2175651, 2176262, 2176855, 2177417]",20,R,ITM,1.1,
2,600,trial,0,109,109,109,trial,"['S', 'S', 'S', 'S', 'S', 'S', 'S', 'S', 'C', 'C', 'C', 'C', 'C', 'C', 'C', 'C', 'C', 'C', 'C', 'C', 'C', 'C', 'C', 'C']","[2183324, 2183642, 2184308, 2184931, 2185538, 2186113, 2186724, 2187266, 2187889, 2188477, 2189034, 2189584, 2190214, 2190806, 2191384, 2191971, 2192564, 2193111, 2193708, 2194298, 2194860, 2195503, 2196069, 2196668]","[2183417, 2184114, 2184729, 2185340, 2185889, 2186488, 2187033, 2187551, 2188140, 2188720, 2189287, 2189873, 2190444, 2191044, 2191613, 2192191, 2192796, 2193384, 2193989, 2194600, 2195190, 2195764, 2196341, 2196902]","[2183123, 2183723, 2184323, 2184924, 2185523, 2186124, 2186724, 2187324, 2187917, 2188504, 2189062, 2189612, 2190241, 2190833, 2191411, 2191997, 2192590, 2193138, 2193735, 2194326, 2194887, 2195530, 2196097, 2196696]",20,R,ITM,1.1,
5,600,trial,0,110,110,110,trial,"['S', 'S', 'S', 'S', 'S', 'S', 'S', 'C', 'C', 'C', 'C', 'C', 'C', 'C', 'C', 'C', 'C', 'C', 'C', 'C', 'C', 'C', 'C']","[2202869, 2203503, 2204140, 2204752, 2205341, 2205958, 2206557, 2207121, 2207714, 2208356, 2208940, 2209558, 2210158, 2210750, 2211336, 2211935, 2212498, 2213124, 2213730, 2214345, 2214990, 2215590, 2216226]","[2203097, 2203907, 2204533, 2205120, 2205706, 2206292, 2206859, 2207440, 2208004, 2208628, 2209251, 2209887, 2210465, 2211036, 2211650, 2212247, 2212927, 2213470, 2214031, 2214635, 2215290, 2215892]","[2202386, 2202985, 2203585, 2204185, 2204785, 2205385, 2205985, 2206585, 2207147, 2207740, 2208381, 2208965, 2209584, 2210184, 2210776, 2211362, 2211960, 2212524, 2213149, 2213755, 2214372, 2215016, 2215617, 2216252]",20,R,ITM,1.1,
3,600,trial,0,111,111,111,trial,"['S', 'S', 'S', 'S', 'S', 'S', 'S', 'C', 'C', 'C', 'C', 'C', 'C', 'C', 'C', 'C', 'C', 'C', 'C', 'C', 'C', 'C', 'C']","[2222339, 2223012, 2223599, 2224224, 2224823, 2225426, 2226012, 2226619, 2227220, 2227834, 2228417, 2229044, 2229609, 2230172, 2230777, 2231342, 2231949, 2232549, 2233136, 2233773, 2234415, 2235005, 2235625]","[2222555, 2223360, 2224017, 2224627, 2225204, 2225775, 2226318, 2226938, 2227535, 2228102, 2228696, 2229311, 2229883, 2230505, 2231097, 2231716, 2232218, 2232830, 2233494, 2234131, 2234676, 2235341]","[2221867, 2222466, 2223066, 2223666, 2224266, 2224866, 2225466, 2226066, 2226644, 2227246, 2227860, 2228443, 2229069, 2229635, 2230198, 2230803, 2231367, 2231974, 2232574, 2233161, 2233798, 2234440, 2235031, 2235651]",20,R,ITM,1.1,
4,600,trial,0,112,112,112,trial,"['S', 'S', 'S', 'S', 'S', 'S', 'S', 'S', 'C', 'C', 'C', 'C', 'C', 'C', 'C', 'C', 'C', 'C', 'C', 'C', 'C', 'C', 'C', 'C']","[2241608, 2242053, 2242538, 2243124, 2243720, 2244338, 2244965, 2245599, 2246189, 2246816, 2247427, 2247990, 2248628, 2249227, 2249856, 2250481, 2251066, 2251698, 2252279, 2252875, 2253524, 2254078, 2254707, 2255224]","[2241746, 2242279, 2242919, 2243534, 2244160, 2244774, 2245405, 2245968, 2246551, 2247169, 2247776, 2248368, 2248923, 2249545, 2250223, 2250797, 2251483, 2252008, 2252572, 2253217, 2253784, 2254316, 2254957]","[2241375, 2241974, 2242574, 2243174, 2243774, 2244374, 2244974, 2245574, 2246214, 2246842, 2247452, 2248015, 2248653, 2249252, 2249881, 2250507, 2251091, 2251723, 2252305, 2252901, 2253550, 2254104, 2254733, 2255250]",20,R,ITM,1.1,
4,400,trial,0,113,113,113,trial,"['S', 'S', 'S', 'S', 'S', 'S', 'S', 'C', 'C', 'C', 'C', 'C', 'C', 'C', 'C', 'C', 'C', 'C', 'C', 'C', 'C', 'C', 'C']","[2261377, 2261728, 2262098, 2262502, 2262919, 2263331, 2263711, 2264122, 2264521, 2264961, 2265366, 2265794, 2266189, 2266586, 2266957, 2267363, 2267724, 2268135, 2268513, 2268900, 2269294, 2269681, 2270059]","[2261537, 2261921, 2262318, 2262745, 2263158, 2263555, 2263942, 2264346, 2264755, 2265185, 2265567, 2265981, 2266379, 2266779, 2267156, 2267535, 2267937, 2268315, 2268702, 2269092, 2269485, 2269888, 2270267]","[2260919, 2261319, 2261720, 2262119, 2262519, 2262919, 2263319, 2263719, 2264147, 2264547, 2264986, 2265392, 2265820, 2266216, 2266611, 2266983, 2267388, 2267750, 2268161, 2268538, 2268925, 2269320, 2269707, 2270085]",20,R,ITM,1.1,
3,600,trial,0,114,114,114,trial,"['S', 'S', 'S', 'S', 'S', 'S', 'S', 'S', 'C', 'C', 'C', 'C', 'C', 'C', 'C', 'C', 'C', 'C', 'C', 'C', 'C', 'C', 'C', 'C']","[2275772, 2276109, 2276762, 2277387, 2277988, 2278587, 2279152, 2279776, 2280440, 2281053, 2281647, 2282276, 2282891, 2283526, 2284161, 2284744, 2285363, 2285955, 2286559, 2287104, 2287738, 2288370, 2289004, 2289585]","[2275900, 2276562, 2277232, 2277833, 2278401, 2278894, 2279494, 2280187, 2280802, 2281425, 2282000, 2282641, 2283203, 2283886, 2284444, 2285066, 2285666, 2286241, 2286825, 2287497, 2288088, 2288675, 2289264]","[2275614, 2276214, 2276814, 2277414, 2278014, 2278615, 2279215, 2279815, 2280466, 2281078, 2281672, 2282302, 2282916, 2283551, 2284186, 2284770, 2285388, 2285980, 2286584, 2287129, 2287764, 2288396, 2289030, 2289610]",20,R,ITM,1.1,
2,600,trial,0,115,115,115,trial,"['S', 'S', 'S', 'S', 'S', 'S', 'S', 'S', 'C', 'C', 'C', 'C', 'C', 'C', 'C', 'C', 'C', 'C', 'C', 'C', 'C', 'C', 'C', 'C']","[2295374, 2295854, 2296537, 2297157, 2297758, 2298356, 2298976, 2299541, 2300137, 2300737, 2301322, 2301904, 2302524, 2303097, 2303698, 2304284, 2304863, 2305461, 2306050, 2306665, 2307295, 2307921, 2308530, 2309173]","[2295398, 2296152, 2296853, 2297474, 2298109, 2298747, 2299303, 2299899, 2300451, 2301041, 2301684, 2302242, 2302770, 2303364, 2303941, 2304527, 2305107, 2305682, 2306295, 2306904, 2307494, 2308213, 2308845]","[2295356, 2295956, 2296556, 2297155, 2297756, 2298356, 2298956, 2299556, 2300165, 2300765, 2301349, 2301932, 2302552, 2303125, 2303725, 2304312, 2304889, 2305487, 2306077, 2306692, 2307321, 2307948, 2308557, 2309199]",20,R,ITM,1.1,
3,400,trial,0,116,116,116,trial,"['S', 'S', 'S', 'S', 'S', 'S', 'S', 'S', 'C', 'C', 'C', 'C', 'C', 'C', 'C', 'C', 'C', 'C', 'C', 'C', 'C', 'C', 'C', 'C']","[2314899, 2315218, 2315508, 2315841, 2316219, 2316605, 2317009, 2317416, 2317819, 2318203, 2318593, 2318979, 2319357, 2319747, 2320137, 2320522, 2320935, 2321323, 2321727, 2322124, 2322509, 2322925, 2323340, 2323758]","[2315052, 2315378, 2315697, 2316094, 2316463, 2316879, 2317293, 2317688, 2318068, 2318450, 2318834, 2319195, 2319575, 2319963, 2320349, 2320722, 2321127, 2321507, 2321928, 2322318, 2322718, 2323118, 2323527, 2323951]","[2314632, 2315032, 2315432, 2315832, 2316232, 2316633, 2317032, 2317432, 2317845, 2318229, 2318618, 2319004, 2319383, 2319772, 2320162, 2320547, 2320961, 2321348, 2321753, 2322150, 2322535, 2322951, 2323365, 2323783]",20,R,ITM,1.1,
6,400,trial,0,117,117,117,trial,"['S', 'S', 'S', 'S', 'S', 'S', 'S', 'C', 'C', 'C', 'C', 'C', 'C', 'C', 'C', 'C', 'C', 'C', 'C', 'C', 'C', 'C', 'C']","[2329605, 2329992, 2330431, 2330872, 2331274, 2331721, 2332151, 2332569, 2332953, 2333368, 2333748, 2334162, 2334553, 2334949, 2335349, 2335750, 2336135, 2336560, 2336970, 2337395, 2337781, 2338173, 2338561]","[2329725, 2330126, 2330659, 2331106, 2331582, 2332008, 2332436, 2332810, 2333221, 2333590, 2333978, 2334375, 2334771, 2335132, 2335541, 2335943, 2336327, 2336739, 2337135, 2337569, 2337970, 2338368, 2338737]","[2329403, 2329802, 2330203, 2330602, 2331002, 2331402, 2331802, 2332203, 2332597, 2332981, 2333394, 2333774, 2334189, 2334579, 2334976, 2335376, 2335776, 2336161, 2336586, 2336998, 2337422, 2337808, 2338200, 2338587]",20,R,ITM,1.1,
7,600,trial,0,118,118,118,trial,"['S', 'S', 'S', 'S', 'S', 'S', 'S', 'S', 'C', 'C', 'C', 'C', 'C', 'C', 'C', 'C', 'C', 'C', 'C', 'C', 'C', 'C', 'C', 'C']","[2344210, 2344542, 2345126, 2345737, 2346363, 2346986, 2347578, 2348173, 2348767, 2349343, 2349929, 2350492, 2351059, 2351629, 2352217, 2352774, 2353345, 2353885, 2354491, 2355021, 2355597, 2356213, 2356748, 2357265]","[2344310, 2344754, 2345553, 2346115, 2346669, 2347259, 2347840, 2348432, 2348986, 2349543, 2350169, 2350720, 2351310, 2351851, 2352453, 2352992, 2353556, 2354089, 2354655, 2355295, 2355834, 2356388, 2356956, 2357502]","[2344014, 2344613, 2345213, 2345814, 2346414, 2347014, 2347614, 2348214, 2348794, 2349371, 2349957, 2350520, 2351086, 2351655, 2352243, 2352801, 2353373, 2353911, 2354518, 2355048, 2355624, 2356240, 2356775, 2357292]",20,R,ITM,1.1,
2,400,trial,0,119,119,119,trial,"['S', 'S', 'S', 'S', 'S', 'S', 'S', 'S', 'C', 'C', 'C', 'C', 'C', 'C', 'C', 'C', 'C', 'C', 'C', 'C', 'C', 'C', 'C', 'C']","[2362847, 2363201, 2363529, 2363877, 2364269, 2364650, 2365046, 2365445, 2365875, 2366256, 2366670, 2367051, 2367460, 2367845, 2368261, 2368641, 2369051, 2369429, 2369856, 2370245, 2370624, 2371032, 2371426, 2371835]","[2362917, 2363340, 2363678, 2364064, 2364460, 2364857, 2365232, 2365627, 2366057, 2366457, 2366842, 2367210, 2367620, 2368019, 2368410, 2368800, 2369189, 2369585, 2370001, 2370391, 2370766, 2371189, 2371563, 2371936]","[2362662, 2363062, 2363462, 2363863, 2364262, 2364662, 2365062, 2365462, 2365901, 2366282, 2366698, 2367079, 2367486, 2367873, 2368287, 2368668, 2369079, 2369457, 2369884, 2370273, 2370652, 2371059, 2371453, 2371862]",20,R,ITM,1.1,
7,400,trial,0,120,120,120,trial,"['S', 'S', 'S', 'S', 'S', 'S', 'S', 'S', 'C', 'C', 'C', 'C', 'C', 'C', 'C', 'C', 'C', 'C', 'C', 'C', 'C', 'C', 'C', 'C']","[2377879, 2378247, 2378590, 2378956, 2379275, 2379606, 2379959, 2380367, 2380786, 2381167, 2381575, 2381977, 2382355, 2382765, 2383156, 2383565, 2383954, 2384330, 2384772, 2385153, 2385537, 2385924, 2386302, 2386682]","[2377964, 2378414, 2378817, 2379144, 2379474, 2379820, 2380226, 2380619, 2381018, 2381393, 2381802, 2382182, 2382580, 2382980, 2383374, 2383756, 2384124, 2384492, 2384897, 2385289, 2385658, 2386056, 2386460, 2386847]","[2377606, 2378004, 2378404, 2378804, 2379204, 2379604, 2380004, 2380404, 2380813, 2381194, 2381601, 2382004, 2382382, 2382792, 2383182, 2383593, 2383981, 2384358, 2384798, 2385179, 2385563, 2385950, 2386329, 2386709]",20,R,ITM,1.1,
4,400,trial,0,121,121,121,trial,"['S', 'S', 'S', 'S', 'S', 'S', 'S', 'C', 'C', 'C', 'C', 'C', 'C', 'C', 'C', 'C', 'C', 'C', 'C', 'C', 'C', 'C', 'C']","[2392510, 2392937, 2393341, 2393784, 2394217, 2394655, 2395059, 2395467, 2395883, 2396273, 2396670, 2397103, 2397515, 2397914, 2398317, 2398733, 2399125, 2399575, 2399933, 2400371, 2400760, 2401155, 2401559]","[2392639, 2393114, 2393562, 2394044, 2394479, 2394873, 2395272, 2395694, 2396078, 2396468, 2396860, 2397287, 2397692, 2398098, 2398499, 2398908, 2399294, 2399749, 2400108, 2400526, 2400921, 2401321, 2401700]","[2392273, 2392672, 2393072, 2393473, 2393872, 2394272, 2394673, 2395072, 2395493, 2395909, 2396300, 2396696, 2397128, 2397541, 2397939, 2398343, 2398758, 2399151, 2399600, 2399959, 2400397, 2400786, 2401180, 2401585]",20,R,ITM,1.1,
2,400,trial,0,122,122,122,trial,"['S', 'S', 'S', 'S', 'S', 'S', 'S', 'C', 'C', 'C', 'C', 'C', 'C', 'C', 'C', 'C', 'C', 'C', 'C', 'C', 'C', 'C', 'C']","[2407573, 2407993, 2408421, 2408867, 2409307, 2409728, 2410153, 2410568, 2410981, 2411396, 2411785, 2412200, 2412626, 2413047, 2413474, 2413879, 2414308, 2414725, 2415140, 2415556, 2415982, 2416399, 2416802]","[2407708, 2408173, 2408622, 2409080, 2409507, 2409922, 2410338, 2410743, 2411145, 2411556, 2411962, 2412369, 2412797, 2413193, 2413622, 2414034, 2414454, 2414883, 2415307, 2415727, 2416141, 2416546, 2416954]","[2407343, 2407742, 2408142, 2408542, 2408943, 2409344, 2409742, 2410143, 2410596, 2411008, 2411423, 2411811, 2412227, 2412653, 2413074, 2413501, 2413905, 2414336, 2414752, 2415167, 2415583, 2416010, 2416425, 2416829]",20,R,ITM,1.1,
7,400,trial,0,123,123,123,trial,"['S', 'S', 'S', 'S', 'S', 'S', 'S', 'C', 'C', 'C', 'C', 'C', 'C', 'C', 'C', 'C', 'C', 'C', 'C', 'C', 'C', 'C', 'C']","[2422508, 2422904, 2423344, 2423773, 2424221, 2424628, 2425046, 2425462, 2425859, 2426276, 2426679, 2427087, 2427504, 2427920, 2428354, 2428775, 2429173, 2429598, 2430003, 2430408, 2430818, 2431235, 2431641]","[2422620, 2423079, 2423539, 2424060, 2424467, 2424845, 2425261, 2425676, 2426088, 2426476, 2426881, 2427265, 2427684, 2428101, 2428515, 2428947, 2429339, 2429769, 2430166, 2430573, 2430998, 2431407, 2431792]","[2422246, 2422645, 2423046, 2423445, 2423845, 2424245, 2424645, 2425046, 2425490, 2425885, 2426304, 2426705, 2427115, 2427531, 2427947, 2428381, 2428803, 2429201, 2429625, 2430029, 2430435, 2430845, 2431262, 2431669]",20,R,ITM,1.1,
5,400,trial,0,124,124,124,trial,"['S', 'S', 'S', 'S', 'S', 'S', 'S', 'C', 'C', 'C', 'C', 'C', 'C', 'C', 'C', 'C', 'C', 'C', 'C', 'C', 'C', 'C', 'C']","[2437571, 2437987, 2438436, 2438872, 2439327, 2439736, 2440168, 2440567, 2440992, 2441395, 2441792, 2442201, 2442611, 2443021, 2443433, 2443834, 2444280, 2444676, 2445110, 2445478, 2445921, 2446338, 2446755]","[2437681, 2438180, 2438651, 2439153, 2439576, 2439985, 2440393, 2440816, 2441201, 2441590, 2441975, 2442402, 2442801, 2443195, 2443613, 2444033, 2444446, 2444854, 2445281, 2445670, 2446112, 2446529, 2446945]","[2437381, 2437780, 2438180, 2438580, 2438980, 2439380, 2439780, 2440180, 2440593, 2441019, 2441420, 2441818, 2442226, 2442637, 2443046, 2443458, 2443859, 2444306, 2444701, 2445135, 2445504, 2445947, 2446363, 2446781]",20,R,ITM,1.1,
