octave,ioi,event,.thisRepN,.thisTrialN,.thisN,.thisIndex,event,tap_types,tap_times,release_times,tone_times,subject,handedness,experiment,version,
,,SPR,0,-1,-1,0,SPR,"['P', 'P', 'P', 'P', 'P', 'P', 'P', 'P', 'P', 'P', 'P', 'P', 'P', 'P', 'P', 'P', 'P', 'P', 'P', 'P', 'P', 'P', 'P', 'P', 'P', 'P', 'P', 'P', 'P', 'P']","[30385, 30887, 31394, 31939, 32481, 33018, 33536, 33993, 34514, 35009, 35526, 36066, 36575, 37111, 37629, 38092, 38610, 39109, 39630, 40140, 40663, 41185, 41722, 42247, 42752, 43246, 43810, 44324, 44818, 45377]","[30475, 30988, 31473, 32024, 32551, 33073, 33623, 34110, 34607, 35119, 35638, 36165, 36680, 37203, 37738, 38192, 38711, 39213, 39728, 40240, 40777, 41309, 41826, 42327, 42835, 43334, 43911, 44416, 44903, 45447]",,38,R,ITM,1.1,
6,500,practice,0,0,0,0,practice,"['S', 'S', 'S', 'S', 'S', 'S', 'S', 'C', 'C', 'C', 'C', 'C', 'C', 'C', 'C', 'C', 'C', 'C', 'C', 'C', 'C', 'C', 'C']","[96261, 97176, 97711, 98244, 98740, 99240, 99740, 100262, 100750, 101213, 101683, 102180, 102639, 103099, 103593, 104070, 104565, 105040, 105500, 105986, 106474, 106910, 107373]","[96376, 97263, 97814, 98355, 98841, 99351, 99847, 100363, 100865, 101323, 101780, 102279, 102749, 103206, 103703, 104183, 104669, 105153, 105598, 106067, 106560, 107011, 107474]","[96241, 96740, 97241, 97740, 98240, 98740, 99240, 99740, 100289, 100776, 101239, 101709, 102207, 102667, 103126, 103621, 104096, 104592, 105067, 105527, 106012, 106501, 106937, 107400]",38,R,ITM,1.1,
5,500,practice,0,1,1,1,practice,"['S', 'S', 'S', 'S', 'S', 'S', 'S', 'C', 'C', 'C', 'C', 'C', 'C', 'C', 'C', 'C', 'C', 'C', 'C', 'C', 'C', 'C', 'C']","[113198, 113689, 114227, 114733, 115213, 115753, 116233, 116746, 117236, 117737, 118185, 118663, 119171, 119660, 120128, 120612, 121133, 121648, 122129, 122592, 123100, 123639, 124155]","[113273, 113781, 114312, 114816, 115308, 115842, 116335, 116828, 117323, 117819, 118296, 118752, 119254, 119742, 120217, 120700, 121216, 121728, 122234, 122692, 123186, 123704, 124247]","[112798, 113298, 113799, 114299, 114799, 115299, 115800, 116299, 116771, 117262, 117763, 118210, 118688, 119197, 119687, 120154, 120638, 121159, 121673, 122156, 122618, 123126, 123665, 124182]",38,R,ITM,1.1,
7,500,practice,0,2,2,2,practice,"['S', 'S', 'S', 'S', 'S', 'S', 'S', 'S', 'C', 'C', 'C', 'C', 'C', 'C', 'C', 'C', 'C', 'C', 'C', 'C', 'C', 'C', 'C', 'C']","[130078, 130368, 130793, 131306, 131816, 132329, 132824, 133330, 133817, 134311, 134786, 135261, 135726, 136197, 136676, 137167, 137632, 138105, 138588, 139053, 139527, 140005, 140516, 140964]","[130151, 130460, 130903, 131393, 131907, 132430, 132907, 133408, 133895, 134397, 134892, 135342, 135797, 136271, 136751, 137247, 137717, 138185, 138671, 139128, 139603, 140094, 140592, 141067]","[129894, 130394, 130893, 131393, 131893, 132393, 132893, 133393, 133844, 134339, 134813, 135288, 135752, 136223, 136702, 137195, 137660, 138133, 138615, 139079, 139553, 140032, 140542, 140992]",38,R,ITM,1.1,
3,500,practice,0,3,3,3,practice,"['S', 'S', 'S', 'S', 'S', 'S', 'S', 'C', 'C', 'C', 'C', 'C', 'C', 'C', 'C', 'C', 'C', 'C', 'C', 'C', 'C', 'C', 'C']","[146922, 147403, 147921, 148454, 148962, 149482, 149960, 150436, 150880, 151371, 151854, 152364, 152816, 153289, 153808, 154301, 154771, 155237, 155710, 156206, 156708, 157204, 157684]","[147003, 147492, 148003, 148534, 149045, 149558, 150025, 150506, 150974, 151459, 151948, 152431, 152919, 153390, 153893, 154386, 154858, 155346, 155809, 156291, 156790, 157291, 157769]","[146504, 147003, 147504, 148003, 148503, 149003, 149504, 150003, 150462, 150905, 151397, 151879, 152389, 152842, 153315, 153834, 154327, 154797, 155262, 155736, 156231, 156734, 157230, 157710]",38,R,ITM,1.1,
4,500,practice,0,4,4,4,practice,"['S', 'S', 'S', 'S', 'S', 'S', 'S', 'C', 'C', 'C', 'C', 'C', 'C', 'C', 'C', 'C', 'C', 'C', 'C', 'C', 'C', 'C', 'C']","[163432, 163970, 164493, 164998, 165500, 166001, 166499, 167015, 167506, 168005, 168499, 169007, 169484, 169980, 170469, 170951, 171429, 171933, 172418, 172923, 173420, 173885, 174351]","[163522, 164051, 164576, 165085, 165586, 166113, 166587, 167103, 167589, 168081, 168591, 169091, 169586, 170089, 170565, 171040, 171517, 172007, 172508, 173014, 173530, 173981, 174459]","[163050, 163549, 164049, 164549, 165049, 165550, 166049, 166549, 167041, 167532, 168031, 168524, 169032, 169509, 170006, 170494, 170977, 171455, 171959, 172444, 172950, 173446, 173911, 174376]",38,R,ITM,1.1,
2,500,practice,0,5,5,5,practice,"['S', 'S', 'S', 'S', 'S', 'S', 'S', 'S', 'C', 'C', 'C', 'C', 'C', 'C', 'C', 'C', 'C', 'C', 'C', 'C', 'C', 'C', 'C', 'C']","[180195, 180409, 180867, 181395, 181903, 182416, 182902, 183405, 183903, 184389, 184892, 185366, 185862, 186362, 186863, 187361, 187869, 188360, 188827, 189296, 189814, 190278, 190836, 191300]","[180243, 180494, 180957, 181487, 182001, 182501, 182993, 183487, 183983, 184477, 184984, 185482, 185962, 186455, 186969, 187470, 187969, 188467, 188942, 189425, 189933, 190406, 190957, 191450]","[179952, 180452, 180953, 181452, 181952, 182452, 182952, 183451, 183929, 184416, 184919, 185393, 185889, 186389, 186890, 187387, 187896, 188388, 188854, 189324, 189842, 190306, 190863, 191327]",38,R,ITM,1.1,
4,400,trial,0,6,6,6,trial,"['S', 'S', 'S', 'S', 'S', 'S', 'S', 'C', 'C', 'C', 'C', 'C', 'C', 'C', 'C', 'C', 'C', 'C', 'C', 'C', 'C', 'C', 'C']","[225161, 225583, 225983, 226353, 226714, 227112, 227504, 227899, 228283, 228676, 229070, 229441, 229826, 230187, 230578, 230948, 231319, 231680, 232073, 232444, 232839, 233249, 233631]","[225256, 225695, 226113, 226447, 226838, 227227, 227615, 228015, 228400, 228789, 229178, 229539, 229923, 230283, 230671, 231053, 231413, 231777, 232155, 232562, 232930, 233369, 233725]","[224761, 225161, 225561, 225961, 226361, 226761, 227162, 227561, 227924, 228308, 228702, 229096, 229467, 229852, 230212, 230603, 230974, 231345, 231706, 232098, 232470, 232864, 233275, 233657]",38,R,ITM,1.1,
7,600,trial,0,7,7,7,trial,"['S', 'S', 'S', 'S', 'S', 'S', 'S', 'C', 'C', 'C', 'C', 'C', 'C', 'C', 'C', 'C', 'C', 'C', 'C', 'C', 'C', 'C', 'C']","[239283, 240075, 240708, 241312, 241908, 242523, 243145, 243769, 244377, 244935, 245520, 246138, 246707, 247371, 247953, 248501, 249095, 249679, 250281, 250887, 251492, 252087, 252689]","[239379, 240195, 240835, 241428, 242022, 242638, 243233, 243838, 244482, 245068, 245646, 246257, 246819, 247476, 248080, 248625, 249221, 249806, 250394, 251001, 251594, 252217, 252802]","[238976, 239575, 240175, 240775, 241374, 241974, 242574, 243174, 243795, 244405, 244963, 245548, 246165, 246734, 247398, 247980, 248527, 249121, 249706, 250308, 250913, 251520, 252114, 252716]",38,R,ITM,1.1,
5,400,trial,0,8,8,8,trial,"['S', 'S', 'S', 'S', 'S', 'S', 'S', 'C', 'C', 'C', 'C', 'C', 'C', 'C', 'C', 'C', 'C', 'C', 'C', 'C', 'C', 'C', 'C']","[258547, 258948, 259361, 259764, 260175, 260589, 260980, 261417, 261791, 262191, 262577, 262975, 263364, 263733, 264130, 264491, 264901, 265284, 265679, 266043, 266432, 266813, 267185]","[258638, 259064, 259482, 259889, 260295, 260704, 261082, 261508, 261892, 262289, 262700, 263079, 263455, 263870, 264231, 264622, 265023, 265415, 265802, 266156, 266543, 266936, 267302]","[258275, 258674, 259075, 259474, 259874, 260274, 260674, 261074, 261443, 261818, 262217, 262602, 263001, 263390, 263758, 264157, 264516, 264927, 265310, 265705, 266068, 266459, 266840, 267210]",38,R,ITM,1.1,
7,400,trial,0,9,9,9,trial,"['S', 'S', 'S', 'S', 'S', 'S', 'S', 'C', 'C', 'C', 'C', 'C', 'C', 'C', 'C', 'C', 'C', 'C', 'C', 'C', 'C', 'C', 'C']","[273174, 273514, 273887, 274286, 274697, 275106, 275491, 275914, 276330, 276691, 277085, 277465, 277846, 278236, 278646, 279011, 279408, 279788, 280159, 280552, 280941, 281390, 281769]","[273271, 273629, 273999, 274398, 274807, 275221, 275617, 276021, 276414, 276819, 277201, 277563, 277950, 278356, 278727, 279137, 279526, 279910, 280276, 280657, 281077, 281476, 281914]","[272754, 273154, 273553, 273953, 274354, 274753, 275153, 275553, 275942, 276358, 276718, 277111, 277492, 277873, 278263, 278673, 279037, 279436, 279816, 280186, 280579, 280968, 281416, 281797]",38,R,ITM,1.1,
6,400,trial,0,10,10,10,trial,"['S', 'S', 'S', 'S', 'S', 'S', 'C', 'C', 'C', 'C', 'C', 'C', 'C', 'C', 'C', 'C', 'C', 'C', 'C', 'C', 'C', 'C']","[288161, 288458, 288828, 289213, 289629, 290024, 290450, 290826, 291208, 291593, 291948, 292352, 292737, 293146, 293538, 293893, 294223, 294619, 294996, 295389, 295773, 296132]","[288266, 288567, 288937, 289313, 289731, 290140, 290558, 290919, 291295, 291717, 292087, 292472, 292881, 293267, 293679, 294031, 294364, 294753, 295132, 295520, 295910, 296300]","[287283, 287683, 288083, 288483, 288883, 289284, 289683, 290083, 290477, 290852, 291235, 291619, 291975, 292379, 292763, 293174, 293565, 293919, 294250, 294645, 295022, 295416, 295799, 296159]",38,R,ITM,1.1,
7,400,trial,0,11,11,11,trial,"['S', 'S', 'S', 'S', 'S', 'S', 'S', 'C', 'C', 'C', 'C', 'C', 'C', 'C', 'C', 'C', 'C', 'C', 'C', 'C', 'C', 'C', 'C']","[302053, 302429, 302853, 303258, 303666, 304073, 304467, 304875, 305268, 305678, 306052, 306470, 306888, 307270, 307707, 308085, 308472, 308862, 309257, 309618, 310025, 310409, 310790]","[302180, 302568, 302977, 303377, 303801, 304204, 304607, 305009, 305402, 305782, 306189, 306616, 307009, 307417, 307837, 308226, 308617, 308997, 309374, 309758, 310140, 310549, 310921]","[301729, 302129, 302528, 302928, 303328, 303728, 304129, 304528, 304903, 305296, 305704, 306079, 306498, 306916, 307298, 307735, 308113, 308499, 308889, 309284, 309645, 310051, 310435, 310817]",38,R,ITM,1.1,
6,600,trial,0,12,12,12,trial,"['S', 'S', 'S', 'S', 'S', 'S', 'S', 'C', 'C', 'C', 'C', 'C', 'C', 'C', 'C', 'C', 'C', 'C', 'C', 'C', 'C', 'C', 'C']","[316562, 317295, 318002, 318546, 319180, 319816, 320379, 321035, 321606, 322165, 322767, 323334, 323954, 324501, 325089, 325698, 326320, 326879, 327422, 327973, 328553, 329163, 329720]","[316686, 317418, 318124, 318696, 319321, 319946, 320519, 321164, 321738, 322279, 322885, 323481, 324064, 324659, 325252, 325833, 326460, 327019, 327547, 328076, 328690, 329279, 329866]","[316249, 316848, 317448, 318048, 318648, 319248, 319848, 320448, 321062, 321633, 322193, 322794, 323361, 323981, 324528, 325116, 325725, 326346, 326905, 327449, 328000, 328581, 329190, 329748]",38,R,ITM,1.1,
3,400,trial,0,13,13,13,trial,"['S', 'S', 'S', 'S', 'S', 'S', 'S', 'C', 'C', 'C', 'C', 'C', 'C', 'C', 'C', 'C', 'C', 'C', 'C', 'C', 'C', 'C', 'C']","[335579, 336007, 336408, 336821, 337240, 337640, 338046, 338477, 338857, 339211, 339619, 339995, 340377, 340758, 341152, 341538, 341932, 342325, 342699, 343071, 343416, 343815, 344212]","[335702, 336117, 336537, 336946, 337362, 337795, 338192, 338591, 338982, 339346, 339745, 340146, 340497, 340890, 341255, 341653, 342048, 342458, 342823, 343191, 343542, 343922, 344346]","[335337, 335737, 336137, 336537, 336937, 337337, 337737, 338138, 338503, 338883, 339236, 339645, 340021, 340403, 340784, 341178, 341564, 341957, 342350, 342724, 343097, 343442, 343840, 344238]",38,R,ITM,1.1,
5,400,trial,0,14,14,14,trial,"['S', 'S', 'S', 'S', 'S', 'S', 'S', 'C', 'C', 'C', 'C', 'C', 'C', 'C', 'C', 'C', 'C', 'C', 'C', 'C', 'C', 'C', 'C']","[349967, 350326, 350709, 351114, 351511, 351911, 352331, 352716, 353073, 353412, 353813, 354189, 354557, 354963, 355329, 355717, 356094, 356460, 356843, 357233, 357611, 357989, 358382]","[350090, 350462, 350838, 351239, 351648, 352039, 352429, 352806, 353144, 353502, 353894, 354304, 354669, 355039, 355459, 355814, 356182, 356563, 356946, 357339, 357737, 358106, 358481]","[349639, 350039, 350438, 350838, 351239, 351639, 352039, 352439, 352743, 353099, 353438, 353840, 354214, 354584, 354989, 355355, 355743, 356120, 356486, 356869, 357259, 357638, 358014, 358408]",38,R,ITM,1.1,
2,400,trial,0,15,15,15,trial,"['S', 'S', 'S', 'S', 'S', 'S', 'S', 'S', 'C', 'C', 'C', 'C', 'C', 'C', 'C', 'C', 'C', 'C', 'C', 'C', 'C', 'C', 'C', 'C']","[364244, 364474, 364812, 365188, 365594, 365988, 366389, 366806, 367217, 367616, 368024, 368423, 368833, 369195, 369588, 369989, 370374, 370752, 371174, 371564, 371956, 372338, 372724, 373116]","[364338, 364570, 364916, 365293, 365687, 366090, 366505, 366916, 367314, 367705, 368110, 368530, 368933, 369308, 369689, 370087, 370461, 370873, 371258, 371668, 372042, 372436, 372820, 373221]","[364057, 364457, 364856, 365257, 365658, 366057, 366456, 366856, 367245, 367642, 368051, 368450, 368861, 369221, 369614, 370016, 370402, 370780, 371201, 371591, 371984, 372366, 372752, 373144]",38,R,ITM,1.1,
7,600,trial,0,16,16,16,trial,"['S', 'S', 'S', 'S', 'S', 'S', 'S', 'C', 'C', 'C', 'C', 'C', 'C', 'C', 'C', 'C', 'C', 'C', 'C', 'C', 'C', 'C', 'C']","[379180, 380005, 380619, 381207, 381892, 382443, 383056, 383659, 384240, 384855, 385452, 386024, 386608, 387175, 387736, 388349, 388962, 389489, 390045, 390643, 391201, 391785, 392381]","[379277, 380110, 380742, 381329, 382019, 382571, 383169, 383785, 384353, 384958, 385567, 386170, 386749, 387314, 387880, 388475, 389094, 389628, 390175, 390761, 391336, 391919, 392525]","[378930, 379529, 380129, 380729, 381329, 381929, 382529, 383129, 383685, 384268, 384882, 385479, 386051, 386635, 387202, 387764, 388376, 388988, 389516, 390072, 390670, 391228, 391813, 392408]",38,R,ITM,1.1,
4,600,trial,0,17,17,17,trial,"['S', 'S', 'S', 'S', 'S', 'S', 'S', 'C', 'C', 'C', 'C', 'C', 'C', 'C', 'C', 'C', 'C', 'C', 'C', 'C', 'C', 'C', 'C']","[398372, 399119, 399784, 400378, 401048, 401582, 402168, 402804, 403380, 403982, 404563, 405143, 405771, 406315, 406899, 407505, 408115, 408614, 409156, 409784, 410456, 411013, 411629]","[398476, 399233, 399894, 400503, 401175, 401723, 402293, 402935, 403515, 404090, 404673, 405269, 405879, 406460, 407033, 407634, 408216, 408749, 409289, 409887, 410555, 411155, 411774]","[398075, 398674, 399275, 399875, 400475, 401074, 401674, 402274, 402830, 403406, 404007, 404589, 405169, 405796, 406341, 406925, 407532, 408140, 408641, 409182, 409809, 410482, 411038, 411655]",38,R,ITM,1.1,
5,600,trial,0,18,18,18,trial,"['S', 'S', 'S', 'S', 'S', 'S', 'S', 'C', 'C', 'C', 'C', 'C', 'C', 'C', 'C', 'C', 'C', 'C', 'C', 'C', 'C', 'C', 'C']","[420964, 421666, 422287, 422927, 423536, 424167, 424751, 425387, 425972, 426634, 427219, 427793, 428411, 429014, 429597, 430200, 430785, 431404, 431994, 432600, 433189, 433776, 434385]","[421059, 421778, 422410, 423049, 423662, 424297, 424888, 425513, 426098, 426746, 427365, 427939, 428555, 429154, 429733, 430340, 430932, 431544, 432139, 432756, 433351, 433931, 434520]","[420612, 421211, 421810, 422410, 423010, 423610, 424210, 424810, 425412, 425998, 426660, 427245, 427819, 428437, 429039, 429624, 430227, 430812, 431429, 432020, 432625, 433215, 433802, 434412]",38,R,ITM,1.1,
6,400,trial,0,19,19,19,trial,"['S', 'S', 'S', 'S', 'S', 'S', 'S', 'C', 'C', 'C', 'C', 'C', 'C', 'C', 'C', 'C', 'C', 'C', 'C', 'C', 'C', 'C', 'C']","[440646, 440952, 441339, 441695, 442084, 442465, 442857, 443261, 443675, 444079, 444479, 444864, 445275, 445675, 446068, 446486, 446887, 447277, 447674, 448073, 448483, 448882, 449288]","[440733, 441051, 441422, 441798, 442183, 442554, 442951, 443376, 443786, 444206, 444600, 444978, 445389, 445782, 446193, 446608, 446955, 447385, 447756, 448180, 448581, 448993, 449397]","[440140, 440540, 440939, 441339, 441739, 442139, 442540, 442939, 443288, 443703, 444106, 444507, 444891, 445301, 445702, 446095, 446513, 446914, 447303, 447700, 448101, 448510, 448909, 449314]",38,R,ITM,1.1,
3,600,trial,0,20,20,20,trial,"['S', 'S', 'S', 'S', 'S', 'S', 'S', 'C', 'C', 'C', 'C', 'C', 'C', 'C', 'C', 'C', 'C', 'C', 'C', 'C', 'C', 'C', 'C']","[455329, 456041, 456708, 457347, 458007, 458514, 459115, 459737, 460305, 460916, 461479, 462059, 462661, 463250, 463862, 464428, 465024, 465583, 466186, 466808, 467380, 467941, 468532]","[455415, 456147, 456819, 457470, 458119, 458661, 459235, 459845, 460424, 461039, 461607, 462179, 462781, 463381, 463972, 464549, 465150, 465726, 466306, 466895, 467501, 468068, 468643]","[455008, 455607, 456207, 456807, 457407, 458007, 458607, 459207, 459762, 460331, 460942, 461505, 462085, 462688, 463276, 463888, 464453, 465049, 465609, 466211, 466834, 467405, 467966, 468557]",38,R,ITM,1.1,
3,400,trial,0,21,21,21,trial,"['S', 'S', 'S', 'S', 'S', 'S', 'S', 'C', 'C', 'C', 'C', 'C', 'C', 'C', 'C', 'C', 'C', 'C', 'C', 'C', 'C', 'C', 'C']","[474277, 474613, 475010, 475505, 475880, 476320, 476721, 477140, 477469, 477841, 478205, 478577, 478968, 479356, 479736, 480072, 480470, 480839, 481190, 481552, 481948, 482308, 482707]","[474377, 474710, 475154, 475621, 476015, 476425, 476817, 477265, 477568, 477934, 478314, 478685, 479088, 479500, 479845, 480195, 480563, 480964, 481310, 481643, 482033, 482434, 482797]","[474047, 474446, 474846, 475246, 475646, 476046, 476446, 476847, 477166, 477495, 477867, 478231, 478603, 478994, 479382, 479762, 480098, 480495, 480865, 481216, 481577, 481974, 482333, 482733]",38,R,ITM,1.1,
2,600,trial,0,22,22,22,trial,"['S', 'S', 'S', 'S', 'S', 'S', 'S', 'C', 'C', 'C', 'C', 'C', 'C', 'C', 'C', 'C', 'C', 'C', 'C', 'C', 'C', 'C', 'C']","[488772, 489555, 490182, 490817, 491430, 492067, 492587, 493184, 493757, 494354, 494944, 495545, 496136, 496736, 497328, 497898, 498518, 499140, 499720, 500278, 500835, 501432, 502043]","[488880, 489662, 490279, 490905, 491521, 492143, 492675, 493265, 493830, 494453, 495038, 495625, 496217, 496800, 497419, 497974, 498605, 499223, 499821, 500395, 500940, 501530, 502127]","[488461, 489061, 489660, 490261, 490861, 491460, 492060, 492661, 493211, 493784, 494382, 494971, 495571, 496163, 496762, 497354, 497925, 498545, 499168, 499746, 500305, 500862, 501459, 502071]",38,R,ITM,1.1,
6,600,trial,0,23,23,23,trial,"['S', 'S', 'S', 'S', 'S', 'S', 'S', 'C', 'C', 'C', 'C', 'C', 'C', 'C', 'C', 'C', 'C', 'C', 'C', 'C', 'C', 'C', 'C']","[508193, 508762, 509382, 510006, 510587, 511172, 511822, 512381, 512960, 513560, 514158, 514738, 515335, 515930, 516514, 517099, 517707, 518290, 518892, 519482, 520138, 520729, 521303]","[508293, 508847, 509463, 510094, 510690, 511291, 511921, 512479, 513073, 513655, 514253, 514861, 515431, 516044, 516633, 517218, 517809, 518407, 518993, 519584, 520231, 520853, 521409]","[507638, 508237, 508837, 509437, 510038, 510638, 511238, 511838, 512408, 512987, 513587, 514186, 514764, 515362, 515957, 516542, 517127, 517734, 518317, 518919, 519508, 520165, 520756, 521330]",38,R,ITM,1.1,
3,600,trial,0,24,24,24,trial,"['S', 'S', 'S', 'S', 'S', 'S', 'S', 'C', 'C', 'C', 'C', 'C', 'C', 'C', 'C', 'C', 'C', 'C', 'C', 'C', 'C', 'C', 'C']","[527304, 528025, 528698, 529318, 529891, 530497, 531129, 531713, 532290, 532889, 533539, 534089, 534666, 535269, 535871, 536521, 537091, 537663, 538242, 538821, 539378, 539967, 540548]","[527401, 528105, 528798, 529410, 530001, 530587, 531207, 531796, 532390, 532987, 533625, 534200, 534786, 535379, 535950, 536602, 537191, 537767, 538341, 538918, 539498, 540083, 540655]","[526963, 527562, 528162, 528762, 529362, 529963, 530563, 531163, 531738, 532316, 532915, 533565, 534115, 534691, 535294, 535897, 536547, 537116, 537689, 538267, 538847, 539404, 539993, 540573]",38,R,ITM,1.1,
2,400,trial,0,25,25,25,trial,"['S', 'S', 'S', 'S', 'S', 'S', 'S', 'C', 'C', 'C', 'C', 'C', 'C', 'C', 'C', 'C', 'C', 'C', 'C', 'C', 'C', 'C', 'C']","[546633, 546991, 547397, 547788, 548218, 548622, 549035, 549410, 549814, 550204, 550582, 550961, 551356, 551750, 552165, 552562, 552921, 553319, 553712, 554089, 554506, 554905, 555301]","[546729, 547087, 547505, 547891, 548313, 548719, 549126, 549506, 549913, 550305, 550684, 551053, 551456, 551857, 552272, 552707, 553061, 553440, 553827, 554187, 554603, 555030, 555396]","[546249, 546650, 547049, 547449, 547849, 548249, 548649, 549049, 549438, 549840, 550232, 550609, 550987, 551384, 551777, 552193, 552590, 552947, 553347, 553740, 554116, 554532, 554932, 555329]",38,R,ITM,1.1,
5,600,trial,0,26,26,26,trial,"['S', 'S', 'S', 'S', 'S', 'S', 'S', 'C', 'C', 'C', 'C', 'C', 'C', 'C', 'C', 'C', 'C', 'C', 'C', 'C', 'C', 'C', 'C']","[561304, 562057, 562705, 563306, 563911, 564506, 565117, 565701, 566284, 566882, 567465, 568046, 568629, 569212, 569834, 570415, 571008, 571567, 572164, 572776, 573319, 573861, 574482]","[561392, 562155, 562789, 563393, 563991, 564588, 565192, 565780, 566378, 566963, 567564, 568166, 568741, 569321, 569932, 570504, 571097, 571672, 572263, 572896, 573430, 573944, 574540]","[560949, 561548, 562148, 562748, 563348, 563948, 564548, 565148, 565727, 566310, 566907, 567490, 568073, 568655, 569238, 569860, 570441, 571033, 571592, 572189, 572802, 573344, 573887, 574508]",38,R,ITM,1.1,
4,400,trial,0,27,27,27,trial,"['S', 'S', 'S', 'S', 'S', 'S', 'S', 'C', 'C', 'C', 'C', 'C', 'C', 'C', 'C', 'C', 'C', 'C', 'C', 'C', 'C', 'C', 'C']","[580503, 580830, 581237, 581652, 582045, 582455, 582879, 583277, 583682, 584088, 584481, 584899, 585295, 585676, 586080, 586480, 586931, 587411, 587822, 588209, 588590, 588958, 589337]","[580580, 580912, 581313, 581750, 582139, 582546, 582952, 583367, 583763, 584154, 584580, 584995, 585383, 585769, 586190, 586568, 587036, 587486, 587901, 588301, 588682, 589050, 589437]","[580100, 580498, 580898, 581298, 581698, 582098, 582498, 582898, 583303, 583707, 584114, 584507, 584925, 585321, 585702, 586105, 586506, 586956, 587438, 587847, 588234, 588615, 588984, 589363]",38,R,ITM,1.1,
4,600,trial,0,28,28,28,trial,"['S', 'S', 'S', 'S', 'S', 'S', 'S', 'C', 'C', 'C', 'C', 'C', 'C', 'C', 'C', 'C', 'C', 'C', 'C', 'C', 'C', 'C', 'C']","[595218, 595791, 596452, 597112, 597662, 598256, 598844, 599404, 599952, 600537, 601125, 601717, 602311, 602907, 603490, 604081, 604663, 605216, 605799, 606367, 606944, 607533, 608144]","[595301, 595871, 596527, 597180, 597755, 598343, 598929, 599492, 600044, 600617, 601207, 601794, 602386, 602998, 603577, 604163, 604750, 605330, 605886, 606479, 607053, 607625, 608216]","[594693, 595293, 595893, 596493, 597093, 597693, 598293, 598893, 599430, 599977, 600563, 601151, 601744, 602338, 602933, 603515, 604106, 604689, 605242, 605825, 606393, 606970, 607558, 608169]",38,R,ITM,1.1,
2,600,trial,0,29,29,29,trial,"['S', 'S', 'S', 'S', 'S', 'S', 'S', 'S', 'C', 'C', 'C', 'C', 'C', 'C', 'C', 'C', 'C', 'C', 'C', 'C', 'C', 'C', 'C', 'C']","[614099, 614369, 614925, 615573, 616140, 616725, 617368, 617973, 618545, 619117, 619691, 620281, 620895, 621512, 622075, 622659, 623273, 623898, 624500, 625087, 625673, 626265, 626883, 627490]","[614200, 614475, 615029, 615663, 616236, 616817, 617465, 618067, 618648, 619204, 619790, 620375, 621007, 621594, 622161, 622755, 623364, 623974, 624595, 625170, 625762, 626371, 626988, 627560]","[613806, 614405, 615006, 615605, 616204, 616805, 617404, 618005, 618571, 619145, 619718, 620308, 620922, 621539, 622102, 622687, 623300, 623925, 624528, 625115, 625700, 626291, 626910, 627517]",38,R,ITM,1.1,
5,600,trial,0,30,30,30,trial,"['S', 'S', 'S', 'S', 'S', 'S', 'S', 'C', 'C', 'C', 'C', 'C', 'C', 'C', 'C', 'C', 'C', 'C', 'C', 'C', 'C', 'C', 'C']","[635490, 636054, 636743, 637349, 637984, 638567, 639127, 639751, 640357, 640963, 641551, 642192, 642818, 643385, 643954, 644511, 645100, 645713, 646327, 646880, 647409, 647943, 648577]","[635576, 636136, 636808, 637427, 638069, 638652, 639220, 639827, 640434, 641051, 641638, 642272, 642896, 643472, 644055, 644604, 645186, 645793, 646401, 646992, 647492, 648030, 648645]","[634999, 635598, 636198, 636798, 637399, 637999, 638599, 639199, 639776, 640384, 640989, 641576, 642219, 642844, 643410, 643980, 644537, 645126, 645739, 646353, 646905, 647436, 647968, 648602]",38,R,ITM,1.1,
4,600,trial,0,31,31,31,trial,"['S', 'S', 'S', 'S', 'S', 'S', 'S', 'C', 'C', 'C', 'C', 'C', 'C', 'C', 'C', 'C', 'C', 'C', 'C', 'C', 'C', 'C', 'C']","[654819, 655476, 656082, 656691, 657299, 657909, 658523, 659098, 659644, 660206, 660819, 661425, 661982, 662573, 663165, 663713, 664289, 664921, 665511, 666066, 666642, 667258, 667837]","[654891, 655550, 656181, 656763, 657387, 658001, 658607, 659194, 659753, 660292, 660893, 661527, 662097, 662675, 663285, 663812, 664364, 664997, 665611, 666180, 666738, 667343, 667927]","[654372, 654972, 655572, 656173, 656773, 657373, 657973, 658573, 659124, 659671, 660232, 660846, 661450, 662007, 662598, 663191, 663739, 664314, 664946, 665537, 666092, 666668, 667284, 667864]",38,R,ITM,1.1,
6,400,trial,0,32,32,32,trial,"['S', 'S', 'S', 'S', 'S', 'S', 'S', 'C', 'C', 'C', 'C', 'C', 'C', 'C', 'C', 'C', 'C', 'C', 'C', 'C', 'C', 'C', 'C']","[673922, 674221, 674588, 674978, 675365, 675779, 676190, 676586, 676986, 677384, 677745, 678129, 678530, 678915, 679301, 679688, 680073, 680471, 680926, 681350, 681763, 682123, 682508]","[673979, 674310, 674667, 675062, 675436, 675833, 676262, 676641, 677062, 677464, 677849, 678216, 678584, 679019, 679378, 679771, 680165, 680559, 681003, 681452, 681847, 682249, 682585]","[673409, 673807, 674207, 674608, 675007, 675407, 675807, 676207, 676613, 677013, 677411, 677773, 678156, 678557, 678941, 679327, 679714, 680099, 680498, 680953, 681376, 681791, 682150, 682534]",38,R,ITM,1.1,
6,400,trial,0,33,33,33,trial,"['S', 'S', 'S', 'S', 'S', 'S', 'S', 'C', 'C', 'C', 'C', 'C', 'C', 'C', 'C', 'C', 'C', 'C', 'C', 'C', 'C', 'C', 'C']","[688339, 688696, 689089, 689498, 689926, 690318, 690716, 691113, 691508, 691856, 692241, 692611, 692993, 693352, 693732, 694095, 694503, 694893, 695262, 695662, 696030, 696394, 696750]","[688429, 688788, 689186, 689586, 690015, 690409, 690800, 691191, 691590, 691966, 692306, 692692, 693082, 693477, 693838, 694206, 694589, 695004, 695386, 695746, 696151, 696494, 696855]","[687966, 688366, 688766, 689166, 689566, 689967, 690366, 690766, 691141, 691534, 691883, 692268, 692637, 693019, 693379, 693758, 694123, 694530, 694920, 695288, 695689, 696056, 696421, 696776]",38,R,ITM,1.1,
2,400,trial,0,34,34,34,trial,"['S', 'S', 'S', 'S', 'S', 'S', 'S', 'C', 'C', 'C', 'C', 'C', 'C', 'C', 'C', 'C', 'C', 'C', 'C', 'C', 'C', 'C', 'C']","[702537, 702925, 703342, 703745, 704143, 704544, 704932, 705339, 705684, 706057, 706439, 706809, 707163, 707544, 707929, 708310, 708670, 709075, 709434, 709787, 710170, 710582, 710939]","[702615, 703017, 703422, 703826, 704230, 704630, 705006, 705445, 705777, 706134, 706507, 706891, 707247, 707636, 708024, 708406, 708764, 709158, 709572, 709905, 710243, 710673, 711050]","[702205, 702605, 703004, 703406, 703805, 704205, 704605, 705005, 705367, 705711, 706084, 706465, 706837, 707190, 707571, 707955, 708337, 708698, 709103, 709460, 709815, 710198, 710608, 710967]",38,R,ITM,1.1,
7,400,trial,0,35,35,35,trial,"['S', 'S', 'S', 'S', 'S', 'S', 'C', 'C', 'C', 'C', 'C', 'C', 'C', 'C', 'C', 'C', 'C', 'C', 'C', 'C', 'C', 'C']","[717278, 717626, 717997, 718388, 718755, 719147, 719524, 719887, 720267, 720648, 721034, 721423, 721805, 722165, 722552, 722944, 723320, 723680, 724073, 724480, 724874, 725262]","[717322, 717676, 718072, 718473, 718837, 719258, 719634, 719955, 720349, 720718, 721128, 721544, 721910, 722280, 722633, 723043, 723437, 723803, 724148, 724597, 724985, 725369]","[716425, 716824, 717224, 717624, 718024, 718425, 718824, 719224, 719552, 719913, 720293, 720674, 721060, 721449, 721831, 722193, 722579, 722971, 723347, 723707, 724101, 724506, 724900, 725289]",38,R,ITM,1.1,
5,600,trial,0,36,36,36,trial,"['S', 'S', 'S', 'S', 'S', 'S', 'S', 'C', 'C', 'C', 'C', 'C', 'C', 'C', 'C', 'C', 'C', 'C', 'C', 'C', 'C', 'C', 'C']","[731433, 732086, 732704, 733334, 733914, 734514, 735080, 735651, 736198, 736771, 737347, 737993, 738537, 739070, 739627, 740173, 740732, 741317, 741900, 742435, 742996, 743568, 744086]","[731516, 732190, 732802, 733465, 734047, 734651, 735297, 735868, 736358, 736920, 737487, 738110, 738692, 739209, 739752, 740313, 740868, 741438, 742033, 742575, 743118, 743704, 744237]","[730989, 731589, 732189, 732789, 733389, 733989, 734589, 735190, 735677, 736224, 736796, 737374, 738019, 738563, 739095, 739652, 740199, 740758, 741343, 741925, 742461, 743023, 743595, 744112]",38,R,ITM,1.1,
3,400,trial,0,37,37,37,trial,"['S', 'S', 'S', 'S', 'S', 'S', 'S', 'C', 'C', 'C', 'C', 'C', 'C', 'C', 'C', 'C', 'C', 'C', 'C', 'C', 'C', 'C', 'C']","[749880, 750229, 750614, 751013, 751422, 751822, 752227, 752621, 753041, 753413, 753785, 754153, 754543, 754920, 755300, 755696, 756086, 756490, 756881, 757264, 757636, 757976, 758354]","[749975, 750316, 750711, 751095, 751509, 751917, 752330, 752730, 753119, 753527, 753907, 754267, 754657, 755042, 755415, 755782, 756207, 756581, 756989, 757345, 757704, 758083, 758451]","[749452, 749851, 750252, 750651, 751051, 751452, 751851, 752251, 752647, 753067, 753439, 753811, 754179, 754569, 754946, 755325, 755722, 756112, 756515, 756907, 757289, 757661, 758001, 758380]",38,R,ITM,1.1,
7,600,trial,0,38,38,38,trial,"['S', 'S', 'S', 'S', 'S', 'S', 'S', 'C', 'C', 'C', 'C', 'C', 'C', 'C', 'C', 'C', 'C', 'C', 'C', 'C', 'C', 'C', 'C']","[764336, 765077, 765678, 766320, 766917, 767494, 768090, 768690, 769253, 769846, 770469, 771087, 771685, 772275, 772895, 773498, 774104, 774709, 775279, 775857, 776477, 777065, 777639]","[764445, 765193, 765799, 766436, 767042, 767607, 768196, 768821, 769386, 769965, 770577, 771184, 771773, 772373, 772974, 773582, 774184, 774818, 775376, 775959, 776558, 777162, 777746]","[763969, 764568, 765168, 765768, 766368, 766968, 767568, 768168, 768717, 769281, 769873, 770497, 771115, 771712, 772302, 772923, 773526, 774131, 774735, 775306, 775883, 776504, 777092, 777667]",38,R,ITM,1.1,
4,400,trial,0,39,39,39,trial,"['S', 'S', 'S', 'S', 'S', 'S', 'S', 'C', 'C', 'C', 'C', 'C', 'C', 'C', 'C', 'C', 'C', 'C', 'C', 'C', 'C', 'C', 'C']","[783912, 784203, 784549, 784968, 785358, 785787, 786179, 786597, 786995, 787406, 787783, 788164, 788555, 788957, 789343, 789730, 790109, 790504, 790887, 791277, 791681, 792057, 792451]","[784041, 784325, 784661, 785087, 785469, 785898, 786282, 786703, 787097, 787529, 787903, 788278, 788652, 789053, 789450, 789830, 790214, 790594, 791029, 791399, 791769, 792169, 792561]","[783443, 783842, 784242, 784643, 785042, 785442, 785842, 786242, 786623, 787020, 787432, 787809, 788190, 788581, 788982, 789368, 789755, 790134, 790530, 790913, 791304, 791706, 792083, 792476]",38,R,ITM,1.1,
4,400,trial,0,40,40,40,trial,"['S', 'S', 'S', 'S', 'S', 'S', 'C', 'C', 'C', 'C', 'C', 'C', 'C', 'C', 'C', 'C', 'C', 'C', 'C', 'C', 'C', 'C']","[798630, 799037, 799422, 799821, 800224, 800615, 801019, 801413, 801795, 802191, 802586, 802981, 803365, 803762, 804149, 804547, 804930, 805343, 805738, 806126, 806512, 806903]","[798703, 799122, 799508, 799917, 800304, 800703, 801105, 801487, 801898, 802294, 802677, 803089, 803485, 803862, 804259, 804661, 805080, 805450, 805856, 806253, 806640, 807005]","[797873, 798271, 798671, 799071, 799471, 799872, 800271, 800671, 801045, 801438, 801820, 802216, 802612, 803007, 803392, 803788, 804174, 804573, 804956, 805368, 805764, 806152, 806538, 806929]",38,R,ITM,1.1,
7,600,trial,0,41,41,41,trial,"['S', 'S', 'S', 'S', 'S', 'S', 'C', 'C', 'C', 'C', 'C', 'C', 'C', 'C', 'C', 'C', 'C', 'C', 'C', 'C', 'C', 'C']","[813828, 814467, 815127, 815712, 816282, 816876, 817473, 818074, 818685, 819271, 819880, 820487, 821065, 821659, 822275, 822873, 823487, 824093, 824711, 825345, 825951, 826510]","[813925, 814566, 815218, 815795, 816366, 816962, 817547, 818166, 818771, 819364, 819966, 820574, 821140, 821750, 822345, 822949, 823564, 824171, 824792, 825420, 826056, 826588]","[812712, 813312, 813912, 814512, 815112, 815712, 816312, 816912, 817500, 818102, 818713, 819298, 819908, 820514, 821092, 821687, 822302, 822900, 823514, 824120, 824737, 825372, 825977, 826536]",38,R,ITM,1.1,
6,600,trial,0,42,42,42,trial,"['S', 'S', 'S', 'S', 'S', 'S', 'S', 'C', 'C', 'C', 'C', 'C', 'C', 'C', 'C', 'C', 'C', 'C', 'C', 'C', 'C', 'C', 'C']","[834542, 835005, 835606, 836207, 836811, 837420, 838008, 838608, 839235, 839863, 840452, 841038, 841644, 842269, 842881, 843456, 844037, 844630, 845223, 845810, 846402, 846994, 847578]","[834644, 835113, 835706, 836301, 836894, 837495, 838104, 838694, 839321, 839949, 840550, 841136, 841738, 842348, 842964, 843538, 844126, 844717, 845312, 845892, 846490, 847076, 847638]","[833833, 834434, 835034, 835634, 836233, 836833, 837433, 838033, 838635, 839262, 839889, 840479, 841065, 841670, 842296, 842907, 843483, 844064, 844656, 845251, 845838, 846430, 847021, 847604]",38,R,ITM,1.1,
3,600,trial,0,43,43,43,trial,"['S', 'S', 'S', 'S', 'S', 'S', 'S', 'C', 'C', 'C', 'C', 'C', 'C', 'C', 'C', 'C', 'C', 'C', 'C', 'C', 'C', 'C', 'C']","[853424, 854138, 854805, 855425, 856006, 856626, 857192, 857806, 858406, 858985, 859549, 860150, 860752, 861346, 861942, 862560, 863202, 863806, 864378, 864947, 865567, 866188, 866776]","[853498, 854217, 854880, 855491, 856082, 856678, 857254, 857871, 858474, 859060, 859631, 860216, 860819, 861414, 862005, 862605, 863267, 863880, 864445, 865012, 865635, 866247, 866834]","[853046, 853646, 854246, 854846, 855446, 856046, 856646, 857246, 857832, 858432, 859011, 859575, 860176, 860778, 861372, 861968, 862585, 863227, 863832, 864404, 864972, 865593, 866213, 866801]",38,R,ITM,1.1,
6,600,trial,0,44,44,44,trial,"['S', 'S', 'S', 'S', 'S', 'S', 'S', 'C', 'C', 'C', 'C', 'C', 'C', 'C', 'C', 'C', 'C', 'C', 'C', 'C', 'C', 'C', 'C']","[872996, 873645, 874329, 874930, 875527, 876105, 876692, 877297, 877906, 878494, 879080, 879698, 880319, 880927, 881503, 882071, 882652, 883269, 883899, 884448, 885014, 885608, 886198]","[873070, 873706, 874400, 875011, 875597, 876184, 876775, 877372, 877989, 878576, 879158, 879795, 880390, 880987, 881589, 882177, 882749, 883344, 883982, 884555, 885111, 885714, 886284]","[872562, 873161, 873761, 874361, 874961, 875561, 876162, 876762, 877324, 877933, 878521, 879108, 879726, 880346, 880954, 881529, 882099, 882679, 883296, 883927, 884475, 885041, 885636, 886225]",38,R,ITM,1.1,
5,400,trial,0,45,45,45,trial,"['S', 'S', 'S', 'S', 'S', 'S', 'S', 'C', 'C', 'C', 'C', 'C', 'C', 'C', 'C', 'C', 'C', 'C', 'C', 'C', 'C', 'C', 'C']","[892182, 892544, 892929, 893312, 893677, 894103, 894485, 894916, 895290, 895669, 896058, 896463, 896854, 897216, 897622, 898003, 898387, 898774, 899162, 899558, 899913, 900296, 900679]","[892237, 892603, 893010, 893399, 893779, 894197, 894556, 894982, 895364, 895757, 896136, 896538, 896946, 897317, 897711, 898120, 898477, 898875, 899255, 899639, 900002, 900389, 900779]","[891744, 892143, 892544, 892943, 893343, 893744, 894143, 894543, 894942, 895315, 895694, 896083, 896490, 896879, 897242, 897648, 898029, 898413, 898799, 899187, 899584, 899939, 900322, 900705]",38,R,ITM,1.1,
4,600,trial,0,46,46,46,trial,"['S', 'S', 'S', 'S', 'S', 'S', 'S', 'C', 'C', 'C', 'C', 'C', 'C', 'C', 'C', 'C', 'C', 'C', 'C', 'C', 'C', 'C', 'C']","[906682, 907381, 908002, 908611, 909229, 909812, 910419, 911050, 911603, 912152, 912747, 913332, 913922, 914477, 915062, 915659, 916267, 916830, 917391, 917956, 918566, 919164, 919759]","[906746, 907456, 908083, 908686, 909294, 909893, 910511, 911126, 911686, 912236, 912827, 913422, 914008, 914568, 915186, 915728, 916348, 916920, 917504, 918067, 918653, 919249, 919849]","[906273, 906873, 907473, 908073, 908674, 909274, 909874, 910474, 911076, 911629, 912178, 912773, 913357, 913948, 914502, 915088, 915685, 916292, 916855, 917416, 917982, 918592, 919190, 919785]",38,R,ITM,1.1,
2,600,trial,0,47,47,47,trial,"['S', 'S', 'S', 'S', 'S', 'S', 'S', 'C', 'C', 'C', 'C', 'C', 'C', 'C', 'C', 'C', 'C', 'C', 'C', 'C', 'C', 'C', 'C']","[925978, 926593, 927228, 927841, 928476, 929068, 929662, 930241, 930854, 931431, 932034, 932613, 933212, 933815, 934443, 935054, 935638, 936235, 936812, 937407, 937993, 938580, 939162]","[926059, 926669, 927302, 927922, 928552, 929145, 929736, 930336, 930938, 931524, 932131, 932705, 933303, 933899, 934529, 935136, 935741, 936332, 936887, 937494, 938092, 938676, 939261]","[925489, 926089, 926688, 927289, 927889, 928489, 929089, 929689, 930269, 930882, 931459, 932061, 932640, 933238, 933842, 934470, 935081, 935664, 936261, 936839, 937435, 938020, 938607, 939189]",38,R,ITM,1.1,
2,400,trial,0,48,48,48,trial,"['S', 'S', 'S', 'S', 'S', 'S', 'S', 'S', 'C', 'C', 'C', 'C', 'C', 'C', 'C', 'C', 'C', 'C', 'C', 'C', 'C', 'C', 'C', 'C']","[945071, 945293, 945614, 946008, 946380, 946784, 947177, 947594, 947975, 948425, 948854, 949234, 949630, 950008, 950364, 950750, 951133, 951520, 951887, 952226, 952617, 953008, 953380, 953764]","[945110, 945359, 945691, 946079, 946442, 946844, 947231, 947656, 948040, 948483, 948915, 949311, 949686, 950077, 950434, 950824, 951216, 951598, 951973, 952307, 952684, 953086, 953445, 953840]","[944807, 945206, 945607, 946008, 946407, 946807, 947207, 947606, 948002, 948453, 948881, 949261, 949658, 950036, 950390, 950777, 951160, 951546, 951914, 952254, 952645, 953035, 953407, 953792]",38,R,ITM,1.1,
2,600,trial,0,49,49,49,trial,"['S', 'S', 'S', 'S', 'S', 'S', 'S', 'C', 'C', 'C', 'C', 'C', 'C', 'C', 'C', 'C', 'C', 'C', 'C', 'C', 'C', 'C', 'C']","[959868, 960605, 961245, 961828, 962436, 963074, 963632, 964228, 964847, 965450, 966041, 966628, 967226, 967810, 968410, 968979, 969591, 970192, 970773, 971357, 971928, 972528, 973136]","[959931, 960681, 961302, 961892, 962498, 963130, 963690, 964296, 964915, 965521, 966105, 966705, 967285, 967875, 968475, 969042, 969648, 970248, 970841, 971438, 972005, 972607, 973203]","[959466, 960066, 960666, 961266, 961866, 962466, 963065, 963666, 964254, 964874, 965478, 966069, 966654, 967252, 967836, 968436, 969007, 969619, 970220, 970800, 971383, 971956, 972555, 973163]",38,R,ITM,1.1,
7,400,trial,0,50,50,50,trial,"['S', 'S', 'S', 'S', 'S', 'S', 'S', 'C', 'C', 'C', 'C', 'C', 'C', 'C', 'C', 'C', 'C', 'C', 'C', 'C', 'C', 'C', 'C']","[979145, 979473, 979907, 980274, 980673, 981065, 981447, 981843, 982230, 982596, 982992, 983392, 983802, 984137, 984524, 984920, 985306, 985667, 986035, 986417, 986824, 987237, 987646]","[979202, 979535, 979956, 980325, 980729, 981118, 981504, 981908, 982298, 982675, 983057, 983451, 983872, 984238, 984608, 984982, 985376, 985745, 986113, 986497, 986896, 987310, 987724]","[978695, 979093, 979493, 979893, 980293, 980694, 981093, 981493, 981870, 982257, 982623, 983020, 983418, 983829, 984165, 984551, 984946, 985333, 985694, 986061, 986443, 986851, 987265, 987672]",38,R,ITM,1.1,
3,400,trial,0,51,51,51,trial,"['S', 'S', 'S', 'S', 'S', 'S', 'C', 'C', 'C', 'C', 'C', 'C', 'C', 'C', 'C', 'C', 'C', 'C', 'C', 'C', 'C', 'C']","[994084, 994478, 994869, 995256, 995641, 996071, 996452, 996827, 997216, 997547, 997908, 998286, 998670, 999040, 999411, 999763, 1000150, 1000438, 1000853, 1001245, 1001625, 1001970]","[994143, 994537, 994933, 995331, 995717, 996147, 996523, 996900, 997284, 997625, 997981, 998354, 998743, 999116, 999480, 999829, 1000213, 1000543, 1000923, 1001308, 1001689, 1002057]","[993316, 993716, 994116, 994516, 994916, 995316, 995717, 996116, 996477, 996852, 997241, 997572, 997934, 998311, 998695, 999065, 999437, 999789, 1000175, 1000464, 1000879, 1001271, 1001651, 1001996]",38,R,ITM,1.1,
3,600,trial,0,52,52,52,trial,"['S', 'S', 'S', 'S', 'S', 'S', 'S', 'C', 'C', 'C', 'C', 'C', 'C', 'C', 'C', 'C', 'C', 'C', 'C', 'C', 'C', 'C', 'C']","[1007823, 1008552, 1009205, 1009801, 1010434, 1010980, 1011609, 1012221, 1012777, 1013347, 1013937, 1014541, 1015130, 1015675, 1016258, 1016845, 1017453, 1018031, 1018594, 1019165, 1019762, 1020353, 1020938]","[1007955, 1008670, 1009310, 1009902, 1010484, 1011049, 1011671, 1012283, 1012851, 1013427, 1014023, 1014622, 1015214, 1015751, 1016343, 1016929, 1017538, 1018130, 1018684, 1019262, 1019868, 1020432, 1021004]","[1007482, 1008081, 1008681, 1009282, 1009882, 1010482, 1011082, 1011682, 1012247, 1012803, 1013372, 1013962, 1014566, 1015155, 1015702, 1016284, 1016870, 1017479, 1018056, 1018619, 1019191, 1019788, 1020379, 1020963]",38,R,ITM,1.1,
5,400,trial,0,53,53,53,trial,"['S', 'S', 'S', 'S', 'S', 'S', 'C', 'C', 'C', 'C', 'C', 'C', 'C', 'C', 'C', 'C', 'C', 'C', 'C', 'C', 'C', 'C']","[1027239, 1027628, 1028002, 1028409, 1028838, 1029217, 1029611, 1029999, 1030389, 1030759, 1031162, 1031574, 1031992, 1032374, 1032750, 1033146, 1033523, 1033920, 1034324, 1034718, 1035111, 1035515]","[1027329, 1027694, 1028079, 1028478, 1028901, 1029276, 1029699, 1030082, 1030482, 1030853, 1031240, 1031642, 1032059, 1032456, 1032824, 1033205, 1033600, 1033976, 1034395, 1034790, 1035185, 1035579]","[1026451, 1026851, 1027251, 1027651, 1028051, 1028451, 1028851, 1029252, 1029637, 1030026, 1030415, 1030786, 1031188, 1031601, 1032018, 1032400, 1032775, 1033172, 1033549, 1033946, 1034351, 1034743, 1035138, 1035542]",38,R,ITM,1.1,
3,400,trial,0,54,54,54,trial,"['S', 'S', 'S', 'S', 'S', 'S', 'C', 'C', 'C', 'C', 'C', 'C', 'C', 'C', 'C', 'C', 'C', 'C', 'C', 'C', 'C', 'C']","[1043276, 1043691, 1044116, 1044487, 1044827, 1045252, 1045681, 1046085, 1046476, 1046872, 1047263, 1047655, 1048053, 1048450, 1048837, 1049226, 1049636, 1050019, 1050416, 1050788, 1051185, 1051582]","[1043358, 1043752, 1044171, 1044538, 1044913, 1045341, 1045751, 1046151, 1046542, 1046937, 1047315, 1047714, 1048110, 1048504, 1048893, 1049285, 1049694, 1050080, 1050474, 1050861, 1051246, 1051667]","[1042534, 1042934, 1043335, 1043735, 1044135, 1044535, 1044935, 1045336, 1045706, 1046111, 1046502, 1046897, 1047288, 1047681, 1048079, 1048475, 1048862, 1049251, 1049662, 1050045, 1050441, 1050814, 1051210, 1051608]",38,R,ITM,1.1,
3,400,trial,0,55,55,55,trial,"['S', 'S', 'S', 'S', 'S', 'S', 'S', 'C', 'C', 'C', 'C', 'C', 'C', 'C', 'C', 'C', 'C', 'C', 'C', 'C', 'C', 'C', 'C']","[1057287, 1057660, 1058046, 1058467, 1058843, 1059257, 1059649, 1060057, 1060423, 1060796, 1061186, 1061565, 1061917, 1062296, 1062688, 1063067, 1063468, 1063831, 1064189, 1064578, 1064950, 1065320, 1065710]","[1057347, 1057722, 1058108, 1058535, 1058913, 1059322, 1059724, 1060130, 1060472, 1060845, 1061237, 1061612, 1061990, 1062352, 1062733, 1063122, 1063495, 1063866, 1064237, 1064607, 1065004, 1065361, 1065745]","[1056921, 1057321, 1057721, 1058121, 1058522, 1058921, 1059321, 1059721, 1060082, 1060449, 1060822, 1061212, 1061591, 1061943, 1062322, 1062714, 1063093, 1063493, 1063857, 1064215, 1064603, 1064976, 1065346, 1065736]",38,R,ITM,1.1,
6,400,trial,0,56,56,56,trial,"['S', 'S', 'S', 'S', 'S', 'S', 'S', 'C', 'C', 'C', 'C', 'C', 'C', 'C', 'C', 'C', 'C', 'C', 'C', 'C', 'C', 'C', 'C']","[1071699, 1072056, 1072432, 1072844, 1073208, 1073645, 1074022, 1074435, 1074806, 1075147, 1075550, 1075930, 1076326, 1076714, 1077098, 1077446, 1077821, 1078200, 1078598, 1078989, 1079380, 1079771, 1080165]","[1071728, 1072129, 1072486, 1072902, 1073272, 1073696, 1074067, 1074476, 1074845, 1075187, 1075590, 1075973, 1076361, 1076761, 1077136, 1077495, 1077857, 1078239, 1078642, 1079063, 1079430, 1079822, 1080206]","[1071329, 1071728, 1072129, 1072528, 1072928, 1073329, 1073728, 1074128, 1074461, 1074833, 1075175, 1075576, 1075957, 1076354, 1076741, 1077126, 1077473, 1077848, 1078226, 1078626, 1079016, 1079407, 1079797, 1080193]",38,R,ITM,1.1,
4,600,trial,0,57,57,57,trial,"['S', 'S', 'S', 'S', 'S', 'S', 'S', 'C', 'C', 'C', 'C', 'C', 'C', 'C', 'C', 'C', 'C', 'C', 'C', 'C', 'C', 'C', 'C']","[1085915, 1086625, 1087284, 1087887, 1088520, 1089121, 1089668, 1090246, 1090819, 1091383, 1091980, 1092567, 1093117, 1093692, 1094273, 1094873, 1095492, 1096122, 1096684, 1097191, 1097779, 1098354, 1098911]","[1086007, 1086686, 1087336, 1087940, 1088561, 1089181, 1089734, 1090315, 1090868, 1091476, 1092052, 1092637, 1093190, 1093762, 1094351, 1094950, 1095556, 1096172, 1096781, 1097292, 1097848, 1098432, 1098989]","[1085535, 1086134, 1086734, 1087334, 1087934, 1088534, 1089134, 1089734, 1090272, 1090844, 1091408, 1092005, 1092592, 1093143, 1093718, 1094298, 1094898, 1095518, 1096147, 1096710, 1097217, 1097804, 1098380, 1098937]",38,R,ITM,1.1,
6,600,trial,0,58,58,58,trial,"['S', 'S', 'S', 'S', 'S', 'S', 'S', 'C', 'C', 'C', 'C', 'C', 'C', 'C', 'C', 'C', 'C', 'C', 'C', 'C', 'C', 'C', 'C']","[1104807, 1105574, 1106239, 1106853, 1107439, 1108044, 1108629, 1109200, 1109742, 1110304, 1110885, 1111452, 1112034, 1112595, 1113164, 1113723, 1114310, 1114860, 1115431, 1116009, 1116585, 1117151, 1117725]","[1104913, 1105705, 1106351, 1106960, 1107547, 1108140, 1108728, 1109309, 1109871, 1110415, 1110994, 1111559, 1112139, 1112688, 1113270, 1113836, 1114414, 1114978, 1115521, 1116122, 1116672, 1117248, 1117817]","[1104492, 1105091, 1105691, 1106291, 1106891, 1107491, 1108091, 1108691, 1109227, 1109769, 1110331, 1110912, 1111479, 1112060, 1112622, 1113191, 1113750, 1114338, 1114887, 1115458, 1116036, 1116613, 1117177, 1117752]",38,R,ITM,1.1,
3,600,trial,0,59,59,59,trial,"['S', 'S', 'S', 'S', 'S', 'S', 'S', 'C', 'C', 'C', 'C', 'C', 'C', 'C', 'C', 'C', 'C', 'C', 'C', 'C', 'C', 'C', 'C']","[1123638, 1124386, 1125029, 1125617, 1126235, 1126823, 1127444, 1128005, 1128578, 1129152, 1129718, 1130295, 1130864, 1131436, 1132008, 1132593, 1133163, 1133735, 1134301, 1134893, 1135504, 1136065, 1136620]","[1123707, 1124457, 1125103, 1125695, 1126312, 1126897, 1127515, 1128084, 1128658, 1129231, 1129809, 1130372, 1130929, 1131502, 1132088, 1132657, 1133238, 1133816, 1134390, 1134981, 1135580, 1136150, 1136707]","[1123286, 1123885, 1124485, 1125085, 1125685, 1126285, 1126885, 1127485, 1128031, 1128603, 1129178, 1129744, 1130320, 1130890, 1131461, 1132034, 1132618, 1133189, 1133761, 1134326, 1134918, 1135529, 1136091, 1136646]",38,R,ITM,1.1,
4,400,trial,0,60,60,60,trial,"['S', 'S', 'S', 'S', 'S', 'S', 'S', 'C', 'C', 'C', 'C', 'C', 'C', 'C', 'C', 'C', 'C', 'C', 'C', 'C', 'C', 'C', 'C']","[1142502, 1142848, 1143232, 1143622, 1144026, 1144427, 1144839, 1145220, 1145611, 1145986, 1146346, 1146736, 1147148, 1147528, 1147880, 1148239, 1148645, 1149050, 1149444, 1149836, 1150212, 1150592, 1150959]","[1142578, 1142922, 1143311, 1143713, 1144102, 1144513, 1144910, 1145289, 1145689, 1146101, 1146440, 1146829, 1147239, 1147644, 1147976, 1148339, 1148728, 1149132, 1149528, 1149908, 1150289, 1150671, 1151034]","[1142075, 1142474, 1142875, 1143274, 1143674, 1144074, 1144474, 1144875, 1145245, 1145637, 1146012, 1146372, 1146762, 1147173, 1147553, 1147906, 1148265, 1148670, 1149076, 1149469, 1149861, 1150237, 1150617, 1150985]",38,R,ITM,1.1,
2,400,trial,0,61,61,61,trial,"['S', 'S', 'S', 'S', 'S', 'S', 'S', 'C', 'C', 'C', 'C', 'C', 'C', 'C', 'C', 'C', 'C', 'C', 'C', 'C', 'C', 'C', 'C']","[1156964, 1157353, 1157735, 1158141, 1158530, 1158955, 1159368, 1159750, 1160144, 1160543, 1160919, 1161320, 1161741, 1162127, 1162513, 1162898, 1163297, 1163696, 1164066, 1164454, 1164836, 1165231, 1165638]","[1157018, 1157414, 1157814, 1158198, 1158597, 1159017, 1159441, 1159826, 1160212, 1160626, 1160996, 1161383, 1161817, 1162196, 1162594, 1162969, 1163373, 1163779, 1164141, 1164515, 1164911, 1165305, 1165713]","[1156597, 1156998, 1157397, 1157797, 1158197, 1158597, 1158996, 1159396, 1159778, 1160172, 1160570, 1160945, 1161348, 1161767, 1162155, 1162540, 1162925, 1163324, 1163722, 1164094, 1164482, 1164864, 1165257, 1165665]",38,R,ITM,1.1,
2,600,trial,0,62,62,62,trial,"['S', 'S', 'S', 'S', 'S', 'S', 'S', 'C', 'C', 'C', 'C', 'C', 'C', 'C', 'C', 'C', 'C', 'C', 'C', 'C', 'C', 'C', 'C']","[1171647, 1172471, 1173083, 1173712, 1174327, 1174894, 1175496, 1176120, 1176745, 1177344, 1177888, 1178455, 1179031, 1179622, 1180219, 1180826, 1181470, 1182062, 1182620, 1183236, 1183822, 1184394, 1184985]","[1171723, 1172536, 1173144, 1173777, 1174390, 1174967, 1175574, 1176180, 1176802, 1177417, 1177961, 1178534, 1179109, 1179691, 1180283, 1180889, 1181545, 1182126, 1182687, 1183301, 1183897, 1184465, 1185048]","[1171367, 1171968, 1172568, 1173167, 1173768, 1174366, 1174967, 1175567, 1176146, 1176771, 1177370, 1177916, 1178482, 1179058, 1179649, 1180246, 1180854, 1181497, 1182090, 1182648, 1183263, 1183849, 1184421, 1185011]",38,R,ITM,1.1,
4,600,trial,0,63,63,63,trial,"['S', 'S', 'S', 'S', 'S', 'S', 'S', 'C', 'C', 'C', 'C', 'C', 'C', 'C', 'C', 'C', 'C', 'C', 'C', 'C', 'C', 'C', 'C']","[1190742, 1191424, 1192101, 1192713, 1193262, 1193872, 1194494, 1195120, 1195708, 1196285, 1196871, 1197493, 1198084, 1198655, 1199259, 1199846, 1200456, 1201017, 1201616, 1202231, 1202789, 1203359, 1203955]","[1190825, 1191497, 1192158, 1192768, 1193317, 1193931, 1194553, 1195168, 1195771, 1196354, 1196939, 1197566, 1198145, 1198722, 1199321, 1199910, 1200518, 1201064, 1201684, 1202278, 1202834, 1203404, 1204009]","[1190326, 1190925, 1191525, 1192125, 1192725, 1193325, 1193925, 1194525, 1195147, 1195735, 1196311, 1196897, 1197518, 1198109, 1198682, 1199285, 1199872, 1200482, 1201043, 1201643, 1202256, 1202814, 1203385, 1203981]",38,R,ITM,1.1,
2,400,trial,0,64,64,64,trial,"['S', 'S', 'S', 'S', 'S', 'S', 'S', 'C', 'C', 'C', 'C', 'C', 'C', 'C', 'C', 'C', 'C', 'C', 'C', 'C', 'C', 'C', 'C']","[1209711, 1210057, 1210465, 1210854, 1211265, 1211654, 1212042, 1212447, 1212840, 1213231, 1213596, 1213981, 1214355, 1214736, 1215142, 1215553, 1215926, 1216308, 1216705, 1217079, 1217472, 1217860, 1218243]","[1209767, 1210133, 1210535, 1210933, 1211333, 1211736, 1212110, 1212520, 1212905, 1213294, 1213668, 1214050, 1214441, 1214818, 1215217, 1215642, 1216012, 1216395, 1216796, 1217155, 1217544, 1217922, 1218299]","[1209298, 1209698, 1210097, 1210499, 1210898, 1211298, 1211699, 1212098, 1212475, 1212867, 1213257, 1213623, 1214008, 1214382, 1214764, 1215169, 1215580, 1215953, 1216335, 1216733, 1217106, 1217499, 1217888, 1218270]",38,R,ITM,1.1,
7,600,trial,0,65,65,65,trial,"['S', 'S', 'S', 'S', 'S', 'S', 'S', 'C', 'C', 'C', 'C', 'C', 'C', 'C', 'C', 'C', 'C', 'C', 'C', 'C', 'C', 'C', 'C']","[1224450, 1225134, 1225798, 1226415, 1227006, 1227597, 1228211, 1228789, 1229386, 1229959, 1230541, 1231098, 1231681, 1232256, 1232845, 1233409, 1234010, 1234589, 1235196, 1235798, 1236388, 1236934, 1237497]","[1224541, 1225209, 1225867, 1226491, 1227073, 1227669, 1228284, 1228858, 1229452, 1230026, 1230605, 1231175, 1231757, 1232347, 1232918, 1233480, 1234081, 1234654, 1235268, 1235868, 1236455, 1237010, 1237581]","[1224061, 1224660, 1225261, 1225861, 1226461, 1227060, 1227660, 1228260, 1228816, 1229414, 1229986, 1230569, 1231126, 1231709, 1232283, 1232872, 1233436, 1234037, 1234616, 1235224, 1235824, 1236415, 1236961, 1237524]",38,R,ITM,1.1,
5,400,trial,0,66,66,66,trial,"['S', 'S', 'S', 'S', 'S', 'S', 'C', 'C', 'C', 'C', 'C', 'C', 'C', 'C', 'C', 'C', 'C', 'C', 'C', 'C', 'C', 'C']","[1243885, 1244278, 1244653, 1245056, 1245466, 1245861, 1246260, 1246658, 1247044, 1247425, 1247814, 1248218, 1248593, 1248987, 1249397, 1249785, 1250176, 1250555, 1250924, 1251326, 1251720, 1252105]","[1243944, 1244343, 1244718, 1245126, 1245529, 1245934, 1246340, 1246727, 1247122, 1247493, 1247881, 1248303, 1248669, 1249061, 1249474, 1249888, 1250255, 1250627, 1251001, 1251400, 1251806, 1252182]","[1243097, 1243495, 1243895, 1244295, 1244695, 1245095, 1245495, 1245895, 1246285, 1246684, 1247070, 1247452, 1247840, 1248243, 1248619, 1249013, 1249423, 1249812, 1250201, 1250582, 1250950, 1251353, 1251745, 1252130]",38,R,ITM,1.1,
3,600,trial,0,67,67,67,trial,"['S', 'S', 'S', 'S', 'S', 'S', 'S', 'C', 'C', 'C', 'C', 'C', 'C', 'C', 'C', 'C', 'C', 'C', 'C', 'C', 'C', 'C', 'C']","[1257984, 1258786, 1259436, 1260029, 1260622, 1261236, 1261856, 1262473, 1263050, 1263633, 1264234, 1264833, 1265433, 1266024, 1266580, 1267138, 1267727, 1268285, 1268833, 1269396, 1269974, 1270551, 1271145]","[1258064, 1258910, 1259530, 1260112, 1260688, 1261441, 1262051, 1262668, 1263220, 1263804, 1264392, 1265037, 1265669, 1266214, 1266807, 1267351, 1267856, 1268326, 1268874, 1269432, 1270012, 1270596, 1271183]","[1257706, 1258306, 1258906, 1259506, 1260106, 1260706, 1261306, 1261906, 1262498, 1263076, 1263660, 1264260, 1264859, 1265459, 1266050, 1266606, 1267164, 1267752, 1268311, 1268858, 1269422, 1269999, 1270577, 1271171]",38,R,ITM,1.1,
7,400,trial,0,68,68,68,trial,"['S', 'S', 'S', 'S', 'S', 'S', 'S', 'C', 'C', 'C', 'C', 'C', 'C', 'C', 'C', 'C', 'C', 'C', 'C', 'C', 'C', 'C', 'C']","[1277309, 1277727, 1278139, 1278541, 1278954, 1279330, 1279795, 1280125, 1280519, 1280901, 1281307, 1281718, 1282116, 1282500, 1282896, 1283298, 1283702, 1284115, 1284515, 1284915, 1285316, 1285713, 1286091]","[1277504, 1277915, 1278303, 1278699, 1279109, 1279493, 1279930, 1280262, 1280637, 1281027, 1281430, 1281825, 1282241, 1282617, 1283014, 1283442, 1283824, 1284225, 1284625, 1285028, 1285426, 1285840, 1286236]","[1276972, 1277370, 1277770, 1278171, 1278570, 1278970, 1279370, 1279770, 1280153, 1280546, 1280928, 1281335, 1281744, 1282143, 1282527, 1282923, 1283325, 1283730, 1284143, 1284542, 1284941, 1285343, 1285741, 1286119]",38,R,ITM,1.1,
5,400,trial,0,69,69,69,trial,"['S', 'S', 'S', 'S', 'S', 'S', 'C', 'C', 'C', 'C', 'C', 'C', 'C', 'C', 'C', 'C', 'C', 'C', 'C', 'C', 'C', 'C']","[1292320, 1292748, 1293149, 1293549, 1293936, 1294323, 1294730, 1295137, 1295523, 1295893, 1296300, 1296700, 1297111, 1297512, 1297922, 1298340, 1298756, 1299164, 1299559, 1299949, 1300346, 1300763]","[1292369, 1292814, 1293211, 1293618, 1294013, 1294401, 1294791, 1295197, 1295580, 1295950, 1296364, 1296765, 1297172, 1297569, 1297977, 1298378, 1298821, 1299218, 1299602, 1299999, 1300383, 1300794]","[1291548, 1291949, 1292348, 1292748, 1293149, 1293549, 1293949, 1294349, 1294755, 1295163, 1295550, 1295919, 1296326, 1296726, 1297136, 1297538, 1297948, 1298366, 1298783, 1299189, 1299585, 1299975, 1300373, 1300789]",38,R,ITM,1.1,
5,600,trial,0,70,70,70,trial,"['S', 'S', 'S', 'S', 'S', 'S', 'S', 'C', 'C', 'C', 'C', 'C', 'C', 'C', 'C', 'C', 'C', 'C', 'C', 'C', 'C', 'C', 'C']","[1306620, 1307414, 1308035, 1308666, 1309235, 1309818, 1310423, 1311001, 1311595, 1312197, 1312790, 1313353, 1313946, 1314518, 1315077, 1315656, 1316245, 1316788, 1317380, 1317959, 1318506, 1319076, 1319632]","[1306692, 1307680, 1308247, 1308864, 1309436, 1310029, 1310592, 1311219, 1311734, 1312325, 1312926, 1313485, 1314055, 1314614, 1315216, 1315825, 1316367, 1316944, 1317560, 1318121, 1318661, 1319245, 1319786]","[1306275, 1306874, 1307474, 1308075, 1308675, 1309275, 1309874, 1310474, 1311027, 1311621, 1312223, 1312816, 1313380, 1313972, 1314543, 1315102, 1315682, 1316271, 1316813, 1317405, 1317985, 1318532, 1319102, 1319658]",38,R,ITM,1.1,
6,400,trial,0,71,71,71,trial,"['S', 'S', 'S', 'S', 'S', 'S', 'S', 'C', 'C', 'C', 'C', 'C', 'C', 'C', 'C', 'C', 'C', 'C', 'C', 'C', 'C', 'C', 'C']","[1325409, 1325784, 1326191, 1326575, 1326967, 1327372, 1327763, 1328177, 1328567, 1328960, 1329355, 1329747, 1330150, 1330543, 1330923, 1331323, 1331720, 1332121, 1332524, 1332913, 1333309, 1333693, 1334084]","[1325514, 1325874, 1326295, 1326676, 1327092, 1327520, 1327897, 1328286, 1328691, 1329081, 1329500, 1329861, 1330260, 1330685, 1331046, 1331437, 1331864, 1332254, 1332657, 1333046, 1333425, 1333817, 1334206]","[1325010, 1325409, 1325809, 1326210, 1326609, 1327009, 1327410, 1327809, 1328204, 1328594, 1328987, 1329382, 1329775, 1330178, 1330571, 1330951, 1331350, 1331746, 1332149, 1332550, 1332939, 1333336, 1333721, 1334111]",38,R,ITM,1.1,
7,600,trial,0,72,72,72,trial,"['S', 'S', 'S', 'S', 'S', 'S', 'S', 'C', 'C', 'C', 'C', 'C', 'C', 'C', 'C', 'C', 'C', 'C', 'C', 'C', 'C', 'C', 'C']","[1339877, 1340652, 1341270, 1341904, 1342471, 1343060, 1343656, 1344250, 1344867, 1345487, 1346108, 1346681, 1347261, 1347841, 1348422, 1348964, 1349532, 1350120, 1350724, 1351304, 1351896, 1352476, 1353056]","[1340307, 1340913, 1341501, 1342105, 1342639, 1343270, 1343830, 1344388, 1344992, 1345628, 1346237, 1346844, 1347412, 1347996, 1348562, 1349157, 1349677, 1350254, 1350867, 1351454, 1352040, 1352625, 1353206]","[1339492, 1340091, 1340691, 1341291, 1341891, 1342491, 1343091, 1343691, 1344277, 1344894, 1345515, 1346135, 1346709, 1347289, 1347867, 1348450, 1348990, 1349559, 1350148, 1350751, 1351330, 1351923, 1352504, 1353082]",38,R,ITM,1.1,
6,600,trial,0,73,73,73,trial,"['S', 'S', 'S', 'S', 'S', 'S', 'S', 'C', 'C', 'C', 'C', 'C', 'C', 'C', 'C', 'C', 'C', 'C', 'C', 'C', 'C', 'C', 'C']","[1359237, 1360023, 1360655, 1361239, 1361843, 1362420, 1363047, 1363624, 1364234, 1364840, 1365444, 1366057, 1366674, 1367274, 1367872, 1368472, 1369071, 1369670, 1370275, 1370899, 1371516, 1372101, 1372689]","[1359351, 1360199, 1360839, 1361369, 1361888, 1362476, 1363121, 1363815, 1364441, 1365086, 1365694, 1366243, 1366833, 1367454, 1368070, 1368678, 1369282, 1369869, 1370478, 1371080, 1371699, 1372286, 1372880]","[1358874, 1359474, 1360074, 1360674, 1361274, 1361874, 1362475, 1363075, 1363651, 1364260, 1364867, 1365472, 1366085, 1366702, 1367302, 1367899, 1368499, 1369099, 1369697, 1370302, 1370926, 1371543, 1372128, 1372717]",38,R,ITM,1.1,
4,400,trial,0,74,74,74,trial,"['S', 'S', 'S', 'S', 'S', 'S', 'S', 'C', 'C', 'C', 'C', 'C', 'C', 'C', 'C', 'C', 'C', 'C', 'C', 'C', 'C', 'C', 'C']","[1378679, 1379075, 1379427, 1379836, 1380240, 1380626, 1381040, 1381439, 1381838, 1382239, 1382639, 1383042, 1383452, 1383854, 1384242, 1384645, 1385031, 1385438, 1385823, 1386218, 1386610, 1387027, 1387441]","[1378819, 1379154, 1379564, 1379983, 1380374, 1380764, 1381143, 1381559, 1381953, 1382342, 1382739, 1383153, 1383556, 1383954, 1384364, 1384758, 1385120, 1385553, 1385934, 1386331, 1386697, 1387105, 1387564]","[1378254, 1378654, 1379054, 1379454, 1379854, 1380254, 1380655, 1381054, 1381465, 1381864, 1382264, 1382665, 1383068, 1383478, 1383879, 1384267, 1384671, 1385057, 1385463, 1385848, 1386244, 1386636, 1387053, 1387466]",38,R,ITM,1.1,
5,600,trial,0,75,75,75,trial,"['S', 'S', 'S', 'S', 'S', 'S', 'C', 'C', 'C', 'C', 'C', 'C', 'C', 'C', 'C', 'C', 'C', 'C', 'C', 'C', 'C', 'C']","[1394345, 1395002, 1395637, 1396280, 1396835, 1397450, 1398016, 1398575, 1399159, 1399755, 1400350, 1400944, 1401562, 1402189, 1402773, 1403358, 1403937, 1404542, 1405173, 1405799, 1406360, 1406923]","[1394660, 1395232, 1395879, 1396466, 1397061, 1397588, 1398198, 1398745, 1399319, 1399897, 1400470, 1401112, 1401774, 1402344, 1402925, 1403535, 1404130, 1404717, 1405366, 1405978, 1406555, 1407113]","[1393250, 1393850, 1394450, 1395050, 1395650, 1396250, 1396850, 1397450, 1398042, 1398601, 1399185, 1399781, 1400376, 1400970, 1401587, 1402215, 1402799, 1403383, 1403963, 1404568, 1405199, 1405825, 1406387, 1406949]",38,R,ITM,1.1,
7,400,trial,0,76,76,76,trial,"['S', 'S', 'S', 'S', 'S', 'S', 'S', 'C', 'C', 'C', 'C', 'C', 'C', 'C', 'C', 'C', 'C', 'C', 'C', 'C', 'C', 'C', 'C']","[1412720, 1413115, 1413526, 1413918, 1414306, 1414723, 1415115, 1415536, 1415929, 1416316, 1416720, 1417116, 1417500, 1417885, 1418290, 1418691, 1419078, 1419475, 1419872, 1420257, 1420656, 1421048, 1421456]","[1412839, 1413244, 1413655, 1414066, 1414447, 1414854, 1415239, 1415651, 1416046, 1416419, 1416814, 1417211, 1417610, 1417995, 1418391, 1418808, 1419201, 1419584, 1419967, 1420361, 1420761, 1421148, 1421562]","[1412361, 1412760, 1413160, 1413560, 1413960, 1414361, 1414760, 1415160, 1415564, 1415956, 1416344, 1416748, 1417143, 1417528, 1417912, 1418316, 1418718, 1419106, 1419502, 1419899, 1420284, 1420684, 1421076, 1421483]",38,R,ITM,1.1,
2,600,trial,0,77,77,77,trial,"['S', 'S', 'S', 'S', 'S', 'S', 'S', 'C', 'C', 'C', 'C', 'C', 'C', 'C', 'C', 'C', 'C', 'C', 'C', 'C', 'C', 'C', 'C']","[1427262, 1427981, 1428647, 1429234, 1429858, 1430412, 1431022, 1431616, 1432220, 1432809, 1433405, 1433981, 1434547, 1435147, 1435761, 1436385, 1436950, 1437534, 1438114, 1438723, 1439310, 1439937, 1440528]","[1427406, 1428176, 1428786, 1429394, 1430041, 1430623, 1431185, 1431797, 1432381, 1432975, 1433559, 1434146, 1434711, 1435285, 1435917, 1436529, 1437129, 1437652, 1438256, 1438848, 1439444, 1440056, 1440665]","[1426847, 1427447, 1428046, 1428646, 1429248, 1429848, 1430448, 1431048, 1431644, 1432247, 1432837, 1433433, 1434008, 1434574, 1435173, 1435788, 1436411, 1436977, 1437560, 1438141, 1438749, 1439337, 1439965, 1440556]",38,R,ITM,1.1,
3,600,trial,0,78,78,78,trial,"['S', 'S', 'S', 'S', 'S', 'S', 'S', 'C', 'C', 'C', 'C', 'C', 'C', 'C', 'C', 'C', 'C', 'C', 'C', 'C', 'C', 'C', 'C']","[1446282, 1446981, 1447662, 1448238, 1448852, 1449460, 1450056, 1450651, 1451245, 1451855, 1452425, 1452993, 1453617, 1454221, 1454827, 1455403, 1456015, 1456610, 1457239, 1457827, 1458414, 1458967, 1459557]","[1446404, 1447159, 1447844, 1448410, 1449003, 1449606, 1450202, 1450779, 1451338, 1451975, 1452558, 1453139, 1453745, 1454347, 1454940, 1455523, 1456151, 1456746, 1457358, 1457950, 1458524, 1459115, 1459668]","[1445873, 1446472, 1447072, 1447672, 1448272, 1448872, 1449473, 1450073, 1450677, 1451271, 1451881, 1452450, 1453019, 1453642, 1454246, 1454853, 1455428, 1456040, 1456635, 1457265, 1457853, 1458440, 1458993, 1459582]",38,R,ITM,1.1,
4,400,trial,0,79,79,79,trial,"['S', 'S', 'S', 'S', 'S', 'S', 'S', 'C', 'C', 'C', 'C', 'C', 'C', 'C', 'C', 'C', 'C', 'C', 'C', 'C', 'C', 'C', 'C']","[1465731, 1466133, 1466510, 1466901, 1467298, 1467706, 1468120, 1468517, 1468917, 1469334, 1469740, 1470132, 1470521, 1470910, 1471326, 1471760, 1472158, 1472548, 1472955, 1473355, 1473757, 1474140, 1474536]","[1465854, 1466260, 1466631, 1467077, 1467467, 1467866, 1468260, 1468648, 1469068, 1469481, 1469861, 1470265, 1470663, 1471033, 1471435, 1471856, 1472270, 1472657, 1473080, 1473475, 1473867, 1474258, 1474647]","[1465341, 1465741, 1466141, 1466542, 1466941, 1467341, 1467741, 1468141, 1468542, 1468943, 1469360, 1469765, 1470157, 1470546, 1470936, 1471351, 1471785, 1472184, 1472574, 1472980, 1473381, 1473782, 1474165, 1474562]",38,R,ITM,1.1,
4,600,trial,0,80,80,80,trial,"['S', 'S', 'S', 'S', 'S', 'S', 'S', 'S', 'C', 'C', 'C', 'C', 'C', 'C', 'C', 'C', 'C', 'C', 'C', 'C', 'C', 'C', 'C', 'C']","[1480262, 1480521, 1481210, 1481826, 1482413, 1483024, 1483643, 1484207, 1484775, 1485357, 1485958, 1486566, 1487121, 1487717, 1488319, 1488931, 1489504, 1490074, 1490653, 1491233, 1491853, 1492431, 1493017, 1493616]","[1480348, 1480634, 1481395, 1482014, 1482601, 1483204, 1483793, 1484397, 1484988, 1485518, 1486109, 1486710, 1487298, 1487885, 1488454, 1489051, 1489619, 1490222, 1490786, 1491367, 1491979, 1492579, 1493128, 1493749]","[1480054, 1480654, 1481254, 1481854, 1482455, 1483055, 1483655, 1484255, 1484801, 1485382, 1485983, 1486592, 1487147, 1487742, 1488345, 1488957, 1489529, 1490100, 1490679, 1491259, 1491878, 1492458, 1493043, 1493642]",38,R,ITM,1.1,
5,400,trial,0,81,81,81,trial,"['S', 'S', 'S', 'S', 'S', 'C', 'C', 'C', 'C', 'C', 'C', 'C', 'C', 'C', 'C', 'C', 'C', 'C', 'C', 'C', 'C']","[1500114, 1500551, 1500946, 1501356, 1501730, 1502152, 1502544, 1502936, 1503346, 1503728, 1504111, 1504499, 1504890, 1505287, 1505674, 1506050, 1506416, 1506785, 1507173, 1507557, 1507940]","[1500239, 1500655, 1501097, 1501501, 1501869, 1502268, 1502676, 1503065, 1503468, 1503849, 1504236, 1504632, 1505003, 1505401, 1505781, 1506159, 1506530, 1506903, 1507271, 1507668, 1508063]","[1498993, 1499394, 1499793, 1500193, 1500594, 1500994, 1501394, 1501794, 1502178, 1502570, 1502961, 1503373, 1503754, 1504137, 1504526, 1504916, 1505312, 1505699, 1506075, 1506442, 1506810, 1507200, 1507582, 1507966]",38,R,ITM,1.1,
7,400,trial,0,82,82,82,trial,"['S', 'S', 'S', 'S', 'S', 'S', 'S', 'C', 'C', 'C', 'C', 'C', 'C', 'C', 'C', 'C', 'C', 'C', 'C', 'C', 'C', 'C', 'C']","[1514118, 1514466, 1514840, 1515222, 1515627, 1516013, 1516418, 1516803, 1517202, 1517615, 1518028, 1518416, 1518794, 1519171, 1519562, 1519962, 1520375, 1520771, 1521158, 1521542, 1521931, 1522325, 1522707]","[1514234, 1514591, 1514972, 1515360, 1515746, 1516149, 1516555, 1516955, 1517336, 1517753, 1518161, 1518545, 1518923, 1519292, 1519673, 1520091, 1520490, 1520902, 1521287, 1521654, 1522046, 1522454, 1522848]","[1513658, 1514057, 1514458, 1514857, 1515257, 1515657, 1516057, 1516457, 1516829, 1517229, 1517641, 1518056, 1518444, 1518821, 1519198, 1519589, 1519988, 1520402, 1520798, 1521185, 1521568, 1521957, 1522352, 1522734]",38,R,ITM,1.1,
7,600,trial,0,83,83,83,trial,"['S', 'S', 'S', 'S', 'S', 'S', 'S', 'C', 'C', 'C', 'C', 'C', 'C', 'C', 'C', 'C', 'C', 'C', 'C', 'C', 'C', 'C', 'C']","[1528434, 1529140, 1529787, 1530390, 1530981, 1531590, 1532186, 1532817, 1533420, 1533978, 1534546, 1535147, 1535747, 1536335, 1536909, 1537468, 1538060, 1538675, 1539271, 1539841, 1540436, 1541070, 1541660]","[1528532, 1529279, 1529947, 1530540, 1531147, 1531793, 1532352, 1532957, 1533557, 1534148, 1534699, 1535280, 1535874, 1536453, 1537053, 1537620, 1538203, 1538823, 1539408, 1539984, 1540566, 1541193, 1541796]","[1528055, 1528654, 1529254, 1529854, 1530455, 1531055, 1531655, 1532254, 1532844, 1533447, 1534006, 1534574, 1535174, 1535773, 1536362, 1536935, 1537495, 1538086, 1538702, 1539299, 1539867, 1540463, 1541098, 1541687]",38,R,ITM,1.1,
5,400,trial,0,84,84,84,trial,"['B', 'S', 'S', 'S', 'S', 'S', 'S', 'C', 'C', 'C', 'C', 'C', 'C', 'C', 'C', 'C', 'C', 'C', 'C', 'C', 'C', 'C', 'C']","[1546994, 1547722, 1548136, 1548567, 1548966, 1549366, 1549788, 1550215, 1550602, 1550996, 1551390, 1551790, 1552176, 1552564, 1552961, 1553355, 1553733, 1554119, 1554513, 1554919, 1555293, 1555666, 1556057]","[1547566, 1547838, 1548283, 1548693, 1549038, 1549446, 1549888, 1550304, 1550699, 1551096, 1551490, 1551881, 1552287, 1552658, 1553041, 1553452, 1553837, 1554230, 1554622, 1555027, 1555411, 1555792, 1556170]","[1547006, 1547405, 1547805, 1548206, 1548605, 1549005, 1549405, 1549805, 1550240, 1550627, 1551022, 1551416, 1551816, 1552201, 1552589, 1552987, 1553381, 1553759, 1554145, 1554540, 1554945, 1555318, 1555692, 1556083]",38,R,ITM,1.1,
6,600,trial,0,85,85,85,trial,"['S', 'S', 'S', 'S', 'S', 'S', 'S', 'C', 'C', 'C', 'C', 'C', 'C', 'C', 'C', 'C', 'C', 'C', 'C', 'C', 'C', 'C', 'C']","[1561925, 1562665, 1563288, 1563902, 1564500, 1565081, 1565704, 1566297, 1566899, 1567491, 1568090, 1568697, 1569286, 1569884, 1570477, 1571085, 1571684, 1572257, 1572848, 1573440, 1574051, 1574663, 1575274]","[1562014, 1562798, 1563600, 1564110, 1564675, 1565179, 1565797, 1566380, 1566991, 1567578, 1568176, 1568789, 1569372, 1569968, 1570563, 1571168, 1571765, 1572355, 1572929, 1573530, 1574140, 1574746, 1575365]","[1561551, 1562150, 1562750, 1563351, 1563951, 1564551, 1565150, 1565750, 1566324, 1566925, 1567517, 1568116, 1568723, 1569312, 1569910, 1570503, 1571111, 1571710, 1572284, 1572876, 1573468, 1574078, 1574689, 1575301]",38,R,ITM,1.1,
4,600,trial,0,86,86,86,trial,"['S', 'S', 'S', 'S', 'S', 'S', 'S', 'C', 'C', 'C', 'C', 'C', 'C', 'C', 'C', 'C', 'C', 'C', 'C', 'C', 'C', 'C', 'C']","[1581153, 1581897, 1582593, 1583160, 1583738, 1584339, 1584946, 1585545, 1586124, 1586780, 1587362, 1587972, 1588555, 1589112, 1589665, 1590201, 1590776, 1591351, 1591932, 1592495, 1593066, 1593631, 1594191]","[1581257, 1582007, 1582701, 1583291, 1583869, 1584474, 1585072, 1585659, 1586239, 1586864, 1587459, 1588062, 1588667, 1589249, 1589808, 1590340, 1590914, 1591487, 1592060, 1592608, 1593171, 1593748, 1594314]","[1580788, 1581388, 1581988, 1582588, 1583188, 1583789, 1584389, 1584989, 1585570, 1586150, 1586805, 1587388, 1587997, 1588582, 1589139, 1589691, 1590226, 1590802, 1591376, 1591958, 1592520, 1593092, 1593657, 1594217]",38,R,ITM,1.1,
7,400,trial,0,87,87,87,trial,"['S', 'S', 'S', 'S', 'S', 'S', 'S', 'C', 'C', 'C', 'C', 'C', 'C', 'C', 'C', 'C', 'C', 'C', 'C', 'C', 'C', 'C', 'C']","[1599979, 1600385, 1600805, 1601166, 1601545, 1601958, 1602373, 1602793, 1603180, 1603578, 1603989, 1604369, 1604772, 1605186, 1605576, 1605968, 1606379, 1606778, 1607186, 1607598, 1607987, 1608374, 1608769]","[1600117, 1600499, 1600913, 1601288, 1601695, 1602109, 1602502, 1602908, 1603280, 1603680, 1604086, 1604459, 1604881, 1605277, 1605670, 1606081, 1606470, 1606885, 1607299, 1607702, 1608093, 1608485, 1608882]","[1599606, 1600006, 1600405, 1600805, 1601205, 1601605, 1602006, 1602405, 1602821, 1603207, 1603605, 1604017, 1604397, 1604799, 1605213, 1605603, 1605995, 1606406, 1606806, 1607214, 1607625, 1608014, 1608401, 1608797]",38,R,ITM,1.1,
4,400,trial,0,88,88,88,trial,"['S', 'S', 'S', 'S', 'S', 'S', 'S', 'C', 'C', 'C', 'C', 'C', 'C', 'C', 'C', 'C', 'C', 'C', 'C', 'C', 'C', 'C', 'C']","[1614919, 1615278, 1615667, 1616026, 1616470, 1616851, 1617259, 1617651, 1618039, 1618478, 1618864, 1619230, 1619627, 1620013, 1620410, 1620802, 1621199, 1621592, 1621969, 1622371, 1622762, 1623158, 1623549]","[1615017, 1615391, 1615790, 1616156, 1616558, 1616960, 1617366, 1617747, 1618139, 1618571, 1618958, 1619323, 1619716, 1620098, 1620487, 1620884, 1621281, 1621672, 1622062, 1622469, 1622855, 1623229, 1623647]","[1614504, 1614903, 1615303, 1615704, 1616103, 1616503, 1616903, 1617303, 1617677, 1618065, 1618503, 1618889, 1619256, 1619652, 1620038, 1620435, 1620828, 1621225, 1621617, 1621995, 1622397, 1622788, 1623184, 1623575]",38,R,ITM,1.1,
5,600,trial,0,89,89,89,trial,"['S', 'S', 'S', 'S', 'S', 'S', 'S', 'C', 'C', 'C', 'C', 'C', 'C', 'C', 'C', 'C', 'C', 'C', 'C', 'C', 'C', 'C', 'C']","[1629502, 1630260, 1630895, 1631492, 1632098, 1632685, 1633290, 1633881, 1634473, 1635053, 1635657, 1636229, 1636796, 1637354, 1637947, 1638519, 1639062, 1639659, 1640228, 1640779, 1641330, 1641906, 1642470]","[1629599, 1630496, 1631090, 1631744, 1632302, 1632889, 1633480, 1634079, 1634639, 1635267, 1635814, 1636390, 1636951, 1637507, 1638098, 1638676, 1639232, 1639784, 1640361, 1640911, 1641472, 1642039, 1642599]","[1629129, 1629729, 1630329, 1630929, 1631529, 1632130, 1632730, 1633330, 1633906, 1634499, 1635079, 1635683, 1636254, 1636822, 1637381, 1637974, 1638545, 1639088, 1639686, 1640254, 1640805, 1641357, 1641931, 1642496]",38,R,ITM,1.1,
2,600,trial,0,90,90,90,trial,"['B', 'S', 'S', 'S', 'S', 'S', 'S', 'S', 'C', 'C', 'C', 'C', 'C', 'C', 'C', 'C', 'C', 'C', 'C', 'C', 'C', 'C', 'C', 'C']","[1648195, 1648649, 1649330, 1649928, 1650544, 1651161, 1651783, 1652362, 1652954, 1653536, 1654160, 1654724, 1655297, 1655886, 1656482, 1657057, 1657647, 1658230, 1658831, 1659427, 1659986, 1660541, 1661122, 1661699]","[1648546, 1648992, 1649618, 1650189, 1650744, 1651351, 1651962, 1652529, 1653115, 1653686, 1654296, 1654856, 1655406, 1655997, 1656590, 1657160, 1657743, 1658324, 1658923, 1659517, 1660104, 1660647, 1661243, 1661805]","[1648208, 1648807, 1649409, 1650009, 1650609, 1651209, 1651809, 1652409, 1652980, 1653563, 1654188, 1654751, 1655324, 1655914, 1656510, 1657083, 1657674, 1658258, 1658858, 1659455, 1660013, 1660569, 1661149, 1661725]",38,R,ITM,1.1,
3,600,trial,0,91,91,91,trial,"['S', 'S', 'S', 'S', 'S', 'S', 'C', 'C', 'C', 'C', 'C', 'C', 'C', 'C', 'C', 'C', 'C', 'C', 'C', 'C', 'C', 'C']","[1668185, 1668816, 1669405, 1670024, 1670626, 1671218, 1671818, 1672425, 1672993, 1673583, 1674195, 1674809, 1675423, 1676042, 1676605, 1677177, 1677731, 1678302, 1678914, 1679502, 1680036, 1680593]","[1668411, 1669054, 1669607, 1670165, 1670782, 1671380, 1671972, 1672541, 1673134, 1673734, 1674330, 1674945, 1675535, 1676155, 1676713, 1677287, 1677850, 1678405, 1679013, 1679607, 1680148, 1680720]","[1667060, 1667659, 1668259, 1668859, 1669459, 1670060, 1670660, 1671260, 1671843, 1672451, 1673019, 1673609, 1674221, 1674834, 1675449, 1676067, 1676632, 1677203, 1677757, 1678327, 1678940, 1679527, 1680062, 1680619]",38,R,ITM,1.1,
6,400,trial,0,92,92,92,trial,"['S', 'S', 'S', 'S', 'S', 'S', 'S', 'C', 'C', 'C', 'C', 'C', 'C', 'C', 'C', 'C', 'C', 'C', 'C', 'C', 'C', 'C', 'C']","[1686440, 1686802, 1687196, 1687592, 1688002, 1688400, 1688804, 1689199, 1689613, 1690016, 1690414, 1690834, 1691226, 1691613, 1692037, 1692444, 1692853, 1693248, 1693639, 1694016, 1694427, 1694857, 1695233]","[1686552, 1686934, 1687329, 1687749, 1688132, 1688556, 1688930, 1689335, 1689732, 1690132, 1690531, 1690955, 1691334, 1691731, 1692148, 1692556, 1692962, 1693355, 1693737, 1694126, 1694533, 1694960, 1695342]","[1686017, 1686416, 1686816, 1687217, 1687616, 1688016, 1688416, 1688816, 1689227, 1689639, 1690043, 1690441, 1690861, 1691252, 1691640, 1692064, 1692471, 1692880, 1693275, 1693666, 1694043, 1694454, 1694883, 1695259]",38,R,ITM,1.1,
2,600,trial,0,93,93,93,trial,"['S', 'S', 'S', 'S', 'S', 'S', 'S', 'C', 'C', 'C', 'C', 'C', 'C', 'C', 'C', 'C', 'C', 'C', 'C', 'C', 'C', 'C', 'C']","[1701316, 1702070, 1702691, 1703316, 1703946, 1704524, 1705122, 1705723, 1706320, 1706900, 1707515, 1708114, 1708707, 1709246, 1709849, 1710437, 1711015, 1711618, 1712259, 1712845, 1713403, 1713968, 1714594]","[1701447, 1702233, 1702822, 1703451, 1704065, 1704652, 1705257, 1705857, 1706439, 1707021, 1707630, 1708226, 1708810, 1709363, 1709954, 1710548, 1711125, 1711720, 1712358, 1712947, 1713515, 1714078, 1714711]","[1700944, 1701543, 1702145, 1702745, 1703345, 1703945, 1704545, 1705145, 1705750, 1706348, 1706928, 1707543, 1708142, 1708734, 1709273, 1709876, 1710465, 1711043, 1711644, 1712286, 1712872, 1713431, 1713994, 1714622]",38,R,ITM,1.1,
6,600,trial,0,94,94,94,trial,"['S', 'S', 'S', 'S', 'S', 'S', 'S', 'C', 'C', 'C', 'C', 'C', 'C', 'C', 'C', 'C', 'C', 'C', 'C', 'C', 'C', 'C', 'C']","[1720867, 1721493, 1722163, 1722772, 1723371, 1723973, 1724594, 1725173, 1725797, 1726396, 1727031, 1727604, 1728176, 1728751, 1729310, 1729889, 1730462, 1731039, 1731635, 1732218, 1732780, 1733347, 1733951]","[1720939, 1721572, 1722262, 1722886, 1723474, 1724058, 1724660, 1725227, 1725847, 1726455, 1727087, 1727669, 1728242, 1728815, 1729379, 1729954, 1730534, 1731094, 1731682, 1732267, 1732842, 1733404, 1734011]","[1720392, 1720991, 1721591, 1722191, 1722791, 1723392, 1723992, 1724592, 1725200, 1725824, 1726424, 1727057, 1727631, 1728203, 1728779, 1729337, 1729915, 1730490, 1731065, 1731662, 1732245, 1732806, 1733373, 1733979]",38,R,ITM,1.1,
7,600,trial,0,95,95,95,trial,"['S', 'S', 'S', 'S', 'S', 'S', 'S', 'C', 'C', 'C', 'C', 'C', 'C', 'C', 'C', 'C', 'C', 'C', 'C', 'C', 'C', 'C', 'C']","[1739969, 1740778, 1741367, 1741987, 1742616, 1743205, 1743767, 1744427, 1744997, 1745565, 1746153, 1746752, 1747342, 1747905, 1748469, 1749062, 1749634, 1750215, 1750805, 1751383, 1751963, 1752569, 1753120]","[1740124, 1740997, 1741614, 1742214, 1742813, 1743367, 1743996, 1744583, 1745199, 1745740, 1746318, 1746889, 1747454, 1748030, 1748637, 1749203, 1749791, 1750366, 1750962, 1751527, 1752130, 1752779, 1753340]","[1739633, 1740232, 1740832, 1741432, 1742032, 1742632, 1743233, 1743833, 1744453, 1745024, 1745592, 1746180, 1746780, 1747369, 1747933, 1748497, 1749090, 1749661, 1750242, 1750833, 1751409, 1751990, 1752596, 1753147]",38,R,ITM,1.1,
6,400,trial,0,96,96,96,trial,"['S', 'S', 'S', 'S', 'S', 'S', 'S', 'C', 'C', 'C', 'C', 'C', 'C', 'C', 'C', 'C', 'C', 'C', 'C', 'C', 'C', 'C', 'C']","[1758947, 1759303, 1759708, 1760062, 1760459, 1760849, 1761259, 1761632, 1762024, 1762425, 1762841, 1763238, 1763644, 1764049, 1764461, 1764847, 1765254, 1765649, 1766039, 1766418, 1766807, 1767206, 1767595]","[1759035, 1759365, 1759769, 1760126, 1760519, 1760911, 1761305, 1761686, 1762093, 1762496, 1762913, 1763305, 1763714, 1764118, 1764530, 1764915, 1765313, 1765709, 1766098, 1766469, 1766871, 1767272, 1767665]","[1758460, 1758859, 1759259, 1759660, 1760059, 1760459, 1760860, 1761259, 1761659, 1762051, 1762453, 1762869, 1763266, 1763672, 1764076, 1764488, 1764875, 1765280, 1765677, 1766066, 1766445, 1766835, 1767233, 1767621]",38,R,ITM,1.1,
3,400,trial,0,97,97,97,trial,"['S', 'S', 'S', 'S', 'S', 'S', 'S', 'C', 'C', 'C', 'C', 'C', 'C', 'C', 'C', 'C', 'C', 'C', 'C', 'C', 'C', 'C', 'C']","[1773582, 1773949, 1774329, 1774737, 1775120, 1775533, 1775908, 1776304, 1776704, 1777098, 1777502, 1777900, 1778291, 1778692, 1779094, 1779480, 1779877, 1780282, 1780674, 1781065, 1781467, 1781863, 1782253]","[1773652, 1774018, 1774405, 1774813, 1775181, 1775604, 1775980, 1776376, 1776761, 1777160, 1777566, 1777970, 1778357, 1778753, 1779167, 1779550, 1779944, 1780346, 1780738, 1781127, 1781533, 1781931, 1782327]","[1773121, 1773520, 1773920, 1774320, 1774721, 1775120, 1775520, 1775921, 1776329, 1776730, 1777124, 1777527, 1777926, 1778317, 1778717, 1779120, 1779506, 1779903, 1780307, 1780700, 1781091, 1781492, 1781889, 1782279]",38,R,ITM,1.1,
2,400,trial,0,98,98,98,trial,"['S', 'S', 'S', 'S', 'S', 'S', 'S', 'C', 'C', 'C', 'C', 'C', 'C', 'C', 'C', 'C', 'C', 'C', 'C', 'C', 'C', 'C', 'C']","[1788091, 1788503, 1788918, 1789302, 1789686, 1790091, 1790481, 1790877, 1791285, 1791670, 1792072, 1792470, 1792861, 1793254, 1793656, 1794049, 1794446, 1794848, 1795239, 1795637, 1796018, 1796418, 1796811]","[1788207, 1788581, 1788985, 1789370, 1789755, 1790158, 1790550, 1790945, 1791352, 1791737, 1792135, 1792539, 1792924, 1793316, 1793717, 1794109, 1794510, 1794914, 1795305, 1795688, 1796069, 1796474, 1796871]","[1787702, 1788102, 1788503, 1788902, 1789302, 1789703, 1790102, 1790502, 1790905, 1791312, 1791696, 1792099, 1792496, 1792887, 1793281, 1793684, 1794075, 1794473, 1794875, 1795266, 1795664, 1796044, 1796445, 1796839]",38,R,ITM,1.1,
5,600,trial,0,99,99,99,trial,"['S', 'S', 'S', 'S', 'S', 'S', 'S', 'C', 'C', 'C', 'C', 'C', 'C', 'C', 'C', 'C', 'C', 'C', 'C', 'C', 'C', 'C', 'C']","[1802940, 1803466, 1804078, 1804658, 1805241, 1805830, 1806415, 1806985, 1807570, 1808173, 1808734, 1809331, 1809916, 1810475, 1811039, 1811589, 1812202, 1812783, 1813348, 1813923, 1814499, 1815092, 1815653]","[1802998, 1803521, 1804141, 1804725, 1805307, 1805897, 1806477, 1807042, 1807624, 1808231, 1808796, 1809396, 1809976, 1810535, 1811103, 1811652, 1812260, 1812846, 1813405, 1813977, 1814549, 1815143, 1815698]","[1802251, 1802850, 1803450, 1804050, 1804650, 1805250, 1805850, 1806450, 1807011, 1807596, 1808198, 1808759, 1809357, 1809943, 1810501, 1811064, 1811614, 1812229, 1812809, 1813373, 1813949, 1814524, 1815118, 1815680]",38,R,ITM,1.1,
3,400,trial,0,100,100,100,trial,"['S', 'S', 'S', 'S', 'S', 'S', 'S', 'C', 'C', 'C', 'C', 'C', 'C', 'C', 'C', 'C', 'C', 'C', 'C', 'C', 'C', 'C', 'C']","[1821715, 1822094, 1822478, 1822906, 1823318, 1823715, 1824100, 1824514, 1824917, 1825328, 1825714, 1826122, 1826515, 1826948, 1827336, 1827740, 1828133, 1828546, 1828938, 1829328, 1829728, 1830117, 1830511]","[1821817, 1822179, 1822553, 1822951, 1823372, 1823777, 1824159, 1824568, 1824970, 1825380, 1825765, 1826172, 1826566, 1826994, 1827382, 1827791, 1828188, 1828596, 1828989, 1829381, 1829778, 1830170, 1830562]","[1821316, 1821715, 1822115, 1822515, 1822915, 1823315, 1823715, 1824115, 1824539, 1824943, 1825353, 1825739, 1826148, 1826541, 1826973, 1827361, 1827766, 1828159, 1828572, 1828964, 1829354, 1829753, 1830142, 1830537]",38,R,ITM,1.1,
2,400,trial,0,101,101,101,trial,"['S', 'S', 'S', 'S', 'S', 'S', 'S', 'C', 'C', 'C', 'C', 'C', 'C', 'C', 'C', 'C', 'C', 'C', 'C', 'C', 'C', 'C', 'C']","[1836392, 1836781, 1837174, 1837560, 1837963, 1838340, 1838734, 1839149, 1839549, 1839951, 1840336, 1840735, 1841138, 1841533, 1841944, 1842356, 1842759, 1843163, 1843565, 1843955, 1844356, 1844766, 1845164]","[1836456, 1836839, 1837243, 1837627, 1838016, 1838394, 1838778, 1839207, 1839595, 1840003, 1840385, 1840782, 1841189, 1841574, 1841991, 1842407, 1842806, 1843229, 1843622, 1844004, 1844417, 1844816, 1845208]","[1835957, 1836356, 1836758, 1837157, 1837556, 1837957, 1838356, 1838757, 1839175, 1839576, 1839979, 1840363, 1840761, 1841165, 1841560, 1841972, 1842382, 1842786, 1843189, 1843592, 1843983, 1844383, 1844794, 1845191]",38,R,ITM,1.1,
2,600,trial,0,102,102,102,trial,"['S', 'S', 'S', 'S', 'S', 'S', 'S', 'C', 'C', 'C', 'C', 'C', 'C', 'C', 'C', 'C', 'C', 'C', 'C', 'C', 'C', 'C', 'C']","[1851252, 1852080, 1852709, 1853300, 1853893, 1854482, 1855079, 1855692, 1856291, 1856874, 1857490, 1858075, 1858704, 1859321, 1859911, 1860493, 1861105, 1861701, 1862296, 1862881, 1863468, 1864094, 1864715]","[1851327, 1852223, 1852830, 1853423, 1853985, 1854572, 1855155, 1855761, 1856347, 1856930, 1857537, 1858128, 1858762, 1859373, 1859963, 1860544, 1861149, 1861752, 1862352, 1862922, 1863519, 1864141, 1864768]","[1850926, 1851526, 1852125, 1852725, 1853325, 1853925, 1854525, 1855125, 1855720, 1856319, 1856902, 1857518, 1858102, 1858732, 1859348, 1859939, 1860520, 1861133, 1861729, 1862324, 1862908, 1863494, 1864122, 1864742]",38,R,ITM,1.1,
5,600,trial,0,103,103,103,trial,"['S', 'S', 'S', 'S', 'S', 'S', 'S', 'C', 'C', 'C', 'C', 'C', 'C', 'C', 'C', 'C', 'C', 'C', 'C', 'C', 'C', 'C', 'C']","[1870983, 1871479, 1872074, 1872673, 1873272, 1873872, 1874493, 1875088, 1875699, 1876294, 1876894, 1877495, 1878096, 1878695, 1879284, 1879876, 1880481, 1881109, 1881719, 1882296, 1882905, 1883502, 1884125]","[1871068, 1871564, 1872148, 1872736, 1873335, 1873933, 1874554, 1875149, 1875755, 1876353, 1876957, 1877555, 1878148, 1878749, 1879339, 1879943, 1880539, 1881163, 1881782, 1882363, 1882959, 1883559, 1884177]","[1870268, 1870868, 1871468, 1872068, 1872668, 1873268, 1873868, 1874468, 1875113, 1875725, 1876320, 1876920, 1877522, 1878122, 1878722, 1879310, 1879902, 1880508, 1881135, 1881745, 1882321, 1882931, 1883528, 1884150]",38,R,ITM,1.1,
6,400,trial,0,104,104,104,trial,"['S', 'S', 'S', 'S', 'S', 'S', 'S', 'C', 'C', 'C', 'C', 'C', 'C', 'C', 'C', 'C', 'C', 'C', 'C', 'C', 'C', 'C', 'C']","[1890325, 1890675, 1891072, 1891467, 1891846, 1892238, 1892646, 1893031, 1893423, 1893816, 1894228, 1894619, 1895019, 1895409, 1895803, 1896207, 1896606, 1897011, 1897407, 1897810, 1898212, 1898618, 1899039]","[1890402, 1890736, 1891137, 1891535, 1891907, 1892283, 1892678, 1893083, 1893478, 1893878, 1894282, 1894681, 1895075, 1895467, 1895859, 1896262, 1896660, 1897063, 1897463, 1897865, 1898270, 1898670, 1899099]","[1889862, 1890262, 1890661, 1891061, 1891462, 1891861, 1892261, 1892661, 1893058, 1893450, 1893842, 1894255, 1894645, 1895046, 1895436, 1895830, 1896233, 1896634, 1897038, 1897434, 1897838, 1898238, 1898646, 1899066]",38,R,ITM,1.1,
4,400,trial,0,105,105,105,trial,"['S', 'S', 'S', 'S', 'S', 'S', 'S', 'C', 'C', 'C', 'C', 'C', 'C', 'C', 'C', 'C', 'C', 'C', 'C', 'C', 'C', 'C', 'C']","[1904787, 1905183, 1905568, 1905937, 1906337, 1906753, 1907148, 1907553, 1907948, 1908341, 1908752, 1909158, 1909556, 1909953, 1910343, 1910747, 1911138, 1911518, 1911920, 1912294, 1912694, 1913077, 1913476]","[1904857, 1905231, 1905627, 1905995, 1906399, 1906807, 1907201, 1907611, 1908006, 1908400, 1908806, 1909213, 1909612, 1910002, 1910385, 1910795, 1911188, 1911565, 1911970, 1912346, 1912747, 1913124, 1913526]","[1904385, 1904783, 1905183, 1905584, 1905983, 1906383, 1906783, 1907183, 1907579, 1907974, 1908367, 1908777, 1909184, 1909582, 1909979, 1910370, 1910773, 1911163, 1911543, 1911946, 1912320, 1912720, 1913103, 1913501]",38,R,ITM,1.1,
7,600,trial,0,106,106,106,trial,"['S', 'S', 'S', 'S', 'S', 'S', 'S', 'C', 'C', 'C', 'C', 'C', 'C', 'C', 'C', 'C', 'C', 'C', 'C', 'C', 'C', 'C', 'C']","[1919342, 1920053, 1920678, 1921296, 1921921, 1922539, 1923095, 1923676, 1924278, 1924876, 1925454, 1926035, 1926634, 1927247, 1927833, 1928994, 1929544, 1930122, 1930715, 1931305, 1931883, 1932451, 1933052]","[1919385, 1920117, 1920734, 1921358, 1921977, 1922600, 1923154, 1923738, 1924305, 1924911, 1925507, 1926087, 1926679, 1927297, 1927873, 1929048, 1929610, 1930179, 1930775, 1931354, 1931937, 1932510, 1933109]","[1918918, 1919517, 1920117, 1920717, 1921317, 1921917, 1922518, 1923118, 1923702, 1924304, 1924903, 1925481, 1926062, 1926662, 1927275, 1927860, 1929021, 1929571, 1930149, 1930741, 1931333, 1931911, 1932478, 1933079]",38,R,ITM,1.1,
5,400,trial,0,107,107,107,trial,"['S', 'S', 'S', 'S', 'S', 'S', 'S', 'C', 'C', 'C', 'C', 'C', 'C', 'C', 'C', 'C', 'C', 'C', 'C', 'C', 'C', 'C', 'C']","[1938993, 1939351, 1939747, 1940161, 1940557, 1940973, 1941351, 1941757, 1942152, 1942552, 1942941, 1943334, 1943733, 1944133, 1944525, 1944918, 1945321, 1945711, 1946094, 1946499, 1946892, 1947280, 1947670]","[1939093, 1939444, 1939826, 1940241, 1940638, 1941042, 1941424, 1941837, 1942222, 1942618, 1943004, 1943401, 1943794, 1944195, 1944589, 1944974, 1945391, 1945785, 1946161, 1946560, 1946956, 1947347, 1947734]","[1938572, 1938972, 1939373, 1939772, 1940172, 1940573, 1940973, 1941373, 1941783, 1942177, 1942578, 1942968, 1943360, 1943758, 1944159, 1944551, 1944943, 1945347, 1945737, 1946120, 1946525, 1946918, 1947307, 1947696]",38,R,ITM,1.1,
4,600,trial,0,108,108,108,trial,"['S', 'S', 'S', 'S', 'S', 'S', 'S', 'C', 'C', 'C', 'C', 'C', 'C', 'C', 'C', 'C', 'C', 'C', 'C', 'C', 'C', 'C', 'C']","[1953831, 1954373, 1954989, 1955592, 1956164, 1956772, 1957382, 1957992, 1958595, 1959201, 1959813, 1960446, 1961079, 1961699, 1962307, 1962901, 1963516, 1964150, 1964762, 1965363, 1965999, 1966626, 1967232]","[1953950, 1954525, 1955087, 1955713, 1956357, 1956963, 1957549, 1958124, 1958701, 1959306, 1959934, 1960564, 1961216, 1961820, 1962484, 1963106, 1963682, 1964344, 1964929, 1965533, 1966188, 1966833, 1967424]","[1953182, 1953781, 1954381, 1954981, 1955581, 1956182, 1956782, 1957382, 1958018, 1958621, 1959227, 1959838, 1960473, 1961105, 1961724, 1962333, 1962927, 1963542, 1964176, 1964788, 1965388, 1966025, 1966652, 1967258]",38,R,ITM,1.1,
7,600,trial,0,109,109,109,trial,"['S', 'S', 'S', 'S', 'S', 'S', 'S', 'C', 'C', 'C', 'C', 'C', 'C', 'C', 'C', 'C', 'C', 'C', 'C', 'C', 'C', 'C', 'C']","[1972989, 1973734, 1974381, 1975027, 1975601, 1976221, 1976800, 1977378, 1977993, 1978597, 1979183, 1979784, 1980382, 1980990, 1981577, 1982159, 1982779, 1983405, 1983983, 1984546, 1985135, 1985766, 1986341]","[1973170, 1973985, 1974639, 1975258, 1975843, 1976420, 1976990, 1977581, 1978144, 1978741, 1979310, 1979894, 1980526, 1981123, 1981683, 1982245, 1982861, 1983478, 1984065, 1984660, 1985218, 1985824, 1986417]","[1972622, 1973221, 1973821, 1974421, 1975021, 1975621, 1976221, 1976821, 1977406, 1978020, 1978625, 1979210, 1979811, 1980409, 1981018, 1981604, 1982187, 1982807, 1983431, 1984010, 1984574, 1985163, 1985793, 1986368]",38,R,ITM,1.1,
7,400,trial,0,110,110,110,trial,"['S', 'S', 'S', 'S', 'S', 'S', 'S', 'C', 'C', 'C', 'C', 'C', 'C', 'C', 'C', 'C', 'C', 'C', 'C', 'C', 'C', 'C', 'C']","[1992144, 1992523, 1992918, 1993323, 1993744, 1994139, 1994532, 1994930, 1995339, 1995739, 1996126, 1996507, 1996905, 1997293, 1997700, 1998110, 1998504, 1998913, 1999295, 1999674, 2000065, 2000467, 2000868]","[1992285, 1992639, 1993029, 1993428, 1993841, 1994231, 1994622, 1995019, 1995417, 1995816, 1996204, 1996581, 1996979, 1997371, 1997776, 1998180, 1998579, 1998982, 1999367, 1999744, 2000132, 2000544, 2000946]","[1991759, 1992158, 1992558, 1992958, 1993358, 1993758, 1994159, 1994558, 1994957, 1995366, 1995766, 1996153, 1996533, 1996932, 1997321, 1997726, 1998138, 1998532, 1998941, 1999323, 1999700, 2000092, 2000494, 2000894]",38,R,ITM,1.1,
4,400,trial,0,111,111,111,trial,"['S', 'S', 'S', 'S', 'S', 'S', 'S', 'C', 'C', 'C', 'C', 'C', 'C', 'C', 'C', 'C', 'C', 'C', 'C', 'C', 'C', 'C', 'C']","[2006759, 2007195, 2007577, 2007999, 2008395, 2008804, 2009189, 2009587, 2009974, 2010372, 2010760, 2011154, 2011560, 2011954, 2012342, 2012720, 2013110, 2013512, 2013919, 2014337, 2014758, 2015148, 2015536]","[2006867, 2007278, 2007663, 2008075, 2008467, 2008883, 2009271, 2009669, 2010052, 2010448, 2010845, 2011239, 2011638, 2012047, 2012435, 2012810, 2013195, 2013597, 2014004, 2014411, 2014836, 2015228, 2015609]","[2006432, 2006832, 2007231, 2007631, 2008031, 2008431, 2008832, 2009231, 2009613, 2010000, 2010397, 2010785, 2011180, 2011586, 2011979, 2012367, 2012746, 2013135, 2013539, 2013944, 2014362, 2014784, 2015174, 2015561]",38,R,ITM,1.1,
5,600,trial,0,112,112,112,trial,"['S', 'S', 'S', 'S', 'S', 'S', 'S', 'C', 'C', 'C', 'C', 'C', 'C', 'C', 'C', 'C', 'C', 'C', 'C', 'C', 'C', 'C', 'C']","[2021972, 2022410, 2022953, 2023603, 2024230, 2024836, 2025414, 2025980, 2026572, 2027130, 2027704, 2028297, 2028873, 2029410, 2029950, 2030500, 2031081, 2031659, 2032185, 2032715, 2033249, 2033816, 2034397]","[2022180, 2022627, 2023263, 2023838, 2024458, 2025058, 2025632, 2026167, 2026712, 2027279, 2027838, 2028453, 2029025, 2029604, 2030136, 2030657, 2031242, 2031818, 2032366, 2032890, 2033416, 2034008, 2034568]","[2021231, 2021830, 2022430, 2023030, 2023630, 2024230, 2024830, 2025431, 2026007, 2026598, 2027157, 2027729, 2028323, 2028899, 2029435, 2029976, 2030526, 2031107, 2031685, 2032210, 2032741, 2033274, 2033842, 2034422]",38,R,ITM,1.1,
6,600,trial,0,113,113,113,trial,"['S', 'S', 'S', 'S', 'S', 'S', 'S', 'C', 'C', 'C', 'C', 'C', 'C', 'C', 'C', 'C', 'C', 'C', 'C', 'C', 'C', 'C', 'C']","[2040444, 2041178, 2041773, 2042395, 2043030, 2043631, 2044206, 2044815, 2045426, 2046053, 2046676, 2047276, 2047868, 2048457, 2049062, 2049698, 2050311, 2050919, 2051488, 2052088, 2052691, 2053265, 2053859]","[2040643, 2041428, 2041997, 2042638, 2043246, 2043796, 2044401, 2045030, 2045628, 2046197, 2046797, 2047423, 2048056, 2048633, 2049199, 2049816, 2050406, 2050994, 2051568, 2052156, 2052754, 2053332, 2053919]","[2040031, 2040630, 2041230, 2041830, 2042430, 2043030, 2043630, 2044230, 2044841, 2045453, 2046080, 2046703, 2047302, 2047895, 2048484, 2049089, 2049725, 2050338, 2050947, 2051515, 2052115, 2052718, 2053292, 2053885]",38,R,ITM,1.1,
6,600,trial,0,114,114,114,trial,"['S', 'S', 'S', 'S', 'S', 'S', 'S', 'C', 'C', 'C', 'C', 'C', 'C', 'C', 'C', 'C', 'C', 'C', 'C', 'C', 'C', 'C', 'C']","[2059891, 2060538, 2061156, 2061778, 2062403, 2063022, 2063612, 2064210, 2064803, 2065416, 2066021, 2066616, 2067219, 2067843, 2068432, 2069013, 2069613, 2070204, 2070760, 2071344, 2071942, 2072539, 2073090]","[2060024, 2060794, 2061367, 2062004, 2062620, 2063211, 2063814, 2064396, 2064948, 2065533, 2066116, 2066708, 2067300, 2067914, 2068499, 2069089, 2069682, 2070279, 2070827, 2071413, 2072018, 2072632, 2073172]","[2059422, 2060021, 2060621, 2061221, 2061821, 2062422, 2063022, 2063622, 2064238, 2064831, 2065442, 2066048, 2066642, 2067247, 2067869, 2068460, 2069040, 2069640, 2070231, 2070787, 2071370, 2071968, 2072566, 2073116]",38,R,ITM,1.1,
7,400,trial,0,115,115,115,trial,"['S', 'S', 'S', 'S', 'S', 'S', 'S', 'C', 'C', 'C', 'C', 'C', 'C', 'C', 'C', 'C', 'C', 'C', 'C', 'C', 'C', 'C', 'C']","[2079040, 2079432, 2079822, 2080220, 2080605, 2081008, 2081432, 2081822, 2082209, 2082609, 2083002, 2083399, 2083798, 2084190, 2084587, 2084992, 2085378, 2085769, 2086159, 2086553, 2086940, 2087340, 2087737]","[2079195, 2079571, 2079972, 2080322, 2080719, 2081118, 2081508, 2081891, 2082279, 2082675, 2083069, 2083460, 2083868, 2084256, 2084649, 2085058, 2085441, 2085836, 2086227, 2086629, 2087015, 2087408, 2087818]","[2078605, 2079004, 2079405, 2079804, 2080204, 2080605, 2081004, 2081404, 2081849, 2082236, 2082635, 2083028, 2083427, 2083824, 2084217, 2084614, 2085018, 2085404, 2085796, 2086187, 2086581, 2086967, 2087366, 2087764]",38,R,ITM,1.1,
3,400,trial,0,116,116,116,trial,"['S', 'S', 'S', 'S', 'S', 'S', 'S', 'C', 'C', 'C', 'C', 'C', 'C', 'C', 'C', 'C', 'C', 'C', 'C', 'C', 'C', 'C', 'C']","[2093764, 2094148, 2094541, 2094934, 2095348, 2095769, 2096154, 2096532, 2096911, 2097299, 2097673, 2098062, 2098444, 2098812, 2099191, 2099588, 2099957, 2100318, 2100684, 2101054, 2101412, 2101791, 2102176]","[2093845, 2094218, 2094611, 2095010, 2095423, 2095841, 2096230, 2096613, 2096980, 2097378, 2097755, 2098127, 2098525, 2098897, 2099276, 2099668, 2100043, 2100389, 2100752, 2101133, 2101500, 2101878, 2102262]","[2093379, 2093779, 2094179, 2094579, 2094980, 2095379, 2095779, 2096179, 2096558, 2096936, 2097325, 2097698, 2098087, 2098469, 2098838, 2099217, 2099613, 2099983, 2100343, 2100710, 2101080, 2101438, 2101817, 2102202]",38,R,ITM,1.1,
3,400,trial,0,117,117,117,trial,"['S', 'S', 'S', 'S', 'S', 'S', 'S', 'C', 'C', 'C', 'C', 'C', 'C', 'C', 'C', 'C', 'C', 'C', 'C', 'C', 'C', 'C', 'C']","[2108009, 2108396, 2108801, 2109200, 2109589, 2109991, 2110404, 2110819, 2111219, 2111601, 2111989, 2112391, 2112790, 2113191, 2113586, 2113993, 2114393, 2114779, 2115166, 2115562, 2115954, 2116329, 2116720]","[2108110, 2108470, 2108860, 2109261, 2109636, 2110045, 2110447, 2110871, 2111269, 2111663, 2112041, 2112447, 2112840, 2113241, 2113639, 2114043, 2114447, 2114820, 2115212, 2115614, 2115990, 2116376, 2116763]","[2107644, 2108044, 2108444, 2108845, 2109244, 2109644, 2110045, 2110445, 2110844, 2111245, 2111628, 2112015, 2112416, 2112816, 2113217, 2113611, 2114019, 2114418, 2114804, 2115191, 2115588, 2115980, 2116355, 2116746]",38,R,ITM,1.1,
2,400,trial,0,118,118,118,trial,"['S', 'S', 'S', 'S', 'S', 'S', 'S', 'C', 'C', 'C', 'C', 'C', 'C', 'C', 'C', 'C', 'C', 'C', 'C', 'C', 'C', 'C', 'C']","[2122807, 2123172, 2123580, 2123971, 2124382, 2124777, 2125168, 2125575, 2125954, 2126344, 2126736, 2127111, 2127509, 2127894, 2128287, 2128697, 2129072, 2129463, 2129859, 2130258, 2130652, 2131047, 2131425]","[2122881, 2123239, 2123641, 2124040, 2124431, 2124833, 2125228, 2125635, 2126010, 2126393, 2126793, 2127171, 2127564, 2127963, 2128345, 2128737, 2129120, 2129512, 2129904, 2130298, 2130695, 2131088, 2131469]","[2122407, 2122807, 2123206, 2123608, 2124006, 2124407, 2124807, 2125207, 2125601, 2125980, 2126371, 2126764, 2127138, 2127536, 2127922, 2128314, 2128724, 2129099, 2129489, 2129886, 2130286, 2130678, 2131075, 2131452]",38,R,ITM,1.1,
3,600,trial,0,119,119,119,trial,"['S', 'S', 'S', 'S', 'S', 'S', 'S', 'S', 'C', 'C', 'C', 'C', 'C', 'C', 'C', 'C', 'C', 'C', 'C', 'C', 'C', 'C', 'C', 'C']","[2136979, 2137268, 2138038, 2138678, 2139254, 2139849, 2140489, 2141072, 2141674, 2142282, 2142868, 2143433, 2144012, 2144632, 2145227, 2145835, 2146434, 2147049, 2147628, 2148212, 2148787, 2149370, 2149962, 2150553]","[2136999, 2137352, 2138185, 2138824, 2139384, 2139960, 2140611, 2141172, 2141748, 2142363, 2142955, 2143504, 2144087, 2144705, 2145311, 2145903, 2146506, 2147110, 2147686, 2148282, 2148855, 2149428, 2150027, 2150601]","[2136889, 2137489, 2138089, 2138689, 2139289, 2139889, 2140489, 2141089, 2141700, 2142308, 2142894, 2143459, 2144037, 2144658, 2145253, 2145860, 2146459, 2147075, 2147653, 2148238, 2148812, 2149396, 2149988, 2150579]",38,R,ITM,1.1,
3,600,trial,0,120,120,120,trial,"['S', 'S', 'S', 'S', 'S', 'S', 'S', 'S', 'C', 'C', 'C', 'C', 'C', 'C', 'C', 'C', 'C', 'C', 'C', 'C', 'C', 'C', 'C', 'C']","[2156374, 2156626, 2157313, 2157925, 2158546, 2159113, 2159742, 2160325, 2160948, 2161529, 2162120, 2162692, 2163288, 2163905, 2164490, 2165054, 2165641, 2166250, 2166850, 2167428, 2168029, 2168607, 2169190, 2169774]","[2156471, 2156728, 2157408, 2158033, 2158630, 2159201, 2159807, 2160394, 2161020, 2161591, 2162182, 2162755, 2163353, 2163956, 2164543, 2165111, 2165707, 2166300, 2166902, 2167474, 2168091, 2168660, 2169252, 2169832]","[2156161, 2156761, 2157361, 2157960, 2158560, 2159160, 2159760, 2160360, 2160973, 2161555, 2162146, 2162717, 2163313, 2163931, 2164515, 2165080, 2165666, 2166276, 2166876, 2167453, 2168055, 2168633, 2169216, 2169799]",38,R,ITM,1.1,
6,400,trial,0,121,121,121,trial,"['S', 'S', 'S', 'S', 'S', 'S', 'S', 'C', 'C', 'C', 'C', 'C', 'C', 'C', 'C', 'C', 'C', 'C', 'C', 'C', 'C', 'C', 'C']","[2175925, 2176290, 2176676, 2177083, 2177478, 2177883, 2178283, 2178681, 2179086, 2179484, 2179886, 2180267, 2180669, 2181063, 2181470, 2181870, 2182270, 2182671, 2183071, 2183475, 2183892, 2184301, 2184695]","[2176037, 2176370, 2176754, 2177153, 2177545, 2177951, 2178344, 2178749, 2179154, 2179560, 2179966, 2180348, 2180750, 2181154, 2181550, 2181951, 2182348, 2182733, 2183142, 2183555, 2183963, 2184372, 2184763]","[2175477, 2175877, 2176276, 2176676, 2177076, 2177476, 2177876, 2178276, 2178709, 2179112, 2179511, 2179913, 2180294, 2180696, 2181091, 2181497, 2181898, 2182296, 2182697, 2183098, 2183502, 2183919, 2184328, 2184723]",38,R,ITM,1.1,
2,400,trial,0,122,122,122,trial,"['S', 'S', 'S', 'S', 'S', 'S', 'S', 'C', 'C', 'C', 'C', 'C', 'C', 'C', 'C', 'C', 'C', 'C', 'C', 'C', 'C', 'C', 'C']","[2190480, 2190921, 2191311, 2191718, 2192134, 2192528, 2192941, 2193335, 2193736, 2194154, 2194552, 2194935, 2195328, 2195726, 2196128, 2196531, 2196922, 2197332, 2197723, 2198138, 2198549, 2198945, 2199351]","[2190607, 2191013, 2191398, 2191799, 2192207, 2192605, 2193011, 2193397, 2193802, 2194214, 2194615, 2195015, 2195399, 2195790, 2196183, 2196583, 2196974, 2197384, 2197764, 2198191, 2198588, 2198996, 2199402]","[2190151, 2190552, 2190950, 2191351, 2191752, 2192151, 2192551, 2192951, 2193361, 2193764, 2194182, 2194579, 2194963, 2195354, 2195752, 2196155, 2196557, 2196950, 2197360, 2197749, 2198165, 2198576, 2198973, 2199377]",38,R,ITM,1.1,
5,400,trial,0,123,123,123,trial,"['S', 'S', 'S', 'S', 'S', 'S', 'S', 'C', 'C', 'C', 'C', 'C', 'C', 'C', 'C', 'C', 'C', 'C', 'C', 'C', 'C', 'C', 'C']","[2205489, 2205900, 2206300, 2206709, 2207108, 2207505, 2207902, 2208302, 2208692, 2209089, 2209463, 2209866, 2210268, 2210671, 2211068, 2211468, 2211857, 2212259, 2212654, 2213036, 2213414, 2213799, 2214198]","[2205544, 2205950, 2206350, 2206770, 2207158, 2207550, 2207944, 2208337, 2208722, 2209129, 2209508, 2209905, 2210297, 2210705, 2211102, 2211493, 2211884, 2212286, 2212679, 2213063, 2213448, 2213832, 2214239]","[2205120, 2205519, 2205919, 2206319, 2206720, 2207119, 2207519, 2207920, 2208327, 2208717, 2209115, 2209489, 2209892, 2210294, 2210698, 2211094, 2211493, 2211884, 2212285, 2212679, 2213062, 2213440, 2213825, 2214223]",38,R,ITM,1.1,
2,600,trial,0,124,124,124,trial,"['S', 'S', 'S', 'S', 'S', 'S', 'S', 'C', 'C', 'C', 'C', 'C', 'C', 'C', 'C', 'C', 'C', 'C', 'C', 'C', 'C', 'C', 'C']","[2220161, 2221076, 2221650, 2222246, 2222823, 2223505, 2224068, 2224642, 2225230, 2225826, 2226422, 2226997, 2227561, 2228164, 2228774, 2229341, 2229927, 2230510, 2231091, 2231670, 2232279, 2232862, 2233455]","[2220208, 2221118, 2221705, 2222305, 2222859, 2223566, 2224126, 2224697, 2225290, 2225878, 2226477, 2227065, 2227607, 2228221, 2228823, 2229395, 2229986, 2230549, 2231135, 2231726, 2232322, 2232916, 2233498]","[2219906, 2220506, 2221106, 2221705, 2222304, 2222905, 2223505, 2224104, 2224669, 2225258, 2225854, 2226449, 2227023, 2227588, 2228191, 2228802, 2229367, 2229954, 2230537, 2231117, 2231698, 2232305, 2232890, 2233483]",38,R,ITM,1.1,
4,600,trial,0,125,125,125,trial,"['S', 'S', 'S', 'S', 'S', 'S', 'S', 'C', 'C', 'C', 'C', 'C', 'C', 'C', 'C', 'C', 'C', 'C', 'C', 'C', 'C', 'C', 'C']","[2239601, 2240306, 2240936, 2241457, 2242065, 2242699, 2243312, 2243931, 2244520, 2245114, 2245686, 2246318, 2246926, 2247533, 2248120, 2248721, 2249342, 2249946, 2250515, 2251114, 2251722, 2252336, 2252931]","[2239670, 2240379, 2240990, 2241537, 2242137, 2242768, 2243380, 2243989, 2244577, 2245163, 2245742, 2246372, 2246960, 2247592, 2248174, 2248771, 2249381, 2249985, 2250570, 2251169, 2251758, 2252384, 2252983]","[2239137, 2239736, 2240336, 2240936, 2241537, 2242137, 2242737, 2243336, 2243956, 2244546, 2245140, 2245711, 2246343, 2246951, 2247559, 2248145, 2248747, 2249368, 2249971, 2250541, 2251140, 2251748, 2252361, 2252956]",38,R,ITM,1.1,
