octave,ioi,event,.thisRepN,.thisTrialN,.thisN,.thisIndex,event,tap_types,tap_times,release_times,tone_times,subject,handedness,experiment,version,
,,SPR,0,-1,-1,0,SPR,"['P', 'P', 'P', 'P', 'P', 'P', 'P', 'P', 'P', 'P', 'P', 'P', 'P', 'P', 'P', 'P', 'P', 'P', 'P', 'P', 'P', 'P', 'P', 'P', 'P', 'P', 'P', 'P', 'P', 'P']","[39099, 39495, 39838, 40244, 40621, 40974, 41321, 41742, 42158, 42500, 42838, 43142, 43446, 43784, 44175, 44477, 44787, 45083, 45420, 45764, 46021, 46337, 46610, 46976, 47306, 47604, 47885, 48169, 48518, 48791]","[39209, 39597, 39915, 40321, 40701, 41059, 41423, 41814, 42212, 42520, 42893, 43202, 43517, 43852, 44250, 44581, 44832, 45132, 45494, 45784, 46127, 46395, 46725, 47053, 47397, 47695, 47990, 48273, 48574, 48861]",,48,R,ITM,1.1,
6,500,practice,0,0,0,0,practice,"['S', 'S', 'S', 'S', 'S', 'S', 'S', 'C', 'C', 'C', 'C', 'C', 'C', 'C', 'C', 'C', 'C', 'C', 'C', 'C', 'C', 'C', 'C', 'C']","[144944, 145346, 145897, 146457, 146998, 147454, 147945, 148429, 148806, 149055, 149366, 149754, 150125, 150533, 150905, 151290, 151670, 152043, 152489, 152904, 153321, 153719, 154098, 154546]","[145027, 145410, 145979, 146524, 147062, 147538, 148012, 148497, 148875, 149105, 149448, 149824, 150193, 150597, 150957, 151346, 151734, 152101, 152529, 152950, 153358, 153750, 154162, 154597]","[144594, 145093, 145593, 146094, 146593, 147093, 147593, 148093, 148457, 148834, 149393, 149782, 150152, 150560, 150932, 151317, 151698, 152070, 152516, 152932, 153349, 153747, 154126, 154572]",48,R,ITM,1.1,
3,500,practice,0,1,1,1,practice,"['S', 'S', 'S', 'S', 'S', 'S', 'S', 'C', 'C', 'C', 'C', 'C', 'C', 'C', 'C', 'C', 'C', 'C', 'C', 'C', 'C', 'C', 'C']","[160509, 160997, 161497, 161987, 162472, 162988, 163486, 163974, 164463, 164938, 165401, 165870, 166328, 166797, 167275, 167763, 168185, 168709, 169166, 169627, 170078, 170475, 170976]","[160577, 161060, 161548, 162063, 162534, 163047, 163550, 164029, 164532, 164994, 165458, 165913, 166375, 166852, 167323, 167799, 168244, 168734, 169237, 169653, 170130, 170553, 171033]","[160158, 160658, 161159, 161659, 162159, 162659, 163160, 163659, 163999, 164489, 164964, 165427, 165896, 166353, 166822, 167301, 167789, 168211, 168734, 169192, 169653, 170103, 170501, 171001]",48,R,ITM,1.1,
5,500,practice,0,2,2,2,practice,"['S', 'S', 'S', 'S', 'S', 'S', 'S', 'C', 'C', 'C', 'C', 'C', 'C', 'C', 'C', 'C', 'C', 'C', 'C', 'C', 'C', 'C', 'C']","[176781, 177304, 177846, 178350, 178842, 179334, 179805, 180352, 180871, 181355, 181798, 182286, 182765, 183198, 183717, 184173, 184633, 185065, 185539, 185999, 186438, 186942, 187346]","[176855, 177382, 177907, 178409, 178917, 179395, 179877, 180432, 180931, 181406, 181857, 182349, 182810, 183272, 183775, 184211, 184662, 185113, 185594, 186039, 186512, 186975, 187393]","[176537, 177036, 177537, 178036, 178536, 179037, 179537, 180037, 180377, 180897, 181382, 181824, 182312, 182791, 183224, 183743, 184199, 184659, 185091, 185565, 186025, 186465, 186968, 187372]",48,R,ITM,1.1,
7,500,practice,0,3,3,3,practice,"['S', 'S', 'S', 'S', 'S', 'S', 'S', 'C', 'C', 'C', 'C', 'C', 'C', 'C', 'C', 'C', 'C', 'C', 'C', 'C', 'C', 'C', 'C']","[193303, 193803, 194308, 194824, 195340, 195838, 196360, 196867, 197327, 197825, 198257, 198755, 199231, 199682, 200143, 200635, 201061, 201580, 202044, 202470, 202952, 203414, 203821]","[193367, 193860, 194364, 194890, 195391, 195892, 196416, 196921, 197388, 197881, 198316, 198818, 199293, 199731, 200206, 200673, 201132, 201631, 202099, 202530, 203003, 203468, 203904]","[192977, 193476, 193976, 194477, 194976, 195476, 195976, 196476, 196894, 197354, 197852, 198285, 198781, 199258, 199708, 200170, 200663, 201088, 201608, 202071, 202498, 202979, 203441, 203847]",48,R,ITM,1.1,
4,500,practice,0,4,4,4,practice,"['S', 'S', 'S', 'S', 'S', 'S', 'S', 'C', 'C', 'C', 'C', 'C', 'C', 'C', 'C', 'C', 'C', 'C', 'C', 'C', 'C', 'C', 'C']","[209583, 210147, 210699, 211225, 211727, 212231, 212733, 213296, 213734, 214221, 214684, 215147, 215656, 216118, 216545, 217033, 217495, 217925, 218384, 218850, 219293, 219756, 220184]","[209653, 210224, 210755, 211297, 211785, 212286, 212809, 213340, 213793, 214274, 214737, 215211, 215702, 216171, 216607, 217082, 217556, 217984, 218409, 218911, 219355, 219817, 220244]","[209385, 209885, 210385, 210885, 211385, 211886, 212385, 212885, 213321, 213760, 214248, 214710, 215173, 215682, 216143, 216571, 217059, 217521, 217951, 218409, 218875, 219319, 219782, 220210]",48,R,ITM,1.1,
2,500,practice,0,5,5,5,practice,"['S', 'S', 'S', 'S', 'S', 'S', 'S', 'C', 'C', 'C', 'C', 'C', 'C', 'C', 'C', 'C', 'C', 'C', 'C', 'C', 'C', 'C', 'C']","[226139, 226618, 227194, 227796, 228288, 228811, 229306, 229823, 230324, 230757, 231280, 231719, 232242, 232729, 233211, 233707, 234191, 234630, 235110, 235635, 236106, 236579, 237050]","[226204, 226705, 227257, 227862, 228350, 228873, 229389, 229902, 230361, 230816, 231308, 231774, 232289, 232776, 233260, 233751, 234221, 234656, 235138, 235671, 236133, 236607, 237097]","[225937, 226438, 226937, 227436, 227936, 228438, 228937, 229437, 229851, 230350, 230785, 231308, 231746, 232268, 232757, 233239, 233735, 234218, 234656, 235138, 235663, 236133, 236607, 237078]",48,R,ITM,1.1,
5,600,trial,0,6,6,6,trial,"['S', 'S', 'S', 'S', 'S', 'S', 'S', 'S', 'C', 'C', 'C', 'C', 'C', 'C', 'C', 'C', 'C', 'C', 'C', 'C', 'C', 'C', 'C', 'C']","[245597, 246126, 246439, 246969, 247584, 248194, 248782, 249358, 249978, 250465, 251021, 251559, 252103, 252652, 253158, 253710, 254211, 254768, 255286, 255833, 256381, 256867, 257431, 257956]","[245683, 246181, 246481, 247028, 247616, 248250, 248837, 249378, 250020, 250490, 251046, 251585, 252129, 252685, 253214, 253760, 254237, 254824, 255339, 255880, 256431, 256917, 257505, 258013]","[245387, 245986, 246586, 247186, 247786, 248386, 248986, 249586, 250005, 250490, 251046, 251585, 252129, 252678, 253185, 253736, 254236, 254793, 255312, 255858, 256407, 256892, 257457, 257982]",48,R,ITM,1.1,
6,600,trial,0,7,7,7,trial,"['S', 'S', 'S', 'S', 'S', 'S', 'S', 'S', 'C', 'C', 'C', 'C', 'C', 'C', 'C', 'C', 'C', 'C', 'C', 'C', 'C', 'C', 'C', 'C']","[263851, 264244, 264674, 265287, 265891, 266520, 267118, 267724, 268326, 268897, 269467, 270011, 270537, 271089, 271661, 272203, 272756, 273278, 273837, 274387, 274922, 275424, 275966, 276480]","[263915, 264289, 264740, 265347, 265954, 266570, 267186, 267777, 268387, 268954, 269515, 270062, 270577, 271148, 271719, 272258, 272804, 273335, 273907, 274436, 274962, 275490, 276025, 276537]","[263645, 264243, 264843, 265443, 266043, 266643, 267243, 267843, 268353, 268923, 269495, 270038, 270564, 271116, 271687, 272230, 272783, 273305, 273864, 274415, 274950, 275450, 275993, 276506]",48,R,ITM,1.1,
4,600,trial,0,8,8,8,trial,"['S', 'S', 'S', 'S', 'S', 'S', 'S', 'S', 'C', 'C', 'C', 'C', 'C', 'C', 'C', 'C', 'C', 'C', 'C', 'C', 'C', 'C', 'C', 'C']","[282203, 282491, 283003, 283645, 284280, 284877, 285458, 286033, 286617, 287123, 287684, 288235, 288754, 289301, 289822, 290308, 290855, 291348, 291899, 292410, 292944, 293462, 293969, 294453]","[282265, 282563, 283080, 283728, 284363, 284957, 285528, 286101, 286707, 287178, 287729, 288275, 288811, 289352, 289876, 290349, 290921, 291404, 291927, 292460, 293003, 293508, 294012, 294517]","[282008, 282607, 283207, 283807, 284407, 285007, 285607, 286208, 286643, 287149, 287710, 288261, 288780, 289327, 289848, 290333, 290881, 291374, 291924, 292435, 292970, 293487, 293995, 294479]",48,R,ITM,1.1,
3,600,trial,0,9,9,9,trial,"['S', 'S', 'S', 'S', 'S', 'S', 'S', 'S', 'C', 'C', 'C', 'C', 'C', 'C', 'C', 'C', 'C', 'C', 'C', 'C', 'C', 'C', 'C', 'C']","[300154, 300395, 300957, 301632, 302213, 302782, 303378, 303975, 304588, 305148, 305691, 306277, 306885, 307386, 307992, 308601, 309100, 309725, 310258, 310840, 311448, 312085, 312680, 313275]","[300199, 300475, 301033, 301693, 302257, 302854, 303449, 304041, 304651, 305213, 305760, 306336, 306931, 307443, 308077, 308646, 309186, 309791, 310326, 310916, 311491, 312147, 312761, 313340]","[299964, 300564, 301164, 301764, 302364, 302964, 303564, 304164, 304614, 305174, 305717, 306302, 306911, 307411, 308018, 308627, 309126, 309750, 310284, 310865, 311474, 312111, 312706, 313300]",48,R,ITM,1.1,
2,400,trial,0,10,10,10,trial,"['S', 'S', 'S', 'S', 'S', 'S', 'S', 'S', 'C', 'C', 'C', 'C', 'C', 'C', 'C', 'C', 'C', 'C', 'C', 'C', 'C', 'C', 'C', 'C']","[318985, 319232, 319628, 320056, 320356, 320689, 321060, 321458, 321868, 322290, 322629, 323034, 323399, 323766, 324158, 324530, 324914, 325291, 325659, 325998, 332868, 333246, 333617, 334003]","[319039, 319322, 319684, 320112, 320415, 320756, 321123, 321527, 321928, 322336, 322671, 323091, 323445, 323821, 324186, 324576, 324941, 325337, 325704, 326059, 332935, 333322, 333690, 334048]","[318755, 319156, 319555, 319956, 320356, 320755, 321156, 321556, 321896, 322317, 322657, 323061, 323427, 323792, 324186, 324556, 324941, 325317, 325687, 326026, 332896, 333274, 333643, 334029]",48,R,ITM,1.1,
5,400,trial,0,11,11,11,trial,"['S', 'S', 'S', 'S', 'S', 'S', 'S', 'C', 'C', 'C', 'C', 'C', 'C', 'C', 'C', 'C', 'C', 'C', 'C', 'C', 'C', 'C', 'C']","[339997, 340390, 340843, 341267, 341662, 342063, 342486, 342880, 343273, 343652, 344043, 344381, 344793, 345140, 345489, 345852, 346189, 346553, 346882, 347233, 347607, 347993, 348341]","[340059, 340471, 340864, 341320, 341703, 342139, 342519, 342931, 343337, 343694, 344069, 344440, 344832, 345196, 345555, 345908, 346243, 346596, 346933, 347258, 347643, 348054, 348396]","[339752, 340152, 340552, 340953, 341352, 341752, 342152, 342552, 342905, 343299, 343678, 344069, 344407, 344818, 345165, 345516, 345878, 346215, 346579, 346907, 347258, 347632, 348018, 348366]",48,R,ITM,1.1,
7,600,trial,0,12,12,12,trial,"['S', 'S', 'S', 'S', 'S', 'S', 'S', 'S', 'C', 'C', 'C', 'C', 'C', 'C', 'C', 'C', 'C', 'C', 'C', 'C', 'C', 'C', 'C', 'C']","[354276, 354563, 355060, 355733, 356340, 356959, 357570, 358161, 358706, 359279, 359774, 360377, 360899, 361412, 361911, 362470, 363006, 363531, 364039, 364607, 365209, 365725, 366279, 366851]","[354335, 354619, 355129, 355798, 356418, 357005, 357619, 358207, 358763, 359307, 359826, 360404, 360950, 361440, 361950, 362498, 363034, 363558, 364130, 364653, 365237, 365754, 366351, 366888]","[354087, 354686, 355287, 355887, 356487, 357086, 357686, 358286, 358732, 359307, 359801, 360404, 360927, 361440, 361937, 362497, 363034, 363558, 364066, 364635, 365237, 365753, 366307, 366878]",48,R,ITM,1.1,
3,600,trial,0,13,13,13,trial,"['S', 'S', 'S', 'S', 'S', 'S', 'S', 'S', 'C', 'C', 'C', 'C', 'C', 'C', 'C', 'C', 'C', 'C', 'C', 'C', 'C', 'C', 'C', 'C']","[372516, 373044, 373348, 373912, 374528, 375135, 375706, 376335, 376908, 377475, 378020, 378610, 379108, 379716, 380197, 380778, 381347, 381810, 382367, 382955, 383513, 384027, 384530, 385134]","[372536, 373131, 373414, 373989, 374590, 375214, 375777, 376371, 376975, 377505, 378083, 378663, 379162, 379760, 380284, 380851, 381373, 381885, 382444, 383031, 383578, 384111, 384618, 385183]","[372241, 372841, 373441, 374041, 374641, 375241, 375841, 376441, 376934, 377500, 378046, 378636, 379133, 379742, 380223, 380804, 381373, 381836, 382393, 382981, 383539, 384053, 384556, 385160]",48,R,ITM,1.1,
6,400,trial,0,14,14,14,trial,"['S', 'S', 'S', 'S', 'S', 'S', 'S', 'S', 'C', 'C', 'C', 'C', 'C', 'C', 'C', 'C', 'C', 'C', 'C', 'C', 'C', 'C', 'C', 'C']","[391182, 391645, 391949, 392373, 392762, 393165, 393593, 393975, 394384, 394726, 395071, 395459, 395837, 396250, 396627, 397003, 397356, 397734, 398068, 398482, 398809, 399266, 399584, 400013]","[391249, 391717, 392017, 392440, 392791, 393221, 393621, 394046, 394435, 394788, 395129, 395499, 395886, 396277, 396684, 397031, 397430, 397765, 398096, 398510, 398868, 399307, 399666, 400066]","[390940, 391340, 391739, 392139, 392540, 392939, 393339, 393739, 394412, 394753, 395098, 395487, 395864, 396277, 396654, 397030, 397382, 397761, 398096, 398510, 398836, 399294, 399610, 400040]",48,R,ITM,1.1,
2,400,trial,0,15,15,15,trial,"['S', 'S', 'S', 'S', 'S', 'S', 'S', 'S', 'C', 'C', 'C', 'C', 'C', 'C', 'C', 'C', 'C', 'C', 'C', 'C', 'C', 'C', 'C', 'C']","[405956, 406241, 406578, 406933, 407328, 407704, 408096, 408470, 408880, 409275, 409673, 410039, 410459, 410822, 411225, 411610, 412000, 412355, 412730, 413138, 413505, 413952, 414268, 414693]","[406008, 406300, 406598, 406964, 407358, 407757, 408140, 408529, 408941, 409307, 409730, 410107, 410523, 410860, 411292, 411650, 412045, 412394, 412800, 413190, 413533, 413978, 414334, 414765]","[405774, 406174, 406574, 406974, 407374, 407775, 408175, 408574, 408907, 409303, 409701, 410066, 410485, 410850, 411252, 411636, 412027, 412382, 412758, 413165, 413533, 413978, 414296, 414721]",48,R,ITM,1.1,
2,600,trial,0,16,16,16,trial,"['S', 'S', 'S', 'S', 'S', 'S', 'S', 'S', 'C', 'C', 'C', 'C', 'C', 'C', 'C', 'C', 'C', 'C', 'C', 'C', 'C', 'C', 'C', 'C']","[420633, 421159, 421467, 422038, 422630, 423238, 423857, 424435, 425025, 425605, 426127, 426656, 427268, 427844, 428391, 428893, 429600, 430175, 430716, 431256, 431799, 432295, 432823, 433419]","[420687, 421248, 421548, 422105, 422701, 423297, 423937, 424514, 425090, 425632, 426177, 426729, 427335, 427909, 428444, 428947, 429656, 430228, 430793, 431338, 431885, 432355, 432854, 433487]","[420387, 420987, 421586, 422187, 422788, 423388, 423988, 424588, 425053, 425632, 426155, 426684, 427295, 427872, 428419, 428919, 429628, 430201, 430743, 431284, 431825, 432322, 432849, 433446]",48,R,ITM,1.1,
6,400,trial,0,17,17,17,trial,"['S', 'S', 'S', 'S', 'S', 'S', 'S', 'S', 'C', 'C', 'C', 'C', 'C', 'C', 'C', 'C', 'C', 'C', 'C', 'C', 'C', 'C', 'C', 'C']","[439178, 439553, 439855, 440145, 440442, 440767, 441189, 441571, 442024, 442333, 442728, 443078, 443462, 443868, 444180, 444579, 444918, 445247, 445583, 445928, 446314, 446600, 447003, 447292]","[439235, 439626, 439946, 440231, 440493, 440837, 441244, 441650, 442067, 442401, 442756, 443130, 443520, 443895, 444248, 444622, 444952, 445306, 445655, 445955, 446362, 446654, 447031, 447341]","[438931, 439330, 439731, 440131, 440531, 440931, 441331, 441732, 442051, 442360, 442756, 443105, 443490, 443895, 444208, 444607, 444945, 445275, 445609, 445955, 446341, 446626, 447031, 447319]",48,R,ITM,1.1,
3,400,trial,0,18,18,18,trial,"['S', 'S', 'S', 'S', 'S', 'S', 'S', 'C', 'C', 'C', 'C', 'C', 'C', 'C', 'C', 'C', 'C', 'C', 'C', 'C', 'C', 'C', 'C']","[457144, 457545, 457917, 458335, 458770, 459168, 459496, 459939, 460361, 460771, 461164, 461559, 461949, 462331, 462704, 463068, 463405, 463768, 464128, 464436, 464836, 465191, 465538]","[457221, 457614, 457984, 458391, 458839, 459259, 459582, 459990, 460418, 460796, 461203, 461597, 461975, 462389, 462759, 463093, 463479, 463807, 464153, 464515, 464898, 465230, 465595]","[456882, 457280, 457680, 458080, 458480, 458881, 459280, 459680, 459965, 460388, 460796, 461190, 461585, 461975, 462357, 462730, 463093, 463430, 463794, 464153, 464461, 464862, 465217, 465563]",48,R,ITM,1.1,
4,400,trial,0,19,19,19,trial,"['S', 'S', 'S', 'S', 'S', 'S', 'S', 'S', 'C', 'C', 'C', 'C', 'C', 'C', 'C', 'C', 'C', 'C', 'C', 'C', 'C', 'C', 'C', 'C']","[471536, 471800, 472120, 472461, 472868, 473247, 473663, 474011, 474423, 474746, 475199, 475616, 475983, 476413, 476867, 477248, 477617, 478003, 478401, 478794, 479190, 479519, 479902, 480323]","[471592, 471865, 472180, 472530, 472931, 473312, 473719, 474059, 474479, 474798, 475226, 475668, 476025, 476475, 476918, 477303, 477674, 478061, 478470, 478863, 479229, 479584, 479964, 480378]","[471312, 471712, 472113, 472512, 472912, 473312, 473712, 474113, 474448, 474772, 475226, 475641, 476009, 476439, 476893, 477274, 477642, 478028, 478427, 478820, 479215, 479545, 479928, 480349]",48,R,ITM,1.1,
6,600,trial,0,20,20,20,trial,"['S', 'S', 'S', 'S', 'S', 'S', 'S', 'S', 'C', 'C', 'C', 'C', 'C', 'C', 'C', 'C', 'C', 'C', 'C', 'C', 'C', 'C', 'C', 'C', 'C']","[486315, 486694, 487066, 487703, 488288, 488909, 489511, 490071, 490655, 491188, 491741, 492320, 492956, 493570, 494142, 494649, 495245, 495747, 496358, 496877, 496984, 497483, 497904, 498513, 499006]","[486394, 486768, 487140, 487777, 488360, 488956, 489582, 490147, 490724, 491302, 491843, 492397, 493049, 493644, 494205, 494783, 495354, 495850, 496443, 496904, 497012, 497570, 498037, 498594, 499060]","[486059, 486659, 487259, 487859, 488459, 489059, 489659, 490259, 490682, 491214, 491767, 492348, 492983, 493597, 494169, 494676, 495272, 495773, 496385, 496904, 497510, 497931, 498540, 499033]",48,R,ITM,1.1,
5,600,trial,0,21,21,21,trial,"['S', 'S', 'S', 'S', 'S', 'S', 'S', 'S', 'C', 'C', 'C', 'C', 'C', 'C', 'C', 'C', 'C', 'C', 'C', 'C', 'C', 'C', 'C', 'C']","[504738, 505039, 505390, 505970, 506672, 507276, 507844, 508431, 509029, 509613, 510142, 510726, 511278, 511939, 512415, 512971, 513528, 514161, 514725, 515171, 515549, 516070, 516567, 517093]","[504758, 505115, 505439, 506049, 506740, 507340, 507901, 508502, 509054, 509638, 510223, 510803, 511382, 511995, 512524, 513046, 513555, 514224, 514778, 515244, 515657, 516139, 516630, 517178]","[504341, 504940, 505540, 506140, 506740, 507340, 507940, 508540, 509054, 509638, 510168, 510752, 511303, 511965, 512441, 512998, 513555, 514188, 514751, 515196, 515574, 516096, 516592, 517120]",48,R,ITM,1.1,
4,600,trial,0,22,22,22,trial,"['S', 'S', 'S', 'S', 'S', 'S', 'S', 'S', 'C', 'C', 'C', 'C', 'C', 'C', 'C', 'C', 'C', 'C', 'C', 'C', 'C', 'C', 'C', 'C']","[523128, 523448, 523929, 524602, 525208, 525899, 526410, 527017, 527617, 527994, 528604, 529086, 529744, 530252, 530926, 531515, 532045, 532567, 533206, 533757, 534213, 534861, 535409, 535904]","[523148, 523516, 524009, 524674, 525317, 525942, 526492, 527083, 527671, 528021, 528629, 529163, 529770, 530279, 530982, 531540, 532071, 532592, 533231, 533783, 534239, 534888, 535435, 535930]","[522892, 523492, 524092, 524692, 525292, 525892, 526492, 527092, 527642, 528020, 528629, 529113, 529770, 530278, 530952, 531540, 532071, 532592, 533231, 533783, 534239, 534887, 535435, 535930]",48,R,ITM,1.1,
4,400,trial,0,23,23,23,trial,"['S', 'S', 'S', 'S', 'S', 'S', 'S', 'S', 'S', 'C', 'C', 'C', 'C', 'C', 'C', 'C', 'C', 'C', 'C', 'C', 'C', 'C', 'C', 'C', 'C']","[541793, 542216, 542711, 542968, 543272, 543509, 543817, 544216, 544589, 544880, 545244, 545555, 545931, 546282, 546652, 547021, 547349, 547695, 548012, 548335, 548684, 548994, 549329, 549671, 549979]","[541860, 542236, 542777, 543013, 543330, 543570, 543889, 544251, 544635, 544956, 545299, 545614, 545992, 546308, 546690, 547057, 547375, 547721, 548037, 548361, 548710, 549031, 549369, 549714, 550034]","[541572, 541970, 542370, 542770, 543170, 543570, 543970, 544370, 544906, 545270, 545581, 545956, 546308, 546677, 547048, 547375, 547721, 548037, 548361, 548710, 549019, 549355, 549697, 550004]",48,R,ITM,1.1,
7,600,trial,0,24,24,24,trial,"['S', 'S', 'S', 'S', 'S', 'S', 'S', 'C', 'C', 'C', 'C', 'C', 'C', 'C', 'C', 'C', 'C', 'C', 'C', 'C', 'C', 'C', 'C', 'C']","[556167, 556754, 557426, 558018, 558625, 559211, 559850, 560464, 561004, 561599, 562070, 562678, 563174, 563712, 564337, 564846, 565347, 565806, 566386, 566876, 567462, 567831, 567939, 568360]","[556187, 556822, 557487, 558093, 558645, 559272, 559907, 560527, 561090, 561640, 562097, 562705, 563246, 563803, 564364, 564910, 565387, 565868, 566433, 566943, 567489, 567859, 567979, 568439]","[555777, 556377, 556977, 557576, 558176, 558776, 559376, 559976, 560491, 561031, 561626, 562097, 562705, 563202, 563738, 564364, 564874, 565373, 565832, 566413, 566902, 567489, 567858, 568388]",48,R,ITM,1.1,
3,400,trial,0,25,25,25,trial,"['S', 'S', 'S', 'S', 'S', 'S', 'S', 'S', 'C', 'C', 'C', 'C', 'C', 'C', 'C', 'C', 'C', 'C', 'C', 'C', 'C', 'C', 'C', 'C']","[574061, 574365, 574627, 574954, 575332, 575683, 576103, 576509, 576932, 577301, 577681, 578074, 578448, 578784, 579160, 579474, 579822, 580156, 580517, 580904, 581238, 581647, 581996, 582371]","[574081, 574385, 574678, 575015, 575373, 575758, 576182, 576580, 577010, 577369, 577724, 578100, 578491, 578826, 579205, 579520, 579866, 580214, 580564, 580977, 581264, 581700, 582077, 582436]","[573829, 574227, 574627, 575027, 575427, 575827, 576227, 576627, 576958, 577327, 577707, 578100, 578473, 578809, 579185, 579500, 579848, 580182, 580543, 580930, 581264, 581672, 582022, 582396]",48,R,ITM,1.1,
7,400,trial,0,26,26,26,trial,"['S', 'S', 'S', 'S', 'S', 'S', 'S', 'S', 'C', 'C', 'C', 'C', 'C', 'C', 'C', 'C', 'C', 'C', 'C', 'C', 'C', 'C', 'C', 'C', 'C']","[588365, 588708, 589102, 589531, 589907, 590307, 590687, 591123, 591524, 591882, 592253, 592589, 592983, 593372, 593682, 594059, 594388, 594811, 595078, 595471, 595772, 596103, 596458, 596782, 597153]","[588385, 588766, 589122, 589591, 589963, 590371, 590767, 591194, 591586, 591952, 592307, 592655, 593047, 593434, 593747, 594134, 594463, 594838, 595153, 595553, 595834, 596171, 596518, 596846, 597204]","[588095, 588494, 588894, 589294, 589694, 590094, 590494, 590895, 591552, 591908, 592280, 592616, 593010, 593398, 593709, 594085, 594415, 594838, 595497, 595799, 596129, 596485, 596808, 597181]",48,R,ITM,1.1,
7,400,trial,0,27,27,27,trial,"['S', 'S', 'S', 'S', 'S', 'S', 'S', 'S', 'C', 'C', 'C', 'C', 'C', 'C', 'C', 'C', 'C', 'C', 'C', 'C', 'C', 'C', 'C', 'C']","[602820, 603098, 603420, 603771, 604190, 604563, 604959, 605350, 605787, 606208, 606606, 607024, 607583, 607862, 608264, 608659, 609106, 609521, 609929, 610335, 610693, 611239, 611578, 611941]","[602840, 603161, 603485, 603842, 604249, 604607, 605023, 605386, 605849, 606235, 606650, 607087, 607634, 607930, 608323, 608723, 609174, 609589, 609981, 610411, 610748, 611299, 611675, 612006]","[602620, 603019, 603419, 603820, 604219, 604619, 605020, 605419, 605813, 606235, 606632, 607050, 607609, 607889, 608290, 608686, 609133, 609548, 609955, 610362, 610719, 611266, 611606, 611968]",48,R,ITM,1.1,
5,400,trial,0,28,28,28,trial,"['S', 'S', 'S', 'S', 'S', 'S', 'S', 'S', 'C', 'C', 'C', 'C', 'C', 'C', 'C', 'C', 'C', 'C', 'C', 'C', 'C', 'C', 'C', 'C']","[617612, 617956, 618193, 618487, 618896, 619292, 619737, 620106, 620548, 620906, 621312, 621710, 622110, 622472, 622881, 623224, 623649, 623982, 624343, 624723, 625064, 625418, 625782, 626131]","[617663, 618023, 618269, 618542, 618953, 619327, 619788, 620146, 620621, 620947, 621350, 621768, 622192, 622544, 622949, 623319, 623721, 624060, 624416, 624749, 625140, 625490, 625868, 626200]","[617382, 617781, 618181, 618582, 618981, 619381, 619782, 620181, 620573, 620933, 621337, 621735, 622136, 622497, 622907, 623250, 623675, 624008, 624368, 624749, 625091, 625443, 625808, 626157]",48,R,ITM,1.1,
2,600,trial,0,29,29,29,trial,"['S', 'S', 'S', 'S', 'S', 'S', 'S', 'S', 'C', 'C', 'C', 'C', 'C', 'C', 'C', 'C', 'C', 'C', 'C', 'C', 'C', 'C', 'C', 'C']","[631867, 632366, 632666, 633250, 633843, 634401, 635012, 635607, 636206, 636754, 637287, 637796, 638362, 638927, 639404, 639995, 640509, 641039, 641594, 642139, 642627, 643131, 643660, 644202]","[631949, 632428, 632756, 633326, 633915, 634448, 635083, 635688, 636286, 636811, 637362, 637860, 638416, 638977, 639480, 640045, 640566, 641114, 641669, 642198, 642693, 643193, 643704, 644270]","[631556, 632156, 632756, 633356, 633955, 634555, 635156, 635756, 636233, 636782, 637315, 637822, 638389, 638955, 639430, 640023, 640537, 641067, 641622, 642165, 642654, 643158, 643687, 644230]",48,R,ITM,1.1,
2,600,trial,0,30,30,30,trial,"['S', 'S', 'S', 'S', 'S', 'S', 'S', 'C', 'C', 'C', 'C', 'C', 'C', 'C', 'C', 'C', 'C', 'C', 'C', 'C', 'C', 'C', 'C']","[652005, 652697, 653307, 653936, 654522, 655119, 655776, 656387, 656897, 657472, 658011, 658577, 659129, 659679, 660204, 660722, 661251, 661760, 662288, 662928, 663374, 663876, 664343]","[652069, 652754, 653384, 654007, 654576, 655179, 655796, 656445, 656984, 657534, 658086, 658643, 659194, 659730, 660258, 660749, 661310, 661819, 662379, 662979, 663464, 663949, 664431]","[651633, 652233, 652833, 653433, 654032, 654632, 655234, 655833, 656414, 656923, 657499, 658038, 658605, 659156, 659705, 660232, 660749, 661278, 661786, 662315, 662956, 663401, 663904, 664371]",48,R,ITM,1.1,
2,400,trial,0,31,31,31,trial,"['S', 'S', 'S', 'S', 'S', 'S', 'S', 'S', 'S', 'C', 'C', 'C', 'C', 'C', 'C', 'C', 'C', 'C', 'C', 'C', 'C', 'C', 'C', 'C', 'C', 'C']","[670306, 670533, 670797, 671102, 671477, 671827, 672136, 672499, 672841, 673210, 673604, 673933, 674298, 674649, 675041, 675341, 675716, 676015, 676350, 676648, 676927, 677258, 677532, 677821, 678088, 678325]","[670326, 670599, 670865, 671122, 671559, 671847, 672156, 672519, 672861, 673301, 673649, 673993, 674341, 674719, 675077, 675423, 675742, 676086, 676398, 676708, 677004, 677284, 677587, 677862, 678151, 678381]","[670091, 670491, 670892, 671291, 671690, 672092, 672491, 672890, 673238, 673631, 673959, 674325, 674676, 675068, 675368, 675742, 676041, 676377, 676676, 676955, 677284, 677560, 677849, 678351]",48,R,ITM,1.1,
6,400,trial,0,32,32,32,trial,"['S', 'S', 'S', 'S', 'S', 'S', 'S', 'S', 'C', 'C', 'C', 'C', 'C', 'C', 'C', 'C', 'C', 'C', 'C', 'C', 'C', 'C', 'C', 'C', 'C', 'C', 'C']","[683953, 684284, 684506, 684808, 685185, 685559, 685958, 686398, 686790, 687109, 687481, 687810, 688188, 688479, 688858, 689171, 689517, 689836, 690171, 690432, 690761, 690996, 691284, 691539, 691861, 692211, 692519]","[684011, 684351, 684570, 684887, 685235, 685633, 686019, 686468, 686839, 687157, 687542, 687856, 688215, 688519, 688885, 689226, 689545, 689862, 690203, 690495, 690835, 691070, 691359, 691619, 691943, 692282, 692590]","[683686, 684086, 684486, 684887, 685286, 685686, 686087, 686486, 686817, 687135, 687508, 687838, 688215, 688506, 688885, 689198, 689545, 689862, 690198, 690788, 691312, 691889, 692238, 692547]",48,R,ITM,1.1,
5,600,trial,0,33,33,33,trial,"['S', 'S', 'S', 'S', 'S', 'S', 'S', 'S', 'C', 'C', 'C', 'C', 'C', 'C', 'C', 'C', 'C', 'C', 'C', 'C', 'C', 'C', 'C', 'C', 'C']","[698128, 698565, 698916, 699564, 700179, 700725, 701328, 701955, 702484, 703040, 703555, 704083, 704585, 705107, 705652, 706201, 706680, 707215, 707695, 708253, 708701, 709117, 709223, 709628, 710046]","[698225, 698632, 698994, 699633, 700259, 700804, 701348, 702016, 702559, 703088, 703617, 704135, 704645, 705152, 705716, 706265, 706746, 707273, 707762, 708326, 708803, 709143, 709243, 709699, 710137]","[697900, 698499, 699099, 699698, 700298, 700898, 701498, 702098, 702511, 703066, 703581, 704110, 704611, 705134, 705679, 706227, 706706, 707240, 707721, 708279, 708727, 709143, 709654, 710072]",48,R,ITM,1.1,
4,600,trial,0,34,34,34,trial,"['S', 'S', 'S', 'S', 'S', 'S', 'S', 'S', 'S', 'C', 'C', 'C', 'C', 'C', 'C', 'C', 'C', 'C', 'C', 'C', 'C', 'C', 'C', 'C', 'C']","[715832, 716055, 716340, 716672, 717301, 717922, 718524, 719084, 719630, 720262, 720815, 721351, 721912, 722447, 722970, 723532, 724035, 724572, 725127, 725593, 730580, 730882, 731296, 731632, 732087]","[715852, 716098, 716408, 716739, 717361, 717975, 718567, 719158, 719739, 720329, 720867, 721401, 721982, 722516, 723067, 723558, 724061, 724597, 725152, 725619, 730632, 730980, 731364, 731706, 732148]","[715594, 716193, 716793, 717393, 717993, 718594, 719194, 719794, 720287, 720840, 721377, 721938, 722472, 722997, 723558, 724061, 724597, 725152, 725619, 730606, 730908, 731322, 731658, 732112]",48,R,ITM,1.1,
2,400,trial,0,35,35,35,trial,"['S', 'S', 'S', 'S', 'S', 'S', 'S', 'C', 'C', 'C', 'C', 'C', 'C', 'C', 'C', 'C', 'C', 'C', 'C', 'C', 'C', 'C', 'C']","[738276, 738642, 739072, 739471, 739854, 740238, 740639, 741049, 741435, 741874, 742216, 742631, 743045, 743452, 743892, 744288, 744694, 745082, 745473, 745805, 746212, 746735, 747174]","[738329, 738707, 739134, 739557, 739927, 740335, 740741, 741127, 741501, 741925, 742287, 742692, 743117, 743530, 743944, 744343, 744759, 745134, 745551, 745880, 746298, 746795, 747227]","[737870, 738271, 738670, 739072, 739471, 739871, 740271, 740670, 741076, 741463, 741902, 742243, 742659, 743071, 743480, 743920, 744314, 744721, 745110, 745499, 745832, 746238, 746762, 747202]",48,R,ITM,1.1,
6,600,trial,0,36,36,36,trial,"['S', 'S', 'S', 'S', 'S', 'S', 'S', 'C', 'C', 'C', 'C', 'C', 'C', 'C', 'C', 'C', 'C', 'C', 'C', 'C', 'C', 'C', 'C']","[753090, 753820, 754477, 755070, 755639, 756288, 756904, 757502, 758075, 758554, 759081, 759617, 760164, 760737, 761223, 761904, 762456, 762974, 763520, 764044, 764589, 765130, 765512]","[753149, 753856, 754549, 755102, 755700, 756334, 756948, 757556, 758135, 758581, 759127, 759673, 760215, 760803, 761287, 761932, 762509, 763025, 763568, 764092, 764662, 765194, 765579]","[752759, 753358, 753958, 754558, 755159, 755759, 756359, 756958, 757529, 758103, 758581, 759109, 759644, 760190, 760764, 761249, 761931, 762483, 763001, 763547, 764071, 764615, 765157, 765539]",48,R,ITM,1.1,
7,400,trial,0,37,37,37,trial,"['S', 'S', 'S', 'S', 'S', 'S', 'S', 'C', 'C', 'C', 'C', 'C', 'C', 'C', 'C', 'C', 'C', 'C', 'C', 'C', 'C', 'C', 'C']","[771286, 771673, 771986, 772420, 772841, 773296, 773681, 774109, 774500, 774864, 775291, 775662, 776067, 776461, 776845, 777199, 777615, 777944, 778405, 778742, 779085, 779462, 779819]","[771355, 771693, 772059, 772494, 772901, 773362, 773773, 774189, 774583, 774962, 775354, 775717, 776131, 776541, 776909, 777280, 777641, 777987, 778463, 778803, 779164, 779513, 779882]","[770955, 771354, 771755, 772154, 772554, 772955, 773354, 773754, 774135, 774528, 774891, 775318, 775689, 776093, 776488, 776871, 777226, 777641, 777970, 778433, 778769, 779113, 779489, 779846]",48,R,ITM,1.1,
3,600,trial,0,38,38,38,trial,"['S', 'S', 'S', 'S', 'S', 'S', 'S', 'C', 'C', 'C', 'C', 'C', 'C', 'C', 'C', 'C', 'C', 'C', 'C', 'C', 'C', 'C', 'C']","[785533, 786188, 786836, 787410, 788030, 788603, 789158, 789811, 790320, 790842, 791401, 791959, 792480, 793024, 793580, 794044, 794530, 795090, 795598, 796121, 796578, 797009, 797473]","[785553, 786208, 786895, 787470, 788063, 788623, 789216, 789861, 790384, 790894, 791468, 792044, 792506, 793082, 793606, 794103, 794598, 795156, 795658, 796146, 796662, 797089, 797570]","[785171, 785771, 786371, 786971, 787571, 788171, 788771, 789371, 789836, 790345, 790867, 791427, 791985, 792506, 793050, 793606, 794070, 794556, 795116, 795624, 796146, 796604, 797035, 797499]",48,R,ITM,1.1,
4,400,trial,0,39,39,39,trial,"['S', 'S', 'S', 'S', 'S', 'S', 'S', 'S', 'C', 'C', 'C', 'C', 'C', 'C', 'C', 'C', 'C', 'C', 'C', 'C', 'C', 'C', 'C', 'C']","[803421, 803834, 804155, 804524, 804951, 805335, 805744, 806123, 806526, 806876, 807227, 807602, 807929, 808299, 808654, 809009, 809326, 809687, 810046, 810365, 810685, 811012, 811323, 811625]","[803495, 803894, 804212, 804586, 805012, 805395, 805801, 806198, 806588, 806943, 807286, 807656, 807994, 808360, 808714, 809064, 809407, 809765, 810114, 810439, 810769, 811100, 811411, 811710]","[803088, 803488, 803889, 804288, 804688, 805088, 805488, 805889, 806552, 806901, 807252, 807628, 807955, 808325, 808680, 809034, 809352, 809712, 810072, 810392, 810711, 811037, 811348, 811651]",48,R,ITM,1.1,
4,600,trial,0,40,40,40,trial,"['S', 'S', 'S', 'S', 'S', 'S', 'S', 'S', 'C', 'C', 'C', 'C', 'C', 'C', 'C', 'C', 'C', 'C', 'C', 'C', 'C', 'C', 'C', 'C']","[817497, 817750, 818272, 818897, 819552, 820190, 820695, 821349, 821912, 822392, 822870, 823375, 823896, 824394, 824888, 825353, 825883, 826338, 826792, 827249, 827680, 828154, 828633, 829109]","[817517, 817832, 818363, 818965, 819601, 820237, 820746, 821396, 821968, 822448, 822920, 823419, 823951, 824460, 824949, 825409, 825939, 826405, 826846, 827315, 827749, 828237, 828697, 829175]","[817270, 817870, 818470, 819070, 819671, 820271, 820871, 821471, 821938, 822418, 822895, 823401, 823921, 824420, 824913, 825378, 825909, 826364, 826818, 827275, 827706, 828180, 828658, 829134]",48,R,ITM,1.1,
7,400,trial,0,41,41,41,trial,"['S', 'S', 'S', 'S', 'S', 'S', 'S', 'C', 'C', 'C', 'C', 'C', 'C', 'C', 'C', 'C', 'C', 'C', 'C', 'C', 'C', 'C', 'C', 'C']","[835073, 835520, 835912, 836293, 836685, 837111, 837505, 837901, 838241, 838619, 839029, 839408, 839791, 840145, 840539, 840882, 841287, 841552, 841895, 842283, 842593, 842989, 843317, 843697]","[835119, 835585, 835966, 836376, 836756, 837164, 837545, 837948, 838294, 838664, 839056, 839452, 839829, 840205, 840593, 840934, 841351, 841627, 841939, 842341, 842670, 843040, 843385, 843761]","[834808, 835208, 835608, 836008, 836408, 836808, 837209, 837608, 837927, 838268, 838646, 839056, 839435, 839819, 840173, 840565, 840908, 841315, 841922, 842310, 842620, 843016, 843343, 843723]",48,R,ITM,1.1,
3,400,trial,0,42,42,42,trial,"['S', 'S', 'S', 'S', 'S', 'S', 'S', 'C', 'C', 'C', 'C', 'C', 'C', 'C', 'C', 'C', 'C', 'C', 'C', 'C', 'C', 'C', 'C']","[851850, 852297, 852683, 853093, 853483, 853885, 854310, 854720, 855092, 855485, 855871, 856288, 856603, 857040, 857399, 857771, 858136, 858533, 858882, 859255, 859617, 859984, 860339]","[851930, 852317, 852747, 853152, 853504, 853941, 854369, 854746, 855149, 855511, 855897, 856349, 856629, 857066, 857457, 857832, 858209, 858601, 858944, 859310, 859689, 860043, 860393]","[851627, 852025, 852425, 852826, 853225, 853625, 854025, 854425, 854746, 855117, 855511, 855897, 856313, 856629, 857066, 857424, 857796, 858162, 858559, 858907, 859281, 859642, 860010, 860364]",48,R,ITM,1.1,
5,400,trial,0,43,43,43,trial,"['S', 'S', 'S', 'S', 'S', 'S', 'S', 'C', 'C', 'C', 'C', 'C', 'C', 'C', 'C', 'C', 'C', 'C', 'C', 'C', 'C', 'C', 'C']","[866336, 866649, 867165, 867518, 867989, 868318, 868768, 869169, 869537, 869918, 870262, 870628, 871023, 871363, 871754, 872101, 872483, 872829, 873188, 873508, 873861, 874184, 874568]","[866356, 866738, 867207, 867569, 868040, 868407, 868845, 869235, 869573, 869945, 870311, 870653, 871049, 871419, 871819, 872160, 872543, 872877, 873236, 873572, 873887, 874247, 874594]","[866097, 866495, 866895, 867295, 867695, 868096, 868495, 868895, 869195, 869563, 869945, 870288, 870653, 871049, 871389, 871780, 872127, 872510, 872855, 873213, 873534, 873887, 874210, 874594]",48,R,ITM,1.1,
3,600,trial,0,44,44,44,trial,"['S', 'S', 'S', 'S', 'S', 'S', 'S', 'S', 'S', 'C', 'C', 'C', 'C', 'C', 'C', 'C', 'C', 'C', 'C', 'C', 'C', 'C', 'C', 'C', 'C']","[880162, 880545, 880645, 880959, 881587, 882208, 882739, 883323, 883957, 884476, 884990, 885470, 885937, 886495, 886970, 887494, 887992, 888454, 889018, 889483, 889968, 890316, 890793, 891248, 891730]","[880182, 880565, 880665, 881012, 881653, 882283, 882844, 883406, 884038, 884546, 885046, 885528, 885995, 886525, 887038, 887560, 888017, 888513, 889079, 889551, 890028, 890343, 890858, 891302, 891794]","[879918, 880518, 881117, 881717, 882317, 882917, 883517, 884117, 884502, 885016, 885495, 885962, 886520, 886995, 887520, 888017, 888479, 889043, 889508, 889994, 890342, 890819, 891274, 891756]",48,R,ITM,1.1,
5,600,trial,0,45,45,45,trial,"['S', 'S', 'S', 'S', 'S', 'S', 'S', 'S', 'C', 'C', 'C', 'C', 'C', 'C', 'C', 'C', 'C', 'C', 'C', 'C', 'C', 'C', 'C', 'C']","[897647, 897969, 898508, 899202, 899806, 900393, 901001, 901598, 902166, 902751, 903348, 903876, 904370, 904934, 905483, 905990, 906463, 907019, 907508, 908085, 908585, 909115, 909543, 910083]","[897711, 898026, 898600, 899243, 899864, 900469, 901060, 901651, 902223, 902809, 903400, 903939, 904466, 905005, 905536, 906036, 906528, 907062, 907586, 908128, 908655, 909165, 909665, 910164]","[897495, 898095, 898695, 899295, 899895, 900495, 901095, 901695, 902192, 902776, 903374, 903902, 904395, 904961, 905508, 906016, 906488, 907044, 907534, 908110, 908612, 909142, 909569, 910108]",48,R,ITM,1.1,
4,400,trial,0,46,46,46,trial,"['S', 'S', 'S', 'S', 'S', 'S', 'S', 'S', 'C', 'C', 'C', 'C', 'C', 'C', 'C', 'C', 'C', 'C', 'C', 'C', 'C', 'C', 'C', 'C']","[915727, 915982, 916221, 916563, 916962, 917365, 917739, 918148, 918520, 918906, 919294, 919666, 920042, 920424, 920790, 921102, 921430, 921789, 922132, 922455, 922791, 923129, 923547, 923906]","[915747, 916040, 916283, 916623, 917037, 917435, 917810, 918209, 918597, 918960, 919350, 919726, 920101, 920479, 920827, 921161, 921474, 921815, 922159, 922500, 922861, 923192, 923573, 923931]","[915474, 915874, 916274, 916674, 917074, 917474, 917874, 918275, 918547, 918932, 919320, 919692, 920069, 920450, 920815, 921127, 921455, 921815, 922158, 922480, 922817, 923155, 923573, 923931]",48,R,ITM,1.1,
6,400,trial,0,47,47,47,trial,"['S', 'S', 'S', 'S', 'S', 'S', 'S', 'S', 'C', 'C', 'C', 'C', 'C', 'C', 'C', 'C', 'C', 'C', 'C', 'C', 'C', 'C', 'C', 'C', 'C']","[929731, 929953, 930247, 930611, 931007, 931426, 931846, 932233, 932597, 932895, 933157, 933462, 933828, 934122, 934480, 934771, 935106, 935391, 935718, 936031, 936337, 936623, 936947, 937221, 937535]","[929762, 930011, 930317, 930632, 931063, 931446, 931891, 932253, 932624, 932946, 933177, 933525, 933882, 934194, 934536, 934822, 935147, 935447, 935768, 936085, 936389, 936667, 937001, 937272, 937594]","[929547, 929946, 930347, 930746, 931146, 931547, 931946, 932346, 932624, 932923, 933489, 933856, 934149, 934508, 934798, 935133, 935417, 935745, 936058, 936364, 936649, 936975, 937247, 937562]",48,R,ITM,1.1,
2,600,trial,0,48,48,48,trial,"['S', 'S', 'S', 'S', 'C', 'C', 'C', 'C', 'C', 'C', 'C', 'C', 'C', 'C', 'C', 'C', 'C', 'C', 'C', 'C']","[945500, 946086, 946705, 947290, 947875, 948400, 948975, 949472, 949982, 950494, 950981, 951446, 951929, 952394, 952863, 953305, 953765, 954230, 954650, 955075]","[945592, 946156, 946725, 947317, 947942, 948453, 949015, 949529, 950044, 950546, 951018, 951502, 951989, 952465, 952932, 953375, 953829, 954293, 954678, 955167]","[943217, 943817, 944417, 945016, 945617, 946217, 946818, 947418, 947903, 948426, 949003, 949498, 950008, 950520, 951008, 951473, 951956, 952422, 952890, 953331, 953793, 954257, 954678, 955103]",48,R,ITM,1.1,
3,400,trial,0,49,49,49,trial,"['S', 'S', 'S', 'S', 'S', 'S', 'S', 'S', 'C', 'C', 'C', 'C', 'C', 'C', 'C', 'C', 'C', 'C', 'C', 'C', 'C', 'C', 'C', 'C']","[960918, 961197, 961502, 961869, 962208, 962592, 962993, 963372, 963765, 964189, 964542, 964890, 965271, 965637, 966003, 966391, 966775, 967152, 967484, 967882, 968232, 968582, 968939, 969296]","[960965, 961264, 961546, 961920, 962268, 962656, 963033, 963405, 963832, 964240, 964568, 964941, 965331, 965702, 966029, 966456, 966813, 967205, 967555, 967955, 968298, 968639, 969024, 969369]","[960720, 961119, 961519, 961920, 962319, 962719, 963120, 963519, 963790, 964214, 964568, 964916, 965297, 965662, 966029, 966417, 966801, 967178, 967511, 967908, 968258, 968607, 968965, 969322]",48,R,ITM,1.1,
7,600,trial,0,50,50,50,trial,"['S', 'S', 'S', 'S', 'S', 'S', 'S', 'S', 'C', 'C', 'C', 'C', 'C', 'C', 'C', 'C', 'C', 'C', 'C', 'C', 'C', 'C', 'C', 'C']","[974848, 975108, 975690, 976310, 976928, 977534, 978122, 978684, 979270, 979844, 980358, 980898, 981447, 981956, 982491, 982976, 983544, 984058, 984574, 985110, 985580, 986080, 986523, 987042]","[974918, 975184, 975729, 976369, 977016, 977623, 978171, 978745, 979336, 979911, 980418, 980954, 981498, 982003, 982559, 983053, 983603, 984112, 984643, 985137, 985664, 986141, 986592, 987103]","[974635, 975234, 975834, 976434, 977033, 977633, 978233, 978833, 979297, 979870, 980385, 980925, 981474, 981983, 982517, 983003, 983571, 984085, 984602, 985137, 985608, 986107, 986551, 987069]",48,R,ITM,1.1,
6,600,trial,0,51,51,51,trial,"['S', 'S', 'S', 'S', 'S', 'S', 'S', 'S', 'C', 'C', 'C', 'C', 'C', 'C', 'C', 'C', 'C', 'C', 'C', 'C', 'C', 'C', 'C', 'C']","[992732, 993146, 993515, 994168, 994798, 995390, 995965, 996568, 997132, 997805, 998398, 998966, 999456, 1000040, 1000651, 1001210, 1001657, 1002255, 1002778, 1003272, 1003795, 1004334, 1004869, 1005451]","[992802, 993213, 993588, 994264, 994888, 995468, 996034, 996625, 997175, 997868, 998451, 999018, 999559, 1000127, 1000733, 1001273, 1001784, 1002346, 1002847, 1003298, 1003822, 1004370, 1004941, 1005515]","[992479, 993078, 993678, 994278, 994878, 995478, 996078, 996678, 997158, 997832, 998425, 998993, 999484, 1000067, 1000678, 1001237, 1001684, 1002281, 1002805, 1003298, 1003822, 1004360, 1004896, 1005477]",48,R,ITM,1.1,
5,400,trial,0,52,52,52,trial,"['S', 'S', 'S', 'S', 'S', 'S', 'S', 'S', 'C', 'C', 'C', 'C', 'C', 'C', 'C', 'C', 'C', 'C', 'C', 'C', 'C', 'C', 'C', 'C']","[1011103, 1011368, 1011600, 1011944, 1012369, 1012800, 1013195, 1013571, 1013974, 1014329, 1014722, 1015094, 1015452, 1015844, 1016186, 1016531, 1016883, 1017227, 1017640, 1017952, 1018287, 1018625, 1018936, 1019301]","[1011132, 1011440, 1011657, 1011992, 1012450, 1012820, 1013243, 1013591, 1013999, 1014390, 1014765, 1015139, 1015479, 1015870, 1016215, 1016609, 1016955, 1017284, 1017716, 1018039, 1018354, 1018677, 1019018, 1019369]","[1010892, 1011292, 1011691, 1012091, 1012491, 1012891, 1013292, 1013691, 1013999, 1014354, 1014749, 1015120, 1015479, 1015870, 1016212, 1016558, 1016908, 1017252, 1017666, 1017978, 1018312, 1018650, 1018962, 1019327]",48,R,ITM,1.1,
7,600,trial,0,53,53,53,trial,"['S', 'S', 'S', 'S', 'S', 'S', 'S', 'S', 'C', 'C', 'C', 'C', 'C', 'C', 'C', 'C', 'C', 'C', 'C', 'C', 'C', 'C', 'C', 'C']","[1025101, 1025443, 1025947, 1026612, 1027171, 1027755, 1028400, 1028986, 1029529, 1030041, 1030517, 1031005, 1031525, 1032053, 1032601, 1033133, 1033744, 1034256, 1034718, 1035208, 1035735, 1036232, 1036689, 1037252]","[1025121, 1025515, 1025997, 1026688, 1027206, 1027841, 1028473, 1029071, 1029615, 1030086, 1030594, 1031099, 1031592, 1032117, 1032638, 1033159, 1033816, 1034295, 1034782, 1035305, 1035819, 1036314, 1036770, 1037304]","[1024910, 1025509, 1026109, 1026709, 1027309, 1027909, 1028509, 1029109, 1029557, 1030069, 1030545, 1031032, 1031553, 1032081, 1032628, 1033159, 1033771, 1034283, 1034745, 1035235, 1035761, 1036259, 1036716, 1037279]",48,R,ITM,1.1,
3,600,trial,0,54,54,54,trial,"['S', 'S', 'S', 'S', 'S', 'S', 'S', 'C', 'C', 'C', 'C', 'C', 'C', 'C', 'C', 'C', 'C', 'C', 'C', 'C', 'C', 'C', 'C']","[1045251, 1045952, 1046572, 1047196, 1047772, 1048364, 1048932, 1049583, 1050135, 1050681, 1051256, 1051849, 1052334, 1052856, 1053411, 1053885, 1054432, 1054915, 1055386, 1055863, 1056384, 1056838, 1057399]","[1045329, 1046014, 1046644, 1047267, 1047848, 1048421, 1049025, 1049651, 1050209, 1050738, 1051334, 1051875, 1052359, 1052958, 1053493, 1053971, 1054504, 1054978, 1055479, 1055960, 1056463, 1056943, 1057461]","[1044923, 1045523, 1046123, 1046723, 1047323, 1047923, 1048523, 1049123, 1049609, 1050161, 1050706, 1051282, 1051875, 1052359, 1052881, 1053436, 1053911, 1054457, 1054941, 1055412, 1055889, 1056409, 1056864, 1057425]",48,R,ITM,1.1,
3,600,trial,0,55,55,55,trial,"['S', 'S', 'S', 'S', 'S', 'S', 'S', 'S', 'C', 'C', 'C', 'C', 'C', 'C', 'C', 'C', 'C', 'C', 'C', 'C', 'C', 'C', 'C', 'C']","[1063162, 1063408, 1063947, 1064561, 1065217, 1065794, 1066365, 1066940, 1067557, 1068058, 1068569, 1069124, 1069648, 1070138, 1070666, 1071141, 1071613, 1072104, 1072480, 1072968, 1073501, 1073943, 1074394, 1074874]","[1063199, 1063461, 1064011, 1064603, 1065273, 1065831, 1066460, 1067023, 1067678, 1068120, 1068670, 1069257, 1069745, 1070222, 1070742, 1071228, 1071683, 1072168, 1072559, 1073028, 1073552, 1074016, 1074444, 1074937]","[1062957, 1063557, 1064157, 1064757, 1065357, 1065957, 1066557, 1067157, 1067583, 1068084, 1068595, 1069150, 1069674, 1070163, 1070692, 1071167, 1071639, 1072130, 1072505, 1072994, 1073526, 1073969, 1074419, 1074899]",48,R,ITM,1.1,
7,600,trial,0,56,56,56,trial,"['S', 'S', 'S', 'S', 'S', 'S', 'S', 'C', 'C', 'C', 'C', 'C', 'C', 'C', 'C', 'C', 'C', 'C', 'C', 'C', 'C', 'C', 'C']","[1080737, 1081414, 1082116, 1082719, 1083361, 1083919, 1084537, 1085124, 1085655, 1086153, 1086701, 1087266, 1087782, 1088324, 1088828, 1089360, 1089804, 1090319, 1090822, 1091318, 1091796, 1092282, 1092721]","[1080811, 1081499, 1082203, 1082800, 1083415, 1083981, 1084601, 1085194, 1085714, 1086234, 1086768, 1087335, 1087853, 1088393, 1088914, 1089388, 1089885, 1090383, 1090888, 1091383, 1091856, 1092360, 1092814]","[1080495, 1081095, 1081694, 1082294, 1082894, 1083494, 1084094, 1084694, 1085152, 1085681, 1086181, 1086728, 1087294, 1087810, 1088352, 1088856, 1089388, 1089830, 1090345, 1090849, 1091345, 1091824, 1092308, 1092748]",48,R,ITM,1.1,
2,400,trial,0,57,57,57,trial,"['S', 'S', 'S', 'S', 'S', 'S', 'S', 'S', 'C', 'C', 'C', 'C', 'C', 'C', 'C', 'C', 'C', 'C', 'C', 'C', 'C', 'C', 'C', 'C']","[1098689, 1098987, 1099204, 1099557, 1099964, 1100406, 1100812, 1101231, 1101642, 1102015, 1102424, 1102819, 1103198, 1103612, 1104014, 1104368, 1104787, 1105170, 1105544, 1105873, 1106295, 1106676, 1107085, 1107409]","[1098750, 1099040, 1099287, 1099625, 1100008, 1100460, 1100876, 1101279, 1101697, 1102077, 1102484, 1102868, 1103271, 1103657, 1104070, 1104425, 1104845, 1105209, 1105600, 1105940, 1106362, 1106706, 1107144, 1107483]","[1098475, 1098875, 1099274, 1099674, 1100075, 1100475, 1100874, 1101276, 1101670, 1102043, 1102451, 1102846, 1103224, 1103639, 1104040, 1104396, 1104814, 1105197, 1105571, 1105900, 1106322, 1106704, 1107112, 1107436]",48,R,ITM,1.1,
3,400,trial,0,58,58,58,trial,"['S', 'S', 'S', 'S', 'S', 'S', 'S', 'S', 'C', 'C', 'C', 'C', 'C', 'C', 'C', 'C', 'C', 'C', 'C', 'C', 'C', 'C', 'C', 'C']","[1113361, 1113791, 1114144, 1114470, 1114749, 1115057, 1115469, 1115855, 1116268, 1116675, 1117039, 1117425, 1117811, 1118153, 1118574, 1118911, 1119292, 1119630, 1120036, 1120415, 1120768, 1121095, 1121492, 1121856]","[1113420, 1113850, 1114164, 1114542, 1114769, 1115124, 1115552, 1115941, 1116357, 1116725, 1117097, 1117483, 1117871, 1118251, 1118641, 1118989, 1119347, 1119710, 1120119, 1120492, 1120855, 1121188, 1121561, 1121882]","[1113118, 1113519, 1113918, 1114318, 1114718, 1115118, 1115518, 1115918, 1116294, 1116700, 1117065, 1117451, 1117837, 1118179, 1118600, 1118937, 1119318, 1119655, 1120062, 1120441, 1120793, 1121121, 1121518, 1121882]",48,R,ITM,1.1,
7,400,trial,0,59,59,59,trial,"['S', 'S', 'S', 'S', 'S', 'S', 'S', 'S', 'C', 'C', 'C', 'C', 'C', 'C', 'C', 'C', 'C', 'C', 'C', 'C', 'C', 'C', 'C', 'C']","[1127818, 1128115, 1128350, 1128689, 1129031, 1129425, 1129822, 1130246, 1130679, 1130953, 1131321, 1131638, 1132016, 1132399, 1132784, 1133128, 1133523, 1133849, 1134212, 1134554, 1134930, 1135250, 1135622, 1135967]","[1127859, 1128168, 1128418, 1128743, 1129079, 1129489, 1129889, 1130278, 1130743, 1131025, 1131356, 1131686, 1132050, 1132446, 1132830, 1133191, 1133563, 1133929, 1134267, 1134615, 1134989, 1135325, 1135692, 1136017]","[1127610, 1128009, 1128410, 1128809, 1129209, 1129609, 1130009, 1130409, 1130705, 1130980, 1131347, 1131665, 1132043, 1132427, 1132811, 1133155, 1133551, 1133876, 1134239, 1134581, 1134957, 1135278, 1135649, 1135994]",48,R,ITM,1.1,
4,400,trial,0,60,60,60,trial,"['S', 'S', 'S', 'S', 'S', 'S', 'S', 'S', 'C', 'C', 'C', 'C', 'C', 'C', 'C', 'C', 'C', 'C', 'C', 'C', 'C', 'C', 'C', 'C']","[1141574, 1141961, 1142382, 1142790, 1143176, 1143559, 1143980, 1144332, 1144779, 1145137, 1145487, 1145830, 1146214, 1146586, 1146934, 1147294, 1147657, 1148012, 1148369, 1148730, 1149078, 1149447, 1149773, 1150149]","[1141645, 1142045, 1142462, 1142831, 1143272, 1143628, 1144034, 1144418, 1144858, 1145206, 1145572, 1145948, 1146297, 1146641, 1147003, 1147337, 1147724, 1148073, 1148431, 1148797, 1149145, 1149498, 1149818, 1150204]","[1141322, 1141723, 1142122, 1142522, 1142922, 1143322, 1143723, 1144122, 1144805, 1145162, 1145512, 1145856, 1146240, 1146612, 1146959, 1147320, 1147682, 1148038, 1148395, 1148755, 1149104, 1149472, 1149800, 1150175]",48,R,ITM,1.1,
2,600,trial,0,61,61,61,trial,"['S', 'S', 'S', 'S', 'S', 'S', 'S', 'S', 'C', 'C', 'C', 'C', 'C', 'C', 'C', 'C', 'C', 'C', 'C', 'C', 'C', 'C', 'C', 'C']","[1155901, 1156153, 1156714, 1157358, 1157955, 1158555, 1159157, 1159777, 1160377, 1160919, 1161392, 1161971, 1162488, 1162997, 1163539, 1164061, 1164623, 1165094, 1165618, 1166154, 1166651, 1167134, 1167674, 1168169]","[1155935, 1156245, 1156798, 1157410, 1158020, 1158622, 1159230, 1159844, 1160442, 1160978, 1161463, 1162043, 1162556, 1163049, 1163593, 1164139, 1164692, 1165169, 1165669, 1166203, 1166702, 1167199, 1167731, 1168248]","[1155699, 1156298, 1156899, 1157499, 1158099, 1158700, 1159300, 1159900, 1160403, 1160945, 1161419, 1161998, 1162515, 1163024, 1163566, 1164088, 1164651, 1165122, 1165644, 1166181, 1166678, 1167162, 1167700, 1168197]",48,R,ITM,1.1,
6,600,trial,0,62,62,62,trial,"['S', 'S', 'S', 'S', 'S', 'S', 'S', 'S', 'S', 'C', 'C', 'C', 'C', 'C', 'C', 'C', 'C', 'C', 'C', 'C', 'C', 'C', 'C', 'C', 'C']","[1173758, 1174022, 1174328, 1174675, 1175287, 1175913, 1176495, 1177072, 1177682, 1178251, 1178771, 1179317, 1179884, 1180397, 1180918, 1181436, 1182062, 1182551, 1183086, 1183611, 1184130, 1184638, 1185231, 1185676, 1186131]","[1173800, 1174085, 1174417, 1174803, 1175375, 1175982, 1176579, 1177092, 1177752, 1178291, 1178813, 1179359, 1179919, 1180460, 1180982, 1181524, 1182126, 1182632, 1183113, 1183671, 1184157, 1184713, 1185317, 1185794, 1186242]","[1173576, 1174175, 1174775, 1175375, 1175975, 1176576, 1177176, 1177776, 1178277, 1178798, 1179343, 1179911, 1180424, 1180945, 1181463, 1182089, 1182578, 1183113, 1183638, 1184157, 1184666, 1185258, 1185702, 1186158]",48,R,ITM,1.1,
2,600,trial,0,63,63,63,trial,"['S', 'S', 'S', 'S', 'S', 'S', 'S', 'S', 'C', 'C', 'C', 'C', 'C', 'C', 'C', 'C', 'C', 'C', 'C', 'C', 'C', 'C', 'C', 'C']","[1191858, 1192457, 1192710, 1193264, 1193903, 1194481, 1195080, 1195675, 1196260, 1196798, 1197318, 1197887, 1198391, 1198921, 1199521, 1200028, 1200525, 1201003, 1201504, 1201964, 1202414, 1202880, 1203317, 1203748]","[1191934, 1192519, 1192805, 1193371, 1193967, 1194564, 1195148, 1195695, 1196335, 1196877, 1197404, 1197938, 1198472, 1199007, 1199582, 1200088, 1200590, 1201081, 1201568, 1202003, 1202482, 1202908, 1203390, 1203836]","[1191593, 1192194, 1192795, 1193395, 1193993, 1194594, 1195194, 1195794, 1196286, 1196826, 1197344, 1197915, 1198418, 1198949, 1199548, 1200056, 1200552, 1201031, 1201531, 1201990, 1202442, 1202908, 1203345, 1203775]",48,R,ITM,1.1,
3,400,trial,0,64,64,64,trial,"['S', 'S', 'S', 'S', 'S', 'S', 'S', 'S', 'C', 'C', 'C', 'C', 'C', 'C', 'C', 'C', 'C', 'C', 'C', 'C', 'C', 'C', 'C', 'C']","[1209736, 1210014, 1210310, 1210693, 1211103, 1211507, 1211920, 1212326, 1212670, 1213063, 1213433, 1213795, 1214192, 1214566, 1214929, 1215288, 1215670, 1216015, 1216366, 1216766, 1217137, 1217460, 1217771, 1218134]","[1209810, 1210099, 1210403, 1210775, 1211162, 1211571, 1212010, 1212374, 1212735, 1213088, 1213500, 1213861, 1214219, 1214630, 1214997, 1215347, 1215742, 1216083, 1216442, 1216792, 1217163, 1217511, 1217838, 1218208]","[1209536, 1209935, 1210335, 1210735, 1211136, 1211535, 1211935, 1212336, 1212696, 1213088, 1213459, 1213820, 1214219, 1214592, 1214955, 1215313, 1215695, 1216040, 1216392, 1216792, 1217163, 1217485, 1217797, 1218159]",48,R,ITM,1.1,
4,600,trial,0,65,65,65,trial,"['S', 'S', 'S', 'S', 'S', 'S', 'S', 'S', 'C', 'C', 'C', 'C', 'C', 'C', 'C', 'C', 'C', 'C', 'C', 'C', 'C', 'C', 'C', 'C', 'C']","[1224053, 1224496, 1224823, 1225417, 1225981, 1226558, 1227103, 1227717, 1228332, 1228847, 1229388, 1229915, 1230519, 1230976, 1231081, 1231576, 1232091, 1232630, 1233110, 1233628, 1234173, 1234665, 1235198, 1235694, 1236185]","[1224122, 1224574, 1224913, 1225466, 1226045, 1226643, 1227225, 1227791, 1228417, 1228923, 1229450, 1230017, 1230580, 1231001, 1231101, 1231631, 1232167, 1232656, 1233162, 1233705, 1234267, 1234766, 1235283, 1235803, 1236290]","[1223713, 1224313, 1224913, 1225513, 1226114, 1226714, 1227314, 1227914, 1228357, 1228872, 1229414, 1229940, 1230544, 1231001, 1231601, 1232116, 1232656, 1233135, 1233653, 1234199, 1234691, 1235224, 1235720, 1236211]",48,R,ITM,1.1,
4,600,trial,0,66,66,66,trial,"['S', 'S', 'S', 'S', 'S', 'S', 'S', 'S', 'C', 'C', 'C', 'C', 'C', 'C', 'C', 'C', 'C', 'C', 'C', 'C', 'C', 'C', 'C', 'C']","[1241989, 1242246, 1242778, 1243392, 1243979, 1244564, 1245140, 1245764, 1246372, 1246877, 1247385, 1247929, 1248445, 1248953, 1249441, 1249971, 1250483, 1251003, 1251483, 1252030, 1252452, 1252978, 1253525, 1253942]","[1242035, 1242319, 1242860, 1243476, 1244009, 1244599, 1245191, 1245824, 1246447, 1246950, 1247471, 1248005, 1248529, 1249026, 1249550, 1250069, 1250580, 1251111, 1251632, 1252140, 1252561, 1253090, 1253612, 1254073]","[1241738, 1242337, 1242937, 1243537, 1244137, 1244737, 1245337, 1245937, 1246398, 1246903, 1247411, 1247954, 1248471, 1248978, 1249467, 1249996, 1250508, 1251030, 1251509, 1252057, 1252477, 1253004, 1253551, 1253967]",48,R,ITM,1.1,
4,400,trial,0,67,67,67,trial,"['S', 'S', 'S', 'S', 'S', 'S', 'S', 'S', 'C', 'C', 'C', 'C', 'C', 'C', 'C', 'C', 'C', 'C', 'C', 'C', 'C', 'C', 'C', 'C']","[1259850, 1260183, 1260516, 1260820, 1261084, 1261438, 1261812, 1262211, 1262605, 1262987, 1263326, 1263691, 1264050, 1264432, 1264765, 1265112, 1265419, 1265754, 1266057, 1266396, 1266694, 1267003, 1267292, 1267619]","[1259955, 1260203, 1260603, 1260915, 1261164, 1261515, 1261873, 1262298, 1262666, 1263035, 1263395, 1263767, 1264155, 1264489, 1264827, 1265170, 1265444, 1265795, 1266091, 1266421, 1266756, 1267056, 1267317, 1267645]","[1259537, 1259936, 1260337, 1260736, 1261136, 1261536, 1261936, 1262337, 1262630, 1263012, 1263352, 1263717, 1264075, 1264457, 1264791, 1265137, 1265444, 1265779, 1266083, 1266421, 1266720, 1267028, 1267317, 1267645]",48,R,ITM,1.1,
2,400,trial,0,68,68,68,trial,"['S', 'S', 'S', 'S', 'S', 'S', 'S', 'S', 'C', 'C', 'C', 'C', 'C', 'C', 'C', 'C', 'C', 'C', 'C', 'C', 'C', 'C', 'C', 'C']","[1273805, 1274090, 1274526, 1274923, 1275298, 1275673, 1276043, 1276425, 1276926, 1277255, 1277612, 1277896, 1278254, 1278589, 1278979, 1279353, 1279771, 1280211, 1280536, 1280919, 1281232, 1281557, 1281886, 1282203]","[1273856, 1274168, 1274584, 1274968, 1275328, 1275755, 1276094, 1276509, 1276998, 1277356, 1277665, 1277967, 1278332, 1278685, 1279037, 1279437, 1279811, 1280292, 1280628, 1280964, 1281325, 1281643, 1281992, 1282293]","[1273405, 1273805, 1274206, 1274605, 1275005, 1275405, 1275805, 1276205, 1276954, 1277283, 1277639, 1277924, 1278280, 1278616, 1279005, 1279380, 1279798, 1280238, 1280564, 1280946, 1281259, 1281585, 1281913, 1282231]",48,R,ITM,1.1,
5,400,trial,0,69,69,69,trial,"['S', 'S', 'S', 'S', 'S', 'S', 'S', 'S', 'C', 'C', 'C', 'C', 'C', 'C', 'C', 'C', 'C', 'C', 'C', 'C', 'C', 'C', 'C', 'C']","[1287853, 1288128, 1288467, 1288812, 1289268, 1289633, 1290029, 1290374, 1290744, 1291123, 1291483, 1291846, 1292216, 1292530, 1292949, 1293301, 1293670, 1294030, 1294357, 1294737, 1295074, 1295394, 1295720, 1296065]","[1287934, 1288217, 1288532, 1288888, 1289338, 1289712, 1290099, 1290450, 1290770, 1291170, 1291548, 1291918, 1292284, 1292611, 1293030, 1293386, 1293745, 1294110, 1294433, 1294806, 1295137, 1295463, 1295796, 1296137]","[1287684, 1288083, 1288483, 1288883, 1289283, 1289683, 1290083, 1290483, 1290770, 1291149, 1291508, 1291872, 1292242, 1292557, 1292975, 1293327, 1293696, 1294057, 1294384, 1294763, 1295099, 1295420, 1295746, 1296092]",48,R,ITM,1.1,
6,400,trial,0,70,70,70,trial,"['S', 'S', 'S', 'S', 'S', 'S', 'S', 'S', 'C', 'C', 'C', 'C', 'C', 'C', 'C', 'C', 'C', 'C', 'C', 'C', 'C', 'C', 'C', 'C']","[1301856, 1302247, 1302676, 1303068, 1303406, 1303815, 1304233, 1304632, 1305073, 1305432, 1305764, 1306160, 1306499, 1306858, 1307203, 1307542, 1307888, 1308254, 1308579, 1308916, 1309306, 1309588, 1309973, 1310333]","[1301925, 1302299, 1302764, 1303140, 1303486, 1303852, 1304312, 1304709, 1305148, 1305510, 1305842, 1306227, 1306537, 1306926, 1307260, 1307623, 1307995, 1308340, 1308645, 1309015, 1309374, 1309718, 1310048, 1310399]","[1301598, 1301998, 1302398, 1302798, 1303198, 1303599, 1303998, 1304398, 1305101, 1305458, 1305792, 1306186, 1306525, 1306886, 1307230, 1307570, 1307915, 1308280, 1308606, 1308943, 1309333, 1309615, 1310001, 1310361]",48,R,ITM,1.1,
5,600,trial,0,71,71,71,trial,"['S', 'S', 'S', 'S', 'S', 'S', 'S', 'S', 'C', 'C', 'C', 'C', 'C', 'C', 'C', 'C', 'C', 'C', 'C', 'C', 'C', 'C', 'C', 'C']","[1316314, 1316919, 1317219, 1317731, 1318344, 1318902, 1319484, 1320108, 1320710, 1321192, 1321693, 1322264, 1322767, 1323365, 1323865, 1324383, 1324895, 1325483, 1325962, 1326507, 1326977, 1327600, 1328129, 1328588]","[1316393, 1316993, 1317310, 1317835, 1318414, 1318995, 1319575, 1320194, 1320809, 1321276, 1321792, 1322322, 1322882, 1323429, 1323977, 1324461, 1324986, 1325549, 1326054, 1326572, 1327049, 1327663, 1328193, 1328662]","[1316067, 1316666, 1317266, 1317866, 1318466, 1319066, 1319666, 1320266, 1320735, 1321218, 1321718, 1322290, 1322792, 1323390, 1323890, 1324408, 1324921, 1325508, 1325988, 1326533, 1327002, 1327627, 1328154, 1328614]",48,R,ITM,1.1,
7,600,trial,0,72,72,72,trial,"['S', 'S', 'S', 'S', 'S', 'S', 'S', 'S', 'C', 'C', 'C', 'C', 'C', 'C', 'C', 'C', 'C', 'C', 'C', 'C', 'C', 'C', 'C', 'C']","[1334266, 1334689, 1334957, 1335601, 1336210, 1336824, 1337405, 1337989, 1338565, 1339090, 1339635, 1340118, 1340677, 1341198, 1341731, 1342201, 1342726, 1343201, 1343692, 1344175, 1344645, 1345124, 1345515, 1346033]","[1334321, 1334760, 1335128, 1335718, 1336313, 1336880, 1337483, 1338037, 1338619, 1339154, 1339711, 1340238, 1340746, 1341282, 1341784, 1342276, 1342789, 1343303, 1343791, 1344308, 1344751, 1345214, 1345650, 1346109]","[1333953, 1334552, 1335152, 1335752, 1336352, 1336952, 1337552, 1338152, 1338592, 1339117, 1339662, 1340144, 1340703, 1341225, 1341759, 1342228, 1342752, 1343227, 1343719, 1344202, 1344672, 1345150, 1345542, 1346061]",48,R,ITM,1.1,
5,600,trial,0,73,73,73,trial,"['S', 'S', 'S', 'S', 'S', 'S', 'S', 'S', 'C', 'C', 'C', 'C', 'C', 'C', 'C', 'C', 'C', 'C', 'C', 'C', 'C', 'C', 'C', 'C', 'C']","[1351902, 1352165, 1352631, 1353335, 1353892, 1354493, 1355078, 1355673, 1356306, 1356805, 1357345, 1357883, 1358380, 1358916, 1359407, 1359964, 1360478, 1361011, 1361501, 1361606, 1362025, 1362505, 1363025, 1363478, 1363996]","[1351979, 1352290, 1352731, 1353415, 1353967, 1354603, 1355163, 1355742, 1356345, 1356859, 1357422, 1357946, 1358435, 1358990, 1359506, 1360029, 1360563, 1361100, 1361526, 1361626, 1362079, 1362595, 1363081, 1363580, 1364043]","[1351662, 1352261, 1352861, 1353461, 1354061, 1354661, 1355261, 1355862, 1356332, 1356831, 1357372, 1357908, 1358405, 1358942, 1359432, 1359989, 1360504, 1361038, 1361526, 1362051, 1362531, 1363052, 1363505, 1364022]",48,R,ITM,1.1,
7,400,trial,0,74,74,74,trial,"['S', 'S', 'S', 'S', 'S', 'S', 'S', 'S', 'C', 'C', 'C', 'C', 'C', 'C', 'C', 'C', 'C', 'C', 'C', 'C', 'C', 'C', 'C', 'C']","[1369975, 1370280, 1370606, 1371024, 1371440, 1371754, 1372138, 1372441, 1372747, 1373069, 1373437, 1373838, 1374230, 1374586, 1374945, 1375336, 1375675, 1376035, 1376319, 1376670, 1376998, 1377333, 1377667, 1378012]","[1370072, 1370368, 1370698, 1371044, 1371502, 1371774, 1372158, 1372461, 1372811, 1373149, 1373535, 1373939, 1374309, 1374647, 1375047, 1375413, 1375765, 1376092, 1376401, 1376735, 1377081, 1377412, 1377744, 1378075]","[1369607, 1370005, 1370405, 1370805, 1371205, 1371606, 1372005, 1372405, 1372775, 1373095, 1373464, 1373864, 1374258, 1374613, 1374972, 1375364, 1375702, 1376062, 1376346, 1376698, 1377026, 1377359, 1377693, 1378038]",48,R,ITM,1.1,
6,600,trial,0,75,75,75,trial,"['S', 'S', 'S', 'S', 'S', 'S', 'S', 'S', 'C', 'C', 'C', 'C', 'C', 'C', 'C', 'C', 'C', 'C', 'C', 'C', 'C', 'C', 'C', 'C']","[1383791, 1384208, 1384593, 1385259, 1385868, 1386404, 1387077, 1387591, 1388160, 1388658, 1389120, 1389679, 1390192, 1390662, 1391240, 1391768, 1392299, 1392754, 1393259, 1393774, 1396107, 1396441, 1396813, 1397136]","[1383848, 1384281, 1384700, 1385389, 1385971, 1386557, 1387162, 1387611, 1388186, 1388685, 1389147, 1389759, 1390287, 1390689, 1391266, 1391795, 1392326, 1392842, 1393347, 1393801, 1396210, 1396538, 1396908, 1397215]","[1383524, 1384124, 1384724, 1385324, 1385924, 1386524, 1387124, 1387724, 1388186, 1388685, 1389147, 1389706, 1390220, 1390689, 1391266, 1391795, 1392326, 1392782, 1393287, 1393801, 1396133, 1396467, 1396840, 1397164]",48,R,ITM,1.1,
5,400,trial,0,76,76,76,trial,"['S', 'S', 'S', 'S', 'S', 'S', 'S', 'C', 'C', 'C', 'C', 'C', 'C', 'C', 'C', 'C', 'C', 'C', 'C', 'C', 'C', 'C', 'C']","[1403075, 1403468, 1403848, 1404268, 1404693, 1405068, 1405443, 1405836, 1406234, 1406596, 1406958, 1407342, 1407680, 1408067, 1408464, 1408792, 1409147, 1409480, 1409807, 1410139, 1410544, 1410835, 1411223]","[1403169, 1403570, 1403908, 1404347, 1404765, 1405140, 1405540, 1405929, 1406297, 1406686, 1407047, 1407420, 1407770, 1408153, 1408538, 1408856, 1409239, 1409570, 1409914, 1410237, 1410609, 1410953, 1411329]","[1402741, 1403141, 1403540, 1403940, 1404340, 1404740, 1405140, 1405540, 1405861, 1406260, 1406621, 1406984, 1407368, 1407707, 1408093, 1408491, 1408818, 1409173, 1409506, 1409832, 1410164, 1410570, 1410861, 1411249]",48,R,ITM,1.1,
6,400,trial,0,77,77,77,trial,"['S', 'S', 'S', 'S', 'S', 'S', 'S', 'S', 'S', 'C', 'C', 'C', 'C', 'C', 'C', 'C', 'C', 'C', 'C', 'C', 'C', 'C', 'C', 'C', 'C']","[1416954, 1417237, 1417539, 1417856, 1418207, 1418593, 1418941, 1419301, 1419700, 1420037, 1420379, 1420741, 1421071, 1421471, 1421778, 1422177, 1422500, 1422831, 1423178, 1423456, 1423810, 1424093, 1424431, 1424736, 1425037]","[1417038, 1417324, 1417604, 1417936, 1418285, 1418675, 1419016, 1419459, 1419803, 1420148, 1420481, 1420817, 1421161, 1421551, 1421888, 1422252, 1422601, 1422934, 1423237, 1423554, 1423886, 1424217, 1424540, 1424836, 1425132]","[1416719, 1417119, 1417520, 1417919, 1418319, 1418719, 1419119, 1419520, 1420063, 1420405, 1420768, 1421097, 1421498, 1421805, 1422203, 1422528, 1422858, 1423205, 1423483, 1423837, 1424120, 1424457, 1424763, 1425063]",48,R,ITM,1.1,
3,600,trial,0,78,78,78,trial,"['B', 'S', 'S', 'S', 'S', 'S', 'S', 'S', 'C', 'C', 'C', 'C', 'C', 'C', 'C', 'C', 'C', 'C', 'C', 'C', 'C', 'C', 'C', 'C']","[1430381, 1430754, 1431480, 1432145, 1432718, 1433307, 1433920, 1434449, 1435059, 1435588, 1436107, 1436625, 1437129, 1437688, 1438119, 1438576, 1439044, 1439600, 1440074, 1440478, 1440882, 1441312, 1441690, 1442097]","[1430573, 1430878, 1431592, 1432244, 1432803, 1433405, 1434019, 1434583, 1435200, 1435727, 1436225, 1436731, 1437223, 1437762, 1438199, 1438675, 1439158, 1439679, 1440147, 1440521, 1440908, 1441370, 1441753, 1442160]","[1430393, 1430992, 1431592, 1432193, 1432793, 1433393, 1433992, 1434592, 1435084, 1435614, 1436133, 1436651, 1437155, 1437714, 1438145, 1438602, 1439070, 1439626, 1440100, 1440503, 1440908, 1441338, 1441716, 1442122]",48,R,ITM,1.1,
5,600,trial,0,79,79,79,trial,"['S', 'S', 'S', 'S', 'S', 'S', 'S', 'S', 'S', 'C', 'C', 'C', 'C', 'C', 'C', 'C', 'C', 'C', 'C', 'C', 'C', 'C', 'C', 'C', 'C']","[1447964, 1448249, 1448771, 1449461, 1450126, 1450646, 1451157, 1451665, 1452186, 1452676, 1453205, 1453688, 1454159, 1454639, 1455153, 1455596, 1456076, 1456500, 1456988, 1457458, 1457895, 1458350, 1458722, 1459209, 1459593]","[1448059, 1448323, 1448853, 1449529, 1450146, 1450686, 1451243, 1451710, 1452258, 1452748, 1453236, 1453789, 1454245, 1454702, 1455217, 1455687, 1456139, 1456574, 1457058, 1457501, 1457921, 1458427, 1458812, 1459267, 1459653]","[1447785, 1448384, 1448984, 1449584, 1450184, 1450784, 1451384, 1451984, 1452701, 1453232, 1453715, 1454186, 1454664, 1455178, 1455622, 1456102, 1456526, 1457013, 1457484, 1457921, 1458375, 1458749, 1459234, 1459619]",48,R,ITM,1.1,
6,600,trial,0,80,80,80,trial,"['S', 'S', 'S', 'S', 'S', 'S', 'S', 'C', 'C', 'C', 'C', 'C', 'C', 'C', 'C', 'C', 'C', 'C', 'C', 'C', 'C', 'C', 'C']","[1465420, 1466073, 1466665, 1467291, 1467849, 1468397, 1468969, 1469742, 1470170, 1470624, 1471096, 1471571, 1471997, 1472434, 1472883, 1473255, 1473752, 1474146, 1474523, 1474960, 1475383, 1475771, 1476115]","[1465504, 1466167, 1466737, 1467363, 1467923, 1468473, 1469049, 1469805, 1470248, 1470692, 1471167, 1471646, 1472045, 1472522, 1472910, 1473358, 1473778, 1474199, 1474635, 1475065, 1475466, 1475842, 1476237]","[1465099, 1465699, 1466299, 1466899, 1467499, 1468099, 1468699, 1469299, 1469768, 1470196, 1470651, 1471124, 1471599, 1472024, 1472460, 1472910, 1473282, 1473778, 1474172, 1474549, 1474987, 1475410, 1475798, 1476142]",48,R,ITM,1.1,
2,400,trial,0,81,81,81,trial,"['S', 'S', 'S', 'S', 'S', 'S', 'S', 'C', 'C', 'C', 'C', 'C', 'C', 'C', 'C', 'C', 'C', 'C', 'C', 'C', 'C', 'C', 'C']","[1482045, 1482422, 1482755, 1483192, 1483609, 1484009, 1484391, 1484803, 1485140, 1485532, 1485878, 1486246, 1486565, 1486889, 1487221, 1487544, 1487921, 1488240, 1488582, 1488921, 1489275, 1489610, 1489987]","[1482138, 1482507, 1482872, 1483231, 1483707, 1484109, 1484437, 1484859, 1485205, 1485573, 1485905, 1486274, 1486601, 1486938, 1487273, 1487616, 1487948, 1488308, 1488636, 1488970, 1489323, 1489670, 1490015]","[1481725, 1482125, 1482524, 1482926, 1483325, 1483725, 1484126, 1484525, 1484830, 1485168, 1485559, 1485905, 1486273, 1486592, 1486917, 1487248, 1487571, 1487948, 1488268, 1488609, 1488948, 1489302, 1489638, 1490015]",48,R,ITM,1.1,
5,600,trial,0,82,82,82,trial,"['S', 'S', 'S', 'S', 'S', 'S', 'S', 'S', 'S', 'C', 'C', 'C', 'C', 'C', 'C', 'C', 'C', 'C', 'C', 'C', 'C', 'C', 'C', 'C', 'C']","[1495482, 1495895, 1496404, 1497038, 1497591, 1498259, 1498830, 1499214, 1499682, 1500197, 1500735, 1501259, 1501785, 1502344, 1502976, 1503476, 1503934, 1504437, 1504912, 1505428, 1505941, 1506408, 1506922, 1507431, 1508006]","[1495691, 1495990, 1496548, 1497143, 1497687, 1498362, 1498946, 1499351, 1499802, 1500321, 1500878, 1501393, 1501936, 1502451, 1503058, 1503569, 1504049, 1504513, 1505058, 1505536, 1506058, 1506529, 1507066, 1507545, 1508091]","[1495432, 1496031, 1496631, 1497231, 1497831, 1498431, 1499031, 1499631, 1500223, 1500761, 1501285, 1501810, 1502369, 1503001, 1503502, 1503961, 1504462, 1504937, 1505454, 1505967, 1506434, 1506948, 1507458, 1508032]",48,R,ITM,1.1,
4,400,trial,0,83,83,83,trial,"['B', 'S', 'S', 'S', 'S', 'S', 'S', 'S', 'C', 'C', 'C', 'C', 'C', 'C', 'C', 'C', 'C', 'C', 'C', 'C', 'C', 'C', 'C', 'C', 'C']","[1513438, 1513809, 1514167, 1514509, 1514906, 1515339, 1515727, 1516140, 1516562, 1516918, 1517274, 1517606, 1517712, 1518006, 1518388, 1518722, 1519141, 1519423, 1519766, 1520104, 1520418, 1520743, 1521036, 1521356, 1521655]","[1513610, 1513926, 1514253, 1514631, 1514995, 1515451, 1515819, 1516213, 1516658, 1517001, 1517350, 1517632, 1517732, 1518086, 1518467, 1518818, 1519204, 1519508, 1519858, 1520187, 1520491, 1520797, 1521116, 1521427, 1521744]","[1513449, 1513849, 1514249, 1514649, 1515049, 1515449, 1515849, 1516250, 1516588, 1516944, 1517299, 1517632, 1518031, 1518413, 1518747, 1519167, 1519449, 1519792, 1520130, 1520444, 1520769, 1521061, 1521383, 1521681]",48,R,ITM,1.1,
2,600,trial,0,84,84,84,trial,"['S', 'S', 'S', 'S', 'S', 'S', 'S', 'C', 'C', 'C', 'C', 'C', 'C', 'C', 'C', 'C', 'C', 'C', 'C', 'C', 'C', 'C', 'C']","[1527387, 1528075, 1528729, 1529274, 1529824, 1530480, 1531052, 1531572, 1532095, 1532614, 1533089, 1533568, 1533970, 1534449, 1534924, 1535362, 1535855, 1536280, 1536750, 1537173, 1537539, 1537884, 1538316]","[1527451, 1528160, 1528796, 1529376, 1529934, 1530571, 1531113, 1531667, 1532176, 1532722, 1533165, 1533666, 1534065, 1534491, 1534999, 1535474, 1535920, 1536391, 1536816, 1537280, 1537634, 1537996, 1538430]","[1527024, 1527624, 1528223, 1528824, 1529424, 1530024, 1530625, 1531225, 1531599, 1532122, 1532641, 1533117, 1533595, 1533998, 1534476, 1534952, 1535389, 1535882, 1536308, 1536777, 1537201, 1537565, 1537911, 1538342]",48,R,ITM,1.1,
3,400,trial,0,85,85,85,trial,"['S', 'S', 'S', 'S', 'S', 'S', 'S', 'S', 'S', 'C', 'C', 'C', 'C', 'C', 'C', 'C', 'C', 'C', 'C', 'C', 'C', 'C', 'C', 'C', 'C']","[1543955, 1544219, 1544506, 1544827, 1545208, 1545595, 1546000, 1546425, 1546772, 1547125, 1547460, 1547791, 1548127, 1548521, 1548823, 1549212, 1549551, 1549949, 1550277, 1550640, 1550954, 1551273, 1551622, 1551977, 1552300]","[1543993, 1544283, 1544599, 1544939, 1545302, 1545713, 1546109, 1546511, 1546895, 1547222, 1547560, 1547887, 1548252, 1548622, 1548928, 1549324, 1549676, 1550052, 1550377, 1550737, 1551053, 1551385, 1551759, 1552074, 1552399]","[1543739, 1544139, 1544540, 1544939, 1545339, 1545739, 1546139, 1546540, 1547151, 1547486, 1547816, 1548152, 1548547, 1548849, 1549238, 1549577, 1549975, 1550303, 1550665, 1550980, 1551299, 1551647, 1552003, 1552325]",48,R,ITM,1.1,
5,400,trial,0,86,86,86,trial,"['S', 'S', 'S', 'S', 'S', 'S', 'S', 'S', 'C', 'C', 'C', 'C', 'C', 'C', 'C', 'C', 'C', 'C', 'C', 'C', 'C', 'C', 'C', 'C']","[1557974, 1558335, 1558604, 1558910, 1559261, 1559667, 1560091, 1560446, 1560818, 1561145, 1561533, 1561864, 1562202, 1562519, 1562887, 1563214, 1563574, 1563895, 1564212, 1564572, 1564873, 1565200, 1565520, 1565843]","[1558077, 1558415, 1558692, 1559007, 1559341, 1559775, 1560148, 1560510, 1560905, 1561265, 1561612, 1561937, 1562272, 1562604, 1562985, 1563301, 1563653, 1563962, 1564322, 1564634, 1564979, 1565250, 1565630, 1565922]","[1557730, 1558130, 1558531, 1558930, 1559330, 1559730, 1560130, 1560530, 1560845, 1561170, 1561559, 1561889, 1562227, 1562545, 1562913, 1563241, 1563599, 1563921, 1564237, 1564598, 1564900, 1565225, 1565546, 1565869]",48,R,ITM,1.1,
5,400,trial,0,87,87,87,trial,"['B', 'S', 'S', 'S', 'S', 'S', 'S', 'S', 'C', 'C', 'C', 'C', 'C', 'C', 'C', 'C', 'C', 'C', 'C', 'C', 'C', 'C', 'C', 'C']","[1571491, 1571856, 1572219, 1572649, 1573040, 1573426, 1573772, 1574159, 1574557, 1574901, 1575271, 1575610, 1576008, 1576331, 1576723, 1577058, 1577428, 1577746, 1578067, 1578415, 1578843, 1579132, 1579521, 1579855]","[1571635, 1571956, 1572292, 1572721, 1573117, 1573465, 1573829, 1574221, 1574601, 1574961, 1575342, 1575686, 1576082, 1576394, 1576770, 1577123, 1577475, 1577796, 1578143, 1578505, 1578897, 1579218, 1579547, 1579923]","[1571504, 1571902, 1572302, 1572702, 1573102, 1573502, 1573902, 1574302, 1574583, 1574927, 1575297, 1575635, 1576034, 1576357, 1576749, 1577083, 1577455, 1577772, 1578093, 1578441, 1578868, 1579159, 1579547, 1579881]",48,R,ITM,1.1,
4,600,trial,0,88,88,88,trial,"['S', 'S', 'S', 'S', 'S', 'S', 'S', 'C', 'C', 'C', 'C', 'C', 'C', 'C', 'C', 'C', 'C', 'C', 'C', 'C', 'C', 'C', 'C']","[1585494, 1586107, 1586670, 1587385, 1588023, 1588673, 1589242, 1589873, 1590368, 1590863, 1591351, 1591857, 1592307, 1592807, 1593224, 1593714, 1594202, 1594680, 1595121, 1595504, 1595972, 1596444, 1596943]","[1585559, 1586154, 1586750, 1587458, 1588072, 1588734, 1589318, 1589924, 1590437, 1590957, 1591424, 1591929, 1592416, 1592885, 1593296, 1593819, 1594285, 1594723, 1595207, 1595603, 1596030, 1596540, 1596995]","[1585205, 1585804, 1586404, 1587004, 1587604, 1588204, 1588804, 1589404, 1589899, 1590393, 1590889, 1591376, 1591882, 1592334, 1592833, 1593249, 1593740, 1594227, 1594705, 1595147, 1595531, 1595998, 1596470, 1596968]",48,R,ITM,1.1,
3,400,trial,0,89,89,89,trial,"['S', 'S', 'S', 'S', 'S', 'S', 'S', 'C', 'C', 'C', 'C', 'C', 'C', 'C', 'C', 'C', 'C', 'C', 'C', 'C', 'C', 'C', 'C']","[1603043, 1603409, 1603777, 1604152, 1604684, 1605028, 1605389, 1605778, 1606134, 1606536, 1606910, 1607282, 1607641, 1607962, 1608342, 1608711, 1609004, 1609396, 1609748, 1610091, 1610455, 1610808, 1611243]","[1603134, 1603499, 1603873, 1604258, 1604768, 1605107, 1605485, 1605891, 1606228, 1606627, 1607012, 1607385, 1607734, 1608055, 1608438, 1608770, 1609083, 1609478, 1609822, 1610155, 1610534, 1610863, 1611308]","[1602671, 1603072, 1603471, 1603871, 1604272, 1604671, 1605071, 1605471, 1605804, 1606160, 1606561, 1606935, 1607308, 1607666, 1607988, 1608368, 1608736, 1609029, 1609421, 1609774, 1610117, 1610480, 1610833, 1611269]",48,R,ITM,1.1,
7,600,trial,0,90,90,90,trial,"['S', 'S', 'S', 'S', 'S', 'S', 'S', 'S', 'C', 'C', 'C', 'C', 'C', 'C', 'C', 'C', 'C', 'C', 'C', 'C', 'C', 'C', 'C', 'C']","[1616888, 1617233, 1617673, 1618291, 1618928, 1619489, 1620086, 1620655, 1621296, 1621745, 1622269, 1622877, 1623299, 1623744, 1624196, 1624700, 1625198, 1625644, 1626031, 1626483, 1626986, 1627463, 1627834, 1628254]","[1616952, 1617310, 1617806, 1618383, 1618987, 1619576, 1620189, 1620774, 1621364, 1621854, 1622340, 1622945, 1623413, 1623836, 1624286, 1624798, 1625290, 1625718, 1626157, 1626574, 1627090, 1627591, 1627966, 1628363]","[1616659, 1617258, 1617858, 1618458, 1619058, 1619658, 1620258, 1620858, 1621322, 1621772, 1622296, 1622903, 1623326, 1623772, 1624222, 1624727, 1625226, 1625670, 1626058, 1626510, 1627013, 1627490, 1627862, 1628281]",48,R,ITM,1.1,
6,400,trial,0,91,91,91,trial,"['S', 'S', 'S', 'S', 'S', 'S', 'S', 'S', 'S', 'C', 'C', 'C', 'C', 'C', 'C', 'C', 'C', 'C', 'C', 'C', 'C', 'C', 'C', 'C', 'C']","[1634299, 1634614, 1634921, 1635192, 1635533, 1635923, 1636307, 1636660, 1636987, 1637331, 1637704, 1638010, 1638385, 1638727, 1639093, 1639420, 1639758, 1640097, 1640422, 1640767, 1641104, 1641466, 1641754, 1642090, 1642432]","[1634392, 1634714, 1634988, 1635291, 1635649, 1636020, 1636405, 1636760, 1637102, 1637430, 1637792, 1638132, 1638480, 1638822, 1639183, 1639533, 1639840, 1640184, 1640508, 1640819, 1641183, 1641522, 1641859, 1642176, 1642498]","[1634036, 1634436, 1634835, 1635235, 1635635, 1636035, 1636435, 1636835, 1637359, 1637732, 1638037, 1638413, 1638755, 1639120, 1639447, 1639785, 1640125, 1640450, 1640794, 1641132, 1641494, 1641781, 1642117, 1642459]",48,R,ITM,1.1,
4,400,trial,0,92,92,92,trial,"['S', 'S', 'S', 'S', 'S', 'S', 'S', 'S', 'C', 'C', 'C', 'C', 'C', 'C', 'C', 'C', 'C', 'C', 'C', 'C', 'C', 'C', 'C', 'C', 'C']","[1648014, 1648335, 1648846, 1649222, 1649602, 1649949, 1650310, 1650642, 1650976, 1651323, 1651429, 1651703, 1652055, 1652423, 1652742, 1653065, 1653447, 1653792, 1654148, 1654677, 1655038, 1655336, 1655669, 1656074, 1656363]","[1648081, 1648355, 1648942, 1649306, 1649682, 1650064, 1650413, 1650729, 1651082, 1651349, 1651449, 1651756, 1652080, 1652450, 1652767, 1653092, 1653474, 1653819, 1654237, 1654751, 1655098, 1655419, 1655775, 1656151, 1656475]","[1647812, 1648212, 1648612, 1649012, 1649413, 1649812, 1650212, 1650612, 1651002, 1651349, 1651729, 1652080, 1652450, 1652767, 1653092, 1653473, 1653818, 1654173, 1654703, 1655064, 1655363, 1655695, 1656099, 1656388]",48,R,ITM,1.1,
6,400,trial,0,93,93,93,trial,"['S', 'S', 'S', 'S', 'S', 'S', 'S', 'S', 'S', 'C', 'C', 'C', 'C', 'C', 'C', 'C', 'C', 'C', 'C', 'C', 'C', 'C', 'C', 'C', 'C']","[1662010, 1662317, 1662633, 1662986, 1663311, 1663711, 1664088, 1664440, 1664890, 1665264, 1665592, 1665981, 1666380, 1666690, 1667076, 1667400, 1667815, 1668088, 1668408, 1668705, 1669024, 1669358, 1669706, 1670008, 1670285]","[1662068, 1662402, 1662709, 1663054, 1663419, 1663799, 1664204, 1664561, 1665004, 1665371, 1665718, 1666084, 1666469, 1666793, 1667180, 1667483, 1667887, 1668183, 1668492, 1668798, 1669110, 1669385, 1669776, 1670112, 1670375]","[1661870, 1662268, 1662668, 1663069, 1663468, 1663868, 1664268, 1664668, 1665291, 1665618, 1666009, 1666407, 1666716, 1667102, 1667427, 1667842, 1668115, 1668434, 1668731, 1669052, 1669385, 1669733, 1670035, 1670312]",48,R,ITM,1.1,
7,600,trial,0,94,94,94,trial,"['S', 'S', 'S', 'S', 'S', 'S', 'S', 'C', 'C', 'C', 'C', 'C', 'C', 'C', 'C', 'C', 'C', 'C', 'C', 'C', 'C', 'C', 'C']","[1676010, 1676682, 1677372, 1677946, 1678597, 1679199, 1679716, 1680347, 1680824, 1681360, 1681892, 1682392, 1682918, 1683400, 1683942, 1684427, 1684934, 1685380, 1685793, 1686243, 1686712, 1687141, 1687577]","[1676097, 1676809, 1677467, 1678031, 1678655, 1679297, 1679839, 1680420, 1680905, 1681435, 1681973, 1682491, 1682996, 1683493, 1684022, 1684537, 1685029, 1685453, 1685893, 1686325, 1686823, 1687223, 1687646]","[1675754, 1676353, 1676953, 1677553, 1678153, 1678753, 1679353, 1679953, 1680373, 1680851, 1681388, 1681920, 1682418, 1682945, 1683428, 1683969, 1684454, 1684962, 1685406, 1685820, 1686270, 1686738, 1687168, 1687605]",48,R,ITM,1.1,
3,600,trial,0,95,95,95,trial,"['S', 'S', 'S', 'S', 'S', 'S', 'S', 'C', 'C', 'C', 'C', 'C', 'C', 'C', 'C', 'C', 'C', 'C', 'C', 'C', 'C', 'C', 'C']","[1693623, 1694333, 1694959, 1695564, 1696126, 1696747, 1697360, 1697992, 1698506, 1699013, 1699538, 1700023, 1700584, 1701101, 1701646, 1702172, 1702678, 1703175, 1703665, 1704130, 1704572, 1705055, 1705537]","[1693680, 1694431, 1695019, 1695603, 1696176, 1696787, 1697411, 1698046, 1698563, 1699063, 1699585, 1700111, 1700645, 1701139, 1701708, 1702215, 1702739, 1703231, 1703707, 1704165, 1704629, 1705101, 1705566]","[1693281, 1693881, 1694481, 1695081, 1695681, 1696281, 1696881, 1697481, 1698018, 1698532, 1699039, 1699564, 1700048, 1700610, 1701127, 1701671, 1702198, 1702704, 1703200, 1703691, 1704156, 1704598, 1705080, 1705563]",48,R,ITM,1.1,
2,400,trial,0,96,96,96,trial,"['S', 'S', 'S', 'S', 'S', 'S', 'S', 'C', 'C', 'C', 'C', 'C', 'C', 'C', 'C', 'C', 'C', 'C', 'C', 'C', 'C', 'C', 'C']","[1711560, 1711959, 1712340, 1712739, 1713160, 1713555, 1713987, 1714325, 1714752, 1715155, 1715522, 1715929, 1716265, 1716659, 1717021, 1717381, 1717722, 1718108, 1718487, 1718790, 1719149, 1719497, 1719848]","[1711599, 1712026, 1712416, 1712821, 1713246, 1713660, 1714072, 1714429, 1714806, 1715183, 1715591, 1715986, 1716358, 1716726, 1717078, 1717445, 1717810, 1718162, 1718560, 1718853, 1719236, 1719574, 1719914]","[1711260, 1711660, 1712059, 1712459, 1712860, 1713260, 1713660, 1714060, 1714353, 1714780, 1715183, 1715550, 1715955, 1716293, 1716685, 1717048, 1717407, 1717749, 1718135, 1718513, 1718817, 1719176, 1719525, 1719875]",48,R,ITM,1.1,
4,600,trial,0,97,97,97,trial,"['S', 'S', 'S', 'S', 'S', 'S', 'S', 'C', 'C', 'C', 'C', 'C', 'C', 'C', 'C', 'C', 'C', 'C', 'C', 'C', 'C', 'C', 'C']","[1725888, 1726457, 1727193, 1727844, 1728458, 1729104, 1729687, 1730308, 1730877, 1731406, 1731930, 1732496, 1733009, 1733515, 1734031, 1734529, 1735033, 1735491, 1735987, 1736477, 1736922, 1737407, 1737864]","[1725962, 1726538, 1727269, 1727907, 1728503, 1729146, 1729763, 1730362, 1730984, 1731448, 1731991, 1732541, 1733065, 1733568, 1734095, 1734603, 1735076, 1735555, 1736034, 1736517, 1736973, 1737446, 1737932]","[1725586, 1726185, 1726785, 1727385, 1727985, 1728585, 1729185, 1729785, 1730333, 1730903, 1731432, 1731955, 1732523, 1733035, 1733540, 1734056, 1734554, 1735059, 1735517, 1736012, 1736503, 1736947, 1737433, 1737890]",48,R,ITM,1.1,
7,400,trial,0,98,98,98,trial,"['S', 'S', 'S', 'S', 'S', 'S', 'S', 'S', 'C', 'C', 'C', 'C', 'C', 'C', 'C', 'C', 'C', 'C', 'C', 'C', 'C', 'C', 'C', 'C']","[1743661, 1744063, 1744435, 1744829, 1745218, 1745634, 1746031, 1746445, 1746846, 1747237, 1747575, 1747941, 1748333, 1748748, 1749150, 1749534, 1749885, 1750236, 1750649, 1751034, 1751394, 1751785, 1752127, 1752512]","[1743727, 1744135, 1744508, 1744920, 1745300, 1745716, 1746142, 1746538, 1746933, 1747343, 1747664, 1748046, 1748451, 1748829, 1749240, 1749587, 1749971, 1750336, 1750733, 1751127, 1751493, 1751884, 1752251, 1752633]","[1743416, 1743815, 1744216, 1744615, 1745015, 1745416, 1745816, 1746216, 1746873, 1747265, 1747602, 1747968, 1748360, 1748775, 1749177, 1749562, 1749912, 1750263, 1750676, 1751061, 1751420, 1751812, 1752154, 1752540]",48,R,ITM,1.1,
7,400,trial,0,99,99,99,trial,"['S', 'S', 'S', 'S', 'S', 'S', 'S', 'C', 'C', 'C', 'C', 'C', 'C', 'C', 'C', 'C', 'C', 'C', 'C', 'C', 'C', 'C', 'C']","[1758579, 1758865, 1759191, 1759614, 1760000, 1760417, 1760817, 1761186, 1761556, 1761939, 1762298, 1762669, 1763025, 1763415, 1763787, 1764148, 1764486, 1764823, 1765164, 1765532, 1765891, 1766218, 1766563]","[1758672, 1758956, 1759306, 1759676, 1760096, 1760478, 1760909, 1761272, 1761632, 1762021, 1762384, 1762762, 1763109, 1763482, 1763854, 1764215, 1764558, 1764904, 1765245, 1765595, 1765948, 1766309, 1766650]","[1758129, 1758527, 1758927, 1759327, 1759727, 1760128, 1760527, 1760927, 1761214, 1761583, 1761967, 1762325, 1762697, 1763052, 1763441, 1763815, 1764175, 1764512, 1764849, 1765191, 1765559, 1765917, 1766246, 1766590]",48,R,ITM,1.1,
2,600,trial,0,100,100,100,trial,"['S', 'S', 'S', 'S', 'S', 'S', 'S', 'S', 'C', 'C', 'C', 'C', 'C', 'C', 'C', 'C', 'C', 'C', 'C', 'C', 'C', 'C', 'C', 'C']","[1772216, 1772521, 1773277, 1773917, 1774504, 1775110, 1775715, 1776273, 1776854, 1777399, 1777951, 1778481, 1779011, 1779540, 1780041, 1780562, 1781054, 1781533, 1782012, 1782493, 1782944, 1783420, 1783889, 1784401]","[1772236, 1772612, 1773364, 1774000, 1774576, 1775130, 1775735, 1776293, 1776881, 1777458, 1777999, 1778516, 1779047, 1779568, 1780100, 1780614, 1781102, 1781581, 1782056, 1782537, 1782998, 1783467, 1783955, 1784458]","[1772199, 1772800, 1773400, 1774000, 1774600, 1775199, 1775799, 1776399, 1776881, 1777427, 1777979, 1778507, 1779038, 1779567, 1780068, 1780590, 1781081, 1781561, 1782039, 1782519, 1782972, 1783448, 1783917, 1784429]",48,R,ITM,1.1,
6,600,trial,0,101,101,101,trial,"['B', 'S', 'S', 'S', 'S', 'S', 'S', 'S', 'C', 'C', 'C', 'C', 'C', 'C', 'C', 'C', 'C', 'C', 'C', 'C', 'C', 'C', 'C', 'C']","[1789886, 1790338, 1790956, 1791559, 1792186, 1792787, 1793367, 1793945, 1794561, 1795069, 1795607, 1796143, 1796683, 1797223, 1797742, 1798266, 1798801, 1799286, 1799855, 1800345, 1800867, 1801375, 1801902, 1802427]","[1790125, 1790433, 1791026, 1791638, 1792271, 1792857, 1793387, 1794018, 1794640, 1795129, 1795688, 1796201, 1796751, 1797285, 1797807, 1798329, 1798864, 1799351, 1799911, 1800417, 1800928, 1801448, 1801978, 1802480]","[1789899, 1790498, 1791098, 1791698, 1792299, 1792899, 1793499, 1794099, 1794587, 1795097, 1795635, 1796169, 1796710, 1797250, 1797769, 1798293, 1798829, 1799313, 1799881, 1800372, 1800894, 1801403, 1801928, 1802454]",48,R,ITM,1.1,
6,600,trial,0,102,102,102,trial,"['B', 'S', 'S', 'S', 'S', 'S', 'S', 'S', 'C', 'C', 'C', 'C', 'C', 'C', 'C', 'C', 'C', 'C', 'C', 'C', 'C', 'C', 'C', 'C']","[1808047, 1808513, 1809047, 1809744, 1810354, 1810953, 1811540, 1812125, 1812696, 1813206, 1813739, 1814254, 1814854, 1815352, 1815926, 1816359, 1816909, 1817381, 1817871, 1818385, 1818921, 1819446, 1819866, 1820362]","[1808348, 1808604, 1809138, 1809795, 1810415, 1811022, 1811622, 1812196, 1812767, 1813275, 1813811, 1814326, 1814907, 1815421, 1815967, 1816466, 1816937, 1817433, 1817943, 1818454, 1819001, 1819495, 1819972, 1820433]","[1808060, 1808659, 1809259, 1809859, 1810459, 1811059, 1811659, 1812259, 1812723, 1813232, 1813766, 1814282, 1814881, 1815378, 1815953, 1816387, 1816937, 1817408, 1817897, 1818412, 1818948, 1819473, 1819893, 1820389]",48,R,ITM,1.1,
5,600,trial,0,103,103,103,trial,"['S', 'S', 'S', 'S', 'S', 'S', 'S', 'S', 'C', 'C', 'C', 'C', 'C', 'C', 'C', 'C', 'C', 'C', 'C', 'C', 'C', 'C', 'C', 'C']","[1826365, 1826764, 1827179, 1827796, 1828420, 1828944, 1829557, 1830152, 1830762, 1831274, 1831811, 1832390, 1832954, 1833539, 1834033, 1834554, 1835060, 1835595, 1836144, 1836639, 1837170, 1837671, 1838228, 1838710]","[1826421, 1826860, 1827295, 1827878, 1828440, 1829017, 1829639, 1830232, 1830821, 1831341, 1831869, 1832444, 1833023, 1833579, 1834107, 1834624, 1835139, 1835672, 1836222, 1836705, 1837248, 1837734, 1838302, 1838746]","[1826127, 1826726, 1827326, 1827927, 1828527, 1829127, 1829727, 1830327, 1830788, 1831300, 1831836, 1832416, 1832980, 1833565, 1834058, 1834579, 1835085, 1835622, 1836171, 1836664, 1837196, 1837697, 1838254, 1838737]",48,R,ITM,1.1,
6,400,trial,0,104,104,104,trial,"['S', 'S', 'S', 'S', 'S', 'S', 'S', 'S', 'C', 'C', 'C', 'C', 'C', 'C', 'C', 'C', 'C', 'C', 'C', 'C', 'C', 'C', 'C', 'C']","[1844383, 1844770, 1845079, 1845509, 1845780, 1846095, 1846420, 1846768, 1847150, 1847478, 1847868, 1848220, 1848609, 1848932, 1849272, 1849629, 1849953, 1850291, 1850620, 1850974, 1851323, 1851618, 1851968, 1852258]","[1844478, 1844843, 1845153, 1845564, 1845800, 1846116, 1846474, 1846788, 1847203, 1847548, 1847921, 1848248, 1848636, 1848960, 1849298, 1849686, 1849979, 1850332, 1850648, 1851032, 1851351, 1851644, 1851995, 1852318]","[1844092, 1844491, 1844891, 1845292, 1845691, 1846091, 1846492, 1846891, 1847177, 1847504, 1847895, 1848248, 1848636, 1848960, 1849298, 1849657, 1849979, 1850317, 1850648, 1851001, 1851351, 1851644, 1851995, 1852285]",48,R,ITM,1.1,
2,400,trial,0,105,105,105,trial,"['S', 'S', 'S', 'S', 'S', 'S', 'S', 'S', 'C', 'C', 'C', 'C', 'C', 'C', 'C', 'C', 'C', 'C', 'C', 'C', 'C', 'C', 'C', 'C']","[1858260, 1858630, 1859008, 1859400, 1859805, 1860199, 1860594, 1860953, 1861275, 1861632, 1861933, 1862310, 1862643, 1862995, 1863369, 1863675, 1864019, 1864360, 1864708, 1865038, 1865402, 1865720, 1866046, 1866377]","[1858357, 1858698, 1859079, 1859495, 1859928, 1860219, 1860614, 1860973, 1861358, 1861695, 1862034, 1862386, 1862727, 1863048, 1863396, 1863781, 1864079, 1864388, 1864785, 1865146, 1865430, 1865806, 1866136, 1866417]","[1857926, 1858324, 1858724, 1859125, 1859525, 1859926, 1860325, 1860725, 1861302, 1861659, 1861960, 1862338, 1862671, 1863022, 1863396, 1863703, 1864046, 1864388, 1864735, 1865065, 1865430, 1865747, 1866074, 1866404]",48,R,ITM,1.1,
5,600,trial,0,106,106,106,trial,"['B', 'S', 'S', 'S', 'S', 'S', 'S', 'S', 'C', 'C', 'C', 'C', 'C', 'C', 'C', 'C', 'C', 'C', 'C', 'C', 'C', 'C', 'C', 'C', 'C']","[1871973, 1872429, 1872984, 1873888, 1874348, 1874882, 1875390, 1876022, 1876573, 1877055, 1877569, 1878060, 1878979, 1879395, 1879785, 1880261, 1880649, 1881117, 1881551, 1881903, 1882360, 1882721, 1882826, 1883228, 1883594]","[1872210, 1872484, 1873004, 1873908, 1874402, 1874957, 1875451, 1876073, 1876667, 1877081, 1877610, 1878118, 1879055, 1879491, 1879909, 1880374, 1880777, 1881238, 1881688, 1882072, 1882496, 1882746, 1882869, 1883313, 1883716]","[1871985, 1872584, 1873184, 1873784, 1874384, 1874984, 1875585, 1876185, 1876598, 1877081, 1877595, 1878085, 1879005, 1879420, 1879811, 1880287, 1880675, 1881143, 1881578, 1881928, 1882387, 1882746, 1883253, 1883621]",48,R,ITM,1.1,
3,600,trial,0,107,107,107,trial,"['S', 'S', 'S', 'S', 'S', 'S', 'S', 'C', 'C', 'C', 'C', 'C', 'C', 'C', 'C', 'C', 'C', 'C', 'C', 'C', 'C', 'C', 'C']","[1889518, 1890077, 1890856, 1891490, 1892090, 1892685, 1893264, 1893869, 1894372, 1894895, 1895430, 1895914, 1896430, 1896930, 1897444, 1897985, 1898474, 1898973, 1899498, 1900027, 1900504, 1901020, 1901500]","[1889595, 1890198, 1890970, 1891574, 1892160, 1892776, 1893338, 1893960, 1894420, 1894957, 1895504, 1896012, 1896506, 1896991, 1897501, 1898034, 1898500, 1898998, 1899524, 1900091, 1900561, 1901085, 1901558]","[1889219, 1889818, 1890418, 1891018, 1891618, 1892218, 1892818, 1893419, 1893895, 1894397, 1894921, 1895455, 1895940, 1896456, 1896955, 1897469, 1898010, 1898500, 1898998, 1899524, 1900053, 1900529, 1901045, 1901526]",48,R,ITM,1.1,
7,600,trial,0,108,108,108,trial,"['S', 'S', 'S', 'S', 'S', 'S', 'S', 'C', 'C', 'C', 'C', 'C', 'C', 'C', 'C', 'C', 'C', 'C', 'C', 'C', 'C', 'C', 'C']","[1907720, 1908336, 1908957, 1909622, 1910205, 1910784, 1911351, 1911952, 1912476, 1913008, 1913530, 1914008, 1914550, 1915074, 1915600, 1916052, 1916579, 1917064, 1917587, 1918046, 1918508, 1919017, 1919476]","[1907801, 1908410, 1909015, 1909642, 1910250, 1910804, 1911371, 1911997, 1912504, 1913055, 1913587, 1914103, 1914598, 1915121, 1915654, 1916080, 1916623, 1917099, 1917647, 1918097, 1918601, 1919067, 1919562]","[1907306, 1907905, 1908505, 1909105, 1909705, 1910305, 1910905, 1911505, 1911979, 1912504, 1913034, 1913558, 1914035, 1914576, 1915101, 1915628, 1916080, 1916606, 1917091, 1917614, 1918072, 1918534, 1919044, 1919503]",48,R,ITM,1.1,
4,400,trial,0,109,109,109,trial,"['S', 'S', 'S', 'S', 'S', 'S', 'S', 'S', 'C', 'C', 'C', 'C', 'C', 'C', 'C', 'C', 'C', 'C', 'C', 'C', 'C', 'C', 'C', 'C', 'C']","[1925198, 1925600, 1925893, 1926179, 1926446, 1926750, 1927302, 1927623, 1928025, 1928365, 1928735, 1929048, 1929453, 1929751, 1930074, 1930385, 1930730, 1931010, 1931352, 1931654, 1931936, 1932228, 1932552, 1932817, 1933158]","[1925305, 1925686, 1926007, 1926270, 1926522, 1926836, 1927376, 1927680, 1928099, 1928438, 1928785, 1929116, 1929480, 1929807, 1930113, 1930442, 1930756, 1931066, 1931410, 1931709, 1932015, 1932332, 1932602, 1932904, 1933185]","[1924977, 1925377, 1925776, 1926176, 1926577, 1926976, 1927376, 1927776, 1928050, 1928391, 1928761, 1929073, 1929480, 1929777, 1930100, 1930412, 1930756, 1931035, 1931377, 1931679, 1931962, 1932254, 1932577, 1933184]",48,R,ITM,1.1,
6,600,trial,0,110,110,110,trial,"['S', 'S', 'S', 'S', 'S', 'S', 'S', 'S', 'C', 'C', 'C', 'C', 'C', 'C', 'C', 'C', 'C', 'C', 'C', 'C', 'C', 'C', 'C', 'C']","[1938840, 1939118, 1939850, 1940438, 1941042, 1941574, 1942140, 1942744, 1943376, 1943867, 1944363, 1945004, 1945414, 1945859, 1946328, 1946775, 1947230, 1947660, 1948118, 1948563, 1948996, 1949429, 1949816, 1950265]","[1938957, 1939213, 1939945, 1940495, 1941062, 1941708, 1942253, 1942823, 1943433, 1943951, 1944461, 1945076, 1945488, 1945895, 1946373, 1946832, 1947286, 1947712, 1948174, 1948621, 1949071, 1949501, 1949882, 1950324]","[1938767, 1939366, 1939966, 1940567, 1941167, 1941767, 1942366, 1942966, 1943403, 1943894, 1944390, 1945031, 1945441, 1945885, 1946354, 1946803, 1947256, 1947687, 1948144, 1948591, 1949023, 1949456, 1949844, 1950291]",48,R,ITM,1.1,
7,600,trial,0,111,111,111,trial,"['S', 'S', 'S', 'S', 'S', 'S', 'C', 'C', 'C', 'C', 'C', 'C', 'C', 'C', 'C', 'C', 'C', 'C', 'C', 'C', 'C', 'C']","[1956182, 1956751, 1957996, 1958623, 1959215, 1959780, 1960409, 1960867, 1961381, 1961883, 1962371, 1962885, 1963365, 1963873, 1964302, 1964766, 1965274, 1965692, 1966194, 1966626, 1967112, 1967538]","[1956304, 1956824, 1958100, 1958713, 1959322, 1959882, 1960484, 1960961, 1961484, 1962016, 1962474, 1963005, 1963429, 1963922, 1964349, 1964819, 1965342, 1965770, 1966289, 1966698, 1967138, 1967676]","[1955820, 1956419, 1957019, 1957619, 1958219, 1958819, 1959419, 1960019, 1960435, 1960895, 1961408, 1961911, 1962397, 1962912, 1963392, 1963899, 1964329, 1964792, 1965300, 1965719, 1966222, 1966653, 1967138, 1967564]",48,R,ITM,1.1,
3,400,trial,0,112,112,112,trial,"['S', 'S', 'S', 'S', 'S', 'S', 'C', 'C', 'C', 'C', 'C', 'C', 'C', 'C', 'C', 'C', 'C', 'C', 'C', 'C', 'C', 'C', 'C']","[1973477, 1974128, 1974532, 1974923, 1975358, 1975761, 1976247, 1976619, 1977000, 1977362, 1977771, 1978142, 1978521, 1978893, 1979276, 1979660, 1980030, 1980386, 1980741, 1981146, 1981405, 1981770, 1982101]","[1973548, 1974209, 1974615, 1975027, 1975439, 1975842, 1976311, 1976685, 1977075, 1977437, 1977849, 1978210, 1978599, 1978973, 1979341, 1979728, 1980087, 1980461, 1980819, 1981171, 1981504, 1981875, 1982195]","[1973050, 1973450, 1973851, 1974250, 1974650, 1975050, 1975450, 1975851, 1976272, 1976644, 1977026, 1977388, 1977796, 1978168, 1978547, 1978918, 1979301, 1979685, 1980056, 1980411, 1980767, 1981171, 1981796, 1982127]",48,R,ITM,1.1,
2,600,trial,0,113,113,113,trial,"['S', 'S', 'S', 'S', 'S', 'S', 'S', 'C', 'C', 'C', 'C', 'C', 'C', 'C', 'C', 'C', 'C', 'C', 'C', 'C', 'C', 'C', 'C']","[1988055, 1988787, 1989433, 1990043, 1990603, 1991224, 1991844, 1992451, 1992930, 1993433, 1993899, 1994383, 1994842, 1995278, 1995710, 1996170, 1996553, 1996989, 1997377, 1997808, 1998171, 1998576, 1998949]","[1988137, 1988893, 1989541, 1990118, 1990711, 1991305, 1991913, 1992542, 1992990, 1993484, 1993967, 1994411, 1994917, 1995340, 1995747, 1996226, 1996627, 1997059, 1997444, 1997886, 1998277, 1998680, 1999050]","[1987759, 1988358, 1988959, 1989559, 1990159, 1990759, 1991359, 1991959, 1992477, 1992956, 1993459, 1993926, 1994411, 1994869, 1995304, 1995737, 1996197, 1996579, 1997016, 1997405, 1997836, 1998198, 1998604, 1998977]",48,R,ITM,1.1,
3,600,trial,0,114,114,114,trial,"['S', 'S', 'S', 'S', 'S', 'S', 'S', 'C', 'C', 'C', 'C', 'C', 'C', 'C', 'C', 'C', 'C', 'C', 'C', 'C', 'C', 'C', 'C']","[2005081, 2005592, 2006237, 2006768, 2007354, 2007945, 2008563, 2009095, 2009563, 2010052, 2010583, 2011069, 2011587, 2012102, 2012593, 2013100, 2013548, 2014040, 2014517, 2015059, 2015515, 2016059, 2016569]","[2005194, 2005680, 2006299, 2006886, 2007762, 2008223, 2008680, 2009180, 2009627, 2010104, 2010613, 2011122, 2011643, 2012172, 2012680, 2013191, 2013624, 2014112, 2014624, 2015153, 2015644, 2016158, 2016669]","[2004616, 2005216, 2005816, 2006416, 2007016, 2007616, 2008216, 2008816, 2009120, 2009588, 2010078, 2010608, 2011095, 2011613, 2012128, 2012618, 2013125, 2013575, 2014065, 2014542, 2015085, 2015541, 2016084, 2016594]",48,R,ITM,1.1,
7,400,trial,0,115,115,115,trial,"['S', 'S', 'S', 'S', 'S', 'S', 'S', 'S', 'C', 'C', 'C', 'C', 'C', 'C', 'C', 'C', 'C', 'C', 'C', 'C', 'C', 'C', 'C', 'C']","[2022571, 2022931, 2023281, 2023720, 2024154, 2024445, 2024683, 2024993, 2025349, 2025675, 2026043, 2026446, 2026836, 2027193, 2027599, 2027907, 2028266, 2028595, 2028966, 2029302, 2029661, 2030028, 2030345, 2030661]","[2022657, 2023000, 2023348, 2023798, 2024240, 2024514, 2024752, 2025064, 2025400, 2025744, 2026125, 2026521, 2026915, 2027279, 2027672, 2028016, 2028358, 2028678, 2029040, 2029405, 2029733, 2030104, 2030426, 2030738]","[2022257, 2022657, 2023056, 2023456, 2023857, 2024256, 2024656, 2025056, 2025376, 2025703, 2026070, 2026474, 2026863, 2027220, 2027627, 2027934, 2028293, 2028621, 2028993, 2029329, 2029688, 2030056, 2030372, 2030688]",48,R,ITM,1.1,
7,400,trial,0,116,116,116,trial,"['S', 'S', 'S', 'S', 'S', 'S', 'S', 'S', 'C', 'C', 'C', 'C', 'C', 'C', 'C', 'C', 'C', 'C', 'C', 'C', 'C', 'C', 'C', 'C']","[2036727, 2037059, 2037352, 2037654, 2038002, 2038411, 2038774, 2039153, 2039561, 2039916, 2040257, 2040626, 2040963, 2041291, 2041607, 2041954, 2042243, 2042646, 2042979, 2043290, 2043608, 2043901, 2044234, 2044536]","[2036769, 2037136, 2037423, 2037728, 2038092, 2038431, 2038794, 2039221, 2039642, 2039999, 2040344, 2040696, 2040990, 2041342, 2041633, 2041981, 2042320, 2042697, 2043062, 2043374, 2043694, 2044000, 2044289, 2044596]","[2036469, 2036869, 2037268, 2037668, 2038068, 2038468, 2038868, 2039268, 2039587, 2039943, 2040284, 2040653, 2040990, 2041318, 2041633, 2041980, 2042269, 2042673, 2043006, 2043318, 2043635, 2043929, 2044261, 2044563]",48,R,ITM,1.1,
2,400,trial,0,117,117,117,trial,"['B', 'S', 'S', 'S', 'S', 'S', 'S', 'S', 'C', 'C', 'C', 'C', 'C', 'C', 'C', 'C', 'C', 'C', 'C', 'C', 'C', 'C', 'C', 'C']","[2050216, 2050538, 2050920, 2051318, 2051724, 2052134, 2052507, 2052902, 2053287, 2053620, 2053990, 2054351, 2054695, 2055028, 2055357, 2055717, 2056054, 2056428, 2056749, 2057106, 2057415, 2057719, 2058059, 2058421]","[2050236, 2050558, 2050985, 2051384, 2051784, 2052201, 2052579, 2052997, 2053378, 2053702, 2054039, 2054394, 2054770, 2055103, 2055447, 2055796, 2056145, 2056507, 2056845, 2057191, 2057505, 2057832, 2058155, 2058515]","[2050230, 2050630, 2051031, 2051430, 2051830, 2052231, 2052630, 2053030, 2053314, 2053647, 2054018, 2054378, 2054723, 2055055, 2055384, 2055745, 2056082, 2056455, 2056776, 2057134, 2057443, 2057746, 2058087, 2058447]",48,R,ITM,1.1,
4,400,trial,0,118,118,118,trial,"['S', 'S', 'S', 'S', 'S', 'S', 'S', 'C', 'C', 'C', 'C', 'C', 'C', 'C', 'C', 'C', 'C', 'C', 'C', 'C', 'C', 'C', 'C', 'C']","[2064098, 2064467, 2064877, 2065233, 2065602, 2066044, 2066392, 2066861, 2067123, 2067470, 2067812, 2068126, 2068443, 2068755, 2069060, 2069354, 2069686, 2069990, 2070330, 2070646, 2070945, 2071268, 2071620, 2071944]","[2064167, 2064540, 2064932, 2065316, 2065673, 2066119, 2066514, 2066924, 2067218, 2067558, 2067910, 2068217, 2068528, 2068845, 2069127, 2069462, 2069752, 2070084, 2070406, 2070729, 2071050, 2071367, 2071718, 2072044]","[2063806, 2064205, 2064605, 2065005, 2065405, 2065805, 2066205, 2066606, 2066886, 2067495, 2067837, 2068152, 2068468, 2068781, 2069086, 2069380, 2069711, 2070016, 2070355, 2070673, 2070971, 2071294, 2071646, 2071969]",48,R,ITM,1.1,
4,600,trial,0,119,119,119,trial,"['S', 'S', 'S', 'S', 'S', 'S', 'S', 'S', 'C', 'C', 'C', 'C', 'C', 'C', 'C', 'C', 'C', 'C', 'C', 'C', 'C', 'C', 'C', 'C']","[2077972, 2078241, 2078678, 2079268, 2079886, 2080502, 2081142, 2081758, 2082250, 2082699, 2083213, 2083680, 2084208, 2084596, 2085122, 2085491, 2086049, 2086438, 2086786, 2087116, 2087541, 2088004, 2088528, 2088884]","[2078050, 2078310, 2078790, 2079332, 2079962, 2080599, 2081162, 2081835, 2082347, 2082775, 2083274, 2083705, 2084282, 2084667, 2085185, 2085517, 2086141, 2086479, 2086811, 2087181, 2087606, 2088052, 2088559, 2088945]","[2077732, 2078332, 2078932, 2079533, 2080133, 2080733, 2081333, 2081933, 2082276, 2082724, 2083238, 2083705, 2084235, 2084622, 2085147, 2085517, 2086075, 2086464, 2086811, 2087142, 2087567, 2088030, 2088554, 2088909]",48,R,ITM,1.1,
4,600,trial,0,120,120,120,trial,"['S', 'S', 'S', 'S', 'S', 'S', 'S', 'S', 'C', 'C', 'C', 'C', 'C', 'C', 'C', 'C', 'C', 'C', 'C', 'C', 'C', 'C', 'C', 'C']","[2094664, 2095034, 2095451, 2096043, 2096596, 2097207, 2097787, 2098341, 2098925, 2099387, 2099917, 2100477, 2101008, 2101498, 2102019, 2102508, 2102989, 2103440, 2103951, 2104400, 2104868, 2105323, 2105704, 2106149]","[2094768, 2095133, 2095527, 2096111, 2096693, 2097276, 2097856, 2098450, 2099021, 2099449, 2099997, 2100558, 2101100, 2101583, 2102112, 2102618, 2103056, 2103550, 2104059, 2104505, 2104977, 2105390, 2105811, 2106242]","[2094393, 2094992, 2095592, 2096192, 2096792, 2097392, 2097992, 2098592, 2098951, 2099412, 2099944, 2100503, 2101033, 2101524, 2102045, 2102534, 2103015, 2103465, 2103976, 2104426, 2104894, 2105349, 2105730, 2106175]",48,R,ITM,1.1,
3,400,trial,0,121,121,121,trial,"['S', 'S', 'S', 'S', 'S', 'S', 'S', 'S', 'C', 'C', 'C', 'C', 'C', 'C', 'C', 'C', 'C', 'C', 'C', 'C', 'C', 'C', 'C', 'C', 'C', 'C', 'C', 'C', 'C', 'C']","[2112180, 2112588, 2112957, 2113367, 2113694, 2114095, 2114374, 2114736, 2115044, 2115392, 2115745, 2116040, 2116331, 2116611, 2116881, 2117150, 2117404, 2117691, 2118023, 2118284, 2118510, 2118748, 2118962, 2119212, 2119448, 2119656, 2119875, 2120136, 2120557, 2120848]","[2112280, 2112654, 2113020, 2113421, 2113789, 2114200, 2114482, 2114811, 2115145, 2115489, 2115836, 2116131, 2116422, 2116696, 2116966, 2117248, 2117495, 2117831, 2118111, 2118355, 2118595, 2118827, 2119071, 2119308, 2119521, 2119740, 2119981, 2120252, 2120665, 2120937]","[2111949, 2112349, 2112749, 2113149, 2113549, 2113949, 2114350, 2114749, 2115069, 2115418, 2115772, 2116066, 2116357, 2116636, 2116907, 2117176, 2117716, 2118048, 2118536, 2118987, 2119474, 2119901, 2120583, 2120873]",48,R,ITM,1.1,
5,400,trial,0,122,122,122,trial,"['B', 'S', 'S', 'S', 'S', 'S', 'S', 'S', 'C', 'C', 'C', 'C', 'C', 'C', 'C', 'C', 'C', 'C', 'C', 'C', 'C', 'C', 'C', 'C', 'C', 'C']","[2126345, 2126602, 2127016, 2127431, 2128403, 2128672, 2129010, 2129381, 2129754, 2130120, 2130442, 2130739, 2131105, 2131425, 2131755, 2132067, 2132404, 2132760, 2133060, 2133378, 2133687, 2134002, 2134241, 2136077, 2136349, 2136615]","[2126415, 2126706, 2127130, 2127507, 2128423, 2128756, 2129082, 2129484, 2129851, 2130210, 2130520, 2130833, 2131175, 2131510, 2131780, 2132164, 2132489, 2132845, 2133128, 2133471, 2133774, 2134064, 2134353, 2136130, 2136428]","[2126356, 2126756, 2127156, 2127556, 2127956, 2128356, 2128756, 2129157, 2129779, 2130146, 2130467, 2130764, 2131131, 2131450, 2131780, 2132092, 2132429, 2132786, 2133086, 2133404, 2133712, 2134028, 2136102, 2136376]",48,R,ITM,1.1,
2,600,trial,0,123,123,123,trial,"['S', 'S', 'S', 'S', 'S', 'S', 'S', 'S', 'S', 'C', 'C', 'C', 'C', 'C', 'C', 'C', 'C', 'C', 'C', 'C', 'C', 'C', 'C', 'C', 'C']","[2141764, 2142001, 2142289, 2142810, 2143432, 2144014, 2144593, 2145113, 2145742, 2146324, 2146824, 2147314, 2147782, 2148243, 2148680, 2149107, 2149527, 2149940, 2150342, 2150769, 2151137, 2151564, 2151983, 2152367, 2152741]","[2141784, 2142093, 2142422, 2142940, 2143555, 2144125, 2144719, 2145246, 2145886, 2146524, 2146945, 2147428, 2147877, 2148326, 2148780, 2149186, 2149604, 2150023, 2150428, 2150855, 2151205, 2151632, 2152042, 2152454, 2152836]","[2141755, 2142355, 2142955, 2143555, 2144155, 2144754, 2145355, 2145955, 2146352, 2146851, 2147342, 2147809, 2148271, 2148707, 2149134, 2149554, 2149967, 2150370, 2150796, 2151163, 2151591, 2152010, 2152394, 2152769]",48,R,ITM,1.1,
5,400,trial,0,124,124,124,trial,"['S', 'S', 'S', 'S', 'S', 'S', 'S', 'S', 'C', 'C', 'C', 'C', 'C', 'C', 'C', 'C', 'C', 'C', 'C', 'C', 'C', 'C', 'C', 'C']","[2158444, 2158769, 2159104, 2159451, 2159799, 2160203, 2160613, 2160996, 2161409, 2161748, 2162159, 2162497, 2162900, 2163260, 2163636, 2163991, 2164341, 2164712, 2165080, 2165433, 2165716, 2166078, 2166461, 2166780]","[2158505, 2158873, 2159170, 2159544, 2159857, 2160273, 2160654, 2161095, 2161484, 2161839, 2162247, 2162598, 2163000, 2163351, 2163703, 2164065, 2164425, 2164790, 2165152, 2165515, 2165836, 2166165, 2166511, 2166917]","[2158345, 2158744, 2159144, 2159544, 2159944, 2160345, 2160744, 2161144, 2161434, 2161773, 2162185, 2162524, 2162927, 2163287, 2163661, 2164017, 2164367, 2164738, 2165105, 2165459, 2165742, 2166104, 2166487, 2166806]",48,R,ITM,1.1,
