octave,ioi,event,.thisRepN,.thisTrialN,.thisN,.thisIndex,event,tap_types,tap_times,release_times,tone_times,subject,handedness,experiment,version,
,,SPR,0,-1,-1,0,SPR,"['P', 'P', 'P', 'P', 'P', 'P', 'P', 'P', 'P', 'P', 'P', 'P', 'P', 'P', 'P', 'P', 'P', 'P', 'P', 'P', 'P', 'P', 'P', 'P', 'P', 'P', 'P', 'P', 'P', 'P']","[49659, 50594, 53106, 53636, 55013, 55488, 56637, 57460, 58348, 59158, 60555, 61562, 62292, 62877, 63857, 65122, 66044, 67025, 68083, 69096, 70079, 71154, 72047, 73125, 74020, 74832, 75598, 76447, 77283, 78087]","[50024, 51889, 53220, 54804, 55310, 56177, 57184, 58131, 58968, 60068, 61328, 62118, 62696, 63600, 64528, 65691, 66633, 67636, 68673, 69790, 70768, 71748, 72685, 73766, 74560, 75330, 76147, 77041, 77841, 78583]",,13,R,ITM,1.1,
2,500,practice,0,0,0,0,practice,"['S', 'S', 'S', 'S', 'S', 'S', 'S', 'C', 'C', 'C', 'C', 'C', 'C', 'C', 'C', 'C', 'C', 'C', 'C', 'C', 'C', 'C', 'C']","[134020, 134727, 135311, 135863, 136359, 136866, 137393, 137868, 138299, 138720, 139160, 139608, 140009, 140454, 140886, 141327, 141733, 142173, 142575, 142976, 143397, 143834, 144242]","[134432, 134955, 135489, 135972, 136455, 136972, 137473, 137929, 138350, 138785, 139211, 139660, 140064, 140511, 140950, 141378, 141807, 142232, 142638, 143043, 143458, 143885, 144282]","[133972, 134472, 134972, 135473, 135972, 136472, 136972, 137472, 137895, 138327, 138747, 139188, 139635, 140036, 140482, 140913, 141355, 141760, 142200, 142602, 143003, 143424, 143860, 144269]",13,R,ITM,1.1,
5,500,practice,0,1,1,1,practice,"['S', 'S', 'S', 'S', 'S', 'S', 'S', 'C', 'C', 'C', 'C', 'C', 'C', 'C', 'C', 'C', 'C', 'C', 'C', 'C', 'C', 'C', 'C']","[149836, 150550, 151101, 151613, 152124, 152638, 153157, 153673, 154150, 154614, 155068, 155541, 155991, 156439, 156895, 157353, 157778, 158217, 158638, 159102, 159510, 159938, 160379]","[149924, 150633, 151152, 151687, 152201, 152719, 153235, 153749, 154225, 154689, 155146, 155617, 156060, 156509, 156976, 157400, 157835, 158278, 158713, 159162, 159588, 160023, 160441]","[149758, 150258, 150758, 151259, 151758, 152258, 152758, 153259, 153699, 154177, 154640, 155094, 155567, 156016, 156465, 156920, 157379, 157804, 158242, 158663, 159128, 159536, 159964, 160405]",13,R,ITM,1.1,
3,500,practice,0,2,2,2,practice,"['S', 'S', 'S', 'S', 'S', 'S', 'S', 'C', 'C', 'C', 'C', 'C', 'C', 'C', 'C', 'C', 'C', 'C', 'C', 'C', 'C', 'C', 'C']","[166530, 167063, 167585, 168133, 168627, 169137, 169615, 170136, 170654, 171156, 171648, 172151, 172659, 173182, 173665, 174191, 174700, 175208, 175739, 176191, 176716, 177242, 177778]","[166599, 167134, 167650, 168181, 168685, 169205, 169687, 170187, 170718, 171207, 171715, 172207, 172736, 173245, 173758, 174257, 174777, 175286, 175806, 176287, 176793, 177320, 177849]","[166162, 166662, 167161, 167661, 168161, 168662, 169161, 169661, 170162, 170680, 171182, 171673, 172177, 172685, 173208, 173690, 174217, 174726, 175234, 175765, 176217, 176742, 177267, 177804]",13,R,ITM,1.1,
7,500,practice,0,3,3,3,practice,"['S', 'S', 'S', 'S', 'S', 'S', 'S', 'C', 'C', 'C', 'C', 'C', 'C', 'C', 'C', 'C', 'C', 'C', 'C', 'C', 'C', 'C', 'C']","[183650, 184172, 184712, 185202, 185730, 186200, 186735, 187244, 187753, 188238, 188709, 189212, 189720, 190212, 190701, 191200, 191679, 192178, 192652, 193171, 193675, 194172, 194655]","[183738, 184264, 184794, 185294, 185808, 186278, 186813, 187324, 187829, 188320, 188803, 189292, 189811, 190305, 190787, 191280, 191771, 192248, 192739, 193269, 193761, 194255, 194743]","[183278, 183777, 184278, 184777, 185277, 185778, 186277, 186777, 187271, 187780, 188266, 188736, 189240, 189748, 190239, 190729, 191227, 191707, 192204, 192678, 193199, 193701, 194199, 194681]",13,R,ITM,1.1,
6,500,practice,0,4,4,4,practice,"['S', 'S', 'S', 'S', 'S', 'S', 'S', 'C', 'C', 'C', 'C', 'C', 'C', 'C', 'C', 'C', 'C', 'C', 'C', 'C', 'C', 'C', 'C']","[200627, 201189, 201721, 202199, 202735, 203272, 203792, 204298, 204768, 205299, 205796, 206340, 206833, 207340, 207834, 208308, 208807, 209293, 209746, 210254, 210802, 211320, 211844]","[200720, 201272, 201776, 202276, 202805, 203355, 203869, 204372, 204861, 205373, 205875, 206415, 206926, 207421, 207911, 208385, 208902, 209373, 209826, 210332, 210881, 211397, 211933]","[200291, 200791, 201290, 201790, 202291, 202791, 203291, 203791, 204325, 204794, 205326, 205822, 206366, 206861, 207367, 207860, 208334, 208834, 209320, 209774, 210282, 210830, 211347, 211871]",13,R,ITM,1.1,
4,500,practice,0,5,5,5,practice,"['S', 'S', 'S', 'S', 'S', 'S', 'S', 'C', 'C', 'C', 'C', 'C', 'C', 'C', 'C', 'C', 'C', 'C', 'C', 'C', 'C', 'C', 'C']","[217465, 218035, 218567, 219117, 219633, 220165, 220691, 221174, 221692, 222220, 222718, 223267, 223766, 224273, 224770, 225256, 225728, 226224, 226707, 227167, 227646, 228117, 228584]","[217574, 218118, 218667, 219203, 219710, 220253, 220762, 221256, 221777, 222275, 222801, 223329, 223853, 224351, 224863, 225333, 225805, 226320, 226797, 227239, 227723, 228185, 228652]","[217191, 217692, 218191, 218691, 219191, 219692, 220191, 220691, 221200, 221718, 222245, 222744, 223293, 223792, 224300, 224796, 225282, 225754, 226249, 226734, 227192, 227672, 228143, 228610]",13,R,ITM,1.1,
2,600,trial,0,6,6,6,trial,"['S', 'S', 'S', 'S', 'S', 'S', 'S', 'C', 'C', 'C', 'C', 'C', 'C', 'C', 'C', 'C', 'C', 'C', 'C', 'C', 'C', 'C', 'C']","[265762, 266422, 267060, 267665, 268303, 268921, 269535, 270101, 270624, 271132, 271635, 272128, 272626, 273126, 273607, 274112, 274615, 275087, 275585, 276033, 276502, 276976, 277445]","[265885, 266520, 267166, 267776, 268392, 269012, 269622, 270194, 270694, 271219, 271716, 272210, 272719, 273208, 273686, 274196, 274705, 275184, 275667, 276124, 276600, 277044, 277532]","[265442, 266042, 266642, 267242, 267842, 268442, 269042, 269642, 270128, 270651, 271160, 271663, 272155, 272653, 273154, 273635, 274139, 274641, 275113, 275611, 276060, 276530, 277004, 277473]",13,R,ITM,1.1,
5,400,trial,0,7,7,7,trial,"['S', 'S', 'S', 'S', 'S', 'S', 'S', 'C', 'C', 'C', 'C', 'C', 'C', 'C', 'C', 'C', 'C', 'C', 'C', 'C', 'C', 'C', 'C']","[283183, 283670, 284100, 284525, 284938, 285331, 285690, 286081, 286485, 286875, 287292, 287676, 288081, 288465, 288877, 289261, 289651, 290040, 290473, 290868, 291274, 291660, 292073]","[283299, 283757, 284175, 284611, 285014, 285399, 285770, 286159, 286556, 286949, 287345, 287764, 288159, 288547, 288959, 289352, 289739, 290139, 290552, 290940, 291364, 291747, 292150]","[282957, 283357, 283757, 284157, 284557, 284957, 285358, 285757, 286106, 286511, 286901, 287318, 287702, 288108, 288491, 288903, 289287, 289678, 290066, 290499, 290893, 291300, 291686, 292099]",13,R,ITM,1.1,
2,600,trial,0,8,8,8,trial,"['B', 'S', 'S', 'S', 'S', 'S', 'S', 'S', 'C', 'C', 'C', 'C', 'C', 'C', 'C', 'C', 'C', 'C', 'C', 'C', 'C', 'C', 'C', 'C']","[297732, 298192, 298760, 299394, 300007, 300605, 301236, 301855, 302435, 303001, 303545, 304101, 304647, 305189, 305730, 306242, 306786, 307284, 307811, 308338, 308842, 309323, 309829, 310334]","[297755, 298287, 298847, 299473, 300099, 300707, 301328, 301945, 302537, 303076, 303639, 304188, 304738, 305278, 305814, 306331, 306863, 307380, 307899, 308425, 308930, 309404, 309897, 310390]","[297745, 298345, 298945, 299545, 300144, 300745, 301345, 301944, 302461, 303028, 303572, 304129, 304674, 305217, 305758, 306270, 306813, 307312, 307837, 308366, 308870, 309350, 309856, 310362]",13,R,ITM,1.1,
7,400,trial,0,9,9,9,trial,"['S', 'S', 'S', 'S', 'S', 'S', 'S', 'C', 'C', 'C', 'C', 'C', 'C', 'C', 'C', 'C', 'C', 'C', 'C', 'C', 'C', 'C', 'C']","[315966, 316427, 316864, 317317, 317707, 318117, 318527, 318979, 319415, 319833, 320237, 320628, 321071, 321468, 321895, 322299, 322701, 323104, 323507, 323928, 324362, 324779, 325207]","[316068, 316516, 316958, 317380, 317797, 318181, 318569, 319051, 319495, 319915, 320328, 320739, 321154, 321558, 321978, 322403, 322784, 323204, 323586, 324019, 324443, 324868, 325280]","[315717, 316116, 316516, 316916, 317317, 317716, 318116, 318516, 319005, 319442, 319860, 320265, 320655, 321097, 321496, 321922, 322326, 322727, 323131, 323533, 323954, 324388, 324805, 325233]",13,R,ITM,1.1,
3,600,trial,0,10,10,10,trial,"['S', 'S', 'S', 'S', 'S', 'S', 'S', 'C', 'C', 'C', 'C', 'C', 'C', 'C', 'C', 'C', 'C', 'C', 'C', 'C', 'C', 'C', 'C']","[331056, 331866, 332505, 333130, 333745, 334336, 334898, 335519, 336090, 336695, 337255, 337812, 338348, 338885, 339363, 339853, 340347, 340806, 341306, 341812, 342293, 342803, 343294]","[331167, 331950, 332616, 333230, 333830, 334419, 334990, 335597, 336162, 336786, 337330, 337893, 338423, 338950, 339437, 339903, 340400, 340883, 341360, 341854, 342372, 342851, 343343]","[330829, 331429, 332029, 332630, 333230, 333830, 334429, 335029, 335545, 336115, 336720, 337281, 337838, 338373, 338911, 339389, 339878, 340373, 340832, 341331, 341837, 342319, 342829, 343319]",13,R,ITM,1.1,
6,400,trial,0,11,11,11,trial,"['S', 'S', 'S', 'S', 'S', 'S', 'S', 'C', 'C', 'C', 'C', 'C', 'C', 'C', 'C', 'C', 'C', 'C', 'C', 'C', 'C', 'C', 'C']","[349437, 349950, 350350, 350740, 351173, 351617, 352045, 353786, 354239, 354611, 355033, 355433, 355846, 356270, 356671, 357146, 357594, 358048, 358518, 359005, 359483, 359954, 360438]","[349538, 349998, 350403, 350802, 351255, 351696, 352133, 353852, 354279, 354678, 355059, 355485, 355921, 356335, 356738, 357216, 357669, 358138, 358612, 359094, 359572, 360032, 360520]","[349068, 349467, 349868, 350267, 350667, 351068, 351467, 351867, 353813, 354267, 354637, 355059, 355460, 355872, 356296, 356699, 357174, 357620, 358075, 358545, 359032, 359510, 359981, 360465]",13,R,ITM,1.1,
4,400,trial,0,12,12,12,trial,"['S', 'S', 'S', 'S', 'S', 'S', 'S', 'C', 'C', 'C', 'C', 'C', 'C', 'C', 'C', 'C', 'C', 'C', 'C', 'C', 'C', 'C', 'C']","[366402, 366841, 367234, 367644, 368062, 368483, 368945, 369321, 369687, 370060, 370408, 370737, 371082, 371428, 371778, 372096, 372429, 372772, 373127, 373491, 373810, 374133, 374451]","[366486, 366889, 367285, 367699, 368131, 368548, 369007, 369413, 369736, 370117, 370481, 370814, 371151, 371509, 371840, 372173, 372520, 372852, 373203, 373555, 373873, 374203, 374528]","[366205, 366604, 367004, 367405, 367804, 368204, 368605, 369005, 369346, 369713, 370085, 370434, 370762, 371107, 371453, 371804, 372121, 372455, 372798, 373152, 373517, 373836, 374159, 374477]",13,R,ITM,1.1,
5,600,trial,0,13,13,13,trial,"['S', 'S', 'S', 'S', 'S', 'S', 'S', 'S', 'C', 'C', 'C', 'C', 'C', 'C', 'C', 'C', 'C', 'C', 'C', 'C', 'C', 'C', 'C', 'C']","[380066, 380481, 381020, 381540, 382067, 382639, 383170, 383823, 384382, 384929, 385430, 385921, 386420, 386874, 387353, 387794, 388220, 388687, 389137, 389594, 390061, 390491, 390949, 391413]","[380189, 380572, 381106, 381626, 382148, 382717, 383247, 383903, 384483, 384994, 385520, 386009, 386501, 386955, 387438, 387867, 388305, 388743, 389200, 389671, 390135, 390556, 391019, 391487]","[379808, 380408, 381008, 381608, 382209, 382809, 383409, 384008, 384408, 384955, 385456, 385947, 386446, 386899, 387379, 387820, 388246, 388713, 389163, 389619, 390086, 390517, 390975, 391440]",13,R,ITM,1.1,
7,400,trial,0,14,14,14,trial,"['S', 'S', 'S', 'S', 'S', 'S', 'S', 'C', 'C', 'C', 'C', 'C', 'C', 'C', 'C', 'C', 'C', 'C', 'C', 'C', 'C', 'C', 'C']","[397409, 397950, 398337, 398754, 399115, 399528, 399923, 400314, 400755, 401193, 401650, 402111, 402563, 403008, 403487, 403966, 404430, 404897, 405397, 405892, 406374, 406835, 407324]","[397512, 398001, 398410, 398818, 399213, 399607, 400009, 400419, 400850, 401292, 401751, 402194, 402654, 403106, 403575, 404059, 404526, 404987, 405480, 405986, 406480, 406936, 407434]","[397113, 397512, 397913, 398312, 398712, 399112, 399512, 399912, 400342, 400782, 401220, 401678, 402139, 402590, 403036, 403515, 403994, 404458, 404925, 405425, 405918, 406401, 406861, 407351]",13,R,ITM,1.1,
6,400,trial,0,15,15,15,trial,"['S', 'S', 'S', 'S', 'S', 'S', 'S', 'C', 'C', 'C', 'C', 'C', 'C', 'C', 'C', 'C', 'C', 'C', 'C', 'C', 'C', 'C', 'C']","[413012, 413461, 413875, 414287, 414723, 415167, 415641, 416232, 416656, 417071, 417483, 417872, 418279, 418700, 419113, 419507, 419902, 420324, 420720, 421144, 421533, 421925, 422310]","[413112, 413585, 413996, 414409, 414836, 415321, 415779, 416349, 416782, 417189, 417588, 417993, 418372, 418805, 419214, 419586, 419981, 420384, 420820, 421206, 421627, 422017, 422418]","[412650, 413049, 413449, 413849, 414249, 414649, 415049, 415450, 416259, 416683, 417097, 417510, 417899, 418306, 418726, 419141, 419533, 419930, 420350, 420747, 421172, 421560, 421952, 422337]",13,R,ITM,1.1,
6,600,trial,0,16,16,16,trial,"['S', 'S', 'S', 'S', 'S', 'S', 'S', 'S', 'C', 'C', 'C', 'C', 'C', 'C', 'C', 'C', 'C', 'C', 'C', 'C', 'C', 'C', 'C', 'C']","[427795, 428284, 428878, 429599, 430153, 430646, 431201, 431785, 432411, 432934, 433428, 433949, 434443, 434939, 435439, 435929, 436409, 436890, 437362, 437854, 438358, 438844, 439329, 439796]","[427906, 428377, 428964, 429688, 430249, 430706, 431296, 431894, 432544, 433048, 433539, 434035, 434543, 435010, 435533, 436001, 436496, 436984, 437456, 437945, 438441, 438930, 439415, 439881]","[427795, 428394, 428994, 429594, 430194, 430794, 431394, 431994, 432439, 432961, 433456, 433976, 434469, 434966, 435466, 435955, 436435, 436918, 437389, 437881, 438385, 438871, 439356, 439823]",13,R,ITM,1.1,
6,600,trial,0,17,17,17,trial,"['S', 'S', 'S', 'S', 'S', 'S', 'S', 'C', 'C', 'C', 'C', 'C', 'C', 'C', 'C', 'C', 'C', 'C', 'C', 'C', 'C', 'C', 'C']","[445569, 446336, 446954, 447532, 448148, 448750, 449321, 449922, 450649, 451388, 452016, 452635, 453222, 453831, 454463, 455003, 455617, 456206, 456775, 457345, 457920, 458482, 459065]","[445670, 446437, 447041, 447616, 448227, 448827, 449419, 450011, 450723, 451441, 452096, 452700, 453277, 453895, 454529, 455080, 455698, 456288, 456873, 457420, 457991, 458555, 459147]","[445238, 445837, 446437, 447037, 447637, 448237, 448837, 449437, 449948, 450676, 451416, 452043, 452662, 453249, 453859, 454491, 455030, 455644, 456233, 456802, 457372, 457947, 458510, 459091]",13,R,ITM,1.1,
4,400,trial,0,18,18,18,trial,"['S', 'S', 'S', 'S', 'S', 'S', 'S', 'C', 'C', 'C', 'C', 'C', 'C', 'C', 'C', 'C', 'C', 'C', 'C', 'C', 'C', 'C', 'C', 'C']","[468348, 468874, 469272, 469697, 470072, 470456, 470848, 471269, 471644, 472096, 472579, 473043, 473541, 474007, 474502, 475024, 475564, 476164, 476732, 477295, 477540, 477811, 478363, 478920]","[468477, 468961, 469354, 469781, 470145, 470523, 470905, 471309, 471731, 472160, 472623, 473124, 473601, 474107, 474588, 475114, 475658, 476272, 476851, 477389, 477641, 477952, 478483, 479016]","[468093, 468493, 468893, 469294, 469693, 470093, 470493, 470893, 471296, 471669, 472122, 472604, 473069, 473567, 474033, 474527, 475049, 475590, 476189, 476758, 477322, 477837, 478389, 478946]",13,R,ITM,1.1,
3,400,trial,0,19,19,19,trial,"['S', 'S', 'S', 'S', 'S', 'S', 'S', 'C', 'C', 'C', 'C', 'C', 'C', 'C', 'C', 'C', 'C', 'C', 'C', 'C', 'C', 'C', 'C']","[484568, 485014, 485485, 485889, 486328, 486737, 487140, 487596, 488054, 488513, 488932, 489323, 489720, 490157, 490529, 490941, 491344, 491760, 492157, 492597, 493000, 493410, 493840]","[484654, 485109, 485568, 485972, 486415, 486802, 487229, 487671, 488146, 488582, 489014, 489410, 489802, 490198, 490614, 491009, 491439, 491816, 492224, 492630, 493081, 493509, 493940]","[484327, 484727, 485127, 485527, 485927, 486327, 486727, 487128, 487621, 488080, 488539, 488957, 489349, 489746, 490182, 490555, 490967, 491370, 491786, 492183, 492622, 493026, 493435, 493865]",13,R,ITM,1.1,
7,600,trial,0,20,20,20,trial,"['S', 'S', 'S', 'S', 'S', 'S', 'S', 'C', 'C', 'C', 'C', 'C', 'C', 'C', 'C', 'C', 'C', 'C', 'C', 'C', 'C', 'C', 'C']","[499479, 500230, 500870, 501535, 502202, 502790, 503453, 504029, 504577, 505157, 505745, 506310, 506856, 507406, 508005, 508577, 509205, 509736, 510357, 510913, 511479, 512051, 512623]","[499568, 500324, 500982, 501605, 502282, 502892, 503540, 504117, 504655, 505254, 505836, 506405, 506958, 507485, 508098, 508647, 509261, 509836, 510424, 511002, 511579, 512148, 512716]","[499268, 499867, 500467, 501067, 501667, 502267, 502867, 503468, 504056, 504604, 505184, 505772, 506337, 506883, 507433, 508032, 508605, 509232, 509764, 510385, 510941, 511506, 512077, 512650]",13,R,ITM,1.1,
3,400,trial,0,21,21,21,trial,"['S', 'S', 'S', 'S', 'S', 'S', 'S', 'C', 'C', 'C', 'C', 'C', 'C', 'C', 'C', 'C', 'C', 'C', 'C', 'C', 'C', 'C', 'C']","[518586, 519009, 519418, 519778, 520177, 520591, 521015, 521410, 521801, 522208, 522616, 523001, 523423, 523797, 524234, 524688, 525163, 525611, 525973, 526333, 526745, 527141, 527544]","[518696, 519106, 519479, 519851, 520256, 520670, 521075, 521472, 521863, 522280, 522679, 523079, 523486, 523902, 524322, 524776, 525257, 525710, 526077, 526436, 526854, 527239, 527621]","[518231, 518630, 519030, 519431, 519831, 520231, 520631, 521031, 521436, 521827, 522233, 522642, 523027, 523449, 523823, 524260, 524713, 525189, 525636, 525999, 526359, 526771, 527167, 527569]",13,R,ITM,1.1,
5,600,trial,0,22,22,22,trial,"['S', 'S', 'S', 'S', 'S', 'S', 'S', 'C', 'C', 'C', 'C', 'C', 'C', 'C', 'C', 'C', 'C', 'C', 'C', 'C', 'C', 'C', 'C']","[533250, 534006, 534651, 535318, 535989, 536527, 537100, 537702, 538232, 538741, 539267, 539802, 540335, 540902, 541429, 541935, 542459, 543012, 543536, 544047, 544581, 545084, 545579]","[533361, 534139, 534738, 535419, 536075, 536626, 537218, 537812, 538330, 538847, 539369, 539893, 540443, 540995, 541549, 542046, 542606, 543101, 543613, 544178, 544681, 545200, 545695]","[533000, 533600, 534200, 534800, 535400, 536000, 536600, 537200, 537728, 538258, 538767, 539292, 539828, 540360, 540928, 541455, 541962, 542486, 543038, 543561, 544072, 544607, 545111, 545604]",13,R,ITM,1.1,
5,400,trial,0,23,23,23,trial,"['S', 'S', 'S', 'S', 'S', 'S', 'S', 'C', 'C', 'C', 'C', 'C', 'C', 'C', 'C', 'C', 'C', 'C', 'C', 'C', 'C', 'C', 'C', 'C', 'C']","[551104, 551695, 552194, 552637, 553048, 553454, 553868, 554240, 554640, 555089, 555545, 555986, 556454, 556922, 557338, 557696, 558005, 558331, 558607, 558863, 559101, 559368, 559590, 559974, 560291]","[551236, 551824, 552279, 552696, 553119, 553502, 553924, 554324, 554731, 555162, 555642, 556087, 556559, 557020, 557435, 557778, 558083, 558416, 558692, 558932, 559155, 559454, 559678, 560067, 560405]","[551038, 551437, 551837, 552238, 552637, 553037, 553437, 553837, 554265, 554665, 555115, 555571, 556012, 556480, 556948, 557364, 557721, 558030, 558357, 558632, 559127, 559616, 560001, 560317]",13,R,ITM,1.1,
4,600,trial,0,24,24,24,trial,"['S', 'S', 'S', 'S', 'S', 'S', 'S', 'C', 'C', 'C', 'C', 'C', 'C', 'C', 'C', 'C', 'C', 'C', 'C', 'C', 'C', 'C', 'C']","[566206, 567071, 567748, 568367, 568997, 569603, 570231, 570805, 571368, 571887, 572476, 573058, 573663, 574280, 574785, 575377, 575894, 576437, 576990, 577520, 578121, 578675, 579270]","[566403, 567192, 567844, 568477, 569106, 569717, 570326, 570913, 571451, 572044, 572577, 573158, 573762, 574358, 574906, 575481, 576014, 576561, 577091, 577647, 578221, 578779, 579387]","[566094, 566693, 567293, 567894, 568494, 569094, 569693, 570293, 570831, 571394, 571913, 572502, 573083, 573689, 574306, 574812, 575403, 575921, 576462, 577015, 577546, 578147, 578701, 579296]",13,R,ITM,1.1,
7,600,trial,0,25,25,25,trial,"['S', 'S', 'S', 'S', 'S', 'S', 'S', 'C', 'C', 'C', 'C', 'C', 'C', 'C', 'C', 'C', 'C', 'C', 'C', 'C', 'C', 'C', 'C']","[585214, 585944, 586587, 587175, 587745, 588346, 588990, 589613, 590137, 590735, 591281, 591835, 592381, 592889, 593443, 593976, 594537, 595085, 595614, 596164, 596708, 597248, 597793]","[585313, 586043, 586651, 587253, 587847, 588430, 589082, 589671, 590225, 590800, 591362, 591886, 592434, 592975, 593517, 594068, 594628, 595163, 595715, 596235, 596787, 597343, 597873]","[584939, 585539, 586139, 586739, 587339, 587939, 588539, 589139, 589639, 590164, 590763, 591307, 591861, 592409, 592917, 593470, 594002, 594564, 595112, 595641, 596191, 596734, 597274, 597821]",13,R,ITM,1.1,
4,600,trial,0,26,26,26,trial,"['B', 'S', 'S', 'S', 'S', 'S', 'S', 'S', 'C', 'C', 'C', 'C', 'C', 'C', 'C', 'C', 'C', 'C', 'C', 'C', 'C', 'C', 'C', 'C']","[603102, 603569, 604150, 604806, 605424, 606031, 606649, 607319, 607916, 608521, 609119, 609689, 610315, 610880, 611471, 612074, 612682, 613300, 613919, 614508, 615129, 615782, 616374, 616965]","[603175, 603651, 604267, 604926, 605553, 606127, 606764, 607404, 608007, 608625, 609227, 609793, 610362, 610955, 611556, 612149, 612716, 613387, 613972, 614614, 615236, 615868, 616461, 617043]","[603114, 603713, 604313, 604913, 605513, 606113, 606713, 607313, 607941, 608546, 609144, 609715, 610341, 610906, 611496, 612100, 612708, 613325, 613945, 614534, 615154, 615808, 616399, 616990]",13,R,ITM,1.1,
3,600,trial,0,27,27,27,trial,"['S', 'S', 'S', 'S', 'S', 'S', 'S', 'C', 'C', 'C', 'C', 'C', 'C', 'C', 'C', 'C', 'C', 'C', 'C', 'C', 'C', 'C', 'C']","[623059, 623747, 624353, 624969, 625554, 626130, 626741, 627350, 627874, 628412, 628944, 629460, 630007, 630501, 631042, 631583, 632180, 632709, 633266, 633846, 634381, 634928, 635483]","[623127, 623826, 624442, 625039, 625624, 626206, 626826, 627427, 627912, 628438, 629008, 629542, 630038, 630555, 631098, 631676, 632206, 632813, 633363, 633919, 634480, 635000, 635513]","[622704, 623303, 623903, 624503, 625103, 625703, 626304, 626904, 627376, 627900, 628438, 628970, 629486, 630033, 630526, 631067, 631609, 632206, 632734, 633291, 633872, 634406, 634953, 635508]",13,R,ITM,1.1,
2,400,trial,0,28,28,28,trial,"['S', 'S', 'S', 'S', 'S', 'S', 'S', 'C', 'C', 'C', 'C', 'C', 'C', 'C', 'C', 'C', 'C', 'C', 'C', 'C', 'C', 'C', 'C']","[641146, 641639, 642051, 642465, 642835, 643216, 643595, 644004, 644461, 644892, 645338, 645750, 646174, 646607, 647006, 647422, 647837, 648220, 648657, 649104, 649550, 649957, 650381]","[641238, 641712, 642129, 642543, 642931, 643301, 643672, 644097, 644550, 645002, 645425, 645871, 646260, 646708, 647108, 647514, 647927, 648321, 648750, 649190, 649653, 650063, 650479]","[640807, 641207, 641606, 642007, 642407, 642806, 643208, 643607, 644032, 644488, 644919, 645364, 645777, 646201, 646634, 647033, 647450, 647865, 648248, 648685, 649132, 649578, 649985, 650408]",13,R,ITM,1.1,
2,400,trial,0,29,29,29,trial,"['S', 'S', 'S', 'S', 'S', 'S', 'S', 'C', 'C', 'C', 'C', 'C', 'C', 'C', 'C', 'C', 'C', 'C', 'C', 'C', 'C', 'C', 'C']","[656254, 656752, 657163, 657536, 657973, 658350, 658732, 659113, 659517, 659929, 660313, 660721, 661087, 661485, 661891, 662295, 662667, 663070, 663468, 663847, 664239, 664627, 665025]","[656373, 656836, 657229, 657606, 658024, 658408, 658799, 659163, 659563, 660000, 660402, 660775, 661181, 661574, 661975, 662367, 662765, 663169, 663541, 663943, 664322, 664711, 665115]","[655973, 656373, 656774, 657173, 657572, 657972, 658373, 658774, 659141, 659544, 659956, 660340, 660748, 661113, 661513, 661917, 662323, 662694, 663098, 663494, 663874, 664266, 664654, 665053]",13,R,ITM,1.1,
3,400,trial,0,30,30,30,trial,"['S', 'S', 'S', 'S', 'S', 'S', 'S', 'C', 'C', 'C', 'C', 'C', 'C', 'C', 'C', 'C', 'C', 'C', 'C', 'C', 'C', 'C', 'C']","[673702, 674185, 674557, 674931, 675328, 675729, 676119, 676515, 676924, 677299, 677686, 678067, 678456, 678844, 679212, 679622, 680039, 680408, 680813, 681202, 681563, 681972, 682377]","[673787, 674269, 674649, 675023, 675417, 675805, 676202, 676586, 676987, 677377, 677771, 678146, 678535, 678930, 679309, 679696, 680092, 680494, 680888, 681298, 681671, 682031, 682441]","[673386, 673785, 674185, 674585, 674985, 675385, 675785, 676186, 676541, 676950, 677324, 677711, 678092, 678481, 678870, 679237, 679648, 680065, 680433, 680839, 681228, 681588, 681998, 682402]",13,R,ITM,1.1,
3,600,trial,0,31,31,31,trial,"['S', 'S', 'S', 'S', 'S', 'S', 'S', 'C', 'C', 'C', 'C', 'C', 'C', 'C', 'C', 'C', 'C', 'C', 'C', 'C', 'C', 'C', 'C']","[688188, 688912, 689532, 690148, 690753, 691368, 691964, 692550, 693107, 693663, 694204, 694767, 695334, 695847, 696397, 696968, 697555, 698080, 698636, 699175, 699756, 700297, 700858]","[688343, 689164, 689748, 690351, 690972, 691566, 692167, 692741, 693269, 693840, 694376, 694931, 695500, 696028, 696571, 697088, 697654, 698199, 698725, 699287, 699839, 700382, 700948]","[687830, 688429, 689029, 689629, 690229, 690829, 691429, 692029, 692576, 693133, 693689, 694230, 694793, 695360, 695873, 696423, 696993, 697581, 698105, 698661, 699201, 699782, 700322, 700883]",13,R,ITM,1.1,
6,600,trial,0,32,32,32,trial,"['S', 'S', 'S', 'S', 'S', 'S', 'S', 'C', 'C', 'C', 'C', 'C', 'C', 'C', 'C', 'C', 'C', 'C', 'C', 'C', 'C', 'C', 'C']","[706652, 707414, 707993, 708587, 709299, 709817, 710431, 710990, 711603, 712159, 712783, 713325, 713919, 714487, 715077, 715629, 716150, 716703, 717236, 717799, 718253, 718814, 719291]","[706777, 707508, 708103, 708684, 709361, 709906, 710539, 711112, 711683, 712258, 712878, 713455, 714001, 714588, 715130, 715685, 716217, 716794, 717320, 717879, 718336, 718914, 719381]","[706299, 706899, 707500, 708100, 708700, 709299, 709899, 710499, 711017, 711630, 712186, 712810, 713353, 713947, 714514, 715104, 715656, 716177, 716730, 717263, 717826, 718279, 718840, 719319]",13,R,ITM,1.1,
7,400,trial,0,33,33,33,trial,"['S', 'S', 'S', 'S', 'S', 'S', 'S', 'C', 'C', 'C', 'C', 'C', 'C', 'C', 'C', 'C', 'C', 'C', 'C', 'C', 'C', 'C', 'C', 'C']","[725439, 725956, 726312, 726695, 727059, 727435, 727861, 728223, 728644, 729061, 729461, 729864, 730270, 730667, 731101, 731484, 731842, 732156, 732453, 732749, 733009, 733334, 733686, 734000]","[725579, 726030, 726420, 726766, 727140, 727533, 727933, 728327, 728735, 729142, 729529, 729938, 730362, 730754, 731159, 731574, 731921, 732235, 732514, 732801, 733080, 733403, 733788, 734087]","[725084, 725482, 725882, 726282, 726682, 727083, 727482, 727882, 728250, 728671, 729089, 729488, 729890, 730298, 730693, 731128, 731511, 731870, 732183, 732480, 732776, 733361, 733713, 734026]",13,R,ITM,1.1,
5,400,trial,0,34,34,34,trial,"['S', 'S', 'S', 'S', 'S', 'S', 'S', 'S', 'C', 'C', 'C', 'C', 'C', 'C', 'C', 'C', 'C', 'C', 'C', 'C', 'C', 'C', 'C', 'C', 'C', 'C']","[739971, 740337, 740662, 741042, 741454, 741839, 742222, 742558, 742910, 743268, 743565, 743843, 744108, 744374, 744662, 744926, 745171, 745500, 745864, 746251, 746616, 747001, 747346, 747694, 748065, 748451]","[740101, 740445, 740777, 741104, 741540, 741957, 742329, 742656, 743033, 743383, 743659, 743941, 744205, 744492, 744779, 745034, 745313, 745677, 746028, 746391, 746752, 747113, 747455, 747797, 748170, 748561]","[739637, 740037, 740438, 740837, 741237, 741638, 742037, 742437, 742936, 743294, 743590, 743869, 744400, 744687, 745198, 745526, 745889, 746276, 746643, 747027, 747372, 747719, 748092, 748477]",13,R,ITM,1.1,
2,400,trial,0,35,35,35,trial,"['S', 'S', 'S', 'S', 'S', 'S', 'S', 'C', 'C', 'C', 'C', 'C', 'C', 'C', 'C', 'C', 'C', 'C', 'C', 'C', 'C', 'C', 'C', 'C', 'C', 'C']","[753988, 754476, 754871, 755263, 755639, 756019, 756430, 756826, 757203, 757538, 757861, 758194, 758512, 758838, 759147, 759443, 759755, 760015, 760541, 760861, 761106, 761328, 761550, 761801, 762257, 762632]","[754199, 754620, 754989, 755369, 755727, 756117, 756517, 756940, 757281, 757619, 757941, 758264, 758582, 758883, 759192, 759518, 759823, 760109, 760627, 760945, 761163, 761406, 761651, 761925, 762376, 762732]","[753769, 754169, 754569, 754968, 755369, 755769, 756169, 756570, 756853, 757230, 757565, 757888, 758220, 758540, 758864, 759174, 759470, 759782, 760567, 760888, 761356, 761829, 762284, 762658]",13,R,ITM,1.1,
7,400,trial,0,36,36,36,trial,"['S', 'S', 'S', 'S', 'S', 'S', 'S', 'C', 'C', 'C', 'C', 'C', 'C', 'C', 'C', 'C', 'C', 'C', 'C', 'C', 'C', 'C', 'C', 'C', 'C']","[768628, 769052, 769474, 769909, 770320, 770709, 771137, 771514, 771829, 772102, 772356, 772597, 772940, 773300, 773667, 774006, 774343, 774705, 775047, 775380, 775743, 776056, 776389, 776649, 776996]","[768737, 769153, 769581, 770001, 770413, 770793, 771219, 771591, 771897, 772179, 772425, 772685, 773046, 773404, 773747, 774092, 774432, 774791, 775138, 775486, 775849, 776159, 776463, 776722, 777073]","[768434, 768832, 769232, 769632, 770032, 770433, 770832, 771232, 771540, 771857, 772128, 772625, 772968, 773327, 773694, 774034, 774371, 774732, 775073, 775406, 775771, 776084, 776416, 777023]",13,R,ITM,1.1,
6,400,trial,0,37,37,37,trial,"['S', 'S', 'S', 'S', 'S', 'S', 'S', 'C', 'C', 'C', 'C', 'C', 'C', 'C', 'C', 'C', 'C', 'C', 'C', 'C', 'C', 'C', 'C']","[782623, 783064, 783466, 783897, 784269, 784680, 785084, 785473, 785853, 786203, 786555, 786891, 787225, 787571, 787895, 788230, 788563, 788911, 789269, 789651, 790036, 790318, 790680]","[782712, 783143, 783537, 783963, 784367, 784757, 785175, 785563, 785927, 786266, 786621, 786989, 787319, 787616, 787946, 788307, 788605, 788986, 789345, 789725, 790102, 790418, 790739]","[782338, 782736, 783136, 783537, 783936, 784336, 784736, 785136, 785501, 785880, 786230, 786583, 786918, 787252, 787598, 787921, 788256, 788591, 788937, 789296, 789678, 790063, 790344, 790707]",13,R,ITM,1.1,
5,400,trial,0,38,38,38,trial,"['S', 'S', 'S', 'S', 'S', 'S', 'S', 'C', 'C', 'C', 'C', 'C', 'C', 'C', 'C', 'C', 'C', 'C', 'C', 'C', 'C', 'C', 'C']","[796451, 796912, 797344, 797723, 798119, 798533, 798966, 799338, 799703, 800103, 800458, 800805, 801146, 801505, 801866, 802238, 802593, 802955, 803333, 803699, 804094, 804409, 804782]","[796544, 796974, 797401, 797807, 798218, 798620, 799041, 799405, 799788, 800185, 800535, 800911, 801252, 801574, 801940, 802306, 802656, 803040, 803372, 803770, 804162, 804512, 804867]","[796188, 796589, 796988, 797388, 797789, 798189, 798589, 798989, 799364, 799728, 800129, 800484, 800831, 801172, 801531, 801892, 802265, 802619, 802980, 803358, 803725, 804121, 804434, 804808]",13,R,ITM,1.1,
3,600,trial,0,39,39,39,trial,"['S', 'S', 'S', 'S', 'S', 'S', 'S', 'C', 'C', 'C', 'C', 'C', 'C', 'C', 'C', 'C', 'C', 'C', 'C', 'C', 'C', 'C', 'C']","[810481, 811217, 811849, 812443, 813050, 813594, 814226, 814820, 815303, 815769, 816239, 816716, 817232, 817737, 818203, 818711, 819189, 819677, 820128, 820604, 821120, 821585, 822042]","[810568, 811305, 811930, 812535, 813134, 813673, 814268, 814898, 815365, 815851, 816317, 816805, 817311, 817815, 818285, 818753, 819266, 819730, 820213, 820681, 821203, 821670, 822126]","[810224, 810823, 811423, 812023, 812623, 813223, 813824, 814424, 814845, 815329, 815795, 816265, 816742, 817258, 817763, 818229, 818737, 819215, 819702, 820154, 820630, 821145, 821611, 822068]",13,R,ITM,1.1,
3,400,trial,0,40,40,40,trial,"['S', 'S', 'S', 'S', 'S', 'S', 'S', 'C', 'C', 'C', 'C', 'C', 'C', 'C', 'C', 'C', 'C', 'C', 'C', 'C', 'C', 'C', 'C']","[828139, 828550, 829012, 829379, 829810, 830198, 830615, 831006, 831430, 831890, 832316, 832755, 833205, 833639, 834137, 834585, 835072, 835500, 835989, 836398, 836847, 837306, 837743]","[828210, 828628, 829069, 829458, 829869, 830282, 830678, 831092, 831512, 831974, 832413, 832847, 833284, 833746, 834225, 834652, 835152, 835602, 836057, 836490, 836936, 837365, 837834]","[827774, 828174, 828574, 828975, 829374, 829774, 830174, 830574, 831032, 831456, 831916, 832342, 832781, 833230, 833665, 834162, 834611, 835097, 835525, 836015, 836423, 836873, 837331, 837769]",13,R,ITM,1.1,
2,400,trial,0,41,41,41,trial,"['S', 'S', 'S', 'S', 'S', 'S', 'S', 'C', 'C', 'C', 'C', 'C', 'C', 'C', 'C', 'C', 'C', 'C', 'C', 'C', 'C', 'C', 'C']","[843593, 844026, 844441, 844855, 845262, 845657, 846043, 846471, 846860, 847268, 847662, 848133, 848519, 848921, 849319, 849725, 850141, 850524, 850884, 851295, 851660, 852028, 852397]","[843689, 844115, 844536, 844897, 845295, 845707, 846094, 846508, 846918, 847306, 847724, 848160, 848567, 848949, 849350, 849781, 850171, 850565, 850967, 851333, 851740, 852098, 852471]","[843276, 843675, 844077, 844476, 844876, 845277, 845676, 846076, 846497, 846886, 847296, 847688, 848160, 848545, 848949, 849346, 849752, 850168, 850551, 850912, 851322, 851688, 852055, 852424]",13,R,ITM,1.1,
4,600,trial,0,42,42,42,trial,"['S', 'S', 'S', 'S', 'S', 'S', 'S', 'C', 'C', 'C', 'C', 'C', 'C', 'C', 'C', 'C', 'C', 'C', 'C', 'C', 'C', 'C', 'C']","[860122, 860704, 861430, 861990, 862611, 863201, 863781, 864370, 864880, 865387, 865876, 866354, 866869, 867362, 867847, 868346, 868810, 869295, 869793, 870228, 870718, 871227, 871729]","[860195, 860800, 861488, 862065, 862678, 863280, 863869, 864458, 864956, 865465, 865976, 866446, 866922, 867444, 867937, 868409, 868888, 869374, 869876, 870315, 870799, 871302, 871813]","[859781, 860380, 860979, 861579, 862179, 862779, 863379, 863979, 864396, 864906, 865413, 865903, 866379, 866894, 867389, 867872, 868372, 868836, 869320, 869819, 870255, 870744, 871252, 871754]",13,R,ITM,1.1,
4,600,trial,0,43,43,43,trial,"['S', 'S', 'S', 'S', 'S', 'S', 'S', 'C', 'C', 'C', 'C', 'C', 'C', 'C', 'C', 'C', 'C', 'C', 'C', 'C', 'C', 'C', 'C']","[877798, 878531, 879168, 879792, 880360, 880921, 881498, 882054, 882579, 883111, 883628, 884143, 884644, 885135, 885629, 886088, 886554, 887026, 887498, 887975, 888414, 888851, 889359]","[877913, 878631, 879298, 879890, 880456, 881042, 881604, 882170, 882653, 883198, 883735, 884227, 884721, 885199, 885710, 886175, 886634, 887105, 887571, 888049, 888483, 888941, 889422]","[877465, 878064, 878664, 879264, 879864, 880464, 881064, 881665, 882079, 882605, 883137, 883653, 884168, 884670, 885160, 885655, 886114, 886580, 887053, 887524, 888001, 888439, 888878, 889384]",13,R,ITM,1.1,
5,600,trial,0,44,44,44,trial,"['S', 'S', 'S', 'S', 'S', 'S', 'S', 'C', 'C', 'C', 'C', 'C', 'C', 'C', 'C', 'C', 'C', 'C', 'C', 'C', 'C', 'C', 'C']","[895634, 896071, 896645, 897360, 897895, 898454, 899062, 899637, 900140, 900668, 901214, 901720, 902296, 902847, 903387, 903900, 904425, 904902, 905431, 905970, 906511, 907035, 907559]","[895700, 896109, 896712, 897428, 897959, 898534, 899140, 899717, 900210, 900774, 901281, 901783, 902375, 902923, 903475, 903974, 904500, 904977, 905479, 905996, 906577, 907094, 907636]","[894972, 895571, 896172, 896772, 897372, 897971, 898571, 899171, 899663, 900166, 900694, 901239, 901746, 902322, 902874, 903412, 903925, 904451, 904928, 905457, 905996, 906536, 907061, 907585]",13,R,ITM,1.1,
2,600,trial,0,45,45,45,trial,"['S', 'S', 'S', 'S', 'S', 'S', 'S', 'S', 'C', 'C', 'C', 'C', 'C', 'C', 'C', 'C', 'C', 'C', 'C', 'C', 'C', 'C', 'C', 'C']","[913306, 913759, 914405, 915048, 915539, 916147, 916717, 917443, 917960, 918481, 918973, 919488, 919979, 920472, 920969, 921435, 921921, 922400, 922893, 923362, 923855, 924343, 924839, 925338]","[913381, 913830, 914480, 915106, 915606, 916201, 916798, 917507, 918046, 918521, 919044, 919557, 920044, 920537, 921024, 921499, 921979, 922467, 922956, 923432, 923912, 924394, 924908, 925399]","[913306, 913906, 914506, 915106, 915706, 916305, 916907, 917507, 917987, 918509, 919001, 919515, 920006, 920499, 920996, 921462, 921949, 922428, 922919, 923389, 923883, 924369, 924866, 925366]",13,R,ITM,1.1,
4,400,trial,0,46,46,46,trial,"['S', 'S', 'S', 'S', 'S', 'S', 'S', 'C', 'C', 'C', 'C', 'C', 'C', 'C', 'C', 'C', 'C', 'C', 'C', 'C', 'C', 'C', 'C']","[931154, 931616, 931895, 932304, 932744, 933132, 933545, 933938, 934333, 934779, 935203, 935630, 936072, 936497, 936993, 937434, 937883, 938349, 938775, 939207, 939646, 940113, 940544]","[931234, 931694, 931958, 932324, 932779, 933191, 933593, 933994, 934397, 934832, 935266, 935681, 936134, 936573, 937048, 937510, 937970, 938438, 938875, 939282, 939708, 940161, 940614]","[930754, 931154, 931554, 931954, 932355, 932754, 933154, 933554, 933963, 934359, 934805, 935229, 935656, 936097, 936522, 937019, 937459, 937909, 938375, 938801, 939233, 939672, 940139, 940569]",13,R,ITM,1.1,
6,400,trial,0,47,47,47,trial,"['S', 'S', 'S', 'S', 'S', 'S', 'S', 'C', 'C', 'C', 'C', 'C', 'C', 'C', 'C', 'C', 'C', 'C', 'C', 'C', 'C', 'C', 'C', 'C', 'C', 'C']","[946438, 946851, 947243, 947622, 948032, 948414, 948777, 949227, 949579, 949934, 950254, 950579, 950957, 951280, 951587, 951920, 952233, 952522, 952837, 953094, 953297, 953488, 953670, 953893, 954148, 954563]","[946528, 946925, 947301, 947699, 948094, 948469, 948837, 949276, 949650, 950003, 950310, 950648, 951005, 951353, 951675, 951988, 952309, 952603, 952904, 953167, 953357, 953558, 953745, 953965, 954227, 954649]","[946096, 946494, 946894, 947294, 947694, 948094, 948494, 948894, 949254, 949606, 949960, 950281, 950605, 950983, 951307, 951614, 951947, 952260, 952550, 952864, 953324, 953698, 954175, 954591]",13,R,ITM,1.1,
7,600,trial,0,48,48,48,trial,"['S', 'S', 'S', 'S', 'S', 'S', 'S', 'C', 'C', 'C', 'C', 'C', 'C', 'C', 'C', 'C', 'C', 'C', 'C', 'C', 'C', 'C', 'C']","[960494, 961124, 961759, 962358, 962972, 963579, 964180, 964781, 965268, 965718, 966161, 966639, 967133, 967597, 968008, 968513, 968995, 969525, 969996, 970502, 970977, 971491, 971970]","[960564, 961215, 961838, 962420, 963031, 963651, 964246, 964841, 965337, 965788, 966234, 966680, 967211, 967666, 968094, 968573, 969073, 969597, 970065, 970553, 971048, 971539, 972047]","[960190, 960789, 961389, 961989, 962589, 963189, 963789, 964389, 964807, 965295, 965745, 966188, 966667, 967159, 967624, 968035, 968541, 969023, 969552, 970022, 970528, 971003, 971518, 971998]",13,R,ITM,1.1,
4,400,trial,0,49,49,49,trial,"['S', 'S', 'S', 'S', 'S', 'S', 'S', 'C', 'C', 'C', 'C', 'C', 'C', 'C', 'C', 'C', 'C', 'C', 'C', 'C', 'C', 'C', 'C']","[977588, 978101, 978533, 978925, 979331, 979720, 980077, 980465, 980882, 981269, 981760, 982181, 982616, 983021, 983477, 983938, 984349, 984780, 985239, 985687, 986124, 986535, 986991]","[977653, 978121, 978577, 978991, 979387, 979760, 980151, 980538, 980943, 981354, 981811, 982234, 982693, 983109, 983552, 984024, 984445, 984842, 985282, 985748, 986188, 986635, 987060]","[977321, 977720, 978120, 978521, 978920, 979320, 979720, 980120, 980491, 980908, 981295, 981785, 982207, 982641, 983047, 983502, 983963, 984375, 984806, 985265, 985712, 986149, 986562, 987017]",13,R,ITM,1.1,
6,600,trial,0,50,50,50,trial,"['S', 'S', 'S', 'S', 'S', 'S', 'S', 'C', 'C', 'C', 'C', 'C', 'C', 'C', 'C', 'C', 'C', 'C', 'C', 'C', 'C', 'C', 'C']","[992614, 993441, 994105, 994813, 995396, 996076, 996656, 997236, 997723, 998200, 998667, 999174, 999643, 1000156, 1000645, 1001127, 1001628, 1002176, 1002663, 1003175, 1003702, 1004208, 1004739]","[992678, 993489, 994161, 994853, 995465, 996143, 996733, 997320, 997794, 998254, 998711, 999252, 999731, 1000212, 1000736, 1001221, 1001706, 1002243, 1002740, 1003230, 1003753, 1004277, 1004795]","[992596, 993196, 993796, 994396, 994995, 995595, 996195, 996795, 997263, 997749, 998226, 998693, 999200, 999669, 1000182, 1000672, 1001154, 1001656, 1002203, 1002691, 1003202, 1003728, 1004234, 1004767]",13,R,ITM,1.1,
7,600,trial,0,51,51,51,trial,"['S', 'S', 'S', 'S', 'S', 'S', 'S', 'C', 'C', 'C', 'C', 'C', 'C', 'C', 'C', 'C', 'C', 'C', 'C', 'C', 'C', 'C', 'C']","[1010656, 1011312, 1011964, 1012645, 1013278, 1013886, 1014510, 1015113, 1015636, 1016184, 1016717, 1017251, 1017811, 1018303, 1018863, 1019364, 1019909, 1020431, 1020972, 1021494, 1022031, 1022540, 1023008]","[1010722, 1011360, 1012054, 1012736, 1013372, 1013966, 1014582, 1015159, 1015688, 1016232, 1016785, 1017329, 1017881, 1018398, 1018911, 1019451, 1019990, 1020491, 1021039, 1021545, 1022097, 1022592, 1023060]","[1010405, 1011004, 1011604, 1012204, 1012804, 1013404, 1014004, 1014604, 1015141, 1015663, 1016212, 1016743, 1017278, 1017839, 1018331, 1018890, 1019390, 1019935, 1020459, 1020998, 1021521, 1022058, 1022568, 1023035]",13,R,ITM,1.1,
2,600,trial,0,52,52,52,trial,"['S', 'S', 'S', 'S', 'S', 'S', 'S', 'C', 'C', 'C', 'C', 'C', 'C', 'C', 'C', 'C', 'C', 'C', 'C', 'C', 'C', 'C', 'C']","[1028738, 1029504, 1030209, 1030822, 1031434, 1032024, 1032617, 1033204, 1033799, 1034397, 1035023, 1035628, 1036274, 1036918, 1037547, 1038171, 1038800, 1039407, 1040018, 1040614, 1041215, 1041816, 1042441]","[1028830, 1029560, 1030287, 1030882, 1031504, 1032098, 1032702, 1033298, 1033860, 1034466, 1035098, 1035734, 1036354, 1036983, 1037603, 1038231, 1038843, 1039470, 1040058, 1040684, 1041272, 1041896, 1042484]","[1028469, 1029069, 1029669, 1030268, 1030870, 1031470, 1032070, 1032670, 1033231, 1033826, 1034424, 1035049, 1035655, 1036301, 1036946, 1037575, 1038197, 1038828, 1039434, 1040045, 1040642, 1041243, 1041844, 1042468]",13,R,ITM,1.1,
5,600,trial,0,53,53,53,trial,"['S', 'S', 'S', 'S', 'S', 'S', 'S', 'C', 'C', 'C', 'C', 'C', 'C', 'C', 'C', 'C', 'C', 'C', 'C', 'C', 'C', 'C', 'C']","[1048256, 1048946, 1049518, 1050068, 1050730, 1051371, 1052028, 1052613, 1053180, 1053753, 1054355, 1054924, 1055513, 1056089, 1056648, 1057212, 1057789, 1058333, 1058880, 1059426, 1060585, 1061384, 1062050]","[1048353, 1049028, 1049579, 1050153, 1050779, 1051440, 1052048, 1052660, 1053242, 1053814, 1054400, 1054994, 1055559, 1056156, 1056674, 1057263, 1057836, 1058397, 1058923, 1059465, 1060646, 1061450, 1062109]","[1047780, 1048379, 1048979, 1049579, 1050179, 1050779, 1051379, 1051979, 1052639, 1053206, 1053778, 1054381, 1054950, 1055539, 1056114, 1056674, 1057238, 1057816, 1058359, 1058906, 1059452, 1060611, 1061409, 1062077]",13,R,ITM,1.1,
7,400,trial,0,54,54,54,trial,"['S', 'S', 'S', 'S', 'S', 'S', 'S', 'C', 'C', 'C', 'C', 'C', 'C', 'C', 'C', 'C', 'C', 'C', 'C', 'C', 'C', 'C', 'C']","[1070393, 1070843, 1071210, 1071580, 1071970, 1072381, 1072756, 1073139, 1073582, 1073957, 1074344, 1074694, 1075032, 1075355, 1075671, 1075992, 1076329, 1076658, 1076999, 1077330, 1077668, 1077998, 1078359]","[1070529, 1070916, 1071278, 1071640, 1072043, 1072454, 1072813, 1073229, 1073614, 1074015, 1074371, 1074751, 1075080, 1075412, 1075736, 1076047, 1076405, 1076744, 1077039, 1077383, 1077751, 1078078, 1078433]","[1069980, 1070380, 1070779, 1071179, 1071580, 1071979, 1072379, 1072779, 1073167, 1073608, 1073984, 1074371, 1074720, 1075059, 1075383, 1075697, 1076019, 1076356, 1076684, 1077025, 1077358, 1077696, 1078026, 1078386]",13,R,ITM,1.1,
2,400,trial,0,55,55,55,trial,"['S', 'S', 'S', 'S', 'S', 'S', 'S', 'C', 'C', 'C', 'C', 'C', 'C', 'C', 'C', 'C', 'C', 'C', 'C', 'C', 'C', 'C', 'C']","[1084490, 1084918, 1085266, 1085691, 1086080, 1086496, 1086873, 1087325, 1087704, 1088067, 1088424, 1088811, 1089174, 1089555, 1089921, 1090313, 1090682, 1091038, 1091426, 1091779, 1092130, 1092519, 1092862]","[1084569, 1084979, 1085342, 1085716, 1086138, 1086547, 1086954, 1087389, 1087779, 1088158, 1088516, 1088869, 1089230, 1089632, 1089995, 1090375, 1090771, 1091128, 1091509, 1091873, 1092189, 1092568, 1092909]","[1084169, 1084569, 1084968, 1085369, 1085769, 1086170, 1086568, 1086968, 1087351, 1087731, 1088095, 1088451, 1088838, 1089202, 1089583, 1089947, 1090339, 1090710, 1091065, 1091453, 1091806, 1092157, 1092546, 1092889]",13,R,ITM,1.1,
4,600,trial,0,56,56,56,trial,"['S', 'S', 'S', 'S', 'S', 'S', 'S', 'C', 'C', 'C', 'C', 'C', 'C', 'C', 'C', 'C', 'C', 'C', 'C', 'C', 'C', 'C', 'C']","[1099049, 1099728, 1100348, 1100969, 1101519, 1102154, 1102740, 1103357, 1103865, 1104389, 1104893, 1105401, 1105847, 1106360, 1106808, 1107297, 1107720, 1108226, 1108678, 1109113, 1109574, 1109967, 1110452]","[1099098, 1099794, 1100418, 1101030, 1101606, 1102209, 1102830, 1103424, 1103943, 1104463, 1104943, 1105467, 1105932, 1106410, 1106876, 1107365, 1107802, 1108279, 1108749, 1109198, 1109653, 1110091, 1110499]","[1098643, 1099242, 1099842, 1100442, 1101042, 1101642, 1102242, 1102842, 1103383, 1103891, 1104415, 1104919, 1105427, 1105872, 1106385, 1106834, 1107322, 1107745, 1108251, 1108704, 1109139, 1109600, 1109994, 1110477]",13,R,ITM,1.1,
6,400,trial,0,57,57,57,trial,"['S', 'S', 'S', 'S', 'S', 'S', 'S', 'C', 'C', 'C', 'C', 'C', 'C', 'C', 'C', 'C', 'C', 'C', 'C', 'C', 'C', 'C', 'C']","[1116104, 1116600, 1117005, 1117406, 1117772, 1118169, 1118613, 1119007, 1119405, 1119861, 1120234, 1120661, 1121081, 1121447, 1121901, 1122296, 1122678, 1123090, 1123531, 1123937, 1124403, 1124831, 1125277]","[1116174, 1116675, 1117068, 1117465, 1117855, 1118264, 1118675, 1119062, 1119474, 1119918, 1120300, 1120717, 1121123, 1121525, 1121929, 1122342, 1122748, 1123117, 1123559, 1124023, 1124474, 1124913, 1125370]","[1115844, 1116243, 1116643, 1117043, 1117444, 1117843, 1118243, 1118643, 1119034, 1119431, 1119888, 1120262, 1120688, 1121108, 1121474, 1121929, 1122323, 1122705, 1123117, 1123559, 1123963, 1124429, 1124857, 1125304]",13,R,ITM,1.1,
5,400,trial,0,58,58,58,trial,"['S', 'S', 'S', 'S', 'S', 'S', 'S', 'C', 'C', 'C', 'C', 'C', 'C', 'C', 'C', 'C', 'C', 'C', 'C', 'C', 'C', 'C', 'C']","[1130916, 1131359, 1131771, 1132166, 1132569, 1132969, 1133376, 1133751, 1134189, 1134499, 1134857, 1135238, 1135632, 1136027, 1136462, 1136871, 1137293, 1137746, 1138162, 1138614, 1139025, 1139448, 1139939]","[1130976, 1131394, 1131840, 1132229, 1132633, 1133046, 1133428, 1133824, 1134227, 1134584, 1134942, 1135305, 1135708, 1136111, 1136529, 1136948, 1137375, 1137820, 1138259, 1138714, 1139107, 1139493, 1140004]","[1130627, 1131025, 1131425, 1131826, 1132226, 1132626, 1133026, 1133426, 1133776, 1134215, 1134525, 1134882, 1135263, 1135657, 1136053, 1136488, 1136897, 1137318, 1137772, 1138189, 1138639, 1139052, 1139474, 1139964]",13,R,ITM,1.1,
2,400,trial,0,59,59,59,trial,"['S', 'S', 'S', 'S', 'S', 'S', 'S', 'C', 'C', 'C', 'C', 'C', 'C', 'C', 'C', 'C', 'C', 'C', 'C', 'C', 'C', 'C', 'C']","[1145797, 1146147, 1146514, 1146894, 1147274, 1147718, 1148107, 1148522, 1148925, 1149316, 1149715, 1150128, 1150528, 1150916, 1151335, 1151789, 1152177, 1152625, 1153033, 1153478, 1153899, 1154301, 1154771]","[1145864, 1146212, 1146558, 1146958, 1147325, 1147738, 1148160, 1148576, 1149000, 1149392, 1149791, 1150196, 1150599, 1150997, 1151392, 1151847, 1152268, 1152688, 1153115, 1153506, 1153969, 1154379, 1154810]","[1145358, 1145758, 1146159, 1146558, 1146958, 1147359, 1147758, 1148160, 1148549, 1148953, 1149343, 1149743, 1150155, 1150556, 1150943, 1151362, 1151815, 1152204, 1152652, 1153060, 1153505, 1153927, 1154329, 1154798]",13,R,ITM,1.1,
3,600,trial,0,60,60,60,trial,"['S', 'S', 'S', 'S', 'S', 'S', 'S', 'C', 'C', 'C', 'C', 'C', 'C', 'C', 'C', 'C', 'C', 'C', 'C', 'C', 'C', 'C', 'C']","[1160502, 1161232, 1161924, 1162555, 1163173, 1163808, 1164368, 1164984, 1165500, 1166034, 1166583, 1167094, 1167598, 1168140, 1168638, 1169153, 1169690, 1170132, 1170641, 1171153, 1171638, 1172094, 1172559]","[1160576, 1161322, 1161995, 1162626, 1163272, 1163860, 1164448, 1165078, 1165566, 1166092, 1166651, 1167182, 1167681, 1168191, 1168718, 1169226, 1169753, 1170232, 1170697, 1171179, 1171693, 1172149, 1172624]","[1160289, 1160888, 1161488, 1162088, 1162688, 1163288, 1163888, 1164488, 1165009, 1165526, 1166060, 1166609, 1167120, 1167624, 1168165, 1168663, 1169178, 1169716, 1170158, 1170667, 1171179, 1171663, 1172120, 1172585]",13,R,ITM,1.1,
5,600,trial,0,61,61,61,trial,"['S', 'S', 'S', 'S', 'S', 'S', 'S', 'C', 'C', 'C', 'C', 'C', 'C', 'C', 'C', 'C', 'C', 'C', 'C', 'C', 'C', 'C', 'C']","[1178379, 1179066, 1179839, 1180413, 1181073, 1181622, 1182234, 1182882, 1183390, 1183918, 1184460, 1184940, 1185473, 1185957, 1186511, 1187030, 1187519, 1188046, 1188580, 1189103, 1189627, 1190130, 1190726]","[1178430, 1179126, 1179898, 1180485, 1181137, 1181702, 1182332, 1182972, 1183479, 1184008, 1184547, 1185062, 1185572, 1186060, 1186577, 1187099, 1187605, 1188122, 1188660, 1189177, 1189703, 1190196, 1190752]","[1178133, 1178732, 1179332, 1179932, 1180532, 1181132, 1181732, 1182332, 1182908, 1183416, 1183943, 1184486, 1184965, 1185500, 1185984, 1186538, 1187055, 1187546, 1188072, 1188605, 1189129, 1189653, 1190156, 1190752]",13,R,ITM,1.1,
5,400,trial,0,62,62,62,trial,"['S', 'S', 'S', 'S', 'S', 'S', 'S', 'C', 'C', 'C', 'C', 'C', 'C', 'C', 'C', 'C', 'C', 'C', 'C', 'C', 'C', 'C', 'C']","[1196475, 1196965, 1197357, 1197716, 1198169, 1198578, 1198972, 1199399, 1199789, 1200164, 1200559, 1200940, 1201353, 1201744, 1202196, 1202600, 1203066, 1203489, 1203987, 1204491, 1204990, 1205533, 1206034]","[1196531, 1197012, 1197440, 1197806, 1198234, 1198658, 1199052, 1199476, 1199855, 1200223, 1200610, 1200992, 1201401, 1201816, 1202249, 1202692, 1203143, 1203590, 1204055, 1204564, 1205081, 1205560, 1206095]","[1196188, 1196588, 1196987, 1197387, 1197788, 1198187, 1198587, 1198987, 1199425, 1199814, 1200190, 1200584, 1200965, 1201379, 1201770, 1202223, 1202626, 1203092, 1203516, 1204013, 1204516, 1205017, 1205560, 1206060]",13,R,ITM,1.1,
7,400,trial,0,63,63,63,trial,"['S', 'S', 'S', 'S', 'S', 'S', 'S', 'C', 'C', 'C', 'C', 'C', 'C', 'C', 'C', 'C', 'C', 'C', 'C', 'C', 'C', 'C', 'C', 'C']","[1212049, 1212467, 1212805, 1213218, 1213578, 1213966, 1214367, 1214759, 1215115, 1215422, 1215676, 1215962, 1216344, 1216728, 1217136, 1217525, 1217926, 1218330, 1218701, 1219093, 1219496, 1219910, 1220297, 1220743]","[1212139, 1212545, 1212876, 1213286, 1213642, 1213993, 1214387, 1214826, 1215178, 1215469, 1215742, 1216038, 1216419, 1216805, 1217214, 1217600, 1218008, 1218383, 1218785, 1219151, 1219556, 1219971, 1220372, 1220795]","[1211686, 1212085, 1212485, 1212886, 1213285, 1213685, 1214086, 1214485, 1214786, 1215141, 1215449, 1215989, 1216370, 1216755, 1217164, 1217553, 1217952, 1218358, 1218727, 1219120, 1219523, 1219937, 1220325, 1220770]",13,R,ITM,1.1,
4,400,trial,0,64,64,64,trial,"['S', 'S', 'S', 'S', 'S', 'S', 'S', 'C', 'C', 'C', 'C', 'C', 'C', 'C', 'C', 'C', 'C', 'C', 'C', 'C', 'C', 'C', 'C']","[1226588, 1227036, 1227470, 1227834, 1228251, 1228658, 1229042, 1229424, 1229833, 1230238, 1230614, 1231022, 1231450, 1231845, 1232269, 1232698, 1233095, 1233509, 1233931, 1234325, 1234737, 1235149, 1235591]","[1226679, 1227143, 1227547, 1227943, 1228316, 1228707, 1229105, 1229526, 1229898, 1230322, 1230728, 1231122, 1231541, 1231938, 1232345, 1232766, 1233195, 1233595, 1233996, 1234403, 1234804, 1235239, 1235665]","[1226343, 1226743, 1227143, 1227543, 1227943, 1228343, 1228743, 1229144, 1229450, 1229858, 1230264, 1230640, 1231047, 1231475, 1231870, 1232294, 1232723, 1233121, 1233536, 1233957, 1234351, 1234762, 1235175, 1235617]",13,R,ITM,1.1,
5,600,trial,0,65,65,65,trial,"['S', 'S', 'S', 'S', 'S', 'S', 'S', 'C', 'C', 'C', 'C', 'C', 'C', 'C', 'C', 'C', 'C', 'C', 'C', 'C', 'C', 'C', 'C']","[1241122, 1241930, 1242693, 1243289, 1243918, 1244524, 1245108, 1245682, 1246211, 1246743, 1247267, 1247777, 1248286, 1248759, 1249277, 1249772, 1250284, 1250764, 1251271, 1251778, 1252246, 1252736, 1253225]","[1241187, 1242024, 1242777, 1243369, 1244010, 1244601, 1245188, 1245787, 1246274, 1246825, 1247331, 1247831, 1248355, 1248839, 1249340, 1249860, 1250341, 1250838, 1251342, 1251840, 1252327, 1252811, 1253287]","[1241069, 1241669, 1242269, 1242869, 1243469, 1244069, 1244669, 1245270, 1245708, 1246237, 1246770, 1247293, 1247803, 1248312, 1248785, 1249304, 1249798, 1250310, 1250791, 1251297, 1251804, 1252273, 1252761, 1253251]",13,R,ITM,1.1,
3,400,trial,0,66,66,66,trial,"['S', 'S', 'S', 'S', 'S', 'S', 'S', 'C', 'C', 'C', 'C', 'C', 'C', 'C', 'C', 'C', 'C', 'C', 'C', 'C', 'C', 'C', 'C']","[1258909, 1259392, 1259809, 1260193, 1260615, 1261010, 1261429, 1261846, 1262267, 1262703, 1263149, 1263609, 1264084, 1264540, 1265002, 1265498, 1265965, 1266488, 1266954, 1267459, 1267939, 1268414, 1268927]","[1258995, 1259454, 1259857, 1260270, 1260677, 1261086, 1261512, 1261929, 1262340, 1262776, 1263225, 1263694, 1264163, 1264617, 1265084, 1265575, 1266048, 1266533, 1267046, 1267527, 1267995, 1268484, 1268994]","[1258653, 1259054, 1259453, 1259853, 1260253, 1260653, 1261053, 1261453, 1261872, 1262292, 1262729, 1263174, 1263635, 1264110, 1264566, 1265028, 1265523, 1265990, 1266513, 1266979, 1267484, 1267964, 1268440, 1268953]",13,R,ITM,1.1,
2,600,trial,0,67,67,67,trial,"['S', 'S', 'S', 'S', 'S', 'S', 'S', 'C', 'C', 'C', 'C', 'C', 'C', 'C', 'C', 'C', 'C', 'C', 'C', 'C', 'C', 'C', 'C']","[1274810, 1275523, 1276180, 1276789, 1277386, 1277984, 1278621, 1279204, 1279693, 1280211, 1280683, 1281170, 1281617, 1282056, 1282558, 1283020, 1283488, 1283982, 1284531, 1285005, 1285474, 1286004, 1286437]","[1274901, 1275607, 1276252, 1276876, 1277467, 1278081, 1278690, 1279273, 1279738, 1280238, 1280740, 1281213, 1281683, 1282127, 1282598, 1283076, 1283563, 1284058, 1284610, 1285080, 1285566, 1286093, 1286516]","[1274561, 1275161, 1275761, 1276361, 1276960, 1277561, 1278161, 1278761, 1279232, 1279720, 1280238, 1280709, 1281197, 1281645, 1282083, 1282585, 1283048, 1283516, 1284008, 1284558, 1285032, 1285501, 1286032, 1286465]",13,R,ITM,1.1,
4,600,trial,0,68,68,68,trial,"['S', 'S', 'S', 'S', 'S', 'S', 'S', 'C', 'C', 'C', 'C', 'C', 'C', 'C', 'C', 'C', 'C', 'C', 'C', 'C', 'C', 'C', 'C']","[1292424, 1293126, 1293861, 1294446, 1295025, 1295621, 1296238, 1296791, 1297340, 1297864, 1298433, 1298945, 1299431, 1299932, 1300392, 1300926, 1301454, 1301976, 1302492, 1303026, 1303526, 1304047, 1304550]","[1292444, 1293230, 1293921, 1294533, 1295113, 1295711, 1296315, 1296904, 1297406, 1297942, 1298485, 1299019, 1299516, 1300031, 1300468, 1300993, 1301510, 1302054, 1302573, 1303116, 1303599, 1304117, 1304620]","[1292157, 1292756, 1293357, 1293957, 1294557, 1295157, 1295757, 1296357, 1296818, 1297366, 1297891, 1298458, 1298970, 1299457, 1299958, 1300418, 1300952, 1301480, 1302001, 1302517, 1303052, 1303552, 1304073, 1304576]",13,R,ITM,1.1,
7,600,trial,0,69,69,69,trial,"['S', 'S', 'S', 'S', 'S', 'S', 'S', 'C', 'C', 'C', 'C', 'C', 'C', 'C', 'C', 'C', 'C', 'C', 'C', 'C', 'C', 'C', 'C']","[1310374, 1311170, 1311750, 1312423, 1312962, 1313538, 1314164, 1314754, 1315273, 1315779, 1316297, 1316838, 1317329, 1317842, 1318361, 1318888, 1319375, 1319933, 1320413, 1320969, 1321479, 1322011, 1322530]","[1310419, 1311230, 1311831, 1312487, 1313020, 1313612, 1314211, 1314814, 1315338, 1315843, 1316369, 1316908, 1317410, 1317903, 1318419, 1318964, 1319411, 1319973, 1320485, 1321043, 1321523, 1322065, 1322599]","[1310098, 1310697, 1311297, 1311897, 1312497, 1313097, 1313697, 1314297, 1314782, 1315301, 1315807, 1316325, 1316866, 1317356, 1317870, 1318387, 1318915, 1319403, 1319960, 1320440, 1320996, 1321505, 1322038, 1322557]",13,R,ITM,1.1,
7,600,trial,0,70,70,70,trial,"['S', 'S', 'S', 'S', 'S', 'S', 'S', 'C', 'C', 'C', 'C', 'C', 'C', 'C', 'C', 'C', 'C', 'C', 'C', 'C', 'C', 'C', 'C']","[1328093, 1328826, 1329380, 1329991, 1330656, 1331312, 1331927, 1332531, 1333066, 1333630, 1334217, 1334790, 1335315, 1335873, 1336389, 1336943, 1337512, 1338068, 1338622, 1339181, 1339795, 1340307, 1340862]","[1328162, 1328912, 1329468, 1330111, 1330743, 1331380, 1331980, 1332614, 1333127, 1333685, 1334296, 1334843, 1335402, 1335950, 1336453, 1337005, 1337554, 1338129, 1338688, 1339247, 1339823, 1340382, 1340925]","[1327852, 1328451, 1329051, 1329651, 1330251, 1330851, 1331451, 1332051, 1332558, 1333094, 1333658, 1334244, 1334817, 1335342, 1335901, 1336417, 1336971, 1337540, 1338095, 1338648, 1339208, 1339823, 1340334, 1340890]",13,R,ITM,1.1,
3,400,trial,0,71,71,71,trial,"['S', 'S', 'S', 'S', 'S', 'S', 'S', 'C', 'C', 'C', 'C', 'C', 'C', 'C', 'C', 'C', 'C', 'C', 'C', 'C', 'C', 'C', 'C', 'C', 'C', 'C']","[1346803, 1347268, 1347681, 1348014, 1348405, 1348780, 1349220, 1349625, 1350083, 1350571, 1351184, 1351745, 1352188, 1352548, 1352872, 1353179, 1353472, 1353716, 1353905, 1354082, 1354273, 1354450, 1354630, 1355124, 1355570, 1355940]","[1346854, 1347301, 1347701, 1348082, 1348454, 1348854, 1349287, 1349705, 1350148, 1350615, 1351270, 1351857, 1352270, 1352621, 1352939, 1353240, 1353529, 1353785, 1353981, 1354173, 1354347, 1354531, 1354945, 1355227, 1355635, 1356030]","[1346455, 1346854, 1347254, 1347654, 1348055, 1348454, 1348854, 1349255, 1349651, 1350109, 1350596, 1351209, 1351771, 1352214, 1352573, 1352898, 1353204, 1353497, 1353930, 1354299, 1354655, 1355150, 1355595, 1355967]",13,R,ITM,1.1,
2,600,trial,0,72,72,72,trial,"['S', 'S', 'S', 'S', 'S', 'S', 'S', 'C', 'C', 'C', 'C', 'C', 'C', 'C', 'C', 'C', 'C', 'C', 'C', 'C', 'C', 'C', 'C']","[1361895, 1362555, 1363226, 1363879, 1364436, 1365041, 1365655, 1366247, 1366732, 1367200, 1367671, 1368130, 1368587, 1369056, 1369498, 1369965, 1370427, 1370899, 1371355, 1371829, 1372313, 1372804, 1373320]","[1361978, 1362615, 1363306, 1363950, 1364456, 1365103, 1365745, 1366323, 1366785, 1367247, 1367698, 1368196, 1368628, 1369083, 1369586, 1370045, 1370481, 1370973, 1371445, 1371885, 1372378, 1372890, 1373404]","[1361591, 1362191, 1362791, 1363391, 1363991, 1364591, 1365191, 1365791, 1366275, 1366759, 1367227, 1367698, 1368157, 1368614, 1369083, 1369526, 1369992, 1370454, 1370926, 1371381, 1371855, 1372341, 1372830, 1373347]",13,R,ITM,1.1,
4,400,trial,0,73,73,73,trial,"['S', 'S', 'S', 'S', 'S', 'S', 'S', 'C', 'C', 'C', 'C', 'C', 'C', 'C', 'C', 'C', 'C', 'C', 'C', 'C', 'C', 'C', 'C']","[1379358, 1379852, 1380242, 1380631, 1381030, 1381453, 1381842, 1382287, 1382694, 1383091, 1383502, 1383923, 1384326, 1384729, 1385176, 1385597, 1386007, 1386412, 1386830, 1387223, 1387669, 1388083, 1388466]","[1379439, 1379921, 1380321, 1380710, 1381108, 1381527, 1381928, 1382366, 1382775, 1383172, 1383570, 1384000, 1384400, 1384807, 1385234, 1385674, 1386092, 1386497, 1386909, 1387323, 1387740, 1388175, 1388563]","[1379076, 1379474, 1379874, 1380274, 1380674, 1381074, 1381474, 1381874, 1382313, 1382720, 1383116, 1383528, 1383949, 1384351, 1384755, 1385201, 1385623, 1386033, 1386437, 1386856, 1387248, 1387695, 1388108, 1388491]",13,R,ITM,1.1,
3,600,trial,0,74,74,74,trial,"['S', 'S', 'S', 'S', 'S', 'S', 'S', 'C', 'C', 'C', 'C', 'C', 'C', 'C', 'C', 'C', 'C', 'C', 'C', 'C', 'C', 'C', 'C']","[1394453, 1395104, 1395804, 1396410, 1397041, 1397637, 1398196, 1398820, 1399351, 1399829, 1400327, 1400844, 1401281, 1401800, 1402380, 1403000, 1403610, 1404266, 1404917, 1405563, 1406215, 1406867, 1407502]","[1394547, 1395197, 1395867, 1396480, 1397107, 1397709, 1398216, 1398884, 1399376, 1399898, 1400356, 1400921, 1401366, 1401876, 1402483, 1403043, 1403682, 1404292, 1404980, 1405633, 1406290, 1406935, 1407560]","[1394174, 1394775, 1395375, 1395975, 1396575, 1397175, 1397775, 1398375, 1398846, 1399376, 1399855, 1400352, 1400869, 1401307, 1401826, 1402405, 1403026, 1403635, 1404292, 1404943, 1405589, 1406240, 1406893, 1407527]",13,R,ITM,1.1,
6,400,trial,0,75,75,75,trial,"['S', 'S', 'S', 'S', 'S', 'S', 'S', 'C', 'C', 'C', 'C', 'C', 'C', 'C', 'C', 'C', 'C', 'C', 'C', 'C', 'C', 'C', 'C']","[1413273, 1413779, 1414221, 1414667, 1414991, 1415415, 1415776, 1416135, 1416498, 1416781, 1417071, 1417369, 1417673, 1418002, 1418362, 1418761, 1419175, 1419633, 1420109, 1420618, 1421149, 1421685, 1422219]","[1413387, 1413867, 1414262, 1414732, 1415100, 1415494, 1415878, 1416179, 1416526, 1416850, 1417159, 1417433, 1417749, 1418109, 1418448, 1418849, 1419275, 1419715, 1420207, 1420734, 1421247, 1421794, 1422337]","[1413059, 1413458, 1413858, 1414258, 1414659, 1415058, 1415458, 1415859, 1416163, 1416524, 1416808, 1417098, 1417397, 1417701, 1418030, 1418389, 1418787, 1419202, 1419660, 1420136, 1420645, 1421175, 1421712, 1422246]",13,R,ITM,1.1,
6,600,trial,0,76,76,76,trial,"['S', 'S', 'S', 'S', 'S', 'S', 'S', 'C', 'C', 'C', 'C', 'C', 'C', 'C', 'C', 'C', 'C', 'C', 'C', 'C', 'C', 'C', 'C']","[1427912, 1428625, 1429401, 1430081, 1430496, 1431035, 1431615, 1432439, 1433098, 1433613, 1434127, 1434602, 1435083, 1435544, 1436016, 1436486, 1436936, 1437416, 1437845, 1438292, 1438758, 1439219, 1439682]","[1428024, 1428740, 1429495, 1430169, 1430599, 1431127, 1431698, 1432539, 1433143, 1433705, 1434192, 1434692, 1435176, 1435607, 1436106, 1436558, 1437005, 1437486, 1437917, 1438386, 1438835, 1439270, 1439760]","[1427643, 1428242, 1428842, 1429442, 1430042, 1430642, 1431242, 1431842, 1432467, 1433124, 1433639, 1434153, 1434629, 1435111, 1435571, 1436044, 1436514, 1436962, 1437443, 1437872, 1438318, 1438785, 1439246, 1439710]",13,R,ITM,1.1,
6,600,trial,0,77,77,77,trial,"['S', 'S', 'S', 'S', 'S', 'S', 'S', 'S', 'C', 'C', 'C', 'C', 'C', 'C', 'C', 'C', 'C', 'C', 'C', 'C', 'C', 'C', 'C', 'C']","[1445692, 1446157, 1446664, 1447130, 1447652, 1448256, 1448849, 1449463, 1450062, 1450571, 1451087, 1451624, 1452162, 1452687, 1453239, 1453800, 1454340, 1454949, 1455543, 1456124, 1456720, 1457381, 1457984, 1458636]","[1445794, 1446241, 1446728, 1447208, 1447739, 1448343, 1448909, 1449572, 1450137, 1450635, 1451154, 1451703, 1452238, 1452771, 1453328, 1453888, 1454439, 1455027, 1455580, 1456211, 1456801, 1457451, 1458056, 1458682]","[1445391, 1445991, 1446591, 1447191, 1447791, 1448391, 1448991, 1449591, 1450089, 1450598, 1451115, 1451652, 1452188, 1452715, 1453266, 1453827, 1454366, 1454976, 1455569, 1456151, 1456747, 1457408, 1458011, 1458664]",13,R,ITM,1.1,
6,600,trial,0,78,78,78,trial,"['S', 'S', 'S', 'S', 'S', 'S', 'S', 'C', 'C', 'C', 'C', 'C', 'C', 'C', 'C', 'C', 'C', 'C', 'C', 'C', 'C', 'C', 'C']","[1464550, 1465344, 1465979, 1466580, 1467170, 1467737, 1468334, 1468926, 1469457, 1470005, 1470578, 1471110, 1471623, 1472157, 1472727, 1473203, 1473726, 1474239, 1474754, 1475278, 1475785, 1476305, 1476799]","[1464633, 1465390, 1466062, 1466653, 1467243, 1467809, 1468400, 1469015, 1469508, 1470067, 1470656, 1471164, 1471703, 1472216, 1472789, 1473289, 1473795, 1474284, 1474829, 1475333, 1475860, 1476376, 1476887]","[1464254, 1464853, 1465453, 1466053, 1466653, 1467253, 1467853, 1468453, 1468954, 1469485, 1470032, 1470605, 1471136, 1471649, 1472184, 1472753, 1473230, 1473753, 1474266, 1474782, 1475306, 1475813, 1476333, 1476827]",13,R,ITM,1.1,
6,400,trial,0,79,79,79,trial,"['S', 'S', 'S', 'S', 'S', 'S', 'S', 'C', 'C', 'C', 'C', 'C', 'C', 'C', 'C', 'C', 'C', 'C', 'C', 'C', 'C', 'C', 'C']","[1482624, 1483172, 1483571, 1484000, 1484356, 1484744, 1485133, 1485523, 1485947, 1486389, 1486818, 1487257, 1487683, 1488114, 1488525, 1488944, 1489383, 1489829, 1490213, 1490672, 1491101, 1491507, 1491927]","[1482717, 1483229, 1483643, 1484039, 1484441, 1484817, 1485215, 1485607, 1485995, 1486466, 1486881, 1487327, 1487778, 1488183, 1488611, 1489022, 1489467, 1489890, 1490287, 1490733, 1491191, 1491594, 1492020]","[1482344, 1482743, 1483144, 1483544, 1483944, 1484344, 1484744, 1485145, 1485550, 1485974, 1486416, 1486845, 1487284, 1487711, 1488142, 1488551, 1488970, 1489410, 1489856, 1490240, 1490699, 1491128, 1491534, 1491954]",13,R,ITM,1.1,
5,400,trial,0,80,80,80,trial,"['S', 'S', 'S', 'S', 'S', 'S', 'S', 'C', 'C', 'C', 'C', 'C', 'C', 'C', 'C', 'C', 'C', 'C', 'C', 'C', 'C', 'C', 'C']","[1497620, 1498106, 1498544, 1498949, 1499352, 1499752, 1500155, 1500546, 1500933, 1501337, 1501747, 1502151, 1502547, 1502962, 1503347, 1503770, 1504134, 1504559, 1504980, 1505377, 1505796, 1506193, 1506659]","[1497705, 1498169, 1498600, 1499034, 1499408, 1499828, 1500224, 1500621, 1501017, 1501424, 1501826, 1502205, 1502626, 1503016, 1503427, 1503841, 1504233, 1504610, 1505070, 1505469, 1505854, 1506284, 1506698]","[1497369, 1497768, 1498168, 1498568, 1498969, 1499368, 1499768, 1500168, 1500572, 1500958, 1501363, 1501772, 1502177, 1502573, 1502988, 1503373, 1503796, 1504159, 1504584, 1505006, 1505402, 1505821, 1506219, 1506684]",13,R,ITM,1.1,
3,400,trial,0,81,81,81,trial,"['S', 'S', 'S', 'S', 'S', 'S', 'S', 'C', 'C', 'C', 'C', 'C', 'C', 'C', 'C', 'C', 'C', 'C', 'C', 'C', 'C', 'C', 'C']","[1512651, 1513093, 1513465, 1513853, 1514263, 1514677, 1515128, 1515549, 1515944, 1516413, 1516690, 1517080, 1517465, 1517877, 1518224, 1518641, 1519073, 1519452, 1519848, 1520261, 1520653, 1521077, 1521466]","[1512742, 1513184, 1513506, 1513931, 1514363, 1514776, 1515224, 1515626, 1516026, 1516493, 1516787, 1517145, 1517533, 1517935, 1518333, 1518722, 1519113, 1519559, 1519937, 1520322, 1520708, 1521154, 1521527]","[1512371, 1512771, 1513171, 1513571, 1513971, 1514372, 1514771, 1515171, 1515575, 1515970, 1516439, 1516716, 1517106, 1517491, 1517902, 1518249, 1518666, 1519098, 1519477, 1519874, 1520286, 1520678, 1521102, 1521491]",13,R,ITM,1.1,
6,600,trial,0,82,82,82,trial,"['S', 'S', 'S', 'S', 'S', 'S', 'S', 'C', 'C', 'C', 'C', 'C', 'C', 'C', 'C', 'C', 'C', 'C', 'C', 'C', 'C', 'C', 'C']","[1527128, 1527870, 1528520, 1529111, 1529663, 1530293, 1530928, 1531510, 1532034, 1532558, 1533072, 1533628, 1534166, 1534662, 1535208, 1535686, 1536153, 1536640, 1537087, 1537562, 1538044, 1538484, 1538979]","[1527212, 1527966, 1528623, 1529202, 1529726, 1530386, 1531053, 1531638, 1532102, 1532649, 1533159, 1533709, 1534270, 1534765, 1535277, 1535781, 1536263, 1536698, 1537157, 1537632, 1538096, 1538570, 1539037]","[1526820, 1527420, 1528020, 1528621, 1529221, 1529821, 1530420, 1531020, 1531537, 1532060, 1532584, 1533099, 1533655, 1534193, 1534689, 1535236, 1535713, 1536181, 1536666, 1537114, 1537590, 1538072, 1538511, 1539006]",13,R,ITM,1.1,
7,400,trial,0,83,83,83,trial,"['S', 'S', 'S', 'S', 'S', 'S', 'S', 'C', 'C', 'C', 'C', 'C', 'C', 'C', 'C', 'C', 'C', 'C', 'C', 'C', 'C', 'C', 'C']","[1545063, 1545489, 1545852, 1546214, 1546592, 1546991, 1547389, 1547831, 1548229, 1548634, 1549080, 1549481, 1549859, 1550280, 1550674, 1551077, 1551452, 1551853, 1552248, 1552643, 1553028, 1553453, 1553799]","[1545175, 1545558, 1545891, 1546258, 1546632, 1547049, 1547446, 1547871, 1548275, 1548682, 1549124, 1549533, 1549911, 1550320, 1550722, 1551117, 1551492, 1551898, 1552296, 1552689, 1553081, 1553482, 1553836]","[1544674, 1545073, 1545474, 1545873, 1546273, 1546674, 1547073, 1547473, 1547858, 1548257, 1548661, 1549107, 1549507, 1549887, 1550308, 1550702, 1551104, 1551479, 1551881, 1552275, 1552669, 1553054, 1553480, 1553826]",13,R,ITM,1.1,
3,400,trial,0,84,84,84,trial,"['S', 'S', 'S', 'S', 'S', 'S', 'S', 'C', 'C', 'C', 'C', 'C', 'C', 'C', 'C', 'C', 'C', 'C', 'C', 'C', 'C', 'C', 'C']","[1559896, 1560344, 1560711, 1561124, 1561542, 1561957, 1562356, 1562787, 1563189, 1563573, 1563961, 1564375, 1564772, 1565165, 1565593, 1566052, 1566513, 1566925, 1567385, 1567781, 1568246, 1568592, 1568994]","[1560003, 1560424, 1560762, 1561194, 1561604, 1562009, 1562416, 1562855, 1563249, 1563643, 1564037, 1564420, 1564860, 1565233, 1565649, 1566131, 1566559, 1566980, 1567413, 1567832, 1568277, 1568633, 1569032]","[1559603, 1560003, 1560403, 1560803, 1561203, 1561604, 1562003, 1562403, 1562813, 1563214, 1563598, 1563986, 1564400, 1564797, 1565191, 1565619, 1566077, 1566538, 1566951, 1567411, 1567807, 1568272, 1568618, 1569019]",13,R,ITM,1.1,
4,600,trial,0,85,85,85,trial,"['S', 'S', 'S', 'S', 'S', 'S', 'S', 'S', 'C', 'C', 'C', 'C', 'C', 'C', 'C', 'C', 'C', 'C', 'C', 'C', 'C', 'C', 'C', 'C']","[1574565, 1575112, 1575510, 1576022, 1576639, 1577269, 1577820, 1578363, 1578885, 1579356, 1579820, 1580345, 1580922, 1581495, 1582063, 1582649, 1583174, 1583703, 1584248, 1584826, 1585271, 1585782, 1586274, 1586798]","[1574683, 1575159, 1575593, 1576116, 1576722, 1577311, 1577862, 1578414, 1578925, 1579387, 1579858, 1580388, 1580977, 1581569, 1582117, 1582689, 1583236, 1583749, 1584303, 1584867, 1585316, 1585820, 1586324, 1586849]","[1574359, 1574958, 1575558, 1576157, 1576757, 1577357, 1577957, 1578557, 1578910, 1579381, 1579845, 1580370, 1580949, 1581520, 1582089, 1582674, 1583200, 1583728, 1584274, 1584851, 1585297, 1585808, 1586299, 1586824]",13,R,ITM,1.1,
2,600,trial,0,86,86,86,trial,"['S', 'S', 'S', 'S', 'S', 'S', 'S', 'C', 'C', 'C', 'C', 'C', 'C', 'C', 'C', 'C', 'C', 'C', 'C', 'C', 'C', 'C', 'C']","[1592865, 1593536, 1594186, 1594717, 1595390, 1596012, 1596596, 1597243, 1597745, 1598219, 1598697, 1599191, 1599677, 1600209, 1600712, 1601218, 1601705, 1602221, 1602705, 1603155, 1603683, 1604154, 1604627]","[1592923, 1593626, 1594268, 1594847, 1595456, 1596084, 1596652, 1597299, 1597785, 1598258, 1598745, 1599240, 1599730, 1600261, 1600783, 1601285, 1601768, 1602296, 1602794, 1603228, 1603709, 1604200, 1604669]","[1592604, 1593203, 1593803, 1594404, 1595004, 1595604, 1596205, 1596805, 1597271, 1597771, 1598245, 1598725, 1599217, 1599705, 1600237, 1600739, 1601245, 1601733, 1602248, 1602732, 1603183, 1603709, 1604182, 1604655]",13,R,ITM,1.1,
3,600,trial,0,87,87,87,trial,"['B', 'S', 'S', 'S', 'S', 'S', 'S', 'S', 'C', 'C', 'C', 'C', 'C', 'C', 'C', 'C', 'C', 'C', 'C', 'C', 'C', 'C', 'C', 'C']","[1609942, 1610386, 1610941, 1611520, 1612091, 1612747, 1613319, 1613906, 1614493, 1614963, 1615422, 1615892, 1616372, 1616815, 1617291, 1617757, 1618195, 1618632, 1619488, 1619897, 1620355, 1620823, 1621320, 1621787]","[1610051, 1610430, 1610995, 1611577, 1612142, 1612798, 1613405, 1613947, 1614532, 1615006, 1615472, 1615937, 1616431, 1616916, 1617316, 1617795, 1618241, 1618681, 1619529, 1619944, 1620392, 1620868, 1621362, 1621852]","[1609953, 1610553, 1611153, 1611753, 1612353, 1612953, 1613553, 1614153, 1614519, 1614989, 1615448, 1615918, 1616398, 1616840, 1617316, 1617782, 1618221, 1618658, 1619514, 1619922, 1620380, 1620848, 1621346, 1621813]",13,R,ITM,1.1,
5,600,trial,0,88,88,88,trial,"['S', 'S', 'S', 'S', 'S', 'S', 'S', 'S', 'C', 'C', 'C', 'C', 'C', 'C', 'C', 'C', 'C', 'C', 'C', 'C', 'C', 'C', 'C', 'C']","[1627616, 1628232, 1628746, 1629208, 1629789, 1630256, 1630810, 1631419, 1632005, 1632530, 1633035, 1633504, 1633974, 1634435, 1634922, 1635388, 1635864, 1636329, 1636806, 1637302, 1637791, 1640226, 1640629, 1641014]","[1627680, 1628293, 1628796, 1629242, 1629809, 1630301, 1630855, 1631482, 1632099, 1632580, 1633070, 1633540, 1634007, 1634476, 1634952, 1635418, 1635897, 1636367, 1636834, 1637328, 1637817, 1640366, 1640695, 1641101]","[1627302, 1627901, 1628502, 1629102, 1629702, 1630301, 1630901, 1631501, 1632031, 1632556, 1633060, 1633529, 1633999, 1634460, 1634948, 1635414, 1635890, 1636355, 1636832, 1637328, 1637817, 1640252, 1640655, 1641039]",13,R,ITM,1.1,
5,400,trial,0,89,89,89,trial,"['S', 'S', 'S', 'S', 'S', 'S', 'S', 'C', 'C', 'C', 'C', 'C', 'C', 'C', 'C', 'C', 'C', 'C', 'C', 'C', 'C', 'C', 'C']","[1646830, 1647282, 1647745, 1648147, 1648648, 1648973, 1649348, 1649743, 1650132, 1650511, 1650890, 1651278, 1651653, 1652055, 1652494, 1652869, 1653325, 1653747, 1654161, 1654604, 1655028, 1655437, 1655906]","[1646912, 1647349, 1647817, 1648226, 1648684, 1649031, 1649414, 1649812, 1650192, 1650577, 1650963, 1651349, 1651746, 1652152, 1652560, 1652969, 1653407, 1653828, 1654242, 1654689, 1655087, 1655527, 1655976]","[1646606, 1647005, 1647406, 1647805, 1648205, 1648605, 1649005, 1649405, 1649769, 1650158, 1650537, 1650916, 1651304, 1651679, 1652080, 1652519, 1652894, 1653351, 1653773, 1654187, 1654631, 1655054, 1655462, 1655931]",13,R,ITM,1.1,
7,600,trial,0,90,90,90,trial,"['S', 'S', 'S', 'S', 'S', 'S', 'S', 'C', 'C', 'C', 'C', 'C', 'C', 'C', 'C', 'C', 'C', 'C', 'C', 'C', 'C', 'C', 'C']","[1661926, 1662679, 1663306, 1663938, 1664531, 1665096, 1665670, 1666284, 1666782, 1667264, 1667701, 1668149, 1668617, 1669073, 1669509, 1669944, 1670391, 1670866, 1671285, 1671751, 1672182, 1672649, 1673072]","[1661987, 1662743, 1663375, 1664013, 1664618, 1665168, 1665758, 1666354, 1666845, 1667323, 1667785, 1668224, 1668671, 1669142, 1669571, 1670019, 1670452, 1670918, 1671355, 1671809, 1672252, 1672700, 1673138]","[1661647, 1662246, 1662846, 1663447, 1664047, 1664647, 1665246, 1665846, 1666311, 1666808, 1667292, 1667729, 1668175, 1668644, 1669101, 1669536, 1669971, 1670418, 1670893, 1671312, 1671778, 1672209, 1672676, 1673099]",13,R,ITM,1.1,
4,400,trial,0,91,91,91,trial,"['S', 'S', 'S', 'S', 'S', 'S', 'S', 'C', 'C', 'C', 'C', 'C', 'C', 'C', 'C', 'C', 'C', 'C', 'C', 'C', 'C', 'C', 'C']","[1678693, 1679139, 1679545, 1679975, 1680371, 1680787, 1681199, 1681576, 1681942, 1682397, 1682784, 1683197, 1683608, 1684011, 1684381, 1684790, 1685165, 1685561, 1685983, 1686359, 1686775, 1687200, 1687627]","[1678750, 1679183, 1679581, 1680029, 1680443, 1680836, 1681234, 1681628, 1682020, 1682444, 1682849, 1683273, 1683674, 1684079, 1684463, 1684877, 1685264, 1685652, 1686048, 1686450, 1686857, 1687262, 1687702]","[1678456, 1678855, 1679255, 1679655, 1680055, 1680455, 1680856, 1681255, 1681602, 1681968, 1682422, 1682810, 1683223, 1683634, 1684036, 1684407, 1684815, 1685190, 1685586, 1686008, 1686384, 1686802, 1687226, 1687653]",13,R,ITM,1.1,
6,400,trial,0,92,92,92,trial,"['S', 'S', 'S', 'S', 'S', 'S', 'S', 'C', 'C', 'C', 'C', 'C', 'C', 'C', 'C', 'C', 'C', 'C', 'C', 'C', 'C', 'C', 'C']","[1693663, 1694110, 1694481, 1694922, 1695344, 1695738, 1696116, 1696549, 1696970, 1697359, 1697748, 1698145, 1698535, 1698949, 1699363, 1699773, 1700188, 1700605, 1701014, 1701420, 1701822, 1702226, 1702620]","[1693746, 1694168, 1694559, 1694983, 1695392, 1695797, 1696195, 1696621, 1697016, 1697428, 1697838, 1698219, 1698621, 1699028, 1699434, 1699845, 1700263, 1700683, 1701079, 1701495, 1701902, 1702307, 1702706]","[1693415, 1693814, 1694215, 1694614, 1695014, 1695414, 1695814, 1696215, 1696576, 1696998, 1697386, 1697774, 1698171, 1698563, 1698976, 1699390, 1699801, 1700215, 1700633, 1701041, 1701447, 1701849, 1702253, 1702646]",13,R,ITM,1.1,
7,400,trial,0,93,93,93,trial,"['S', 'S', 'S', 'S', 'S', 'S', 'S', 'C', 'C', 'C', 'C', 'C', 'C', 'C', 'C', 'C', 'C', 'C', 'C', 'C', 'C', 'C', 'C']","[1708561, 1708966, 1709299, 1709712, 1710120, 1710530, 1710923, 1711304, 1711709, 1712079, 1712415, 1712770, 1713126, 1713479, 1713846, 1714214, 1714569, 1714885, 1715246, 1715632, 1715974, 1716320, 1716656]","[1708643, 1709023, 1709382, 1709770, 1710194, 1710588, 1710968, 1711379, 1711765, 1712149, 1712497, 1712847, 1713223, 1713562, 1713930, 1714290, 1714625, 1714984, 1715326, 1715691, 1716063, 1716404, 1716728]","[1708217, 1708616, 1709017, 1709416, 1709816, 1710216, 1710616, 1711016, 1711331, 1711736, 1712106, 1712442, 1712797, 1713153, 1713506, 1713873, 1714241, 1714596, 1714912, 1715272, 1715658, 1716000, 1716347, 1716683]",13,R,ITM,1.1,
2,400,trial,0,94,94,94,trial,"['S', 'S', 'S', 'S', 'S', 'S', 'C', 'C', 'C', 'C', 'C', 'C', 'C', 'C', 'C', 'C', 'C', 'C', 'C', 'C', 'C', 'C']","[1722515, 1723273, 1723769, 1724256, 1724686, 1725060, 1725401, 1725838, 1726223, 1726633, 1727031, 1727438, 1727812, 1728223, 1728607, 1728966, 1729336, 1729695, 1730073, 1730433, 1730807, 1731158]","[1722590, 1723359, 1723834, 1724313, 1724706, 1725111, 1725466, 1725896, 1726291, 1726711, 1727107, 1727499, 1727891, 1728279, 1728678, 1729036, 1729416, 1729786, 1730139, 1730509, 1730883, 1731230]","[1722169, 1722569, 1722969, 1723369, 1723768, 1724169, 1724569, 1724969, 1725428, 1725865, 1726251, 1726661, 1727058, 1727466, 1727839, 1728249, 1728634, 1728993, 1729362, 1729723, 1730101, 1730460, 1730835, 1731185]",13,R,ITM,1.1,
4,400,trial,0,95,95,95,trial,"['S', 'S', 'S', 'S', 'S', 'S', 'S', 'C', 'C', 'C', 'C', 'C', 'C', 'C', 'C', 'C', 'C', 'C', 'C', 'C', 'C', 'C', 'C']","[1737188, 1737604, 1737973, 1738412, 1738827, 1739214, 1739596, 1739998, 1740404, 1740801, 1741188, 1741583, 1741953, 1742347, 1742710, 1743099, 1743483, 1743877, 1744231, 1744659, 1745089, 1745568, 1746037]","[1737208, 1737662, 1738054, 1738466, 1738876, 1739270, 1739669, 1740069, 1740466, 1740856, 1741282, 1741686, 1742047, 1742434, 1742802, 1743184, 1743568, 1743964, 1744327, 1744728, 1745148, 1745632, 1746108]","[1736920, 1737318, 1737718, 1738119, 1738519, 1738919, 1739319, 1739719, 1740024, 1740430, 1740826, 1741213, 1741609, 1741978, 1742372, 1742737, 1743125, 1743509, 1743902, 1744257, 1744685, 1745115, 1745594, 1746063]",13,R,ITM,1.1,
3,600,trial,0,96,96,96,trial,"['S', 'S', 'S', 'S', 'S', 'S', 'S', 'S', 'C', 'C', 'C', 'C', 'C', 'C', 'C', 'C', 'C', 'C', 'C', 'C', 'C', 'C', 'C', 'C']","[1751853, 1752430, 1752970, 1753475, 1754073, 1754685, 1755286, 1755843, 1756451, 1756892, 1757320, 1757718, 1758156, 1758561, 1758968, 1759387, 1759828, 1760237, 1760665, 1761083, 1761499, 1761942, 1762371, 1762810]","[1751926, 1752529, 1753023, 1753533, 1754157, 1754764, 1755360, 1755933, 1756538, 1756980, 1757377, 1757800, 1758227, 1758639, 1759033, 1759466, 1759897, 1760320, 1760750, 1761170, 1761587, 1762021, 1762459, 1762867]","[1751824, 1752423, 1753023, 1753623, 1754223, 1754823, 1755423, 1756023, 1756477, 1756917, 1757345, 1757744, 1758182, 1758586, 1758994, 1759413, 1759854, 1760263, 1760692, 1761108, 1761524, 1761968, 1762397, 1762836]",13,R,ITM,1.1,
2,400,trial,0,97,97,97,trial,"['S', 'S', 'S', 'S', 'S', 'S', 'S', 'S', 'C', 'C', 'C', 'C', 'C', 'C', 'C', 'C', 'C', 'C', 'C', 'C', 'C', 'C', 'C', 'C']","[1768431, 1768797, 1769152, 1769507, 1769884, 1770211, 1770572, 1770900, 1771300, 1771652, 1772012, 1772371, 1772713, 1773064, 1773421, 1773785, 1774113, 1774493, 1774861, 1775227, 1775590, 1775938, 1776309, 1776709]","[1768501, 1768870, 1769212, 1769582, 1769960, 1770301, 1770642, 1770991, 1771362, 1771736, 1772078, 1772459, 1772795, 1773151, 1773496, 1773848, 1774183, 1774561, 1774937, 1775279, 1775663, 1776024, 1776396, 1776784]","[1768157, 1768555, 1768956, 1769356, 1769755, 1770157, 1770555, 1770956, 1771328, 1771678, 1772040, 1772399, 1772740, 1773090, 1773449, 1773812, 1774140, 1774521, 1774887, 1775254, 1775618, 1775965, 1776336, 1776736]",13,R,ITM,1.1,
7,600,trial,0,98,98,98,trial,"['S', 'S', 'S', 'S', 'S', 'S', 'S', 'C', 'C', 'C', 'C', 'C', 'C', 'C', 'C', 'C', 'C', 'C', 'C', 'C', 'C', 'C', 'C']","[1782478, 1783115, 1783727, 1784485, 1785082, 1785669, 1786208, 1786781, 1787212, 1787613, 1788004, 1788400, 1788825, 1789236, 1789658, 1790034, 1790452, 1790837, 1791211, 1791628, 1792015, 1792439, 1792850]","[1782498, 1783157, 1783799, 1784523, 1785163, 1785768, 1786314, 1786856, 1787291, 1787680, 1788093, 1788481, 1788900, 1789304, 1789709, 1790101, 1790517, 1790917, 1791290, 1791698, 1792090, 1792505, 1792933]","[1782256, 1782856, 1783456, 1784056, 1784656, 1785256, 1785857, 1786457, 1786809, 1787240, 1787639, 1788032, 1788427, 1788853, 1789262, 1789684, 1790061, 1790480, 1790864, 1791239, 1791654, 1792043, 1792465, 1792878]",13,R,ITM,1.1,
2,600,trial,0,99,99,99,trial,"['S', 'S', 'S', 'S', 'S', 'S', 'S', 'S', 'C', 'C', 'C', 'C', 'C', 'C', 'C', 'C', 'C', 'C', 'C', 'C', 'C', 'C', 'C', 'C']","[1798631, 1799421, 1800044, 1800658, 1801291, 1801899, 1801999, 1802532, 1803138, 1803604, 1804040, 1804477, 1804909, 1805317, 1805743, 1806156, 1806607, 1807049, 1807467, 1807870, 1808268, 1808707, 1809244, 1809690]","[1798691, 1799488, 1800126, 1800741, 1801378, 1801919, 1802019, 1802648, 1803215, 1803677, 1804103, 1804556, 1804992, 1805411, 1805829, 1806237, 1806693, 1807131, 1807537, 1807939, 1808345, 1808750, 1809301, 1809760]","[1798600, 1799200, 1799799, 1800400, 1801000, 1801601, 1802201, 1802801, 1803165, 1803632, 1804067, 1804505, 1804937, 1805343, 1805770, 1806184, 1806635, 1807076, 1807495, 1807898, 1808294, 1808735, 1809270, 1809718]",13,R,ITM,1.1,
5,600,trial,0,100,100,100,trial,"['S', 'S', 'S', 'S', 'S', 'S', 'S', 'C', 'C', 'C', 'C', 'C', 'C', 'C', 'C', 'C', 'C', 'C', 'C', 'C', 'C', 'C', 'C']","[1815614, 1816264, 1816954, 1817644, 1818231, 1818832, 1819469, 1820032, 1820530, 1821002, 1821456, 1821933, 1822355, 1822756, 1823173, 1823628, 1824033, 1824455, 1824864, 1825271, 1825701, 1826187, 1826569]","[1815660, 1816328, 1817040, 1817715, 1818301, 1818930, 1819542, 1820132, 1820605, 1821078, 1821540, 1822002, 1822432, 1822844, 1823255, 1823689, 1824112, 1824528, 1824921, 1825339, 1825768, 1826253, 1826663]","[1815364, 1815963, 1816563, 1817163, 1817763, 1818363, 1818963, 1819564, 1820058, 1820557, 1821028, 1821481, 1821959, 1822381, 1822782, 1823199, 1823653, 1824060, 1824481, 1824889, 1825297, 1825728, 1826212, 1826594]",13,R,ITM,1.1,
4,600,trial,0,101,101,101,trial,"['S', 'S', 'S', 'S', 'S', 'S', 'S', 'C', 'C', 'C', 'C', 'C', 'C', 'C', 'C', 'C', 'C', 'C', 'C', 'C', 'C', 'C', 'C']","[1832303, 1833018, 1833669, 1834411, 1834998, 1835573, 1836151, 1836703, 1837169, 1837626, 1838069, 1838573, 1839056, 1839491, 1839964, 1840427, 1840868, 1841329, 1841739, 1842223, 1842620, 1843051, 1843544]","[1832375, 1833106, 1833726, 1834492, 1835088, 1835658, 1836229, 1836777, 1837237, 1837692, 1838150, 1838655, 1839124, 1839584, 1840044, 1840502, 1840944, 1841396, 1841836, 1842277, 1842717, 1843148, 1843605]","[1832170, 1832769, 1833369, 1833969, 1834569, 1835169, 1835769, 1836369, 1836729, 1837195, 1837651, 1838095, 1838599, 1839082, 1839516, 1839989, 1840452, 1840893, 1841354, 1841765, 1842248, 1842646, 1843078, 1843569]",13,R,ITM,1.1,
3,600,trial,0,102,102,102,trial,"['S', 'S', 'S', 'S', 'S', 'S', 'S', 'C', 'C', 'C', 'C', 'C', 'C', 'C', 'C', 'C', 'C', 'C', 'C', 'C', 'C', 'C', 'C']","[1849287, 1849809, 1850488, 1851139, 1851759, 1852350, 1852964, 1853566, 1854071, 1854541, 1855032, 1855505, 1856011, 1856461, 1856976, 1857484, 1857980, 1858482, 1858936, 1859450, 1859927, 1860407, 1860895]","[1849382, 1849896, 1850547, 1851212, 1851828, 1852430, 1853038, 1853644, 1854123, 1854605, 1855095, 1855591, 1856086, 1856551, 1857050, 1857566, 1858076, 1858569, 1859026, 1859495, 1860016, 1860498, 1860984]","[1848920, 1849519, 1850119, 1850719, 1851319, 1851919, 1852519, 1853119, 1853592, 1854097, 1854567, 1855057, 1855531, 1856036, 1856487, 1857002, 1857510, 1858006, 1858508, 1858962, 1859476, 1859952, 1860432, 1860921]",13,R,ITM,1.1,
4,400,trial,0,103,103,103,trial,"['S', 'S', 'S', 'S', 'S', 'S', 'S', 'C', 'C', 'C', 'C', 'C', 'C', 'C', 'C', 'C', 'C', 'C', 'C', 'C', 'C', 'C', 'C']","[1866803, 1867265, 1867634, 1868024, 1868395, 1868778, 1869228, 1869620, 1870027, 1870414, 1870840, 1871228, 1871597, 1871961, 1872335, 1872680, 1873062, 1873436, 1873788, 1874181, 1874553, 1875000, 1875452]","[1866911, 1867332, 1867704, 1868081, 1868470, 1868849, 1869281, 1869690, 1870098, 1870500, 1870906, 1871306, 1871678, 1872046, 1872404, 1872764, 1873137, 1873521, 1873881, 1874258, 1874649, 1875083, 1875532]","[1866404, 1866803, 1867203, 1867603, 1868003, 1868403, 1868804, 1869203, 1869645, 1870053, 1870440, 1870866, 1871254, 1871624, 1871987, 1872361, 1872706, 1873088, 1873463, 1873814, 1874206, 1874579, 1875026, 1875478]",13,R,ITM,1.1,
6,400,trial,0,104,104,104,trial,"['S', 'S', 'S', 'S', 'S', 'S', 'S', 'S', 'C', 'C', 'C', 'C', 'C', 'C', 'C', 'C', 'C', 'C', 'C', 'C', 'C', 'C', 'C', 'C', 'C', 'C', 'C', 'C', 'C', 'C', 'C']","[1881004, 1881350, 1881718, 1882114, 1882489, 1882865, 1883312, 1883708, 1884055, 1884338, 1884536, 1884718, 1884908, 1885103, 1885316, 1885589, 1885964, 1886332, 1886692, 1886963, 1887222, 1887429, 1887729, 1888030, 1888258, 1888468, 1888706, 1888948, 1889291, 1889575, 1889832]","[1881086, 1881414, 1881789, 1882177, 1882562, 1882959, 1883387, 1883781, 1884136, 1884416, 1884606, 1884793, 1884997, 1885194, 1885393, 1885676, 1886066, 1886442, 1886781, 1887088, 1887312, 1887527, 1887850, 1888121, 1888347, 1888568, 1888801, 1889060, 1889397, 1889693]","[1880950, 1881350, 1881749, 1882149, 1882549, 1882949, 1883350, 1883749, 1884082, 1884365, 1884744, 1885129, 1885616, 1885990, 1886359, 1886718, 1886990, 1887456, 1887756, 1888057, 1888496, 1888975, 1889317, 1889603]",13,R,ITM,1.1,
4,600,trial,0,105,105,105,trial,"['S', 'S', 'S', 'S', 'S', 'S', 'S', 'C', 'C', 'C', 'C', 'C', 'C', 'C', 'C', 'C', 'C', 'C', 'C', 'C', 'C', 'C', 'C']","[1895397, 1896078, 1896749, 1897428, 1898055, 1898622, 1899177, 1899769, 1900234, 1900722, 1901181, 1901651, 1902113, 1902568, 1903009, 1903493, 1903863, 1904315, 1904699, 1905158, 1905643, 1906075, 1906529]","[1895495, 1896171, 1896840, 1897496, 1898136, 1898703, 1899253, 1899844, 1900312, 1900797, 1901258, 1901746, 1902192, 1902646, 1903098, 1903570, 1903992, 1904394, 1904817, 1905246, 1905701, 1906179, 1906617]","[1895146, 1895745, 1896345, 1896945, 1897545, 1898145, 1898745, 1899345, 1899795, 1900260, 1900747, 1901207, 1901677, 1902139, 1902594, 1903035, 1903519, 1903889, 1904342, 1904724, 1905183, 1905669, 1906101, 1906554]",13,R,ITM,1.1,
5,600,trial,0,106,106,106,trial,"['S', 'S', 'S', 'S', 'S', 'S', 'S', 'C', 'C', 'C', 'C', 'C', 'C', 'C', 'C', 'C', 'C', 'C', 'C', 'C', 'C', 'C', 'C']","[1912232, 1912965, 1913631, 1914217, 1914817, 1915396, 1916023, 1916678, 1917218, 1917757, 1918319, 1918817, 1919348, 1919891, 1920396, 1920914, 1921422, 1921912, 1922416, 1922902, 1923407, 1923871, 1924331]","[1912310, 1913031, 1913708, 1914307, 1914902, 1915479, 1916093, 1916767, 1917295, 1917831, 1918404, 1918920, 1919433, 1919961, 1920487, 1921004, 1921508, 1921995, 1922502, 1922979, 1923488, 1923927, 1924416]","[1911954, 1912554, 1913154, 1913754, 1914354, 1914954, 1915554, 1916154, 1916703, 1917244, 1917783, 1918345, 1918842, 1919374, 1919918, 1920421, 1920941, 1921447, 1921939, 1922442, 1922927, 1923434, 1923897, 1924357]",13,R,ITM,1.1,
4,400,trial,0,107,107,107,trial,"['B', 'S', 'S', 'S', 'S', 'S', 'S', 'S', 'C', 'C', 'C', 'C', 'C', 'C', 'C', 'C', 'C', 'C', 'C', 'C', 'C', 'C', 'C', 'C']","[1929667, 1930078, 1930460, 1930865, 1931250, 1931651, 1932030, 1932438, 1932858, 1933306, 1933721, 1934172, 1934582, 1935026, 1935478, 1935916, 1936354, 1936800, 1937230, 1937711, 1938130, 1938570, 1939031, 1939463]","[1929766, 1930220, 1930555, 1930946, 1931346, 1931729, 1932130, 1932535, 1932944, 1933371, 1933798, 1934225, 1934673, 1935113, 1935551, 1935993, 1936453, 1936886, 1937323, 1937781, 1938228, 1938675, 1939098, 1939554]","[1929679, 1930078, 1930478, 1930878, 1931278, 1931678, 1932079, 1932478, 1932883, 1933333, 1933747, 1934197, 1934608, 1935051, 1935504, 1935942, 1936379, 1936826, 1937256, 1937736, 1938156, 1938596, 1939056, 1939488]",13,R,ITM,1.1,
7,600,trial,0,108,108,108,trial,"['S', 'S', 'S', 'S', 'S', 'S', 'S', 'C', 'C', 'C', 'C', 'C', 'C', 'C', 'C', 'C', 'C', 'C', 'C', 'C', 'C', 'C', 'C']","[1945492, 1946284, 1946907, 1947547, 1948100, 1948682, 1949240, 1949848, 1950312, 1950816, 1951309, 1951792, 1952259, 1952746, 1953215, 1953721, 1954211, 1954682, 1955172, 1955687, 1956170, 1956655, 1957095]","[1945577, 1946352, 1946957, 1947587, 1948157, 1948737, 1949298, 1949903, 1950393, 1950862, 1951386, 1951885, 1952353, 1952848, 1953340, 1953784, 1954310, 1954783, 1955267, 1955765, 1956256, 1956738, 1957204]","[1945208, 1945807, 1946407, 1947008, 1947608, 1948208, 1948808, 1949408, 1949875, 1950339, 1950842, 1951336, 1951819, 1952285, 1952773, 1953242, 1953748, 1954239, 1954710, 1955198, 1955715, 1956197, 1956682, 1957122]",13,R,ITM,1.1,
4,600,trial,0,109,109,109,trial,"['S', 'S', 'S', 'S', 'S', 'S', 'S', 'C', 'C', 'C', 'C', 'C', 'C', 'C', 'C', 'C', 'C', 'C', 'C', 'C', 'C', 'C', 'C']","[1963046, 1963772, 1964416, 1965059, 1965711, 1966283, 1966844, 1967437, 1967971, 1968535, 1969080, 1969611, 1970207, 1970760, 1971322, 1971871, 1972373, 1972909, 1973447, 1973966, 1974510, 1975068, 1975612]","[1963104, 1963822, 1964487, 1965129, 1965797, 1966306, 1966899, 1967514, 1968028, 1968612, 1969136, 1969713, 1970259, 1970845, 1971388, 1971949, 1972490, 1972965, 1973496, 1974061, 1974595, 1975123, 1975714]","[1962761, 1963361, 1963961, 1964561, 1965161, 1965761, 1966361, 1966961, 1967463, 1967996, 1968561, 1969105, 1969637, 1970233, 1970786, 1971349, 1971897, 1972399, 1972934, 1973473, 1973992, 1974536, 1975094, 1975638]",13,R,ITM,1.1,
5,400,trial,0,110,110,110,trial,"['S', 'S', 'S', 'S', 'S', 'S', 'S', 'C', 'C', 'C', 'C', 'C', 'C', 'C', 'C', 'C', 'C', 'C', 'C', 'C', 'C', 'C', 'C']","[1981379, 1981880, 1982299, 1982696, 1983110, 1983554, 1983942, 1984366, 1984842, 1985310, 1985813, 1986277, 1986766, 1987266, 1987758, 1988210, 1988759, 1989178, 1989683, 1990078, 1990507, 1991003, 1991459]","[1981479, 1981962, 1982369, 1982785, 1983185, 1983633, 1984016, 1984446, 1984909, 1985390, 1985898, 1986373, 1986867, 1987352, 1987833, 1988308, 1988815, 1989263, 1989708, 1990170, 1990609, 1991106, 1991543]","[1981092, 1981491, 1981891, 1982291, 1982691, 1983091, 1983492, 1983891, 1984392, 1984868, 1985337, 1985840, 1986302, 1986792, 1987292, 1987783, 1988236, 1988786, 1989203, 1989708, 1990105, 1990533, 1991028, 1991485]",13,R,ITM,1.1,
3,400,trial,0,111,111,111,trial,"['S', 'S', 'S', 'S', 'S', 'S', 'S', 'C', 'C', 'C', 'C', 'C', 'C', 'C', 'C', 'C', 'C', 'C', 'C', 'C', 'C', 'C', 'C']","[1997324, 1997766, 1998128, 1998537, 1998974, 1999427, 1999785, 2000205, 2000645, 2001046, 2001435, 2001845, 2002274, 2002710, 2003154, 2003555, 2004033, 2004500, 2004963, 2005425, 2005986, 2006535, 2007077]","[1997406, 1997849, 1998220, 1998627, 1999045, 1999499, 1999876, 2000300, 2000706, 2001121, 2001523, 2001931, 2002363, 2002793, 2003246, 2003642, 2004104, 2004562, 2005037, 2005498, 2006024, 2006596, 2007179]","[1997017, 1997415, 1997815, 1998215, 1998615, 1999015, 1999415, 1999815, 2000231, 2000670, 2001072, 2001461, 2001870, 2002299, 2002736, 2003180, 2003580, 2004059, 2004526, 2004988, 2005450, 2006011, 2006560, 2007103]",13,R,ITM,1.1,
3,400,trial,0,112,112,112,trial,"['S', 'S', 'S', 'S', 'S', 'S', 'S', 'C', 'C', 'C', 'C', 'C', 'C', 'C', 'C', 'C', 'C', 'C', 'C', 'C', 'C', 'C', 'C']","[2013075, 2013446, 2013797, 2014265, 2014698, 2015117, 2015630, 2016065, 2016485, 2016878, 2017313, 2017740, 2018193, 2018589, 2019025, 2019427, 2019824, 2020253, 2020652, 2021053, 2021547, 2021906, 2022349]","[2013139, 2013508, 2013869, 2014343, 2014771, 2015209, 2015712, 2016150, 2016550, 2016998, 2017410, 2017766, 2018266, 2018681, 2019089, 2019502, 2019921, 2020345, 2020766, 2021167, 2021630, 2022000, 2022423]","[2012843, 2013241, 2013641, 2014042, 2014441, 2014841, 2015241, 2015641, 2016091, 2016510, 2016904, 2017339, 2017766, 2018219, 2018615, 2019051, 2019452, 2019850, 2020279, 2020677, 2021080, 2021572, 2021932, 2022375]",13,R,ITM,1.1,
2,400,trial,0,113,113,113,trial,"['S', 'S', 'S', 'S', 'S', 'S', 'S', 'C', 'C', 'C', 'C', 'C', 'C', 'C', 'C', 'C', 'C', 'C', 'C', 'C', 'C', 'C', 'C']","[2027994, 2028425, 2028848, 2029304, 2029696, 2030126, 2030556, 2030935, 2031318, 2031714, 2032122, 2032498, 2032939, 2033368, 2033804, 2034240, 2034674, 2035108, 2035510, 2035965, 2036368, 2036785, 2037211]","[2028070, 2028510, 2028911, 2029377, 2029764, 2030208, 2030621, 2031011, 2031395, 2031791, 2032187, 2032593, 2033007, 2033425, 2033881, 2034296, 2034756, 2035187, 2035575, 2036033, 2036451, 2036868, 2037286]","[2027751, 2028151, 2028552, 2028951, 2029351, 2029751, 2030151, 2030552, 2030962, 2031345, 2031741, 2032149, 2032526, 2032965, 2033395, 2033831, 2034268, 2034702, 2035135, 2035536, 2035993, 2036396, 2036812, 2037238]",13,R,ITM,1.1,
7,400,trial,0,114,114,114,trial,"['S', 'S', 'S', 'S', 'S', 'C', 'C', 'C', 'C', 'C', 'C', 'C', 'C', 'C', 'C', 'C', 'C', 'C', 'C', 'C', 'C']","[2043473, 2043869, 2044232, 2044592, 2045256, 2046163, 2046543, 2047252, 2047747, 2048508, 2048917, 2049803, 2050970, 2052018, 2053261, 2053943, 2054630, 2055153, 2055641, 2056083, 2056484]","[2043570, 2044005, 2044294, 2044668, 2045336, 2046236, 2046606, 2047327, 2047874, 2048627, 2048972, 2049890, 2051041, 2052132, 2053364, 2054024, 2054712, 2055206, 2055723, 2056120, 2056572]","[2042688, 2043087, 2043487, 2043887, 2044288, 2044687, 2045087, 2045488, 2046191, 2046570, 2047279, 2047773, 2048535, 2048944, 2049830, 2050998, 2052044, 2053287, 2053970, 2054658, 2055181, 2055668, 2056111, 2056511]",13,R,ITM,1.1,
6,600,trial,0,115,115,115,trial,"['S', 'S', 'S', 'S', 'S', 'S', 'S', 'C', 'C', 'C', 'C', 'C', 'C', 'C', 'C', 'C', 'C', 'C', 'C', 'C', 'C', 'C', 'C']","[2062029, 2062825, 2063543, 2064111, 2064742, 2065299, 2065901, 2066520, 2067014, 2067511, 2067994, 2068471, 2068970, 2069422, 2069860, 2070315, 2070759, 2071189, 2071624, 2072061, 2072450, 2072909, 2073322]","[2062129, 2062875, 2063630, 2064216, 2064843, 2065400, 2065998, 2066604, 2067086, 2067586, 2068076, 2068557, 2069022, 2069509, 2069960, 2070401, 2070829, 2071271, 2071688, 2072122, 2072528, 2072989, 2073400]","[2061831, 2062430, 2063030, 2063630, 2064230, 2064830, 2065430, 2066030, 2066546, 2067041, 2067538, 2068022, 2068499, 2068998, 2069449, 2069886, 2070342, 2070786, 2071217, 2071652, 2072089, 2072476, 2072936, 2073349]",13,R,ITM,1.1,
2,600,trial,0,116,116,116,trial,"['S', 'S', 'S', 'S', 'S', 'S', 'S', 'C', 'C', 'C', 'C', 'C', 'C', 'C', 'C', 'C', 'C', 'C', 'C', 'C', 'C', 'C', 'C']","[2079368, 2080046, 2080669, 2081289, 2081921, 2082502, 2083099, 2083700, 2084276, 2084793, 2085348, 2085920, 2086491, 2087013, 2087559, 2088131, 2088643, 2089176, 2089730, 2090244, 2090770, 2091286, 2091870]","[2079462, 2080138, 2080753, 2081391, 2081991, 2082587, 2083187, 2083778, 2084334, 2084875, 2085426, 2086008, 2086561, 2087100, 2087618, 2088219, 2088729, 2089271, 2089794, 2090310, 2090845, 2091366, 2091922]","[2078974, 2079575, 2080174, 2080775, 2081375, 2081975, 2082575, 2083175, 2083728, 2084302, 2084819, 2085376, 2085947, 2086517, 2087040, 2087585, 2088159, 2088670, 2089202, 2089757, 2090271, 2090797, 2091314, 2091896]",13,R,ITM,1.1,
2,600,trial,0,117,117,117,trial,"['B', 'S', 'S', 'S', 'S', 'S', 'S', 'S', 'C', 'C', 'C', 'C', 'C', 'C', 'C', 'C', 'C', 'C', 'C', 'C', 'C', 'C', 'C', 'C']","[2097261, 2097689, 2098275, 2098918, 2099560, 2100215, 2100733, 2101345, 2101952, 2102464, 2102971, 2103459, 2103941, 2104397, 2104873, 2105339, 2105822, 2106274, 2106759, 2107239, 2107713, 2108196, 2108665, 2109131]","[2097390, 2097824, 2098402, 2099032, 2099697, 2100329, 2100840, 2101452, 2102070, 2102539, 2103063, 2103527, 2104038, 2104453, 2104962, 2105423, 2105905, 2106360, 2106829, 2107302, 2107793, 2108265, 2108751, 2109215]","[2097274, 2097875, 2098476, 2099076, 2099675, 2100276, 2100876, 2101476, 2101980, 2102491, 2102998, 2103486, 2103967, 2104425, 2104901, 2105366, 2105848, 2106302, 2106786, 2107267, 2107740, 2108224, 2108693, 2109158]",13,R,ITM,1.1,
5,400,trial,0,118,118,118,trial,"['S', 'S', 'S', 'S', 'S', 'S', 'S', 'C', 'C', 'C', 'C', 'C', 'C', 'C', 'C', 'C', 'C', 'C', 'C', 'C', 'C', 'C', 'C']","[2115106, 2115542, 2115896, 2116317, 2116736, 2117168, 2117547, 2117953, 2118321, 2118681, 2119034, 2119426, 2119783, 2120167, 2120534, 2120911, 2121298, 2121671, 2122035, 2122448, 2122816, 2123168, 2123583]","[2115188, 2115640, 2115995, 2116405, 2116817, 2117240, 2117640, 2118004, 2118377, 2118740, 2119113, 2119483, 2119860, 2120237, 2120625, 2120997, 2121361, 2121744, 2122128, 2122512, 2122890, 2123262, 2123636]","[2114840, 2115240, 2115640, 2116040, 2116441, 2116840, 2117240, 2117640, 2117979, 2118347, 2118707, 2119061, 2119451, 2119809, 2120193, 2120559, 2120937, 2121324, 2121697, 2122060, 2122474, 2122843, 2123194, 2123609]",13,R,ITM,1.1,
6,400,trial,0,119,119,119,trial,"['S', 'S', 'S', 'S', 'S', 'S', 'S', 'C', 'C', 'C', 'C', 'C', 'C', 'C', 'C', 'C', 'C', 'C', 'C', 'C', 'C', 'C', 'C']","[2129627, 2130061, 2130442, 2130878, 2131310, 2131703, 2132083, 2132487, 2132871, 2133231, 2133588, 2133948, 2134286, 2134659, 2135061, 2135391, 2135754, 2136116, 2136399, 2136765, 2137105, 2137478, 2137785]","[2129704, 2130125, 2130528, 2130924, 2131395, 2131782, 2132192, 2132550, 2132938, 2133305, 2133675, 2134039, 2134394, 2134771, 2135116, 2135496, 2135836, 2136192, 2136503, 2136859, 2137201, 2137559, 2137893]","[2129378, 2129777, 2130178, 2130577, 2130977, 2131378, 2131777, 2132177, 2132514, 2132898, 2133258, 2133615, 2133975, 2134312, 2134685, 2135088, 2135418, 2135781, 2136143, 2136426, 2136793, 2137133, 2137504, 2137811]",13,R,ITM,1.1,
2,400,trial,0,120,120,120,trial,"['S', 'S', 'S', 'S', 'S', 'S', 'S', 'C', 'C', 'C', 'C', 'C', 'C', 'C', 'C', 'C', 'C', 'C', 'C', 'C', 'C', 'C', 'C']","[2143600, 2144018, 2144407, 2144752, 2145145, 2145546, 2145956, 2146350, 2146752, 2147137, 2147512, 2147866, 2148242, 2148635, 2149021, 2149434, 2149800, 2150182, 2150578, 2150916, 2151307, 2151675, 2152042]","[2143714, 2144103, 2144483, 2144839, 2145216, 2145631, 2146037, 2146437, 2146833, 2147220, 2147599, 2147970, 2148335, 2148719, 2149115, 2149522, 2149906, 2150278, 2150644, 2150967, 2151360, 2151738, 2152122]","[2143230, 2143630, 2144030, 2144431, 2144829, 2145229, 2145631, 2146031, 2146376, 2146779, 2147164, 2147539, 2147894, 2148269, 2148663, 2149048, 2149462, 2149827, 2150209, 2150605, 2150943, 2151334, 2151702, 2152070]",13,R,ITM,1.1,
3,600,trial,0,121,121,121,trial,"['B', 'S', 'S', 'S', 'S', 'S', 'S', 'S', 'C', 'C', 'C', 'C', 'C', 'C', 'C', 'C', 'C', 'C', 'C', 'C', 'C', 'C', 'C', 'C']","[2157822, 2158254, 2158837, 2159507, 2160094, 2160694, 2161247, 2161755, 2162413, 2162869, 2163291, 2163710, 2164117, 2164563, 2164964, 2165379, 2165779, 2166189, 2166610, 2167049, 2167425, 2167846, 2168252, 2168637]","[2157904, 2158350, 2158941, 2159599, 2160180, 2160779, 2161329, 2161869, 2162500, 2162941, 2163398, 2163819, 2164221, 2164660, 2165061, 2165472, 2165881, 2166303, 2166707, 2167132, 2167552, 2167936, 2168357, 2168757]","[2157834, 2158434, 2159034, 2159634, 2160234, 2160834, 2161434, 2162034, 2162439, 2162894, 2163316, 2163736, 2164143, 2164589, 2164989, 2165404, 2165805, 2166214, 2166636, 2167074, 2167450, 2167872, 2168278, 2168663]",13,R,ITM,1.1,
7,600,trial,0,122,122,122,trial,"['S', 'S', 'S', 'S', 'S', 'S', 'S', 'C', 'C', 'C', 'C', 'C', 'C', 'C', 'C', 'C', 'C', 'C', 'C', 'C', 'C', 'C', 'C']","[2174140, 2174965, 2175729, 2176347, 2177007, 2177544, 2178184, 2178719, 2179230, 2179748, 2180265, 2180738, 2181220, 2181679, 2182217, 2182715, 2183198, 2183689, 2184101, 2184531, 2184998, 2185469, 2185879]","[2174260, 2175075, 2175805, 2176430, 2177084, 2177625, 2178284, 2178813, 2179265, 2179836, 2180371, 2180840, 2181302, 2181807, 2182332, 2182827, 2183300, 2183758, 2184178, 2184619, 2185095, 2185559, 2185985]","[2174084, 2174683, 2175283, 2175883, 2176483, 2177083, 2177683, 2178283, 2178746, 2179257, 2179776, 2180293, 2180765, 2181248, 2181706, 2182245, 2182743, 2183225, 2183716, 2184129, 2184559, 2185026, 2185497, 2185907]",13,R,ITM,1.1,
6,600,trial,0,123,123,123,trial,"['S', 'S', 'S', 'S', 'S', 'S', 'C', 'C', 'C', 'C', 'C', 'C', 'C', 'C', 'C', 'C', 'C', 'C', 'C', 'C', 'C', 'C']","[2191572, 2192304, 2192953, 2193614, 2194814, 2195628, 2196159, 2196642, 2197768, 2198278, 2198828, 2199453, 2199929, 2200430, 2200982, 2201487, 2201981, 2202513, 2202999, 2203485, 2203964, 2204435]","[2191654, 2192371, 2192975, 2193661, 2194915, 2195663, 2196251, 2196717, 2197889, 2198431, 2198964, 2199585, 2200061, 2200541, 2201080, 2201589, 2202079, 2202595, 2203109, 2203587, 2204081, 2204539]","[2191316, 2191916, 2192516, 2193116, 2193715, 2194315, 2194915, 2195515, 2196186, 2196669, 2197794, 2198305, 2198854, 2199480, 2199956, 2200457, 2201009, 2201515, 2202008, 2202540, 2203026, 2203511, 2203991, 2204462]",13,R,ITM,1.1,
7,400,trial,0,124,124,124,trial,"['S', 'S', 'S', 'S', 'S', 'S', 'S', 'C', 'C', 'C', 'C', 'C', 'C', 'C', 'C', 'C', 'C', 'C', 'C', 'C', 'C', 'C', 'C']","[2210136, 2210657, 2211099, 2211495, 2211946, 2212323, 2212746, 2213122, 2213562, 2214006, 2214406, 2214887, 2215317, 2215776, 2216209, 2216666, 2217128, 2217564, 2217975, 2218405, 2218876, 2219327, 2219778]","[2210304, 2210760, 2211191, 2211593, 2212027, 2212412, 2212799, 2213199, 2213656, 2214078, 2214504, 2214946, 2215417, 2215877, 2216304, 2216749, 2217228, 2217669, 2218079, 2218508, 2218970, 2219410, 2219885]","[2209851, 2210251, 2210652, 2211051, 2211451, 2211851, 2212251, 2212652, 2213149, 2213588, 2214033, 2214433, 2214914, 2215345, 2215803, 2216237, 2216692, 2217156, 2217590, 2218002, 2218433, 2218903, 2219355, 2219804]",13,R,ITM,1.1,
5,600,trial,0,125,125,125,trial,"['S', 'S', 'S', 'S', 'S', 'S', 'S', 'C', 'C', 'C', 'C', 'C', 'C', 'C', 'C', 'C', 'C', 'C', 'C', 'C', 'C', 'C', 'C']","[2225742, 2226513, 2227122, 2227706, 2228282, 2228873, 2229432, 2230037, 2230571, 2231164, 2231651, 2232228, 2232819, 2233313, 2233853, 2234375, 2234905, 2235449, 2235937, 2236440, 2236909, 2237434, 2237957]","[2225880, 2226609, 2227211, 2227818, 2228364, 2228985, 2229529, 2230152, 2230675, 2231252, 2231794, 2232301, 2232904, 2233422, 2233938, 2234467, 2234991, 2235549, 2236028, 2236525, 2236998, 2237472, 2238056]","[2225378, 2225978, 2226578, 2227178, 2227778, 2228378, 2228978, 2229578, 2230063, 2230596, 2231191, 2231677, 2232254, 2232845, 2233338, 2233879, 2234400, 2234931, 2235474, 2235963, 2236467, 2236935, 2237460, 2237982]",13,R,ITM,1.1,
