octave,ioi,event,.thisRepN,.thisTrialN,.thisN,.thisIndex,event,tap_types,tap_times,release_times,tone_times,subject,handedness,experiment,version,
,,SPR,0,-1,-1,0,SPR,"['P', 'P', 'P', 'P', 'P', 'P', 'P', 'P', 'P', 'P', 'P', 'P', 'P', 'P', 'P', 'P', 'P', 'P', 'P', 'P', 'P', 'P', 'P', 'P', 'P', 'P', 'P', 'P', 'P', 'P']","[62315, 63052, 63779, 64446, 65153, 65869, 66502, 67223, 67905, 68595, 69254, 69944, 70641, 71335, 72053, 72737, 73434, 74142, 74856, 75554, 76242, 76962, 77602, 78296, 78911, 79556, 80277, 80935, 81627, 82276]","[62483, 63259, 63966, 64613, 65357, 66085, 66892, 67580, 68232, 68909, 69594, 70300, 71023, 71718, 72394, 73107, 73718, 74462, 75171, 75848, 76548, 77201, 77882, 78498, 79175, 79810, 80541, 81196, 81827, 82519]",,47,R,ITM,1.1,
4,500,practice,0,0,0,0,practice,"['B', 'S', 'S', 'S', 'S', 'S', 'S', 'S', 'S', 'C', 'C', 'C', 'C', 'C', 'C', 'C', 'C', 'C', 'C', 'C', 'C', 'C', 'C', 'C', 'C']","[183298, 183811, 184310, 184810, 185281, 185747, 186250, 186708, 186810, 187208, 187714, 188221, 188633, 189165, 189673, 190148, 190668, 191168, 191637, 192095, 192626, 193083, 193599, 194064, 194593]","[183422, 183831, 184330, 184830, 185302, 185767, 186270, 186728, 186830, 187255, 187758, 188267, 188679, 189204, 189715, 190183, 190707, 191206, 191678, 192135, 192660, 193122, 193631, 194104, 194624]","[183310, 183811, 184310, 184810, 185310, 185810, 186310, 186810, 187234, 187740, 188247, 188659, 189191, 189699, 190174, 190694, 191194, 191663, 192120, 192652, 193108, 193626, 194089, 194619]",47,R,ITM,1.1,
3,500,practice,0,1,1,1,practice,"['B', 'S', 'S', 'S', 'S', 'S', 'S', 'S', 'C', 'C', 'C', 'C', 'C', 'C', 'C', 'C', 'C', 'C', 'C', 'C', 'C', 'C', 'C', 'C']","[200182, 200693, 201193, 201693, 202146, 202650, 203128, 203644, 204121, 204674, 205103, 205643, 206116, 206579, 207120, 207569, 208126, 208632, 209101, 209599, 210033, 210593, 211079, 211516]","[200305, 200713, 201213, 201713, 202166, 202670, 203148, 203664, 204156, 204707, 205135, 205683, 206152, 206619, 207159, 207604, 208162, 208667, 209139, 209635, 210065, 210632, 211118, 211551]","[200194, 200693, 201193, 201693, 202193, 202693, 203193, 203694, 204146, 204699, 205128, 205669, 206142, 206605, 207145, 207595, 208152, 208658, 209127, 209625, 210059, 210619, 211104, 211542]",47,R,ITM,1.1,
6,500,practice,0,2,2,2,practice,"['B', 'S', 'S', 'S', 'S', 'S', 'S', 'S', 'C', 'C', 'C', 'C', 'C', 'C', 'C', 'C', 'C', 'C', 'C', 'C', 'C', 'C', 'C', 'C']","[217171, 217684, 218184, 218684, 219185, 219684, 220135, 220615, 221117, 221613, 222087, 222553, 222985, 223498, 223936, 224407, 224862, 225328, 225819, 226300, 227786, 228281, 228732, 229221]","[217295, 217704, 218204, 218704, 219205, 219704, 220155, 220635, 221188, 221655, 222162, 222596, 223028, 223536, 223977, 224451, 224902, 225377, 225861, 226338, 227830, 228321, 228771, 229262]","[217185, 217684, 218184, 218684, 219185, 219684, 220184, 220684, 221144, 221639, 222113, 222580, 223011, 223525, 223963, 224435, 224889, 225354, 225847, 226328, 227814, 228308, 228759, 229249]",47,R,ITM,1.1,
7,500,practice,0,3,3,3,practice,"['S', 'S', 'S', 'S', 'C', 'C', 'C', 'C', 'C', 'C', 'C', 'C', 'C', 'C', 'C', 'C', 'C', 'C', 'C', 'C']","[236878, 237370, 237867, 238326, 238854, 239354, 239820, 240312, 240756, 241278, 241744, 242219, 242664, 243208, 243681, 244189, 244651, 245101, 245611, 246113]","[236941, 237436, 237952, 238424, 238940, 239428, 239884, 240363, 240811, 241342, 241787, 242278, 242740, 243294, 243738, 244252, 244733, 245181, 245706, 246210]","[234893, 235393, 235892, 236392, 236893, 237392, 237892, 238392, 238880, 239381, 239847, 240339, 240783, 241306, 241772, 242245, 242691, 243235, 243708, 244216, 244678, 245128, 245639, 246139]",47,R,ITM,1.1,
5,500,practice,0,4,4,4,practice,"['S', 'S', 'S', 'S', 'C', 'C', 'C', 'C', 'C', 'C', 'C', 'C', 'C', 'C', 'C', 'C', 'C', 'C', 'C', 'C']","[253891, 254418, 254899, 255376, 255834, 256346, 256841, 257289, 257719, 258276, 258774, 259249, 259692, 260197, 260679, 261172, 261628, 262141, 262582, 263074]","[254001, 254479, 254982, 255430, 255889, 256400, 256922, 257352, 257745, 258356, 258828, 259311, 259791, 260278, 260762, 261242, 261733, 262188, 262660, 263137]","[251900, 252399, 252899, 253400, 253899, 254399, 254899, 255399, 255859, 256372, 256867, 257314, 257745, 258301, 258799, 259274, 259719, 260222, 260705, 261197, 261654, 262168, 262607, 263100]",47,R,ITM,1.1,
2,500,practice,0,5,5,5,practice,"['S', 'S', 'S', 'S', 'C', 'C', 'C', 'C', 'C', 'C', 'C', 'C', 'C', 'C', 'C', 'C', 'C', 'C', 'C', 'C']","[270682, 271201, 271664, 272156, 272651, 273227, 273705, 274222, 274712, 275238, 275692, 276196, 276684, 277191, 277641, 278212, 278682, 279211, 279674, 280209]","[270702, 271250, 271714, 272211, 272678, 273255, 273759, 274279, 274776, 275269, 275756, 276259, 276758, 277251, 277740, 278252, 278747, 279262, 279737, 280237]","[268701, 269200, 269702, 270201, 270701, 271201, 271702, 272201, 272678, 273254, 273733, 274249, 274739, 275266, 275720, 276222, 276711, 277219, 277667, 278240, 278709, 279238, 279701, 280237]",47,R,ITM,1.1,
7,400,trial,0,6,6,6,trial,"['S', 'S', 'S', 'C', 'C', 'C', 'C', 'C', 'C', 'C', 'C', 'C', 'C', 'C', 'C', 'C', 'C', 'C', 'C']","[292261, 292641, 293028, 293716, 294116, 294513, 294863, 295260, 295694, 296069, 296470, 296870, 297317, 297738, 298149, 298531, 298945, 299376, 299784]","[292321, 292692, 293079, 293756, 294191, 294566, 294952, 295359, 295751, 296143, 296568, 296983, 297398, 297797, 298214, 298641, 299040, 299459, 299873]","[290662, 291061, 291462, 291861, 292261, 292661, 293061, 293462, 293743, 294142, 294541, 294890, 295286, 295721, 296095, 296498, 296897, 297345, 297765, 298177, 298558, 298972, 299403, 299810]",47,R,ITM,1.1,
5,400,trial,0,7,7,7,trial,"['S', 'S', 'S', 'S', 'C', 'C', 'C', 'C', 'C', 'C', 'C', 'C', 'C', 'C', 'C', 'C', 'C', 'C', 'C', 'C']","[306923, 307310, 307671, 308089, 308478, 308878, 309267, 309681, 310055, 310458, 310823, 311266, 311638, 312000, 312368, 312782, 313166, 313551, 313907, 314288]","[307004, 307372, 307771, 308163, 308560, 308946, 309342, 309750, 310126, 310535, 310912, 311355, 311723, 312052, 312429, 312837, 313235, 313606, 313970, 314340]","[305311, 305711, 306110, 306510, 306910, 307310, 307710, 308110, 308504, 308903, 309293, 309706, 310081, 310483, 310850, 311291, 311663, 312026, 312393, 312808, 313193, 313577, 313933, 314313]",47,R,ITM,1.1,
4,600,trial,0,8,8,8,trial,"['S', 'S', 'S', 'S', 'C', 'C', 'C', 'C', 'C', 'C', 'C', 'C', 'C', 'C', 'C', 'C', 'C', 'C', 'C', 'C', 'C']","[322070, 322630, 323264, 323817, 324353, 324971, 325462, 326086, 326590, 327201, 327695, 328206, 328724, 329250, 329755, 329861, 330248, 330687, 331196, 331656, 332142]","[322096, 322655, 323287, 323909, 324378, 324997, 325567, 326112, 326616, 327296, 327720, 328231, 328750, 329277, 329781, 329881, 330273, 330714, 331225, 331681, 332270]","[319682, 320281, 320881, 321481, 322081, 322681, 323281, 323881, 324378, 324997, 325487, 326112, 326616, 327227, 327720, 328231, 328750, 329277, 329781, 330273, 330713, 331222, 331681, 332168]",47,R,ITM,1.1,
4,400,trial,0,9,9,9,trial,"['S', 'S', 'S', 'S', 'C', 'C', 'C', 'C', 'C', 'C', 'C', 'C', 'C', 'C', 'C', 'C', 'C', 'C', 'C', 'C']","[339181, 339552, 339968, 340342, 340784, 341197, 341587, 341945, 342366, 342763, 343135, 343530, 343902, 344312, 344676, 345095, 345462, 345871, 346199, 346604]","[339262, 339642, 340045, 340445, 340862, 341257, 341652, 342030, 342412, 342814, 343161, 343582, 343947, 344345, 344732, 345175, 345524, 345924, 346262, 346680]","[337601, 338001, 338401, 338801, 339202, 339601, 340001, 340402, 340809, 341223, 341613, 341970, 342391, 342789, 343161, 343556, 343927, 344338, 344701, 345121, 345489, 345896, 346224, 346631]",47,R,ITM,1.1,
3,600,trial,0,10,10,10,trial,"['S', 'S', 'S', 'S', 'C', 'C', 'C', 'C', 'C', 'C', 'C', 'C', 'C', 'C', 'C', 'C', 'C', 'C', 'C', 'C']","[354350, 354940, 355523, 356116, 356678, 357277, 357871, 358471, 358973, 359569, 360125, 360664, 361176, 361772, 362336, 362905, 363455, 364010, 364584, 365090]","[354475, 354962, 355622, 356221, 356783, 357362, 357971, 358544, 359087, 359665, 360225, 360784, 361261, 361881, 362455, 362993, 363516, 364083, 364651, 365177]","[351962, 352562, 353162, 353762, 354362, 354962, 355562, 356162, 356704, 357303, 357897, 358497, 358999, 359595, 360151, 360689, 361201, 361797, 362361, 362931, 363481, 364036, 364610, 365116]",47,R,ITM,1.1,
5,600,trial,0,11,11,11,trial,"['S', 'S', 'S', 'S', 'C', 'C', 'C', 'C', 'C', 'C', 'C', 'C', 'C', 'C', 'C', 'C', 'C', 'C', 'C', 'C']","[373005, 373613, 374115, 374740, 375306, 375900, 376462, 377062, 377603, 378152, 378727, 379295, 379891, 380455, 381039, 381593, 382137, 382675, 383197, 383781]","[373103, 373666, 374190, 374820, 375380, 375973, 376582, 377141, 377669, 378235, 378796, 379352, 379955, 380519, 381119, 381670, 382199, 382706, 383322, 383901]","[370566, 371165, 371765, 372365, 372965, 373565, 374165, 374765, 375332, 375925, 376488, 377088, 377628, 378178, 378753, 379322, 379917, 380481, 381065, 381620, 382163, 382701, 383222, 383807]",47,R,ITM,1.1,
3,600,trial,0,12,12,12,trial,"['S', 'S', 'S', 'S', 'C', 'C', 'C', 'C', 'C', 'C', 'C', 'C', 'C', 'C', 'C', 'C', 'C', 'C', 'C', 'C']","[391937, 392567, 393154, 393775, 394299, 394908, 395463, 396094, 396631, 397257, 397792, 398402, 398996, 399588, 400150, 400738, 401267, 401830, 402419, 402954]","[392028, 392649, 393243, 393838, 394330, 394943, 395489, 396120, 396699, 397322, 397891, 398511, 399022, 399674, 400229, 400802, 401333, 401897, 402449, 403023]","[389568, 390167, 390767, 391367, 391967, 392567, 393167, 393767, 394324, 394934, 395489, 396120, 396656, 397283, 397817, 398428, 399022, 399613, 400176, 400763, 401293, 401856, 402445, 402979]",47,R,ITM,1.1,
3,400,trial,0,13,13,13,trial,"['C', 'C', 'C', 'C', 'C', 'C', 'C', 'C', 'C', 'C', 'C', 'C', 'C', 'C', 'C', 'C']","[411703, 412101, 412481, 412866, 413238, 413600, 413983, 414357, 414790, 415194, 415559, 415997, 416397, 416789, 417191, 417565]","[411777, 412127, 412507, 412940, 413302, 413664, 414009, 414383, 414816, 415219, 415585, 416023, 416422, 416815, 417217, 417591]","[408541, 408941, 409341, 409741, 410141, 410542, 410941, 411341, 411728, 412127, 412507, 412892, 413263, 413626, 414009, 414383, 414816, 415219, 415585, 416023, 416422, 416815, 417217, 417591]",47,R,ITM,1.1,
7,600,trial,0,14,14,14,trial,"['C', 'C', 'C', 'C', 'C', 'C', 'C', 'C', 'C', 'C', 'C', 'C', 'C', 'C', 'C', 'C']","[427670, 428259, 428807, 429369, 429943, 430478, 431038, 431580, 432086, 432686, 433195, 433726, 434225, 434781, 435284, 435773]","[427798, 428342, 428910, 429475, 430014, 430594, 431165, 431666, 432197, 432715, 433277, 433802, 434337, 434862, 435312, 435801]","[423029, 423628, 424228, 424828, 425428, 426029, 426629, 427229, 427697, 428286, 428833, 429396, 429970, 430504, 431065, 431606, 432113, 432712, 433221, 433754, 434251, 434807, 435312, 435801]",47,R,ITM,1.1,
3,400,trial,0,15,15,15,trial,"['S', 'S', 'S', 'S', 'C', 'C', 'C', 'C', 'C', 'C', 'C', 'C', 'C', 'C', 'C', 'C', 'C', 'C', 'C', 'C']","[443127, 443548, 443931, 444335, 444736, 445151, 445563, 445944, 446347, 446734, 447133, 447535, 447916, 448305, 448669, 449086, 449462, 449856, 450229, 450610]","[443188, 443602, 444006, 444404, 444841, 445254, 445647, 446030, 446417, 446818, 447209, 447610, 447983, 448373, 448743, 449153, 449534, 449931, 450319, 450707]","[441569, 441969, 442370, 442769, 443169, 443570, 443970, 444370, 444762, 445176, 445589, 445970, 446372, 446759, 447159, 447560, 447941, 448330, 448695, 449112, 449487, 449882, 450254, 450635]",47,R,ITM,1.1,
7,400,trial,0,16,16,16,trial,"['S', 'S', 'S', 'S', 'C', 'C', 'C', 'C', 'C', 'C', 'C', 'C', 'C', 'C', 'C', 'C', 'C', 'C', 'C', 'C']","[458036, 458385, 458777, 459185, 459601, 460000, 460421, 460812, 461216, 461603, 461991, 462417, 462770, 463185, 463581, 463965, 464356, 464731, 465125, 465504]","[458068, 458450, 458851, 459279, 459705, 460086, 460507, 460906, 461300, 461702, 462112, 462504, 462854, 463268, 463663, 464057, 464427, 464787, 465203, 465589]","[456399, 456798, 457198, 457598, 457998, 458398, 458799, 459198, 459629, 460026, 460448, 460838, 461244, 461630, 462018, 462444, 462797, 463212, 463607, 463992, 464384, 464758, 465152, 465531]",47,R,ITM,1.1,
2,600,trial,0,17,17,17,trial,"['S', 'S', 'S', 'S', 'C', 'C', 'C', 'C', 'C', 'C', 'C', 'C', 'C', 'C', 'C', 'C', 'C', 'C', 'C', 'C']","[473457, 474092, 474678, 475247, 475864, 476413, 476923, 477537, 478093, 478610, 479114, 479648, 480159, 480729, 481304, 481827, 482362, 482888, 483424, 483906]","[473601, 474221, 474813, 475375, 475973, 476514, 477030, 477606, 478152, 478670, 479185, 479716, 480187, 480755, 481331, 481855, 482388, 482916, 483491, 483994]","[471200, 471799, 472400, 472999, 473601, 474201, 474800, 475401, 475890, 476441, 476951, 477564, 478119, 478638, 479141, 479676, 480186, 480755, 481331, 481855, 482388, 482915, 483451, 483934]",47,R,ITM,1.1,
5,600,trial,0,18,18,18,trial,"['S', 'S', 'S', 'S', 'C', 'C', 'C', 'C', 'C', 'C', 'C', 'C', 'C', 'C', 'C', 'C', 'C', 'C', 'C', 'C']","[498214, 498881, 499458, 500061, 500649, 501251, 501829, 502375, 502928, 503516, 504037, 504624, 505171, 505729, 506278, 506877, 507329, 507921, 508470, 508992]","[498353, 498997, 499573, 500190, 500824, 501396, 501987, 502524, 503094, 503627, 504209, 504760, 505300, 505895, 506452, 507012, 507559, 508100, 508642, 509131]","[495949, 496548, 497148, 497748, 498349, 498949, 499549, 500149, 500675, 501277, 501855, 502401, 502953, 503542, 504062, 504649, 505197, 505755, 506304, 506903, 507355, 507947, 508495, 509018]",47,R,ITM,1.1,
4,600,trial,0,19,19,19,trial,"['S', 'S', 'S', 'S', 'C', 'C', 'C', 'C', 'C', 'C', 'C', 'C', 'C', 'C', 'C', 'C', 'C', 'C', 'C', 'C']","[516822, 517543, 518147, 518697, 519262, 519869, 520421, 521026, 521544, 522156, 522745, 523322, 523791, 524442, 525025, 525594, 526074, 526739, 527286, 527833]","[516967, 517632, 518251, 518815, 519374, 519970, 520576, 521153, 521664, 522252, 522858, 523416, 523894, 524468, 525088, 525650, 526161, 526792, 527375, 527889]","[514520, 515119, 515719, 516319, 516919, 517519, 518119, 518719, 519287, 519895, 520448, 521052, 521570, 522182, 522772, 523347, 523816, 524468, 525050, 525620, 526100, 526765, 527311, 527858]",47,R,ITM,1.1,
6,600,trial,0,20,20,20,trial,"['S', 'S', 'S', 'S', 'C', 'C', 'C', 'C', 'C', 'C', 'C', 'C', 'C', 'C', 'C', 'C', 'C', 'C', 'C', 'C']","[535582, 536197, 536726, 537319, 537902, 538508, 539049, 539616, 540154, 540684, 541198, 541716, 542241, 542759, 543341, 543870, 544417, 544955, 545483, 546032]","[535676, 536275, 536837, 537439, 538011, 538603, 539147, 539695, 540185, 540737, 541246, 541778, 542298, 542834, 543418, 543952, 544510, 545043, 545574, 546089]","[533220, 533819, 534419, 535019, 535619, 536219, 536819, 537419, 537928, 538534, 539076, 539642, 540181, 540711, 541224, 541743, 542269, 542786, 543368, 543897, 544444, 544983, 545511, 546059]",47,R,ITM,1.1,
6,400,trial,0,21,21,21,trial,"['S', 'S', 'S', 'S', 'C', 'C', 'C', 'C', 'C', 'C', 'C', 'C', 'C', 'C', 'C', 'C', 'C', 'C', 'C', 'C']","[553337, 553683, 554068, 554463, 554854, 555225, 555611, 555982, 556362, 556722, 557093, 557468, 557822, 558213, 558557, 558898, 559290, 559640, 559989, 560390]","[553397, 553711, 554137, 554527, 554892, 555296, 555673, 556050, 556437, 556802, 557168, 557532, 557902, 558287, 558658, 558998, 559378, 559711, 560080, 560417]","[551707, 552107, 552506, 552906, 553307, 553706, 554106, 554506, 554882, 555252, 555637, 556009, 556390, 556748, 557120, 557495, 557850, 558240, 558583, 558925, 559316, 559668, 560017, 560416]",47,R,ITM,1.1,
6,600,trial,0,22,22,22,trial,"['S', 'S', 'S', 'S', 'C', 'C', 'C', 'C', 'C', 'C', 'C', 'C', 'C', 'C', 'C', 'C', 'C', 'C', 'C', 'C']","[568517, 569104, 569692, 570294, 570842, 571396, 571926, 572519, 573015, 573562, 574098, 574631, 575143, 575668, 576207, 576753, 577217, 577762, 578245, 578793]","[568633, 569203, 569809, 570393, 570951, 571485, 572019, 572592, 573041, 573590, 574125, 574711, 575170, 575766, 576305, 576829, 577328, 577870, 578366, 578884]","[566203, 566802, 567402, 568002, 568602, 569202, 569802, 570402, 570869, 571422, 571953, 572547, 573041, 573590, 574125, 574658, 575170, 575695, 576234, 576780, 577244, 577788, 578273, 578820]",47,R,ITM,1.1,
7,600,trial,0,23,23,23,trial,"['S', 'S', 'S', 'S', 'C', 'C', 'C', 'C', 'C', 'C', 'C', 'C', 'C', 'C', 'C', 'C', 'C', 'C', 'C', 'C']","[586863, 587451, 588052, 588684, 589223, 589836, 590409, 591002, 591551, 592135, 592695, 593242, 593766, 594382, 594920, 595483, 595944, 596546, 597100, 597634]","[586975, 587553, 588130, 588758, 589353, 589959, 590513, 591088, 591663, 592211, 592771, 593337, 593870, 594485, 595037, 595585, 596093, 596708, 597235, 597726]","[584502, 585101, 585701, 586301, 586901, 587501, 588101, 588701, 589250, 589863, 590436, 591029, 591579, 592161, 592722, 593268, 593794, 594409, 594947, 595511, 595971, 596573, 597127, 597660]",47,R,ITM,1.1,
2,600,trial,0,24,24,24,trial,"['S', 'S', 'S', 'S', 'C', 'C', 'C', 'C', 'C', 'C', 'C', 'C', 'C', 'C', 'C', 'C', 'C', 'C', 'C', 'C']","[605523, 606117, 606688, 607327, 607924, 608552, 609103, 609679, 610243, 610825, 611404, 611914, 612493, 613068, 613687, 614202, 614673, 615245, 615798, 616348]","[605579, 606187, 606790, 607428, 608029, 608636, 609212, 609777, 610341, 610887, 611490, 612049, 612593, 613096, 613739, 614230, 614785, 615343, 615889, 616483]","[603206, 603806, 604405, 605006, 605606, 606206, 606807, 607407, 607950, 608579, 609130, 609707, 610271, 610852, 611431, 611941, 612520, 613095, 613714, 614230, 614701, 615272, 615826, 616376]",47,R,ITM,1.1,
2,400,trial,0,25,25,25,trial,"['S', 'S', 'S', 'S', 'C', 'C', 'C', 'C', 'C', 'C', 'C', 'C', 'C', 'C', 'C', 'C', 'C', 'C', 'C', 'C']","[623520, 623910, 624296, 624714, 625123, 625505, 625892, 626287, 626671, 627075, 627469, 627864, 628236, 628636, 629014, 629436, 629789, 630181, 630540, 630918]","[623591, 623979, 624394, 624806, 625234, 625608, 625999, 626390, 626776, 627167, 627556, 627946, 628333, 628706, 629103, 629514, 629889, 630240, 630611, 630998]","[621948, 622348, 622748, 623149, 623547, 623948, 624349, 624747, 625150, 625532, 625920, 626314, 626699, 627102, 627495, 627891, 628262, 628663, 629041, 629463, 629817, 630209, 630567, 630945]",47,R,ITM,1.1,
6,400,trial,0,26,26,26,trial,"['S', 'S', 'S', 'S', 'C', 'C', 'C', 'C', 'C', 'C', 'C', 'C', 'C', 'C', 'C', 'C', 'C', 'C', 'C', 'C']","[638070, 638438, 638851, 639260, 639646, 640032, 640384, 640708, 641121, 641539, 641925, 642332, 642710, 643141, 643538, 643936, 644291, 644708, 645066, 645478]","[638164, 638540, 638919, 639338, 639732, 640086, 640475, 640811, 641176, 641603, 641985, 642416, 642792, 643224, 643598, 643987, 644370, 644766, 645167, 645543]","[636482, 636881, 637281, 637681, 638082, 638481, 638881, 639282, 639673, 640059, 640410, 640736, 641148, 641565, 641951, 642360, 642738, 643168, 643565, 643962, 644318, 644734, 645094, 645505]",47,R,ITM,1.1,
2,400,trial,0,27,27,27,trial,"['S', 'S', 'S', 'S', 'C', 'C', 'C', 'C', 'C', 'C', 'C', 'C', 'C', 'C', 'C', 'C', 'C', 'C', 'C', 'C']","[652610, 653005, 653391, 653793, 654218, 654598, 654992, 655414, 655808, 656204, 656553, 657010, 657379, 657787, 658176, 658524, 658955, 659336, 659724, 660077]","[652694, 653088, 653486, 653890, 654300, 654681, 655105, 655493, 655890, 656285, 656675, 657082, 657477, 657862, 658234, 658618, 659020, 659409, 659787, 660159]","[651029, 651430, 651830, 652230, 652631, 653030, 653430, 653831, 654245, 654624, 655020, 655440, 655835, 656231, 656581, 657038, 657406, 657814, 658203, 658551, 658981, 659362, 659751, 660105]",47,R,ITM,1.1,
4,400,trial,0,28,28,28,trial,"['S', 'S', 'S', 'S', 'C', 'C', 'C', 'C', 'C', 'C', 'C', 'C', 'C', 'C', 'C', 'C', 'C', 'C', 'C', 'C']","[667167, 667564, 667968, 668356, 668768, 669180, 669571, 669987, 670355, 670761, 671151, 671534, 671894, 672314, 672649, 673037, 673427, 673783, 674178, 674555]","[667254, 667656, 668039, 668461, 668854, 669280, 669628, 670016, 670424, 670829, 671217, 671606, 671961, 672388, 672722, 673098, 673489, 673862, 674241, 674581]","[665607, 666005, 666405, 666805, 667205, 667606, 668005, 668405, 668793, 669206, 669596, 670013, 670381, 670787, 671176, 671559, 671920, 672339, 672675, 673062, 673453, 673810, 674203, 674581]",47,R,ITM,1.1,
5,400,trial,0,29,29,29,trial,"['S', 'S', 'S', 'S', 'C', 'C', 'C', 'C', 'C', 'C', 'C', 'C', 'C', 'C', 'C', 'C', 'C', 'C', 'C', 'C']","[681500, 681895, 682311, 682718, 683137, 683563, 683957, 684331, 684740, 685115, 685481, 685881, 686259, 686666, 687044, 687420, 687803, 688198, 688600, 688995]","[681597, 681988, 682386, 682812, 683219, 683632, 684023, 684426, 684815, 685181, 685591, 685974, 686368, 686773, 687133, 687517, 687894, 688277, 688689, 689080]","[679947, 680346, 680747, 681146, 681546, 681947, 682346, 682746, 683162, 683588, 683982, 684357, 684766, 685140, 685507, 685907, 686285, 686693, 687071, 687446, 687830, 688225, 688625, 689020]",47,R,ITM,1.1,
5,400,trial,0,30,30,30,trial,"['S', 'S', 'S', 'S', 'C', 'C', 'C', 'C', 'C', 'C', 'C', 'C', 'C', 'C', 'C', 'C', 'C', 'C', 'C', 'C']","[708903, 709347, 709750, 710137, 710552, 710956, 711385, 711752, 712178, 712583, 712947, 713367, 713753, 714156, 714515, 714926, 715309, 715715, 716094, 716510]","[709038, 709449, 709813, 710201, 710650, 711057, 711450, 711841, 712252, 712668, 713048, 713442, 713858, 714248, 714659, 715053, 715441, 715833, 716219, 716624]","[707385, 707784, 708185, 708584, 708984, 709384, 709784, 710184, 710579, 710981, 711410, 711779, 712205, 712608, 712974, 713393, 713779, 714181, 714541, 714952, 715334, 715741, 716121, 716535]",47,R,ITM,1.1,
7,400,trial,0,31,31,31,trial,"['S', 'S', 'S', 'S', 'C', 'C', 'C', 'C', 'C', 'C', 'C', 'C', 'C', 'C', 'C', 'C', 'C', 'C', 'C', 'C']","[723449, 723849, 724240, 724649, 725055, 725447, 725839, 726262, 726652, 727047, 727460, 727843, 728269, 728678, 729026, 729411, 729792, 730199, 730550, 730976]","[723530, 723879, 724322, 724698, 725101, 725501, 725902, 726308, 726706, 727107, 727534, 727908, 728350, 728733, 729097, 729494, 729873, 730265, 730636, 731019]","[721874, 722273, 722673, 723074, 723473, 723873, 724274, 724673, 725083, 725475, 725866, 726290, 726680, 727073, 727487, 727871, 728297, 728706, 729053, 729438, 729820, 730225, 730577, 731002]",47,R,ITM,1.1,
5,600,trial,0,32,32,32,trial,"['S', 'S', 'S', 'S', 'C', 'C', 'C', 'C', 'C', 'C', 'C', 'C', 'C', 'C', 'C', 'C', 'C', 'C', 'C', 'C']","[738652, 739304, 739879, 740502, 741052, 741604, 742172, 742721, 743249, 743768, 744288, 744788, 745295, 745793, 746290, 746800, 747310, 747789, 748333, 748795]","[738779, 739437, 740008, 740620, 741160, 741724, 742303, 742807, 743343, 743866, 744365, 744857, 745366, 745880, 746377, 746858, 747390, 747868, 748396, 748855]","[736373, 736972, 737572, 738172, 738772, 739373, 739973, 740573, 741078, 741629, 742198, 742747, 743275, 743794, 744313, 744814, 745321, 745820, 746315, 746826, 747336, 747814, 748358, 748821]",47,R,ITM,1.1,
6,400,trial,0,33,33,33,trial,"['S', 'S', 'S', 'S', 'C', 'C', 'C', 'C', 'C', 'C', 'C', 'C', 'C', 'C', 'C', 'C', 'C', 'C', 'C', 'C']","[756063, 756442, 756816, 757216, 757667, 758078, 758459, 758870, 759270, 759648, 760050, 760435, 760830, 761235, 761628, 762018, 762414, 762827, 763199, 763640]","[756152, 756540, 756917, 757328, 757711, 758149, 758534, 758939, 759350, 759737, 760113, 760526, 760929, 761323, 761718, 762084, 762484, 762904, 763259, 763704]","[754493, 754892, 755293, 755692, 756092, 756492, 756892, 757293, 757695, 758105, 758486, 758897, 759297, 759674, 760077, 760462, 760858, 761262, 761656, 762045, 762441, 762855, 763226, 763667]",47,R,ITM,1.1,
2,600,trial,0,34,34,34,trial,"['S', 'S', 'S', 'S', 'C', 'C', 'C', 'C', 'C', 'C', 'C', 'C', 'C', 'C', 'C', 'C', 'C', 'C', 'C', 'C']","[771422, 772017, 772585, 773167, 773803, 774371, 774892, 775473, 775983, 776529, 777068, 777572, 778110, 778633, 779201, 779705, 780243, 780741, 781263, 781783]","[771582, 772093, 772708, 773276, 773901, 774469, 775006, 775548, 776085, 776622, 777164, 777643, 778238, 778742, 779295, 779786, 780316, 780854, 781374, 781880]","[769107, 769707, 770307, 770907, 771508, 772108, 772707, 773308, 773829, 774397, 774920, 775499, 776009, 776557, 777096, 777600, 778137, 778659, 779228, 779732, 780271, 780768, 781291, 781809]",47,R,ITM,1.1,
3,600,trial,0,35,35,35,trial,"['S', 'S', 'S', 'S', 'C', 'C', 'C', 'C', 'C', 'C', 'C', 'C', 'C', 'C', 'C', 'C', 'C', 'C', 'C', 'C']","[789558, 790153, 790790, 791342, 791903, 792478, 793044, 793623, 794179, 794740, 795229, 795776, 796348, 796843, 797347, 797891, 798445, 798964, 799448, 799976]","[789650, 790249, 790810, 791408, 791983, 792574, 793148, 793707, 794262, 794766, 795254, 795801, 796416, 796925, 797446, 798018, 798554, 799082, 799558, 800043]","[787205, 787805, 788405, 789005, 789605, 790205, 790805, 791405, 791928, 792504, 793070, 793649, 794205, 794766, 795254, 795801, 796374, 796868, 797373, 797917, 798471, 798990, 799473, 800002]",47,R,ITM,1.1,
7,600,trial,0,36,36,36,trial,"['S', 'S', 'S', 'S', 'C', 'C', 'C', 'C', 'C', 'C', 'C', 'C', 'C', 'C', 'C', 'C', 'C', 'C', 'C', 'C']","[807717, 808295, 808862, 809444, 809986, 810604, 811113, 811691, 812264, 812786, 813308, 813836, 814368, 814878, 815403, 815978, 816461, 816985, 817515, 818046]","[807810, 808368, 808947, 809547, 810012, 810631, 811140, 811718, 812291, 812814, 813336, 813863, 814395, 814906, 815430, 816005, 816488, 817011, 817543, 818074]","[805348, 805947, 806547, 807147, 807747, 808347, 808947, 809547, 810012, 810631, 811140, 811718, 812291, 812814, 813336, 813863, 814395, 814905, 815430, 816005, 816488, 817011, 817543, 818074]",47,R,ITM,1.1,
4,400,trial,0,37,37,37,trial,"['S', 'S', 'S', 'S', 'C', 'C', 'C', 'C', 'C', 'C', 'C', 'C', 'C', 'C', 'C', 'C', 'C', 'C', 'C', 'C']","[825083, 825444, 825848, 826244, 826650, 827035, 827418, 827783, 828164, 828555, 828929, 829312, 829694, 830058, 830428, 830812, 831160, 831517, 831870, 832242]","[825114, 825516, 825930, 826316, 826679, 827105, 827482, 827856, 828242, 828618, 828998, 829375, 829752, 830126, 830453, 830837, 831225, 831577, 831943, 832271]","[823479, 823878, 824279, 824678, 825078, 825479, 825879, 826279, 826676, 827061, 827444, 827808, 828189, 828580, 828954, 829337, 829720, 830084, 830453, 830837, 831185, 831543, 831896, 832268]",47,R,ITM,1.1,
2,400,trial,0,38,38,38,trial,"['S', 'S', 'S', 'S', 'C', 'C', 'C', 'C', 'C', 'C', 'C', 'C', 'C', 'C', 'C', 'C', 'C', 'C', 'C', 'C']","[839312, 839702, 840088, 840494, 840894, 841270, 841652, 842042, 842416, 842800, 843174, 843544, 843900, 844273, 844663, 845025, 845423, 845803, 846170, 846561]","[839388, 839783, 840174, 840582, 840957, 841325, 841710, 842094, 842475, 842874, 843247, 843643, 843979, 844357, 844690, 845051, 845488, 845862, 846197, 846588]","[837712, 838112, 838512, 838913, 839312, 839712, 840113, 840512, 840922, 841296, 841678, 842068, 842442, 842827, 843202, 843571, 843928, 844300, 844690, 845051, 845451, 845830, 846197, 846588]",47,R,ITM,1.1,
2,400,trial,0,39,39,39,trial,"['S', 'S', 'S', 'S', 'C', 'C', 'C', 'C', 'C', 'C', 'C', 'C', 'C', 'C', 'C', 'C', 'C', 'C', 'C', 'C']","[853607, 853977, 854383, 854747, 855173, 855562, 855916, 856328, 856720, 857067, 857452, 857868, 858268, 858672, 859046, 859448, 859864, 860225, 860619, 861030]","[853673, 854070, 854450, 854834, 855236, 855627, 855984, 856402, 856783, 857095, 857539, 857894, 858295, 858699, 859117, 859505, 859890, 860285, 860678, 861085]","[852026, 852425, 852826, 853226, 853626, 854025, 854426, 854825, 855199, 855589, 855944, 856355, 856748, 857095, 857479, 857894, 858295, 858699, 859073, 859475, 859890, 860252, 860647, 861058]",47,R,ITM,1.1,
7,600,trial,0,40,40,40,trial,"['S', 'S', 'S', 'S', 'C', 'C', 'C', 'C', 'C', 'C', 'C', 'C', 'C', 'C', 'C', 'C', 'C', 'C', 'C', 'C']","[868963, 869547, 870168, 870770, 871327, 871898, 872456, 873015, 873534, 874062, 874574, 875120, 875619, 876129, 876653, 877157, 877662, 878130, 878647, 879148]","[869053, 869633, 870234, 870845, 871425, 871969, 872526, 873049, 873603, 874128, 874653, 875197, 875699, 876242, 876682, 877225, 877720, 878195, 878712, 879176]","[866632, 867231, 867831, 868431, 869031, 869632, 870232, 870832, 871354, 871924, 872482, 873042, 873561, 874089, 874601, 875147, 875646, 876155, 876681, 877184, 877689, 878157, 878673, 879174]",47,R,ITM,1.1,
4,400,trial,0,41,41,41,trial,"['S', 'S', 'S', 'S', 'C', 'C', 'C', 'C', 'C', 'C', 'C', 'C', 'C', 'C', 'C', 'C', 'C', 'C', 'C', 'C']","[886179, 886585, 887005, 887382, 887795, 888169, 888570, 888940, 889323, 889714, 890096, 890482, 890862, 891241, 891646, 892022, 892433, 892841, 893229, 893594]","[886300, 886678, 887090, 887461, 887871, 888257, 888652, 889033, 889398, 889767, 890173, 890549, 890936, 891307, 891723, 892114, 892512, 892898, 893325, 893693]","[884603, 885002, 885402, 885803, 886202, 886602, 887003, 887402, 887821, 888195, 888596, 888966, 889349, 889740, 890123, 890508, 890888, 891267, 891671, 892048, 892459, 892867, 893254, 893620]",47,R,ITM,1.1,
3,400,trial,0,42,42,42,trial,"['S', 'S', 'S', 'S', 'C', 'C', 'C', 'C', 'C', 'C', 'C', 'C', 'C', 'C', 'C', 'C', 'C', 'C', 'C', 'C']","[913688, 914087, 914501, 914871, 915257, 915659, 916040, 916442, 916887, 917279, 917660, 918078, 918477, 918890, 919298, 919669, 920052, 920481, 920858, 921270]","[913794, 914186, 914585, 914934, 915320, 915700, 916128, 916518, 916934, 917346, 917728, 918151, 918532, 918983, 919378, 919752, 920127, 920541, 920928, 921331]","[912070, 912471, 912870, 913270, 913671, 914071, 914471, 914871, 915282, 915685, 916066, 916467, 916913, 917305, 917686, 918104, 918503, 918916, 919323, 919695, 920078, 920507, 920884, 921295]",47,R,ITM,1.1,
4,600,trial,0,43,43,43,trial,"['S', 'S', 'S', 'S', 'C', 'C', 'C', 'C', 'C', 'C', 'C', 'C', 'C', 'C', 'C', 'C', 'C', 'C', 'C', 'C', 'C']","[929049, 929670, 930216, 930804, 931381, 931917, 932421, 932978, 933505, 933985, 934090, 934589, 935043, 935529, 936035, 936573, 937031, 937463, 937960, 938397, 938929]","[929166, 929774, 930325, 930883, 931445, 931950, 932453, 933010, 933581, 934010, 934110, 934621, 935132, 935600, 936097, 936631, 937060, 937533, 937990, 938425, 938978]","[926726, 927325, 927925, 928525, 929125, 929725, 930325, 930925, 931406, 931943, 932447, 933004, 933530, 934010, 934615, 935068, 935556, 936060, 936599, 937057, 937489, 937987, 938423, 938954]",47,R,ITM,1.1,
3,600,trial,0,44,44,44,trial,"['S', 'S', 'S', 'S', 'C', 'C', 'C', 'C', 'C', 'C', 'C', 'C', 'C', 'C', 'C', 'C', 'C', 'C', 'C', 'C']","[946715, 947317, 947895, 948470, 949072, 949643, 950199, 950727, 951263, 951802, 952338, 952867, 953409, 953850, 954458, 955006, 955468, 955988, 956526, 957022]","[946824, 947400, 947963, 948552, 949131, 949705, 950260, 950793, 951291, 951884, 952417, 952920, 953438, 953932, 954486, 955066, 955557, 956019, 956607, 957125]","[944416, 945015, 945615, 946215, 946816, 947416, 948016, 948615, 949098, 949668, 950224, 950753, 951288, 951828, 952364, 952893, 953435, 953876, 954483, 955032, 955494, 956014, 956552, 957047]",47,R,ITM,1.1,
6,400,trial,0,45,45,45,trial,"['S', 'S', 'S', 'S', 'C', 'C', 'C', 'C', 'C', 'C', 'C', 'C', 'C', 'C', 'C', 'C', 'C', 'C', 'C', 'C']","[964208, 964566, 964969, 965359, 965774, 966158, 966528, 966895, 967259, 967611, 967979, 968355, 968704, 969078, 969462, 969803, 970166, 970526, 970855, 971241]","[964296, 964643, 965054, 965429, 965844, 966217, 966590, 966978, 967328, 967685, 968045, 968434, 968770, 969148, 969490, 969866, 970223, 970562, 970894, 971287]","[962630, 963030, 963429, 963829, 964230, 964629, 965029, 965429, 965800, 966185, 966554, 966923, 967285, 967638, 968006, 968382, 968730, 969105, 969490, 969830, 970193, 970553, 970882, 971269]",47,R,ITM,1.1,
5,400,trial,0,46,46,46,trial,"['S', 'S', 'S', 'S', 'C', 'C', 'C', 'C', 'C', 'C', 'C', 'C', 'C', 'C', 'C', 'C', 'C', 'C', 'C', 'C']","[978558, 978937, 979350, 979749, 980154, 980549, 980924, 981309, 981689, 982105, 982500, 982896, 983272, 983667, 984046, 984426, 984826, 985224, 985595, 986001]","[978649, 979038, 979434, 979824, 980228, 980625, 981016, 981407, 981791, 982213, 982620, 982981, 983351, 983737, 984122, 984536, 984943, 985313, 985683, 986065]","[976992, 977391, 977792, 978191, 978591, 978992, 979391, 979791, 980179, 980575, 980950, 981335, 981714, 982130, 982526, 982923, 983298, 983693, 984073, 984452, 984852, 985249, 985622, 986027]",47,R,ITM,1.1,
5,600,trial,0,47,47,47,trial,"['S', 'S', 'S', 'S', 'C', 'C', 'C', 'C', 'C', 'C', 'C', 'C', 'C', 'C', 'C', 'C', 'C', 'C', 'C', 'C']","[994021, 994609, 995188, 995828, 996393, 996925, 997472, 998024, 998529, 999099, 999613, 1000132, 1000656, 1001159, 1001704, 1002194, 1002725, 1003244, 1003712, 1004220]","[994174, 994786, 995371, 996012, 996579, 997131, 997661, 998194, 998742, 999305, 999792, 1000350, 1000912, 1001411, 1001931, 1002435, 1002966, 1003415, 1003858, 1004382]","[991708, 992306, 992906, 993506, 994106, 994706, 995306, 995906, 996419, 996951, 997497, 998049, 998554, 999124, 999640, 1000158, 1000683, 1001185, 1001730, 1002220, 1002750, 1003270, 1003738, 1004247]",47,R,ITM,1.1,
2,600,trial,0,48,48,48,trial,"['S', 'S', 'S', 'S', 'C', 'C', 'C', 'C', 'C', 'C', 'C', 'C', 'C', 'C', 'C', 'C', 'C', 'C', 'C', 'C']","[1012272, 1012865, 1013423, 1014046, 1014679, 1015246, 1015833, 1016408, 1016991, 1017567, 1018120, 1018710, 1019272, 1019812, 1020380, 1020934, 1021515, 1022065, 1022600, 1023161]","[1012489, 1013048, 1013602, 1014193, 1014797, 1015372, 1015981, 1016535, 1017105, 1017736, 1018300, 1018855, 1019401, 1019985, 1020554, 1021148, 1021707, 1022269, 1022831, 1023292]","[1009899, 1010499, 1011098, 1011699, 1012299, 1012899, 1013499, 1014099, 1014707, 1015274, 1015861, 1016435, 1017018, 1017593, 1018146, 1018736, 1019298, 1019839, 1020407, 1020960, 1021542, 1022093, 1022627, 1023188]",47,R,ITM,1.1,
4,600,trial,0,49,49,49,trial,"['S', 'S', 'S', 'S', 'C', 'C', 'C', 'C', 'C', 'C', 'C', 'C', 'C', 'C', 'C', 'C', 'C', 'C', 'C', 'C']","[1030942, 1031558, 1032154, 1032742, 1033335, 1033911, 1034507, 1035116, 1035711, 1036304, 1036862, 1037467, 1038053, 1038657, 1039221, 1039839, 1040422, 1040980, 1041549, 1042131]","[1031132, 1031702, 1032268, 1032916, 1033490, 1034081, 1034719, 1035312, 1035927, 1036484, 1037064, 1037675, 1038297, 1038870, 1039477, 1040070, 1040553, 1041162, 1041740, 1042344]","[1028592, 1029191, 1029791, 1030391, 1030991, 1031591, 1032192, 1032792, 1033361, 1033936, 1034532, 1035142, 1035738, 1036329, 1036888, 1037493, 1038080, 1038683, 1039247, 1039864, 1040448, 1041006, 1041574, 1042158]",47,R,ITM,1.1,
6,600,trial,0,50,50,50,trial,"['S', 'S', 'S', 'S', 'C', 'C', 'C', 'C', 'C', 'C', 'C', 'C', 'C', 'C', 'C', 'C', 'C', 'C', 'C', 'C', 'C']","[1050200, 1050797, 1051368, 1052011, 1052562, 1053144, 1053727, 1054315, 1054871, 1055462, 1056040, 1056606, 1056713, 1057155, 1057728, 1058286, 1058882, 1059373, 1059965, 1060527, 1061104]","[1050365, 1050966, 1051536, 1052146, 1052699, 1053321, 1053906, 1054515, 1055041, 1055629, 1056126, 1056633, 1056733, 1057284, 1057890, 1058494, 1058979, 1059557, 1060203, 1060706, 1061277]","[1047899, 1048498, 1049097, 1049697, 1050297, 1050897, 1051497, 1052097, 1052590, 1053170, 1053754, 1054342, 1054898, 1055490, 1056067, 1056632, 1057181, 1057756, 1058313, 1058910, 1059400, 1059992, 1060554, 1061131]",47,R,ITM,1.1,
3,400,trial,0,51,51,51,trial,"['S', 'S', 'S', 'S', 'C', 'C', 'C', 'C', 'C', 'C', 'C', 'C', 'C', 'C', 'C', 'C', 'C', 'C', 'C', 'C']","[1068417, 1068808, 1069205, 1069608, 1070018, 1070431, 1070855, 1071247, 1071660, 1072041, 1072435, 1072841, 1073229, 1073647, 1074049, 1074460, 1074856, 1075255, 1075662, 1076066]","[1068514, 1068913, 1069310, 1069716, 1070123, 1070525, 1070951, 1071344, 1071686, 1072126, 1072517, 1072937, 1073331, 1073727, 1074154, 1074506, 1074946, 1075352, 1075764, 1076167]","[1066816, 1067216, 1067616, 1068016, 1068417, 1068816, 1069216, 1069617, 1070044, 1070456, 1070880, 1071272, 1071685, 1072067, 1072460, 1072867, 1073255, 1073673, 1074074, 1074486, 1074882, 1075280, 1075688, 1076091]",47,R,ITM,1.1,
6,600,trial,0,52,52,52,trial,"['S', 'S', 'S', 'S', 'C', 'C', 'C', 'C', 'C', 'C', 'C', 'C', 'C', 'C', 'C', 'C', 'C', 'C', 'C', 'C']","[1083974, 1084529, 1085105, 1085743, 1086272, 1086856, 1087404, 1087935, 1088497, 1089054, 1089563, 1090055, 1090580, 1091130, 1091595, 1092120, 1092651, 1093189, 1093697, 1094222]","[1084099, 1084660, 1085235, 1085846, 1086405, 1086973, 1087537, 1088073, 1088580, 1089082, 1089642, 1090141, 1090670, 1091221, 1091743, 1092274, 1092761, 1093309, 1093819, 1094335]","[1081595, 1082195, 1082796, 1083396, 1083996, 1084595, 1085195, 1085795, 1086299, 1086882, 1087431, 1087962, 1088525, 1089081, 1089590, 1090081, 1090608, 1091158, 1091622, 1092147, 1092678, 1093216, 1093725, 1094250]",47,R,ITM,1.1,
7,400,trial,0,53,53,53,trial,"['S', 'S', 'S', 'S', 'C', 'C', 'C', 'C', 'C', 'C', 'C', 'C', 'C', 'C', 'C', 'C', 'C', 'C', 'C', 'C']","[1101473, 1101839, 1102217, 1102624, 1103022, 1103420, 1103832, 1104218, 1104589, 1104955, 1105313, 1105694, 1106069, 1106416, 1106819, 1107145, 1107543, 1107916, 1108291, 1108668]","[1101560, 1101937, 1102312, 1102690, 1103106, 1103503, 1103875, 1104281, 1104664, 1105028, 1105340, 1105765, 1106111, 1106497, 1106891, 1107244, 1107630, 1108019, 1108371, 1108713]","[1099890, 1100290, 1100689, 1101089, 1101490, 1101889, 1102289, 1102689, 1103048, 1103447, 1103858, 1104245, 1104617, 1104983, 1105340, 1105721, 1106097, 1106444, 1106846, 1107173, 1107569, 1107944, 1108319, 1108695]",47,R,ITM,1.1,
4,600,trial,0,54,54,54,trial,"['S', 'S', 'S', 'S', 'C', 'C', 'C', 'C', 'C', 'C', 'C', 'C', 'C', 'C', 'C', 'C', 'C', 'C', 'C', 'C']","[1124703, 1125313, 1125909, 1126520, 1127093, 1127667, 1128227, 1128743, 1129306, 1129839, 1130398, 1130941, 1131451, 1131992, 1132527, 1133084, 1133608, 1134129, 1134617, 1135139]","[1124872, 1125457, 1126066, 1126673, 1127198, 1127785, 1128320, 1128876, 1129448, 1129999, 1130512, 1131054, 1131594, 1132125, 1132654, 1133184, 1133664, 1134227, 1134737, 1135258]","[1122387, 1122988, 1123588, 1124188, 1124787, 1125387, 1125987, 1126587, 1127118, 1127693, 1128253, 1128769, 1129331, 1129865, 1130424, 1130967, 1131476, 1132017, 1132553, 1133110, 1133635, 1134154, 1134644, 1135165]",47,R,ITM,1.1,
4,400,trial,0,55,55,55,trial,"['S', 'S', 'S', 'S', 'C', 'C', 'C', 'C', 'C', 'C', 'C', 'C', 'C', 'C', 'C', 'C', 'C', 'C', 'C', 'C']","[1142093, 1142477, 1142856, 1143256, 1143665, 1144068, 1144432, 1144826, 1145175, 1145564, 1145963, 1146340, 1146708, 1147092, 1147455, 1147831, 1148226, 1148610, 1148958, 1149320]","[1142170, 1142551, 1142958, 1143332, 1143753, 1144097, 1144499, 1144907, 1145276, 1145639, 1146048, 1146416, 1146799, 1147179, 1147545, 1147939, 1148313, 1148674, 1149029, 1149393]","[1140532, 1140932, 1141332, 1141732, 1142132, 1142533, 1142932, 1143332, 1143692, 1144093, 1144458, 1144852, 1145200, 1145589, 1145989, 1146366, 1146735, 1147118, 1147481, 1147856, 1148252, 1148637, 1148985, 1149346]",47,R,ITM,1.1,
2,400,trial,0,56,56,56,trial,"['S', 'S', 'S', 'S', 'C', 'C', 'C', 'C', 'C', 'C', 'C', 'C', 'C', 'C', 'C', 'C', 'C', 'C', 'C', 'C']","[1156254, 1156626, 1157044, 1157437, 1157837, 1158250, 1158643, 1159021, 1159401, 1159801, 1160187, 1160567, 1160956, 1161332, 1161714, 1162095, 1162483, 1162878, 1163245, 1163611]","[1156358, 1156742, 1157149, 1157551, 1157947, 1158322, 1158747, 1159132, 1159519, 1159918, 1160286, 1160670, 1161027, 1161426, 1161773, 1162174, 1162578, 1162937, 1163372, 1163723]","[1154675, 1155076, 1155475, 1155875, 1156276, 1156675, 1157076, 1157476, 1157864, 1158277, 1158670, 1159049, 1159428, 1159829, 1160215, 1160595, 1160984, 1161359, 1161742, 1162123, 1162511, 1162906, 1163272, 1163638]",47,R,ITM,1.1,
2,600,trial,0,57,57,57,trial,"['S', 'S', 'S', 'S', 'C', 'C', 'C', 'C', 'C', 'C', 'C', 'C', 'C', 'C', 'C', 'C', 'C', 'C', 'C', 'C']","[1171636, 1172209, 1172797, 1173416, 1174004, 1174549, 1175110, 1175649, 1176160, 1176697, 1177201, 1177718, 1178223, 1178733, 1179193, 1179694, 1180179, 1180643, 1181145, 1181620]","[1171772, 1172354, 1172929, 1173538, 1174114, 1174657, 1175186, 1175749, 1176262, 1176804, 1177317, 1177854, 1178339, 1178809, 1179309, 1179777, 1180294, 1180722, 1181249, 1181724]","[1169317, 1169916, 1170518, 1171118, 1171717, 1172318, 1172917, 1173516, 1174032, 1174577, 1175138, 1175675, 1176186, 1176725, 1177228, 1177746, 1178250, 1178760, 1179220, 1179720, 1180206, 1180669, 1181171, 1181647]",47,R,ITM,1.1,
4,600,trial,0,58,58,58,trial,"['S', 'S', 'S', 'S', 'C', 'C', 'C', 'C', 'C', 'C', 'C', 'C', 'C', 'C', 'C', 'C', 'C', 'C', 'C', 'C', 'C']","[1189480, 1190079, 1190667, 1191325, 1191871, 1192404, 1192958, 1193497, 1194024, 1194563, 1195107, 1195649, 1196115, 1196649, 1197162, 1197270, 1197664, 1198135, 1198652, 1199167, 1199642]","[1189592, 1190200, 1190802, 1191425, 1191942, 1192509, 1193074, 1193623, 1194145, 1194690, 1195220, 1195752, 1196241, 1196795, 1197188, 1197290, 1197784, 1198260, 1198766, 1199294, 1199765]","[1187165, 1187763, 1188363, 1188963, 1189563, 1190163, 1190763, 1191363, 1191897, 1192430, 1192984, 1193523, 1194050, 1194589, 1195132, 1195674, 1196141, 1196675, 1197188, 1197689, 1198160, 1198678, 1199193, 1199669]",47,R,ITM,1.1,
5,400,trial,0,59,59,59,trial,"['B', 'S', 'S', 'S', 'S', 'C', 'C', 'C', 'C', 'C', 'C', 'C', 'C', 'C', 'C', 'C', 'C', 'C', 'C', 'C', 'C']","[1205118, 1206708, 1207103, 1207486, 1207884, 1208288, 1208673, 1209065, 1209490, 1209859, 1210236, 1210621, 1210988, 1211384, 1211763, 1212128, 1212512, 1212878, 1213242, 1213613, 1213980]","[1206445, 1206842, 1207214, 1207608, 1208001, 1208407, 1208781, 1209156, 1209587, 1209961, 1210338, 1210702, 1211073, 1211461, 1211859, 1212260, 1212608, 1212953, 1213316, 1213694, 1214042]","[1205131, 1205530, 1205931, 1206330, 1206730, 1207131, 1207530, 1207930, 1208313, 1208698, 1209091, 1209516, 1209884, 1210262, 1210647, 1211014, 1211410, 1211789, 1212154, 1212537, 1212905, 1213267, 1213639, 1214006]",47,R,ITM,1.1,
6,400,trial,0,60,60,60,trial,"['S', 'S', 'S', 'S', 'C', 'C', 'C', 'C', 'C', 'C', 'C', 'C', 'C', 'C', 'C', 'C', 'C', 'C', 'C', 'C']","[1220938, 1221345, 1221749, 1222138, 1222541, 1222907, 1223314, 1223700, 1224099, 1224461, 1224847, 1225205, 1225603, 1225963, 1226313, 1226692, 1227057, 1227441, 1227821, 1228176]","[1220996, 1221421, 1221829, 1222210, 1222604, 1223007, 1223391, 1223794, 1224142, 1224502, 1224914, 1225327, 1225693, 1226081, 1226427, 1226790, 1227180, 1227569, 1227918, 1228266]","[1219386, 1219785, 1220186, 1220585, 1220985, 1221385, 1221785, 1222185, 1222567, 1222935, 1223341, 1223728, 1224126, 1224487, 1224875, 1225232, 1225629, 1225991, 1226340, 1226720, 1227083, 1227467, 1227847, 1228203]",47,R,ITM,1.1,
7,600,trial,0,61,61,61,trial,"['S', 'S', 'S', 'S', 'C', 'C', 'C', 'C', 'C', 'C', 'C', 'C', 'C', 'C', 'C', 'C', 'C', 'C', 'C', 'C']","[1236151, 1236751, 1237294, 1237949, 1238548, 1239097, 1239629, 1240187, 1240692, 1241222, 1241759, 1242308, 1242808, 1243318, 1243829, 1244377, 1244891, 1245389, 1245922, 1246447]","[1236295, 1236879, 1237437, 1238096, 1238704, 1239254, 1239791, 1240305, 1240859, 1241410, 1241940, 1242479, 1243025, 1243478, 1243979, 1244495, 1245047, 1245542, 1246059, 1246630]","[1233836, 1234435, 1235035, 1235635, 1236235, 1236835, 1237435, 1238035, 1238575, 1239123, 1239656, 1240214, 1240719, 1241249, 1241787, 1242336, 1242835, 1243345, 1243855, 1244404, 1244918, 1245417, 1245948, 1246474]",47,R,ITM,1.1,
2,400,trial,0,62,62,62,trial,"['S', 'S', 'S', 'S', 'C', 'C', 'C', 'C', 'C', 'C', 'C', 'C', 'C', 'C', 'C', 'C', 'C', 'C', 'C', 'C']","[1253755, 1254118, 1254523, 1254905, 1255323, 1255731, 1256126, 1256517, 1256932, 1257297, 1257687, 1258072, 1258474, 1258860, 1259234, 1259626, 1260030, 1260403, 1260752, 1261153]","[1253830, 1254214, 1254619, 1255015, 1255442, 1255840, 1256227, 1256562, 1257018, 1257398, 1257797, 1258169, 1258576, 1258955, 1259322, 1259707, 1260098, 1260475, 1260844, 1261256]","[1252155, 1252555, 1252956, 1253355, 1253754, 1254154, 1254555, 1254956, 1255351, 1255758, 1256153, 1256544, 1256958, 1257324, 1257713, 1258098, 1258502, 1258887, 1259261, 1259653, 1260058, 1260431, 1260780, 1261180]",47,R,ITM,1.1,
6,400,trial,0,63,63,63,trial,"['S', 'S', 'S', 'S', 'C', 'C', 'C', 'C', 'C', 'C', 'C', 'C', 'C', 'C', 'C', 'C', 'C', 'C', 'C', 'C']","[1268148, 1268513, 1268907, 1269323, 1269714, 1270108, 1270479, 1270849, 1271221, 1271589, 1271959, 1272328, 1272701, 1273054, 1273436, 1273787, 1274147, 1274543, 1274908, 1275255]","[1268261, 1268615, 1269014, 1269388, 1269813, 1270195, 1270577, 1270946, 1271319, 1271681, 1272042, 1272418, 1272729, 1273152, 1273520, 1273877, 1274253, 1274625, 1274984, 1275357]","[1266611, 1267011, 1267411, 1267811, 1268211, 1268612, 1269011, 1269411, 1269742, 1270134, 1270507, 1270876, 1271248, 1271616, 1271987, 1272354, 1272729, 1273080, 1273462, 1273814, 1274174, 1274569, 1274935, 1275283]",47,R,ITM,1.1,
6,600,trial,0,64,64,64,trial,"['S', 'S', 'S', 'S', 'C', 'C', 'C', 'C', 'C', 'C', 'C', 'C', 'C', 'C', 'C', 'C', 'C', 'C', 'C', 'C']","[1283348, 1283936, 1284513, 1285109, 1285696, 1286317, 1286881, 1287447, 1288008, 1288549, 1289123, 1289661, 1290233, 1290778, 1291323, 1291863, 1292368, 1292914, 1293452, 1293971]","[1283456, 1284019, 1284589, 1285188, 1285724, 1286397, 1286975, 1287480, 1288074, 1288650, 1289210, 1289743, 1290305, 1290859, 1291402, 1291928, 1292446, 1292995, 1293512, 1294048]","[1281012, 1281611, 1282211, 1282811, 1283411, 1284012, 1284612, 1285212, 1285724, 1286343, 1286908, 1287475, 1288035, 1288577, 1289150, 1289688, 1290260, 1290805, 1291351, 1291889, 1292396, 1292941, 1293479, 1293999]",47,R,ITM,1.1,
3,400,trial,0,65,65,65,trial,"['C', 'C', 'C', 'C', 'C', 'C', 'C', 'C', 'C', 'C', 'C', 'C', 'C', 'C', 'C', 'C']","[1302494, 1302894, 1303308, 1303713, 1304098, 1304485, 1304858, 1305247, 1305670, 1306057, 1306466, 1306859, 1307269, 1307706, 1308137, 1308529]","[1302598, 1302988, 1303406, 1303803, 1304185, 1304590, 1304949, 1305344, 1305728, 1306133, 1306551, 1306941, 1307363, 1307784, 1308212, 1308609]","[1299320, 1299720, 1300120, 1300520, 1300920, 1301320, 1301721, 1302120, 1302519, 1302920, 1303333, 1303739, 1304124, 1304511, 1304884, 1305273, 1305696, 1306083, 1306491, 1306885, 1307294, 1307731, 1308163, 1308555]",47,R,ITM,1.1,
5,600,trial,0,66,66,66,trial,"['S', 'S', 'S', 'S', 'C', 'C', 'C', 'C', 'C', 'C', 'C', 'C', 'C', 'C', 'C', 'C', 'C', 'C', 'C', 'C']","[1316619, 1317207, 1317814, 1318372, 1318986, 1319563, 1320087, 1320589, 1321122, 1321664, 1322183, 1322679, 1323148, 1323655, 1324175, 1324681, 1325178, 1325644, 1326160, 1326653]","[1316746, 1317346, 1317946, 1318515, 1319123, 1319677, 1320219, 1320745, 1321261, 1321767, 1322279, 1322784, 1323277, 1323753, 1324280, 1324784, 1325286, 1325771, 1326296, 1326843]","[1314345, 1314946, 1315546, 1316146, 1316746, 1317346, 1317946, 1318546, 1319012, 1319588, 1320114, 1320615, 1321148, 1321691, 1322209, 1322704, 1323173, 1323680, 1324200, 1324707, 1325204, 1325671, 1326186, 1326679]",47,R,ITM,1.1,
3,600,trial,0,67,67,67,trial,"['S', 'S', 'S', 'S', 'C', 'C', 'C', 'C', 'C', 'C', 'C', 'C', 'C', 'C', 'C', 'C', 'C', 'C', 'C', 'C', 'C']","[1334592, 1335187, 1335753, 1336320, 1336890, 1337413, 1337951, 1338499, 1339066, 1339582, 1340104, 1340613, 1341105, 1341607, 1342090, 1342550, 1343021, 1343128, 1343556, 1344043, 1344525]","[1334696, 1335270, 1335819, 1336407, 1336920, 1337487, 1337976, 1338524, 1339132, 1339651, 1340174, 1340640, 1341130, 1341685, 1342206, 1342664, 1343047, 1343148, 1343584, 1344153, 1344551]","[1332296, 1332896, 1333496, 1334096, 1334696, 1335297, 1335897, 1336497, 1336915, 1337439, 1337976, 1338524, 1339091, 1339608, 1340130, 1340640, 1341130, 1341633, 1342115, 1342575, 1343046, 1343582, 1344068, 1344550]",47,R,ITM,1.1,
7,400,trial,0,68,68,68,trial,"['S', 'S', 'S', 'S', 'C', 'C', 'C', 'C', 'C', 'C', 'C', 'C', 'C', 'C', 'C', 'C', 'C', 'C', 'C', 'C']","[1351780, 1352150, 1352500, 1352929, 1353344, 1353724, 1354046, 1354427, 1354830, 1355205, 1355548, 1355938, 1356317, 1356706, 1357096, 1357484, 1357849, 1358227, 1358612, 1358976]","[1351853, 1352217, 1352599, 1353009, 1353371, 1353795, 1354145, 1354526, 1354897, 1355281, 1355646, 1356013, 1356345, 1356734, 1357124, 1357511, 1357877, 1358306, 1358690, 1359078]","[1350230, 1350628, 1351028, 1351429, 1351828, 1352228, 1352628, 1353028, 1353371, 1353751, 1354073, 1354454, 1354858, 1355232, 1355575, 1355966, 1356345, 1356734, 1357123, 1357511, 1357877, 1358255, 1358640, 1359002]",47,R,ITM,1.1,
3,600,trial,0,69,69,69,trial,"['S', 'S', 'S', 'S', 'C', 'C', 'C', 'C', 'C', 'C', 'C', 'C', 'C', 'C', 'C', 'C', 'C', 'C', 'C', 'C']","[1366625, 1367195, 1367755, 1368389, 1368945, 1369530, 1370078, 1370604, 1371102, 1371639, 1372160, 1372669, 1373201, 1373763, 1374288, 1374797, 1375260, 1375796, 1376367, 1376875]","[1366745, 1367318, 1367901, 1368511, 1369067, 1369652, 1370183, 1370674, 1371199, 1371738, 1372251, 1372759, 1373267, 1373857, 1374385, 1374926, 1375457, 1375996, 1376529, 1377039]","[1364300, 1364899, 1365499, 1366099, 1366700, 1367300, 1367900, 1368499, 1368971, 1369555, 1370103, 1370630, 1371127, 1371665, 1372185, 1372695, 1373227, 1373789, 1374314, 1374823, 1375286, 1375821, 1376393, 1376901]",47,R,ITM,1.1,
6,600,trial,0,70,70,70,trial,"['S', 'S', 'S', 'S', 'C', 'C', 'C', 'C', 'C', 'C', 'C', 'C', 'C', 'C', 'C', 'C', 'C', 'C', 'C', 'C']","[1385044, 1385629, 1386193, 1386808, 1387397, 1387951, 1388487, 1389037, 1389551, 1390084, 1390599, 1391114, 1391661, 1392188, 1392685, 1393220, 1393756, 1394229, 1394745, 1395304]","[1385136, 1385712, 1386276, 1386898, 1387487, 1388052, 1388571, 1389111, 1389655, 1390170, 1390687, 1391212, 1391744, 1392266, 1392794, 1393337, 1393795, 1394326, 1394866, 1395386]","[1382676, 1383276, 1383876, 1384476, 1385076, 1385676, 1386276, 1386876, 1387423, 1387977, 1388515, 1389064, 1389578, 1390110, 1390625, 1391140, 1391687, 1392215, 1392711, 1393247, 1393782, 1394255, 1394771, 1395331]",47,R,ITM,1.1,
7,400,trial,0,71,71,71,trial,"['S', 'S', 'S', 'S', 'C', 'C', 'C', 'C', 'C', 'C', 'C', 'C', 'C', 'C', 'C', 'C', 'C', 'C', 'C', 'C']","[1402454, 1402820, 1403230, 1403639, 1404050, 1404480, 1404888, 1405272, 1405713, 1406114, 1406524, 1406981, 1407362, 1407783, 1408202, 1408610, 1409024, 1409438, 1409885, 1410280]","[1402541, 1402932, 1403324, 1403730, 1404136, 1404566, 1404994, 1405404, 1405819, 1406221, 1406624, 1407016, 1407437, 1407859, 1408290, 1408710, 1409145, 1409571, 1409993, 1410424]","[1400871, 1401270, 1401670, 1402071, 1402470, 1402870, 1403271, 1403670, 1404077, 1404508, 1404914, 1405298, 1405741, 1406141, 1406551, 1407008, 1407388, 1407811, 1408230, 1408637, 1409051, 1409465, 1409911, 1410308]",47,R,ITM,1.1,
3,400,trial,0,72,72,72,trial,"['S', 'S', 'S', 'S', 'C', 'C', 'C', 'C', 'C', 'C', 'C', 'C', 'C', 'C', 'C', 'C', 'C', 'C', 'C', 'C']","[1417354, 1417715, 1418103, 1418499, 1418904, 1419320, 1419736, 1420136, 1420529, 1420921, 1421307, 1421726, 1422142, 1422525, 1422917, 1423307, 1423710, 1424076, 1424460, 1424860]","[1417447, 1417816, 1418216, 1418603, 1419010, 1419412, 1419806, 1420212, 1420621, 1421001, 1421409, 1421821, 1422224, 1422621, 1423027, 1423416, 1423814, 1424173, 1424581, 1424980]","[1415744, 1416143, 1416543, 1416943, 1417344, 1417743, 1418143, 1418544, 1418930, 1419345, 1419761, 1420162, 1420555, 1420947, 1421333, 1421752, 1422168, 1422551, 1422943, 1423333, 1423735, 1424102, 1424486, 1424885]",47,R,ITM,1.1,
5,400,trial,0,73,73,73,trial,"['S', 'S', 'S', 'S', 'C', 'C', 'C', 'C', 'C', 'C', 'C', 'C', 'C', 'C', 'C', 'C', 'C', 'C', 'C', 'C']","[1432044, 1432433, 1432838, 1433229, 1433640, 1434010, 1434391, 1434778, 1435151, 1435511, 1435914, 1436277, 1436654, 1437033, 1437440, 1437782, 1438158, 1438528, 1438902, 1439265]","[1432156, 1432538, 1432944, 1433326, 1433725, 1434113, 1434494, 1434870, 1435241, 1435617, 1436012, 1436382, 1436735, 1437094, 1437510, 1437873, 1438234, 1438581, 1438989, 1439350]","[1430491, 1430889, 1431289, 1431689, 1432089, 1432489, 1432889, 1433289, 1433666, 1434036, 1434417, 1434804, 1435176, 1435537, 1435939, 1436303, 1436680, 1437059, 1437465, 1437808, 1438184, 1438554, 1438927, 1439291]",47,R,ITM,1.1,
4,400,trial,0,74,74,74,trial,"['C', 'C', 'C', 'C', 'C', 'C', 'C', 'C', 'C', 'C', 'C', 'C', 'C', 'C', 'C', 'C']","[1447959, 1448349, 1448714, 1449095, 1449484, 1449860, 1450223, 1450580, 1450994, 1451354, 1451724, 1452102, 1452484, 1452851, 1453258, 1453628]","[1448075, 1448432, 1448822, 1449196, 1449591, 1449929, 1450307, 1450679, 1451024, 1451456, 1451856, 1452217, 1452583, 1452961, 1453332, 1453703]","[1444820, 1445220, 1445620, 1446021, 1446420, 1446820, 1447220, 1447620, 1447985, 1448375, 1448739, 1449120, 1449509, 1449885, 1450249, 1450607, 1451020, 1451379, 1451750, 1452128, 1452510, 1452876, 1453284, 1453655]",47,R,ITM,1.1,
7,600,trial,0,75,75,75,trial,"['S', 'S', 'S', 'S', 'C', 'C', 'C', 'C', 'C', 'C', 'C', 'C', 'C', 'C', 'C', 'C', 'C', 'C', 'C', 'C']","[1461459, 1462072, 1462622, 1463144, 1463718, 1464318, 1464826, 1465356, 1465882, 1466403, 1466957, 1467478, 1467996, 1468535, 1469071, 1469575, 1470098, 1470637, 1471156, 1471646]","[1461579, 1462164, 1462705, 1463215, 1463819, 1464397, 1464912, 1465459, 1465962, 1466503, 1467030, 1467541, 1468023, 1468616, 1469178, 1469678, 1470204, 1470716, 1471254, 1471735]","[1459089, 1459688, 1460288, 1460888, 1461488, 1462088, 1462688, 1463288, 1463746, 1464346, 1464853, 1465382, 1465910, 1466431, 1466985, 1467504, 1468022, 1468562, 1469099, 1469601, 1470126, 1470663, 1471182, 1471673]",47,R,ITM,1.1,
2,600,trial,0,76,76,76,trial,"['S', 'S', 'S', 'S', 'C', 'C', 'C', 'C', 'C', 'C', 'C', 'C', 'C', 'C', 'C', 'C', 'C', 'C', 'C', 'C', 'C']","[1479700, 1480272, 1480848, 1481455, 1482044, 1482619, 1483213, 1483786, 1484319, 1484862, 1484973, 1485420, 1485976, 1486513, 1487085, 1487611, 1488174, 1488697, 1489251, 1489828, 1490332]","[1479825, 1480370, 1480961, 1481569, 1482150, 1482691, 1483271, 1483878, 1484431, 1484893, 1484993, 1485449, 1486006, 1486543, 1487164, 1487716, 1488260, 1488806, 1489362, 1489917, 1490361]","[1477355, 1477955, 1478555, 1479155, 1479755, 1480355, 1480955, 1481554, 1482072, 1482647, 1483240, 1483813, 1484346, 1484890, 1485448, 1486004, 1486540, 1487113, 1487638, 1488200, 1488724, 1489277, 1489855, 1490360]",47,R,ITM,1.1,
5,600,trial,0,77,77,77,trial,"['S', 'S', 'S', 'S', 'C', 'C', 'C', 'C', 'C', 'C', 'C', 'C', 'C', 'C', 'C', 'C', 'C', 'C', 'C', 'C']","[1498432, 1499009, 1499599, 1500199, 1500806, 1501393, 1501928, 1502546, 1503085, 1503638, 1504113, 1504698, 1505213, 1505781, 1506304, 1506824, 1507349, 1507862, 1508380, 1508913]","[1498582, 1499137, 1499764, 1500378, 1500986, 1501522, 1502061, 1502666, 1503227, 1503763, 1504286, 1504852, 1505417, 1505940, 1506512, 1507044, 1507537, 1508033, 1508570, 1509149]","[1496077, 1496676, 1497276, 1497876, 1498476, 1499076, 1499676, 1500276, 1500831, 1501419, 1501954, 1502572, 1503111, 1503664, 1504139, 1504724, 1505239, 1505807, 1506329, 1506849, 1507375, 1507888, 1508406, 1508938]",47,R,ITM,1.1,
5,600,trial,0,78,78,78,trial,"['S', 'S', 'S', 'S', 'C', 'C', 'C', 'C', 'C', 'C', 'C', 'C', 'C', 'C', 'C', 'C', 'C', 'C', 'C', 'C']","[1516604, 1517173, 1517743, 1518363, 1518993, 1519618, 1520167, 1520717, 1521246, 1521803, 1522337, 1522897, 1523415, 1524016, 1524536, 1525114, 1525677, 1526247, 1526782, 1527361]","[1516772, 1517317, 1517856, 1518510, 1519126, 1519723, 1520312, 1520867, 1521390, 1521963, 1522524, 1523070, 1523633, 1524194, 1524725, 1525297, 1525891, 1526462, 1527021, 1527586]","[1514278, 1514877, 1515478, 1516078, 1516678, 1517277, 1517877, 1518477, 1519020, 1519643, 1520193, 1520743, 1521271, 1521828, 1522363, 1522923, 1523441, 1524041, 1524561, 1525140, 1525702, 1526274, 1526808, 1527387]",47,R,ITM,1.1,
2,600,trial,0,79,79,79,trial,"['C', 'C', 'C', 'C', 'C', 'C', 'C', 'C', 'C', 'C', 'C', 'C', 'C', 'C', 'C', 'C']","[1537563, 1538106, 1538644, 1539147, 1539708, 1540238, 1540796, 1541324, 1541926, 1542505, 1543034, 1543546, 1544087, 1544659, 1545154, 1545707]","[1537685, 1538232, 1538776, 1539299, 1539838, 1540353, 1540912, 1541483, 1542083, 1542679, 1543186, 1543630, 1544126, 1544732, 1545251, 1545786]","[1532768, 1533368, 1533967, 1534568, 1535168, 1535767, 1536368, 1536967, 1537590, 1538132, 1538672, 1539175, 1539736, 1540264, 1540824, 1541352, 1541954, 1542532, 1543062, 1543573, 1544114, 1544687, 1545182, 1545734]",47,R,ITM,1.1,
6,600,trial,0,80,80,80,trial,"['S', 'S', 'S', 'S', 'C', 'C', 'C', 'C', 'C', 'C', 'C', 'C', 'C', 'C', 'C', 'C', 'C', 'C', 'C', 'C']","[1553309, 1553926, 1554512, 1555137, 1555723, 1556291, 1556852, 1557377, 1557902, 1558453, 1558946, 1559499, 1560046, 1560562, 1561094, 1561641, 1562146, 1562671, 1563200, 1563693]","[1553471, 1554040, 1554636, 1555251, 1555851, 1556427, 1556973, 1557490, 1558070, 1558610, 1559190, 1559726, 1560235, 1560730, 1561256, 1561800, 1562281, 1562808, 1563352, 1563844]","[1551051, 1551651, 1552251, 1552851, 1553452, 1554052, 1554652, 1555251, 1555749, 1556318, 1556880, 1557403, 1557929, 1558480, 1558974, 1559527, 1560073, 1560590, 1561121, 1561669, 1562173, 1562697, 1563227, 1563719]",47,R,ITM,1.1,
3,600,trial,0,81,81,81,trial,"['S', 'S', 'S', 'S', 'C', 'C', 'C', 'C', 'C', 'C', 'C', 'C', 'C', 'C', 'C', 'C', 'C', 'C', 'C', 'C']","[1571674, 1572288, 1572858, 1573505, 1574076, 1574611, 1575143, 1575680, 1576225, 1576778, 1577305, 1577814, 1578328, 1578845, 1579360, 1579887, 1580392, 1580915, 1581383, 1581882]","[1571780, 1572405, 1573002, 1573613, 1574162, 1574726, 1575251, 1575836, 1576334, 1576875, 1577397, 1577917, 1578441, 1578971, 1579468, 1579956, 1580455, 1580979, 1581496, 1581982]","[1569374, 1569974, 1570574, 1571174, 1571774, 1572374, 1572974, 1573574, 1574102, 1574637, 1575169, 1575705, 1576251, 1576804, 1577330, 1577839, 1578353, 1578870, 1579385, 1579913, 1580418, 1580941, 1581409, 1581907]",47,R,ITM,1.1,
2,400,trial,0,82,82,82,trial,"['S', 'S', 'S', 'S', 'C', 'C', 'C', 'C', 'C', 'C', 'C', 'C', 'C', 'C', 'C', 'C', 'C', 'C', 'C', 'C']","[1588894, 1589251, 1589645, 1590032, 1590426, 1590828, 1591207, 1591575, 1591958, 1592330, 1592704, 1593077, 1593470, 1593841, 1594225, 1594611, 1594967, 1595337, 1595723, 1596093]","[1588992, 1589347, 1589761, 1590141, 1590530, 1590926, 1591293, 1591696, 1592059, 1592432, 1592813, 1593170, 1593558, 1593936, 1594339, 1594685, 1595051, 1595436, 1595819, 1596186]","[1587281, 1587680, 1588081, 1588481, 1588881, 1589281, 1589681, 1590081, 1590453, 1590855, 1591234, 1591603, 1591985, 1592357, 1592730, 1593105, 1593498, 1593868, 1594252, 1594638, 1594994, 1595365, 1595751, 1596120]",47,R,ITM,1.1,
5,400,trial,0,83,83,83,trial,"['S', 'S', 'S', 'S', 'C', 'C', 'C', 'C', 'C', 'C', 'C', 'C', 'C', 'C', 'C', 'C', 'C', 'C', 'C', 'C']","[1603316, 1603691, 1604071, 1604483, 1604876, 1605260, 1605650, 1606013, 1606418, 1606779, 1607186, 1607562, 1607940, 1608313, 1608694, 1609064, 1609422, 1609843, 1610274, 1610633]","[1603389, 1603772, 1604162, 1604568, 1604948, 1605337, 1605733, 1606122, 1606518, 1606868, 1607297, 1607651, 1608059, 1608417, 1608805, 1609165, 1609531, 1609869, 1610343, 1610697]","[1601717, 1602116, 1602516, 1602916, 1603316, 1603717, 1604116, 1604516, 1604901, 1605285, 1605677, 1606039, 1606445, 1606805, 1607213, 1607588, 1607965, 1608339, 1608720, 1609090, 1609449, 1609869, 1610300, 1610659]",47,R,ITM,1.1,
2,600,trial,0,84,84,84,trial,"['S', 'S', 'S', 'S', 'C', 'C', 'C', 'C', 'C', 'C', 'C', 'C', 'C', 'C', 'C', 'C', 'C', 'C', 'C', 'C']","[1618585, 1619186, 1619769, 1620492, 1621033, 1621554, 1622091, 1622591, 1623080, 1623550, 1624049, 1624505, 1624973, 1625466, 1625932, 1626379, 1626839, 1627303, 1627770, 1628210]","[1618720, 1619319, 1619886, 1620579, 1621125, 1621654, 1622119, 1622691, 1623186, 1623672, 1624186, 1624653, 1625125, 1625580, 1626075, 1626496, 1626908, 1627400, 1627866, 1628294]","[1616336, 1616936, 1617537, 1618136, 1618737, 1619337, 1619937, 1620536, 1621061, 1621580, 1622119, 1622619, 1623108, 1623578, 1624077, 1624531, 1625000, 1625493, 1625960, 1626406, 1626865, 1627331, 1627798, 1628237]",47,R,ITM,1.1,
6,400,trial,0,85,85,85,trial,"['S', 'S', 'S', 'S', 'C', 'C', 'C', 'C', 'C', 'C', 'C', 'C', 'C', 'C', 'C', 'C', 'C', 'C', 'C', 'C']","[1635362, 1635763, 1636156, 1636568, 1636998, 1637395, 1637780, 1638184, 1638560, 1638952, 1639363, 1639771, 1640179, 1640608, 1641020, 1641422, 1641784, 1642248, 1642621, 1643017]","[1635442, 1635850, 1636243, 1636672, 1637108, 1637482, 1637897, 1638299, 1638676, 1639052, 1639468, 1639891, 1640286, 1640735, 1641153, 1641541, 1641906, 1642348, 1642737, 1643118]","[1633801, 1634201, 1634601, 1635001, 1635401, 1635802, 1636201, 1636601, 1637024, 1637422, 1637807, 1638211, 1638587, 1638979, 1639390, 1639797, 1640206, 1640635, 1641047, 1641450, 1641811, 1642274, 1642649, 1643043]",47,R,ITM,1.1,
4,400,trial,0,86,86,86,trial,"['S', 'S', 'S', 'S', 'C', 'C', 'C', 'C', 'C', 'C', 'C', 'C', 'C', 'C', 'C', 'C', 'C', 'C', 'C', 'C']","[1650296, 1650706, 1651068, 1651510, 1651884, 1652284, 1652664, 1653045, 1653431, 1653893, 1654268, 1654641, 1655017, 1655401, 1655763, 1656145, 1656494, 1656878, 1657260, 1657633]","[1650377, 1650792, 1651158, 1651609, 1652018, 1652400, 1652779, 1653155, 1653517, 1653959, 1654355, 1654728, 1655110, 1655476, 1655841, 1656243, 1656606, 1656981, 1657370, 1657748]","[1648744, 1649144, 1649544, 1649944, 1650344, 1650744, 1651144, 1651545, 1651909, 1652310, 1652689, 1653070, 1653456, 1653919, 1654294, 1654667, 1655043, 1655428, 1655789, 1656171, 1656520, 1656903, 1657286, 1657659]",47,R,ITM,1.1,
4,600,trial,0,87,87,87,trial,"['S', 'S', 'S', 'S', 'C', 'C', 'C', 'C', 'C', 'C', 'C', 'C', 'C', 'C', 'C', 'C', 'C', 'C', 'C', 'C']","[1665709, 1666243, 1666822, 1667391, 1667992, 1668557, 1669102, 1669627, 1670154, 1670685, 1671218, 1671709, 1672223, 1672719, 1673248, 1673729, 1674247, 1674738, 1675216, 1675738]","[1665781, 1666330, 1666915, 1667508, 1668100, 1668635, 1669229, 1669720, 1670256, 1670794, 1671305, 1671786, 1672305, 1672804, 1673316, 1673842, 1674347, 1674842, 1675325, 1675829]","[1663377, 1663977, 1664577, 1665177, 1665777, 1666377, 1666977, 1667577, 1668018, 1668583, 1669128, 1669653, 1670179, 1670712, 1671244, 1671736, 1672249, 1672744, 1673274, 1673754, 1674272, 1674764, 1675242, 1675763]",47,R,ITM,1.1,
7,400,trial,0,88,88,88,trial,"['S', 'S', 'S', 'S', 'C', 'C', 'C', 'C', 'C', 'C', 'C', 'C', 'C', 'C', 'C', 'C', 'C', 'C', 'C', 'C']","[1682781, 1683178, 1683575, 1683975, 1684367, 1684777, 1685147, 1685527, 1685905, 1686284, 1686673, 1687036, 1687411, 1687804, 1688203, 1688565, 1688948, 1689328, 1689694, 1690068]","[1682870, 1683260, 1683659, 1684060, 1684448, 1684849, 1685249, 1685619, 1686005, 1686374, 1686731, 1687101, 1687519, 1687868, 1688301, 1688671, 1689066, 1689434, 1689767, 1690176]","[1681242, 1681640, 1682040, 1682440, 1682840, 1683240, 1683640, 1684040, 1684393, 1684805, 1685174, 1685554, 1685933, 1686311, 1686701, 1687064, 1687439, 1687831, 1688229, 1688592, 1688976, 1689355, 1689720, 1690096]",47,R,ITM,1.1,
4,600,trial,0,89,89,89,trial,"['C', 'C', 'C', 'C', 'C', 'C', 'C', 'C', 'C', 'C', 'C', 'C', 'C', 'C', 'C', 'C']","[1700255, 1700739, 1701229, 1701710, 1702196, 1702685, 1704070, 1704535, 1704939, 1705380, 1705839, 1706249, 1706684, 1707104, 1707534, 1707980]","[1700393, 1700826, 1701339, 1701825, 1702303, 1702711, 1704178, 1704624, 1705043, 1705477, 1705865, 1706355, 1706787, 1707208, 1707603, 1708079]","[1695672, 1696271, 1696871, 1697471, 1698071, 1698671, 1699271, 1699871, 1700281, 1700764, 1701255, 1701736, 1702221, 1702711, 1704095, 1704560, 1704965, 1705407, 1705865, 1706274, 1706710, 1707129, 1707559, 1708006]",47,R,ITM,1.1,
5,600,trial,0,90,90,90,trial,"['S', 'S', 'S', 'S', 'C', 'C', 'C', 'C', 'C', 'C', 'C', 'C', 'C', 'C', 'C', 'C', 'C', 'C', 'C', 'C']","[1715805, 1716421, 1716998, 1717544, 1718134, 1718676, 1719227, 1719767, 1720320, 1720839, 1721370, 1721866, 1722352, 1722875, 1723414, 1723901, 1724402, 1724920, 1725399, 1725862]","[1715958, 1716505, 1717110, 1717669, 1718250, 1718788, 1719317, 1719875, 1720404, 1720987, 1721491, 1722005, 1722489, 1722999, 1723523, 1724036, 1724506, 1725011, 1725542, 1725987]","[1713571, 1714170, 1714770, 1715371, 1715971, 1716571, 1717170, 1717770, 1718161, 1718702, 1719254, 1719792, 1720345, 1720864, 1721396, 1721891, 1722379, 1722902, 1723440, 1723928, 1724429, 1724946, 1725425, 1725888]",47,R,ITM,1.1,
3,400,trial,0,91,91,91,trial,"['S', 'S', 'S', 'S', 'C', 'C', 'C', 'C', 'C', 'C', 'C', 'C', 'C', 'C', 'C', 'C', 'C', 'C', 'C', 'C']","[1733169, 1733545, 1733936, 1734332, 1734712, 1735103, 1735514, 1735908, 1736297, 1736680, 1737069, 1737469, 1737875, 1738259, 1738640, 1739014, 1739433, 1739810, 1740207, 1740598]","[1733286, 1733654, 1734044, 1734440, 1734828, 1735203, 1735595, 1735977, 1736370, 1736784, 1737174, 1737582, 1737977, 1738382, 1738757, 1739171, 1739548, 1739949, 1740329, 1740762]","[1731561, 1731960, 1732360, 1732760, 1733160, 1733560, 1733960, 1734361, 1734737, 1735129, 1735539, 1735933, 1736323, 1736706, 1737095, 1737495, 1737901, 1738285, 1738665, 1739039, 1739459, 1739836, 1740232, 1740623]",47,R,ITM,1.1,
4,400,trial,0,92,92,92,trial,"['S', 'S', 'S', 'C', 'C', 'C', 'C', 'C', 'C', 'C', 'C', 'C', 'C', 'C', 'C', 'C', 'C', 'C', 'C']","[1748144, 1748521, 1748936, 1749349, 1749747, 1750112, 1750496, 1750876, 1751250, 1751615, 1751955, 1752338, 1752716, 1753100, 1753480, 1753903, 1754262, 1754635, 1755022]","[1748227, 1748629, 1749040, 1749445, 1749837, 1750215, 1750601, 1750978, 1751300, 1751715, 1752067, 1752455, 1752817, 1753188, 1753564, 1753968, 1754335, 1754677, 1755086]","[1746225, 1746624, 1747024, 1747424, 1747824, 1748225, 1748624, 1749024, 1749374, 1749773, 1750137, 1750521, 1750901, 1751276, 1751641, 1751982, 1752364, 1752741, 1753125, 1753505, 1753929, 1754288, 1754660, 1755047]",47,R,ITM,1.1,
2,400,trial,0,93,93,93,trial,"['S', 'S', 'S', 'S', 'C', 'C', 'C', 'C', 'C', 'C', 'C', 'C', 'C', 'C', 'C', 'C', 'C', 'C', 'C', 'C']","[1762085, 1762483, 1762903, 1763306, 1763734, 1764123, 1764508, 1764898, 1765268, 1765644, 1766025, 1766390, 1766778, 1767189, 1767559, 1767929, 1768303, 1768690, 1769049, 1769421]","[1762167, 1762576, 1763010, 1763412, 1763838, 1764222, 1764612, 1764992, 1765376, 1765735, 1766110, 1766488, 1766873, 1767255, 1767656, 1768010, 1768384, 1768766, 1769151, 1769522]","[1760567, 1760966, 1761368, 1761767, 1762167, 1762568, 1762967, 1763367, 1763762, 1764151, 1764536, 1764926, 1765296, 1765671, 1766052, 1766417, 1766806, 1767217, 1767586, 1767956, 1768331, 1768717, 1769076, 1769448]",47,R,ITM,1.1,
7,400,trial,0,94,94,94,trial,"['S', 'S', 'S', 'S', 'C', 'C', 'C', 'C', 'C', 'C', 'C', 'C', 'C', 'C', 'C', 'C', 'C', 'C', 'C', 'C']","[1776568, 1776924, 1777317, 1777707, 1778142, 1778494, 1778850, 1779219, 1779561, 1779920, 1780280, 1780623, 1780988, 1781345, 1781701, 1782013, 1782352, 1782686, 1783019, 1783357]","[1776670, 1776999, 1777405, 1777807, 1778202, 1778587, 1778940, 1779297, 1779670, 1780013, 1780306, 1780651, 1781015, 1781431, 1781768, 1782107, 1782434, 1782785, 1783102, 1783434]","[1775026, 1775424, 1775824, 1776224, 1776624, 1777025, 1777424, 1777824, 1778169, 1778521, 1778877, 1779247, 1779588, 1779948, 1780306, 1780651, 1781015, 1781372, 1781728, 1782040, 1782379, 1782713, 1783046, 1783384]",47,R,ITM,1.1,
5,400,trial,0,95,95,95,trial,"['S', 'S', 'S', 'S', 'C', 'C', 'C', 'C', 'C', 'C', 'C', 'C', 'C', 'C', 'C', 'C', 'C', 'C', 'C', 'C']","[1790304, 1790693, 1791078, 1791480, 1791885, 1792270, 1792632, 1793001, 1793362, 1793720, 1794095, 1794441, 1794814, 1795167, 1795547, 1795917, 1796289, 1796663, 1797030, 1797403]","[1790405, 1790793, 1791190, 1791591, 1791982, 1792367, 1792753, 1793121, 1793479, 1793840, 1794206, 1794561, 1794927, 1795268, 1795659, 1796033, 1796412, 1796772, 1797147, 1797514]","[1788776, 1789176, 1789576, 1789976, 1790376, 1790776, 1791176, 1791577, 1791910, 1792296, 1792658, 1793027, 1793388, 1793745, 1794120, 1794466, 1794840, 1795192, 1795572, 1795943, 1796315, 1796689, 1797056, 1797429]",47,R,ITM,1.1,
6,600,trial,0,96,96,96,trial,"['S', 'S', 'S', 'S', 'C', 'C', 'C', 'C', 'C', 'C', 'C', 'C', 'C', 'C', 'C', 'C', 'C', 'C', 'C', 'C']","[1805120, 1805701, 1806285, 1806917, 1807495, 1808047, 1808560, 1809077, 1809595, 1810099, 1810615, 1811085, 1811595, 1812097, 1812616, 1813086, 1813537, 1814022, 1814530, 1814975]","[1805244, 1805814, 1806369, 1806980, 1807538, 1808106, 1808638, 1809174, 1809699, 1810195, 1810666, 1811151, 1811664, 1812170, 1812684, 1813130, 1813609, 1814091, 1814579, 1815050]","[1802854, 1803453, 1804053, 1804653, 1805253, 1805853, 1806453, 1807053, 1807522, 1808074, 1808587, 1809104, 1809623, 1810126, 1810642, 1811112, 1811621, 1812123, 1812642, 1813112, 1813564, 1814048, 1814556, 1815002]",47,R,ITM,1.1,
3,600,trial,0,97,97,97,trial,"['S', 'S', 'S', 'S', 'C', 'C', 'C', 'C', 'C', 'C', 'C', 'C', 'C', 'C', 'C', 'C', 'C', 'C', 'C', 'C', 'C']","[1822820, 1823376, 1823970, 1824521, 1825099, 1825640, 1826139, 1826676, 1827179, 1827721, 1828247, 1828758, 1829249, 1829736, 1830237, 1830770, 1831224, 1831675, 1832197, 1832652, 1832758]","[1822929, 1823480, 1824033, 1824545, 1825176, 1825710, 1826246, 1826786, 1827282, 1827798, 1828358, 1828845, 1829358, 1829852, 1830350, 1830796, 1831322, 1831783, 1832280, 1832678, 1832778]","[1820506, 1821106, 1821706, 1822306, 1822906, 1823506, 1824106, 1824706, 1825125, 1825666, 1826164, 1826702, 1827205, 1827746, 1828273, 1828784, 1829274, 1829762, 1830262, 1830796, 1831249, 1831701, 1832222, 1832678]",47,R,ITM,1.1,
7,600,trial,0,98,98,98,trial,"['S', 'S', 'S', 'S', 'C', 'C', 'C', 'C', 'C', 'C', 'C', 'C', 'C', 'C', 'C', 'C', 'C', 'C', 'C', 'C']","[1840396, 1840955, 1841545, 1842169, 1842698, 1843257, 1843842, 1844376, 1844835, 1845353, 1845945, 1846446, 1846963, 1847446, 1847940, 1848410, 1848872, 1849357, 1849846, 1850366]","[1840495, 1841065, 1841622, 1842242, 1842816, 1843366, 1843926, 1844463, 1844909, 1845380, 1845979, 1846516, 1847019, 1847474, 1848008, 1848436, 1848943, 1849434, 1849874, 1850393]","[1838088, 1838686, 1839286, 1839886, 1840486, 1841086, 1841686, 1842286, 1842725, 1843283, 1843868, 1844403, 1844861, 1845380, 1845972, 1846472, 1846989, 1847474, 1847966, 1848436, 1848899, 1849384, 1849874, 1850393]",47,R,ITM,1.1,
3,400,trial,0,99,99,99,trial,"['S', 'S', 'S', 'S', 'C', 'C', 'C', 'C', 'C', 'C', 'C', 'C', 'C', 'C', 'C', 'C', 'C', 'C', 'C', 'C']","[1857367, 1857725, 1858093, 1858501, 1858886, 1859278, 1859631, 1859977, 1860344, 1860716, 1861084, 1861466, 1861833, 1862183, 1862566, 1862962, 1863332, 1863707, 1864070, 1864451]","[1857459, 1857818, 1858200, 1858595, 1858979, 1859356, 1859715, 1860086, 1860432, 1860801, 1861160, 1861566, 1861927, 1862277, 1862651, 1863036, 1863426, 1863785, 1864181, 1864580]","[1855819, 1856219, 1856618, 1857018, 1857418, 1857818, 1858219, 1858618, 1858912, 1859304, 1859656, 1860002, 1860370, 1860742, 1861109, 1861491, 1861859, 1862209, 1862592, 1862987, 1863358, 1863733, 1864095, 1864476]",47,R,ITM,1.1,
7,600,trial,0,100,100,100,trial,"['S', 'S', 'S', 'S', 'C', 'C', 'C', 'C', 'C', 'C', 'C', 'C', 'C', 'C', 'C', 'C', 'C', 'C', 'C', 'C']","[1872371, 1872934, 1873494, 1874144, 1874661, 1875249, 1875761, 1876319, 1876814, 1877360, 1877835, 1878378, 1878868, 1879379, 1879868, 1880355, 1880821, 1881312, 1881826, 1882303]","[1872467, 1873036, 1873594, 1874213, 1874750, 1875311, 1875850, 1876405, 1876891, 1877448, 1877937, 1878454, 1878938, 1879445, 1879948, 1880421, 1880908, 1881379, 1881912, 1882373]","[1870055, 1870654, 1871254, 1871854, 1872454, 1873054, 1873654, 1874254, 1874689, 1875275, 1875787, 1876345, 1876841, 1877388, 1877863, 1878405, 1878895, 1879407, 1879896, 1880382, 1880848, 1881339, 1881852, 1882331]",47,R,ITM,1.1,
6,400,trial,0,101,101,101,trial,"['S', 'S', 'S', 'S', 'C', 'C', 'C', 'C', 'C', 'C', 'C', 'C', 'C', 'C', 'C', 'C', 'C', 'C', 'C', 'C']","[1889333, 1889685, 1890131, 1890506, 1890935, 1891318, 1891689, 1892054, 1892433, 1892810, 1893186, 1893567, 1893917, 1894294, 1894644, 1895061, 1895416, 1895780, 1896164, 1896512]","[1889430, 1889805, 1890226, 1890621, 1891036, 1891362, 1891770, 1892146, 1892510, 1892901, 1893270, 1893638, 1894023, 1894388, 1894762, 1895140, 1895499, 1895878, 1896244, 1896619]","[1887777, 1888178, 1888577, 1888977, 1889377, 1889777, 1890178, 1890577, 1890963, 1891346, 1891716, 1892080, 1892461, 1892837, 1893214, 1893594, 1893944, 1894322, 1894672, 1895088, 1895443, 1895806, 1896190, 1896539]",47,R,ITM,1.1,
3,600,trial,0,102,102,102,trial,"['S', 'S', 'S', 'S', 'C', 'C', 'C', 'C', 'C', 'C', 'C', 'C', 'C', 'C', 'C', 'C', 'C', 'C', 'C', 'C']","[1904492, 1905051, 1905680, 1906282, 1906841, 1907381, 1907871, 1908405, 1908883, 1909364, 1909854, 1910321, 1910791, 1911261, 1911726, 1912165, 1912681, 1913134, 1913623, 1914074]","[1904633, 1905225, 1905819, 1906419, 1906957, 1907484, 1907980, 1908499, 1908972, 1909488, 1909974, 1910425, 1910902, 1911407, 1911859, 1912320, 1912798, 1913294, 1913742, 1914199]","[1902259, 1902859, 1903459, 1904059, 1904659, 1905259, 1905859, 1906459, 1906867, 1907406, 1907897, 1908430, 1908909, 1909390, 1909879, 1910346, 1910816, 1911286, 1911751, 1912190, 1912707, 1913159, 1913649, 1914099]",47,R,ITM,1.1,
3,400,trial,0,103,103,103,trial,"['S', 'S', 'S', 'S', 'C', 'C', 'C', 'C', 'C', 'C', 'C', 'C', 'C', 'C', 'C', 'C', 'C', 'C', 'C', 'C']","[1921212, 1921595, 1921988, 1922375, 1922782, 1923165, 1923522, 1923894, 1924265, 1924637, 1924987, 1925362, 1925731, 1926107, 1926466, 1926877, 1927238, 1927604, 1927957, 1928345]","[1921306, 1921693, 1922073, 1922473, 1922843, 1923257, 1923625, 1923998, 1924350, 1924712, 1925091, 1925452, 1925808, 1926187, 1926550, 1926964, 1927337, 1927692, 1928072, 1928469]","[1919656, 1920055, 1920455, 1920856, 1921255, 1921655, 1922055, 1922455, 1922807, 1923190, 1923548, 1923919, 1924291, 1924663, 1925013, 1925388, 1925756, 1926132, 1926492, 1926902, 1927264, 1927629, 1927983, 1928371]",47,R,ITM,1.1,
5,400,trial,0,104,104,104,trial,"['S', 'C', 'C', 'C', 'C', 'C', 'C', 'C', 'C', 'C', 'C', 'C', 'C', 'C', 'C', 'C', 'C']","[1936454, 1936919, 1937274, 1937662, 1938029, 1938394, 1938772, 1939125, 1939510, 1939906, 1940280, 1940654, 1941024, 1941378, 1941729, 1942102, 1942463]","[1936550, 1936971, 1937380, 1937748, 1938118, 1938487, 1938834, 1939227, 1939595, 1939991, 1940370, 1940758, 1941134, 1941497, 1941849, 1942195, 1942552]","[1933820, 1934220, 1934620, 1935021, 1935420, 1935820, 1936221, 1936621, 1936945, 1937301, 1937688, 1938055, 1938420, 1938798, 1939150, 1939535, 1939933, 1940306, 1940679, 1941050, 1941403, 1941754, 1942127, 1942489]",47,R,ITM,1.1,
7,400,trial,0,105,105,105,trial,"['S', 'S', 'S', 'S', 'C', 'C', 'C', 'C', 'C', 'C', 'C', 'C', 'C', 'C', 'C', 'C', 'C', 'C', 'C', 'C']","[1949838, 1950183, 1950595, 1950989, 1951417, 1951796, 1952189, 1952546, 1952906, 1953281, 1953671, 1954051, 1954430, 1954799, 1955185, 1955573, 1955969, 1956342, 1956723, 1957112]","[1949919, 1950278, 1950671, 1951070, 1951515, 1951890, 1952268, 1952630, 1953013, 1953383, 1953758, 1954148, 1954527, 1954913, 1955292, 1955664, 1956060, 1956430, 1956822, 1957201]","[1948271, 1948670, 1949070, 1949470, 1949871, 1950270, 1950670, 1951070, 1951444, 1951822, 1952216, 1952574, 1952933, 1953308, 1953697, 1954077, 1954456, 1954827, 1955213, 1955600, 1955996, 1956370, 1956750, 1957139]",47,R,ITM,1.1,
3,600,trial,0,106,106,106,trial,"['S', 'S', 'S', 'S', 'C', 'C', 'C', 'C', 'C', 'C', 'C', 'C', 'C', 'C', 'C', 'C', 'C', 'C', 'C', 'C']","[1964916, 1965526, 1966064, 1966655, 1967204, 1967754, 1968240, 1968791, 1969318, 1969810, 1970311, 1970796, 1971245, 1971801, 1972284, 1972748, 1973275, 1973747, 1974245, 1974740]","[1965025, 1965626, 1966174, 1966747, 1967286, 1967839, 1968353, 1968883, 1969399, 1969888, 1970377, 1970893, 1971352, 1971830, 1972348, 1972818, 1973353, 1973836, 1974273, 1974814]","[1962695, 1963294, 1963894, 1964494, 1965094, 1965694, 1966295, 1966895, 1967229, 1967779, 1968266, 1968817, 1969344, 1969836, 1970336, 1970822, 1971270, 1971826, 1972311, 1972773, 1973301, 1973773, 1974270, 1974766]",47,R,ITM,1.1,
5,600,trial,0,107,107,107,trial,"['S', 'S', 'S', 'S', 'C', 'C', 'C', 'C', 'C', 'C', 'C', 'C', 'C', 'C', 'C', 'C', 'C', 'C', 'C', 'C']","[1982621, 1983174, 1983717, 1984319, 1984869, 1985447, 1985984, 1986521, 1987054, 1987576, 1988080, 1988590, 1989076, 1989617, 1990162, 1990616, 1991135, 1991643, 1992142, 1992634]","[1982786, 1983325, 1983908, 1984489, 1985061, 1985667, 1986173, 1986706, 1987238, 1987785, 1988290, 1988792, 1989301, 1989804, 1990358, 1990864, 1991360, 1991852, 1992361, 1992858]","[1980261, 1980861, 1981461, 1982061, 1982661, 1983261, 1983861, 1984461, 1984894, 1985473, 1986010, 1986546, 1987080, 1987602, 1988107, 1988617, 1989101, 1989644, 1990188, 1990641, 1991160, 1991668, 1992168, 1992659]",47,R,ITM,1.1,
2,600,trial,0,108,108,108,trial,"['S', 'S', 'S', 'S', 'C', 'C', 'C', 'C', 'C', 'C', 'C', 'C', 'C', 'C', 'C', 'C', 'C', 'C', 'C', 'C']","[2000295, 2000905, 2001470, 2002036, 2002565, 2003123, 2003685, 2004190, 2004705, 2005202, 2005684, 2006181, 2006658, 2007127, 2007642, 2008124, 2008577, 2009068, 2009538, 2010013]","[2000400, 2001017, 2001554, 2002142, 2002662, 2003236, 2003773, 2004294, 2004789, 2005313, 2005797, 2006291, 2006738, 2007226, 2007728, 2008217, 2008690, 2009172, 2009605, 2010091]","[1998046, 1998644, 1999245, 1999845, 2000445, 2001044, 2001645, 2002245, 2002592, 2003150, 2003713, 2004217, 2004731, 2005229, 2005711, 2006208, 2006685, 2007154, 2007668, 2008151, 2008604, 2009095, 2009565, 2010040]",47,R,ITM,1.1,
2,600,trial,0,109,109,109,trial,"['S', 'S', 'S', 'S', 'C', 'C', 'C', 'C', 'C', 'C', 'C', 'C', 'C', 'C', 'C', 'C', 'C', 'C', 'C', 'C']","[2018010, 2018617, 2019206, 2019813, 2020369, 2020885, 2021442, 2021986, 2022455, 2022995, 2023545, 2024032, 2024491, 2025026, 2025565, 2026058, 2026573, 2027061, 2027595, 2028068]","[2018128, 2018725, 2019266, 2019885, 2020460, 2020988, 2021535, 2022080, 2022548, 2023077, 2023621, 2024131, 2024595, 2025140, 2025680, 2026147, 2026652, 2027195, 2027702, 2028191]","[2015742, 2016342, 2016943, 2017543, 2018143, 2018742, 2019343, 2019943, 2020397, 2020913, 2021470, 2022013, 2022482, 2023022, 2023572, 2024059, 2024518, 2025054, 2025591, 2026086, 2026601, 2027088, 2027622, 2028096]",47,R,ITM,1.1,
2,400,trial,0,110,110,110,trial,"['S', 'S', 'S', 'S', 'C', 'C', 'C', 'C', 'C', 'C', 'C', 'C', 'C', 'C', 'C', 'C', 'C', 'C', 'C', 'C']","[2035386, 2035759, 2036141, 2036546, 2036945, 2037342, 2037707, 2038081, 2038438, 2038848, 2039189, 2039554, 2039918, 2040296, 2040656, 2041038, 2041389, 2041755, 2042121, 2042483]","[2035474, 2035841, 2036252, 2036649, 2037040, 2037417, 2037777, 2038161, 2038536, 2038876, 2039265, 2039640, 2040028, 2040400, 2040745, 2041124, 2041485, 2041866, 2042213, 2042558]","[2033839, 2034238, 2034638, 2035039, 2035439, 2035838, 2036238, 2036639, 2036973, 2037369, 2037735, 2038108, 2038465, 2038876, 2039217, 2039581, 2039946, 2040323, 2040684, 2041065, 2041416, 2041782, 2042147, 2042511]",47,R,ITM,1.1,
2,400,trial,0,111,111,111,trial,"['S', 'S', 'S', 'S', 'C', 'C', 'C', 'C', 'C', 'C', 'C', 'C', 'C', 'C', 'C', 'C', 'C', 'C', 'C', 'C']","[2049711, 2050128, 2050534, 2050942, 2051350, 2051746, 2052129, 2052511, 2052923, 2053308, 2053694, 2054076, 2054492, 2054889, 2055261, 2055652, 2056081, 2056459, 2056859, 2057274]","[2049837, 2050233, 2050647, 2051051, 2051451, 2051838, 2052226, 2052632, 2053039, 2053403, 2053806, 2054187, 2054608, 2054953, 2055362, 2055738, 2056137, 2056556, 2056957, 2057344]","[2048180, 2048580, 2048980, 2049380, 2049780, 2050180, 2050579, 2050980, 2051377, 2051774, 2052157, 2052539, 2052950, 2053335, 2053722, 2054103, 2054519, 2054917, 2055288, 2055680, 2056109, 2056485, 2056887, 2057300]",47,R,ITM,1.1,
4,600,trial,0,112,112,112,trial,"['S', 'S', 'S', 'S', 'C', 'C', 'C', 'C', 'C', 'C', 'C', 'C', 'C', 'C', 'C', 'C', 'C', 'C', 'C', 'C']","[2064990, 2065602, 2066184, 2066785, 2067374, 2067985, 2068494, 2069044, 2069584, 2070135, 2070677, 2071206, 2071759, 2072295, 2072810, 2073261, 2073814, 2074334, 2074811, 2075323]","[2065182, 2065754, 2066344, 2066969, 2067629, 2068159, 2068712, 2069273, 2069790, 2070334, 2070854, 2071437, 2071975, 2072498, 2072996, 2073414, 2073912, 2074377, 2074929, 2075463]","[2062745, 2063344, 2063944, 2064544, 2065144, 2065744, 2066344, 2066945, 2067399, 2068012, 2068519, 2069069, 2069610, 2070161, 2070703, 2071232, 2071786, 2072321, 2072836, 2073286, 2073839, 2074359, 2074836, 2075348]",47,R,ITM,1.1,
3,400,trial,0,113,113,113,trial,"['S', 'S', 'S', 'S', 'C', 'C', 'C', 'C', 'C', 'C', 'C', 'C', 'C', 'C', 'C', 'C', 'C', 'C', 'C', 'C']","[2082669, 2083080, 2083493, 2083871, 2084295, 2084699, 2085074, 2085450, 2085867, 2086254, 2086625, 2087010, 2087385, 2087774, 2088166, 2088560, 2088968, 2089356, 2089728, 2090137]","[2082769, 2083197, 2083603, 2083987, 2084415, 2084792, 2085184, 2085567, 2085968, 2086361, 2086732, 2087097, 2087505, 2087890, 2088286, 2088678, 2089033, 2089449, 2089833, 2090237]","[2081115, 2081513, 2081913, 2082313, 2082713, 2083113, 2083513, 2083913, 2084321, 2084724, 2085100, 2085476, 2085893, 2086280, 2086650, 2087035, 2087410, 2087799, 2088192, 2088586, 2088993, 2089381, 2089753, 2090163]",47,R,ITM,1.1,
6,600,trial,0,114,114,114,trial,"['S', 'S', 'S', 'S', 'C', 'C', 'C', 'C', 'C', 'C', 'C', 'C', 'C', 'C', 'C', 'C', 'C', 'C', 'C', 'C']","[2098181, 2098789, 2099410, 2100035, 2100600, 2101146, 2101647, 2102194, 2102690, 2103149, 2103665, 2104142, 2104587, 2105047, 2105552, 2106002, 2106421, 2106880, 2107303, 2107761]","[2098357, 2098947, 2099549, 2100174, 2100751, 2101274, 2101771, 2102296, 2102804, 2103277, 2103776, 2104242, 2104690, 2105160, 2105625, 2106077, 2106522, 2106970, 2107404, 2107859]","[2095947, 2096546, 2097146, 2097746, 2098347, 2098947, 2099547, 2100147, 2100627, 2101173, 2101673, 2102221, 2102718, 2103176, 2103693, 2104169, 2104613, 2105074, 2105579, 2106030, 2106447, 2106907, 2107330, 2107788]",47,R,ITM,1.1,
5,600,trial,0,115,115,115,trial,"['S', 'S', 'S', 'S', 'C', 'C', 'C', 'C', 'C', 'C', 'C', 'C', 'C', 'C', 'C', 'C', 'C', 'C', 'C', 'C']","[2115832, 2116472, 2117063, 2117648, 2118231, 2118788, 2119299, 2119795, 2120303, 2120803, 2121295, 2121767, 2122268, 2122763, 2123253, 2123723, 2124197, 2124688, 2125154, 2125643]","[2115972, 2116585, 2117213, 2117817, 2118414, 2118920, 2119426, 2119948, 2120430, 2120925, 2121420, 2121899, 2122359, 2122895, 2123382, 2123869, 2124324, 2124812, 2125293, 2125772]","[2113570, 2114170, 2114770, 2115371, 2115971, 2116571, 2117170, 2117770, 2118256, 2118814, 2119324, 2119821, 2120329, 2120828, 2121322, 2121793, 2122295, 2122788, 2123279, 2123749, 2124223, 2124713, 2125180, 2125669]",47,R,ITM,1.1,
6,400,trial,0,116,116,116,trial,"['B', 'S', 'S', 'S', 'S', 'C', 'C', 'C', 'C', 'C', 'C', 'C', 'C', 'C', 'C', 'C', 'C', 'C', 'C', 'C', 'C']","[2131032, 2132633, 2133000, 2133381, 2133770, 2134174, 2134565, 2134938, 2135293, 2135673, 2136029, 2136397, 2136764, 2137127, 2137493, 2137862, 2138216, 2138646, 2139003, 2139382, 2139756]","[2132496, 2132785, 2133133, 2133504, 2133909, 2134292, 2134672, 2135033, 2135424, 2135760, 2136153, 2136520, 2136884, 2137250, 2137593, 2137974, 2138321, 2138732, 2139109, 2139478, 2139877]","[2131045, 2131444, 2131845, 2132244, 2132644, 2133044, 2133444, 2133844, 2134201, 2134593, 2134966, 2135321, 2135700, 2136055, 2136424, 2136791, 2137155, 2137521, 2137889, 2138244, 2138673, 2139031, 2139410, 2139783]",47,R,ITM,1.1,
4,600,trial,0,117,117,117,trial,"['S', 'S', 'S', 'S', 'C', 'C', 'C', 'C', 'C', 'C', 'C', 'C', 'C', 'C', 'C', 'C', 'C', 'C', 'C', 'C']","[2147686, 2148253, 2148839, 2149442, 2150014, 2150528, 2150994, 2151485, 2151987, 2152448, 2152944, 2153461, 2153917, 2154382, 2154834, 2155308, 2155716, 2156156, 2156595, 2157054]","[2147820, 2148385, 2148946, 2149570, 2150131, 2150639, 2151087, 2151578, 2152062, 2152560, 2153023, 2153527, 2153978, 2154462, 2154943, 2155381, 2155792, 2156222, 2156679, 2157136]","[2145421, 2146020, 2146620, 2147220, 2147820, 2148420, 2149020, 2149620, 2150040, 2150553, 2151020, 2151511, 2152012, 2152474, 2152970, 2153487, 2153943, 2154407, 2154860, 2155333, 2155742, 2156182, 2156620, 2157080]",47,R,ITM,1.1,
5,400,trial,0,118,118,118,trial,"['S', 'S', 'S', 'S', 'C', 'C', 'C', 'C', 'C', 'C', 'C', 'C', 'C', 'C', 'C', 'C', 'C', 'C', 'C', 'C']","[2164295, 2164703, 2165101, 2165532, 2165897, 2166254, 2166654, 2167013, 2167388, 2167763, 2168126, 2168505, 2168882, 2169240, 2169624, 2169976, 2170337, 2170724, 2171111, 2171474]","[2164404, 2164813, 2165257, 2165635, 2166000, 2166370, 2166756, 2167120, 2167484, 2167857, 2168227, 2168592, 2168968, 2169321, 2169700, 2170055, 2170440, 2170804, 2171200, 2171556]","[2162762, 2163163, 2163562, 2163962, 2164362, 2164762, 2165163, 2165562, 2165922, 2166281, 2166680, 2167038, 2167413, 2167789, 2168152, 2168530, 2168907, 2169266, 2169650, 2170002, 2170362, 2170750, 2171138, 2171501]",47,R,ITM,1.1,
7,600,trial,0,119,119,119,trial,"['S', 'S', 'S', 'S', 'C', 'C', 'C', 'C', 'C', 'C', 'C', 'C', 'C', 'C', 'C', 'C', 'C', 'C', 'C', 'C']","[2179103, 2179700, 2180288, 2180883, 2181432, 2181986, 2182444, 2182989, 2183524, 2183993, 2184481, 2184980, 2185449, 2185942, 2186393, 2186840, 2187329, 2187776, 2188292, 2188724]","[2179250, 2179857, 2180418, 2181002, 2181545, 2182052, 2182471, 2183059, 2183587, 2184020, 2184508, 2185007, 2185525, 2186022, 2186481, 2186929, 2187415, 2187924, 2188380, 2188840]","[2176844, 2177443, 2178043, 2178643, 2179244, 2179844, 2180444, 2181043, 2181459, 2182012, 2182471, 2183017, 2183552, 2184020, 2184508, 2185007, 2185477, 2185969, 2186420, 2186866, 2187357, 2187803, 2188318, 2188750]",47,R,ITM,1.1,
6,600,trial,0,120,120,120,trial,"['S', 'S', 'S', 'S', 'C', 'C', 'C', 'C', 'C', 'C', 'C', 'C', 'C', 'C', 'C', 'C', 'C', 'C', 'C', 'C']","[2196454, 2197052, 2197662, 2198197, 2198767, 2199306, 2199839, 2200351, 2200840, 2201309, 2201797, 2202327, 2202857, 2203360, 2203862, 2204336, 2204820, 2205256, 2205735, 2206201]","[2196620, 2197165, 2197750, 2198304, 2198794, 2199387, 2199933, 2200446, 2200922, 2201408, 2201916, 2202432, 2202963, 2203448, 2203933, 2204437, 2204900, 2205368, 2205849, 2206262]","[2194221, 2194821, 2195421, 2196020, 2196620, 2197220, 2197820, 2198420, 2198794, 2199332, 2199866, 2200378, 2200866, 2201335, 2201825, 2202354, 2202884, 2203386, 2203889, 2204362, 2204847, 2205283, 2205762, 2206229]",47,R,ITM,1.1,
6,400,trial,0,121,121,121,trial,"['S', 'S', 'S', 'S', 'C', 'C', 'C', 'C', 'C', 'C', 'C', 'C', 'C', 'C', 'C', 'C', 'C', 'C', 'C', 'C']","[2213334, 2213724, 2214115, 2214518, 2214910, 2215301, 2215670, 2216055, 2216425, 2216783, 2217166, 2217539, 2217910, 2218310, 2218665, 2219052, 2219423, 2219798, 2220164, 2220534]","[2213430, 2213824, 2214232, 2214589, 2214979, 2215379, 2215771, 2216125, 2216531, 2216876, 2217240, 2217608, 2217968, 2218376, 2218747, 2219079, 2219525, 2219838, 2220240, 2220631]","[2211777, 2212176, 2212576, 2212976, 2213377, 2213776, 2214176, 2214577, 2214936, 2215327, 2215698, 2216083, 2216452, 2216810, 2217193, 2217567, 2217936, 2218337, 2218693, 2219078, 2219450, 2219826, 2220190, 2220562]",47,R,ITM,1.1,
4,400,trial,0,122,122,122,trial,"['S', 'S', 'S', 'S', 'C', 'C', 'C', 'C', 'C', 'C', 'C', 'C', 'C', 'C', 'C', 'C', 'C', 'C', 'C', 'C']","[2227820, 2228219, 2228603, 2229022, 2229450, 2229852, 2230260, 2230618, 2231000, 2231400, 2231764, 2232184, 2232560, 2232964, 2233361, 2233768, 2234145, 2234548, 2234942, 2235365]","[2227916, 2228315, 2228716, 2229124, 2229524, 2229945, 2230331, 2230710, 2231097, 2231467, 2231865, 2232250, 2232638, 2233034, 2233480, 2233846, 2234247, 2234646, 2235031, 2235476]","[2226269, 2226669, 2227069, 2227469, 2227869, 2228270, 2228669, 2229069, 2229477, 2229877, 2230286, 2230643, 2231025, 2231426, 2231790, 2232210, 2232586, 2232989, 2233387, 2233794, 2234171, 2234573, 2234969, 2235390]",47,R,ITM,1.1,
7,600,trial,0,123,123,123,trial,"['S', 'S', 'S', 'S', 'C', 'C', 'C', 'C', 'C', 'C', 'C', 'C', 'C', 'C', 'C', 'C', 'C', 'C', 'C', 'C']","[2243082, 2243682, 2244274, 2244883, 2245553, 2246094, 2246617, 2247088, 2247612, 2248049, 2248585, 2249082, 2249555, 2249990, 2250440, 2250900, 2251376, 2251800, 2252194, 2252641]","[2243220, 2243796, 2244363, 2244982, 2245658, 2246193, 2246694, 2247192, 2247698, 2248136, 2248683, 2249172, 2249656, 2250094, 2250569, 2250990, 2251471, 2251909, 2252298, 2252774]","[2240883, 2241483, 2242083, 2242683, 2243283, 2243884, 2244484, 2245084, 2245580, 2246121, 2246643, 2247115, 2247639, 2248077, 2248612, 2249109, 2249583, 2250016, 2250468, 2250928, 2251404, 2251827, 2252221, 2252668]",47,R,ITM,1.1,
4,400,trial,0,124,124,124,trial,"['S', 'S', 'S', 'S', 'C', 'C', 'C', 'C', 'C', 'C', 'C', 'C', 'C', 'C', 'C', 'C', 'C', 'C', 'C', 'C']","[2259685, 2260074, 2260454, 2260834, 2261255, 2261620, 2261994, 2262345, 2262719, 2263080, 2263431, 2263798, 2264161, 2264527, 2264881, 2265274, 2265641, 2266009, 2266356, 2266719]","[2259771, 2260169, 2260535, 2260937, 2261351, 2261710, 2262070, 2262443, 2262823, 2263192, 2263512, 2263887, 2264260, 2264617, 2264977, 2265372, 2265703, 2266089, 2266444, 2266775]","[2258136, 2258535, 2258935, 2259335, 2259735, 2260135, 2260535, 2260935, 2261280, 2261646, 2262020, 2262371, 2262745, 2263106, 2263456, 2263824, 2264186, 2264553, 2264906, 2265299, 2265666, 2266035, 2266383, 2266744]",47,R,ITM,1.1,
7,400,trial,0,125,125,125,trial,"['S', 'S', 'S', 'S', 'C', 'C', 'C', 'C', 'C', 'C', 'C', 'C', 'C', 'C', 'C', 'C', 'C', 'C', 'C', 'C']","[2274057, 2274437, 2274793, 2275209, 2275588, 2275970, 2276346, 2276727, 2277132, 2277525, 2277903, 2278278, 2278673, 2279061, 2279431, 2279797, 2280205, 2280610, 2280975, 2281351]","[2274131, 2274495, 2274895, 2275299, 2275698, 2276075, 2276451, 2276849, 2277253, 2277608, 2278006, 2278383, 2278777, 2279165, 2279554, 2279931, 2280343, 2280705, 2281075, 2281443]","[2272436, 2272835, 2273235, 2273635, 2274035, 2274436, 2274835, 2275235, 2275614, 2275997, 2276373, 2276755, 2277159, 2277553, 2277929, 2278305, 2278701, 2279088, 2279458, 2279825, 2280232, 2280637, 2281001, 2281377]",47,R,ITM,1.1,
