octave,ioi,event,.thisRepN,.thisTrialN,.thisN,.thisIndex,event,tap_types,tap_times,release_times,tone_times,subject,handedness,experiment,version,
,,SPR,0,-1,-1,0,SPR,"['P', 'P', 'P', 'P', 'P', 'P', 'P', 'P', 'P', 'P', 'P', 'P', 'P', 'P', 'P', 'P', 'P', 'P', 'P', 'P', 'P', 'P', 'P', 'P', 'P', 'P', 'P', 'P', 'P', 'P']","[45293, 45712, 46164, 46616, 47057, 47493, 47918, 48354, 48783, 49224, 49653, 50072, 50492, 50946, 51342, 51778, 52191, 52609, 53042, 53438, 53830, 54232, 54652, 55086, 55514, 55919, 56340, 56771, 57174, 57604]","[45402, 45825, 46264, 46744, 47154, 47617, 48037, 48454, 48900, 49341, 49754, 50163, 50597, 51027, 51447, 51878, 52288, 52716, 53143, 53552, 53946, 54342, 54765, 55187, 55614, 56037, 56465, 56865, 57277, 57722]",,43,R,ITM,1.1,
6,500,practice,0,0,0,0,practice,"['S', 'S', 'S', 'S', 'S', 'S', 'S', 'C', 'C', 'C', 'C', 'C', 'C', 'C', 'C', 'C', 'C', 'C', 'C', 'C', 'C', 'C', 'C']","[133870, 134427, 134939, 135443, 135953, 136486, 136989, 137472, 137926, 138396, 138878, 139366, 139873, 140322, 140816, 141286, 141761, 142227, 142706, 143193, 143654, 144159, 144618]","[134004, 134551, 135070, 135595, 136122, 136648, 137157, 137627, 138082, 138541, 139015, 139497, 140001, 140468, 140948, 141435, 141914, 142379, 142851, 143341, 143827, 144312, 144811]","[133553, 134051, 134551, 135051, 135552, 136051, 136551, 137052, 137499, 137954, 138424, 138905, 139394, 139899, 140350, 140843, 141314, 141788, 142255, 142734, 143219, 143681, 144186, 144645]",43,R,ITM,1.1,
5,500,practice,0,1,1,1,practice,"['S', 'S', 'S', 'S', 'S', 'S', 'S', 'C', 'C', 'C', 'C', 'C', 'C', 'C', 'C', 'C', 'C', 'C', 'C', 'C', 'C', 'C', 'C']","[150422, 150944, 151481, 151983, 152508, 153042, 153541, 154042, 154571, 155088, 155580, 156073, 156584, 157089, 157600, 158112, 158628, 159137, 159650, 160143, 160643, 161164, 161667]","[150540, 151135, 151646, 152176, 152679, 153208, 153707, 154220, 154741, 155243, 155741, 156237, 156754, 157263, 157772, 158288, 158806, 159353, 159843, 160345, 160874, 161362, 161918]","[150041, 150540, 151041, 151540, 152040, 152541, 153041, 153541, 154067, 154597, 155114, 155606, 156099, 156610, 157115, 157627, 158139, 158654, 159163, 159677, 160168, 160668, 161189, 161693]",43,R,ITM,1.1,
4,500,practice,0,2,2,2,practice,"['S', 'S', 'S', 'S', 'S', 'S', 'S', 'C', 'C', 'C', 'C', 'C', 'C', 'C', 'C', 'C', 'C', 'C', 'C', 'C', 'C', 'C', 'C']","[167391, 167898, 168406, 168924, 169423, 169942, 170456, 170954, 171454, 171964, 172470, 173000, 173522, 174010, 174487, 174990, 175479, 175998, 176517, 176994, 177514, 177984, 178511]","[167598, 168094, 168609, 169167, 169635, 170212, 170693, 171217, 171681, 172180, 172668, 173214, 173700, 174211, 174747, 175232, 175704, 176228, 176730, 177236, 177727, 178197, 178699]","[166994, 167494, 167994, 168495, 168994, 169494, 169994, 170494, 170980, 171480, 171990, 172496, 173026, 173548, 174035, 174513, 175015, 175505, 176023, 176543, 177019, 177541, 178010, 178538]",43,R,ITM,1.1,
2,500,practice,0,3,3,3,practice,"['S', 'S', 'S', 'S', 'S', 'S', 'S', 'C', 'C', 'C', 'C', 'C', 'C', 'C', 'C', 'C', 'C', 'C', 'C', 'C', 'C', 'C', 'C']","[184666, 185163, 185668, 186175, 186648, 187186, 187702, 188195, 188712, 189222, 189740, 190211, 190673, 191179, 191714, 192245, 192743, 193273, 193794, 194281, 194775, 195337, 195846]","[184880, 185380, 185921, 186392, 186895, 187365, 187900, 188426, 188944, 189433, 189930, 190457, 190929, 191434, 191936, 192464, 192945, 193473, 193997, 194527, 195050, 195539, 196074]","[184212, 184712, 185213, 185712, 186212, 186714, 187213, 187713, 188222, 188739, 189249, 189766, 190238, 190701, 191207, 191740, 192272, 192770, 193300, 193820, 194308, 194801, 195364, 195873]",43,R,ITM,1.1,
3,500,practice,0,4,4,4,practice,"['S', 'S', 'S', 'S', 'S', 'S', 'C', 'C', 'C', 'C', 'C', 'C', 'C', 'C', 'C', 'C', 'C', 'C', 'C', 'C', 'C', 'C']","[202202, 202719, 203229, 203736, 204270, 204783, 205330, 205831, 206337, 206836, 207335, 207826, 208346, 208844, 209352, 209886, 210409, 210910, 211429, 211929, 212453, 212957]","[202412, 202954, 203478, 203998, 204485, 205031, 205562, 206050, 206572, 207057, 207527, 208025, 208543, 209062, 209570, 210058, 210582, 211097, 211643, 212146, 212673, 213181]","[201325, 201825, 202326, 202825, 203325, 203826, 204326, 204826, 205356, 205856, 206362, 206862, 207361, 207852, 208371, 208870, 209378, 209911, 210435, 210935, 211454, 211954, 212478, 212982]",43,R,ITM,1.1,
7,500,practice,0,5,5,5,practice,"['S', 'S', 'S', 'S', 'S', 'S', 'S', 'C', 'C', 'C', 'C', 'C', 'C', 'C', 'C', 'C', 'C', 'C', 'C', 'C', 'C', 'C', 'C']","[218888, 219418, 219955, 220480, 221011, 221488, 221978, 222484, 222971, 223493, 224006, 224525, 225008, 225509, 226042, 226551, 227066, 227565, 228068, 228586, 229064, 229542, 230077]","[219119, 219646, 220189, 220702, 221217, 221711, 222210, 222674, 223173, 223670, 224235, 224745, 225205, 225707, 226222, 226726, 227232, 227740, 228270, 228776, 229244, 229737, 230281]","[218547, 219045, 219545, 220045, 220546, 221045, 221545, 222046, 222512, 222998, 223519, 224033, 224552, 225035, 225536, 226070, 226579, 227094, 227592, 228094, 228613, 229092, 229569, 230105]",43,R,ITM,1.1,
3,600,trial,0,6,6,6,trial,"['S', 'S', 'S', 'S', 'S', 'S', 'S', 'C', 'C', 'C', 'C', 'C', 'C', 'C', 'C', 'C', 'C', 'C', 'C', 'C', 'C', 'C', 'C']","[308475, 309133, 309807, 310468, 311111, 311734, 312364, 312980, 313565, 314147, 314734, 315344, 315926, 316549, 317145, 317711, 318298, 318848, 319407, 320014, 320587, 321189, 321799]","[308653, 309332, 310020, 310658, 311358, 311943, 312594, 313273, 313840, 314399, 314983, 315591, 316217, 316780, 317387, 318015, 318565, 319120, 319704, 320241, 320836, 321436, 322038]","[308250, 308850, 309450, 310050, 310650, 311250, 311851, 312451, 313006, 313590, 314173, 314760, 315370, 315952, 316574, 317170, 317736, 318323, 318873, 319432, 320039, 320613, 321215, 321824]",43,R,ITM,1.1,
7,600,trial,0,7,7,7,trial,"['S', 'S', 'S', 'S', 'S', 'S', 'S', 'C', 'C', 'C', 'C', 'C', 'C', 'C', 'C', 'C', 'C', 'C', 'C', 'C', 'C', 'C', 'C']","[327458, 328144, 328834, 329466, 330054, 330692, 331308, 331917, 332547, 333144, 333748, 334342, 334927, 335555, 336192, 336777, 337390, 338023, 338613, 339212, 339880, 340494, 341134]","[327711, 328446, 329171, 329800, 330391, 331021, 331660, 332341, 332891, 333435, 334035, 334669, 335223, 335854, 336509, 337069, 337744, 338333, 338929, 339589, 340165, 340790, 341376]","[327126, 327725, 328325, 328925, 329524, 330124, 330724, 331324, 331943, 332573, 333171, 333775, 334368, 334954, 335582, 336220, 336803, 337417, 338051, 338640, 339238, 339908, 340521, 341161]",43,R,ITM,1.1,
4,600,trial,0,8,8,8,trial,"['S', 'S', 'S', 'S', 'S', 'S', 'S', 'C', 'C', 'C', 'C', 'C', 'C', 'C', 'C', 'C', 'C', 'C', 'C', 'C', 'C', 'C', 'C']","[347022, 347703, 348319, 348933, 349510, 350105, 350755, 351340, 351912, 352544, 353128, 353704, 354340, 354966, 355568, 356159, 356758, 357319, 357892, 358500, 359121, 359779, 360397]","[347371, 348054, 348662, 349237, 349813, 350393, 351028, 351670, 352289, 352836, 353413, 354020, 354622, 355264, 355848, 356378, 357026, 357598, 358185, 358793, 359387, 360016, 360599]","[346592, 347192, 347792, 348392, 348992, 349592, 350192, 350792, 351366, 351938, 352570, 353154, 353730, 354366, 354992, 355594, 356185, 356785, 357345, 357917, 358525, 359147, 359804, 360423]",43,R,ITM,1.1,
4,400,trial,0,9,9,9,trial,"['S', 'S', 'S', 'S', 'S', 'S', 'C', 'C', 'C', 'C', 'C', 'C', 'C', 'C', 'C', 'C', 'C', 'C', 'C', 'C', 'C', 'C']","[367107, 367510, 367897, 368303, 368714, 369099, 369550, 369878, 370252, 370591, 370930, 371261, 371603, 371927, 372310, 372656, 372989, 373337, 373710, 374072, 374429, 374794]","[367265, 367680, 368095, 368518, 368918, 369318, 369748, 370044, 370415, 370768, 371099, 371425, 371764, 372097, 372455, 372810, 373155, 373508, 373867, 374209, 374616, 374945]","[366059, 366458, 366858, 367258, 367659, 368058, 368458, 368859, 369576, 369903, 370278, 370617, 370956, 371287, 371629, 371953, 372336, 372682, 373015, 373362, 373736, 374097, 374455, 374819]",43,R,ITM,1.1,
2,600,trial,0,10,10,10,trial,"['S', 'S', 'S', 'S', 'S', 'S', 'S', 'C', 'C', 'C', 'C', 'C', 'C', 'C', 'C', 'C', 'C', 'C', 'C', 'C', 'C', 'C', 'C']","[381020, 381650, 382295, 382851, 383461, 384080, 384695, 385321, 385912, 386536, 387165, 387795, 388396, 389008, 389573, 390173, 390786, 391436, 392024, 392675, 393304, 393905, 394488]","[381273, 381967, 382619, 383199, 383740, 384362, 384985, 385619, 386201, 386828, 387439, 388065, 388680, 389251, 389868, 390492, 391128, 391706, 392365, 392930, 393597, 394218]","[380559, 381159, 381759, 382358, 382959, 383559, 384159, 384758, 385347, 385940, 386564, 387192, 387822, 388423, 389036, 389601, 390200, 390813, 391463, 392051, 392702, 393330, 393931, 394515]",43,R,ITM,1.1,
6,400,trial,0,11,11,11,trial,"['S', 'S', 'S', 'S', 'S', 'S', 'C', 'C', 'C', 'C', 'C', 'C', 'C', 'C', 'C', 'C', 'C', 'C', 'C', 'C', 'C', 'C']","[400944, 401359, 401765, 402152, 402572, 402967, 403392, 403751, 404152, 404516, 404905, 405276, 405660, 406041, 406424, 406782, 407150, 407510, 407883, 408252, 408625, 409014]","[401132, 401574, 401965, 402385, 402764, 403191, 403587, 403983, 404320, 404687, 405096, 405470, 405837, 406202, 406606, 406984, 407324, 407680, 408030, 408422, 408800, 409185]","[400258, 400656, 401056, 401457, 401856, 402256, 402656, 403056, 403420, 403778, 404179, 404544, 404931, 405304, 405687, 406069, 406451, 406810, 407178, 407536, 407910, 408280, 408651, 409041]",43,R,ITM,1.1,
3,600,trial,0,12,12,12,trial,"['S', 'S', 'S', 'S', 'S', 'S', 'S', 'C', 'C', 'C', 'C', 'C', 'C', 'C', 'C', 'C', 'C', 'C', 'C', 'C', 'C', 'C', 'C']","[415118, 415731, 416331, 416911, 417538, 418157, 418710, 419260, 419838, 420474, 421082, 421647, 422249, 422882, 423461, 424041, 424611, 425218, 425832, 426436, 427004, 427584, 428193]","[415382, 416018, 416630, 417229, 417852, 418417, 418936, 419494, 420080, 420697, 421268, 421916, 422457, 423070, 423656, 424216, 424864, 425448, 426034, 426662, 427242, 427812, 428395]","[414579, 415178, 415778, 416378, 416978, 417579, 418179, 418779, 419286, 419864, 420500, 421107, 421672, 422275, 422907, 423487, 424067, 424637, 425243, 425858, 426462, 427030, 427610, 428219]",43,R,ITM,1.1,
5,600,trial,0,13,13,13,trial,"['S', 'S', 'S', 'S', 'S', 'S', 'S', 'C', 'C', 'C', 'C', 'C', 'C', 'C', 'C', 'C', 'C', 'C', 'C', 'C', 'C', 'C', 'C']","[434404, 435086, 435686, 436271, 436933, 437564, 438140, 438715, 439311, 439947, 440536, 441123, 441713, 442296, 442904, 443474, 444047, 444650, 445252, 445895, 446458, 447041, 447610]","[434768, 435368, 436013, 436579, 437190, 437795, 438365, 438975, 439578, 440208, 440806, 441348, 441949, 442533, 443105, 443726, 444294, 444860, 445469, 446126, 446722, 447253, 447862]","[433990, 434589, 435189, 435789, 436389, 436989, 437590, 438190, 438740, 439337, 439972, 440561, 441149, 441739, 442321, 442930, 443500, 444072, 444676, 445278, 445921, 446484, 447067, 447637]",43,R,ITM,1.1,
3,400,trial,0,14,14,14,trial,"['S', 'S', 'S', 'S', 'S', 'S', 'C', 'C', 'C', 'C', 'C', 'C', 'C', 'C', 'C', 'C', 'C', 'C', 'C', 'C', 'C', 'C']","[453890, 454292, 454695, 455113, 455499, 455909, 456312, 456689, 457069, 457441, 457824, 458174, 458567, 458974, 459324, 459716, 460089, 460452, 460837, 461207, 461582, 461937]","[454083, 454460, 454884, 455294, 455689, 456079, 456489, 456845, 457221, 457595, 457987, 458349, 458723, 459120, 459493, 459853, 460233, 460580, 460978, 461359, 461715, 462083]","[453190, 453590, 453989, 454389, 454790, 455189, 455589, 455989, 456338, 456715, 457095, 457467, 457849, 458200, 458593, 458999, 459350, 459742, 460114, 460478, 460863, 461233, 461607, 461963]",43,R,ITM,1.1,
6,600,trial,0,15,15,15,trial,"['S', 'S', 'S', 'S', 'S', 'S', 'C', 'C', 'C', 'C', 'C', 'C', 'C', 'C', 'C', 'C', 'C', 'C', 'C', 'C', 'C', 'C']","[468496, 469163, 469710, 470334, 470928, 471580, 472187, 472755, 473311, 473915, 474516, 475128, 475750, 476369, 476933, 477521, 478113, 478733, 479315, 479911, 480518, 481102]","[468705, 469407, 470000, 470578, 471177, 471787, 472385, 472955, 473506, 474094, 474714, 475336, 475909, 476556, 477148, 477727, 478310, 478898, 479463, 480083, 480666, 481254]","[467433, 468032, 468632, 469232, 469832, 470432, 471032, 471632, 472214, 472781, 473338, 473943, 474543, 475155, 475777, 476396, 476960, 477548, 478140, 478759, 479342, 479939, 480544, 481129]",43,R,ITM,1.1,
2,400,trial,0,16,16,16,trial,"['S', 'S', 'S', 'S', 'S', 'S', 'S', 'C', 'C', 'C', 'C', 'C', 'C', 'C', 'C', 'C', 'C', 'C', 'C', 'C', 'C', 'C', 'C']","[486968, 487328, 487779, 488209, 488602, 489020, 489420, 489824, 490200, 490535, 490897, 491284, 491668, 492055, 492443, 492849, 493244, 493631, 494033, 494419, 494825, 495207, 495589]","[487118, 487536, 487940, 488392, 488779, 489200, 489608, 490014, 490330, 490706, 491053, 491424, 491815, 492223, 492610, 492998, 493385, 493805, 494193, 494576, 494941, 495351, 495754]","[486729, 487130, 487528, 487929, 488329, 488729, 489128, 489529, 489850, 490227, 490562, 490924, 491311, 491696, 492082, 492470, 492875, 493272, 493658, 494061, 494447, 494852, 495234, 495617]",43,R,ITM,1.1,
5,600,trial,0,17,17,17,trial,"['S', 'S', 'S', 'S', 'S', 'S', 'S', 'C', 'C', 'C', 'C', 'C', 'C', 'C', 'C', 'C', 'C', 'C', 'C', 'C', 'C', 'C', 'C']","[501652, 502039, 502574, 503159, 503768, 504378, 504953, 505574, 506116, 506707, 507305, 507885, 508434, 508989, 509600, 510161, 510758, 511340, 511929, 512526, 513090, 513700, 514251]","[501816, 502272, 502878, 503389, 503927, 504546, 505169, 505758, 506371, 506938, 507523, 508110, 508689, 509213, 509806, 510409, 510992, 511570, 512123, 512710, 513288, 513905, 514484]","[500918, 501518, 502118, 502718, 503318, 503918, 504518, 505118, 505600, 506141, 506733, 507331, 507911, 508460, 509015, 509626, 510188, 510784, 511367, 511954, 512551, 513116, 513726, 514278]",43,R,ITM,1.1,
6,400,trial,0,18,18,18,trial,"['S', 'S', 'S', 'S', 'S', 'S', 'S', 'C', 'C', 'C', 'C', 'C', 'C', 'C', 'C', 'C', 'C', 'C', 'C', 'C', 'C', 'C', 'C']","[524438, 524808, 525171, 525588, 525991, 526363, 526760, 527180, 527547, 527907, 528282, 528652, 529022, 529399, 529790, 530172, 530573, 530941, 531322, 531701, 532105, 532497, 532850]","[524650, 524980, 525366, 525793, 526169, 526544, 526925, 527326, 527726, 528074, 528428, 528840, 529162, 529550, 529921, 530323, 530695, 531080, 531433, 531836, 532226, 532621, 532972]","[524037, 524435, 524835, 525235, 525635, 526035, 526435, 526835, 527207, 527574, 527934, 528309, 528679, 529050, 529427, 529817, 530199, 530599, 530968, 531349, 531728, 532131, 532524, 532877]",43,R,ITM,1.1,
7,400,trial,0,19,19,19,trial,"['S', 'S', 'S', 'S', 'S', 'S', 'S', 'C', 'C', 'C', 'C', 'C', 'C', 'C', 'C', 'C', 'C', 'C', 'C', 'C', 'C', 'C', 'C']","[538860, 539267, 539677, 540095, 540502, 540899, 541279, 541671, 542053, 542427, 542844, 543246, 543627, 544014, 544407, 544761, 545160, 545540, 545876, 546279, 546680, 547091, 547511]","[539016, 539449, 539846, 540281, 540648, 541053, 541431, 541824, 542220, 542584, 543008, 543381, 543785, 544178, 544558, 544932, 545328, 545691, 546023, 546403, 546809, 547215, 547635]","[538552, 538951, 539352, 539751, 540151, 540552, 540952, 541352, 541699, 542080, 542453, 542871, 543273, 543653, 544040, 544435, 544788, 545187, 545566, 545904, 546307, 546707, 547118, 547538]",43,R,ITM,1.1,
7,600,trial,0,20,20,20,trial,"['S', 'S', 'S', 'S', 'S', 'S', 'S', 'C', 'C', 'C', 'C', 'C', 'C', 'C', 'C', 'C', 'C', 'C', 'C', 'C', 'C', 'C', 'C']","[553786, 554292, 554872, 555447, 556048, 556677, 557299, 557900, 558479, 559060, 559673, 560251, 560953, 561540, 562128, 562711, 563337, 563981, 564572, 565106, 565671, 566278, 566850]","[553998, 554580, 555128, 555720, 556354, 556960, 557532, 558217, 558817, 559379, 559887, 560561, 561196, 561811, 562366, 562945, 563589, 564254, 564867, 565421, 565974, 566506]","[553162, 553761, 554361, 554961, 555561, 556162, 556762, 557362, 557927, 558505, 559088, 559699, 560279, 560980, 561567, 562156, 562738, 563363, 564007, 564598, 565133, 565698, 566305, 566878]",43,R,ITM,1.1,
5,400,trial,0,21,21,21,trial,"['S', 'S', 'S', 'S', 'S', 'S', 'S', 'C', 'C', 'C', 'C', 'C', 'C', 'C', 'C', 'C', 'C', 'C', 'C', 'C', 'C', 'C', 'C']","[572709, 573104, 573475, 573860, 574244, 574651, 575045, 575436, 575816, 576211, 576591, 576967, 577340, 577712, 578076, 578441, 578809, 579256, 579644, 579996, 580377, 580768, 581132]","[572914, 573277, 573655, 574035, 574412, 574795, 575188, 575587, 575972, 576339, 576717, 577094, 577442, 577815, 578197, 578556, 578921, 579338, 579735, 580088, 580445, 580834, 581200]","[572344, 572744, 573145, 573544, 573944, 574344, 574744, 575144, 575462, 575842, 576238, 576617, 576993, 577366, 577737, 578102, 578466, 578835, 579282, 579670, 580023, 580404, 580794, 581158]",43,R,ITM,1.1,
6,600,trial,0,22,22,22,trial,"['S', 'S', 'S', 'S', 'S', 'S', 'S', 'S', 'C', 'C', 'C', 'C', 'C', 'C', 'C', 'C', 'C', 'C', 'C', 'C', 'C', 'C', 'C', 'C']","[587041, 587379, 587972, 588533, 589147, 589758, 590354, 590974, 591553, 592126, 592666, 593232, 593768, 594323, 594867, 595437, 595986, 596445, 597050, 597681, 598183, 598728, 599278, 599848]","[587196, 587606, 588197, 588779, 589388, 589998, 590592, 591130, 591757, 592340, 592796, 593380, 594001, 594543, 595108, 595654, 596169, 596667, 597219, 597774, 598349, 598899, 599470, 600039]","[586843, 587442, 588041, 588641, 589241, 589841, 590441, 591041, 591580, 592154, 592694, 593260, 593795, 594350, 594893, 595464, 596014, 596471, 597078, 597707, 598211, 598755, 599306, 599875]",43,R,ITM,1.1,
4,400,trial,0,23,23,23,trial,"['S', 'S', 'S', 'S', 'S', 'S', 'S', 'C', 'C', 'C', 'C', 'C', 'C', 'C', 'C', 'C', 'C', 'C', 'C', 'C', 'C', 'C', 'C']","[605603, 606006, 606390, 606799, 607194, 607571, 607973, 608367, 608724, 609102, 609476, 609862, 610248, 610653, 611019, 611367, 611763, 612147, 612528, 612905, 613297, 613691, 614085]","[605813, 606168, 606575, 606976, 607332, 607719, 608128, 608522, 608882, 609235, 609581, 609978, 610369, 610775, 611133, 611510, 611886, 612260, 612652, 613028, 613424, 613822, 614195]","[605289, 605688, 606088, 606488, 606888, 607288, 607688, 608089, 608394, 608750, 609128, 609502, 609888, 610274, 610678, 611045, 611393, 611788, 612173, 612554, 612931, 613322, 613716, 614111]",43,R,ITM,1.1,
4,600,trial,0,24,24,24,trial,"['B', 'S', 'S', 'S', 'S', 'S', 'S', 'S', 'C', 'C', 'C', 'C', 'C', 'C', 'C', 'C', 'C', 'C', 'C', 'C', 'C', 'C', 'C', 'C']","[619616, 620057, 620709, 621324, 621939, 622533, 623136, 623704, 624305, 624872, 625448, 626041, 626571, 627150, 627744, 628348, 628937, 629513, 630134, 630673, 631224, 631857, 632425, 632993]","[619746, 620298, 620960, 621562, 622169, 622788, 623363, 623942, 624474, 625110, 625673, 626256, 626853, 627453, 628039, 628613, 629195, 629766, 630335, 630926, 631491, 632094, 632638, 633248]","[619628, 620227, 620827, 621427, 622027, 622627, 623227, 623827, 624330, 624898, 625474, 626067, 626596, 627176, 627770, 628374, 628963, 629538, 630160, 630700, 631249, 631882, 632451, 633019]",43,R,ITM,1.1,
7,400,trial,0,25,25,25,trial,"['B', 'S', 'S', 'S', 'S', 'S', 'S', 'S', 'C', 'C', 'C', 'C', 'C', 'C', 'C', 'C', 'C', 'C', 'C', 'C', 'C', 'C', 'C', 'C']","[638772, 639248, 639563, 639908, 640302, 640706, 641079, 641462, 641895, 642277, 642694, 643101, 643493, 643905, 644317, 644688, 645067, 645407, 645779, 646173, 646567, 647016, 647377, 647804]","[638995, 639412, 639678, 640073, 640467, 640906, 641242, 641661, 642056, 642471, 642850, 643254, 643665, 644045, 644442, 644817, 645167, 645525, 645915, 646334, 646681, 647110, 647498, 647887]","[638785, 639184, 639584, 639984, 640385, 640784, 641184, 641585, 641923, 642304, 642721, 643129, 643521, 643932, 644344, 644716, 645095, 645435, 645806, 646201, 646595, 647044, 647404, 647831]",43,R,ITM,1.1,
5,400,trial,0,26,26,26,trial,"['S', 'S', 'S', 'S', 'S', 'S', 'S', 'C', 'C', 'C', 'C', 'C', 'C', 'C', 'C', 'C', 'C', 'C', 'C', 'C', 'C', 'C', 'C']","[653524, 653861, 654241, 654600, 654983, 655390, 655805, 656204, 656595, 656951, 657336, 657746, 658155, 658497, 658926, 659329, 659676, 660080, 660463, 660847, 661228, 661645, 662050]","[653699, 654039, 654425, 654775, 655179, 655585, 655950, 656349, 656738, 657115, 657475, 657856, 658251, 658632, 659034, 659449, 659824, 660224, 660612, 661013, 661367, 661732, 662170]","[653133, 653533, 653933, 654333, 654733, 655133, 655534, 655933, 656230, 656621, 656976, 657362, 657772, 658181, 658523, 658952, 659355, 659701, 660106, 660489, 660873, 661254, 661670, 662077]",43,R,ITM,1.1,
3,400,trial,0,27,27,27,trial,"['S', 'S', 'S', 'S', 'S', 'S', 'C', 'C', 'C', 'C', 'C', 'C', 'C', 'C', 'C', 'C', 'C', 'C', 'C', 'C', 'C', 'C']","[668233, 668633, 669024, 669422, 669848, 670256, 670660, 671042, 671418, 671793, 672173, 672571, 672957, 673326, 673711, 674111, 674497, 674833, 675206, 675617, 676015, 676386]","[668377, 668776, 669189, 669597, 670019, 670444, 670845, 671204, 671598, 671977, 672357, 672730, 673121, 673526, 673921, 674272, 674642, 675035, 675395, 675783, 676184, 676561]","[667596, 667997, 668397, 668797, 669197, 669597, 669998, 670397, 670686, 671068, 671443, 671818, 672198, 672596, 672983, 673351, 673736, 674137, 674523, 674859, 675231, 675643, 676040, 676412]",43,R,ITM,1.1,
2,400,trial,0,28,28,28,trial,"['S', 'S', 'S', 'S', 'S', 'S', 'S', 'C', 'C', 'C', 'C', 'C', 'C', 'C', 'C', 'C', 'C', 'C', 'C', 'C', 'C', 'C', 'C']","[682166, 682577, 682980, 683383, 683788, 684188, 684590, 684967, 685334, 685720, 686097, 686467, 686862, 687233, 687628, 688025, 688364, 688737, 689086, 689465, 689868, 690313, 690674]","[682364, 682764, 683185, 683572, 683969, 684364, 684791, 685172, 685517, 685891, 686251, 686648, 687038, 687406, 687808, 688195, 688533, 688918, 689284, 689685, 690086, 690484, 690851]","[681882, 682283, 682682, 683081, 683483, 683881, 684282, 684682, 684995, 685361, 685747, 686124, 686493, 686888, 687259, 687654, 688053, 688392, 688763, 689114, 689491, 689896, 690339, 690701]",43,R,ITM,1.1,
2,600,trial,0,29,29,29,trial,"['B', 'S', 'S', 'S', 'S', 'S', 'S', 'S', 'C', 'C', 'C', 'C', 'C', 'C', 'C', 'C', 'C', 'C', 'C', 'C', 'C', 'C', 'C', 'C']","[696386, 696669, 697404, 698103, 698708, 699308, 699945, 700555, 701120, 701728, 702340, 702956, 703535, 704144, 704761, 705388, 705980, 706563, 707167, 707794, 708401, 709017, 709623, 710208]","[696419, 696879, 697708, 698360, 698991, 699564, 700225, 700805, 701368, 702001, 702631, 703188, 703789, 704424, 705002, 705609, 706171, 706781, 707350, 707985, 708576, 709202, 709812, 710423]","[696399, 696999, 697600, 698200, 698799, 699400, 699998, 700599, 701147, 701755, 702366, 702984, 703561, 704172, 704789, 705415, 706007, 706590, 707194, 707821, 708427, 709045, 709651, 710236]",43,R,ITM,1.1,
2,600,trial,0,30,30,30,trial,"['S', 'S', 'S', 'S', 'S', 'S', 'S', 'C', 'C', 'C', 'C', 'C', 'C', 'C', 'C', 'C', 'C', 'C', 'C', 'C', 'C', 'C', 'C']","[718342, 719001, 719645, 720220, 720855, 721468, 722115, 722698, 723334, 723982, 724588, 725172, 725774, 726397, 727034, 727624, 728203, 728827, 729509, 730104, 730702, 731387, 732014]","[718561, 719272, 719859, 720494, 721075, 721655, 722309, 722903, 723543, 724126, 724736, 725356, 725971, 726571, 727218, 727792, 728389, 729010, 729632, 730276, 730863, 731515, 732135]","[717987, 718586, 719187, 719788, 720388, 720988, 721587, 722188, 722725, 723360, 724008, 724615, 725198, 725801, 726425, 727062, 727652, 728229, 728855, 729537, 730131, 730729, 731415, 732042]",43,R,ITM,1.1,
4,600,trial,0,31,31,31,trial,"['S', 'S', 'S', 'S', 'S', 'S', 'S', 'C', 'C', 'C', 'C', 'C', 'C', 'C', 'C', 'C', 'C', 'C', 'C', 'C', 'C', 'C', 'C']","[737931, 738578, 739186, 739799, 740418, 741021, 741707, 742293, 742795, 743401, 743958, 744500, 745084, 745662, 746225, 746806, 747371, 747925, 748534, 749156, 749670, 750263, 750850]","[738049, 738749, 739391, 740032, 740715, 741340, 741975, 742479, 743026, 743532, 744098, 744636, 745192, 745761, 746356, 746924, 747458, 748027, 748646, 749249, 749803, 750371, 750943]","[737629, 738227, 738827, 739427, 740027, 740627, 741227, 741827, 742320, 742820, 743427, 743984, 744525, 745110, 745689, 746251, 746831, 747397, 747951, 748560, 749181, 749696, 750289, 750875]",43,R,ITM,1.1,
7,400,trial,0,32,32,32,trial,"['S', 'S', 'S', 'S', 'S', 'S', 'S', 'C', 'C', 'C', 'C', 'C', 'C', 'C', 'C', 'C', 'C', 'C', 'C', 'C', 'C', 'C', 'C']","[756623, 757013, 757381, 757790, 758207, 758579, 759001, 759404, 759804, 760180, 760560, 760970, 761349, 761756, 762135, 762528, 762936, 763310, 763706, 764118, 764521, 764893, 765273]","[756783, 757144, 757538, 757970, 758336, 758724, 759139, 759515, 759925, 760301, 760664, 761091, 761469, 761858, 762233, 762644, 763039, 763423, 763790, 764208, 764597, 764969, 765340]","[756271, 756669, 757069, 757470, 757870, 758270, 758670, 759070, 759431, 759832, 760207, 760588, 760996, 761375, 761783, 762163, 762556, 762962, 763336, 763732, 764145, 764549, 764920, 765300]",43,R,ITM,1.1,
3,600,trial,0,33,33,33,trial,"['S', 'S', 'S', 'S', 'S', 'S', 'S', 'S', 'C', 'C', 'C', 'C', 'C', 'C', 'C', 'C', 'C', 'C', 'C', 'C', 'C', 'C', 'C', 'C']","[770836, 771124, 771722, 772315, 772868, 773501, 774078, 774635, 775291, 775814, 776431, 776997, 777567, 778113, 778684, 779251, 779820, 780407, 781003, 781564, 782140, 782733, 783293, 783846]","[770976, 771237, 771836, 772416, 772995, 773592, 774133, 774694, 775332, 775875, 776480, 777039, 777613, 778165, 778739, 779311, 779864, 780452, 781049, 781628, 782206, 782782, 783333, 783896]","[770681, 771281, 771881, 772482, 773082, 773682, 774282, 774882, 775317, 775839, 776457, 777023, 777592, 778138, 778710, 779277, 779845, 780433, 781029, 781590, 782166, 782758, 783319, 783872]",43,R,ITM,1.1,
5,400,trial,0,34,34,34,trial,"['S', 'S', 'S', 'S', 'S', 'S', 'S', 'C', 'C', 'C', 'C', 'C', 'C', 'C', 'C', 'C', 'C', 'C', 'C', 'C', 'C', 'C', 'C']","[789661, 790073, 790446, 790879, 791280, 791715, 792108, 792511, 792929, 793320, 793731, 794162, 794534, 794912, 795323, 795719, 796141, 796551, 796935, 797310, 797701, 798107, 798481]","[789763, 790164, 790531, 790933, 791324, 791737, 792148, 792549, 792972, 793371, 793774, 794193, 794602, 794969, 795360, 795768, 796189, 796595, 796973, 797336, 797726, 798133, 798507]","[789376, 789774, 790174, 790575, 790974, 791374, 791774, 792174, 792537, 792954, 793346, 793757, 794187, 794560, 794938, 795350, 795745, 796168, 796576, 796960, 797336, 797726, 798133, 798507]",43,R,ITM,1.1,
7,400,trial,0,35,35,35,trial,"['S', 'S', 'S', 'S', 'S', 'S', 'S', 'S', 'C', 'C', 'C', 'C', 'C', 'C', 'C', 'C', 'C', 'C', 'C', 'C', 'C', 'C', 'C', 'C']","[804313, 804786, 805198, 805603, 806007, 806382, 806782, 807184, 807656, 808034, 808425, 808812, 809175, 809574, 809974, 810373, 810762, 811144, 811529, 811904, 812279, 812656, 813051, 813442]","[804397, 804854, 805250, 805653, 806061, 806441, 806828, 807229, 807719, 808082, 808473, 808859, 809232, 809625, 810006, 810415, 810798, 811184, 811558, 811932, 812309, 812698, 813096, 813477]","[804148, 804548, 804948, 805348, 805748, 806149, 806548, 806948, 807684, 808060, 808452, 808840, 809202, 809601, 810001, 810400, 810788, 811171, 811556, 811930, 812306, 812684, 813078, 813469]",43,R,ITM,1.1,
5,400,trial,0,36,36,36,trial,"['S', 'S', 'S', 'S', 'S', 'S', 'S', 'S', 'C', 'C', 'C', 'C', 'C', 'C', 'C', 'C', 'C', 'C', 'C', 'C', 'C', 'C', 'C', 'C']","[819299, 819612, 820013, 820375, 820787, 821184, 821575, 821964, 822380, 822747, 823130, 823528, 823938, 824304, 824729, 825114, 825481, 825864, 826265, 826658, 827030, 827438, 827839, 828212]","[819354, 819683, 820052, 820419, 820835, 821229, 821627, 822013, 822422, 822797, 823177, 823580, 823988, 824360, 824766, 825140, 825523, 825909, 826297, 826703, 827077, 827470, 827884, 828273]","[819213, 819612, 820013, 820412, 820812, 821213, 821613, 822013, 822407, 822772, 823155, 823554, 823963, 824331, 824756, 825140, 825506, 825889, 826291, 826685, 827056, 827464, 827865, 828237]",43,R,ITM,1.1,
4,400,trial,0,37,37,37,trial,"['B', 'S', 'S', 'S', 'S', 'S', 'S', 'S', 'C', 'C', 'C', 'C', 'C', 'C', 'C', 'C', 'C', 'C', 'C', 'C', 'C', 'C', 'C', 'C']","[833888, 834250, 834639, 835011, 835418, 835799, 836200, 836599, 837030, 837414, 837827, 838231, 838643, 839046, 839410, 839817, 840229, 840648, 841023, 841403, 841774, 842158, 842531, 842940]","[833912, 834351, 834691, 835056, 835461, 835846, 836263, 836670, 837082, 837484, 837877, 838283, 838696, 839103, 839473, 839867, 840285, 840705, 841066, 841448, 841824, 842227, 842599, 843001]","[833899, 834299, 834699, 835099, 835500, 835899, 836299, 836700, 837056, 837440, 837853, 838257, 838669, 839071, 839436, 839843, 840255, 840675, 841049, 841428, 841800, 842183, 842557, 842966]",43,R,ITM,1.1,
2,400,trial,0,38,38,38,trial,"['S', 'S', 'S', 'S', 'S', 'S', 'S', 'C', 'C', 'C', 'C', 'C', 'C', 'C', 'C', 'C', 'C', 'C', 'C', 'C', 'C', 'C', 'C']","[848813, 849202, 849599, 849984, 850391, 850778, 851174, 851579, 851982, 852340, 852763, 853142, 853543, 853958, 854359, 854748, 855144, 855585, 856010, 856412, 856780, 857194, 857602]","[848889, 849258, 849642, 850039, 850440, 850839, 851215, 851615, 852017, 852381, 852796, 853172, 853576, 854009, 854410, 854819, 855204, 855633, 856038, 856474, 856846, 857267, 857665]","[848439, 848839, 849239, 849638, 850039, 850440, 850839, 851239, 851606, 852009, 852367, 852791, 853169, 853570, 853985, 854386, 854774, 855171, 855613, 856038, 856439, 856807, 857221, 857629]",43,R,ITM,1.1,
3,600,trial,0,39,39,39,trial,"['S', 'S', 'S', 'S', 'S', 'S', 'S', 'C', 'C', 'C', 'C', 'C', 'C', 'C', 'C', 'C', 'C', 'C', 'C', 'C', 'C', 'C', 'C']","[863398, 864155, 864827, 865425, 866048, 866692, 867293, 867868, 868444, 869045, 869656, 870239, 870840, 871456, 872015, 872559, 873093, 873692, 874285, 874862, 875470, 876025, 876591]","[863468, 864209, 864872, 865467, 866089, 866729, 867331, 867910, 868469, 869091, 869721, 870292, 870886, 871505, 872069, 872623, 873160, 873746, 874342, 874929, 875569, 876107, 876634]","[863124, 863723, 864323, 864923, 865523, 866123, 866723, 867323, 867894, 868469, 869070, 869682, 870264, 870865, 871482, 872041, 872585, 873118, 873717, 874310, 874888, 875496, 876051, 876616]",43,R,ITM,1.1,
5,600,trial,0,40,40,40,trial,"['S', 'S', 'S', 'S', 'S', 'S', 'S', 'C', 'C', 'C', 'C', 'C', 'C', 'C', 'C', 'C', 'C', 'C', 'C', 'C', 'C', 'C', 'C']","[882661, 883362, 884064, 884712, 885326, 885943, 886547, 887165, 887743, 888336, 888949, 889527, 890131, 890713, 891281, 891836, 892459, 893031, 893615, 894211, 894807, 895367, 895916]","[882749, 883435, 884123, 884769, 885388, 886010, 886610, 887232, 887806, 888409, 889008, 889594, 890214, 890775, 891334, 891933, 892517, 893113, 893691, 894278, 894852, 895431, 895996]","[882411, 883010, 883610, 884210, 884810, 885410, 886010, 886610, 887191, 887769, 888361, 888975, 889552, 890158, 890739, 891307, 891862, 892484, 893057, 893640, 894236, 894832, 895393, 895941]",43,R,ITM,1.1,
5,600,trial,0,41,41,41,trial,"['S', 'S', 'S', 'S', 'S', 'S', 'S', 'S', 'C', 'C', 'C', 'C', 'C', 'C', 'C', 'C', 'C', 'C', 'C', 'C', 'C', 'C', 'C', 'C']","[901770, 902178, 902712, 903285, 903904, 904524, 905108, 905669, 906257, 906852, 907441, 908018, 908563, 909178, 909756, 910349, 910956, 911515, 912121, 912745, 913345, 913949, 914552, 915130]","[901828, 902246, 902778, 903352, 903975, 904578, 905177, 905747, 906320, 906919, 907506, 908081, 908625, 909216, 909831, 910393, 910982, 911565, 912175, 912808, 913420, 914013, 914616, 915192]","[901563, 902162, 902762, 903362, 903962, 904562, 905162, 905762, 906283, 906878, 907466, 908044, 908590, 909204, 909782, 910374, 910982, 911541, 912147, 912772, 913371, 913975, 914578, 915155]",43,R,ITM,1.1,
4,600,trial,0,42,42,42,trial,"['S', 'S', 'S', 'S', 'S', 'S', 'S', 'C', 'C', 'C', 'C', 'C', 'C', 'C', 'C', 'C', 'C', 'C', 'C', 'C', 'C', 'C', 'C']","[922627, 923189, 923833, 924462, 925062, 925635, 926204, 926860, 927426, 928024, 928576, 929139, 929703, 930246, 930801, 931347, 931913, 932469, 933038, 933602, 934207, 934777, 935322]","[922713, 923253, 923894, 924526, 925125, 925705, 926273, 926918, 927497, 928071, 928631, 929202, 929756, 930308, 930851, 931409, 931981, 932528, 933102, 933677, 934254, 934839, 935372]","[922206, 922805, 923405, 924005, 924605, 925205, 925805, 926405, 926886, 927452, 928050, 928602, 929165, 929729, 930273, 930827, 931373, 931939, 932496, 933064, 933627, 934233, 934804, 935348]",43,R,ITM,1.1,
2,400,trial,0,43,43,43,trial,"['S', 'S', 'S', 'S', 'S', 'S', 'S', 'C', 'C', 'C', 'C', 'C', 'C', 'C', 'C', 'C', 'C', 'C', 'C', 'C', 'C', 'C', 'C']","[941254, 941703, 942049, 942458, 942857, 943273, 943629, 944040, 944433, 944821, 945248, 945614, 946001, 946401, 946768, 947172, 947585, 948002, 948391, 948776, 949190, 949626, 950000]","[941332, 941782, 942123, 942504, 942887, 943293, 943673, 944097, 944486, 944870, 945289, 945675, 946038, 946427, 946811, 947224, 947628, 948059, 948428, 948815, 949230, 949679, 950052]","[940872, 941273, 941672, 942072, 942472, 942873, 943273, 943672, 944068, 944460, 944848, 945274, 945642, 946029, 946427, 946796, 947200, 947611, 948030, 948418, 948803, 949218, 949653, 950028]",43,R,ITM,1.1,
4,400,trial,0,44,44,44,trial,"['S', 'S', 'S', 'S', 'S', 'S', 'S', 'C', 'C', 'C', 'C', 'C', 'C', 'C', 'C', 'C', 'C', 'C', 'C', 'C', 'C', 'C', 'C']","[955824, 956172, 956556, 956944, 957334, 957746, 958139, 958528, 958919, 959281, 959651, 960073, 960465, 960825, 961193, 961610, 961994, 962398, 962793, 963188, 963581, 963983, 964335]","[955916, 956254, 956636, 957029, 957394, 957820, 958213, 958596, 958994, 959362, 959721, 960147, 960519, 960900, 961261, 961661, 962044, 962462, 962849, 963234, 963644, 964056, 964418]","[955402, 955802, 956203, 956602, 957002, 957403, 957802, 958202, 958554, 958945, 959306, 959677, 960099, 960491, 960850, 961219, 961636, 962020, 962424, 962819, 963214, 963607, 964008, 964362]",43,R,ITM,1.1,
3,400,trial,0,45,45,45,trial,"['S', 'S', 'S', 'S', 'S', 'S', 'S', 'S', 'C', 'C', 'C', 'C', 'C', 'C', 'C', 'C', 'C', 'C', 'C', 'C', 'C', 'C', 'C', 'C']","[969996, 970261, 970564, 970917, 971320, 971713, 972140, 972510, 972891, 973267, 973620, 973942, 974305, 974683, 975076, 975432, 975800, 976184, 976579, 976921, 977336, 977748, 978141, 978504]","[970064, 970291, 970601, 970954, 971360, 971764, 972160, 972530, 972930, 973301, 973659, 973995, 974356, 974731, 975101, 975458, 975841, 976242, 976610, 976985, 977369, 977805, 978180, 978572]","[969798, 970198, 970597, 970997, 971398, 971797, 972197, 972597, 972917, 973294, 973645, 973968, 974330, 974708, 975101, 975458, 975825, 976209, 976605, 976947, 977361, 977774, 978166, 978530]",43,R,ITM,1.1,
2,600,trial,0,46,46,46,trial,"['S', 'S', 'S', 'S', 'S', 'S', 'S', 'C', 'C', 'C', 'C', 'C', 'C', 'C', 'C', 'C', 'C', 'C', 'C', 'C', 'C', 'C', 'C']","[984562, 985225, 985824, 986452, 987047, 987618, 988216, 988848, 989391, 989947, 990560, 991119, 991740, 992348, 992930, 993451, 994008, 994593, 995149, 995689, 996246, 996815, 997398]","[984647, 985306, 985906, 986525, 987125, 987708, 988280, 988919, 989471, 990040, 990615, 991181, 991809, 992414, 993008, 993532, 994060, 994664, 995217, 995781, 996308, 996900, 997463]","[984105, 984706, 985306, 985905, 986504, 987104, 987705, 988305, 988875, 989419, 989975, 990586, 991145, 991767, 992375, 992957, 993478, 994035, 994620, 995177, 995717, 996273, 996843, 997425]",43,R,ITM,1.1,
7,600,trial,0,47,47,47,trial,"['S', 'S', 'S', 'S', 'S', 'S', 'S', 'S', 'C', 'C', 'C', 'C', 'C', 'C', 'C', 'C', 'C', 'C', 'C', 'C', 'C', 'C', 'C', 'C']","[1003077, 1003439, 1004024, 1004658, 1005219, 1005802, 1006422, 1007015, 1007637, 1008257, 1008886, 1009555, 1010147, 1010751, 1011377, 1011964, 1012570, 1013179, 1013791, 1014407, 1015013, 1015632, 1016227, 1016823]","[1003126, 1003480, 1004051, 1004699, 1005257, 1005837, 1006457, 1007051, 1007675, 1008296, 1008913, 1009585, 1010185, 1010798, 1011422, 1012012, 1012615, 1013206, 1013843, 1014452, 1015067, 1015684, 1016291, 1016878]","[1002875, 1003474, 1004075, 1004675, 1005275, 1005875, 1006475, 1007075, 1007665, 1008283, 1008913, 1009583, 1010174, 1010779, 1011404, 1011991, 1012596, 1013206, 1013819, 1014433, 1015040, 1015659, 1016254, 1016850]",43,R,ITM,1.1,
6,600,trial,0,48,48,48,trial,"['S', 'S', 'S', 'S', 'S', 'S', 'S', 'C', 'C', 'C', 'C', 'C', 'C', 'C', 'C', 'C', 'C', 'C', 'C', 'C', 'C', 'C', 'C']","[1022781, 1023451, 1024083, 1024684, 1025235, 1025818, 1026421, 1027019, 1027578, 1028139, 1028732, 1029314, 1029895, 1030454, 1031032, 1031602, 1032169, 1032770, 1033339, 1033921, 1034499, 1035091, 1035659]","[1022849, 1023509, 1024146, 1024743, 1025303, 1025876, 1026480, 1027070, 1027647, 1028199, 1028807, 1029388, 1029962, 1030530, 1031092, 1031672, 1032238, 1032845, 1033403, 1033988, 1034562, 1035163, 1035715]","[1022385, 1022984, 1023584, 1024184, 1024784, 1025384, 1025984, 1026584, 1027047, 1027605, 1028166, 1028760, 1029341, 1029921, 1030481, 1031060, 1031629, 1032196, 1032797, 1033366, 1033949, 1034525, 1035118, 1035686]",43,R,ITM,1.1,
3,400,trial,0,49,49,49,trial,"['S', 'S', 'S', 'S', 'S', 'S', 'S', 'S', 'C', 'C', 'C', 'C', 'C', 'C', 'C', 'C', 'C', 'C', 'C', 'C', 'C', 'C', 'C', 'C']","[1041318, 1041721, 1042040, 1042375, 1042748, 1043153, 1043516, 1043945, 1044320, 1044703, 1045089, 1045497, 1045899, 1046325, 1046729, 1047129, 1047529, 1047896, 1048289, 1048674, 1049079, 1049447, 1049854, 1050223]","[1041375, 1041785, 1042108, 1042437, 1042825, 1043207, 1043588, 1043987, 1044392, 1044771, 1045167, 1045549, 1045963, 1046383, 1046811, 1047175, 1047597, 1047951, 1048339, 1048737, 1049119, 1049499, 1049914, 1050289]","[1041188, 1041587, 1041987, 1042387, 1042787, 1043187, 1043588, 1043987, 1044345, 1044728, 1045114, 1045523, 1045924, 1046350, 1046755, 1047154, 1047555, 1047921, 1048314, 1048699, 1049105, 1049473, 1049880, 1050249]",43,R,ITM,1.1,
6,600,trial,0,50,50,50,trial,"['S', 'S', 'S', 'S', 'S', 'S', 'S', 'S', 'C', 'C', 'C', 'C', 'C', 'C', 'C', 'C', 'C', 'C', 'C', 'C', 'C', 'C', 'C', 'C']","[1055904, 1056350, 1056998, 1057640, 1058195, 1058841, 1059471, 1060045, 1060641, 1061229, 1061858, 1062453, 1063005, 1063611, 1064250, 1064858, 1065411, 1066013, 1066654, 1067231, 1067739, 1068352, 1068944, 1069542]","[1055987, 1056422, 1057064, 1057690, 1058253, 1058890, 1059510, 1060086, 1060681, 1061284, 1061906, 1062510, 1063063, 1063662, 1064304, 1064923, 1065489, 1066065, 1066711, 1067298, 1067813, 1068409, 1069025, 1069605]","[1055904, 1056503, 1057103, 1057703, 1058304, 1058904, 1059504, 1060104, 1060669, 1061257, 1061885, 1062479, 1063031, 1063638, 1064276, 1064885, 1065438, 1066040, 1066681, 1067257, 1067765, 1068379, 1068971, 1069569]",43,R,ITM,1.1,
6,400,trial,0,51,51,51,trial,"['S', 'S', 'S', 'S', 'S', 'S', 'S', 'C', 'C', 'C', 'C', 'C', 'C', 'C', 'C', 'C', 'C', 'C', 'C', 'C', 'C', 'C', 'C']","[1075625, 1076030, 1076402, 1076819, 1077195, 1077599, 1077967, 1078354, 1078763, 1079079, 1079467, 1079852, 1080222, 1080609, 1081027, 1081426, 1081822, 1082195, 1082598, 1082987, 1083384, 1083816, 1084203]","[1075696, 1076098, 1076467, 1076866, 1077253, 1077641, 1077988, 1078396, 1078799, 1079127, 1079493, 1079878, 1080250, 1080657, 1081055, 1081463, 1081849, 1082232, 1082625, 1083026, 1083415, 1083843, 1084233]","[1075266, 1075665, 1076065, 1076465, 1076866, 1077265, 1077665, 1078066, 1078381, 1078791, 1079107, 1079493, 1079878, 1080250, 1080637, 1081055, 1081453, 1081849, 1082222, 1082625, 1083014, 1083411, 1083843, 1084229]",43,R,ITM,1.1,
6,400,trial,0,52,52,52,trial,"['S', 'S', 'S', 'S', 'S', 'S', 'S', 'S', 'C', 'C', 'C', 'C', 'C', 'C', 'C', 'C', 'C', 'C', 'C', 'C', 'C', 'C', 'C', 'C']","[1089909, 1090253, 1090557, 1090894, 1091277, 1091657, 1092040, 1092422, 1092832, 1093189, 1093605, 1094006, 1094411, 1094787, 1095154, 1095560, 1095968, 1096351, 1096764, 1097164, 1097576, 1097959, 1098369, 1098786]","[1089955, 1090310, 1090604, 1090942, 1091324, 1091690, 1092076, 1092467, 1092858, 1093235, 1093647, 1094051, 1094437, 1094813, 1095205, 1095587, 1095995, 1096392, 1096806, 1097191, 1097604, 1098002, 1098395, 1098814]","[1089707, 1090105, 1090505, 1090906, 1091305, 1091705, 1092105, 1092505, 1092858, 1093216, 1093632, 1094033, 1094437, 1094813, 1095181, 1095587, 1095995, 1096378, 1096792, 1097191, 1097604, 1097986, 1098395, 1098814]",43,R,ITM,1.1,
7,600,trial,0,53,53,53,trial,"['S', 'S', 'S', 'S', 'S', 'S', 'S', 'C', 'C', 'C', 'C', 'C', 'C', 'C', 'C', 'C', 'C', 'C', 'C', 'C', 'C', 'C', 'C']","[1104374, 1105128, 1105780, 1106362, 1106984, 1107605, 1108187, 1108814, 1109382, 1109927, 1110481, 1111057, 1111636, 1112200, 1112745, 1113265, 1113812, 1114386, 1114963, 1115520, 1116075, 1116637, 1117207]","[1104427, 1105182, 1105856, 1106436, 1107027, 1107651, 1108250, 1108857, 1109433, 1109975, 1110534, 1111112, 1111676, 1112238, 1112772, 1113308, 1113839, 1114414, 1115004, 1115563, 1116126, 1116663, 1117258]","[1104106, 1104705, 1105305, 1105905, 1106505, 1107105, 1107705, 1108305, 1108841, 1109408, 1109954, 1110508, 1111084, 1111664, 1112227, 1112772, 1113292, 1113839, 1114414, 1114990, 1115547, 1116101, 1116663, 1117235]",43,R,ITM,1.1,
5,400,trial,0,54,54,54,trial,"['S', 'S', 'S', 'S', 'S', 'S', 'S', 'C', 'C', 'C', 'C', 'C', 'C', 'C', 'C', 'C', 'C', 'C', 'C', 'C', 'C', 'C', 'C']","[1127599, 1127993, 1128369, 1128768, 1129157, 1129546, 1129938, 1130380, 1130769, 1131154, 1131548, 1131924, 1132315, 1132717, 1133092, 1133492, 1133882, 1134291, 1134686, 1135064, 1135450, 1135851, 1136222]","[1127650, 1128043, 1128420, 1128825, 1129214, 1129603, 1129993, 1130420, 1130809, 1131181, 1131574, 1131969, 1132350, 1132742, 1133128, 1133527, 1133912, 1134333, 1134717, 1135090, 1135475, 1135895, 1136268]","[1127194, 1127593, 1127993, 1128393, 1128794, 1129193, 1129593, 1129993, 1130405, 1130795, 1131180, 1131574, 1131950, 1132341, 1132742, 1133118, 1133517, 1133907, 1134317, 1134711, 1135090, 1135475, 1135878, 1136247]",43,R,ITM,1.1,
2,400,trial,0,55,55,55,trial,"['S', 'S', 'S', 'S', 'S', 'S', 'S', 'S', 'C', 'C', 'C', 'C', 'C', 'C', 'C', 'C', 'C', 'C', 'C', 'C', 'C', 'C', 'C', 'C']","[1141738, 1142047, 1142404, 1142763, 1143143, 1143540, 1143943, 1144312, 1144742, 1145112, 1145519, 1145925, 1146326, 1146696, 1147088, 1147491, 1147865, 1148254, 1148669, 1149038, 1149423, 1150097, 1150475, 1150864]","[1141775, 1142107, 1142453, 1142831, 1143200, 1143601, 1143990, 1144359, 1144770, 1145145, 1145568, 1145956, 1146352, 1146727, 1147125, 1147518, 1147892, 1148281, 1148697, 1149065, 1149451, 1150124, 1150505, 1150891]","[1141600, 1142000, 1142401, 1142800, 1143200, 1143600, 1144000, 1144400, 1144770, 1145140, 1145545, 1145952, 1146352, 1146723, 1147116, 1147518, 1147892, 1148281, 1148697, 1149065, 1149451, 1150124, 1150502, 1150891]",43,R,ITM,1.1,
2,600,trial,0,56,56,56,trial,"['S', 'S', 'S', 'S', 'S', 'S', 'S', 'C', 'C', 'C', 'C', 'C', 'C', 'C', 'C', 'C', 'C', 'C', 'C', 'C', 'C', 'C', 'C']","[1156500, 1157188, 1157842, 1158418, 1159029, 1159640, 1160206, 1160835, 1161366, 1161954, 1162508, 1163111, 1163678, 1164268, 1164805, 1165400, 1165967, 1166560, 1167110, 1167656, 1168262, 1168768, 1169269]","[1156573, 1157252, 1157916, 1158482, 1159070, 1159688, 1160275, 1160886, 1161430, 1162009, 1162563, 1163156, 1163729, 1164311, 1164864, 1165427, 1166020, 1166622, 1167168, 1167739, 1168288, 1168845, 1169330]","[1156192, 1156792, 1157392, 1157992, 1158592, 1159191, 1159792, 1160392, 1160862, 1161394, 1161981, 1162534, 1163138, 1163705, 1164296, 1164832, 1165427, 1165995, 1166586, 1167137, 1167684, 1168288, 1168795, 1169297]",43,R,ITM,1.1,
5,600,trial,0,57,57,57,trial,"['S', 'S', 'S', 'S', 'S', 'S', 'S', 'C', 'C', 'C', 'C', 'C', 'C', 'C', 'C', 'C', 'C', 'C', 'C', 'C', 'C', 'C', 'C']","[1175175, 1175913, 1176538, 1177116, 1177732, 1178301, 1178906, 1179482, 1180040, 1180602, 1181181, 1181750, 1182268, 1182810, 1183351, 1183879, 1184430, 1184978, 1185563, 1186096, 1186665, 1187212, 1187749]","[1175221, 1175984, 1176587, 1177159, 1177791, 1178356, 1178946, 1179543, 1180101, 1180647, 1181225, 1181783, 1182308, 1182852, 1183397, 1183925, 1184473, 1185033, 1185610, 1186128, 1186704, 1187237, 1187804]","[1174809, 1175408, 1176008, 1176608, 1177208, 1177808, 1178408, 1179009, 1179507, 1180065, 1180627, 1181207, 1181775, 1182294, 1182835, 1183377, 1183904, 1184455, 1185005, 1185589, 1186121, 1186691, 1187237, 1187776]",43,R,ITM,1.1,
7,400,trial,0,58,58,58,trial,"['S', 'S', 'S', 'S', 'S', 'S', 'S', 'S', 'C', 'C', 'C', 'C', 'C', 'C', 'C', 'C', 'C', 'C', 'C', 'C', 'C', 'C', 'C', 'C']","[1193695, 1194023, 1194353, 1194669, 1195075, 1195456, 1195847, 1196268, 1196685, 1197054, 1197442, 1197847, 1198260, 1198630, 1199023, 1199404, 1199810, 1200193, 1200541, 1200942, 1201355, 1201756, 1202151, 1202528]","[1193743, 1194092, 1194402, 1194727, 1195118, 1195514, 1195910, 1196328, 1196727, 1197108, 1197493, 1197900, 1198314, 1198691, 1199064, 1199455, 1199861, 1200234, 1200601, 1200982, 1201396, 1201805, 1202184, 1202554]","[1193489, 1193888, 1194289, 1194688, 1195088, 1195488, 1195888, 1196289, 1196711, 1197082, 1197469, 1197875, 1198286, 1198657, 1199049, 1199431, 1199837, 1200221, 1200569, 1200968, 1201383, 1201783, 1202179, 1202554]",43,R,ITM,1.1,
6,600,trial,0,59,59,59,trial,"['S', 'S', 'S', 'S', 'S', 'S', 'S', 'C', 'C', 'C', 'C', 'C', 'C', 'C', 'C', 'C', 'C', 'C', 'C', 'C', 'C', 'C', 'C']","[1208484, 1209198, 1209873, 1210429, 1211006, 1211615, 1212230, 1212899, 1213495, 1214047, 1214604, 1215185, 1215762, 1216305, 1216904, 1217469, 1218062, 1218694, 1219243, 1219750, 1220306, 1220856, 1221407]","[1208532, 1209253, 1209914, 1210468, 1211045, 1211651, 1212274, 1212945, 1213534, 1214096, 1214666, 1215230, 1215805, 1216359, 1216947, 1217509, 1218088, 1218726, 1219269, 1219784, 1220333, 1220884, 1221435]","[1208151, 1208751, 1209351, 1209950, 1210550, 1211150, 1211750, 1212350, 1212926, 1213521, 1214074, 1214630, 1215212, 1215789, 1216332, 1216931, 1217497, 1218088, 1218720, 1219269, 1219777, 1220333, 1220884, 1221435]",43,R,ITM,1.1,
3,600,trial,0,60,60,60,trial,"['S', 'S', 'S', 'S', 'S', 'S', 'S', 'S', 'C', 'C', 'C', 'C', 'C', 'C', 'C', 'C', 'C', 'C', 'C', 'C', 'C', 'C', 'C', 'C']","[1227248, 1227567, 1228156, 1228729, 1229306, 1229917, 1230499, 1231135, 1231735, 1232336, 1232964, 1233530, 1234122, 1234690, 1235302, 1235861, 1236440, 1236999, 1237573, 1238142, 1238745, 1239305, 1239829, 1240433]","[1227300, 1227624, 1228188, 1228766, 1229350, 1229959, 1230556, 1231188, 1231792, 1232378, 1232990, 1233568, 1234148, 1234715, 1235328, 1235912, 1236465, 1237024, 1237599, 1238167, 1238770, 1239330, 1239855, 1240459]","[1227024, 1227624, 1228224, 1228824, 1229424, 1230024, 1230624, 1231224, 1231761, 1232362, 1232990, 1233556, 1234148, 1234715, 1235328, 1235887, 1236465, 1237024, 1237599, 1238167, 1238770, 1239330, 1239855, 1240459]",43,R,ITM,1.1,
2,600,trial,0,61,61,61,trial,"['S', 'S', 'S', 'S', 'S', 'S', 'S', 'C', 'C', 'C', 'C', 'C', 'C', 'C', 'C', 'C', 'C', 'C', 'C', 'C', 'C', 'C', 'C']","[1246246, 1246931, 1247569, 1248183, 1248822, 1249382, 1249982, 1250629, 1251251, 1251841, 1252439, 1253058, 1253643, 1254225, 1254818, 1255415, 1256011, 1256625, 1257279, 1257871, 1258442, 1259031, 1259595]","[1246323, 1246973, 1247607, 1248205, 1248842, 1249402, 1250002, 1250657, 1251278, 1251868, 1252466, 1253086, 1253669, 1254253, 1254846, 1255443, 1256039, 1256652, 1257307, 1257897, 1258470, 1259059, 1259623]","[1245881, 1246480, 1247080, 1247681, 1248281, 1248881, 1249481, 1250081, 1250657, 1251277, 1251868, 1252466, 1253086, 1253669, 1254253, 1254846, 1255443, 1256039, 1256652, 1257307, 1257897, 1258470, 1259059, 1259623]",43,R,ITM,1.1,
6,600,trial,0,62,62,62,trial,"['S', 'S', 'S', 'S', 'S', 'S', 'S', 'C', 'C', 'C', 'C', 'C', 'C', 'C', 'C', 'C', 'C', 'C', 'C', 'C', 'C', 'C', 'C']","[1265504, 1266168, 1266793, 1267397, 1267997, 1268591, 1269201, 1269779, 1270396, 1270939, 1271456, 1271982, 1272536, 1273101, 1273663, 1274190, 1274737, 1275292, 1275862, 1276382, 1276895, 1277454, 1277991]","[1265524, 1266198, 1266850, 1267447, 1268056, 1268628, 1269225, 1269827, 1270424, 1270966, 1271483, 1272009, 1272563, 1273127, 1273691, 1274224, 1274764, 1275320, 1275888, 1276409, 1276940, 1277481, 1278018]","[1265106, 1265705, 1266306, 1266906, 1267506, 1268105, 1268705, 1269305, 1269807, 1270424, 1270966, 1271483, 1272009, 1272563, 1273127, 1273691, 1274217, 1274764, 1275320, 1275888, 1276408, 1276922, 1277481, 1278018]",43,R,ITM,1.1,
5,600,trial,0,63,63,63,trial,"['S', 'S', 'S', 'S', 'S', 'S', 'S', 'S', 'C', 'C', 'C', 'C', 'C', 'C', 'C', 'C', 'C', 'C', 'C', 'C', 'C', 'C', 'C', 'C']","[1283894, 1284285, 1284937, 1285568, 1286157, 1286721, 1287344, 1287926, 1288525, 1289109, 1289733, 1290347, 1290986, 1291566, 1292172, 1292817, 1293403, 1293995, 1294638, 1295252, 1295850, 1296489, 1297065, 1297655]","[1283914, 1284338, 1284980, 1285608, 1286203, 1286765, 1287389, 1287965, 1288561, 1289145, 1289772, 1290373, 1291021, 1291616, 1292197, 1292844, 1293445, 1294021, 1294670, 1295291, 1295892, 1296536, 1297094, 1297691]","[1283779, 1284378, 1284978, 1285578, 1286178, 1286778, 1287378, 1287979, 1288551, 1289136, 1289759, 1290373, 1291012, 1291591, 1292197, 1292844, 1293428, 1294021, 1294664, 1295278, 1295877, 1296515, 1297091, 1297681]",43,R,ITM,1.1,
7,600,trial,0,64,64,64,trial,"['S', 'S', 'S', 'S', 'S', 'S', 'S', 'S', 'C', 'C', 'C', 'C', 'C', 'C', 'C', 'C', 'C', 'C', 'C', 'C', 'C', 'C', 'C', 'C']","[1303532, 1303945, 1304544, 1305137, 1305743, 1306332, 1306923, 1307462, 1308049, 1308609, 1309126, 1309701, 1310241, 1310801, 1311348, 1311916, 1312456, 1313018, 1313516, 1314112, 1314670, 1315240, 1315877, 1316608]","[1303576, 1303971, 1304565, 1305168, 1305786, 1306369, 1306943, 1307502, 1308085, 1308645, 1309170, 1309734, 1310268, 1310837, 1311376, 1311942, 1312490, 1313045, 1313543, 1314140, 1314698, 1315280, 1315904, 1316651]","[1303408, 1304007, 1304607, 1305207, 1305807, 1306407, 1307008, 1307608, 1308076, 1308636, 1309154, 1309727, 1310268, 1310828, 1311376, 1311942, 1312484, 1313045, 1313543, 1314140, 1314698, 1315268, 1315904, 1316635]",43,R,ITM,1.1,
6,400,trial,0,65,65,65,trial,"['S', 'S', 'S', 'S', 'S', 'S', 'S', 'S', 'C', 'C', 'C', 'C', 'C', 'C', 'C', 'C', 'C', 'C', 'C', 'C', 'C', 'C', 'C', 'C']","[1322634, 1322951, 1323262, 1323582, 1323976, 1324365, 1324752, 1325159, 1325545, 1325916, 1326345, 1326674, 1327062, 1327434, 1327816, 1328190, 1328591, 1328975, 1329341, 1329724, 1330091, 1330448, 1330835, 1331231]","[1322705, 1323022, 1323328, 1323646, 1324023, 1324417, 1324805, 1325214, 1325588, 1325969, 1326380, 1326721, 1327109, 1327467, 1327860, 1328231, 1328637, 1329020, 1329403, 1329772, 1330139, 1330512, 1330891, 1331259]","[1322404, 1322803, 1323203, 1323603, 1324003, 1324403, 1324804, 1325203, 1325572, 1325943, 1326371, 1326701, 1327089, 1327462, 1327843, 1328217, 1328618, 1329002, 1329368, 1329751, 1330117, 1330475, 1330862, 1331259]",43,R,ITM,1.1,
3,400,trial,0,66,66,66,trial,"['S', 'S', 'S', 'S', 'S', 'S', 'S', 'S', 'C', 'C', 'C', 'C', 'C', 'C', 'C', 'C', 'C', 'C', 'C', 'C', 'C', 'C', 'C', 'C']","[1337299, 1337567, 1337844, 1338208, 1338599, 1338921, 1339346, 1339721, 1340127, 1340487, 1340849, 1341210, 1341621, 1341962, 1342319, 1342701, 1343105, 1343511, 1343895, 1344233, 1344586, 1344996, 1345368, 1345740]","[1337351, 1337643, 1337897, 1338272, 1338644, 1338989, 1339398, 1339787, 1340192, 1340566, 1340921, 1341265, 1341666, 1342014, 1342370, 1342728, 1343130, 1343537, 1343939, 1344291, 1344612, 1345035, 1345421, 1345792]","[1337046, 1337444, 1337844, 1338245, 1338644, 1339044, 1339444, 1339844, 1340152, 1340513, 1340874, 1341236, 1341646, 1341987, 1342345, 1342727, 1343130, 1343537, 1343921, 1344259, 1344612, 1345021, 1345393, 1345766]",43,R,ITM,1.1,
2,400,trial,0,67,67,67,trial,"['S', 'S', 'S', 'S', 'S', 'S', 'S', 'C', 'C', 'C', 'C', 'C', 'C', 'C', 'C', 'C', 'C', 'C', 'C', 'C', 'C', 'C', 'C']","[1351574, 1351949, 1352361, 1352778, 1353114, 1353550, 1353949, 1354344, 1354725, 1355130, 1355518, 1355910, 1356251, 1356686, 1357056, 1357438, 1357828, 1358210, 1358543, 1358940, 1359311, 1359700, 1360043]","[1351615, 1352008, 1352423, 1352833, 1353190, 1353609, 1353995, 1354413, 1354780, 1355190, 1355570, 1355954, 1356328, 1356713, 1357107, 1357483, 1357872, 1358268, 1358611, 1358991, 1359374, 1359752, 1360118]","[1351208, 1351607, 1352008, 1352409, 1352808, 1353208, 1353609, 1354009, 1354372, 1354752, 1355158, 1355545, 1355936, 1356278, 1356713, 1357082, 1357466, 1357854, 1358237, 1358570, 1358966, 1359338, 1359727, 1360069]",43,R,ITM,1.1,
6,400,trial,0,68,68,68,trial,"['S', 'S', 'S', 'S', 'S', 'S', 'S', 'C', 'C', 'C', 'C', 'C', 'C', 'C', 'C', 'C', 'C', 'C', 'C', 'C', 'C', 'C', 'C']","[1365809, 1366245, 1366658, 1367047, 1367440, 1367833, 1368212, 1368623, 1368985, 1369346, 1369746, 1370152, 1370604, 1370974, 1371335, 1371700, 1372109, 1372473, 1372852, 1373246, 1373659, 1374045, 1374418]","[1365861, 1366304, 1366710, 1367117, 1367516, 1367901, 1368280, 1368682, 1369040, 1369413, 1369802, 1370228, 1370659, 1371014, 1371370, 1371748, 1372136, 1372500, 1372896, 1373291, 1373705, 1374088, 1374445]","[1365539, 1365939, 1366339, 1366739, 1367139, 1367539, 1367940, 1368339, 1368650, 1369012, 1369372, 1369774, 1370179, 1370631, 1371001, 1371362, 1371726, 1372136, 1372500, 1372878, 1373273, 1373686, 1374071, 1374445]",43,R,ITM,1.1,
4,400,trial,0,69,69,69,trial,"['S', 'S', 'S', 'S', 'S', 'S', 'S', 'C', 'C', 'C', 'C', 'C', 'C', 'C', 'C', 'C', 'C', 'C', 'C', 'C', 'C', 'C', 'C']","[1380298, 1380637, 1381000, 1381414, 1381789, 1382239, 1382630, 1383007, 1383392, 1383785, 1384143, 1384548, 1384916, 1385323, 1385710, 1386126, 1386449, 1386827, 1387180, 1387591, 1388002, 1388400, 1388785]","[1380362, 1380699, 1381067, 1381467, 1381850, 1382283, 1382670, 1383033, 1383426, 1383811, 1384183, 1384574, 1384964, 1385349, 1385737, 1386151, 1386485, 1386859, 1387230, 1387634, 1388027, 1388431, 1388823]","[1379898, 1380298, 1380699, 1381098, 1381498, 1381898, 1382298, 1382699, 1383032, 1383417, 1383811, 1384170, 1384573, 1384942, 1385349, 1385737, 1386151, 1386476, 1386853, 1387205, 1387617, 1388027, 1388426, 1388811]",43,R,ITM,1.1,
3,600,trial,0,70,70,70,trial,"['S', 'S', 'S', 'S', 'S', 'S', 'S', 'C', 'C', 'C', 'C', 'C', 'C', 'C', 'C', 'C', 'C', 'C', 'C', 'C', 'C', 'C', 'C']","[1394557, 1395258, 1395912, 1396530, 1397117, 1397734, 1398367, 1398986, 1399473, 1400039, 1400645, 1401211, 1401784, 1402374, 1402998, 1403541, 1404083, 1404658, 1405209, 1405790, 1406333, 1406884, 1407394]","[1394613, 1395301, 1395961, 1396558, 1397147, 1397769, 1398402, 1399020, 1399499, 1400077, 1400673, 1401256, 1401836, 1402421, 1403024, 1403585, 1404129, 1404684, 1405239, 1405832, 1406369, 1406919, 1407432]","[1394324, 1394924, 1395524, 1396124, 1396724, 1397324, 1397924, 1398524, 1399012, 1399498, 1400065, 1400671, 1401237, 1401809, 1402399, 1403024, 1403567, 1404108, 1404684, 1405235, 1405815, 1406359, 1406910, 1407420]",43,R,ITM,1.1,
7,600,trial,0,71,71,71,trial,"['S', 'S', 'S', 'S', 'S', 'S', 'S', 'S', 'C', 'C', 'C', 'C', 'C', 'C', 'C', 'C', 'C', 'C', 'C', 'C', 'C', 'C', 'C', 'C']","[1413224, 1413560, 1414227, 1414862, 1415401, 1415997, 1416569, 1417159, 1417764, 1418345, 1418900, 1419458, 1419994, 1420603, 1421130, 1421691, 1422252, 1422783, 1423357, 1423917, 1424402, 1424967, 1425518, 1426050]","[1413280, 1413625, 1414268, 1414895, 1415436, 1416032, 1416610, 1417193, 1417827, 1418377, 1418936, 1419518, 1420041, 1420631, 1421185, 1421722, 1422288, 1422810, 1423384, 1423943, 1424442, 1425007, 1425567, 1426099]","[1413063, 1413662, 1414262, 1414862, 1415462, 1416062, 1416663, 1417263, 1417791, 1418372, 1418928, 1419485, 1420021, 1420631, 1421157, 1421718, 1422278, 1422810, 1423384, 1423943, 1424430, 1424994, 1425545, 1426077]",43,R,ITM,1.1,
4,600,trial,0,72,72,72,trial,"['S', 'S', 'S', 'S', 'S', 'S', 'S', 'S', 'C', 'C', 'C', 'C', 'C', 'C', 'C', 'C', 'C', 'C', 'C', 'C', 'C', 'C', 'C', 'C']","[1431652, 1431946, 1432563, 1433093, 1433674, 1434254, 1434851, 1435452, 1436058, 1436611, 1437144, 1437719, 1438256, 1438818, 1439365, 1439859, 1440310, 1440815, 1441373, 1441927, 1442424, 1442938, 1443490, 1444063]","[1431703, 1432001, 1432599, 1433148, 1433699, 1434295, 1434893, 1435496, 1436099, 1436655, 1437196, 1437778, 1438302, 1438854, 1439390, 1439903, 1440372, 1440868, 1441425, 1441957, 1442458, 1442985, 1443540, 1444117]","[1431416, 1432016, 1432616, 1433217, 1433817, 1434417, 1435016, 1435616, 1436084, 1436637, 1437169, 1437746, 1438281, 1438843, 1439390, 1439885, 1440335, 1440840, 1441398, 1441952, 1442450, 1442964, 1443516, 1444088]",43,R,ITM,1.1,
4,400,trial,0,73,73,73,trial,"['S', 'S', 'S', 'S', 'S', 'S', 'S', 'C', 'C', 'C', 'C', 'C', 'C', 'C', 'C', 'C', 'C', 'C', 'C', 'C', 'C', 'C', 'C']","[1449797, 1450142, 1450612, 1451032, 1451443, 1451832, 1452236, 1452660, 1453054, 1453396, 1453731, 1454095, 1454428, 1454795, 1455164, 1455512, 1455848, 1456198, 1456580, 1456944, 1457291, 1457661, 1457990]","[1449865, 1450210, 1450632, 1451078, 1451463, 1451852, 1452279, 1452698, 1453080, 1453447, 1453774, 1454138, 1454483, 1454821, 1455191, 1455554, 1455874, 1456224, 1456606, 1456997, 1457343, 1457713, 1458073]","[1449580, 1449980, 1450380, 1450780, 1451181, 1451580, 1451980, 1452381, 1452686, 1453080, 1453422, 1453757, 1454120, 1454454, 1454821, 1455191, 1455538, 1455874, 1456224, 1456606, 1456969, 1457316, 1457687, 1458016]",43,R,ITM,1.1,
5,400,trial,0,74,74,74,trial,"['S', 'S', 'S', 'S', 'S', 'S', 'S', 'S', 'C', 'C', 'C', 'C', 'C', 'C', 'C', 'C', 'C', 'C', 'C', 'C', 'C', 'C', 'C', 'C']","[1463885, 1464280, 1464679, 1465060, 1465442, 1465846, 1466240, 1466589, 1467043, 1467389, 1467705, 1468076, 1468388, 1468716, 1469052, 1469391, 1469701, 1470008, 1470336, 1470669, 1471005, 1471355, 1471687, 1472001]","[1463945, 1464345, 1464740, 1465121, 1465509, 1465895, 1466288, 1466660, 1467102, 1467451, 1467778, 1468133, 1468457, 1468786, 1469128, 1469451, 1469757, 1470066, 1470388, 1470726, 1471068, 1471417, 1471734, 1472081]","[1463583, 1463983, 1464382, 1464782, 1465182, 1465582, 1465982, 1466382, 1467069, 1467415, 1467730, 1468101, 1468414, 1468741, 1469078, 1469417, 1469726, 1470033, 1470361, 1470696, 1471031, 1471381, 1471713, 1472027]",43,R,ITM,1.1,
7,400,trial,0,75,75,75,trial,"['S', 'S', 'S', 'S', 'S', 'S', 'S', 'C', 'C', 'C', 'C', 'C', 'C', 'C', 'C', 'C', 'C', 'C', 'C', 'C', 'C', 'C', 'C']","[1477917, 1478290, 1478667, 1479061, 1479460, 1479860, 1480283, 1480708, 1481089, 1481511, 1481901, 1482301, 1482691, 1483102, 1483472, 1483870, 1484271, 1484681, 1485058, 1485436, 1485872, 1486239, 1486661]","[1477983, 1478360, 1478722, 1479108, 1479516, 1479913, 1480333, 1480764, 1481155, 1481568, 1481948, 1482353, 1482737, 1483144, 1483532, 1483922, 1484326, 1484727, 1485114, 1485495, 1485912, 1486303, 1486711]","[1477558, 1477958, 1478359, 1478758, 1479158, 1479559, 1479958, 1480358, 1480734, 1481116, 1481539, 1481928, 1482328, 1482718, 1483128, 1483500, 1483896, 1484299, 1484708, 1485084, 1485463, 1485898, 1486267, 1486688]",43,R,ITM,1.1,
4,600,trial,0,76,76,76,trial,"['S', 'S', 'S', 'S', 'S', 'S', 'S', 'C', 'C', 'C', 'C', 'C', 'C', 'C', 'C', 'C', 'C', 'C', 'C', 'C', 'C', 'C', 'C']","[1492596, 1493323, 1493980, 1494576, 1495154, 1495700, 1496327, 1496958, 1497493, 1498076, 1498642, 1499190, 1499707, 1500248, 1500752, 1501273, 1501789, 1502337, 1502885, 1503392, 1503941, 1504455, 1504943]","[1492665, 1493379, 1494031, 1494637, 1495218, 1495743, 1496367, 1496984, 1497519, 1498104, 1498668, 1499215, 1499732, 1500274, 1500778, 1501305, 1501847, 1502398, 1502944, 1503461, 1503996, 1504508, 1505016]","[1492375, 1492974, 1493574, 1494174, 1494774, 1495374, 1495974, 1496574, 1496984, 1497519, 1498101, 1498668, 1499215, 1499732, 1500274, 1500778, 1501298, 1501814, 1502362, 1502911, 1503418, 1503968, 1504481, 1504968]",43,R,ITM,1.1,
3,400,trial,0,77,77,77,trial,"['S', 'S', 'S', 'S', 'S', 'S', 'S', 'S', 'C', 'C', 'C', 'C', 'C', 'C', 'C', 'C', 'C', 'C', 'C', 'C', 'C', 'C', 'C', 'C']","[1510637, 1510977, 1511284, 1511631, 1512026, 1512406, 1512775, 1513189, 1513539, 1513920, 1514297, 1514659, 1515047, 1515426, 1515794, 1516164, 1516546, 1516911, 1517281, 1517648, 1518031, 1518413, 1518778, 1519135]","[1510688, 1511026, 1511330, 1511689, 1512089, 1512455, 1512837, 1513252, 1513615, 1513967, 1514355, 1514714, 1515095, 1515489, 1515858, 1516219, 1516605, 1516968, 1517356, 1517739, 1518115, 1518490, 1518844, 1519219]","[1510450, 1510848, 1511248, 1511648, 1512048, 1512449, 1512848, 1513248, 1513565, 1513946, 1514322, 1514685, 1515073, 1515452, 1515820, 1516189, 1516571, 1516937, 1517307, 1517674, 1518057, 1518439, 1518803, 1519161]",43,R,ITM,1.1,
3,400,trial,0,78,78,78,trial,"['S', 'S', 'S', 'S', 'S', 'S', 'S', 'S', 'C', 'C', 'C', 'C', 'C', 'C', 'C', 'C', 'C', 'C', 'C', 'C', 'C', 'C', 'C', 'C']","[1524917, 1525295, 1525676, 1526064, 1526402, 1526845, 1527239, 1527653, 1528116, 1528480, 1528837, 1529226, 1529577, 1529942, 1530306, 1530672, 1531055, 1531476, 1531834, 1532188, 1532564, 1532948, 1533312, 1533688]","[1524968, 1525361, 1525743, 1526127, 1526480, 1526920, 1527318, 1527734, 1528198, 1528569, 1528904, 1529285, 1529651, 1530020, 1530380, 1530736, 1531132, 1531547, 1531927, 1532264, 1532641, 1533041, 1533386, 1533792]","[1524621, 1525020, 1525421, 1525820, 1526220, 1526621, 1527021, 1527421, 1528141, 1528506, 1528862, 1529251, 1529603, 1529967, 1530332, 1530697, 1531080, 1531502, 1531859, 1532214, 1532590, 1532974, 1533337, 1533714]",43,R,ITM,1.1,
4,600,trial,0,79,79,79,trial,"['S', 'S', 'S', 'S', 'S', 'S', 'S', 'S', 'C', 'C', 'C', 'C', 'C', 'C', 'C', 'C', 'C', 'C', 'C', 'C', 'C', 'C', 'C', 'C']","[1539516, 1539795, 1540339, 1540924, 1541485, 1542068, 1542641, 1543255, 1543865, 1544496, 1545036, 1545635, 1546167, 1546741, 1547268, 1547858, 1548398, 1548928, 1549470, 1550012, 1550598, 1551137, 1551683, 1552185]","[1539576, 1539858, 1540411, 1541008, 1541560, 1542142, 1542712, 1543322, 1543936, 1544552, 1545094, 1545691, 1546240, 1546804, 1547329, 1547909, 1548466, 1548981, 1549532, 1550058, 1550656, 1551195, 1551734, 1552236]","[1539336, 1539935, 1540535, 1541135, 1541735, 1542335, 1542935, 1543535, 1543890, 1544521, 1545062, 1545661, 1546192, 1546767, 1547293, 1547884, 1548424, 1548953, 1549496, 1550038, 1550624, 1551163, 1551709, 1552210]",43,R,ITM,1.1,
2,600,trial,0,80,80,80,trial,"['S', 'S', 'S', 'S', 'S', 'S', 'S', 'C', 'C', 'C', 'C', 'C', 'C', 'C', 'C', 'C', 'C', 'C', 'C', 'C', 'C', 'C', 'C']","[1558011, 1558650, 1559258, 1559843, 1560456, 1561057, 1561679, 1562298, 1562849, 1563331, 1563896, 1564445, 1564941, 1565420, 1565981, 1566565, 1567201, 1567819, 1568404, 1569003, 1569547, 1570110, 1570703]","[1558092, 1558714, 1559290, 1559898, 1560501, 1561124, 1561743, 1562361, 1562913, 1563378, 1563936, 1564496, 1564999, 1565490, 1566027, 1566616, 1567228, 1567870, 1568452, 1569030, 1569595, 1570162, 1570731]","[1557686, 1558286, 1558886, 1559485, 1560085, 1560686, 1561286, 1561885, 1562326, 1562875, 1563359, 1563924, 1564473, 1564967, 1565448, 1566008, 1566593, 1567228, 1567847, 1568431, 1569030, 1569574, 1570138, 1570731]",43,R,ITM,1.1,
4,600,trial,0,81,81,81,trial,"['S', 'S', 'S', 'S', 'S', 'S', 'S', 'S', 'C', 'C', 'C', 'C', 'C', 'C', 'C', 'C', 'C', 'C', 'C', 'C', 'C', 'C', 'C', 'C']","[1576365, 1576668, 1577265, 1577875, 1578436, 1579024, 1579632, 1580231, 1580837, 1581453, 1582019, 1582550, 1583099, 1583685, 1584220, 1584791, 1585337, 1585906, 1586470, 1587057, 1587623, 1588143, 1588699, 1589262]","[1576445, 1576733, 1577332, 1577916, 1578493, 1579070, 1579692, 1580296, 1580913, 1581507, 1582081, 1582626, 1583164, 1583735, 1584272, 1584840, 1585390, 1585932, 1586523, 1587100, 1587666, 1588189, 1588757, 1589329]","[1576161, 1576760, 1577360, 1577960, 1578560, 1579160, 1579760, 1580360, 1580864, 1581478, 1582046, 1582575, 1583125, 1583711, 1584245, 1584817, 1585362, 1585932, 1586496, 1587083, 1587649, 1588168, 1588725, 1589287]",43,R,ITM,1.1,
2,400,trial,0,82,82,82,trial,"['B', 'S', 'S', 'S', 'S', 'S', 'S', 'S', 'C', 'C', 'C', 'C', 'C', 'C', 'C', 'C', 'C', 'C', 'C', 'C', 'C', 'C', 'C', 'C']","[1595030, 1595515, 1595878, 1596226, 1596624, 1597005, 1597407, 1597816, 1598225, 1598620, 1599003, 1599405, 1599795, 1600190, 1600602, 1600989, 1601416, 1601792, 1602184, 1602584, 1602995, 1603377, 1603747, 1604162]","[1595051, 1595575, 1595958, 1596294, 1596691, 1597083, 1597473, 1597882, 1598301, 1598696, 1599072, 1599460, 1599863, 1600266, 1600659, 1601059, 1601478, 1601861, 1602266, 1602663, 1603090, 1603458, 1603822, 1604225]","[1595043, 1595443, 1595844, 1596243, 1596644, 1597044, 1597445, 1597844, 1598253, 1598648, 1599031, 1599431, 1599822, 1600217, 1600628, 1601016, 1601442, 1601818, 1602211, 1602612, 1603022, 1603404, 1603775, 1604189]",43,R,ITM,1.1,
5,400,trial,0,83,83,83,trial,"['S', 'S', 'S', 'S', 'S', 'S', 'S', 'C', 'C', 'C', 'C', 'C', 'C', 'C', 'C', 'C', 'C', 'C', 'C', 'C', 'C', 'C', 'C']","[1609869, 1610304, 1610686, 1611102, 1611482, 1611897, 1612297, 1612704, 1613105, 1613470, 1613839, 1614241, 1614623, 1614971, 1615344, 1615717, 1616104, 1616433, 1616847, 1617203, 1617554, 1617935, 1618306]","[1609942, 1610375, 1610764, 1611180, 1611563, 1611970, 1612376, 1612775, 1613174, 1613544, 1613915, 1614305, 1614685, 1615053, 1615419, 1615793, 1616181, 1616514, 1616920, 1617278, 1617627, 1618007, 1618386]","[1609602, 1610001, 1610401, 1610802, 1611202, 1611602, 1612002, 1612402, 1612731, 1613130, 1613496, 1613864, 1614267, 1614649, 1614998, 1615370, 1615742, 1616130, 1616459, 1616873, 1617228, 1617580, 1617961, 1618331]",43,R,ITM,1.1,
5,600,trial,0,84,84,84,trial,"['S', 'S', 'S', 'S', 'S', 'S', 'S', 'S', 'C', 'C', 'C', 'C', 'C', 'C', 'C', 'C', 'C', 'C', 'C', 'C', 'C', 'C', 'C', 'C']","[1623947, 1624216, 1624793, 1625444, 1626070, 1626635, 1627247, 1627853, 1628461, 1628989, 1629526, 1630091, 1630653, 1631177, 1631741, 1632265, 1632793, 1633368, 1633905, 1634490, 1635013, 1635566, 1636104, 1636639]","[1624017, 1624293, 1624894, 1625511, 1626130, 1626687, 1627305, 1627914, 1628529, 1629052, 1629603, 1630142, 1630703, 1631241, 1631801, 1632330, 1632820, 1633393, 1633972, 1634543, 1635063, 1635610, 1636148, 1636674]","[1623756, 1624355, 1624955, 1625555, 1626156, 1626756, 1627356, 1627955, 1628486, 1629015, 1629552, 1630116, 1630680, 1631203, 1631767, 1632290, 1632820, 1633393, 1633931, 1634515, 1635039, 1635592, 1636129, 1636666]",43,R,ITM,1.1,
6,400,trial,0,85,85,85,trial,"['S', 'S', 'S', 'S', 'S', 'S', 'S', 'C', 'C', 'C', 'C', 'C', 'C', 'C', 'C', 'C', 'C', 'C', 'C', 'C', 'C', 'C', 'C']","[1642357, 1642764, 1643155, 1643588, 1643992, 1644406, 1644783, 1645170, 1645552, 1645939, 1646323, 1646716, 1647100, 1647490, 1647880, 1648270, 1648661, 1649062, 1649431, 1649874, 1650232, 1650626, 1651009]","[1642425, 1642830, 1643212, 1643636, 1644047, 1644449, 1644803, 1645210, 1645582, 1645986, 1646376, 1646759, 1647151, 1647534, 1647926, 1648329, 1648715, 1649129, 1649523, 1649939, 1650291, 1650668, 1651037]","[1642047, 1642447, 1642847, 1643247, 1643648, 1644047, 1644447, 1644848, 1645197, 1645580, 1645966, 1646351, 1646744, 1647127, 1647516, 1647906, 1648296, 1648688, 1649089, 1649459, 1649901, 1650259, 1650653, 1651037]",43,R,ITM,1.1,
3,400,trial,0,86,86,86,trial,"['S', 'S', 'S', 'S', 'S', 'S', 'S', 'C', 'C', 'C', 'C', 'C', 'C', 'C', 'C', 'C', 'C', 'C', 'C', 'C', 'C', 'C', 'C']","[1657006, 1657405, 1657809, 1658236, 1658611, 1658997, 1659444, 1659845, 1660208, 1660595, 1660979, 1661388, 1661761, 1662146, 1662529, 1662930, 1663319, 1663711, 1664090, 1664474, 1664881, 1665308, 1665652]","[1657064, 1657469, 1657879, 1658294, 1658671, 1659048, 1659490, 1659883, 1660255, 1660640, 1661019, 1661427, 1661801, 1662192, 1662571, 1662968, 1663363, 1663741, 1664131, 1664521, 1664920, 1665334, 1665709]","[1656690, 1657091, 1657490, 1657890, 1658290, 1658690, 1659090, 1659490, 1659871, 1660234, 1660620, 1661004, 1661415, 1661787, 1662172, 1662555, 1662956, 1663344, 1663736, 1664115, 1664499, 1664907, 1665334, 1665678]",43,R,ITM,1.1,
6,600,trial,0,87,87,87,trial,"['S', 'S', 'S', 'S', 'S', 'S', 'S', 'S', 'C', 'C', 'C', 'C', 'C', 'C', 'C', 'C', 'C', 'C', 'C', 'C', 'C', 'C', 'C', 'C']","[1671324, 1671634, 1672326, 1672966, 1673587, 1674167, 1674717, 1675326, 1675911, 1676503, 1677106, 1677637, 1678203, 1678813, 1679361, 1679950, 1680477, 1681074, 1681626, 1682178, 1682761, 1683330, 1683880, 1684439]","[1671362, 1671704, 1672385, 1673015, 1673629, 1674214, 1674778, 1675380, 1675968, 1676549, 1677155, 1677684, 1678260, 1678868, 1679416, 1679995, 1680534, 1681117, 1681669, 1682240, 1682814, 1683357, 1683907, 1684482]","[1671179, 1671778, 1672378, 1672978, 1673578, 1674178, 1674778, 1675378, 1675937, 1676529, 1677132, 1677664, 1678230, 1678839, 1679387, 1679978, 1680503, 1681100, 1681652, 1682204, 1682789, 1683356, 1683907, 1684465]",43,R,ITM,1.1,
6,600,trial,0,88,88,88,trial,"['S', 'S', 'S', 'S', 'S', 'S', 'S', 'C', 'C', 'C', 'C', 'C', 'C', 'C', 'C', 'C', 'C', 'C', 'C', 'C', 'C', 'C', 'C']","[1690565, 1691162, 1691753, 1692331, 1692940, 1693523, 1694177, 1694728, 1695287, 1695865, 1696480, 1697048, 1697624, 1698191, 1698754, 1699322, 1699899, 1700494, 1701059, 1701596, 1702170, 1702769, 1703269]","[1690622, 1691226, 1691806, 1692393, 1692978, 1693580, 1694211, 1694784, 1695339, 1695928, 1696528, 1697082, 1697650, 1698227, 1698806, 1699374, 1699927, 1700529, 1701086, 1701622, 1702197, 1702796, 1703328]","[1690068, 1690668, 1691268, 1691868, 1692467, 1693067, 1693667, 1694267, 1694754, 1695314, 1695893, 1696506, 1697076, 1697650, 1698219, 1698781, 1699349, 1699926, 1700520, 1701086, 1701622, 1702197, 1702796, 1703296]",43,R,ITM,1.1,
5,600,trial,0,89,89,89,trial,"['S', 'S', 'S', 'S', 'S', 'S', 'S', 'S', 'C', 'C', 'C', 'C', 'C', 'C', 'C', 'C', 'C', 'C', 'C', 'C', 'C', 'C', 'C', 'C']","[1708785, 1709144, 1709788, 1710404, 1711022, 1711609, 1712220, 1712794, 1713389, 1713970, 1714535, 1715131, 1715696, 1716257, 1716836, 1717420, 1717990, 1718541, 1719103, 1719690, 1720246, 1720813, 1721372, 1721917]","[1708838, 1709200, 1709845, 1710458, 1711074, 1711653, 1712281, 1712868, 1713439, 1714042, 1714614, 1715181, 1715746, 1716324, 1716899, 1717471, 1718053, 1718620, 1719153, 1719746, 1720328, 1720889, 1721438, 1721993]","[1708631, 1709231, 1709831, 1710431, 1711031, 1711631, 1712231, 1712831, 1713415, 1713995, 1714561, 1715156, 1715723, 1716283, 1716862, 1717445, 1718016, 1718566, 1719129, 1719715, 1720272, 1720839, 1721399, 1721943]",43,R,ITM,1.1,
7,600,trial,0,90,90,90,trial,"['S', 'S', 'S', 'S', 'S', 'S', 'S', 'S', 'C', 'C', 'C', 'C', 'C', 'C', 'C', 'C', 'C', 'C', 'C', 'C', 'C', 'C', 'C', 'C']","[1727667, 1728204, 1728676, 1729244, 1729807, 1730366, 1730896, 1731505, 1732139, 1732716, 1733297, 1733864, 1734456, 1735033, 1735626, 1736224, 1736830, 1737442, 1738032, 1738645, 1739207, 1739788, 1740329, 1740950]","[1727726, 1728265, 1728755, 1729320, 1729886, 1730435, 1730979, 1731572, 1732194, 1732775, 1733362, 1733952, 1734516, 1735098, 1735693, 1736252, 1736857, 1737468, 1738096, 1738701, 1739271, 1739828, 1740385, 1740978]","[1727473, 1728072, 1728672, 1729272, 1729872, 1730472, 1731073, 1731673, 1732165, 1732743, 1733323, 1733891, 1734482, 1735061, 1735653, 1736252, 1736857, 1737468, 1738058, 1738672, 1739235, 1739814, 1740356, 1740978]",43,R,ITM,1.1,
6,400,trial,0,91,91,91,trial,"['S', 'S', 'S', 'S', 'S', 'S', 'S', 'S', 'C', 'C', 'C', 'C', 'C', 'C', 'C', 'C', 'C', 'C', 'C', 'C', 'C', 'C', 'C', 'C']","[1746880, 1747233, 1747513, 1747906, 1748271, 1748639, 1749050, 1749435, 1749796, 1750214, 1750562, 1750965, 1751359, 1751726, 1752120, 1752502, 1752911, 1753279, 1753692, 1754087, 1754489, 1754848, 1755226, 1755603]","[1746945, 1747313, 1747588, 1747951, 1748328, 1748702, 1749107, 1749494, 1749868, 1750281, 1750648, 1751045, 1751410, 1751790, 1752177, 1752553, 1752963, 1753336, 1753765, 1754163, 1754557, 1754921, 1755305, 1755683]","[1746681, 1747080, 1747480, 1747880, 1748280, 1748680, 1749081, 1749480, 1749823, 1750242, 1750589, 1750991, 1751387, 1751753, 1752146, 1752528, 1752939, 1753306, 1753718, 1754114, 1754516, 1754874, 1755252, 1755631]",43,R,ITM,1.1,
4,400,trial,0,92,92,92,trial,"['S', 'S', 'S', 'S', 'S', 'S', 'S', 'S', 'C', 'C', 'C', 'C', 'C', 'C', 'C', 'C', 'C', 'C', 'C', 'C', 'C', 'C', 'C', 'C']","[1761206, 1761624, 1761981, 1762376, 1762764, 1763152, 1763512, 1763912, 1764344, 1764724, 1765122, 1765515, 1765906, 1766281, 1766695, 1767047, 1767458, 1767778, 1768161, 1768522, 1768890, 1769286, 1769633, 1770035]","[1761297, 1761703, 1762063, 1762465, 1762865, 1763240, 1763603, 1763984, 1764410, 1764822, 1765207, 1765612, 1766002, 1766392, 1766769, 1767128, 1767513, 1767867, 1768220, 1768548, 1768946, 1769312, 1769659, 1770080]","[1761199, 1761597, 1761997, 1762397, 1762797, 1763197, 1763597, 1763997, 1764370, 1764750, 1765147, 1765540, 1765932, 1766306, 1766722, 1767072, 1767484, 1767803, 1768186, 1768548, 1768915, 1769312, 1769659, 1770060]",43,R,ITM,1.1,
7,400,trial,0,93,93,93,trial,"['S', 'S', 'S', 'S', 'S', 'S', 'S', 'C', 'C', 'C', 'C', 'C', 'C', 'C', 'C', 'C', 'C', 'C', 'C', 'C', 'C', 'C', 'C']","[1775591, 1776073, 1776490, 1776883, 1777274, 1777664, 1778084, 1778454, 1778854, 1779229, 1779579, 1779968, 1780320, 1780733, 1781115, 1781502, 1781884, 1782251, 1782645, 1783048, 1783458, 1783868, 1784226]","[1775670, 1776130, 1776547, 1776931, 1777315, 1777708, 1778128, 1778511, 1778903, 1779288, 1779629, 1780017, 1780385, 1780786, 1781161, 1781547, 1781942, 1782316, 1782697, 1783095, 1783515, 1783897, 1784312]","[1775398, 1775797, 1776197, 1776598, 1776997, 1777397, 1777798, 1778197, 1778482, 1778881, 1779256, 1779606, 1779995, 1780347, 1780761, 1781142, 1781530, 1781911, 1782278, 1782673, 1783074, 1783485, 1783896, 1784253]",43,R,ITM,1.1,
2,600,trial,0,94,94,94,trial,"['S', 'S', 'S', 'S', 'S', 'S', 'S', 'C', 'C', 'C', 'C', 'C', 'C', 'C', 'C', 'C', 'C', 'C', 'C', 'C', 'C', 'C', 'C']","[1790094, 1790766, 1791434, 1792097, 1792679, 1793324, 1793948, 1794553, 1795140, 1795712, 1796279, 1796864, 1797440, 1798031, 1798609, 1799212, 1799778, 1800378, 1800966, 1801569, 1802177, 1802729, 1803291]","[1790147, 1790821, 1791483, 1792131, 1792703, 1793362, 1793968, 1794583, 1795185, 1795761, 1796328, 1796911, 1797480, 1798071, 1798661, 1799265, 1799834, 1800417, 1801004, 1801609, 1802213, 1802765, 1803333]","[1789806, 1790406, 1791006, 1791605, 1792206, 1792806, 1793406, 1794007, 1794581, 1795167, 1795739, 1796305, 1796890, 1797468, 1798059, 1798637, 1799238, 1799804, 1800404, 1800992, 1801596, 1802205, 1802757, 1803318]",43,R,ITM,1.1,
3,600,trial,0,95,95,95,trial,"['S', 'S', 'S', 'S', 'S', 'S', 'S', 'C', 'C', 'C', 'C', 'C', 'C', 'C', 'C', 'C', 'C', 'C', 'C', 'C', 'C', 'C', 'C']","[1809387, 1810031, 1810592, 1811198, 1811769, 1812392, 1812947, 1813584, 1814152, 1814692, 1815260, 1815806, 1816399, 1816972, 1817534, 1818060, 1818629, 1819190, 1819714, 1820241, 1820821, 1821331, 1821828]","[1809442, 1810093, 1810647, 1811268, 1811823, 1812443, 1813013, 1813642, 1814217, 1814766, 1815310, 1815856, 1816443, 1817022, 1817585, 1818130, 1818673, 1819236, 1819741, 1820281, 1820852, 1821370, 1821853]","[1808994, 1809593, 1810193, 1810793, 1811393, 1811993, 1812593, 1813193, 1813610, 1814177, 1814718, 1815285, 1815831, 1816425, 1816997, 1817560, 1818086, 1818655, 1819215, 1819740, 1820267, 1820847, 1821357, 1821853]",43,R,ITM,1.1,
7,400,trial,0,96,96,96,trial,"['S', 'S', 'S', 'S', 'S', 'S', 'S', 'C', 'C', 'C', 'C', 'C', 'C', 'C', 'C', 'C', 'C', 'C', 'C', 'C', 'C', 'C', 'C']","[1827467, 1827889, 1828284, 1828695, 1829108, 1829496, 1829936, 1830371, 1830758, 1831150, 1831498, 1831926, 1832299, 1832707, 1833069, 1833473, 1833892, 1834296, 1834722, 1835123, 1835536, 1835966, 1836339]","[1827538, 1827941, 1828346, 1828765, 1829186, 1829572, 1829995, 1830438, 1830829, 1831225, 1831570, 1831984, 1832371, 1832782, 1833141, 1833520, 1833944, 1834353, 1834763, 1835169, 1835591, 1836014, 1836402]","[1827196, 1827595, 1827995, 1828396, 1828795, 1829195, 1829596, 1829995, 1830397, 1830785, 1831177, 1831525, 1831954, 1832326, 1832733, 1833097, 1833499, 1833919, 1834322, 1834748, 1835151, 1835563, 1835994, 1836365]",43,R,ITM,1.1,
7,600,trial,0,97,97,97,trial,"['S', 'S', 'S', 'S', 'S', 'S', 'S', 'C', 'C', 'C', 'C', 'C', 'C', 'C', 'C', 'C', 'C', 'C', 'C', 'C', 'C', 'C', 'C']","[1842224, 1842957, 1843700, 1844225, 1844828, 1845439, 1846019, 1846634, 1847159, 1847687, 1848289, 1848840, 1849376, 1849933, 1850464, 1850970, 1851529, 1852103, 1852624, 1853125, 1853673, 1854209, 1854711]","[1842289, 1843013, 1843764, 1844294, 1844902, 1845512, 1846089, 1846680, 1847207, 1847734, 1848339, 1848898, 1849433, 1849985, 1850507, 1851009, 1851555, 1852131, 1852651, 1853153, 1853720, 1854258, 1854774]","[1841965, 1842565, 1843165, 1843764, 1844364, 1844964, 1845564, 1846164, 1846662, 1847187, 1847714, 1848316, 1848867, 1849403, 1849960, 1850490, 1850996, 1851555, 1852131, 1852651, 1853153, 1853700, 1854236, 1854738]",43,R,ITM,1.1,
3,600,trial,0,98,98,98,trial,"['S', 'S', 'S', 'S', 'S', 'S', 'S', 'C', 'C', 'C', 'C', 'C', 'C', 'C', 'C', 'C', 'C', 'C', 'C', 'C', 'C', 'C', 'C']","[1860690, 1861304, 1861950, 1862517, 1863107, 1863726, 1864299, 1864939, 1865501, 1865966, 1866526, 1867040, 1867539, 1868070, 1868529, 1869026, 1869566, 1870038, 1870544, 1871090, 1871580, 1872080, 1872608]","[1860755, 1861364, 1862010, 1862583, 1863174, 1863784, 1864348, 1864990, 1865528, 1866024, 1866572, 1867102, 1867597, 1868114, 1868583, 1869078, 1869615, 1870105, 1870599, 1871116, 1871605, 1872126, 1872654]","[1860345, 1860945, 1861545, 1862146, 1862746, 1863346, 1863946, 1864546, 1864965, 1865527, 1865992, 1866552, 1867066, 1867565, 1868096, 1868555, 1869051, 1869591, 1870063, 1870570, 1871116, 1871605, 1872106, 1872633]",43,R,ITM,1.1,
4,400,trial,0,99,99,99,trial,"['S', 'S', 'S', 'S', 'S', 'S', 'S', 'S', 'C', 'C', 'C', 'C', 'C', 'C', 'C', 'C', 'C', 'C', 'C', 'C', 'C', 'C', 'C', 'C']","[1878138, 1878492, 1878803, 1879136, 1879545, 1879937, 1880313, 1880697, 1881097, 1881503, 1881874, 1882280, 1882657, 1883066, 1883451, 1883853, 1884230, 1884578, 1884985, 1885364, 1885761, 1886109, 1886496, 1886842]","[1878227, 1878566, 1878861, 1879193, 1879611, 1880002, 1880392, 1880770, 1881171, 1881577, 1881950, 1882326, 1882707, 1883118, 1883516, 1883912, 1884292, 1884667, 1885047, 1885428, 1885789, 1886159, 1886550, 1886896]","[1877933, 1878332, 1878732, 1879133, 1879533, 1879933, 1880333, 1880733, 1881122, 1881529, 1881901, 1882306, 1882683, 1883091, 1883476, 1883880, 1884256, 1884604, 1885010, 1885389, 1885788, 1886135, 1886522, 1886868]",43,R,ITM,1.1,
5,400,trial,0,100,100,100,trial,"['S', 'S', 'S', 'S', 'S', 'S', 'S', 'S', 'C', 'C', 'C', 'C', 'C', 'C', 'C', 'C', 'C', 'C', 'C', 'C', 'C', 'C', 'C', 'C']","[1892425, 1892680, 1893033, 1893396, 1893789, 1894162, 1894566, 1894974, 1895366, 1895799, 1896175, 1896538, 1896906, 1897297, 1897697, 1898048, 1898443, 1898787, 1899151, 1899557, 1899953, 1900316, 1900710, 1901064]","[1892494, 1892752, 1893101, 1893459, 1893866, 1894234, 1894633, 1895033, 1895429, 1895847, 1896245, 1896620, 1896980, 1897370, 1897747, 1898116, 1898501, 1898853, 1899215, 1899620, 1900016, 1900366, 1900765, 1901127]","[1892233, 1892633, 1893033, 1893433, 1893833, 1894234, 1894633, 1895033, 1895392, 1895826, 1896201, 1896563, 1896933, 1897323, 1897722, 1898074, 1898470, 1898814, 1899176, 1899583, 1899979, 1900343, 1900737, 1901089]",43,R,ITM,1.1,
2,400,trial,0,101,101,101,trial,"['S', 'S', 'S', 'S', 'S', 'S', 'S', 'C', 'C', 'C', 'C', 'C', 'C', 'C', 'C', 'C', 'C', 'C', 'C', 'C', 'C', 'C', 'C']","[1906965, 1907359, 1907745, 1908136, 1908556, 1908947, 1909382, 1909721, 1910124, 1910530, 1910917, 1911233, 1911598, 1911996, 1912400, 1912756, 1913163, 1913556, 1913924, 1914338, 1914723, 1915117, 1915496]","[1907033, 1907431, 1907808, 1908193, 1908626, 1909022, 1909465, 1909780, 1910198, 1910593, 1910989, 1911301, 1911678, 1912044, 1912439, 1912822, 1913232, 1913631, 1913997, 1914392, 1914783, 1915181, 1915552]","[1906649, 1907048, 1907448, 1907849, 1908249, 1908649, 1909049, 1909449, 1909747, 1910151, 1910557, 1910944, 1911260, 1911624, 1912023, 1912427, 1912782, 1913191, 1913584, 1913952, 1914364, 1914750, 1915145, 1915523]",43,R,ITM,1.1,
6,600,trial,0,102,102,102,trial,"['S', 'S', 'S', 'S', 'S', 'S', 'S', 'S', 'C', 'C', 'C', 'C', 'C', 'C', 'C', 'C', 'C', 'C', 'C', 'C', 'C', 'C', 'C', 'C']","[1921082, 1921333, 1921923, 1922562, 1923158, 1923743, 1924317, 1924936, 1925513, 1926052, 1926626, 1927148, 1927716, 1928246, 1928743, 1929288, 1929797, 1930342, 1930872, 1931430, 1931919, 1932445, 1932967, 1933503]","[1921128, 1921393, 1921969, 1922622, 1923198, 1923786, 1924357, 1924956, 1925552, 1926093, 1926656, 1927199, 1927762, 1928291, 1928797, 1929349, 1929872, 1930390, 1930912, 1931461, 1931947, 1932481, 1933007, 1933531]","[1920875, 1921474, 1922074, 1922674, 1923274, 1923874, 1924474, 1925074, 1925539, 1926079, 1926652, 1927175, 1927743, 1928272, 1928770, 1929315, 1929824, 1930370, 1930899, 1931458, 1931947, 1932473, 1932994, 1933531]",43,R,ITM,1.1,
7,400,trial,0,103,103,103,trial,"['S', 'S', 'S', 'S', 'S', 'S', 'S', 'C', 'C', 'C', 'C', 'C', 'C', 'C', 'C', 'C', 'C', 'C', 'C', 'C', 'C', 'C', 'C']","[1939651, 1939951, 1940305, 1940665, 1941041, 1941445, 1941830, 1942274, 1942674, 1943036, 1943445, 1943834, 1944227, 1944613, 1944997, 1945412, 1945799, 1946157, 1946553, 1946951, 1947309, 1947691, 1948073]","[1939710, 1940015, 1940370, 1940777, 1941128, 1941504, 1941891, 1942330, 1942725, 1943088, 1943490, 1943909, 1944297, 1944665, 1945051, 1945480, 1945846, 1946201, 1946596, 1947012, 1947385, 1947751, 1948121]","[1939127, 1939526, 1939927, 1940326, 1940726, 1941127, 1941526, 1941926, 1942300, 1942702, 1943063, 1943472, 1943861, 1944254, 1944640, 1945024, 1945440, 1945826, 1946184, 1946580, 1946979, 1947335, 1947718, 1948101]",43,R,ITM,1.1,
2,600,trial,0,104,104,104,trial,"['S', 'S', 'S', 'S', 'S', 'S', 'S', 'C', 'C', 'C', 'C', 'C', 'C', 'C', 'C', 'C', 'C', 'C', 'C', 'C', 'C', 'C', 'C']","[1953923, 1954544, 1955177, 1955777, 1956353, 1956967, 1957584, 1958208, 1958759, 1959293, 1959888, 1960435, 1960985, 1961496, 1962094, 1962651, 1963189, 1963712, 1964251, 1964755, 1965246, 1965752, 1966257]","[1953975, 1954633, 1955263, 1955849, 1956433, 1957014, 1957632, 1958246, 1958812, 1959373, 1959916, 1960505, 1961012, 1961551, 1962122, 1962679, 1963215, 1963739, 1964277, 1964783, 1965290, 1965779, 1966300]","[1953533, 1954134, 1954734, 1955334, 1955933, 1956533, 1957133, 1957733, 1958236, 1958786, 1959320, 1959916, 1960463, 1961012, 1961523, 1962122, 1962679, 1963215, 1963739, 1964277, 1964783, 1965274, 1965779, 1966283]",43,R,ITM,1.1,
5,400,trial,0,105,105,105,trial,"['S', 'S', 'S', 'S', 'S', 'S', 'S', 'S', 'C', 'C', 'C', 'C', 'C', 'C', 'C', 'C', 'C', 'C', 'C', 'C', 'C', 'C', 'C', 'C']","[1972038, 1972325, 1972658, 1973022, 1973417, 1973812, 1974242, 1974618, 1975024, 1975405, 1975792, 1976139, 1976530, 1976933, 1977335, 1977692, 1978055, 1978450, 1978846, 1979253, 1979626, 1980030, 1980443, 1980867]","[1972058, 1972364, 1972711, 1973069, 1973465, 1973862, 1974291, 1974658, 1975070, 1975468, 1975839, 1976206, 1976604, 1977000, 1977398, 1977765, 1978136, 1978524, 1978921, 1979315, 1979697, 1980107, 1980539, 1980929]","[1971830, 1972231, 1972631, 1973031, 1973431, 1973831, 1974232, 1974631, 1975050, 1975431, 1975818, 1976165, 1976557, 1976958, 1977361, 1977717, 1978082, 1978477, 1978871, 1979279, 1979652, 1980056, 1980469, 1980893]",43,R,ITM,1.1,
5,400,trial,0,106,106,106,trial,"['S', 'S', 'S', 'S', 'S', 'C', 'C', 'C', 'C', 'C', 'C', 'C', 'C', 'C', 'C', 'C', 'C', 'C', 'C', 'C', 'C']","[1987357, 1987751, 1988148, 1988525, 1988944, 1989376, 1989750, 1990150, 1990525, 1990917, 1991290, 1991681, 1992093, 1992469, 1992833, 1993270, 1993638, 1994017, 1994379, 1994789, 1995168]","[1987408, 1987821, 1988212, 1988597, 1989009, 1989439, 1989799, 1990201, 1990581, 1990987, 1991358, 1991734, 1992159, 1992524, 1992900, 1993298, 1993701, 1994079, 1994456, 1994843, 1995234]","[1986271, 1986670, 1987070, 1987470, 1987870, 1988271, 1988670, 1989070, 1989401, 1989776, 1990175, 1990552, 1990943, 1991316, 1991706, 1992119, 1992495, 1992859, 1993295, 1993664, 1994043, 1994405, 1994815, 1995194]",43,R,ITM,1.1,
4,400,trial,0,107,107,107,trial,"['S', 'S', 'S', 'S', 'S', 'S', 'S', 'S', 'C', 'C', 'C', 'C', 'C', 'C', 'C', 'C', 'C', 'C', 'C', 'C', 'C', 'C', 'C', 'C']","[2000974, 2001250, 2001598, 2001948, 2002385, 2002748, 2003153, 2003568, 2003974, 2004371, 2004767, 2005104, 2005504, 2005864, 2006195, 2006580, 2006991, 2007366, 2007752, 2008141, 2008541, 2008903, 2009284, 2009635]","[2001046, 2001330, 2001665, 2002036, 2002458, 2002825, 2003224, 2003631, 2004044, 2004432, 2004812, 2005180, 2005554, 2005927, 2006268, 2006641, 2007045, 2007429, 2007822, 2008194, 2008598, 2008973, 2009358, 2009702]","[2000825, 2001224, 2001625, 2002024, 2002424, 2002824, 2003224, 2003624, 2003999, 2004397, 2004793, 2005130, 2005529, 2005890, 2006221, 2006605, 2007017, 2007392, 2007778, 2008167, 2008566, 2008929, 2009311, 2009661]",43,R,ITM,1.1,
4,600,trial,0,108,108,108,trial,"['S', 'S', 'S', 'S', 'S', 'S', 'S', 'C', 'C', 'C', 'C', 'C', 'C', 'C', 'C', 'C', 'C', 'C', 'C', 'C', 'C', 'C', 'C']","[2015566, 2016244, 2016917, 2017497, 2018023, 2018630, 2019254, 2019860, 2020353, 2020914, 2021483, 2022040, 2022626, 2023217, 2023823, 2024413, 2024979, 2025530, 2026098, 2026668, 2027243, 2027840, 2028402]","[2015635, 2016317, 2016992, 2017561, 2018093, 2018688, 2019320, 2019914, 2020415, 2020969, 2021545, 2022098, 2022662, 2023271, 2023862, 2024458, 2025035, 2025586, 2026166, 2026731, 2027300, 2027892, 2028469]","[2015250, 2015850, 2016450, 2017050, 2017650, 2018250, 2018850, 2019450, 2019886, 2020378, 2020939, 2021509, 2022066, 2022651, 2023242, 2023848, 2024438, 2025005, 2025556, 2026124, 2026693, 2027269, 2027866, 2028428]",43,R,ITM,1.1,
4,600,trial,0,109,109,109,trial,"['S', 'S', 'S', 'S', 'S', 'S', 'S', 'C', 'C', 'C', 'C', 'C', 'C', 'C', 'C', 'C', 'C', 'C', 'C', 'C', 'C', 'C', 'C']","[2034487, 2035146, 2035773, 2036387, 2037067, 2037618, 2038272, 2038887, 2039487, 2040034, 2040580, 2041156, 2041683, 2042248, 2042828, 2043376, 2043958, 2044517, 2045087, 2045680, 2046272, 2046852, 2047424]","[2034536, 2035223, 2035840, 2036457, 2037090, 2037678, 2038334, 2038953, 2039540, 2040099, 2040648, 2041231, 2041751, 2042339, 2042894, 2043449, 2044015, 2044588, 2045167, 2045749, 2046346, 2046909, 2047495]","[2034216, 2034816, 2035416, 2036016, 2036615, 2037215, 2037815, 2038415, 2038913, 2039513, 2040059, 2040605, 2041183, 2041709, 2042274, 2042854, 2043402, 2043984, 2044542, 2045113, 2045706, 2046298, 2046877, 2047450]",43,R,ITM,1.1,
6,400,trial,0,110,110,110,trial,"['S', 'S', 'S', 'S', 'S', 'S', 'S', 'S', 'C', 'C', 'C', 'C', 'C', 'C', 'C', 'C', 'C', 'C', 'C', 'C', 'C', 'C', 'C', 'C']","[2053204, 2053450, 2053771, 2054137, 2054549, 2054933, 2055342, 2055723, 2056129, 2056504, 2056860, 2057253, 2057620, 2057964, 2058320, 2058703, 2059097, 2059428, 2059789, 2060161, 2060610, 2060967, 2061318, 2061651]","[2053260, 2053518, 2053844, 2054226, 2054658, 2055045, 2055426, 2055810, 2056224, 2056586, 2056938, 2057318, 2057699, 2058029, 2058386, 2058755, 2059143, 2059491, 2059815, 2060225, 2060663, 2061039, 2061374, 2061734]","[2052986, 2053385, 2053785, 2054185, 2054585, 2054985, 2055386, 2055785, 2056156, 2056530, 2056887, 2057280, 2057647, 2057991, 2058347, 2058730, 2059123, 2059455, 2059815, 2060188, 2060637, 2060994, 2061344, 2061678]",43,R,ITM,1.1,
7,600,trial,0,111,111,111,trial,"['S', 'S', 'S', 'S', 'S', 'S', 'S', 'C', 'C', 'C', 'C', 'C', 'C', 'C', 'C', 'C', 'C', 'C', 'C', 'C', 'C', 'C', 'C']","[2067779, 2068411, 2069083, 2069675, 2070275, 2070885, 2071492, 2072098, 2072708, 2073282, 2073834, 2074373, 2074945, 2075480, 2075971, 2076564, 2077116, 2077661, 2078151, 2078702, 2079225, 2079750, 2080281]","[2067838, 2068465, 2069123, 2069725, 2070341, 2070940, 2071559, 2072164, 2072764, 2073309, 2073883, 2074424, 2074996, 2075542, 2076023, 2076615, 2077163, 2077708, 2078212, 2078749, 2079275, 2079809, 2080318]","[2067428, 2068027, 2068627, 2069227, 2069827, 2070427, 2071027, 2071627, 2072125, 2072734, 2073309, 2073861, 2074399, 2074972, 2075506, 2075998, 2076592, 2077144, 2077687, 2078178, 2078729, 2079253, 2079776, 2080309]",43,R,ITM,1.1,
3,400,trial,0,112,112,112,trial,"['S', 'S', 'S', 'S', 'S', 'S', 'S', 'C', 'C', 'C', 'C', 'C', 'C', 'C', 'C', 'C', 'C', 'C', 'C', 'C', 'C', 'C', 'C']","[2086188, 2086578, 2086960, 2087366, 2087774, 2088178, 2088548, 2088969, 2089368, 2089740, 2090117, 2090509, 2090914, 2091276, 2091643, 2092023, 2092372, 2092783, 2093146, 2093505, 2093867, 2094272, 2094616]","[2086234, 2086637, 2087017, 2087417, 2087830, 2088228, 2088602, 2089023, 2089425, 2089802, 2090175, 2090562, 2090963, 2091336, 2091691, 2092070, 2092434, 2092832, 2093211, 2093556, 2093929, 2094333, 2094666]","[2085850, 2086248, 2086648, 2087048, 2087448, 2087848, 2088248, 2088648, 2088994, 2089394, 2089765, 2090142, 2090534, 2090940, 2091301, 2091669, 2092049, 2092398, 2092809, 2093171, 2093531, 2093892, 2094298, 2094642]",43,R,ITM,1.1,
7,400,trial,0,113,113,113,trial,"['S', 'S', 'S', 'S', 'S', 'S', 'S', 'C', 'C', 'C', 'C', 'C', 'C', 'C', 'C', 'C', 'C', 'C', 'C', 'C', 'C', 'C', 'C']","[2100563, 2100988, 2101420, 2101830, 2102198, 2102566, 2102981, 2103374, 2103781, 2104215, 2104576, 2104960, 2105356, 2105762, 2106117, 2106463, 2106874, 2107266, 2107664, 2108061, 2108416, 2108790, 2109198]","[2100619, 2101067, 2101495, 2101908, 2102293, 2102648, 2103049, 2103469, 2103846, 2104271, 2104653, 2105027, 2105410, 2105789, 2106164, 2106515, 2106926, 2107319, 2107739, 2108124, 2108478, 2108859, 2109266]","[2100294, 2100694, 2101093, 2101493, 2101894, 2102293, 2102693, 2103093, 2103402, 2103808, 2104243, 2104603, 2104986, 2105383, 2105789, 2106143, 2106490, 2106902, 2107292, 2107691, 2108088, 2108443, 2108817, 2109225]",43,R,ITM,1.1,
6,600,trial,0,114,114,114,trial,"['S', 'S', 'S', 'S', 'S', 'S', 'S', 'C', 'C', 'C', 'C', 'C', 'C', 'C', 'C', 'C', 'C', 'C', 'C', 'C', 'C', 'C', 'C']","[2114961, 2115761, 2116320, 2116897, 2117508, 2118243, 2118834, 2119391, 2120011, 2120591, 2121227, 2121743, 2122324, 2122980, 2123496, 2124296, 2124866, 2125412, 2125972, 2126477, 2127034, 2127554, 2128051]","[2115036, 2115807, 2116393, 2116948, 2117528, 2118263, 2118854, 2119448, 2120039, 2120653, 2121253, 2121794, 2122429, 2123044, 2123559, 2124360, 2124894, 2125478, 2126049, 2126567, 2127101, 2127633, 2128125]","[2114630, 2115229, 2115829, 2116429, 2117029, 2117629, 2118230, 2118830, 2119417, 2120039, 2120617, 2121253, 2121769, 2122350, 2123008, 2123523, 2124322, 2124894, 2125440, 2125999, 2126503, 2127060, 2127581, 2128077]",43,R,ITM,1.1,
2,600,trial,0,115,115,115,trial,"['S', 'S', 'S', 'S', 'S', 'S', 'S', 'C', 'C', 'C', 'C', 'C', 'C', 'C', 'C', 'C', 'C', 'C', 'C', 'C', 'C', 'C', 'C']","[2134098, 2134672, 2135267, 2135882, 2136500, 2137083, 2137726, 2138322, 2138875, 2139429, 2140019, 2140571, 2141118, 2141701, 2142221, 2142782, 2143303, 2143866, 2144420, 2144937, 2145507, 2146086, 2146637]","[2134163, 2134743, 2135343, 2135969, 2136563, 2137140, 2137777, 2138381, 2138915, 2139478, 2140072, 2140623, 2141175, 2141741, 2142279, 2142826, 2143369, 2143924, 2144477, 2144990, 2145575, 2146139, 2146698]","[2133769, 2134369, 2134969, 2135569, 2136169, 2136769, 2137369, 2137968, 2138350, 2138903, 2139457, 2140046, 2140599, 2141146, 2141727, 2142247, 2142809, 2143330, 2143893, 2144447, 2144965, 2145533, 2146114, 2146664]",43,R,ITM,1.1,
5,600,trial,0,116,116,116,trial,"['S', 'S', 'S', 'S', 'S', 'S', 'S', 'C', 'C', 'C', 'C', 'C', 'C', 'C', 'C', 'C', 'C', 'C', 'C', 'C', 'C', 'C', 'C']","[2152366, 2152965, 2153591, 2154246, 2154881, 2155536, 2156120, 2156690, 2157282, 2157878, 2158411, 2158968, 2159517, 2160081, 2160625, 2161187, 2161690, 2162288, 2162894, 2163416, 2163930, 2164461, 2164916]","[2152425, 2153046, 2153659, 2154321, 2154940, 2155557, 2156171, 2156745, 2157335, 2157944, 2158465, 2159027, 2159570, 2160108, 2160652, 2161244, 2161716, 2162314, 2162950, 2163441, 2163989, 2164510, 2164971]","[2152060, 2152660, 2153261, 2153861, 2154461, 2155061, 2155661, 2156261, 2156716, 2157307, 2157903, 2158437, 2158994, 2159543, 2160108, 2160652, 2161214, 2161716, 2162314, 2162920, 2163441, 2163955, 2164487, 2164941]",43,R,ITM,1.1,
3,600,trial,0,117,117,117,trial,"['S', 'S', 'S', 'S', 'S', 'S', 'S', 'S', 'C', 'C', 'C', 'C', 'C', 'C', 'C', 'C', 'C', 'C', 'C', 'C', 'C', 'C', 'C', 'C']","[2170708, 2171011, 2171589, 2172176, 2172782, 2173359, 2173929, 2174533, 2175152, 2175666, 2176202, 2176745, 2177296, 2177864, 2178362, 2178896, 2179432, 2179939, 2180457, 2180986, 2181504, 2182019, 2182528, 2183042]","[2170778, 2171084, 2171661, 2172249, 2172836, 2173419, 2174009, 2174597, 2175216, 2175738, 2176256, 2176796, 2177350, 2177926, 2178417, 2178952, 2179482, 2179992, 2180518, 2181051, 2181561, 2182076, 2182587, 2183109]","[2170525, 2171124, 2171724, 2172324, 2172924, 2173524, 2174125, 2174725, 2175177, 2175691, 2176228, 2176771, 2177321, 2177890, 2178387, 2178922, 2179458, 2179964, 2180483, 2181012, 2181529, 2182044, 2182553, 2183067]",43,R,ITM,1.1,
3,600,trial,0,118,118,118,trial,"['S', 'S', 'S', 'S', 'S', 'S', 'S', 'C', 'C', 'C', 'C', 'C', 'C', 'C', 'C', 'C', 'C', 'C', 'C', 'C', 'C', 'C', 'C']","[2189180, 2189838, 2190424, 2191080, 2191670, 2192263, 2192876, 2193482, 2194063, 2194644, 2195195, 2195751, 2196316, 2196867, 2197449, 2198027, 2198631, 2199162, 2199733, 2200284, 2200845, 2201445, 2202001]","[2189240, 2189886, 2190480, 2191100, 2191690, 2192283, 2192914, 2193508, 2194088, 2194670, 2195221, 2195778, 2196341, 2196892, 2197475, 2198052, 2198657, 2199188, 2199758, 2200309, 2200870, 2201472, 2202027]","[2188839, 2189440, 2190040, 2190640, 2191239, 2191839, 2192439, 2193039, 2193508, 2194088, 2194670, 2195221, 2195777, 2196341, 2196892, 2197475, 2198052, 2198657, 2199188, 2199758, 2200309, 2200870, 2201470, 2202027]",43,R,ITM,1.1,
4,400,trial,0,119,119,119,trial,"['S', 'S', 'S', 'S', 'S', 'S', 'S', 'S', 'C', 'C', 'C', 'C', 'C', 'C', 'C', 'C', 'C', 'C', 'C', 'C', 'C', 'C', 'C', 'C']","[2207604, 2207951, 2208296, 2208669, 2209078, 2209432, 2209831, 2210204, 2210592, 2210999, 2211423, 2211825, 2212211, 2212638, 2212994, 2213394, 2213811, 2214233, 2214605, 2215005, 2215411, 2215806, 2216223, 2216632]","[2207657, 2208016, 2208356, 2208731, 2209156, 2209526, 2209913, 2210288, 2210673, 2211058, 2211497, 2211883, 2212276, 2212701, 2213070, 2213471, 2213865, 2214294, 2214680, 2215086, 2215515, 2215883, 2216300, 2216694]","[2207470, 2207869, 2208269, 2208669, 2209070, 2209469, 2209869, 2210269, 2210618, 2211024, 2211448, 2211851, 2212237, 2212664, 2213019, 2213420, 2213836, 2214258, 2214631, 2215030, 2215437, 2215832, 2216249, 2216657]",43,R,ITM,1.1,
2,400,trial,0,120,120,120,trial,"['S', 'S', 'S', 'S', 'S', 'S', 'S', 'S', 'C', 'C', 'C', 'C', 'C', 'C', 'C', 'C', 'C', 'C', 'C', 'C', 'C', 'C', 'C', 'C']","[2222178, 2222648, 2222951, 2223338, 2223719, 2224091, 2224488, 2224873, 2225289, 2225675, 2226053, 2226465, 2226833, 2227236, 2227622, 2228005, 2228382, 2228787, 2229167, 2229551, 2229943, 2230337, 2230748, 2231130]","[2222258, 2222712, 2223022, 2223389, 2223767, 2224153, 2224557, 2224948, 2225344, 2225737, 2226115, 2226519, 2226897, 2227284, 2227675, 2228072, 2228448, 2228839, 2229221, 2229610, 2230004, 2230424, 2230803, 2231184]","[2222148, 2222547, 2222948, 2223348, 2223749, 2224148, 2224548, 2224948, 2225316, 2225701, 2226079, 2226493, 2226861, 2227264, 2227649, 2228032, 2228410, 2228814, 2229193, 2229578, 2229970, 2230365, 2230775, 2231156]",43,R,ITM,1.1,
7,600,trial,0,121,121,121,trial,"['S', 'S', 'S', 'S', 'S', 'S', 'S', 'S', 'C', 'C', 'C', 'C', 'C', 'C', 'C', 'C', 'C', 'C', 'C', 'C', 'C', 'C', 'C', 'C']","[2236699, 2237061, 2237682, 2238337, 2238946, 2239535, 2240142, 2240721, 2241338, 2241938, 2242493, 2243121, 2243683, 2244262, 2244841, 2245394, 2246012, 2246593, 2247202, 2247801, 2248344, 2248944, 2249468, 2250044]","[2236777, 2237139, 2237779, 2238415, 2239009, 2239583, 2240184, 2240765, 2241385, 2241986, 2242547, 2243161, 2243728, 2244307, 2244885, 2245447, 2246070, 2246628, 2247246, 2247829, 2248395, 2248975, 2249532, 2250096]","[2236663, 2237262, 2237862, 2238462, 2239063, 2239663, 2240263, 2240862, 2241364, 2241965, 2242521, 2243148, 2243710, 2244289, 2244869, 2245422, 2246040, 2246621, 2247230, 2247829, 2248371, 2248971, 2249495, 2250072]",43,R,ITM,1.1,
6,400,trial,0,122,122,122,trial,"['S', 'S', 'S', 'S', 'S', 'S', 'S', 'S', 'C', 'C', 'C', 'C', 'C', 'C', 'C', 'C', 'C', 'C', 'C', 'C', 'C', 'C', 'C', 'C']","[2255678, 2255971, 2256246, 2256588, 2256965, 2257357, 2257778, 2258165, 2258569, 2258932, 2259321, 2259683, 2260105, 2260451, 2260844, 2261237, 2261605, 2262001, 2262405, 2262764, 2263126, 2263518, 2263919, 2264292]","[2255748, 2256045, 2256317, 2256674, 2257068, 2257436, 2257846, 2258246, 2258650, 2259021, 2259402, 2259780, 2260200, 2260550, 2260927, 2261323, 2261714, 2262082, 2262478, 2262848, 2263228, 2263606, 2263999, 2264396]","[2255448, 2255846, 2256246, 2256647, 2257046, 2257446, 2257846, 2258246, 2258595, 2258960, 2259348, 2259709, 2260131, 2260477, 2260871, 2261265, 2261632, 2262028, 2262431, 2262792, 2263153, 2263544, 2263946, 2264318]",43,R,ITM,1.1,
3,400,trial,0,123,123,123,trial,"['B', 'S', 'S', 'S', 'S', 'S', 'S', 'S', 'C', 'C', 'C', 'C', 'C', 'C', 'C', 'C', 'C', 'C', 'C', 'C', 'C', 'C', 'C', 'C']","[2269660, 2270040, 2270398, 2270781, 2271212, 2271612, 2271998, 2272406, 2272809, 2273214, 2273546, 2273935, 2274310, 2274681, 2275059, 2275411, 2275786, 2276130, 2276532, 2276879, 2277216, 2277562, 2277893, 2278211]","[2269707, 2270118, 2270474, 2270852, 2271271, 2271673, 2272051, 2272456, 2272851, 2273249, 2273615, 2273982, 2274374, 2274729, 2275095, 2275460, 2275832, 2276199, 2276572, 2276918, 2277241, 2277591, 2277918, 2278237]","[2269671, 2270071, 2270471, 2270871, 2271271, 2271671, 2272071, 2272472, 2272835, 2273240, 2273571, 2273960, 2274335, 2274707, 2275085, 2275437, 2275812, 2276156, 2276557, 2276904, 2277241, 2277587, 2277918, 2278237]",43,R,ITM,1.1,
2,400,trial,0,124,124,124,trial,"['S', 'S', 'S', 'S', 'S', 'S', 'S', 'C', 'C', 'C', 'C', 'C', 'C', 'C', 'C', 'C', 'C', 'C', 'C', 'C', 'C', 'C', 'C']","[2284537, 2284825, 2285185, 2285547, 2285923, 2286354, 2286684, 2287124, 2287493, 2287890, 2288302, 2288689, 2289046, 2289427, 2289810, 2290179, 2290554, 2290937, 2291305, 2291710, 2292062, 2292466, 2292808]","[2284604, 2284880, 2285235, 2285625, 2286008, 2286426, 2286764, 2287194, 2287577, 2287988, 2288394, 2288781, 2289135, 2289529, 2289890, 2290263, 2290682, 2291047, 2291430, 2291769, 2292129, 2292541, 2292860]","[2284025, 2284425, 2284825, 2285224, 2285625, 2286025, 2286426, 2286824, 2287152, 2287520, 2287918, 2288329, 2288715, 2289074, 2289454, 2289838, 2290206, 2290582, 2290965, 2291333, 2291738, 2292088, 2292493, 2292836]",43,R,ITM,1.1,
5,600,trial,0,125,125,125,trial,"['S', 'S', 'S', 'S', 'S', 'S', 'S', 'C', 'C', 'C', 'C', 'C', 'C', 'C', 'C', 'C', 'C', 'C', 'C', 'C', 'C', 'C', 'C']","[2298986, 2299623, 2300186, 2300776, 2301348, 2301933, 2302565, 2303213, 2303739, 2304247, 2304774, 2305330, 2305862, 2306397, 2306923, 2307404, 2307920, 2308475, 2308992, 2309448, 2309968, 2310498, 2311010]","[2299054, 2299685, 2300242, 2300829, 2301417, 2301989, 2302623, 2303268, 2303799, 2304310, 2304847, 2305393, 2305935, 2306447, 2306969, 2307456, 2307966, 2308527, 2309032, 2309486, 2310019, 2310540, 2311051]","[2298590, 2299190, 2299790, 2300390, 2300990, 2301590, 2302190, 2302790, 2303239, 2303766, 2304273, 2304800, 2305355, 2305888, 2306422, 2306949, 2307431, 2307947, 2308501, 2309017, 2309474, 2309994, 2310524, 2311035]",43,R,ITM,1.1,
