octave,ioi,event,.thisRepN,.thisTrialN,.thisN,.thisIndex,event,tap_types,tap_times,release_times,tone_times,subject,handedness,experiment,version,
,,SPR,0,-1,-1,0,SPR,"['P', 'P', 'P', 'P', 'P', 'P', 'P', 'P', 'P', 'P', 'P', 'P', 'P', 'P', 'P', 'P', 'P', 'P', 'P', 'P', 'P', 'P', 'P', 'P', 'P', 'P', 'P', 'P', 'P', 'P']","[86889, 87429, 87960, 88502, 89043, 89579, 90136, 90704, 91267, 91816, 92398, 92933, 93478, 93995, 94505, 95044, 95587, 96108, 96642, 97154, 97684, 97784, 98210, 98776, 99290, 99849, 100386, 100948, 101475, 102026]","[86988, 87547, 88074, 88634, 89174, 89734, 90293, 90868, 91423, 91981, 92530, 93092, 93634, 94163, 94642, 95203, 95739, 96269, 96808, 97327, 97704, 97853, 98405, 98963, 99473, 100026, 100564, 101081, 101601, 102132]",,45,R,ITM,1.1,
6,500,practice,0,0,0,0,practice,"['S', 'S', 'S', 'S', 'S', 'S', 'S', 'S', 'C', 'C', 'C', 'C', 'C', 'C', 'C', 'C', 'C', 'C', 'C', 'C', 'C', 'C', 'C', 'C']","[175992, 176514, 176873, 177304, 177768, 178269, 178763, 179275, 179763, 180247, 180730, 181219, 181727, 182221, 182739, 183202, 183672, 184132, 184581, 185046, 185513, 185962, 186415, 186878]","[176121, 176580, 176991, 177430, 177894, 178387, 178882, 179392, 179865, 180357, 180829, 181311, 181840, 182342, 182850, 183345, 183781, 184256, 184709, 185187, 185653, 186112, 186565, 187010]","[175789, 176287, 176787, 177288, 177788, 178288, 178788, 179289, 179790, 180275, 180758, 181246, 181753, 182248, 182767, 183229, 183699, 184159, 184608, 185072, 185539, 185990, 186441, 186906]",45,R,ITM,1.1,
4,500,practice,0,1,1,1,practice,"['S', 'S', 'S', 'S', 'S', 'S', 'S', 'C', 'C', 'C', 'C', 'C', 'C', 'C', 'C', 'C', 'C', 'C', 'C', 'C', 'C', 'C', 'C']","[192912, 193395, 193907, 194412, 194923, 195445, 195926, 196444, 196947, 197454, 197941, 198431, 198922, 199399, 199861, 200337, 200809, 201269, 201713, 202157, 202568, 202994, 203411]","[193006, 193513, 194062, 194593, 195111, 195562, 196106, 196620, 197148, 197621, 198121, 198598, 199108, 199544, 199992, 200474, 200944, 201403, 201851, 202294, 202713, 203119, 203524]","[192476, 192975, 193475, 193975, 194476, 194975, 195475, 195975, 196469, 196973, 197480, 197966, 198458, 198947, 199426, 199886, 200363, 200835, 201294, 201739, 202183, 202594, 203020, 203437]",45,R,ITM,1.1,
7,500,practice,0,2,2,2,practice,"['S', 'S', 'S', 'S', 'S', 'S', 'S', 'S', 'C', 'C', 'C', 'C', 'C', 'C', 'C', 'C', 'C', 'C', 'C', 'C', 'C', 'C', 'C', 'C']","[209444, 209914, 210276, 210701, 211184, 211688, 212193, 212700, 213171, 213635, 214121, 214620, 215112, 215625, 216120, 216616, 217105, 217624, 218173, 218757, 219420, 220083, 220770, 221523]","[209548, 210018, 210400, 210870, 211357, 211912, 212405, 212890, 213338, 213787, 214259, 214793, 215286, 215773, 216299, 216796, 217264, 217774, 218310, 218931, 219599, 220248, 220929, 221703]","[209217, 209716, 210216, 210716, 211216, 211717, 212216, 212716, 213197, 213661, 214149, 214647, 215140, 215652, 216146, 216644, 217133, 217651, 218201, 218783, 219447, 220110, 220797, 221550]",45,R,ITM,1.1,
5,500,practice,0,3,3,3,practice,"['S', 'S', 'S', 'S', 'S', 'S', 'S', 'S', 'C', 'C', 'C', 'C', 'C', 'C', 'C', 'C', 'C', 'C', 'C', 'C', 'C', 'C', 'C', 'C']","[227634, 227961, 228331, 228795, 229262, 229770, 230270, 230757, 231236, 231730, 232232, 232745, 233243, 233740, 234254, 234742, 235249, 235743, 236254, 236745, 237233, 237702, 238223, 238733]","[227713, 228066, 228477, 228928, 229435, 229945, 230435, 230882, 231391, 231877, 232373, 232909, 233428, 233894, 234395, 234890, 235381, 235891, 236397, 236889, 237376, 237862, 238382, 238895]","[227271, 227770, 228271, 228770, 229270, 229770, 230270, 230770, 231262, 231755, 232259, 232771, 233270, 233766, 234280, 234769, 235275, 235768, 236279, 236771, 237259, 237727, 238248, 238759]",45,R,ITM,1.1,
3,500,practice,0,4,4,4,practice,"['S', 'S', 'S', 'S', 'S', 'S', 'S', 'S', 'C', 'C', 'C', 'C', 'C', 'C', 'C', 'C', 'C', 'C', 'C', 'C', 'C', 'C', 'C', 'C']","[244543, 244882, 245258, 245668, 246137, 246636, 247143, 247656, 248127, 248632, 249166, 249663, 250131, 250659, 251170, 251666, 252168, 252642, 253145, 253659, 254161, 254671, 255198, 255686]","[244621, 244996, 245376, 245805, 246296, 246798, 247310, 247764, 248289, 248790, 249286, 249788, 250250, 250775, 251287, 251782, 252270, 252758, 253264, 253791, 254287, 254815, 255322, 255817]","[244179, 244679, 245179, 245680, 246179, 246679, 247179, 247680, 248153, 248657, 249192, 249689, 250157, 250685, 251196, 251692, 252193, 252667, 253170, 253684, 254187, 254697, 255223, 255712]",45,R,ITM,1.1,
2,500,practice,0,5,5,5,practice,"['S', 'S', 'S', 'S', 'S', 'S', 'S', 'C', 'C', 'C', 'C', 'C', 'C', 'C', 'C', 'C', 'C', 'C', 'C', 'C', 'C', 'C', 'C']","[261961, 262461, 262936, 263449, 263933, 264449, 264912, 265414, 265879, 266422, 266933, 267420, 267911, 268386, 268888, 269355, 269858, 270337, 270816, 271358, 271850, 272317, 272790]","[262077, 262599, 263077, 263584, 264024, 264536, 265021, 265519, 266014, 266531, 267029, 267520, 268004, 268461, 268956, 269448, 269962, 270429, 270899, 271449, 271943, 272403, 272880]","[261491, 261991, 262492, 262990, 263491, 263991, 264491, 264990, 265442, 265907, 266449, 266960, 267447, 267937, 268413, 268915, 269382, 269886, 270363, 270842, 271386, 271878, 272344, 272817]",45,R,ITM,1.1,
3,400,trial,0,6,6,6,trial,"['S', 'S', 'S', 'S', 'S', 'S', 'S', 'C', 'C', 'C', 'C', 'C', 'C', 'C', 'C', 'C', 'C', 'C', 'C', 'C', 'C', 'C', 'C']","[281433, 281783, 282374, 282819, 283193, 283565, 283971, 284362, 284744, 285161, 285557, 285902, 286343, 286776, 287176, 287558, 287982, 288396, 288784, 289172, 289573, 289978, 290337]","[281517, 281910, 282501, 282914, 283292, 283678, 284071, 284466, 284832, 285255, 285647, 286011, 286439, 286874, 287285, 287667, 288073, 288470, 288864, 289264, 289679, 290059, 290429]","[281221, 281619, 282019, 282419, 282819, 283219, 283619, 284019, 284388, 284770, 285187, 285583, 285928, 286368, 286801, 287202, 287584, 288008, 288421, 288809, 289198, 289599, 290003, 290363]",45,R,ITM,1.1,
7,600,trial,0,7,7,7,trial,"['S', 'S', 'S', 'S', 'S', 'S', 'S', 'C', 'C', 'C', 'C', 'C', 'C', 'C', 'C', 'C', 'C', 'C', 'C', 'C', 'C', 'C', 'C']","[296297, 297064, 297726, 298357, 298959, 299584, 300152, 300818, 301431, 302044, 302641, 303250, 303892, 304490, 305075, 305664, 306250, 306830, 307437, 308011, 308596, 309149, 309726]","[296363, 297186, 297843, 298506, 299089, 299697, 300311, 300944, 301558, 302151, 302743, 303368, 304011, 304605, 305200, 305786, 306373, 306966, 307566, 308143, 308730, 309291, 309864]","[295986, 296584, 297184, 297784, 298384, 298984, 299584, 300184, 300845, 301459, 302070, 302667, 303277, 303919, 304517, 305101, 305690, 306277, 306857, 307465, 308038, 308623, 309177, 309752]",45,R,ITM,1.1,
2,400,trial,0,8,8,8,trial,"['S', 'S', 'S', 'S', 'S', 'S', 'S', 'C', 'C', 'C', 'C', 'C', 'C', 'C', 'C', 'C', 'C', 'C', 'C', 'C', 'C', 'C', 'C']","[315774, 316237, 316631, 317026, 317444, 317841, 318253, 318656, 319041, 319460, 319874, 320267, 320653, 321048, 321447, 321845, 322232, 322624, 323046, 323475, 323837, 324234, 324637]","[315863, 316311, 316727, 317120, 317544, 317935, 318341, 318753, 319127, 319561, 319966, 320356, 320739, 321134, 321528, 321934, 322304, 322692, 323097, 323540, 323921, 324308, 324724]","[315508, 315909, 316308, 316707, 317107, 317508, 317908, 318308, 318683, 319068, 319486, 319900, 320294, 320680, 321075, 321475, 321872, 322258, 322652, 323074, 323502, 323864, 324260, 324665]",45,R,ITM,1.1,
5,600,trial,0,9,9,9,trial,"['S', 'S', 'S', 'S', 'S', 'S', 'S', 'C', 'C', 'C', 'C', 'C', 'C', 'C', 'C', 'C', 'C', 'C', 'C', 'C', 'C', 'C', 'C']","[330299, 330896, 331633, 332246, 332878, 333511, 334111, 334732, 335281, 335844, 336393, 336917, 337459, 338004, 338581, 339112, 339662, 340205, 340783, 341301, 341906, 342478, 343041]","[330383, 331051, 331789, 332382, 333047, 333672, 334257, 334876, 335435, 335964, 336509, 337048, 337579, 338130, 338696, 339232, 339776, 340329, 340885, 341425, 342031, 342600, 343190]","[330021, 330620, 331220, 331821, 332421, 333021, 333621, 334221, 334757, 335307, 335869, 336418, 336943, 337484, 338030, 338607, 339138, 339688, 340231, 340808, 341326, 341933, 342504, 343066]",45,R,ITM,1.1,
7,600,trial,0,10,10,10,trial,"['S', 'S', 'S', 'S', 'S', 'S', 'S', 'S', 'C', 'C', 'C', 'C', 'C', 'C', 'C', 'C', 'C', 'C', 'C', 'C', 'C', 'C', 'C', 'C']","[349105, 349586, 350030, 350545, 351124, 351773, 352358, 352945, 353550, 354167, 354791, 355424, 356014, 356630, 357275, 357875, 358488, 359089, 359730, 360297, 360898, 361476, 362034, 362599]","[349179, 349705, 350156, 350700, 351289, 351954, 352533, 353134, 353770, 354381, 354981, 355603, 356220, 356835, 357457, 358078, 358700, 359307, 359921, 360464, 361065, 361601, 362162, 362727]","[348744, 349344, 349944, 350544, 351144, 351745, 352345, 352945, 353576, 354194, 354819, 355450, 356041, 356657, 357302, 357902, 358515, 359116, 359756, 360325, 360925, 361503, 362060, 362626]",45,R,ITM,1.1,
2,400,trial,0,11,11,11,trial,"['S', 'S', 'S', 'S', 'S', 'S', 'S', 'S', 'C', 'C', 'C', 'C', 'C', 'C', 'C', 'C', 'C', 'C', 'C', 'C', 'C', 'C', 'C', 'C']","[368497, 368873, 369246, 369615, 369907, 370270, 370644, 371006, 371407, 371815, 372244, 372646, 373016, 373394, 373772, 374175, 374571, 374917, 375344, 375763, 376188, 376582, 376989, 377400]","[368575, 368963, 369336, 369699, 370004, 370369, 370738, 371110, 371521, 371872, 372316, 372726, 373107, 373480, 373847, 374242, 374668, 375008, 375413, 375808, 376255, 376657, 377052, 377465]","[368286, 368686, 369086, 369486, 369886, 370287, 370686, 371087, 371435, 371843, 372272, 372673, 373043, 373422, 373799, 374203, 374597, 374944, 375371, 375791, 376216, 376609, 377017, 377426]",45,R,ITM,1.1,
3,400,trial,0,12,12,12,trial,"['S', 'S', 'S', 'S', 'S', 'S', 'S', 'C', 'C', 'C', 'C', 'C', 'C', 'C', 'C', 'C', 'C', 'C', 'C', 'C', 'C', 'C', 'C']","[383430, 383836, 384215, 384608, 384995, 385432, 385846, 386265, 386659, 387081, 387495, 387910, 388334, 388741, 389134, 389526, 389935, 390355, 390779, 391206, 391602, 392024, 392442]","[383470, 383896, 384308, 384673, 385079, 385531, 385965, 386368, 386764, 387180, 387603, 388006, 388424, 388849, 389233, 389623, 390026, 390460, 390861, 391296, 391676, 392088, 392539]","[383070, 383470, 383870, 384270, 384670, 385071, 385470, 385870, 386290, 386684, 387106, 387521, 387936, 388360, 388766, 389159, 389552, 389960, 390381, 390805, 391232, 391627, 392049, 392468]",45,R,ITM,1.1,
4,600,trial,0,13,13,13,trial,"['S', 'S', 'S', 'S', 'S', 'S', 'S', 'S', 'C', 'C', 'C', 'C', 'C', 'C', 'C', 'C', 'C', 'C', 'C', 'C', 'C', 'C', 'C', 'C']","[398457, 398863, 399298, 399858, 400456, 401056, 401678, 402263, 402866, 403477, 404080, 404667, 405265, 405894, 406525, 407153, 407817, 408454, 409120, 409753, 410372, 411005, 411634, 412223]","[398515, 398974, 399428, 400010, 400628, 401262, 401871, 402436, 403046, 403649, 404274, 404846, 405446, 406090, 406726, 407394, 408045, 408665, 409305, 409977, 410619, 411272, 411865, 412470]","[398057, 398656, 399256, 399856, 400456, 401056, 401656, 402256, 402891, 403503, 404106, 404692, 405292, 405919, 406551, 407179, 407842, 408480, 409147, 409779, 410397, 411031, 411661, 412249]",45,R,ITM,1.1,
6,400,trial,0,14,14,14,trial,"['S', 'S', 'S', 'S', 'S', 'S', 'S', 'C', 'C', 'C', 'C', 'C', 'C', 'C', 'C', 'C', 'C', 'C', 'C', 'C', 'C', 'C', 'C']","[418454, 418808, 419188, 419598, 419978, 420357, 420768, 421186, 421543, 421949, 422380, 422809, 423196, 423602, 424001, 424402, 424817, 425243, 425653, 426062, 426480, 426909, 427361]","[418518, 418890, 419280, 419657, 420068, 420471, 420859, 421277, 421639, 422038, 422457, 422890, 423285, 423693, 424090, 424496, 424915, 425323, 425741, 426160, 426579, 426997, 427444]","[418018, 418417, 418818, 419217, 419617, 420018, 420417, 420817, 421213, 421570, 421977, 422408, 422836, 423223, 423629, 424028, 424430, 424844, 425271, 425679, 426089, 426507, 426937, 427387]",45,R,ITM,1.1,
3,600,trial,0,15,15,15,trial,"['S', 'S', 'S', 'S', 'S', 'S', 'S', 'S', 'S', 'S', 'S', 'C', 'C', 'C', 'C', 'C', 'C', 'C', 'C', 'C', 'C', 'C', 'C', 'C', 'C', 'C', 'C', 'C']","[433328, 433788, 434306, 434851, 435457, 435557, 436056, 436656, 436756, 437236, 437336, 437785, 438356, 438920, 439480, 440056, 440163, 440573, 441169, 441723, 442283, 442856, 443465, 444011, 444558, 445163, 445714, 446299]","[433425, 433896, 434412, 434992, 435477, 435612, 436238, 436676, 436820, 437256, 437430, 437995, 438550, 439090, 439628, 440083, 440211, 440755, 441318, 441847, 442404, 442977, 443577, 444142, 444669, 445249, 445801, 446381]","[433074, 433674, 434274, 434874, 435474, 436074, 436674, 437274, 437811, 438382, 438945, 439505, 440083, 440599, 441195, 441749, 442308, 442882, 443491, 444037, 444583, 445189, 445740, 446324]",45,R,ITM,1.1,
3,600,trial,0,16,16,16,trial,"['S', 'S', 'S', 'S', 'S', 'S', 'S', 'C', 'C', 'C', 'C', 'C', 'C', 'C', 'C', 'C', 'C', 'C', 'C', 'C', 'C', 'C', 'C']","[452307, 452852, 453437, 453998, 454579, 455206, 455816, 456395, 457127, 457736, 458291, 458830, 459432, 460013, 460604, 461199, 461807, 462429, 463059, 463627, 464218, 464833, 465416]","[452370, 452930, 453518, 454103, 454696, 455328, 455943, 456519, 457250, 457843, 458394, 458962, 459551, 460044, 460717, 461298, 461944, 462582, 463191, 463740, 464337, 464945, 465531]","[451820, 452419, 453019, 453619, 454219, 454819, 455419, 456019, 456421, 457153, 457761, 458316, 458856, 459458, 460039, 460630, 461224, 461833, 462454, 463085, 463652, 464243, 464859, 465441]",45,R,ITM,1.1,
6,600,trial,0,17,17,17,trial,"['S', 'S', 'S', 'S', 'S', 'S', 'S', 'C', 'C', 'C', 'C', 'C', 'C', 'C', 'C', 'C', 'C', 'C', 'C', 'C', 'C', 'C', 'C']","[471412, 472010, 472594, 473190, 473806, 474381, 475013, 475607, 476294, 476861, 477440, 478056, 478610, 479215, 479840, 480440, 481006, 481612, 482278, 482915, 483518, 484147, 484761]","[471496, 472030, 472614, 473273, 473904, 474508, 475140, 475757, 476433, 476984, 477540, 478123, 478725, 479332, 479866, 480526, 481127, 481740, 482404, 483027, 483642, 484235, 484851]","[471071, 471671, 472271, 472871, 473472, 474072, 474672, 475272, 475633, 476321, 476889, 477466, 478083, 478637, 479243, 479866, 480466, 481034, 481639, 482306, 482942, 483545, 484173, 484788]",45,R,ITM,1.1,
5,600,trial,0,18,18,18,trial,"['S', 'S', 'S', 'S', 'S', 'S', 'S', 'S', 'C', 'C', 'C', 'C', 'C', 'C', 'C', 'C', 'C', 'C', 'C', 'C', 'C', 'C', 'C', 'C']","[493700, 494070, 494505, 495064, 495624, 496162, 496722, 497305, 497884, 498497, 499063, 499612, 500163, 500760, 501299, 501904, 502467, 503034, 503623, 504179, 504747, 505336, 505926, 506546]","[493755, 494180, 494649, 495215, 495807, 496358, 496888, 497470, 498051, 498630, 499218, 499761, 500344, 500923, 501502, 502056, 502657, 503220, 503836, 504400, 504954, 505548, 506124, 506765]","[493341, 493941, 494541, 495141, 495741, 496342, 496942, 497542, 497909, 498524, 499089, 499638, 500189, 500786, 501324, 501931, 502494, 503061, 503649, 504205, 504772, 505362, 505952, 506571]",45,R,ITM,1.1,
2,600,trial,0,19,19,19,trial,"['S', 'S', 'S', 'S', 'S', 'S', 'S', 'S', 'C', 'C', 'C', 'C', 'C', 'C', 'C', 'C', 'C', 'C', 'C', 'C', 'C', 'C', 'C', 'C']","[512692, 513152, 513575, 514126, 514633, 515216, 515781, 516327, 516944, 517559, 518147, 518727, 519265, 519871, 520460, 521053, 521608, 522253, 522886, 523527, 524126, 524796, 525349, 525944]","[512773, 513251, 513669, 514237, 514770, 515346, 515888, 516443, 517047, 517633, 518222, 518815, 519346, 519951, 520559, 521131, 521710, 522348, 522976, 523585, 524215, 524868, 525435, 526028]","[512303, 512903, 513503, 514103, 514703, 515303, 515902, 516502, 516972, 517585, 518173, 518755, 519292, 519898, 520487, 521079, 521635, 522279, 522912, 523554, 524153, 524823, 525376, 525972]",45,R,ITM,1.1,
7,400,trial,0,20,20,20,trial,"['S', 'S', 'S', 'S', 'S', 'S', 'S', 'C', 'C', 'C', 'C', 'C', 'C', 'C', 'C', 'C', 'C', 'C', 'C', 'C', 'C', 'C', 'C']","[531974, 532360, 532744, 533062, 533439, 533801, 534184, 534548, 534966, 535366, 535760, 536159, 536558, 536953, 537317, 537784, 538184, 538578, 538993, 539394, 539793, 540199, 540584]","[531994, 532427, 532808, 533141, 533515, 533884, 534253, 534638, 535032, 535439, 535840, 536262, 536656, 537055, 537434, 537870, 538275, 538688, 539090, 539480, 539881, 540294, 540695]","[531383, 531782, 532183, 532582, 532982, 533383, 533782, 534182, 534575, 534992, 535393, 535787, 536185, 536586, 536980, 537344, 537811, 538212, 538605, 539020, 539421, 539821, 540227, 540612]",45,R,ITM,1.1,
5,400,trial,0,21,21,21,trial,"['S', 'S', 'S', 'S', 'S', 'S', 'S', 'C', 'C', 'C', 'C', 'C', 'C', 'C', 'C', 'C', 'C', 'C', 'C', 'C', 'C', 'C', 'C']","[546442, 546788, 547169, 547580, 547987, 548371, 548777, 549190, 549611, 550004, 550401, 550798, 551192, 551575, 551948, 552376, 552793, 553181, 553574, 553956, 554357, 554754, 555152]","[546533, 546890, 547266, 547665, 548071, 548470, 548883, 549300, 549699, 550087, 550499, 550893, 551260, 551670, 552045, 552463, 552883, 553274, 553661, 554057, 554450, 554865, 555257]","[546027, 546426, 546826, 547226, 547627, 548026, 548426, 548827, 549216, 549637, 550031, 550426, 550824, 551218, 551602, 551973, 552401, 552818, 553206, 553600, 553981, 554383, 554779, 555177]",45,R,ITM,1.1,
2,600,trial,0,22,22,22,trial,"['S', 'S', 'S', 'S', 'S', 'S', 'S', 'C', 'C', 'C', 'C', 'C', 'C', 'C', 'C', 'C', 'C', 'C', 'C', 'C', 'C', 'C', 'C']","[561377, 562034, 562672, 563233, 563881, 564433, 565057, 565622, 566187, 566809, 567462, 568024, 568599, 569156, 569745, 570301, 570885, 571457, 572023, 572590, 573137, 573770, 574303]","[561484, 562152, 562767, 563375, 563984, 564577, 565210, 565745, 566333, 566912, 567550, 568134, 568677, 569251, 569815, 570383, 570953, 571564, 572134, 572717, 573220, 573848, 574379]","[560872, 561472, 562072, 562672, 563272, 563872, 564471, 565072, 565649, 566213, 566836, 567489, 568051, 568627, 569183, 569772, 570328, 570911, 571484, 572050, 572617, 573164, 573798, 574329]",45,R,ITM,1.1,
4,400,trial,0,23,23,23,trial,"['S', 'S', 'S', 'S', 'S', 'S', 'S', 'C', 'C', 'C', 'C', 'C', 'C', 'C', 'C', 'C', 'C', 'C', 'C', 'C', 'C', 'C', 'C']","[580290, 580695, 581060, 581460, 581872, 582264, 582657, 583068, 583500, 583954, 584321, 584701, 585090, 585494, 585891, 586292, 586680, 587085, 587497, 587884, 588274, 588673, 589078]","[580367, 580762, 581136, 581542, 581962, 582370, 582759, 583169, 583607, 584023, 584399, 584776, 585170, 585574, 585982, 586364, 586774, 587163, 587542, 587977, 588375, 588776, 589201]","[579919, 580318, 580718, 581118, 581518, 581918, 582319, 582718, 583094, 583526, 583980, 584346, 584727, 585115, 585521, 585917, 586317, 586706, 587111, 587523, 587910, 588300, 588698, 589104]",45,R,ITM,1.1,
5,400,trial,0,24,24,24,trial,"['S', 'S', 'S', 'S', 'S', 'S', 'S', 'C', 'C', 'C', 'C', 'C', 'C', 'C', 'C', 'C', 'C', 'C', 'C', 'C', 'C', 'C', 'C']","[594729, 595088, 595505, 595943, 596365, 596794, 597215, 597611, 598026, 598465, 598880, 599273, 599699, 600108, 600477, 600840, 601288, 601715, 602110, 602527, 602947, 603347, 603787]","[594776, 595190, 595624, 596071, 596481, 596919, 597325, 597719, 598120, 598554, 598962, 599345, 599747, 600161, 600567, 600960, 601389, 601833, 602233, 602647, 603054, 603464, 603923]","[594465, 594866, 595266, 595666, 596066, 596466, 596867, 597266, 597637, 598051, 598492, 598906, 599300, 599725, 600133, 600503, 600865, 601314, 601741, 602136, 602553, 602973, 603373, 603812]",45,R,ITM,1.1,
6,400,trial,0,25,25,25,trial,"['S', 'S', 'S', 'S', 'S', 'S', 'S', 'C', 'C', 'C', 'C', 'C', 'C', 'C', 'C', 'C', 'C', 'C', 'C', 'C', 'C', 'C', 'C']","[609786, 610167, 610555, 610962, 611356, 611768, 612187, 612603, 613019, 613445, 613853, 614281, 614693, 615097, 615529, 615967, 616411, 616813, 617239, 617653, 618032, 618457, 618849]","[609860, 610257, 610653, 611060, 611466, 611886, 612284, 612691, 613129, 613547, 613958, 614367, 614780, 615191, 615611, 616059, 616492, 616890, 617330, 617733, 618114, 618543, 618949]","[609402, 609801, 610201, 610601, 611001, 611401, 611802, 612201, 612630, 613046, 613472, 613879, 614307, 614720, 615123, 615556, 615995, 616437, 616840, 617267, 617680, 618058, 618483, 618875]",45,R,ITM,1.1,
4,600,trial,0,26,26,26,trial,"['S', 'S', 'S', 'S', 'S', 'S', 'S', 'S', 'C', 'C', 'C', 'C', 'C', 'C', 'C', 'C', 'C', 'C', 'C', 'C', 'C', 'C', 'C', 'C']","[624722, 625119, 625557, 626193, 626768, 627346, 627971, 628581, 629168, 629833, 630439, 630998, 631597, 632194, 632767, 633325, 633919, 634526, 635124, 635687, 636250, 636853, 637434, 638055]","[624808, 625212, 625649, 626344, 627015, 627611, 628234, 628835, 629452, 630087, 630714, 631222, 631847, 632448, 632981, 633549, 634144, 634741, 635351, 635972, 636487, 637058, 637659, 638262]","[624423, 625024, 625624, 626224, 626823, 627423, 628023, 628623, 629194, 629859, 630465, 631024, 631622, 632219, 632793, 633351, 633945, 634552, 635150, 635714, 636275, 636878, 637461, 638081]",45,R,ITM,1.1,
4,400,trial,0,27,27,27,trial,"['S', 'S', 'S', 'S', 'S', 'S', 'S', 'C', 'C', 'C', 'C', 'C', 'C', 'C', 'C', 'C', 'C', 'C', 'C', 'C', 'C', 'C', 'C']","[644147, 644547, 644909, 645298, 645704, 646115, 646530, 646935, 647312, 647717, 648071, 648487, 648883, 649281, 649687, 650107, 650509, 650907, 651360, 651749, 652133, 652597, 652937]","[644227, 644629, 645003, 645392, 645791, 646214, 646634, 647027, 647413, 647804, 648171, 648584, 648987, 649388, 649806, 650206, 650590, 650997, 651439, 651841, 652250, 652622, 652991]","[643747, 644147, 644547, 644947, 645347, 645747, 646148, 646547, 646962, 647339, 647743, 648096, 648513, 648908, 649308, 649713, 650133, 650534, 650933, 651385, 651774, 652160, 652622, 652963]",45,R,ITM,1.1,
6,600,trial,0,28,28,28,trial,"['S', 'S', 'S', 'S', 'S', 'S', 'S', 'S', 'C', 'C', 'C', 'C', 'C', 'C', 'C', 'C', 'C', 'C', 'C', 'C', 'C', 'C', 'C', 'C']","[658915, 659304, 659727, 660322, 660925, 661562, 662115, 662719, 663353, 663964, 664570, 665137, 665712, 666263, 666841, 667396, 667967, 668546, 669088, 669606, 670180, 670712, 671227, 671723]","[658979, 659408, 659952, 660575, 661213, 661819, 662381, 662990, 663630, 664224, 664811, 665322, 665952, 666515, 667088, 667654, 668220, 668766, 669291, 669806, 670371, 670894, 671410, 671893]","[658536, 659136, 659736, 660336, 660936, 661536, 662136, 662736, 663380, 663992, 664597, 665163, 665739, 666290, 666867, 667422, 667994, 668573, 669115, 669633, 670206, 670740, 671254, 671751]",45,R,ITM,1.1,
7,400,trial,0,29,29,29,trial,"['S', 'S', 'S', 'S', 'S', 'S', 'C', 'C', 'C', 'C', 'C', 'C', 'C', 'C', 'C', 'C', 'C', 'C', 'C', 'C', 'C', 'C']","[678387, 678727, 679099, 679482, 679905, 680299, 680695, 681104, 681503, 681934, 682336, 682735, 683154, 683542, 683934, 684340, 684732, 685146, 685563, 685966, 686332, 686732]","[678446, 678810, 679186, 679583, 680000, 680402, 680800, 681228, 681632, 682031, 682422, 682824, 683264, 683640, 684038, 684445, 684829, 685235, 685665, 686060, 686400, 686820]","[677500, 677899, 678299, 678700, 679099, 679499, 679900, 680299, 680722, 681131, 681530, 681962, 682362, 682762, 683182, 683569, 683961, 684366, 684759, 685172, 685591, 685993, 686360, 686758]",45,R,ITM,1.1,
4,600,trial,0,30,30,30,trial,"['S', 'S', 'S', 'S', 'S', 'S', 'S', 'S', 'C', 'C', 'C', 'C', 'C', 'C', 'C', 'C', 'C', 'C', 'C', 'C', 'C', 'C', 'C', 'C']","[696057, 696414, 696933, 697498, 698138, 698756, 699317, 699881, 700495, 701084, 701665, 702274, 702778, 703332, 703852, 704404, 704912, 705419, 705935, 706380, 706872, 707337, 707838, 708257]","[696133, 696519, 697122, 697737, 698356, 698982, 699570, 700164, 700771, 701363, 701889, 702511, 702971, 703525, 704018, 704506, 704992, 705524, 706031, 706488, 706993, 707473, 707973, 708391]","[695747, 696346, 696946, 697546, 698146, 698746, 699346, 699947, 700521, 701110, 701690, 702301, 702803, 703357, 703878, 704430, 704937, 705445, 705960, 706406, 706897, 707363, 707864, 708283]",45,R,ITM,1.1,
2,600,trial,0,31,31,31,trial,"['S', 'S', 'S', 'S', 'S', 'S', 'S', 'S', 'S', 'C', 'C', 'C', 'C', 'C', 'C', 'C', 'C', 'C', 'C', 'C', 'C', 'C', 'C', 'C', 'C']","[714102, 714498, 714908, 715465, 716065, 716637, 717252, 717352, 717841, 718489, 719089, 719648, 720210, 720764, 721339, 721889, 722433, 722963, 723544, 724075, 724627, 725143, 725672, 726227, 726743]","[714207, 714609, 715101, 715680, 716294, 716900, 717272, 717437, 718062, 718669, 719277, 719841, 720413, 720987, 721557, 722109, 722619, 723174, 723713, 724240, 724766, 725316, 725857, 726408, 726916]","[713705, 714305, 714905, 715505, 716105, 716704, 717305, 717905, 718517, 719116, 719676, 720238, 720791, 721367, 721916, 722460, 722990, 723571, 724103, 724655, 725171, 725699, 726254, 726769]",45,R,ITM,1.1,
6,600,trial,0,32,32,32,trial,"['S', 'S', 'S', 'S', 'S', 'S', 'S', 'S', 'C', 'C', 'C', 'C', 'C', 'C', 'C', 'C', 'C', 'C', 'C', 'C', 'C', 'C', 'C', 'C']","[732664, 733046, 733394, 733942, 734552, 735199, 735832, 736379, 736995, 737550, 738101, 738674, 739253, 739798, 740366, 740943, 741471, 742046, 742584, 743155, 743704, 744279, 744836, 745375]","[732748, 733140, 733594, 734192, 734828, 735431, 736044, 736593, 737182, 737764, 738291, 738885, 739483, 739991, 740602, 741157, 741663, 742191, 742787, 743326, 743881, 744435, 745001, 745556]","[732215, 732814, 733414, 734014, 734614, 735214, 735814, 736414, 737022, 737576, 738128, 738701, 739279, 739824, 740392, 740970, 741497, 742074, 742611, 743183, 743732, 744305, 744863, 745403]",45,R,ITM,1.1,
7,400,trial,0,33,33,33,trial,"['S', 'S', 'S', 'S', 'S', 'S', 'S', 'C', 'C', 'C', 'C', 'C', 'C', 'C', 'C', 'C', 'C', 'C', 'C', 'C', 'C', 'C', 'C']","[751286, 751653, 752031, 752405, 752801, 753206, 753593, 753993, 754386, 754801, 755197, 755605, 756022, 756441, 756840, 757224, 757652, 758081, 758501, 758879, 759250, 759656, 760047]","[751371, 751727, 752115, 752497, 752821, 753288, 753686, 754096, 754490, 754905, 755299, 755698, 756112, 756540, 756946, 757329, 757736, 758184, 758598, 758971, 759356, 759748, 760172]","[750792, 751192, 751591, 751991, 752392, 752792, 753192, 753592, 754020, 754413, 754828, 755224, 755633, 756048, 756467, 756868, 757252, 757680, 758108, 758528, 758905, 759277, 759683, 760075]",45,R,ITM,1.1,
6,600,trial,0,34,34,34,trial,"['S', 'S', 'S', 'S', 'S', 'S', 'S', 'C', 'C', 'C', 'C', 'C', 'C', 'C', 'C', 'C', 'C', 'C', 'C', 'C', 'C', 'C', 'C']","[766371, 766961, 767620, 768229, 768828, 769352, 770009, 770583, 771185, 771774, 772355, 772932, 773473, 774027, 774578, 775145, 775689, 776216, 776709, 777244, 777790, 778305, 778810]","[766426, 767076, 767777, 768347, 768972, 769510, 770220, 770802, 771372, 771939, 772464, 773032, 773570, 774107, 774680, 775228, 775779, 776327, 776859, 777361, 777924, 778433, 778948]","[765863, 766462, 767063, 767663, 768263, 768862, 769462, 770062, 770611, 771212, 771801, 772381, 772960, 773499, 774053, 774604, 775172, 775716, 776244, 776735, 777271, 777817, 778332, 778836]",45,R,ITM,1.1,
5,400,trial,0,35,35,35,trial,"['S', 'S', 'S', 'S', 'S', 'S', 'S', 'C', 'C', 'C', 'C', 'C', 'C', 'C', 'C', 'C', 'C', 'C', 'C', 'C', 'C', 'C', 'C']","[784860, 785200, 785608, 785993, 786383, 786782, 787219, 787635, 788040, 788416, 788803, 789209, 789628, 790000, 790380, 790753, 791124, 791492, 791923, 792302, 792729, 793170, 793531]","[784880, 785282, 785695, 786013, 786484, 786903, 787290, 787731, 788120, 788524, 788918, 789337, 789725, 790102, 790482, 790840, 791212, 791601, 791996, 792394, 792835, 793257, 793612]","[784447, 784846, 785246, 785646, 786046, 786446, 786846, 787247, 787660, 788066, 788442, 788829, 789234, 789654, 790026, 790406, 790778, 791150, 791518, 791949, 792328, 792756, 793196, 793558]",45,R,ITM,1.1,
4,400,trial,0,36,36,36,trial,"['S', 'S', 'S', 'S', 'S', 'S', 'S', 'C', 'C', 'C', 'C', 'C', 'C', 'C', 'C', 'C', 'C', 'C', 'C', 'C', 'C', 'C', 'C']","[799151, 799510, 799932, 800332, 800773, 801192, 801630, 802013, 802399, 802765, 803180, 803576, 803976, 804372, 804713, 805061, 805394, 805798, 806185, 806632, 807023, 807426, 807829]","[799207, 799622, 800066, 800458, 800881, 801311, 801725, 802114, 802496, 802870, 803266, 803673, 804067, 804468, 804806, 805147, 805506, 805902, 806286, 806728, 807117, 807522, 807918]","[798875, 799275, 799674, 800074, 800475, 800874, 801274, 801674, 802038, 802424, 802791, 803206, 803602, 804001, 804399, 804739, 805087, 805420, 805824, 806211, 806658, 807049, 807451, 807855]",45,R,ITM,1.1,
4,600,trial,0,37,37,37,trial,"['S', 'S', 'S', 'S', 'S', 'S', 'S', 'C', 'C', 'C', 'C', 'C', 'C', 'C', 'C', 'C', 'C', 'C', 'C', 'C', 'C', 'C', 'C']","[813427, 814639, 815028, 815560, 816189, 816759, 817359, 817988, 818599, 819175, 819719, 820237, 820775, 821315, 821844, 822369, 822855, 823324, 823847, 824370, 824903, 825407, 825938]","[813510, 814747, 815163, 815756, 816359, 816907, 817509, 818141, 818761, 819314, 819877, 820391, 820912, 821475, 821960, 822498, 822986, 823491, 824015, 824526, 825073, 825561, 826088]","[813215, 813815, 814415, 815015, 815616, 816216, 816816, 817415, 818014, 818625, 819201, 819744, 820262, 820801, 821342, 821870, 822394, 822881, 823350, 823873, 824395, 824929, 825433, 825964]",45,R,ITM,1.1,
6,400,trial,0,38,38,38,trial,"['S', 'S', 'S', 'S', 'S', 'S', 'S', 'C', 'C', 'C', 'C', 'C', 'C', 'C', 'C', 'C', 'C', 'C', 'C', 'C', 'C', 'C', 'C']","[831986, 832379, 832815, 833239, 833603, 833997, 834425, 834826, 835222, 835661, 836033, 836418, 836850, 837331, 837673, 838048, 838474, 838863, 839274, 839708, 840125, 840555, 840952]","[832069, 832466, 832921, 833325, 833710, 834139, 834526, 834947, 835347, 835756, 836134, 836504, 836921, 837391, 837740, 838129, 838567, 838953, 839360, 839795, 840212, 840633, 841064]","[831682, 832081, 832481, 832881, 833282, 833681, 834081, 834482, 834852, 835250, 835688, 836060, 836445, 836877, 837358, 837699, 838075, 838502, 838890, 839301, 839735, 840152, 840582, 840980]",45,R,ITM,1.1,
2,400,trial,0,39,39,39,trial,"['S', 'S', 'S', 'S', 'S', 'S', 'S', 'C', 'C', 'C', 'C', 'C', 'C', 'C', 'C', 'C', 'C', 'C', 'C', 'C', 'C', 'C', 'C']","[846972, 847332, 847692, 848077, 848472, 848850, 849259, 849644, 850095, 850501, 850909, 851300, 851671, 852043, 852462, 852888, 853274, 853669, 854113, 854504, 854925, 855296, 855695]","[847056, 847416, 847799, 848191, 848578, 848956, 849364, 849773, 850190, 850606, 851003, 851393, 851765, 852160, 852576, 852998, 853384, 853803, 854228, 854614, 855016, 855402, 855833]","[846505, 846905, 847305, 847706, 848105, 848505, 848905, 849305, 849672, 850121, 850528, 850935, 851328, 851697, 852071, 852489, 852916, 853301, 853696, 854140, 854532, 854951, 855322, 855723]",45,R,ITM,1.1,
3,600,trial,0,40,40,40,trial,"['S', 'S', 'S', 'S', 'S', 'S', 'S', 'C', 'C', 'C', 'C', 'C', 'C', 'C', 'C', 'C', 'C', 'C', 'C', 'C', 'C', 'C', 'C']","[861622, 862264, 862845, 863503, 864098, 864763, 865308, 865866, 866437, 867096, 867636, 868210, 868779, 869351, 869896, 870467, 871053, 871576, 872193, 872721, 873249, 873866, 874413]","[861678, 862342, 862956, 863580, 864193, 864844, 865421, 865983, 866565, 867191, 867784, 868341, 868938, 869510, 870059, 870636, 871173, 871723, 872266, 872835, 873349, 873980, 874509]","[861191, 861791, 862391, 862991, 863591, 864191, 864791, 865391, 865893, 866462, 867122, 867661, 868236, 868804, 869377, 869921, 870493, 871078, 871602, 872218, 872747, 873275, 873891, 874438]",45,R,ITM,1.1,
7,600,trial,0,41,41,41,trial,"['S', 'S', 'S', 'S', 'C', 'C', 'C', 'C', 'C', 'C', 'C', 'C', 'C', 'C', 'C', 'C', 'C', 'C', 'C', 'C']","[882145, 882771, 883406, 884024, 884592, 885181, 885793, 886351, 886913, 887530, 888052, 888671, 889183, 889805, 890386, 890984, 891527, 892121, 892712, 893314]","[882259, 882877, 883509, 884158, 884730, 885299, 885893, 886472, 887013, 887621, 888180, 888778, 889332, 889888, 890493, 891080, 891653, 892241, 892817, 893413]","[879847, 880446, 881046, 881646, 882246, 882846, 883446, 884046, 884619, 885208, 885821, 886378, 886939, 887558, 888080, 888697, 889209, 889833, 890413, 891012, 891554, 892148, 892740, 893340]",45,R,ITM,1.1,
3,400,trial,0,42,42,42,trial,"['S', 'S', 'S', 'S', 'S', 'S', 'S', 'C', 'C', 'C', 'C', 'C', 'C', 'C', 'C', 'C', 'C', 'C', 'C', 'C', 'C', 'C', 'C']","[901873, 902252, 902616, 902994, 903378, 903751, 904136, 904546, 904932, 905337, 905728, 906145, 906527, 906900, 907286, 907705, 908107, 908510, 908894, 909284, 909690, 910093, 910473]","[901959, 902323, 902700, 903077, 903464, 903838, 904229, 904643, 905041, 905422, 905828, 906221, 906615, 906987, 907388, 907809, 908219, 908620, 908991, 909370, 909775, 910176, 910567]","[901488, 901888, 902287, 902687, 903088, 903487, 903887, 904287, 904571, 904957, 905363, 905753, 906172, 906553, 906926, 907312, 907730, 908133, 908535, 908919, 909310, 909716, 910118, 910498]",45,R,ITM,1.1,
5,600,trial,0,43,43,43,trial,"['S', 'S', 'S', 'S', 'S', 'S', 'S', 'S', 'S', 'C', 'C', 'C', 'C', 'C', 'C', 'C', 'C', 'C', 'C', 'C', 'C', 'C', 'C', 'C', 'C']","[916404, 916945, 917576, 918134, 918742, 918842, 919333, 919433, 919916, 920507, 921065, 921633, 922249, 922772, 923305, 923824, 924337, 924904, 925477, 926025, 926543, 927102, 927629, 928145, 928675]","[916507, 917065, 917744, 918306, 918762, 918865, 919353, 919458, 920074, 920667, 921226, 921774, 922369, 922919, 923437, 923957, 924457, 925035, 925603, 926160, 926722, 927261, 927783, 928292, 928788]","[915795, 916395, 916995, 917595, 918194, 918794, 919394, 919994, 920532, 921092, 921659, 922274, 922798, 923331, 923849, 924363, 924930, 925503, 926051, 926569, 927129, 927654, 928172, 928702]",45,R,ITM,1.1,
2,600,trial,0,44,44,44,trial,"['S', 'S', 'S', 'S', 'S', 'S', 'S', 'S', 'C', 'C', 'C', 'C', 'C', 'C', 'C', 'C', 'C', 'C', 'C', 'C', 'C', 'C', 'C', 'C']","[934466, 934886, 935344, 936035, 936619, 937190, 937784, 938419, 939049, 939621, 940207, 940744, 941287, 941840, 942396, 942917, 943476, 944029, 944604, 945166, 945739, 946302, 946868, 947465]","[934538, 935009, 935517, 936192, 936813, 937381, 937945, 938536, 939153, 939743, 940285, 940846, 941396, 941940, 942505, 943034, 943589, 944134, 944727, 945253, 945766, 946391, 946973, 947571]","[934211, 934811, 935410, 936010, 936610, 937211, 937811, 938412, 939075, 939648, 940234, 940772, 941314, 941868, 942423, 942944, 943504, 944057, 944630, 945193, 945766, 946328, 946895, 947491]",45,R,ITM,1.1,
4,400,trial,0,45,45,45,trial,"['S', 'S', 'S', 'S', 'S', 'S', 'S', 'C', 'C', 'C', 'C', 'C', 'C', 'C', 'C', 'C', 'C', 'C', 'C', 'C', 'C', 'C', 'C']","[953613, 954037, 954421, 954799, 955199, 955610, 956004, 956435, 956838, 957263, 957644, 958049, 958452, 958851, 959239, 959631, 959986, 960349, 960747, 961171, 961599, 961976, 962373]","[953689, 954119, 954494, 954885, 955284, 955686, 956115, 956521, 956931, 957351, 957723, 958136, 958541, 958939, 959326, 959710, 960071, 960444, 960829, 961264, 961695, 962081, 962495]","[953223, 953621, 954021, 954421, 954821, 955222, 955621, 956021, 956461, 956865, 957289, 957670, 958074, 958478, 958876, 959264, 959656, 960012, 960375, 960773, 961198, 961625, 962001, 962399]",45,R,ITM,1.1,
6,400,trial,0,46,46,46,trial,"['S', 'S', 'S', 'S', 'S', 'S', 'S', 'C', 'C', 'C', 'C', 'C', 'C', 'C', 'C', 'C', 'C', 'C', 'C', 'C', 'C', 'C', 'C']","[968517, 968859, 969247, 969649, 970065, 970463, 970865, 971257, 971665, 972082, 972473, 972862, 973247, 973601, 974027, 974414, 974822, 975214, 975650, 976046, 976466, 976834, 977262]","[968548, 968949, 969353, 969758, 970167, 970568, 970977, 971389, 971784, 972185, 972573, 972952, 973350, 973718, 974115, 974514, 974919, 975327, 975767, 976166, 976557, 976945, 977348]","[968118, 968517, 968918, 969317, 969717, 970118, 970517, 970917, 971285, 971693, 972108, 972499, 972889, 973274, 973628, 974055, 974442, 974849, 975242, 975678, 976073, 976493, 976862, 977290]",45,R,ITM,1.1,
3,600,trial,0,47,47,47,trial,"['S', 'S', 'S', 'S', 'S', 'S', 'S', 'S', 'S', 'C', 'C', 'C', 'C', 'C', 'C', 'C', 'C', 'C', 'C', 'C', 'C', 'C', 'C', 'C', 'C']","[983069, 983492, 984040, 984664, 985213, 985838, 986374, 986990, 987090, 987627, 988272, 988814, 989438, 990012, 990522, 991083, 991639, 992121, 992651, 993163, 993685, 994174, 994714, 995237, 995765]","[983150, 983611, 984220, 984837, 985437, 986032, 986649, 987010, 987266, 987878, 988498, 989061, 989650, 990202, 990697, 991260, 991794, 992322, 992800, 993323, 993851, 994333, 994868, 995394, 995908]","[982839, 983438, 984038, 984638, 985238, 985838, 986438, 987038, 987653, 988298, 988839, 989464, 990038, 990548, 991109, 991665, 992147, 992676, 993188, 993711, 994200, 994740, 995263, 995790]",45,R,ITM,1.1,
3,400,trial,0,48,48,48,trial,"['S', 'S', 'S', 'S', 'S', 'S', 'S', 'C', 'C', 'C', 'C', 'C', 'C', 'C', 'C', 'C', 'C', 'C', 'C', 'C', 'C', 'C', 'C']","[1001799, 1002148, 1002509, 1002849, 1003260, 1003687, 1004085, 1004481, 1004887, 1005258, 1005633, 1006066, 1006471, 1006886, 1007304, 1007702, 1008073, 1008525, 1008958, 1009363, 1009786, 1010179, 1010578]","[1001870, 1002220, 1002579, 1002939, 1003361, 1003774, 1004174, 1004571, 1004968, 1005359, 1005750, 1006169, 1006588, 1007007, 1007412, 1007807, 1008202, 1008615, 1009071, 1009476, 1009906, 1010278, 1010678]","[1001331, 1001732, 1002131, 1002531, 1002931, 1003331, 1003731, 1004131, 1004507, 1004912, 1005284, 1005659, 1006092, 1006496, 1006912, 1007330, 1007727, 1008099, 1008550, 1008984, 1009389, 1009812, 1010204, 1010604]",45,R,ITM,1.1,
5,400,trial,0,49,49,49,trial,"['S', 'S', 'S', 'S', 'S', 'S', 'S', 'C', 'C', 'C', 'C', 'C', 'C', 'C', 'C', 'C', 'C', 'C', 'C', 'C', 'C', 'C', 'C']","[1016596, 1016952, 1017359, 1017742, 1018136, 1018556, 1018937, 1019343, 1019728, 1020111, 1020503, 1020936, 1021358, 1021786, 1022185, 1022554, 1022953, 1023358, 1023763, 1024149, 1024520, 1024933, 1025347]","[1016653, 1017042, 1017457, 1017848, 1018243, 1018652, 1019046, 1019432, 1019823, 1020223, 1020640, 1021043, 1021478, 1021886, 1022265, 1022665, 1023066, 1023483, 1023881, 1024234, 1024616, 1025032, 1025465]","[1016182, 1016582, 1016981, 1017381, 1017781, 1018181, 1018582, 1018981, 1019369, 1019754, 1020137, 1020528, 1020961, 1021383, 1021811, 1022211, 1022580, 1022979, 1023384, 1023789, 1024176, 1024545, 1024959, 1025374]",45,R,ITM,1.1,
7,400,trial,0,50,50,50,trial,"['S', 'S', 'S', 'S', 'S', 'S', 'S', 'C', 'C', 'C', 'C', 'C', 'C', 'C', 'C', 'C', 'C', 'C', 'C', 'C', 'C', 'C', 'C']","[1031399, 1031785, 1032211, 1032606, 1033018, 1033421, 1033820, 1034233, 1034611, 1035027, 1035452, 1035848, 1036249, 1036636, 1037017, 1037418, 1037807, 1038227, 1038646, 1039020, 1039426, 1039836, 1040204]","[1031473, 1031868, 1032302, 1032695, 1033100, 1033506, 1033921, 1034320, 1034704, 1035145, 1035568, 1035958, 1036344, 1036738, 1037146, 1037534, 1037929, 1038333, 1038726, 1039125, 1039531, 1039948, 1040329]","[1031051, 1031450, 1031851, 1032250, 1032650, 1033051, 1033450, 1033850, 1034261, 1034638, 1035055, 1035479, 1035876, 1036276, 1036662, 1037044, 1037445, 1037835, 1038255, 1038672, 1039047, 1039453, 1039863, 1040231]",45,R,ITM,1.1,
2,400,trial,0,51,51,51,trial,"['C', 'C', 'C', 'C', 'C', 'C', 'C', 'C', 'C', 'C', 'C', 'C', 'C', 'C', 'C', 'C']","[1049124, 1049508, 1049896, 1050299, 1050693, 1051096, 1051494, 1051892, 1052273, 1052666, 1053048, 1053442, 1053826, 1054218, 1054614, 1054999]","[1049187, 1049595, 1049995, 1050386, 1050790, 1051158, 1051557, 1051957, 1052353, 1052738, 1053122, 1053501, 1053921, 1054310, 1054697, 1055078]","[1045980, 1046379, 1046778, 1047179, 1047578, 1047980, 1048379, 1048778, 1049151, 1049536, 1049923, 1050326, 1050720, 1051122, 1051522, 1051919, 1052301, 1052693, 1053075, 1053469, 1053852, 1054245, 1054642, 1055027]",45,R,ITM,1.1,
7,600,trial,0,52,52,52,trial,"['C', 'C', 'C', 'C', 'C', 'C', 'C', 'C', 'C', 'C', 'C', 'C', 'C', 'C', 'C', 'C']","[1065745, 1066277, 1066829, 1067353, 1067888, 1068431, 1068941, 1069408, 1069897, 1070435, 1070982, 1071545, 1072072, 1072620, 1073201, 1073743]","[1065810, 1066348, 1066917, 1067465, 1068034, 1068564, 1069093, 1069588, 1070078, 1070623, 1071157, 1071735, 1072259, 1072797, 1073385, 1073932]","[1060529, 1061128, 1061728, 1062328, 1062928, 1063528, 1064128, 1064728, 1065772, 1066305, 1066857, 1067379, 1067915, 1068457, 1068967, 1069434, 1069925, 1070461, 1071008, 1071572, 1072100, 1072647, 1073227, 1073771]",45,R,ITM,1.1,
5,600,trial,0,53,53,53,trial,"['S', 'S', 'S', 'S', 'S', 'C', 'C', 'C', 'C', 'C', 'C', 'C', 'C', 'C', 'C', 'C', 'C', 'C', 'C', 'C', 'C']","[1081636, 1082211, 1082311, 1082783, 1083403, 1084002, 1084601, 1085158, 1085727, 1086261, 1086797, 1087339, 1087830, 1088420, 1088976, 1089496, 1090093, 1090654, 1091213, 1091756, 1092314]","[1081742, 1082231, 1082336, 1082934, 1083561, 1084180, 1084730, 1085289, 1085847, 1086403, 1086965, 1087522, 1088033, 1088580, 1089127, 1089689, 1090235, 1090782, 1091345, 1091910, 1092469]","[1079355, 1079954, 1080554, 1081154, 1081754, 1082354, 1082954, 1083554, 1084027, 1084626, 1085184, 1085753, 1086286, 1086823, 1087366, 1087856, 1088446, 1089002, 1089521, 1090118, 1090679, 1091238, 1091781, 1092339]",45,R,ITM,1.1,
6,600,trial,0,54,54,54,trial,"['S', 'S', 'S', 'S', 'S', 'S', 'C', 'C', 'C', 'C', 'C', 'C', 'C', 'C', 'C', 'C', 'C', 'C', 'C', 'C', 'C', 'C']","[1106814, 1107253, 1108783, 1109342, 1109936, 1110558, 1111181, 1111787, 1112366, 1112946, 1113489, 1114070, 1114615, 1115172, 1115722, 1116301, 1116891, 1117469, 1118060, 1118643, 1119177, 1119769]","[1106909, 1107273, 1108922, 1109505, 1110112, 1110740, 1111328, 1111919, 1112488, 1113060, 1113645, 1114236, 1114814, 1115357, 1115901, 1116485, 1117078, 1117672, 1118251, 1118934, 1119443, 1120007]","[1106428, 1107027, 1107628, 1108228, 1108828, 1109427, 1110027, 1110627, 1111208, 1111814, 1112393, 1112973, 1113516, 1114096, 1114642, 1115199, 1115749, 1116327, 1116917, 1117496, 1118087, 1118670, 1119204, 1119796]",45,R,ITM,1.1,
6,600,trial,0,55,55,55,trial,"['S', 'S', 'S', 'S', 'S', 'S', 'S', 'S', 'S', 'S', 'S', 'C', 'C', 'C', 'C', 'C', 'C', 'C', 'C', 'C', 'C', 'C', 'C', 'C', 'C', 'C', 'C']","[1125505, 1125965, 1126362, 1126945, 1127503, 1127603, 1128078, 1128623, 1128723, 1129239, 1129339, 1129858, 1130444, 1131032, 1131631, 1132219, 1132909, 1133458, 1133977, 1134507, 1135038, 1135554, 1136113, 1136662, 1137181, 1137702, 1138220]","[1125556, 1126031, 1126500, 1127136, 1127523, 1127658, 1128238, 1128643, 1128799, 1129259, 1129377, 1129996, 1130565, 1131155, 1131735, 1132340, 1133042, 1133551, 1134078, 1134606, 1135147, 1135653, 1136219, 1136739, 1137258, 1137801, 1138336]","[1125159, 1125758, 1126359, 1126959, 1127559, 1128158, 1128758, 1129358, 1129884, 1130472, 1131059, 1131659, 1132247, 1132936, 1133485, 1134005, 1134533, 1135065, 1135581, 1136140, 1136690, 1137209, 1137730, 1138246]",45,R,ITM,1.1,
2,600,trial,0,56,56,56,trial,"['S', 'S', 'S', 'S', 'S', 'S', 'S', 'C', 'C', 'C', 'C', 'C', 'C', 'C', 'C', 'C', 'C', 'C', 'C', 'C', 'C', 'C', 'C']","[1144396, 1144885, 1145463, 1146048, 1146627, 1147198, 1147734, 1148378, 1148958, 1149464, 1150000, 1150553, 1151123, 1151687, 1152247, 1152766, 1153328, 1153858, 1154486, 1154947, 1155435, 1155943, 1156491]","[1144471, 1144979, 1145559, 1146159, 1146738, 1147303, 1147889, 1148488, 1149080, 1149587, 1150123, 1150696, 1151240, 1151790, 1152346, 1152887, 1153409, 1153975, 1154549, 1155042, 1155565, 1156037, 1156579]","[1143758, 1144357, 1144958, 1145559, 1146159, 1146759, 1147359, 1147959, 1148405, 1148985, 1149492, 1150027, 1150579, 1151150, 1151715, 1152275, 1152794, 1153355, 1153886, 1154512, 1154973, 1155462, 1155971, 1156518]",45,R,ITM,1.1,
2,400,trial,0,57,57,57,trial,"['S', 'S', 'S', 'S', 'S', 'S', 'S', 'C', 'C', 'C', 'C', 'C', 'C', 'C', 'C', 'C', 'C', 'C', 'C', 'C', 'C', 'C', 'C']","[1162667, 1163073, 1163460, 1163815, 1164205, 1164613, 1165018, 1165412, 1165775, 1166212, 1166604, 1167009, 1167377, 1167757, 1168159, 1168564, 1168983, 1169363, 1169803, 1170178, 1170615, 1171003, 1171346]","[1162748, 1163130, 1163547, 1163902, 1164295, 1164713, 1165104, 1165526, 1165877, 1166304, 1166717, 1167093, 1167488, 1167882, 1168246, 1168655, 1169087, 1169467, 1169906, 1170272, 1170706, 1171101, 1171460]","[1162254, 1162654, 1163054, 1163453, 1163854, 1164254, 1164655, 1165056, 1165438, 1165802, 1166238, 1166630, 1167037, 1167405, 1167784, 1168186, 1168591, 1169009, 1169391, 1169829, 1170205, 1170641, 1171031, 1171373]",45,R,ITM,1.1,
7,400,trial,0,58,58,58,trial,"['S', 'S', 'S', 'S', 'C', 'C', 'C', 'C', 'C', 'C', 'C', 'C', 'C', 'C', 'C', 'C', 'C', 'C', 'C', 'C']","[1178669, 1179026, 1179418, 1179853, 1180255, 1180655, 1181054, 1181438, 1181836, 1182218, 1182641, 1183066, 1183466, 1183904, 1184283, 1184699, 1185090, 1185540, 1185893, 1186254]","[1178732, 1179112, 1179524, 1179933, 1180345, 1180733, 1181125, 1181508, 1181914, 1182310, 1182717, 1183137, 1183554, 1183983, 1184369, 1184779, 1185180, 1185611, 1185965, 1186348]","[1177064, 1177463, 1177864, 1178264, 1178664, 1179064, 1179464, 1179865, 1180281, 1180683, 1181081, 1181466, 1181863, 1182245, 1182667, 1183093, 1183493, 1183931, 1184310, 1184726, 1185117, 1185567, 1185921, 1186282]",45,R,ITM,1.1,
5,400,trial,0,59,59,59,trial,"['S', 'S', 'S', 'S', 'S', 'S', 'S', 'C', 'C', 'C', 'C', 'C', 'C', 'C', 'C', 'C', 'C', 'C', 'C', 'C', 'C', 'C', 'C']","[1191966, 1192357, 1192764, 1193190, 1193573, 1194003, 1194384, 1194787, 1195167, 1195536, 1195891, 1196268, 1196610, 1196985, 1197379, 1197774, 1198094, 1198475, 1198834, 1199180, 1199525, 1199894, 1200329]","[1192034, 1192422, 1192784, 1193210, 1193593, 1194090, 1194479, 1194868, 1195254, 1195623, 1195965, 1196322, 1196695, 1197071, 1197473, 1197841, 1198187, 1198572, 1198945, 1199281, 1199638, 1200006, 1200392]","[1191635, 1192034, 1192434, 1192835, 1193234, 1193634, 1194034, 1194434, 1194813, 1195193, 1195563, 1195917, 1196295, 1196636, 1197011, 1197405, 1197800, 1198119, 1198500, 1198860, 1199207, 1199551, 1199920, 1200355]",45,R,ITM,1.1,
4,400,trial,0,60,60,60,trial,"['S', 'S', 'S', 'S', 'C', 'C', 'C', 'C', 'C', 'C', 'C', 'C', 'C', 'C', 'C', 'C', 'C', 'C', 'C', 'C']","[1207374, 1207748, 1208147, 1208537, 1208954, 1209372, 1209777, 1210180, 1210605, 1211021, 1211401, 1211792, 1212181, 1212557, 1212919, 1213281, 1213682, 1214028, 1214407, 1214786]","[1207451, 1207768, 1208243, 1208557, 1209062, 1209468, 1209866, 1210271, 1210683, 1211107, 1211478, 1211875, 1212277, 1212660, 1213016, 1213367, 1213774, 1214134, 1214516, 1214891]","[1205819, 1206218, 1206619, 1207018, 1207418, 1207818, 1208218, 1208619, 1208980, 1209399, 1209803, 1210206, 1210631, 1211046, 1211426, 1211817, 1212207, 1212582, 1212945, 1213306, 1213708, 1214054, 1214434, 1214812]",45,R,ITM,1.1,
4,400,trial,0,61,61,61,trial,"['S', 'S', 'S', 'S', 'C', 'C', 'C', 'C', 'C', 'C', 'C', 'C', 'C', 'C', 'C', 'C', 'C', 'C', 'C', 'C']","[1221921, 1222318, 1222722, 1223128, 1223542, 1223948, 1224349, 1224787, 1225192, 1225591, 1225982, 1226386, 1226734, 1227141, 1227536, 1227951, 1228345, 1228723, 1229092, 1229500]","[1222000, 1222413, 1222829, 1223237, 1223630, 1224042, 1224469, 1224890, 1225284, 1225684, 1226091, 1226477, 1226849, 1227253, 1227643, 1228024, 1228444, 1228810, 1229211, 1229599]","[1220381, 1220782, 1221181, 1221581, 1221981, 1222381, 1222781, 1223181, 1223568, 1223973, 1224375, 1224813, 1225218, 1225618, 1226008, 1226412, 1226760, 1227166, 1227561, 1227977, 1228370, 1228748, 1229118, 1229526]",45,R,ITM,1.1,
4,600,trial,0,62,62,62,trial,"['S', 'S', 'S', 'S', 'S', 'S', 'S', 'S', 'S', 'S', 'C', 'C', 'C', 'C', 'C', 'C', 'C', 'C', 'C', 'C', 'C', 'C', 'C', 'C', 'C', 'C', 'C']","[1235808, 1236347, 1236911, 1237493, 1238103, 1238203, 1238719, 1238819, 1239304, 1239404, 1239910, 1240548, 1241157, 1241263, 1241735, 1242306, 1242930, 1243560, 1244177, 1244760, 1245345, 1245914, 1246541, 1247128, 1247663, 1248192, 1248753]","[1235884, 1236483, 1237094, 1237715, 1238123, 1238331, 1238739, 1238962, 1239324, 1239536, 1240178, 1240808, 1241183, 1241340, 1241940, 1242590, 1243196, 1243765, 1244396, 1244976, 1245608, 1246198, 1246766, 1247307, 1247840, 1248360, 1248929]","[1235119, 1235719, 1236319, 1236919, 1237519, 1238119, 1238719, 1239319, 1239936, 1240573, 1241183, 1241761, 1242332, 1242955, 1243586, 1244203, 1244785, 1245371, 1245939, 1246567, 1247155, 1247688, 1248219, 1248779]",45,R,ITM,1.1,
2,600,trial,0,63,63,63,trial,"['S', 'S', 'S', 'S', 'S', 'S', 'S', 'S', 'C', 'C', 'C', 'C', 'C', 'C', 'C', 'C', 'C', 'C', 'C', 'C', 'C', 'C', 'C', 'C']","[1254938, 1255588, 1256128, 1256724, 1257320, 1257420, 1257903, 1258532, 1259113, 1259695, 1260271, 1260828, 1261423, 1262019, 1262567, 1263153, 1263758, 1264294, 1264870, 1265422, 1265982, 1266530, 1267085, 1267654]","[1254987, 1255665, 1256247, 1256818, 1257340, 1257440, 1258009, 1258648, 1259239, 1259797, 1260387, 1260942, 1261513, 1262108, 1262669, 1263267, 1263845, 1264407, 1264954, 1265562, 1266062, 1266630, 1267210, 1267760]","[1254438, 1255038, 1255639, 1256238, 1256839, 1257439, 1258039, 1258638, 1259140, 1259721, 1260299, 1260855, 1261451, 1262047, 1262595, 1263180, 1263785, 1264322, 1264897, 1265449, 1266009, 1266556, 1267112, 1267681]",45,R,ITM,1.1,
4,600,trial,0,64,64,64,trial,"['S', 'S', 'S', 'S', 'S', 'S', 'S', 'S', 'S', 'S', 'C', 'C', 'C', 'C', 'C', 'C', 'C', 'C', 'C', 'C', 'C', 'C', 'C', 'C', 'C', 'C', 'C']","[1273437, 1273877, 1274203, 1274778, 1275332, 1275432, 1275951, 1276591, 1276691, 1277178, 1277736, 1278253, 1278812, 1279342, 1279886, 1280422, 1280897, 1281380, 1281485, 1281874, 1282423, 1282965, 1283400, 1283931, 1284448, 1284971, 1285490]","[1273457, 1273897, 1274296, 1274884, 1275352, 1275469, 1276089, 1276611, 1276747, 1277338, 1277893, 1278400, 1278837, 1279475, 1279990, 1280503, 1280989, 1281405, 1281505, 1282036, 1282529, 1283075, 1283509, 1284044, 1284569, 1285062, 1285583]","[1273029, 1273629, 1274229, 1274829, 1275429, 1276029, 1276630, 1277230, 1277763, 1278278, 1278837, 1279368, 1279912, 1280448, 1280923, 1281405, 1281900, 1282449, 1282991, 1283427, 1283957, 1284473, 1284997, 1285516]",45,R,ITM,1.1,
7,600,trial,0,65,65,65,trial,"['S', 'S', 'S', 'S', 'C', 'C', 'C', 'C', 'C', 'C', 'C', 'C', 'C', 'C', 'C', 'C', 'C', 'C', 'C', 'C']","[1291387, 1293988, 1294559, 1295192, 1295809, 1296463, 1297061, 1297654, 1298233, 1298783, 1299385, 1299977, 1300564, 1301159, 1301716, 1302305, 1302895, 1303499, 1304097, 1304705]","[1291463, 1294089, 1294653, 1295312, 1295932, 1296587, 1297180, 1297772, 1298373, 1298934, 1299529, 1300116, 1300727, 1301288, 1301879, 1302453, 1303065, 1303642, 1304250, 1304871]","[1291028, 1291627, 1292227, 1292827, 1293427, 1294027, 1294627, 1295227, 1295836, 1296490, 1297088, 1297681, 1298259, 1298809, 1299412, 1300004, 1300592, 1301187, 1301744, 1302332, 1302922, 1303526, 1304124, 1304731]",45,R,ITM,1.1,
3,400,trial,0,66,66,66,trial,"['S', 'C', 'C', 'C', 'C', 'C', 'C', 'C', 'C', 'C', 'C', 'C', 'C', 'C', 'C', 'C', 'C']","[1313079, 1313478, 1313867, 1314248, 1314644, 1315023, 1315393, 1315814, 1316210, 1316568, 1316975, 1317355, 1317746, 1318201, 1318631, 1319031, 1319427]","[1313156, 1313569, 1313913, 1314325, 1314718, 1315049, 1315485, 1315901, 1316294, 1316676, 1317088, 1317454, 1317772, 1318226, 1318692, 1319117, 1319499]","[1310050, 1310450, 1310851, 1311250, 1311650, 1312050, 1312450, 1312850, 1313504, 1313893, 1314274, 1314670, 1315049, 1315419, 1315840, 1316236, 1316593, 1317001, 1317381, 1317772, 1318226, 1318658, 1319057, 1319452]",45,R,ITM,1.1,
7,600,trial,0,67,67,67,trial,"['S', 'S', 'S', 'S', 'S', 'S', 'S', 'S', 'S', 'C', 'C', 'C', 'C', 'C', 'C', 'C', 'C', 'C', 'C', 'C', 'C', 'C', 'C', 'C', 'C']","[1325473, 1326041, 1326688, 1327273, 1327908, 1328008, 1328460, 1328560, 1328993, 1329576, 1330149, 1330733, 1331289, 1331771, 1332294, 1332808, 1333291, 1333808, 1334318, 1334865, 1335394, 1335938, 1336501, 1337033, 1337566]","[1325561, 1326167, 1326825, 1327436, 1327928, 1328051, 1328480, 1328630, 1329190, 1329752, 1330347, 1330907, 1331403, 1331919, 1332415, 1332905, 1333423, 1333931, 1334473, 1334986, 1335546, 1336077, 1336623, 1337139, 1337679]","[1324873, 1325472, 1326072, 1326672, 1327272, 1327873, 1328473, 1329073, 1329604, 1330176, 1330760, 1331315, 1331799, 1332321, 1332836, 1333317, 1333835, 1334344, 1334892, 1335421, 1335965, 1336527, 1337061, 1337593]",45,R,ITM,1.1,
5,400,trial,0,68,68,68,trial,"['C', 'C', 'C', 'C', 'C', 'C', 'C', 'C', 'C', 'C', 'C', 'C', 'C', 'C', 'C', 'C']","[1346510, 1346843, 1347222, 1347581, 1347977, 1348393, 1348767, 1349151, 1349525, 1349929, 1350333, 1350717, 1351096, 1351457, 1351852, 1352272]","[1346578, 1346960, 1347326, 1347713, 1348089, 1348478, 1348848, 1349221, 1349616, 1350003, 1350414, 1350802, 1351181, 1351545, 1351969, 1352369]","[1343348, 1343748, 1344147, 1344547, 1344947, 1345347, 1345747, 1346147, 1346536, 1346869, 1347249, 1347607, 1348002, 1348419, 1348794, 1349178, 1349552, 1349956, 1350359, 1350744, 1351121, 1351483, 1351877, 1352298]",45,R,ITM,1.1,
6,400,trial,0,69,69,69,trial,"['S', 'C', 'C', 'C', 'C', 'C', 'C', 'C', 'C', 'C', 'C', 'C', 'C', 'C', 'C', 'C', 'C']","[1361050, 1361427, 1361787, 1362173, 1362553, 1362961, 1363361, 1363751, 1364126, 1364552, 1364957, 1365369, 1365748, 1366135, 1366574, 1366991, 1367441]","[1361134, 1361509, 1361896, 1362276, 1362676, 1363065, 1363454, 1363862, 1364260, 1364668, 1365082, 1365478, 1365862, 1366251, 1366683, 1367071, 1367508]","[1358083, 1358481, 1358881, 1359282, 1359681, 1360081, 1360481, 1360881, 1361454, 1361814, 1362201, 1362580, 1362988, 1363388, 1363778, 1364154, 1364579, 1364984, 1365396, 1365775, 1366163, 1366600, 1367019, 1367468]",45,R,ITM,1.1,
5,600,trial,0,70,70,70,trial,"['C', 'C', 'C', 'C', 'C', 'C', 'C', 'C', 'C', 'C', 'C', 'C', 'C', 'C', 'C', 'C']","[1377563, 1378055, 1378642, 1379173, 1379741, 1380226, 1380745, 1381313, 1381869, 1382421, 1382964, 1383553, 1384091, 1384723, 1385223, 1385748]","[1377678, 1378187, 1378740, 1379305, 1379830, 1380357, 1380901, 1381449, 1381996, 1382588, 1383113, 1383702, 1384270, 1384841, 1385344, 1385851]","[1372959, 1373558, 1374158, 1374758, 1375358, 1375959, 1376559, 1377159, 1377589, 1378080, 1378668, 1379198, 1379767, 1380252, 1380770, 1381339, 1381895, 1382447, 1382989, 1383579, 1384117, 1384750, 1385248, 1385774]",45,R,ITM,1.1,
6,400,trial,0,71,71,71,trial,"['B', 'S', 'S', 'S', 'S', 'S', 'S', 'S', 'C', 'C', 'C', 'C', 'C', 'C', 'C', 'C', 'C', 'C', 'C', 'C', 'C', 'C', 'C', 'C']","[1391093, 1391580, 1391953, 1392337, 1392689, 1393075, 1393489, 1393930, 1394331, 1394733, 1395099, 1395477, 1395917, 1396328, 1396721, 1397098, 1397492, 1397884, 1398281, 1398713, 1399110, 1399510, 1399943, 1400339]","[1391173, 1391657, 1392026, 1392393, 1392771, 1393172, 1393595, 1394027, 1394392, 1394827, 1395204, 1395587, 1396020, 1396445, 1396819, 1397213, 1397603, 1397994, 1398414, 1398825, 1399220, 1399601, 1400037, 1400434]","[1391107, 1391505, 1391905, 1392306, 1392705, 1393105, 1393505, 1393905, 1394358, 1394760, 1395127, 1395504, 1395945, 1396355, 1396748, 1397125, 1397519, 1397911, 1398307, 1398739, 1399138, 1399537, 1399969, 1400366]",45,R,ITM,1.1,
7,400,trial,0,72,72,72,trial,"['S', 'S', 'S', 'S', 'S', 'S', 'S', 'C', 'C', 'C', 'C', 'C', 'C', 'C', 'C', 'C', 'C', 'C', 'C', 'C', 'C', 'C', 'C']","[1406203, 1406585, 1406961, 1407358, 1407789, 1408172, 1408559, 1408926, 1409282, 1409686, 1410052, 1410424, 1410774, 1411162, 1411526, 1411883, 1412224, 1412550, 1412921, 1413324, 1413723, 1414148, 1414512]","[1406283, 1406637, 1406981, 1407454, 1407876, 1408277, 1408662, 1409018, 1409381, 1409772, 1410138, 1410511, 1410888, 1411259, 1411609, 1411965, 1412321, 1412665, 1413033, 1413430, 1413833, 1414251, 1414619]","[1405758, 1406157, 1406558, 1406958, 1407358, 1407758, 1408158, 1408559, 1408953, 1409308, 1409714, 1410079, 1410451, 1410800, 1411189, 1411554, 1411909, 1412250, 1412578, 1412948, 1413351, 1413749, 1414174, 1414540]",45,R,ITM,1.1,
3,600,trial,0,73,73,73,trial,"['S', 'S', 'C', 'C', 'C', 'C', 'C', 'C', 'C', 'C', 'C', 'C', 'C', 'C', 'C', 'C', 'C', 'C', 'C', 'C']","[1421103, 1422472, 1424764, 1425380, 1425934, 1426514, 1427069, 1427659, 1428235, 1428789, 1428894, 1429335, 1429897, 1430450, 1431041, 1431605, 1432168, 1432275, 1432752, 1433344]","[1421123, 1422492, 1424873, 1425484, 1426037, 1426614, 1427190, 1427786, 1428261, 1428814, 1428914, 1429456, 1430041, 1430618, 1431229, 1431763, 1432194, 1432332, 1432928, 1433530]","[1420201, 1420801, 1421401, 1422001, 1422600, 1423200, 1423800, 1424400, 1424790, 1425405, 1425959, 1426540, 1427095, 1427685, 1428260, 1428814, 1429360, 1429922, 1430475, 1431066, 1431630, 1432194, 1432777, 1433369]",45,R,ITM,1.1,
3,600,trial,0,74,74,74,trial,"['C', 'C', 'C', 'C', 'C', 'C', 'C', 'C', 'C', 'C', 'C', 'C', 'C', 'C', 'C', 'C']","[1443332, 1443902, 1444470, 1444971, 1445575, 1446119, 1446662, 1447263, 1447882, 1448457, 1449038, 1449637, 1450231, 1450857, 1451410, 1451981]","[1443434, 1444001, 1444582, 1445104, 1445703, 1446277, 1446851, 1447409, 1448020, 1448638, 1449239, 1449831, 1450398, 1450973, 1451567, 1452153]","[1438739, 1439338, 1439938, 1440538, 1441138, 1441738, 1442338, 1442938, 1443357, 1443928, 1444496, 1444997, 1445601, 1446145, 1446687, 1447288, 1447908, 1448482, 1449064, 1449663, 1450257, 1450883, 1451436, 1452007]",45,R,ITM,1.1,
5,600,trial,0,75,75,75,trial,"['S', 'S', 'S', 'S', 'C', 'C', 'C', 'C', 'C', 'C', 'C', 'C', 'C', 'C', 'C', 'C', 'C', 'C', 'C', 'C']","[1459970, 1460618, 1461172, 1461780, 1462378, 1462922, 1463468, 1464078, 1464639, 1465224, 1465766, 1466295, 1466855, 1467456, 1468038, 1468534, 1469084, 1469613, 1470183, 1470739]","[1460076, 1460685, 1461255, 1461898, 1462478, 1463031, 1463578, 1464176, 1464767, 1465346, 1465868, 1466450, 1467018, 1467577, 1468152, 1468682, 1469231, 1469736, 1470303, 1470852]","[1457655, 1458255, 1458855, 1459456, 1460056, 1460656, 1461255, 1461855, 1462404, 1462947, 1463493, 1464103, 1464665, 1465249, 1465793, 1466320, 1466881, 1467482, 1468063, 1468561, 1469110, 1469638, 1470209, 1470765]",45,R,ITM,1.1,
3,400,trial,0,76,76,76,trial,"['C', 'C', 'C', 'C', 'C', 'C', 'C', 'C', 'C', 'C', 'C', 'C', 'C', 'C', 'C', 'C']","[1479378, 1479787, 1480201, 1480586, 1481044, 1481469, 1481874, 1482291, 1482661, 1483080, 1483479, 1483882, 1484264, 1484621, 1484995, 1485423]","[1479438, 1479865, 1480284, 1480690, 1481129, 1481547, 1481970, 1482393, 1482779, 1483158, 1483573, 1483971, 1484355, 1484727, 1485108, 1485514]","[1476259, 1476659, 1477059, 1477459, 1477859, 1478259, 1478660, 1479059, 1479404, 1479813, 1480226, 1480611, 1481070, 1481495, 1481900, 1482316, 1482687, 1483106, 1483504, 1483908, 1484290, 1484647, 1485021, 1485449]",45,R,ITM,1.1,
2,400,trial,0,77,77,77,trial,"['C', 'C', 'C', 'C', 'C', 'C', 'C', 'C', 'C', 'C', 'C', 'C', 'C', 'C', 'C', 'C']","[1494238, 1494639, 1495026, 1495433, 1495820, 1496243, 1496630, 1496980, 1497351, 1497782, 1498199, 1498620, 1499036, 1499437, 1499890, 1500307]","[1494291, 1494699, 1495110, 1495511, 1495920, 1496270, 1496705, 1497077, 1497454, 1497891, 1498298, 1498697, 1499125, 1499535, 1499994, 1500414]","[1491074, 1491472, 1491872, 1492274, 1492672, 1493073, 1493472, 1493873, 1494264, 1494666, 1495054, 1495459, 1495846, 1496270, 1496656, 1497008, 1497378, 1497809, 1498226, 1498648, 1499064, 1499464, 1499917, 1500335]",45,R,ITM,1.1,
2,600,trial,0,78,78,78,trial,"['S', 'S', 'S', 'S', 'S', 'S', 'S', 'C', 'C', 'C', 'C', 'C', 'C', 'C', 'C', 'C', 'C', 'C', 'C', 'C', 'C', 'C', 'C']","[1506536, 1507218, 1507804, 1508470, 1509030, 1509597, 1510172, 1510728, 1511211, 1511725, 1512292, 1512834, 1513331, 1513853, 1514418, 1514974, 1515542, 1516036, 1516561, 1517054, 1517584, 1518121, 1518643]","[1506589, 1507301, 1507895, 1508558, 1509050, 1509671, 1510285, 1510841, 1511351, 1511873, 1512440, 1512978, 1513495, 1514006, 1514575, 1515112, 1515695, 1516204, 1516695, 1517214, 1517742, 1518299, 1518826]","[1506081, 1506681, 1507280, 1507881, 1508481, 1509082, 1509682, 1510280, 1510755, 1511237, 1511751, 1512318, 1512861, 1513359, 1513880, 1514445, 1515001, 1515569, 1516063, 1516588, 1517080, 1517612, 1518147, 1518669]",45,R,ITM,1.1,
7,400,trial,0,79,79,79,trial,"['S', 'S', 'S', 'S', 'S', 'S', 'C', 'C', 'C', 'C', 'C', 'C', 'C', 'C', 'C', 'C', 'C', 'C', 'C', 'C', 'C', 'C']","[1525116, 1525518, 1525910, 1526298, 1526702, 1527097, 1527515, 1527896, 1528333, 1528751, 1529135, 1529573, 1529964, 1530391, 1530797, 1531218, 1531652, 1532039, 1532438, 1532865, 1533270, 1533701]","[1525188, 1525606, 1526007, 1526387, 1526774, 1527186, 1527612, 1528023, 1528431, 1528834, 1529228, 1529667, 1530103, 1530502, 1530931, 1531320, 1531760, 1532131, 1532550, 1532956, 1533400, 1533826]","[1524298, 1524698, 1525097, 1525497, 1525897, 1526297, 1526697, 1527097, 1527541, 1527923, 1528360, 1528778, 1529162, 1529601, 1529991, 1530419, 1530823, 1531245, 1531678, 1532066, 1532466, 1532893, 1533296, 1533727]",45,R,ITM,1.1,
7,400,trial,0,80,80,80,trial,"['S', 'S', 'S', 'S', 'S', 'S', 'S', 'C', 'C', 'C', 'C', 'C', 'C', 'C', 'C', 'C', 'C', 'C', 'C', 'C', 'C', 'C', 'C']","[1539665, 1540086, 1540542, 1540939, 1541345, 1541768, 1542155, 1542553, 1542944, 1543326, 1543741, 1544128, 1544505, 1544911, 1545303, 1545684, 1546006, 1546382, 1546776, 1547133, 1547467, 1547803, 1548176]","[1539747, 1540192, 1540643, 1541042, 1541438, 1541854, 1542244, 1542633, 1543044, 1543450, 1543863, 1544219, 1544593, 1545018, 1545394, 1545781, 1546121, 1546488, 1546876, 1547243, 1547582, 1547902, 1548295]","[1539368, 1539767, 1540167, 1540568, 1540967, 1541367, 1541768, 1542168, 1542580, 1542972, 1543353, 1543768, 1544156, 1544531, 1544938, 1545329, 1545712, 1546034, 1546409, 1546804, 1547160, 1547494, 1547830, 1548203]",45,R,ITM,1.1,
5,600,trial,0,81,81,81,trial,"['S', 'S', 'S', 'S', 'S', 'S', 'C', 'C', 'C', 'C', 'C', 'C', 'C', 'C', 'C', 'C', 'C', 'C', 'C', 'C', 'C', 'C']","[1554959, 1555378, 1555935, 1556513, 1557212, 1557832, 1558534, 1559114, 1559556, 1560066, 1560572, 1561050, 1561551, 1562053, 1562535, 1563045, 1563502, 1564013, 1564464, 1564960, 1565449, 1565981]","[1554979, 1555398, 1556031, 1556620, 1557291, 1557915, 1558614, 1559195, 1559671, 1560190, 1560698, 1561196, 1561691, 1562199, 1562701, 1563179, 1563657, 1564173, 1564606, 1565116, 1565581, 1566090]","[1553591, 1554191, 1554791, 1555391, 1555991, 1556591, 1557191, 1557791, 1558559, 1559140, 1559581, 1560091, 1560598, 1561075, 1561578, 1562080, 1562561, 1563072, 1563528, 1564039, 1564489, 1564987, 1565474, 1566008]",45,R,ITM,1.1,
5,600,trial,0,82,82,82,trial,"['S', 'S', 'S', 'S', 'S', 'S', 'S', 'C', 'C', 'C', 'C', 'C', 'C', 'C', 'C', 'C', 'C', 'C', 'C', 'C', 'C', 'C', 'C']","[1572072, 1572586, 1573158, 1573728, 1574312, 1574903, 1575491, 1576127, 1576708, 1577265, 1577822, 1578368, 1578925, 1579505, 1580032, 1580584, 1581190, 1581760, 1582311, 1582863, 1583417, 1583982, 1584579]","[1572166, 1572710, 1573289, 1573897, 1574480, 1575083, 1575718, 1576348, 1576889, 1577432, 1577996, 1578560, 1579160, 1579701, 1580262, 1580823, 1581459, 1581970, 1582520, 1583113, 1583648, 1584214, 1584801]","[1571533, 1572132, 1572732, 1573332, 1573933, 1574533, 1575133, 1575733, 1576153, 1576733, 1577291, 1577848, 1578393, 1578950, 1579531, 1580057, 1580610, 1581215, 1581786, 1582337, 1582888, 1583442, 1584008, 1584606]",45,R,ITM,1.1,
6,600,trial,0,83,83,83,trial,"['S', 'S', 'S', 'S', 'S', 'S', 'C', 'C', 'C', 'C', 'C', 'C', 'C', 'C', 'C', 'C', 'C', 'C', 'C', 'C', 'C', 'C']","[1591277, 1591880, 1592441, 1592992, 1593590, 1594193, 1594787, 1595365, 1596008, 1596567, 1597108, 1597633, 1598179, 1598760, 1599345, 1599925, 1600402, 1601043, 1601585, 1602118, 1602712, 1603286]","[1591399, 1592009, 1592567, 1593153, 1593742, 1594404, 1594990, 1595604, 1596140, 1596699, 1597231, 1597789, 1598332, 1598911, 1599472, 1600051, 1600548, 1601144, 1601678, 1602235, 1602798, 1603387]","[1590121, 1590721, 1591321, 1591921, 1592521, 1593121, 1593721, 1594321, 1594814, 1595392, 1596035, 1596594, 1597134, 1597660, 1598205, 1598787, 1599372, 1599952, 1600429, 1601071, 1601611, 1602145, 1602739, 1603312]",45,R,ITM,1.1,
2,400,trial,0,84,84,84,trial,"['S', 'S', 'S', 'S', 'S', 'S', 'S', 'S', 'C', 'C', 'C', 'C', 'C', 'C', 'C', 'C', 'C', 'C', 'C', 'C', 'C', 'C', 'C', 'C']","[1609263, 1609667, 1610102, 1610510, 1610897, 1611254, 1611684, 1611784, 1612108, 1612527, 1612930, 1613317, 1613701, 1614117, 1614527, 1614948, 1615389, 1615771, 1616140, 1616537, 1616999, 1617366, 1617772, 1618229]","[1609368, 1609757, 1610188, 1610596, 1610991, 1611354, 1611704, 1611808, 1612199, 1612614, 1613024, 1613421, 1613827, 1614206, 1614646, 1615047, 1615468, 1615872, 1616264, 1616658, 1617026, 1617459, 1617800, 1618315]","[1608925, 1609324, 1609724, 1610124, 1610523, 1610925, 1611323, 1611724, 1612135, 1612555, 1612956, 1613344, 1613727, 1614145, 1614555, 1614976, 1615417, 1615799, 1616166, 1616564, 1617026, 1617393, 1617800, 1618256]",45,R,ITM,1.1,
2,400,trial,0,85,85,85,trial,"['S', 'S', 'S', 'S', 'S', 'S', 'S', 'C', 'C', 'C', 'C', 'C', 'C', 'C', 'C', 'C', 'C', 'C', 'C', 'C', 'C', 'C', 'C']","[1624084, 1624445, 1624816, 1625209, 1625631, 1626032, 1626392, 1626808, 1627215, 1627597, 1628012, 1628422, 1628798, 1629229, 1629633, 1630030, 1630371, 1630803, 1631156, 1631553, 1631956, 1632364, 1632744]","[1624104, 1624511, 1624910, 1625313, 1625736, 1626140, 1626507, 1626917, 1627320, 1627715, 1628123, 1628534, 1628931, 1629316, 1629736, 1630143, 1630495, 1630894, 1631282, 1631675, 1632090, 1632485, 1632873]","[1623631, 1624031, 1624431, 1624832, 1625231, 1625630, 1626031, 1626430, 1626835, 1627243, 1627625, 1628039, 1628449, 1628826, 1629256, 1629660, 1630058, 1630399, 1630831, 1631183, 1631581, 1631983, 1632391, 1632771]",45,R,ITM,1.1,
4,400,trial,0,86,86,86,trial,"['S', 'S', 'S', 'S', 'S', 'S', 'C', 'C', 'C', 'C', 'C', 'C', 'C', 'C', 'C', 'C', 'C', 'C', 'C', 'C', 'C', 'C']","[1639303, 1639613, 1639981, 1640312, 1640718, 1641109, 1641569, 1641929, 1642368, 1642772, 1643184, 1643592, 1643999, 1644410, 1644808, 1645237, 1645658, 1646062, 1646490, 1646864, 1647263, 1647707]","[1639323, 1639674, 1640001, 1640425, 1640828, 1641216, 1641653, 1642022, 1642460, 1642896, 1643299, 1643708, 1644112, 1644531, 1644932, 1645366, 1645775, 1646195, 1646580, 1647019, 1647407, 1647867]","[1638346, 1638746, 1639145, 1639545, 1639945, 1640345, 1640745, 1641145, 1641594, 1641955, 1642394, 1642798, 1643210, 1643618, 1644025, 1644437, 1644833, 1645262, 1645683, 1646089, 1646517, 1646889, 1647289, 1647732]",45,R,ITM,1.1,
2,600,trial,0,87,87,87,trial,"['C', 'C', 'C', 'C', 'C', 'C', 'C', 'C', 'C', 'C', 'C', 'C', 'C', 'C', 'C', 'C']","[1657880, 1658424, 1658875, 1659394, 1659925, 1660421, 1660925, 1661448, 1661990, 1662483, 1662980, 1663488, 1663966, 1664482, 1665011, 1665571]","[1657908, 1658506, 1659013, 1659524, 1660038, 1660554, 1661060, 1661583, 1662129, 1662602, 1663119, 1663599, 1664068, 1664615, 1665148, 1665705]","[1653256, 1653854, 1654454, 1655054, 1655655, 1656254, 1656854, 1657454, 1657908, 1658451, 1658902, 1659421, 1659953, 1660448, 1660953, 1661474, 1662018, 1662511, 1663007, 1663514, 1663992, 1664509, 1665039, 1665598]",45,R,ITM,1.1,
6,400,trial,0,88,88,88,trial,"['S', 'S', 'S', 'S', 'S', 'S', 'C', 'C', 'C', 'C', 'C', 'C', 'C', 'C', 'C', 'C', 'C', 'C', 'C', 'C', 'C', 'C']","[1672024, 1672414, 1672767, 1673177, 1673622, 1674066, 1674460, 1674869, 1675322, 1675727, 1676143, 1676551, 1676974, 1677385, 1677804, 1678179, 1678601, 1679029, 1679422, 1679850, 1680247, 1680663]","[1672088, 1672489, 1672872, 1673299, 1673732, 1674163, 1674572, 1674995, 1675424, 1675837, 1676243, 1676654, 1677058, 1677475, 1677891, 1678292, 1678696, 1679135, 1679508, 1679919, 1680324, 1680779]","[1671212, 1671610, 1672010, 1672411, 1672810, 1673210, 1673610, 1674010, 1674487, 1674896, 1675350, 1675754, 1676171, 1676577, 1677000, 1677412, 1677831, 1678205, 1678627, 1679055, 1679449, 1679877, 1680274, 1680690]",45,R,ITM,1.1,
6,400,trial,0,89,89,89,trial,"['S', 'S', 'S', 'S', 'S', 'S', 'C', 'C', 'C', 'C', 'C', 'C', 'C', 'C', 'C', 'C', 'C', 'C', 'C', 'C', 'C', 'C']","[1686748, 1687122, 1687529, 1687956, 1688380, 1688783, 1689225, 1689671, 1690086, 1690503, 1690913, 1691321, 1691757, 1692170, 1692613, 1693024, 1693417, 1693838, 1694274, 1694744, 1695204, 1695618]","[1686768, 1687209, 1687633, 1688065, 1688481, 1688911, 1689322, 1689781, 1690184, 1690601, 1691005, 1691401, 1691841, 1692270, 1692648, 1693132, 1693506, 1693956, 1694390, 1694862, 1695314, 1695689]","[1685981, 1686380, 1686780, 1687180, 1687580, 1687981, 1688380, 1688780, 1689252, 1689698, 1690113, 1690529, 1690940, 1691347, 1691784, 1692197, 1692641, 1693050, 1693444, 1693864, 1694301, 1694771, 1695230, 1695644]",45,R,ITM,1.1,
4,600,trial,0,90,90,90,trial,"['S', 'S', 'S', 'S', 'S', 'S', 'S', 'S', 'C', 'C', 'C', 'C', 'C', 'C', 'C', 'C', 'C', 'C', 'C', 'C', 'C', 'C', 'C', 'C']","[1701806, 1702136, 1702598, 1703232, 1703804, 1704393, 1704972, 1705553, 1706125, 1706682, 1707198, 1707694, 1708227, 1708735, 1709217, 1709713, 1710210, 1710709, 1711223, 1711717, 1712206, 1712723, 1713255, 1713745]","[1701826, 1702232, 1702789, 1703408, 1703995, 1704612, 1705186, 1705736, 1706279, 1706810, 1707341, 1707829, 1708348, 1708852, 1709356, 1709857, 1710357, 1710855, 1711367, 1711883, 1712367, 1712868, 1713384, 1713888]","[1701416, 1702017, 1702617, 1703217, 1703816, 1704416, 1705016, 1705616, 1706150, 1706707, 1707224, 1707720, 1708253, 1708761, 1709244, 1709739, 1710235, 1710735, 1711249, 1711744, 1712232, 1712749, 1713281, 1713771]",45,R,ITM,1.1,
7,600,trial,0,91,91,91,trial,"['S', 'S', 'S', 'S', 'S', 'S', 'C', 'C', 'C', 'C', 'C', 'C', 'C', 'C', 'C', 'C', 'C', 'C', 'C', 'C', 'C', 'C']","[1720300, 1720921, 1721545, 1722138, 1722672, 1723245, 1723901, 1724499, 1725036, 1725602, 1726164, 1726637, 1727174, 1727674, 1728235, 1728744, 1729309, 1729890, 1730422, 1730931, 1731468, 1732009]","[1720420, 1721077, 1721693, 1722278, 1722846, 1723439, 1724057, 1724660, 1725222, 1725760, 1726304, 1726806, 1727314, 1727827, 1728394, 1728912, 1729463, 1730027, 1730568, 1731093, 1731625, 1732172]","[1719121, 1719720, 1720321, 1720921, 1721521, 1722120, 1722720, 1723320, 1723928, 1724526, 1725063, 1725630, 1726191, 1726663, 1727201, 1727700, 1728263, 1728772, 1729336, 1729916, 1730449, 1730958, 1731495, 1732037]",45,R,ITM,1.1,
6,600,trial,0,92,92,92,trial,"['S', 'S', 'S', 'S', 'S', 'S', 'C', 'C', 'C', 'C', 'C', 'C', 'C', 'C', 'C', 'C', 'C', 'C', 'C', 'C', 'C', 'C']","[1738625, 1739179, 1739746, 1740344, 1740936, 1741591, 1742187, 1742743, 1743336, 1743947, 1744540, 1745163, 1745782, 1746394, 1746979, 1747555, 1748168, 1748781, 1749434, 1750042, 1750623, 1751184]","[1738725, 1739296, 1739877, 1740494, 1741096, 1741730, 1742320, 1742892, 1743498, 1744111, 1744727, 1745348, 1745958, 1746613, 1747259, 1747761, 1748441, 1749041, 1749693, 1750256, 1750781, 1751334]","[1737464, 1738064, 1738664, 1739265, 1739865, 1740465, 1741064, 1741664, 1742214, 1742770, 1743363, 1743975, 1744567, 1745189, 1745810, 1746421, 1747007, 1747581, 1748196, 1748807, 1749460, 1750070, 1750650, 1751211]",45,R,ITM,1.1,
3,400,trial,0,93,93,93,trial,"['S', 'S', 'S', 'S', 'S', 'S', 'S', 'C', 'C', 'C', 'C', 'C', 'C', 'C', 'C', 'C', 'C', 'C', 'C', 'C', 'C', 'C', 'C']","[1757175, 1757545, 1757900, 1758220, 1758642, 1759076, 1759464, 1759842, 1760203, 1760576, 1761011, 1761395, 1761790, 1762193, 1762551, 1762898, 1763271, 1763659, 1764046, 1764398, 1764827, 1765241, 1765666]","[1757239, 1757614, 1757986, 1758343, 1758740, 1759174, 1759563, 1759934, 1760309, 1760698, 1761133, 1761517, 1761902, 1762311, 1762653, 1763002, 1763388, 1763782, 1764179, 1764546, 1764968, 1765365, 1765779]","[1756717, 1757115, 1757515, 1757916, 1758315, 1758715, 1759115, 1759515, 1759867, 1760229, 1760602, 1761037, 1761421, 1761816, 1762219, 1762577, 1762924, 1763297, 1763685, 1764072, 1764423, 1764852, 1765267, 1765692]",45,R,ITM,1.1,
7,600,trial,0,94,94,94,trial,"['S', 'S', 'S', 'S', 'S', 'S', 'C', 'C', 'C', 'C', 'C', 'C', 'C', 'C', 'C', 'C', 'C', 'C', 'C', 'C', 'C', 'C']","[1772545, 1773135, 1773729, 1774381, 1774956, 1775543, 1776123, 1776691, 1777252, 1777781, 1778350, 1778891, 1779435, 1779968, 1780564, 1781086, 1781585, 1782095, 1782646, 1783171, 1783659, 1784172]","[1772630, 1773250, 1773838, 1774499, 1775080, 1775659, 1776269, 1776825, 1777373, 1777927, 1778494, 1779059, 1779587, 1780118, 1780688, 1781222, 1781729, 1782246, 1782778, 1783294, 1783805, 1784318]","[1771406, 1772005, 1772605, 1773205, 1773805, 1774405, 1775005, 1775605, 1776150, 1776718, 1777278, 1777809, 1778377, 1778919, 1779462, 1779995, 1780592, 1781113, 1781612, 1782122, 1782673, 1783197, 1783687, 1784199]",45,R,ITM,1.1,
3,600,trial,0,95,95,95,trial,"['S', 'S', 'S', 'S', 'C', 'C', 'C', 'C', 'C', 'C', 'C', 'C', 'C', 'C', 'C', 'C', 'C', 'C', 'C', 'C']","[1791907, 1792485, 1793055, 1793636, 1794231, 1794798, 1795405, 1795961, 1796513, 1797121, 1797652, 1798195, 1798823, 1799357, 1799938, 1800509, 1801094, 1801691, 1802233, 1802826]","[1792027, 1792610, 1793207, 1793790, 1794378, 1794956, 1795544, 1796110, 1796676, 1797257, 1797812, 1798362, 1798944, 1799489, 1800071, 1800640, 1801251, 1801840, 1802414, 1802989]","[1789520, 1790120, 1790721, 1791321, 1791921, 1792520, 1793120, 1793720, 1794256, 1794824, 1795431, 1795987, 1796539, 1797146, 1797678, 1798220, 1798849, 1799383, 1799963, 1800535, 1801119, 1801716, 1802259, 1802852]",45,R,ITM,1.1,
4,400,trial,0,96,96,96,trial,"['S', 'S', 'S', 'S', 'S', 'S', 'C', 'C', 'C', 'C', 'C', 'C', 'C', 'C', 'C', 'C', 'C', 'C', 'C', 'C', 'C', 'C']","[1809112, 1809417, 1809835, 1810230, 1810606, 1810946, 1811372, 1811788, 1812180, 1812651, 1813073, 1813481, 1813899, 1814279, 1814682, 1815083, 1815467, 1815929, 1816305, 1816692, 1817096, 1817495]","[1809173, 1809507, 1809912, 1810305, 1810695, 1811058, 1811465, 1811888, 1812305, 1812753, 1813185, 1813590, 1814002, 1814408, 1814789, 1815205, 1815580, 1816020, 1816402, 1816798, 1817199, 1817606]","[1808199, 1808599, 1808998, 1809398, 1809799, 1810199, 1810599, 1810999, 1811397, 1811814, 1812206, 1812676, 1813099, 1813507, 1813924, 1814304, 1814708, 1815108, 1815492, 1815955, 1816332, 1816718, 1817121, 1817521]",45,R,ITM,1.1,
4,600,trial,0,97,97,97,trial,"['S', 'S', 'S', 'S', 'S', 'S', 'C', 'C', 'C', 'C', 'C', 'C', 'C', 'C', 'C', 'C', 'C', 'C', 'C', 'C', 'C', 'C']","[1823730, 1824936, 1825556, 1826151, 1826768, 1827431, 1828033, 1828634, 1829251, 1829856, 1830411, 1830981, 1831571, 1832170, 1832743, 1833328, 1833875, 1834421, 1834945, 1835530, 1836055, 1836654]","[1823750, 1825078, 1825721, 1826356, 1826968, 1827655, 1828272, 1828878, 1829487, 1830114, 1830602, 1831172, 1831785, 1832361, 1832898, 1833531, 1834046, 1834588, 1835127, 1835696, 1836248, 1836809]","[1823232, 1823831, 1824431, 1825031, 1825631, 1826231, 1826831, 1827431, 1828059, 1828660, 1829276, 1829881, 1830436, 1831007, 1831597, 1832196, 1832770, 1833354, 1833901, 1834446, 1834971, 1835555, 1836081, 1836680]",45,R,ITM,1.1,
3,400,trial,0,98,98,98,trial,"['S', 'S', 'S', 'S', 'S', 'S', 'C', 'C', 'C', 'C', 'C', 'C', 'C', 'C', 'C', 'C', 'C', 'C', 'C', 'C', 'C', 'C']","[1843271, 1843633, 1844027, 1844433, 1844850, 1845270, 1845710, 1846139, 1846540, 1846965, 1847364, 1847800, 1848205, 1848649, 1849108, 1849553, 1849957, 1850373, 1850819, 1851157, 1851570, 1851945]","[1843355, 1843739, 1844137, 1844532, 1844969, 1845390, 1845803, 1846224, 1846630, 1847064, 1847460, 1847889, 1848312, 1848770, 1849219, 1849675, 1850065, 1850446, 1850888, 1851258, 1851658, 1852042]","[1842392, 1842791, 1843191, 1843591, 1843991, 1844391, 1844791, 1845191, 1845736, 1846165, 1846566, 1846990, 1847390, 1847826, 1848230, 1848675, 1849134, 1849579, 1849984, 1850398, 1850845, 1851183, 1851595, 1851970]",45,R,ITM,1.1,
5,400,trial,0,99,99,99,trial,"['S', 'S', 'S', 'S', 'C', 'C', 'C', 'C', 'C', 'C', 'C', 'C', 'C', 'C', 'C', 'C', 'C', 'C', 'C', 'C']","[1859160, 1859549, 1859992, 1860409, 1860842, 1861238, 1861659, 1862071, 1862498, 1862905, 1863321, 1863714, 1864097, 1864465, 1864887, 1865339, 1865802, 1866259, 1866761, 1867237]","[1859180, 1859569, 1860013, 1860429, 1860868, 1861264, 1861755, 1862188, 1862598, 1863017, 1863412, 1863818, 1864196, 1864607, 1865022, 1865491, 1865939, 1866386, 1866854, 1867363]","[1857589, 1857988, 1858388, 1858788, 1859188, 1859589, 1859988, 1860388, 1860868, 1861264, 1861685, 1862096, 1862523, 1862931, 1863347, 1863741, 1864124, 1864491, 1864913, 1865365, 1865829, 1866285, 1866786, 1867262]",45,R,ITM,1.1,
5,400,trial,0,100,100,100,trial,"['S', 'S', 'S', 'S', 'C', 'C', 'C', 'C', 'C', 'C', 'C', 'C', 'C', 'C', 'C', 'C', 'C', 'C', 'C', 'C', 'C']","[1874153, 1874552, 1874959, 1875373, 1875795, 1876236, 1876696, 1877120, 1877592, 1878052, 1878393, 1878744, 1879128, 1879493, 1879905, 1880350, 1880773, 1881169, 1881588, 1881694, 1882016]","[1874230, 1874642, 1875075, 1875495, 1875927, 1876368, 1876831, 1877259, 1877714, 1878078, 1878487, 1878769, 1879153, 1879599, 1879984, 1880376, 1880852, 1881289, 1881614, 1881714, 1882042]","[1872603, 1873001, 1873401, 1873801, 1874201, 1874601, 1875001, 1875401, 1875821, 1876262, 1876721, 1877145, 1877618, 1878078, 1878419, 1878769, 1879153, 1879520, 1879931, 1880376, 1880800, 1881196, 1881614, 1882042]",45,R,ITM,1.1,
3,600,trial,0,101,101,101,trial,"['S', 'S', 'S', 'S', 'S', 'S', 'S', 'S', 'S', 'S', 'C', 'C', 'C', 'C', 'C', 'C', 'C', 'C', 'C', 'C', 'C', 'C', 'C', 'C', 'C', 'C', 'C']","[1887809, 1888222, 1888618, 1889222, 1889865, 1889965, 1890477, 1891065, 1891692, 1891792, 1892248, 1892833, 1893431, 1893536, 1893999, 1894572, 1895158, 1895724, 1896262, 1896820, 1897347, 1897879, 1898470, 1898992, 1899545, 1900107, 1900598]","[1887884, 1888242, 1888774, 1889398, 1889885, 1890029, 1890703, 1891281, 1891712, 1891921, 1892434, 1892994, 1893456, 1893594, 1894179, 1894734, 1895375, 1895894, 1896470, 1896968, 1897504, 1898025, 1898585, 1899142, 1899681, 1900222, 1900746]","[1887474, 1888074, 1888674, 1889274, 1889874, 1890475, 1891075, 1891675, 1892274, 1892858, 1893456, 1894025, 1894597, 1895184, 1895749, 1896288, 1896846, 1897372, 1897905, 1898496, 1899018, 1899571, 1900133, 1900623]",45,R,ITM,1.1,
7,600,trial,0,102,102,102,trial,"['S', 'S', 'S', 'S', 'C', 'C', 'C', 'C', 'C', 'C', 'C', 'C', 'C', 'C', 'C', 'C', 'C', 'C', 'C', 'C']","[1908469, 1909076, 1909626, 1910285, 1910868, 1911447, 1912032, 1912591, 1913164, 1913795, 1914359, 1914939, 1915515, 1916102, 1916679, 1917236, 1917791, 1918359, 1918906, 1919460]","[1908569, 1909156, 1909777, 1910425, 1910998, 1911553, 1912146, 1912748, 1913305, 1913938, 1914491, 1915074, 1915656, 1916265, 1916867, 1917426, 1917972, 1918532, 1919070, 1919596]","[1906153, 1906752, 1907352, 1907952, 1908552, 1909152, 1909752, 1910352, 1910896, 1911475, 1912058, 1912617, 1913192, 1913822, 1914386, 1914966, 1915543, 1916129, 1916705, 1917262, 1917817, 1918386, 1918934, 1919488]",45,R,ITM,1.1,
4,400,trial,0,103,103,103,trial,"['S', 'S', 'S', 'S', 'C', 'C', 'C', 'C', 'C', 'C', 'C', 'C', 'C', 'C', 'C', 'C', 'C', 'C', 'C', 'C']","[1926754, 1927122, 1927497, 1927864, 1928293, 1928700, 1929093, 1929462, 1929867, 1930296, 1930669, 1931080, 1931493, 1931918, 1932351, 1932808, 1933208, 1933591, 1934011, 1934428]","[1926824, 1927203, 1927602, 1927983, 1928407, 1928821, 1929205, 1929605, 1930003, 1930424, 1930800, 1931213, 1931618, 1932057, 1932494, 1932912, 1933334, 1933728, 1934142, 1934573]","[1925153, 1925554, 1925954, 1926354, 1926754, 1927154, 1927555, 1927954, 1928318, 1928726, 1929118, 1929488, 1929892, 1930321, 1930695, 1931106, 1931518, 1931944, 1932377, 1932833, 1933234, 1933617, 1934036, 1934454]",45,R,ITM,1.1,
6,400,trial,0,104,104,104,trial,"['C', 'C', 'C', 'C', 'C', 'C', 'C', 'C', 'C', 'C', 'C', 'C', 'C', 'C', 'C', 'C']","[1942939, 1943290, 1943693, 1944100, 1944480, 1944872, 1945266, 1945722, 1946133, 1946545, 1946972, 1947404, 1947785, 1948205, 1948620, 1949028]","[1943007, 1943357, 1943760, 1944170, 1944562, 1944966, 1945371, 1945793, 1946223, 1946639, 1947055, 1947494, 1947899, 1948322, 1948741, 1949144]","[1939874, 1940274, 1940673, 1941073, 1941473, 1941873, 1942274, 1942673, 1942966, 1943318, 1943720, 1944127, 1944507, 1944900, 1945293, 1945750, 1946161, 1946571, 1946998, 1947430, 1947812, 1948232, 1948648, 1949054]",45,R,ITM,1.1,
4,600,trial,0,105,105,105,trial,"['S', 'S', 'S', 'S', 'S', 'S', 'C', 'C', 'C', 'C', 'C', 'C', 'C', 'C', 'C', 'C', 'C', 'C', 'C', 'C', 'C', 'C']","[1955742, 1956304, 1956873, 1957478, 1958044, 1958627, 1959229, 1959788, 1960308, 1960847, 1961400, 1961960, 1962494, 1963024, 1963550, 1964034, 1964533, 1965053, 1965577, 1966127, 1966685, 1967238]","[1955829, 1956414, 1956988, 1957614, 1958199, 1958776, 1959401, 1959973, 1960514, 1961019, 1961620, 1962192, 1962705, 1963203, 1963671, 1964148, 1964667, 1965202, 1965739, 1966306, 1966851, 1967387]","[1954518, 1955118, 1955718, 1956317, 1956917, 1957517, 1958117, 1958717, 1959255, 1959814, 1960334, 1960872, 1961425, 1961986, 1962521, 1963049, 1963576, 1964059, 1964559, 1965079, 1965602, 1966152, 1966710, 1967263]",45,R,ITM,1.1,
6,600,trial,0,106,106,106,trial,"['S', 'S', 'S', 'S', 'S', 'S', 'C', 'C', 'C', 'C', 'C', 'C', 'C', 'C', 'C', 'C', 'C', 'C', 'C', 'C', 'C', 'C']","[1973584, 1974218, 1974859, 1975442, 1976049, 1976657, 1977264, 1977839, 1978435, 1979049, 1979618, 1980206, 1980704, 1981249, 1981837, 1982361, 1982813, 1983332, 1983905, 1984366, 1984779, 1985297]","[1973680, 1974324, 1974992, 1975568, 1976171, 1976814, 1977445, 1978053, 1978622, 1979211, 1979771, 1980350, 1980877, 1981425, 1981989, 1982440, 1982911, 1983455, 1984027, 1984470, 1984900, 1985441]","[1972592, 1973192, 1973792, 1974392, 1974992, 1975592, 1976193, 1976793, 1977290, 1977866, 1978462, 1979076, 1979644, 1980233, 1980731, 1981276, 1981864, 1982389, 1982840, 1983358, 1983933, 1984394, 1984805, 1985324]",45,R,ITM,1.1,
3,400,trial,0,107,107,107,trial,"['S', 'S', 'S', 'S', 'S', 'S', 'C', 'C', 'C', 'C', 'C', 'C', 'C', 'C', 'C', 'C', 'C', 'C', 'C', 'C', 'C', 'C']","[1991537, 1991849, 1992219, 1992549, 1993007, 1993414, 1993819, 1994214, 1994593, 1994963, 1995401, 1995781, 1996155, 1996521, 1996919, 1997293, 1997702, 1998142, 1998531, 1998905, 1999310, 1999688]","[1991591, 1991911, 1992285, 1992631, 1993085, 1993499, 1993925, 1994295, 1994692, 1995064, 1995495, 1995899, 1996278, 1996656, 1997050, 1997424, 1997848, 1998251, 1998649, 1999003, 1999412, 1999791]","[1990678, 1991077, 1991477, 1991877, 1992278, 1992677, 1993077, 1993478, 1993844, 1994240, 1994619, 1994989, 1995426, 1995806, 1996181, 1996547, 1996945, 1997319, 1997727, 1998168, 1998557, 1998930, 1999336, 1999714]",45,R,ITM,1.1,
4,600,trial,0,108,108,108,trial,"['S', 'S', 'S', 'S', 'S', 'S', 'S', 'C', 'C', 'C', 'C', 'C', 'C', 'C', 'C', 'C', 'C', 'C', 'C', 'C', 'C', 'C', 'C']","[2005368, 2006106, 2006748, 2007342, 2007899, 2008497, 2009027, 2009581, 2010167, 2010734, 2011310, 2011882, 2012442, 2012996, 2013565, 2014087, 2014643, 2015237, 2015802, 2016377, 2016929, 2017482, 2018039]","[2005415, 2006211, 2006838, 2007449, 2008026, 2008597, 2009201, 2009724, 2010321, 2010889, 2011459, 2012059, 2012611, 2013190, 2013748, 2014303, 2014867, 2015439, 2016003, 2016563, 2017137, 2017687, 2018245]","[2005036, 2005635, 2006235, 2006834, 2007434, 2008034, 2008634, 2009234, 2009608, 2010193, 2010760, 2011335, 2011908, 2012468, 2013022, 2013591, 2014112, 2014668, 2015262, 2015827, 2016403, 2016956, 2017508, 2018065]",45,R,ITM,1.1,
7,600,trial,0,109,109,109,trial,"['S', 'S', 'S', 'S', 'S', 'S', 'C', 'C', 'C', 'C', 'C', 'C', 'C', 'C', 'C', 'C', 'C', 'C', 'C', 'C', 'C', 'C']","[2024811, 2025411, 2025994, 2026582, 2027187, 2027751, 2028344, 2028889, 2029490, 2030055, 2030642, 2031172, 2031699, 2032251, 2032792, 2033368, 2033923, 2034467, 2035010, 2035566, 2036150, 2036721]","[2024899, 2025477, 2026080, 2026721, 2027290, 2027875, 2028471, 2029054, 2029623, 2030184, 2030768, 2031332, 2031870, 2032431, 2032994, 2033530, 2034082, 2034615, 2035152, 2035708, 2036294, 2036864]","[2023690, 2024290, 2024890, 2025490, 2026090, 2026690, 2027290, 2027890, 2028371, 2028916, 2029516, 2030082, 2030668, 2031199, 2031727, 2032278, 2032819, 2033394, 2033949, 2034494, 2035038, 2035594, 2036177, 2036749]",45,R,ITM,1.1,
2,600,trial,0,110,110,110,trial,"['S', 'S', 'S', 'S', 'S', 'S', 'C', 'C', 'C', 'C', 'C', 'C', 'C', 'C', 'C', 'C', 'C', 'C', 'C', 'C', 'C', 'C']","[2043671, 2044203, 2044819, 2045390, 2046004, 2046572, 2047159, 2047734, 2048285, 2048869, 2049440, 2050016, 2050583, 2051134, 2051660, 2052256, 2052819, 2053394, 2053970, 2054411, 2054928, 2055521]","[2043761, 2044314, 2044924, 2045528, 2046113, 2046711, 2047292, 2047922, 2048450, 2049040, 2049647, 2050207, 2050751, 2051301, 2051807, 2052382, 2052933, 2053530, 2054084, 2054582, 2055107, 2055680]","[2042464, 2043063, 2043663, 2044264, 2044864, 2045463, 2046064, 2046664, 2047186, 2047762, 2048313, 2048897, 2049468, 2050043, 2050611, 2051161, 2051688, 2052284, 2052847, 2053422, 2053997, 2054437, 2054956, 2055547]",45,R,ITM,1.1,
6,400,trial,0,111,111,111,trial,"['C', 'C', 'C', 'C', 'C', 'C', 'C', 'C', 'C', 'C', 'C', 'C', 'C', 'C', 'C', 'C']","[2064119, 2064508, 2064932, 2065342, 2065777, 2066196, 2066632, 2067041, 2067374, 2067758, 2068178, 2068591, 2069007, 2069421, 2069859, 2070323]","[2064171, 2064595, 2065020, 2065463, 2065864, 2066302, 2066745, 2067145, 2067492, 2067899, 2068329, 2068736, 2069128, 2069557, 2070011, 2070467]","[2060913, 2061313, 2061712, 2062112, 2062513, 2062912, 2063312, 2063712, 2064146, 2064536, 2064959, 2065369, 2065804, 2066224, 2066659, 2067068, 2067400, 2067784, 2068205, 2068618, 2069033, 2069447, 2069885, 2070350]",45,R,ITM,1.1,
2,400,trial,0,112,112,112,trial,"['S', 'S', 'S', 'S', 'C', 'C', 'C', 'C', 'C', 'C', 'C', 'C', 'C', 'C', 'C', 'C', 'C', 'C', 'C', 'C']","[2077479, 2077865, 2078268, 2078654, 2079062, 2079460, 2079890, 2080293, 2080700, 2081106, 2081518, 2081913, 2082295, 2082719, 2083123, 2083512, 2083915, 2084332, 2084779, 2085176]","[2077566, 2077956, 2078380, 2078777, 2079180, 2079576, 2080020, 2080425, 2080833, 2081233, 2081616, 2082024, 2082423, 2082845, 2083244, 2083650, 2084057, 2084496, 2084923, 2085322]","[2075942, 2076342, 2076742, 2077143, 2077542, 2077942, 2078343, 2078742, 2079089, 2079488, 2079917, 2080320, 2080728, 2081134, 2081546, 2081941, 2082322, 2082746, 2083150, 2083539, 2083943, 2084360, 2084805, 2085202]",45,R,ITM,1.1,
6,600,trial,0,113,113,113,trial,"['S', 'S', 'S', 'S', 'C', 'C', 'C', 'C', 'C', 'C', 'C', 'C', 'C', 'C', 'C', 'C', 'C', 'C', 'C', 'C']","[2093171, 2093732, 2094307, 2094920, 2095560, 2096133, 2096703, 2097280, 2097856, 2098380, 2098948, 2099537, 2100143, 2100657, 2101639, 2102090, 2102625, 2103084, 2103589, 2104116]","[2093282, 2093855, 2094437, 2095034, 2095695, 2096329, 2096924, 2097513, 2098043, 2098540, 2099127, 2099771, 2100462, 2101414, 2101709, 2102211, 2102676, 2103196, 2103684, 2104209]","[2090855, 2091454, 2092054, 2092654, 2093254, 2093854, 2094454, 2095054, 2095588, 2096159, 2096731, 2097306, 2097884, 2098407, 2098975, 2099564, 2100169, 2100684, 2101666, 2102117, 2102652, 2103111, 2103616, 2104142]",45,R,ITM,1.1,
7,400,trial,0,114,114,114,trial,"['S', 'S', 'S', 'S', 'C', 'C', 'C', 'C', 'C', 'C', 'C', 'C', 'C', 'C', 'C', 'C', 'C', 'C', 'C', 'C']","[2111480, 2111857, 2112252, 2112664, 2113053, 2113389, 2113754, 2114192, 2114623, 2114964, 2115304, 2115748, 2116153, 2116542, 2116924, 2117329, 2117696, 2118152, 2118589, 2118998]","[2111541, 2111877, 2112355, 2112764, 2113148, 2113521, 2113898, 2114310, 2114725, 2115079, 2115418, 2115849, 2116244, 2116645, 2117057, 2117444, 2117855, 2118266, 2118697, 2119120]","[2109905, 2110304, 2110704, 2111105, 2111504, 2111904, 2112305, 2112704, 2113081, 2113416, 2113781, 2114219, 2114650, 2114991, 2115331, 2115775, 2116179, 2116570, 2116951, 2117357, 2117723, 2118179, 2118616, 2119024]",45,R,ITM,1.1,
7,400,trial,0,115,115,115,trial,"['S', 'S', 'S', 'S', 'C', 'C', 'C', 'C', 'C', 'C', 'C', 'C', 'C', 'C', 'C', 'C', 'C', 'C', 'C', 'C']","[2126193, 2126568, 2126947, 2127353, 2127733, 2128145, 2128558, 2128960, 2129340, 2129765, 2130203, 2130619, 2131068, 2131493, 2131922, 2132344, 2132749, 2133182, 2133638, 2134089]","[2126269, 2126653, 2126967, 2127373, 2127813, 2128232, 2128667, 2129064, 2129451, 2129878, 2130316, 2130753, 2131178, 2131603, 2132035, 2132443, 2132858, 2133291, 2133762, 2134210]","[2124595, 2124993, 2125393, 2125793, 2126193, 2126594, 2126993, 2127393, 2127760, 2128172, 2128584, 2128987, 2129368, 2129793, 2130230, 2130646, 2131095, 2131521, 2131950, 2132371, 2132776, 2133209, 2133664, 2134117]",45,R,ITM,1.1,
3,400,trial,0,116,116,116,trial,"['S', 'S', 'S', 'S', 'C', 'C', 'C', 'C', 'C', 'C', 'C', 'C', 'C', 'C', 'C', 'C', 'C', 'C', 'C', 'C']","[2140941, 2141337, 2141750, 2142170, 2142578, 2143003, 2143430, 2143824, 2144215, 2144576, 2144922, 2145275, 2145604, 2147660, 2147929, 2148296, 2148636, 2149019, 2149396, 2149780]","[2141035, 2141357, 2141857, 2142289, 2142706, 2143128, 2143577, 2143934, 2144293, 2144668, 2145012, 2145373, 2145686, 2147739, 2148007, 2148392, 2148746, 2149125, 2149523, 2149901]","[2139427, 2139827, 2140227, 2140627, 2141027, 2141427, 2141828, 2142227, 2142604, 2143029, 2143456, 2143850, 2144240, 2144602, 2144948, 2145301, 2145630, 2147686, 2147954, 2148322, 2148662, 2149045, 2149422, 2149806]",45,R,ITM,1.1,
4,400,trial,0,117,117,117,trial,"['S', 'S', 'S', 'S', 'S', 'C', 'C', 'C', 'C', 'C', 'C', 'C', 'C', 'C', 'C', 'C', 'C', 'C', 'C', 'C', 'C']","[2157032, 2157410, 2157843, 2158225, 2158325, 2158650, 2159056, 2159432, 2159826, 2160235, 2160644, 2161037, 2161404, 2161798, 2162186, 2162563, 2162973, 2163366, 2163774, 2164169, 2164589]","[2157088, 2157430, 2157863, 2158245, 2158345, 2158740, 2159136, 2159528, 2159924, 2160352, 2160742, 2161146, 2161519, 2161915, 2162300, 2162703, 2163091, 2163470, 2163887, 2164306, 2164746]","[2155484, 2155883, 2156283, 2156683, 2157083, 2157484, 2157883, 2158283, 2158675, 2159082, 2159458, 2159852, 2160261, 2160669, 2161062, 2161431, 2161823, 2162212, 2162588, 2162999, 2163393, 2163800, 2164195, 2164615]",45,R,ITM,1.1,
2,400,trial,0,118,118,118,trial,"['S', 'S', 'S', 'S', 'S', 'S', 'S', 'C', 'C', 'C', 'C', 'C', 'C', 'C', 'C', 'C', 'C', 'C', 'C', 'C', 'C', 'C', 'C']","[2170335, 2170705, 2171136, 2171525, 2171935, 2172359, 2172782, 2173159, 2173540, 2173950, 2174327, 2174726, 2175166, 2175561, 2175970, 2176380, 2176791, 2177201, 2177585, 2177992, 2178415, 2178826, 2179213]","[2170426, 2170847, 2171217, 2171641, 2172060, 2172469, 2172877, 2173257, 2173639, 2174052, 2174433, 2174812, 2175253, 2175671, 2176068, 2176484, 2176879, 2177299, 2177718, 2178125, 2178534, 2178951, 2179271]","[2169935, 2170335, 2170735, 2171134, 2171535, 2171935, 2172335, 2172734, 2173187, 2173568, 2173976, 2174355, 2174752, 2175194, 2175588, 2175996, 2176408, 2176819, 2177228, 2177612, 2178020, 2178443, 2178853, 2179239]",45,R,ITM,1.1,
2,600,trial,0,119,119,119,trial,"['S', 'S', 'S', 'S', 'S', 'S', 'C', 'C', 'C', 'C', 'C', 'C', 'C', 'C', 'C', 'C', 'C', 'C', 'C', 'C', 'C', 'C']","[2185927, 2186466, 2187044, 2187607, 2188177, 2188782, 2189392, 2189949, 2190505, 2191067, 2191606, 2192136, 2192689, 2193166, 2193641, 2194134, 2194633, 2195146, 2195670, 2196193, 2196707, 2197241]","[2186021, 2186562, 2187222, 2187817, 2188428, 2189049, 2189629, 2190191, 2190708, 2191251, 2191799, 2192333, 2192826, 2193319, 2193803, 2194298, 2194812, 2195332, 2195878, 2196396, 2196909, 2197427]","[2184664, 2185264, 2185863, 2186463, 2187063, 2187663, 2188263, 2188862, 2189419, 2189977, 2190532, 2191094, 2191634, 2192163, 2192716, 2193193, 2193668, 2194161, 2194661, 2195174, 2195697, 2196220, 2196733, 2197268]",45,R,ITM,1.1,
5,400,trial,0,120,120,120,trial,"['S', 'S', 'S', 'S', 'S', 'S', 'S', 'C', 'C', 'C', 'C', 'C', 'C', 'C', 'C', 'C', 'C', 'C', 'C', 'C', 'C', 'C', 'C']","[2203209, 2203598, 2204009, 2204449, 2204821, 2205231, 2205576, 2205987, 2206385, 2206768, 2207191, 2207610, 2208015, 2208457, 2208878, 2209287, 2209696, 2210160, 2210623, 2211022, 2211465, 2211790, 2212184]","[2203300, 2203696, 2204126, 2204469, 2204925, 2205306, 2205674, 2206080, 2206481, 2206888, 2207307, 2207719, 2208122, 2208560, 2208980, 2209403, 2209856, 2210282, 2210732, 2211143, 2211547, 2211910, 2212321]","[2202797, 2203195, 2203595, 2203996, 2204395, 2204795, 2205195, 2205595, 2206014, 2206410, 2206793, 2207216, 2207636, 2208040, 2208484, 2208905, 2209313, 2209722, 2210186, 2210649, 2211048, 2211491, 2211816, 2212210]",45,R,ITM,1.1,
3,600,trial,0,121,121,121,trial,"['S', 'S', 'S', 'S', 'S', 'S', 'C', 'C', 'C', 'C', 'C', 'C', 'C', 'C', 'C', 'C', 'C', 'C', 'C', 'C', 'C', 'C']","[2218928, 2219510, 2220103, 2220658, 2221229, 2221775, 2222374, 2222934, 2223537, 2224063, 2224550, 2225053, 2225598, 2226121, 2226646, 2227152, 2227666, 2228154, 2228718, 2229266, 2229781, 2230305]","[2219022, 2219617, 2220228, 2220774, 2221355, 2221945, 2222555, 2223107, 2223666, 2224218, 2224720, 2225222, 2225736, 2226243, 2226778, 2227281, 2227813, 2228310, 2228876, 2229414, 2229936, 2230453]","[2217791, 2218391, 2218991, 2219591, 2220191, 2220791, 2221391, 2221991, 2222400, 2222959, 2223562, 2224089, 2224576, 2225079, 2225624, 2226147, 2226671, 2227178, 2227692, 2228179, 2228744, 2229292, 2229807, 2230331]",45,R,ITM,1.1,
5,400,trial,0,122,122,122,trial,"['S', 'S', 'S', 'S', 'S', 'S', 'S', 'C', 'C', 'C', 'C', 'C', 'C', 'C', 'C', 'C', 'C', 'C', 'C', 'C', 'C', 'C', 'C']","[2236396, 2236741, 2237128, 2237517, 2237910, 2238311, 2238714, 2239085, 2239488, 2239907, 2240301, 2240669, 2241054, 2241454, 2241891, 2242271, 2242747, 2243103, 2243542, 2243905, 2244283, 2244760, 2245124]","[2236471, 2236820, 2237207, 2237594, 2238004, 2238395, 2238791, 2239188, 2239598, 2240013, 2240408, 2240772, 2241155, 2241570, 2241994, 2242385, 2242843, 2243212, 2243647, 2244014, 2244429, 2244868, 2245234]","[2235985, 2236384, 2236784, 2237185, 2237584, 2237984, 2238385, 2238784, 2239111, 2239513, 2239933, 2240326, 2240695, 2241080, 2241479, 2241916, 2242296, 2242772, 2243129, 2243568, 2243932, 2244308, 2244786, 2245150]",45,R,ITM,1.1,
5,600,trial,0,123,123,123,trial,"['S', 'S', 'S', 'S', 'S', 'S', 'S', 'S', 'C', 'C', 'C', 'C', 'C', 'C', 'C', 'C', 'C', 'C', 'C', 'C', 'C', 'C', 'C', 'C']","[2250914, 2251304, 2251744, 2252362, 2252978, 2253588, 2254178, 2254802, 2255305, 2255825, 2256379, 2256976, 2257576, 2258143, 2258674, 2259214, 2259781, 2260316, 2260858, 2261374, 2261902, 2262435, 2262915, 2263373]","[2250995, 2251408, 2251877, 2252535, 2253172, 2253762, 2254374, 2254944, 2255467, 2255989, 2256592, 2257186, 2257752, 2258270, 2258801, 2259364, 2259921, 2260428, 2260986, 2261518, 2262023, 2262558, 2263049, 2263567]","[2250579, 2251179, 2251779, 2252379, 2252978, 2253578, 2254178, 2254778, 2255332, 2255851, 2256405, 2257003, 2257602, 2258168, 2258700, 2259240, 2259807, 2260341, 2260884, 2261400, 2261928, 2262462, 2262940, 2263400]",45,R,ITM,1.1,
3,600,trial,0,124,124,124,trial,"['S', 'S', 'S', 'S', 'S', 'S', 'C', 'C', 'C', 'C', 'C', 'C', 'C', 'C', 'C', 'C', 'C', 'C', 'C', 'C', 'C', 'C']","[2270157, 2270752, 2271344, 2271977, 2272573, 2273137, 2273705, 2274269, 2274822, 2275449, 2276089, 2276640, 2277217, 2277720, 2278210, 2278757, 2279307, 2279859, 2280430, 2281006, 2281571, 2282151]","[2270259, 2270855, 2271520, 2272149, 2272728, 2273353, 2273918, 2274475, 2275032, 2275675, 2276281, 2276887, 2277345, 2277897, 2278404, 2278907, 2279457, 2280037, 2280620, 2281184, 2281728, 2282311]","[2268952, 2269552, 2270152, 2270752, 2271352, 2271952, 2272552, 2273153, 2273731, 2274294, 2274847, 2275475, 2276115, 2276666, 2277242, 2277745, 2278236, 2278782, 2279332, 2279884, 2280456, 2281031, 2281596, 2282177]",45,R,ITM,1.1,
5,600,trial,0,125,125,125,trial,"['C', 'C', 'C', 'C', 'C', 'C', 'C', 'C', 'C', 'C', 'C', 'C', 'C', 'C', 'C', 'C']","[2292558, 2293057, 2293630, 2294175, 2294703, 2295240, 2295764, 2296258, 2296735, 2297229, 2297805, 2298289, 2298832, 2299325, 2299846, 2300370]","[2292669, 2293157, 2293712, 2294269, 2294778, 2295306, 2295789, 2296369, 2296846, 2297334, 2297887, 2298397, 2298918, 2299452, 2299956, 2300494]","[2287951, 2288550, 2289150, 2289751, 2290351, 2290951, 2291551, 2292151, 2292584, 2293083, 2293656, 2294201, 2294729, 2295267, 2295789, 2296284, 2296761, 2297254, 2297831, 2298314, 2298858, 2299352, 2299872, 2300397]",45,R,ITM,1.1,
