octave,ioi,event,.thisRepN,.thisTrialN,.thisN,.thisIndex,event,tap_types,tap_times,release_times,tone_times,subject,handedness,experiment,version,
,,SPR,0,-1,-1,0,SPR,"['P', 'P', 'P', 'P', 'P', 'P', 'P', 'P', 'P', 'P', 'P', 'P', 'P', 'P', 'P', 'P', 'P', 'P', 'P', 'P', 'P', 'P', 'P', 'P', 'P', 'P', 'P', 'P', 'P', 'P']","[40531, 41135, 41687, 42268, 42868, 43419, 44007, 44569, 45117, 45669, 46266, 46854, 47446, 48018, 48628, 49200, 49790, 50367, 50960, 51536, 52106, 52651, 53221, 53781, 54273, 54882, 55437, 55983, 56534, 57086]","[40637, 41235, 41788, 42370, 42951, 43511, 44093, 44669, 45206, 45769, 46356, 46949, 47523, 48121, 48753, 49303, 49873, 50481, 51057, 51638, 52210, 52754, 53317, 53873, 54350, 54986, 55532, 56045, 56608, 57166]",,22,R,ITM,1.1,
3,500,practice,0,0,0,0,practice,"['S', 'S', 'S', 'S', 'S', 'S', 'S', 'C', 'C', 'C', 'C', 'C', 'C', 'C', 'C', 'C', 'C', 'C', 'C', 'C', 'C', 'C', 'C']","[117603, 117989, 118500, 119000, 119479, 119967, 120453, 120972, 121482, 121979, 122446, 122938, 123426, 123904, 124397, 124886, 125371, 125872, 126372, 126840, 127336, 127818, 128299]","[117723, 118159, 118676, 119170, 119687, 120199, 120682, 121161, 121655, 122178, 122637, 123146, 123616, 124112, 124593, 125080, 125565, 126061, 126556, 127070, 127537, 128017, 128490]","[117018, 117518, 118019, 118518, 119018, 119518, 120018, 120518, 120997, 121507, 122005, 122472, 122963, 123452, 123929, 124423, 124911, 125396, 125897, 126398, 126866, 127362, 127844, 128324]",22,R,ITM,1.1,
6,500,practice,0,1,1,1,practice,"['S', 'S', 'S', 'S', 'S', 'S', 'S', 'S', 'C', 'C', 'C', 'C', 'C', 'C', 'C', 'C', 'C', 'C', 'C', 'C', 'C', 'C', 'C', 'C']","[134162, 134508, 134862, 135318, 135833, 136328, 136835, 137326, 137789, 138264, 138745, 139202, 139694, 140184, 140674, 141143, 141623, 142125, 142598, 143066, 143574, 144053, 144535, 145015]","[134291, 134646, 135050, 135565, 136054, 136546, 137059, 137504, 137974, 138467, 138934, 139410, 139897, 140414, 140855, 141333, 141826, 142333, 142816, 143267, 143772, 144243, 144737, 145201]","[133856, 134355, 134855, 135355, 135856, 136355, 136855, 137355, 137817, 138292, 138772, 139229, 139721, 140212, 140700, 141170, 141649, 142151, 142624, 143092, 143600, 144080, 144562, 145042]",22,R,ITM,1.1,
2,500,practice,0,2,2,2,practice,"['S', 'S', 'S', 'S', 'S', 'S', 'S', 'C', 'C', 'C', 'C', 'C', 'C', 'C', 'C', 'C', 'C', 'C', 'C', 'C', 'C', 'C', 'C']","[150809, 151323, 151814, 152348, 152849, 153331, 153846, 154338, 154854, 155338, 155825, 156339, 156833, 157336, 157794, 158303, 158823, 159307, 159813, 160346, 160835, 161307, 161817]","[150994, 151547, 152061, 152567, 153069, 153581, 154077, 154570, 155062, 155541, 156035, 156569, 157043, 157561, 158000, 158513, 159026, 159507, 159995, 160521, 161044, 161501, 162021]","[150363, 150863, 151363, 151863, 152364, 152862, 153363, 153863, 154365, 154881, 155366, 155852, 156365, 156861, 157364, 157821, 158330, 158851, 159334, 159840, 160372, 160863, 161335, 161845]",22,R,ITM,1.1,
7,500,practice,0,3,3,3,practice,"['S', 'S', 'S', 'S', 'S', 'S', 'S', 'S', 'C', 'C', 'C', 'C', 'C', 'C', 'C', 'C', 'C', 'C', 'C', 'C', 'C', 'C', 'C', 'C']","[167627, 167954, 168407, 168880, 169401, 169894, 170383, 170856, 171342, 171835, 172344, 172824, 173341, 173861, 174345, 174822, 175295, 175787, 176254, 176761, 177253, 177718, 178209, 178684]","[167764, 168123, 168613, 169136, 169623, 170089, 170589, 171072, 171556, 172033, 172564, 173052, 173536, 174059, 174550, 175019, 175482, 175980, 176447, 176955, 177432, 177908, 178363, 178881]","[167419, 167918, 168418, 168919, 169418, 169918, 170419, 170919, 171370, 171863, 172370, 172852, 173368, 173888, 174372, 174849, 175322, 175814, 176281, 176788, 177280, 177744, 178237, 178711]",22,R,ITM,1.1,
5,500,practice,0,4,4,4,practice,"['S', 'S', 'S', 'S', 'S', 'S', 'S', 'C', 'C', 'C', 'C', 'C', 'C', 'C', 'C', 'C', 'C', 'C', 'C', 'C', 'C', 'C', 'C']","[184588, 185063, 185575, 186084, 186558, 187072, 187557, 188047, 188547, 189033, 189541, 190039, 190543, 191034, 191544, 192010, 192514, 192977, 193473, 193965, 194479, 194963, 195467]","[184776, 185295, 185810, 186296, 186808, 187293, 187796, 188274, 188789, 189262, 189769, 190270, 190775, 191248, 191763, 192244, 192726, 193173, 193699, 194201, 194684, 195172, 195674]","[184129, 184629, 185129, 185629, 186129, 186630, 187129, 187629, 188072, 188573, 189059, 189566, 190064, 190569, 191059, 191569, 192036, 192539, 193003, 193499, 193990, 194504, 194989, 195492]",22,R,ITM,1.1,
4,500,practice,0,5,5,5,practice,"['S', 'S', 'S', 'S', 'S', 'S', 'S', 'C', 'C', 'C', 'C', 'C', 'C', 'C', 'C', 'C', 'C', 'C', 'C', 'C', 'C', 'C', 'C']","[201466, 201953, 202461, 202962, 203449, 203952, 204497, 204989, 205504, 206014, 206536, 207027, 207527, 208013, 208500, 209008, 209488, 209978, 210465, 210975, 211470, 211985, 212455]","[201665, 202193, 202697, 203206, 203709, 204219, 204730, 205215, 205757, 206263, 206750, 207234, 207706, 208233, 208700, 209205, 209667, 210170, 210679, 211200, 211690, 212202, 212640]","[201050, 201548, 202048, 202548, 203048, 203548, 204048, 204549, 205015, 205530, 206040, 206562, 207052, 207553, 208038, 208526, 209034, 209514, 210003, 210491, 211001, 211495, 212011, 212481]",22,R,ITM,1.1,
2,600,trial,0,6,6,6,trial,"['S', 'S', 'S', 'S', 'S', 'S', 'S', 'C', 'C', 'C', 'C', 'C', 'C', 'C', 'C', 'C', 'C', 'C', 'C', 'C', 'C', 'C', 'C']","[243126, 243787, 244474, 245099, 245669, 246299, 246915, 247506, 248124, 248741, 249344, 249977, 250619, 251187, 251778, 252367, 253007, 253646, 254247, 254846, 255458, 256051, 256645]","[243347, 244086, 244757, 245401, 245966, 246586, 247188, 247887, 248429, 249005, 249668, 250260, 250890, 251436, 252038, 252661, 253260, 253880, 254479, 255108, 255646, 256315, 256868]","[242732, 243332, 243931, 244532, 245132, 245731, 246332, 246932, 247534, 248152, 248768, 249371, 250005, 250647, 251213, 251804, 252395, 253035, 253674, 254274, 254873, 255485, 256078, 256671]",22,R,ITM,1.1,
7,600,trial,0,7,7,7,trial,"['S', 'S', 'S', 'S', 'S', 'S', 'S', 'C', 'C', 'C', 'C', 'C', 'C', 'C', 'C', 'C', 'C', 'C', 'C', 'C', 'C', 'C', 'C']","[262898, 263462, 264089, 264705, 265334, 265929, 266558, 267136, 267719, 268295, 268847, 269428, 269995, 270571, 271119, 271682, 272264, 272813, 273388, 273941, 274514, 275082, 275651]","[263084, 263720, 264322, 264950, 265570, 266210, 266809, 267386, 267960, 268489, 269111, 269708, 270259, 270822, 271309, 271929, 272501, 273051, 273569, 274183, 274724, 275291, 275866]","[262387, 262986, 263586, 264186, 264786, 265387, 265987, 266587, 267163, 267746, 268322, 268874, 269455, 270021, 270598, 271147, 271710, 272290, 272840, 273415, 273969, 274542, 275109, 275679]",22,R,ITM,1.1,
6,600,trial,0,8,8,8,trial,"['S', 'S', 'S', 'S', 'S', 'S', 'C', 'C', 'C', 'C', 'C', 'C', 'C', 'C', 'C', 'C', 'C', 'C', 'C', 'C', 'C', 'C']","[282288, 282915, 283493, 284110, 284726, 285338, 285927, 286521, 287079, 287674, 288229, 288811, 289377, 289964, 290567, 291142, 291753, 292310, 292898, 293483, 294057, 294628]","[282554, 283160, 283728, 284346, 284917, 285570, 286158, 286788, 287311, 287911, 288478, 289060, 289634, 290224, 290804, 291383, 291994, 292562, 293124, 293701, 294296, 294884]","[281198, 281798, 282398, 282998, 283598, 284198, 284798, 285399, 285954, 286548, 287106, 287700, 288257, 288838, 289404, 289991, 290594, 291169, 291780, 292336, 292925, 293510, 294085, 294654]",22,R,ITM,1.1,
2,400,trial,0,9,9,9,trial,"['S', 'S', 'S', 'S', 'S', 'S', 'S', 'C', 'C', 'C', 'C', 'C', 'C', 'C', 'C', 'C', 'C', 'C', 'C', 'C', 'C', 'C', 'C']","[300795, 301102, 301470, 301864, 302271, 302659, 303067, 303465, 303878, 304292, 304703, 305112, 305539, 305950, 306371, 306787, 307190, 307600, 308035, 308461, 308895, 309308, 309721]","[300928, 301240, 301632, 302038, 302438, 302839, 303239, 303643, 304051, 304476, 304883, 305300, 305716, 306141, 306533, 306952, 307348, 307780, 308210, 308629, 309049, 309459, 309883]","[300296, 300695, 301095, 301495, 301895, 302296, 302694, 303095, 303492, 303904, 304320, 304731, 305139, 305566, 305977, 306398, 306814, 307218, 307627, 308062, 308488, 308922, 309336, 309748]",22,R,ITM,1.1,
3,400,trial,0,10,10,10,trial,"['S', 'S', 'S', 'S', 'S', 'S', 'S', 'C', 'C', 'C', 'C', 'C', 'C', 'C', 'C', 'C', 'C', 'C', 'C', 'C', 'C', 'C', 'C']","[315403, 315838, 316234, 316650, 317064, 317461, 317869, 318286, 318664, 319068, 319440, 319839, 320236, 320625, 321052, 321430, 321826, 322214, 322608, 323008, 323403, 323785, 324134]","[315495, 315977, 316392, 316791, 317215, 317625, 318029, 318445, 318781, 319213, 319588, 319993, 320384, 320749, 321154, 321599, 321984, 322363, 322764, 323144, 323534, 323929, 324275]","[315169, 315570, 315970, 316370, 316770, 317170, 317571, 317970, 318312, 318690, 319093, 319466, 319864, 320262, 320651, 321078, 321456, 321852, 322240, 322633, 323034, 323429, 323811, 324160]",22,R,ITM,1.1,
6,400,trial,0,11,11,11,trial,"['S', 'S', 'S', 'S', 'S', 'S', 'S', 'S', 'C', 'C', 'C', 'C', 'C', 'C', 'C', 'C', 'C', 'C', 'C', 'C', 'C', 'C', 'C', 'C']","[329880, 330105, 330467, 330860, 331261, 331649, 332052, 332454, 332854, 333256, 333658, 334051, 334450, 334856, 335244, 335644, 336002, 336438, 336821, 337197, 337585, 337991, 338384, 338753]","[329982, 330262, 330612, 331035, 331425, 331820, 332227, 332612, 333019, 333423, 333836, 334209, 334578, 335015, 335397, 335806, 336161, 336541, 336990, 337369, 337750, 338121, 338493, 338889]","[329680, 330079, 330479, 330880, 331279, 331679, 332080, 332479, 332880, 333283, 333684, 334077, 334477, 334882, 335271, 335671, 336028, 336464, 336847, 337223, 337611, 338018, 338411, 338780]",22,R,ITM,1.1,
5,400,trial,0,12,12,12,trial,"['S', 'S', 'S', 'S', 'S', 'S', 'S', 'C', 'C', 'C', 'C', 'C', 'C', 'C', 'C', 'C', 'C', 'C', 'C', 'C', 'C', 'C', 'C']","[344520, 344916, 345293, 345725, 346135, 346570, 346979, 347413, 347795, 348201, 348578, 348990, 349382, 349774, 350193, 350576, 350965, 351347, 351772, 352185, 352593, 352975, 353368]","[344683, 345071, 345465, 345911, 346336, 346773, 347163, 347558, 347977, 348356, 348751, 349157, 349541, 349959, 350366, 350744, 351147, 351551, 351923, 352374, 352773, 353130, 353545]","[344229, 344628, 345028, 345428, 345828, 346228, 346629, 347028, 347440, 347821, 348227, 348605, 349016, 349409, 349801, 350219, 350602, 350992, 351373, 351799, 352210, 352619, 353002, 353393]",22,R,ITM,1.1,
5,400,trial,0,13,13,13,trial,"['S', 'S', 'S', 'S', 'S', 'S', 'S', 'C', 'C', 'C', 'C', 'C', 'C', 'C', 'C', 'C', 'C', 'C', 'C', 'C', 'C', 'C', 'C']","[359214, 359651, 360059, 360495, 360898, 361293, 361697, 362097, 362477, 362886, 363273, 363665, 364056, 364447, 364815, 365192, 365616, 366014, 366414, 366792, 367185, 367577, 367973]","[359361, 359808, 360243, 360649, 361061, 361465, 361856, 362274, 362625, 363062, 363437, 363823, 364183, 364606, 364978, 365359, 365777, 366192, 366609, 366965, 367332, 367733, 368128]","[358983, 359384, 359783, 360183, 360583, 360983, 361383, 361783, 362123, 362503, 362911, 363298, 363691, 364083, 364473, 364840, 365218, 365642, 366040, 366441, 366818, 367211, 367602, 367998]",22,R,ITM,1.1,
4,400,trial,0,14,14,14,trial,"['S', 'S', 'S', 'S', 'S', 'S', 'S', 'S', 'C', 'C', 'C', 'C', 'C', 'C', 'C', 'C', 'C', 'C', 'C', 'C', 'C', 'C', 'C', 'C']","[373691, 373925, 374258, 374660, 375069, 375472, 375871, 376274, 376675, 377057, 377424, 377802, 378209, 378612, 378997, 379397, 379803, 380147, 380548, 380962, 381341, 381758, 382158, 382553]","[373780, 374026, 374395, 374833, 375242, 375649, 375987, 376381, 376774, 377179, 377550, 377948, 378329, 378729, 379117, 379509, 379957, 380314, 380691, 381113, 381496, 381890, 382297, 382707]","[373500, 373900, 374300, 374701, 375100, 375500, 375901, 376301, 376700, 377082, 377451, 377829, 378234, 378638, 379023, 379423, 379829, 380173, 380573, 380988, 381367, 381784, 382184, 382578]",22,R,ITM,1.1,
4,600,trial,0,15,15,15,trial,"['S', 'S', 'S', 'S', 'S', 'S', 'S', 'C', 'C', 'C', 'C', 'C', 'C', 'C', 'C', 'C', 'C', 'C', 'C', 'C', 'C', 'C', 'C', 'C']","[388335, 389233, 389834, 390400, 391025, 391658, 392265, 392868, 392974, 393450, 394039, 394632, 395224, 395814, 396413, 396986, 397618, 398248, 398850, 399448, 400018, 400604, 401229, 401831]","[388443, 389415, 390063, 390682, 391296, 391901, 392506, 392894, 393091, 393709, 394287, 394875, 395479, 396070, 396661, 397241, 397874, 398525, 399094, 399677, 400266, 400863, 401471, 402059]","[388096, 388695, 389295, 389895, 390495, 391095, 391695, 392295, 392894, 393476, 394064, 394657, 395250, 395840, 396439, 397011, 397644, 398275, 398875, 399473, 400044, 400629, 401255, 401858]",22,R,ITM,1.1,
7,400,trial,0,16,16,16,trial,"['S', 'S', 'S', 'S', 'S', 'S', 'S', 'C', 'C', 'C', 'C', 'C', 'C', 'C', 'C', 'C', 'C', 'C', 'C', 'C', 'C', 'C', 'C']","[407583, 407943, 408317, 408706, 409103, 409533, 409903, 410333, 410734, 411159, 411561, 411956, 412324, 412724, 413146, 413545, 413929, 414307, 414697, 415087, 415480, 415882, 416290]","[407742, 408090, 408451, 408877, 409264, 409700, 410094, 410494, 410919, 411318, 411743, 412121, 412492, 412899, 413287, 413707, 414068, 414454, 414846, 415243, 415629, 416032, 416481]","[407172, 407570, 407970, 408371, 408771, 409171, 409571, 409971, 410360, 410761, 411186, 411589, 411983, 412352, 412750, 413173, 413573, 413956, 414333, 414725, 415114, 415508, 415908, 416318]",22,R,ITM,1.1,
6,400,trial,0,17,17,17,trial,"['S', 'S', 'S', 'S', 'S', 'S', 'S', 'S', 'C', 'C', 'C', 'C', 'C', 'C', 'C', 'C', 'C', 'C', 'C', 'C', 'C', 'C', 'C', 'C']","[422142, 422389, 422692, 423071, 423497, 423896, 424314, 424710, 425116, 425524, 425925, 426335, 426731, 427152, 427565, 427972, 428395, 428839, 429250, 429635, 430050, 430447, 430866, 431267]","[422248, 422530, 422839, 423230, 423648, 424071, 424475, 424887, 425286, 425696, 426083, 426508, 426921, 427313, 427729, 428149, 428589, 429000, 429415, 429814, 430215, 430622, 431015, 431417]","[421931, 422329, 422729, 423130, 423529, 423929, 424329, 424729, 425143, 425550, 425953, 426361, 426758, 427179, 427591, 428000, 428422, 428866, 429277, 429662, 430077, 430475, 430893, 431294]",22,R,ITM,1.1,
5,600,trial,0,18,18,18,trial,"['S', 'S', 'S', 'S', 'S', 'S', 'S', 'S', 'C', 'C', 'C', 'C', 'C', 'C', 'C', 'C', 'C', 'C', 'C', 'C', 'C', 'C', 'C', 'C']","[443179, 443649, 444065, 444663, 445263, 445838, 446460, 447052, 447662, 448249, 448823, 449394, 449940, 450524, 451088, 451656, 452252, 452850, 453411, 454021, 454608, 455188, 455756, 456332]","[443324, 443765, 444337, 444933, 445528, 446131, 446725, 447333, 447931, 448503, 449077, 449640, 450220, 450775, 451341, 451911, 452529, 453118, 453720, 454284, 454876, 455442, 456005, 456598]","[442900, 443500, 444100, 444700, 445300, 445900, 446500, 447100, 447687, 448275, 448848, 449421, 449966, 450550, 451113, 451682, 452278, 452876, 453437, 454046, 454634, 455214, 455782, 456358]",22,R,ITM,1.1,
2,600,trial,0,19,19,19,trial,"['S', 'S', 'S', 'S', 'S', 'S', 'S', 'S', 'C', 'C', 'C', 'C', 'C', 'C', 'C', 'C', 'C', 'C', 'C', 'C', 'C', 'C', 'C', 'C']","[462214, 462383, 463138, 463689, 464302, 464896, 465519, 466109, 466697, 467268, 467856, 468440, 469011, 469594, 470206, 470771, 471363, 471958, 472529, 473075, 473705, 474279, 474889, 475473]","[462234, 462556, 463394, 463961, 464580, 465178, 465774, 466359, 466938, 467537, 468111, 468654, 469272, 469860, 470444, 471012, 471619, 472207, 472762, 473319, 473937, 474529, 475149, 475737]","[461972, 462572, 463172, 463772, 464372, 464972, 465571, 466172, 466723, 467296, 467884, 468467, 469039, 469620, 470233, 470799, 471390, 471985, 472556, 473102, 473733, 474306, 474916, 475501]",22,R,ITM,1.1,
7,600,trial,0,20,20,20,trial,"['S', 'S', 'S', 'S', 'S', 'S', 'S', 'C', 'C', 'C', 'C', 'C', 'C', 'C', 'C', 'C', 'C', 'C', 'C', 'C', 'C', 'C', 'C']","[481655, 482344, 482931, 483539, 484173, 484770, 485360, 485986, 486567, 487123, 487701, 488267, 488871, 489470, 490049, 490626, 491198, 491784, 492361, 492933, 493500, 494076, 494642]","[481878, 482599, 483221, 483832, 484434, 485024, 485640, 486251, 486790, 487365, 487955, 488542, 489154, 489719, 490299, 490896, 491443, 492022, 492605, 493187, 493740, 494320, 494878]","[481223, 481822, 482422, 483022, 483622, 484222, 484823, 485423, 486012, 486594, 487151, 487729, 488295, 488898, 489497, 490077, 490652, 491225, 491811, 492389, 492960, 493528, 494103, 494668]",22,R,ITM,1.1,
3,400,trial,0,21,21,21,trial,"['S', 'S', 'S', 'S', 'S', 'S', 'S', 'S', 'C', 'C', 'C', 'C', 'C', 'C', 'C', 'C', 'C', 'C', 'C', 'C', 'C', 'C', 'C', 'C']","[500563, 500806, 501054, 501438, 501852, 502259, 502672, 503043, 503490, 503898, 504309, 504716, 505123, 505528, 505910, 506312, 506706, 507076, 507512, 507961, 508383, 508791, 509211, 509584]","[500670, 500896, 501187, 501623, 502023, 502432, 502818, 503202, 503668, 504044, 504466, 504820, 505298, 505645, 506057, 506391, 506820, 507196, 507704, 508102, 508530, 508911, 509327, 509711]","[500289, 500689, 501089, 501489, 501890, 502289, 502689, 503090, 503516, 503923, 504335, 504741, 505149, 505553, 505935, 506338, 506732, 507102, 507538, 507986, 508408, 508817, 509237, 509609]",22,R,ITM,1.1,
6,600,trial,0,22,22,22,trial,"['S', 'S', 'S', 'S', 'S', 'S', 'S', 'S', 'C', 'C', 'C', 'C', 'C', 'C', 'C', 'C', 'C', 'C', 'C', 'C', 'C', 'C', 'C', 'C']","[515552, 515783, 516404, 517021, 517615, 518211, 518812, 519404, 520015, 520609, 521212, 521811, 522402, 522981, 523551, 524130, 524701, 525315, 525907, 526473, 527066, 527654, 528229, 528845]","[515572, 516030, 516694, 517293, 517878, 518471, 519073, 519677, 520281, 520871, 521475, 522073, 522663, 523222, 523804, 524359, 524963, 525540, 526139, 526713, 527340, 527903, 528468, 529100]","[515251, 515849, 516449, 517049, 517649, 518249, 518849, 519449, 520042, 520636, 521239, 521838, 522429, 523009, 523579, 524157, 524728, 525341, 525935, 526499, 527092, 527682, 528256, 528873]",22,R,ITM,1.1,
3,600,trial,0,23,23,23,trial,"['S', 'S', 'S', 'S', 'S', 'S', 'S', 'C', 'C', 'C', 'C', 'C', 'C', 'C', 'C', 'C', 'C', 'C', 'C', 'C', 'C', 'C', 'C']","[535054, 535742, 536343, 536952, 537589, 538203, 538767, 539354, 539956, 540519, 541091, 541667, 542228, 542843, 543426, 543988, 544562, 545145, 545734, 546299, 546889, 547460, 548034]","[535409, 536018, 536617, 537269, 537836, 538429, 538999, 539579, 540174, 540728, 541305, 541892, 542459, 543081, 543646, 544225, 544774, 545362, 545960, 546531, 547127, 547677, 548246]","[534623, 535223, 535823, 536423, 537023, 537623, 538223, 538823, 539379, 539981, 540545, 541117, 541692, 542254, 542869, 543452, 544014, 544587, 545171, 545760, 546325, 546915, 547485, 548060]",22,R,ITM,1.1,
5,600,trial,0,24,24,24,trial,"['S', 'S', 'S', 'S', 'S', 'S', 'S', 'C', 'C', 'C', 'C', 'C', 'C', 'C', 'C', 'C', 'C', 'C', 'C', 'C', 'C', 'C', 'C']","[554128, 554809, 555421, 556051, 556659, 557266, 557828, 558449, 558990, 559579, 560140, 560712, 561315, 561913, 562491, 563091, 563701, 564300, 564849, 565450, 566010, 566614, 567188]","[554377, 555081, 555707, 556289, 556901, 557380, 557891, 558512, 559062, 559652, 560290, 560932, 561566, 562140, 562733, 563331, 563922, 564477, 565047, 565642, 566219, 566814, 567392]","[553714, 554313, 554913, 555513, 556113, 556713, 557314, 557914, 558475, 559015, 559604, 560165, 560738, 561341, 561939, 562518, 563118, 563727, 564326, 564876, 565476, 566036, 566639, 567214]",22,R,ITM,1.1,
4,600,trial,0,25,25,25,trial,"['S', 'S', 'S', 'S', 'S', 'S', 'S', 'C', 'C', 'C', 'C', 'C', 'C', 'C', 'C', 'C', 'C', 'C', 'C', 'C', 'C', 'C', 'C']","[572980, 573682, 574288, 574907, 575469, 576062, 576683, 577290, 577852, 578391, 578973, 579547, 580103, 580627, 581207, 581780, 582352, 582920, 583469, 584007, 584547, 585055, 585606]","[573159, 573945, 574534, 575135, 575720, 576324, 576950, 577532, 578102, 578638, 579209, 579766, 580342, 580881, 581469, 582013, 582584, 583153, 583659, 584212, 584772, 585261, 585824]","[572591, 573190, 573789, 574389, 574989, 575589, 576189, 576789, 577316, 577878, 578417, 578999, 579573, 580128, 580653, 581232, 581806, 582379, 582945, 583494, 584033, 584572, 585080, 585631]",22,R,ITM,1.1,
3,600,trial,0,26,26,26,trial,"['S', 'S', 'S', 'S', 'S', 'S', 'S', 'C', 'C', 'C', 'C', 'C', 'C', 'C', 'C', 'C', 'C', 'C', 'C', 'C', 'C', 'C', 'C']","[591535, 592257, 592837, 593442, 594024, 594657, 595251, 595860, 596422, 597023, 597602, 598188, 598770, 599327, 599861, 600434, 601016, 601597, 602168, 602755, 603331, 603932, 604506]","[591844, 592483, 593089, 593643, 594234, 594879, 595512, 596086, 596669, 597250, 597865, 598416, 598968, 599520, 600085, 600651, 601240, 601816, 602403, 602990, 603547, 604156, 604731]","[591131, 591731, 592331, 592931, 593531, 594131, 594732, 595332, 595886, 596448, 597049, 597627, 598213, 598796, 599353, 599886, 600460, 601042, 601623, 602193, 602780, 603358, 603958, 604531]",22,R,ITM,1.1,
2,400,trial,0,27,27,27,trial,"['S', 'S', 'S', 'S', 'S', 'S', 'S', 'C', 'C', 'C', 'C', 'C', 'C', 'C', 'C', 'C', 'C', 'C', 'C', 'C', 'C', 'C', 'C']","[610509, 610842, 611226, 611642, 612042, 612446, 612847, 613260, 613702, 614125, 614540, 614955, 615349, 615778, 616198, 616615, 617044, 617478, 617890, 618302, 618739, 619166, 619563]","[610650, 610988, 611391, 611812, 612143, 612616, 613000, 613421, 613867, 614283, 614709, 615114, 615523, 615948, 616374, 616807, 617225, 617656, 618053, 618485, 618918, 619327, 619765]","[610042, 610442, 610841, 611243, 611642, 612042, 612442, 612842, 613286, 613730, 614152, 614567, 614981, 615375, 615805, 616224, 616642, 617071, 617504, 617918, 618330, 618767, 619194, 619590]",22,R,ITM,1.1,
7,400,trial,0,28,28,28,trial,"['S', 'S', 'S', 'S', 'S', 'S', 'S', 'S', 'C', 'C', 'C', 'C', 'C', 'C', 'C', 'C', 'C', 'C', 'C', 'C', 'C', 'C', 'C', 'C']","[625489, 625717, 626099, 626478, 626917, 627345, 627726, 628115, 628494, 628891, 629285, 629677, 630070, 630486, 630883, 631291, 631701, 632090, 632507, 632927, 633328, 633725, 634133, 634547]","[625573, 625873, 626244, 626642, 627093, 627486, 627879, 628256, 628673, 629048, 629444, 629833, 630253, 630654, 631055, 631468, 631853, 632287, 632678, 633099, 633511, 633883, 634333, 634706]","[625314, 625715, 626115, 626515, 626915, 627315, 627716, 628115, 628520, 628919, 629313, 629704, 630097, 630513, 630910, 631319, 631729, 632118, 632534, 632953, 633355, 633752, 634161, 634573]",22,R,ITM,1.1,
4,400,trial,0,29,29,29,trial,"['S', 'S', 'S', 'S', 'S', 'S', 'S', 'S', 'C', 'C', 'C', 'C', 'C', 'C', 'C', 'C', 'C', 'C', 'C', 'C', 'C', 'C', 'C', 'C']","[640459, 640719, 641079, 641452, 641850, 642239, 642669, 643055, 643440, 643843, 644253, 644646, 645073, 645476, 645889, 646288, 646714, 647116, 647531, 647913, 648332, 648736, 649147, 649565]","[640539, 640847, 641224, 641615, 642025, 642397, 642833, 643178, 643592, 643983, 644424, 644803, 645239, 645635, 646048, 646427, 646883, 647233, 647695, 648042, 648486, 648834, 649337, 649742]","[640279, 640679, 641079, 641479, 641880, 642279, 642679, 643079, 643466, 643868, 644279, 644673, 645099, 645502, 645914, 646313, 646739, 647142, 647557, 647939, 648357, 648762, 649172, 649590]",22,R,ITM,1.1,
4,600,trial,0,30,30,30,trial,"['S', 'S', 'S', 'S', 'S', 'S', 'S', 'C', 'C', 'C', 'C', 'C', 'C', 'C', 'C', 'C', 'C', 'C', 'C', 'C', 'C', 'C', 'C']","[661686, 662370, 662974, 663578, 664196, 664793, 665389, 666003, 666597, 667185, 667746, 668328, 668908, 669508, 670102, 670646, 671218, 671785, 672368, 672953, 673532, 674141, 674698]","[661777, 662520, 663174, 663804, 664394, 665023, 665639, 666228, 666798, 667382, 667949, 668558, 669122, 669721, 670323, 670885, 671442, 672030, 672594, 673149, 673718, 674341, 674927]","[661279, 661879, 662479, 663079, 663680, 664280, 664880, 665479, 666029, 666622, 667210, 667772, 668354, 668934, 669534, 670128, 670671, 671244, 671812, 672394, 672978, 673558, 674166, 674723]",22,R,ITM,1.1,
5,400,trial,0,31,31,31,trial,"['S', 'S', 'S', 'S', 'S', 'S', 'S', 'C', 'C', 'C', 'C', 'C', 'C', 'C', 'C', 'C', 'C', 'C', 'C', 'C', 'C', 'C', 'C']","[680629, 680975, 681345, 681719, 682106, 682520, 682914, 683325, 683702, 684109, 684510, 684915, 685301, 685714, 686084, 686492, 686910, 687316, 687713, 688107, 688482, 688882, 689285]","[680758, 681121, 681487, 681853, 682220, 682636, 683023, 683460, 683836, 684269, 684677, 685094, 685497, 685882, 686253, 686663, 687081, 687502, 687845, 688314, 688644, 689078, 689470]","[680169, 680568, 680968, 681368, 681768, 682168, 682568, 682969, 683351, 683728, 684135, 684536, 684941, 685328, 685741, 686109, 686518, 686937, 687342, 687739, 688133, 688507, 688908, 689310]",22,R,ITM,1.1,
4,400,trial,0,32,32,32,trial,"['S', 'S', 'S', 'S', 'S', 'S', 'S', 'C', 'C', 'C', 'C', 'C', 'C', 'C', 'C', 'C', 'C', 'C', 'C', 'C', 'C', 'C', 'C']","[695502, 695808, 696182, 696584, 696984, 697385, 697808, 698233, 698618, 699025, 699423, 699829, 700230, 700670, 701081, 701526, 701933, 702352, 702738, 703163, 703575, 703994, 704419]","[695600, 695948, 696335, 696730, 697132, 697562, 697972, 698342, 698763, 699164, 699570, 699979, 700391, 700840, 701262, 701703, 702101, 702531, 702924, 703342, 703745, 704176, 704587]","[695024, 695425, 695824, 696224, 696625, 697024, 697424, 697824, 698259, 698644, 699052, 699449, 699855, 700256, 700696, 701107, 701551, 701959, 702377, 702764, 703188, 703600, 704020, 704445]",22,R,ITM,1.1,
2,400,trial,0,33,33,33,trial,"['S', 'S', 'S', 'S', 'S', 'S', 'C', 'C', 'C', 'C', 'C', 'C', 'C', 'C', 'C', 'C', 'C', 'C', 'C', 'C', 'C', 'C']","[710576, 710968, 711397, 711791, 712194, 712607, 713000, 713402, 713815, 714215, 714637, 715056, 715470, 715873, 716285, 716711, 717127, 717560, 717982, 718380, 718783, 719230]","[710689, 711124, 711566, 711959, 712368, 712774, 713182, 713585, 713990, 714388, 714811, 715238, 715637, 716055, 716507, 716899, 717301, 717751, 718167, 718561, 718993, 719437]","[709808, 710207, 710607, 711007, 711407, 711808, 712207, 712607, 713028, 713430, 713841, 714243, 714664, 715083, 715497, 715899, 716313, 716739, 717154, 717587, 718010, 718406, 718811, 719258]",22,R,ITM,1.1,
6,600,trial,0,34,34,34,trial,"['S', 'S', 'S', 'S', 'S', 'S', 'S', 'C', 'C', 'C', 'C', 'C', 'C', 'C', 'C', 'C', 'C', 'C', 'C', 'C', 'C', 'C', 'C']","[724983, 725722, 726325, 726963, 727514, 728145, 728756, 729319, 729954, 730578, 731235, 731855, 732468, 733105, 733714, 734342, 734959, 735551, 736174, 736787, 737393, 738011, 738608]","[725157, 725946, 726595, 727204, 727804, 728400, 728993, 729572, 730194, 730834, 731487, 732107, 732720, 733352, 733966, 734580, 735208, 735821, 736422, 737036, 737641, 738275, 738848]","[724588, 725187, 725787, 726387, 726987, 727587, 728187, 728787, 729346, 729981, 730606, 731261, 731882, 732494, 733131, 733741, 734368, 734987, 735579, 736200, 736814, 737420, 738038, 738634]",22,R,ITM,1.1,
6,400,trial,0,35,35,35,trial,"['S', 'S', 'S', 'S', 'S', 'S', 'S', 'C', 'C', 'C', 'C', 'C', 'C', 'C', 'C', 'C', 'C', 'C', 'C', 'C', 'C', 'C', 'C']","[744750, 745060, 745461, 745835, 746249, 746687, 747092, 747479, 747888, 748305, 748735, 749180, 749593, 750017, 750425, 750856, 751302, 751733, 752175, 752604, 753028, 753465, 753885]","[744897, 745223, 745622, 745993, 746436, 746849, 747253, 747635, 748079, 748479, 748904, 749355, 749772, 750191, 750610, 751054, 751486, 751927, 752358, 752786, 753231, 753647, 754083]","[744287, 744687, 745088, 745487, 745887, 746288, 746687, 747087, 747505, 747915, 748332, 748762, 749208, 749621, 750045, 750451, 750882, 751329, 751760, 752201, 752631, 753055, 753491, 753912]",22,R,ITM,1.1,
6,400,trial,0,36,36,36,trial,"['S', 'S', 'S', 'S', 'S', 'S', 'S', 'C', 'C', 'C', 'C', 'C', 'C', 'C', 'C', 'C', 'C', 'C', 'C', 'C', 'C', 'C', 'C']","[759808, 760160, 760529, 760967, 761401, 761795, 762191, 762613, 762992, 763413, 763816, 764232, 764618, 765042, 765431, 765850, 766262, 766682, 767085, 767498, 767887, 768305, 768713]","[759938, 760320, 760707, 761135, 761550, 761942, 762332, 762771, 763124, 763575, 763958, 764372, 764725, 765187, 765573, 766022, 766398, 766806, 767207, 767654, 768034, 768457, 768830]","[759452, 759852, 760251, 760651, 761052, 761451, 761851, 762251, 762640, 763019, 763441, 763843, 764259, 764645, 765070, 765459, 765877, 766288, 766708, 767112, 767524, 767913, 768331, 768740]",22,R,ITM,1.1,
6,600,trial,0,37,37,37,trial,"['S', 'S', 'S', 'S', 'S', 'S', 'S', 'S', 'C', 'C', 'C', 'C', 'C', 'C', 'C', 'C', 'C', 'C', 'C', 'C', 'C', 'C', 'C', 'C']","[774581, 775019, 775432, 776017, 776633, 777220, 777817, 778414, 778998, 779625, 780271, 780900, 781537, 782183, 782812, 783431, 784078, 784685, 785299, 785916, 786543, 787153, 787755, 788384]","[774712, 775166, 775668, 776266, 776908, 777457, 778080, 778648, 779260, 779882, 780514, 781173, 781806, 782454, 783066, 783693, 784319, 784949, 785559, 786179, 786801, 787397, 788025, 788647]","[774270, 774870, 775470, 776070, 776670, 777270, 777870, 778470, 779026, 779652, 780299, 780926, 781563, 782210, 782839, 783459, 784105, 784712, 785327, 785944, 786571, 787180, 787781, 788412]",22,R,ITM,1.1,
4,400,trial,0,38,38,38,trial,"['S', 'S', 'S', 'S', 'S', 'S', 'S', 'C', 'C', 'C', 'C', 'C', 'C', 'C', 'C', 'C', 'C', 'C', 'C', 'C', 'C', 'C', 'C']","[794373, 794767, 795167, 795551, 795934, 796331, 796690, 797119, 797536, 797943, 798340, 798731, 799133, 799529, 799942, 800336, 800763, 801200, 801598, 802014, 802417, 802808, 803223]","[794515, 794906, 795318, 795683, 796075, 796480, 796846, 797268, 797692, 798116, 798498, 798881, 799265, 799685, 800081, 800470, 800902, 801356, 801760, 802146, 802573, 802958, 803366]","[793951, 794351, 794752, 795151, 795551, 795952, 796351, 796751, 797145, 797561, 797970, 798365, 798756, 799159, 799555, 799968, 800362, 800789, 801225, 801624, 802039, 802443, 802834, 803250]",22,R,ITM,1.1,
4,600,trial,0,39,39,39,trial,"['S', 'S', 'S', 'S', 'S', 'S', 'S', 'S', 'C', 'C', 'C', 'C', 'C', 'C', 'C', 'C', 'C', 'C', 'C', 'C', 'C', 'C', 'C', 'C']","[809177, 809533, 810077, 810656, 811243, 811843, 812446, 813018, 813625, 814183, 814776, 815343, 815930, 816500, 817094, 817661, 818253, 818850, 819448, 820013, 820606, 821197, 821784, 822333]","[809347, 809704, 810315, 810903, 811501, 812112, 812700, 813296, 813845, 814396, 815001, 815587, 816182, 816736, 817315, 817880, 818509, 819123, 819699, 820248, 820844, 821444, 822014, 822581]","[808879, 809478, 810077, 810677, 811277, 811877, 812477, 813077, 813651, 814209, 814801, 815369, 815956, 816526, 817120, 817687, 818280, 818876, 819474, 820038, 820632, 821223, 821810, 822359]",22,R,ITM,1.1,
3,600,trial,0,40,40,40,trial,"['S', 'S', 'S', 'S', 'S', 'S', 'S', 'S', 'C', 'C', 'C', 'C', 'C', 'C', 'C', 'C', 'C', 'C', 'C', 'C', 'C', 'C', 'C', 'C']","[828502, 828884, 829247, 829898, 830504, 831091, 831689, 832286, 832849, 833423, 833996, 834550, 835098, 835611, 836108, 837173, 837720, 838222, 838727, 839257, 839797, 840361, 840924, 841477]","[828650, 829049, 829581, 830151, 830772, 831369, 831953, 832524, 833097, 833703, 834285, 834936, 835354, 835835, 837074, 837429, 837937, 838447, 838965, 839503, 840023, 840595, 841135, 841698]","[828135, 828735, 829335, 829935, 830535, 831135, 831735, 832335, 832875, 833448, 834022, 834576, 835124, 835637, 836133, 837198, 837745, 838248, 838753, 839282, 839823, 840387, 840949, 841502]",22,R,ITM,1.1,
3,400,trial,0,41,41,41,trial,"['S', 'S', 'S', 'S', 'S', 'S', 'S', 'C', 'C', 'C', 'C', 'C', 'C', 'C', 'C', 'C', 'C', 'C', 'C', 'C', 'C', 'C', 'C']","[847342, 847697, 848082, 848503, 848901, 849260, 849678, 850100, 850515, 850923, 851274, 851688, 852105, 852545, 852962, 853374, 853786, 854205, 854611, 855042, 855448, 855885, 856296]","[847495, 847852, 848247, 848658, 848998, 849425, 849854, 850278, 850678, 851085, 851424, 851841, 852271, 852687, 853116, 853556, 853943, 854361, 854766, 855224, 855629, 856056, 856440]","[846921, 847322, 847721, 848121, 848521, 848921, 849321, 849721, 850125, 850541, 850949, 851300, 851714, 852130, 852571, 852987, 853400, 853812, 854231, 854637, 855067, 855474, 855911, 856322]",22,R,ITM,1.1,
3,600,trial,0,42,42,42,trial,"['S', 'S', 'S', 'S', 'S', 'S', 'C', 'C', 'C', 'C', 'C', 'C', 'C', 'C', 'C', 'C', 'C', 'C', 'C', 'C', 'C', 'C']","[865456, 866094, 866691, 867264, 867880, 868478, 869072, 869651, 870225, 870809, 871392, 871961, 872523, 873114, 873714, 874264, 874805, 875371, 875935, 876507, 877054, 877627]","[865690, 866317, 866930, 867481, 868123, 868707, 869312, 869891, 870453, 871026, 871588, 872180, 872764, 873335, 873953, 874570, 875033, 875596, 876168, 876707, 877279, 877834]","[864352, 864952, 865552, 866152, 866752, 867352, 867952, 868552, 869098, 869677, 870251, 870836, 871417, 871987, 872549, 873140, 873740, 874290, 874830, 875397, 875961, 876532, 877080, 877652]",22,R,ITM,1.1,
7,400,trial,0,43,43,43,trial,"['S', 'S', 'S', 'S', 'S', 'S', 'S', 'S', 'C', 'C', 'C', 'C', 'C', 'C', 'C', 'C', 'C', 'C', 'C', 'C', 'C', 'C', 'C', 'C']","[883240, 883460, 883825, 884208, 884625, 885033, 885414, 885781, 886190, 886605, 886994, 887401, 887775, 888179, 888601, 889033, 889404, 889800, 890198, 890593, 890972, 891383, 891802, 892197]","[883333, 883585, 883947, 884342, 884759, 885147, 885521, 885908, 886336, 886726, 887119, 887537, 887934, 888336, 888752, 889267, 889572, 889972, 890334, 890753, 891146, 891550, 891910, 892336]","[883025, 883424, 883824, 884225, 884624, 885024, 885425, 885824, 886217, 886633, 887021, 887429, 887801, 888206, 888628, 889061, 889432, 889827, 890224, 890620, 890998, 891410, 891830, 892225]",22,R,ITM,1.1,
3,400,trial,0,44,44,44,trial,"['S', 'S', 'S', 'S', 'S', 'S', 'S', 'C', 'C', 'C', 'C', 'C', 'C', 'C', 'C', 'C', 'C', 'C', 'C', 'C', 'C', 'C', 'C']","[898100, 898546, 898944, 899353, 899768, 900187, 900591, 900976, 901380, 901800, 902227, 902627, 903049, 903444, 903866, 904281, 904707, 905133, 905549, 905978, 906401, 906828, 907247]","[898276, 898683, 899087, 899507, 899948, 900346, 900726, 901127, 901511, 901957, 902365, 902771, 903208, 903603, 904012, 904438, 904849, 905276, 905701, 906133, 906542, 906971, 907406]","[897812, 898212, 898612, 899012, 899412, 899812, 900212, 900613, 901002, 901405, 901826, 902254, 902652, 903074, 903470, 903891, 904306, 904732, 905158, 905575, 906004, 906427, 906854, 907273]",22,R,ITM,1.1,
7,400,trial,0,45,45,45,trial,"['S', 'S', 'S', 'S', 'S', 'S', 'S', 'S', 'C', 'C', 'C', 'C', 'C', 'C', 'C', 'C', 'C', 'C', 'C', 'C', 'C', 'C', 'C', 'C']","[913044, 913290, 913612, 913991, 914398, 914809, 915212, 915604, 916000, 916411, 916802, 917193, 917583, 917981, 918382, 918781, 919153, 919563, 919963, 920363, 920757, 921180, 921559, 921950]","[913160, 913405, 913735, 914140, 914556, 914969, 915357, 915751, 916154, 916547, 916962, 917328, 917726, 918122, 918516, 918927, 919300, 919709, 920121, 920492, 920901, 921322, 921723, 922039]","[912822, 913222, 913623, 914022, 914422, 914823, 915222, 915622, 916027, 916439, 916830, 917221, 917610, 918007, 918410, 918809, 919180, 919589, 919990, 920389, 920783, 921207, 921586, 921976]",22,R,ITM,1.1,
7,600,trial,0,46,46,46,trial,"['S', 'S', 'S', 'S', 'S', 'S', 'S', 'S', 'C', 'C', 'C', 'C', 'C', 'C', 'C', 'C', 'C', 'C', 'C', 'C', 'C', 'C', 'C', 'C']","[927705, 928021, 928606, 929220, 929862, 930440, 931028, 931592, 932180, 932768, 933383, 933957, 934539, 935142, 935732, 936321, 936875, 937482, 938093, 938726, 939326, 939897, 940480, 941017]","[927809, 928272, 928852, 929491, 930070, 930660, 931224, 931822, 932393, 933000, 933616, 934174, 934786, 935356, 935930, 936561, 937094, 937749, 938335, 938979, 939536, 940099, 940694]","[927455, 928054, 928654, 929254, 929854, 930454, 931054, 931654, 932207, 932795, 933409, 933985, 934566, 935170, 935758, 936347, 936901, 937508, 938121, 938754, 939353, 939924, 940507, 941043]",22,R,ITM,1.1,
5,600,trial,0,47,47,47,trial,"['S', 'S', 'S', 'S', 'S', 'S', 'S', 'S', 'C', 'C', 'C', 'C', 'C', 'C', 'C', 'C', 'C', 'C', 'C', 'C', 'C', 'C', 'C', 'C']","[946780, 947158, 947623, 948183, 948762, 949344, 949959, 950545, 951166, 951739, 952267, 952820, 953387, 953962, 954524, 955075, 955654, 956194, 956752, 957294, 957824, 958398, 958964, 959516]","[946952, 947350, 947870, 948433, 948987, 949598, 950205, 950828, 951383, 951944, 952493, 953030, 953617, 954166, 954707, 955278, 955875, 956410, 956949, 957491, 958017, 958601, 959154, 959736]","[946455, 947054, 947654, 948254, 948854, 949454, 950054, 950654, 951193, 951764, 952293, 952846, 953412, 953988, 954551, 955101, 955679, 956220, 956778, 957320, 957849, 958425, 958990, 959542]",22,R,ITM,1.1,
5,400,trial,0,48,48,48,trial,"['S', 'S', 'S', 'S', 'S', 'S', 'S', 'C', 'C', 'C', 'C', 'C', 'C', 'C', 'C', 'C', 'C', 'C', 'C', 'C', 'C', 'C', 'C']","[965262, 965619, 966001, 966425, 966808, 967204, 967621, 968022, 968408, 968823, 969230, 969638, 970044, 970460, 970861, 971270, 971687, 972103, 972502, 972903, 973320, 973756, 974161]","[965413, 965768, 966154, 966561, 966962, 967377, 967771, 968181, 968562, 968976, 969388, 969810, 970189, 970599, 971047, 971454, 971860, 972263, 972644, 973062, 973492, 973922, 974344]","[964853, 965254, 965653, 966053, 966453, 966853, 967254, 967653, 968047, 968433, 968850, 969255, 969664, 970070, 970485, 970887, 971295, 971713, 972129, 972527, 972929, 973345, 973782, 974187]",22,R,ITM,1.1,
2,600,trial,0,49,49,49,trial,"['S', 'S', 'S', 'S', 'S', 'S', 'S', 'C', 'C', 'C', 'C', 'C', 'C', 'C', 'C', 'C', 'C', 'C', 'C', 'C', 'C', 'C', 'C']","[980247, 980940, 981557, 982156, 982758, 983372, 983944, 984539, 985119, 985689, 986235, 986813, 987375, 987933, 988500, 989049, 989606, 990142, 990684, 991251, 991816, 992365, 992911]","[980442, 981153, 981749, 982379, 982986, 983592, 984196, 984756, 985322, 985888, 986475, 987024, 987570, 988152, 988717, 989265, 989834, 990353, 990915, 991472, 992016, 992628, 993127]","[979809, 980408, 981009, 981609, 982208, 982809, 983409, 984008, 984565, 985147, 985715, 986263, 986840, 987402, 987961, 988528, 989077, 989633, 990169, 990711, 991279, 991844, 992393, 992937]",22,R,ITM,1.1,
2,400,trial,0,50,50,50,trial,"['S', 'S', 'S', 'S', 'S', 'S', 'S', 'S', 'C', 'C', 'C', 'C', 'C', 'C', 'C', 'C', 'C', 'C', 'C', 'C', 'C', 'C', 'C', 'C']","[998520, 998755, 999079, 999472, 999840, 1000213, 1000632, 1001023, 1001375, 1001791, 1002234, 1002656, 1003049, 1003456, 1003890, 1004301, 1004690, 1005119, 1005579, 1005986, 1006369, 1006804, 1007244, 1007648]","[998571, 998875, 999209, 999553, 999971, 1000330, 1000749, 1001122, 1001532, 1001939, 1002371, 1002770, 1003171, 1003546, 1004002, 1004383, 1004824, 1005233, 1005673, 1006101, 1006530, 1006942, 1007390, 1007756]","[998269, 998669, 999069, 999470, 999869, 1000269, 1000670, 1001069, 1001403, 1001819, 1002261, 1002684, 1003077, 1003484, 1003917, 1004328, 1004718, 1005146, 1005606, 1006014, 1006397, 1006830, 1007270, 1007676]",22,R,ITM,1.1,
2,600,trial,0,51,51,51,trial,"['S', 'S', 'S', 'S', 'S', 'S', 'S', 'C', 'C', 'C', 'C', 'C', 'C', 'C', 'C', 'C', 'C', 'C', 'C', 'C', 'C', 'C', 'C']","[1013912, 1014578, 1015230, 1015834, 1016393, 1017016, 1017600, 1018200, 1018777, 1019346, 1019890, 1020514, 1021116, 1021691, 1022260, 1022849, 1023420, 1024017, 1024622, 1025238, 1025773, 1026334, 1026906]","[1014200, 1014803, 1015429, 1016044, 1016627, 1017186, 1017756, 1018383, 1018956, 1019569, 1020107, 1020759, 1021319, 1021922, 1022464, 1023072, 1023627, 1024181, 1024746, 1025435, 1025981, 1026525, 1027077]","[1013448, 1014047, 1014648, 1015248, 1015848, 1016449, 1017048, 1017649, 1018226, 1018804, 1019374, 1019918, 1020541, 1021144, 1021718, 1022287, 1022876, 1023448, 1024045, 1024650, 1025264, 1025800, 1026361, 1026932]",22,R,ITM,1.1,
5,600,trial,0,52,52,52,trial,"['S', 'S', 'S', 'S', 'S', 'S', 'S', 'C', 'C', 'C', 'C', 'C', 'C', 'C', 'C', 'C', 'C', 'C', 'C', 'C', 'C', 'C', 'C']","[1033013, 1033706, 1034330, 1034951, 1035556, 1036145, 1036758, 1037361, 1037942, 1038517, 1039075, 1039625, 1040231, 1040829, 1041324, 1041905, 1042463, 1043030, 1043588, 1044145, 1044707, 1045245, 1045801]","[1033188, 1033929, 1034569, 1035191, 1035793, 1036405, 1036977, 1037561, 1038148, 1038776, 1039288, 1039830, 1040440, 1041044, 1041521, 1042121, 1042669, 1043210, 1043782, 1044363, 1044905, 1045457, 1046014]","[1032612, 1033211, 1033811, 1034412, 1035012, 1035612, 1036211, 1036811, 1037386, 1037969, 1038542, 1039100, 1039650, 1040258, 1040855, 1041349, 1041931, 1042489, 1043055, 1043613, 1044170, 1044733, 1045271, 1045827]",22,R,ITM,1.1,
7,600,trial,0,53,53,53,trial,"['S', 'S', 'S', 'S', 'S', 'S', 'S', 'C', 'C', 'C', 'C', 'C', 'C', 'C', 'C', 'C', 'C', 'C', 'C', 'C', 'C', 'C', 'C']","[1051969, 1052741, 1053337, 1053943, 1054562, 1055132, 1055700, 1056354, 1056971, 1057564, 1058118, 1058692, 1059268, 1059842, 1060419, 1060972, 1061554, 1062126, 1062671, 1063255, 1063813, 1064374, 1064914]","[1052146, 1052946, 1053562, 1054144, 1054770, 1055358, 1055917, 1056561, 1057197, 1057789, 1058335, 1058913, 1059487, 1060097, 1060655, 1061211, 1061748, 1062342, 1062885, 1063462, 1064031, 1064579, 1065128]","[1051576, 1052175, 1052775, 1053375, 1053975, 1054575, 1055175, 1055775, 1056380, 1056998, 1057591, 1058145, 1058718, 1059296, 1059868, 1060447, 1060999, 1061581, 1062154, 1062699, 1063282, 1063839, 1064401, 1064942]",22,R,ITM,1.1,
2,600,trial,0,54,54,54,trial,"['S', 'S', 'S', 'S', 'S', 'S', 'S', 'C', 'C', 'C', 'C', 'C', 'C', 'C', 'C', 'C', 'C', 'C', 'C', 'C', 'C', 'C', 'C']","[1076712, 1077352, 1077954, 1078553, 1079152, 1079770, 1080358, 1080944, 1081497, 1082062, 1082632, 1083174, 1083728, 1084310, 1084861, 1085440, 1085977, 1086542, 1087095, 1087639, 1088187, 1088738, 1089300]","[1076919, 1077558, 1078145, 1078757, 1079321, 1079960, 1080566, 1081156, 1081705, 1082235, 1082813, 1083366, 1083935, 1084503, 1085038, 1085630, 1086169, 1086717, 1087267, 1087816, 1088401, 1088920, 1089477]","[1076234, 1076834, 1077434, 1078034, 1078633, 1079234, 1079833, 1080434, 1080972, 1081525, 1082089, 1082659, 1083202, 1083756, 1084338, 1084889, 1085466, 1086004, 1086570, 1087122, 1087666, 1088214, 1088764, 1089327]",22,R,ITM,1.1,
7,400,trial,0,55,55,55,trial,"['S', 'S', 'S', 'S', 'S', 'S', 'S', 'C', 'C', 'C', 'C', 'C', 'C', 'C', 'C', 'C', 'C', 'C', 'C', 'C', 'C', 'C', 'C']","[1095225, 1095573, 1095974, 1096376, 1096755, 1097155, 1097573, 1097976, 1098406, 1098817, 1099242, 1099649, 1100076, 1100479, 1100896, 1101309, 1101740, 1102156, 1102553, 1102991, 1103422, 1103850, 1104251]","[1095353, 1095713, 1096107, 1096513, 1096934, 1097319, 1097704, 1098158, 1098545, 1098978, 1099407, 1099816, 1100223, 1100649, 1101045, 1101478, 1101876, 1102315, 1102727, 1103144, 1103569, 1104004, 1104420]","[1094774, 1095174, 1095573, 1095973, 1096373, 1096773, 1097174, 1097573, 1098004, 1098433, 1098845, 1099269, 1099675, 1100102, 1100507, 1100922, 1101337, 1101766, 1102184, 1102579, 1103019, 1103450, 1103877, 1104278]",22,R,ITM,1.1,
3,600,trial,0,56,56,56,trial,"['S', 'S', 'S', 'S', 'S', 'S', 'S', 'S', 'C', 'C', 'C', 'C', 'C', 'C', 'C', 'C', 'C', 'C', 'C', 'C', 'C', 'C', 'C', 'C']","[1110047, 1110415, 1110884, 1111486, 1112062, 1112649, 1113274, 1113877, 1114476, 1115030, 1115566, 1116103, 1116658, 1117218, 1117772, 1118326, 1118871, 1119428, 1119973, 1120504, 1121036, 1121568, 1122135, 1122676]","[1110204, 1110566, 1111131, 1111726, 1112315, 1112907, 1113501, 1114105, 1114673, 1115211, 1115769, 1116282, 1116860, 1117426, 1117975, 1118527, 1119078, 1119634, 1120165, 1120700, 1121230, 1121762, 1122305, 1122864]","[1109735, 1110335, 1110935, 1111535, 1112135, 1112735, 1113335, 1113935, 1114502, 1115056, 1115591, 1116129, 1116684, 1117244, 1117798, 1118352, 1118897, 1119454, 1119998, 1120530, 1121061, 1121594, 1122160, 1122702]",22,R,ITM,1.1,
3,400,trial,0,57,57,57,trial,"['S', 'S', 'S', 'S', 'S', 'S', 'S', 'S', 'C', 'C', 'C', 'C', 'C', 'C', 'C', 'C', 'C', 'C', 'C', 'C', 'C', 'C', 'C', 'C']","[1128547, 1128754, 1129049, 1129477, 1129889, 1130278, 1130682, 1131095, 1131491, 1131890, 1132280, 1132698, 1133104, 1133487, 1133874, 1134322, 1134780, 1135199, 1135610, 1136028, 1136402, 1136826, 1137252, 1137648]","[1128600, 1128869, 1129195, 1129614, 1130017, 1130409, 1130824, 1131227, 1131645, 1132030, 1132414, 1132832, 1133257, 1133625, 1134029, 1134465, 1134928, 1135374, 1135750, 1136174, 1136558, 1136962, 1137383, 1137810]","[1128312, 1128712, 1129112, 1129512, 1129912, 1130312, 1130713, 1131112, 1131516, 1131916, 1132306, 1132724, 1133129, 1133512, 1133899, 1134348, 1134806, 1135224, 1135636, 1136054, 1136428, 1136851, 1137277, 1137674]",22,R,ITM,1.1,
6,400,trial,0,58,58,58,trial,"['S', 'S', 'S', 'S', 'S', 'S', 'S', 'C', 'C', 'C', 'C', 'C', 'C', 'C', 'C', 'C', 'C', 'C', 'C', 'C', 'C', 'C', 'C']","[1143662, 1144011, 1144376, 1144795, 1145183, 1145600, 1146000, 1146384, 1146771, 1147217, 1147636, 1148068, 1148497, 1148887, 1149299, 1149702, 1150119, 1150547, 1150979, 1151393, 1151831, 1152248, 1152654]","[1143810, 1144171, 1144529, 1144951, 1145352, 1145734, 1146140, 1146536, 1146941, 1147368, 1147817, 1148236, 1148649, 1149065, 1149471, 1149884, 1150305, 1150706, 1151104, 1151546, 1151973, 1152401, 1152812]","[1143212, 1143611, 1144011, 1144412, 1144811, 1145211, 1145611, 1146011, 1146412, 1146798, 1147244, 1147663, 1148096, 1148524, 1148913, 1149327, 1149728, 1150146, 1150574, 1151005, 1151420, 1151857, 1152276, 1152681]",22,R,ITM,1.1,
3,600,trial,0,59,59,59,trial,"['S', 'S', 'S', 'S', 'S', 'S', 'S', 'S', 'C', 'C', 'C', 'C', 'C', 'C', 'C', 'C', 'C', 'C', 'C', 'C', 'C', 'C', 'C', 'C']","[1158763, 1159141, 1159495, 1160102, 1160714, 1161305, 1161922, 1162512, 1163136, 1163711, 1164291, 1164845, 1165393, 1165939, 1166495, 1167035, 1167592, 1168141, 1168688, 1169199, 1169746, 1170317, 1170886, 1171409]","[1158927, 1159275, 1159739, 1160341, 1160976, 1161561, 1162185, 1162780, 1163334, 1163912, 1164515, 1165042, 1165607, 1166123, 1166690, 1167233, 1167789, 1168337, 1168882, 1169395, 1169961, 1170515, 1171080, 1171631]","[1158395, 1158994, 1159595, 1160195, 1160795, 1161394, 1161994, 1162594, 1163161, 1163737, 1164316, 1164870, 1165419, 1165965, 1166521, 1167060, 1167618, 1168166, 1168713, 1169224, 1169772, 1170342, 1170912, 1171435]",22,R,ITM,1.1,
5,400,trial,0,60,60,60,trial,"['S', 'S', 'S', 'S', 'S', 'S', 'S', 'C', 'C', 'C', 'C', 'C', 'C', 'C', 'C', 'C', 'C', 'C', 'C', 'C', 'C', 'C', 'C']","[1177397, 1177812, 1178186, 1178605, 1178986, 1179370, 1179761, 1180179, 1180567, 1180969, 1181375, 1181774, 1182196, 1182606, 1183003, 1183404, 1183830, 1184253, 1184652, 1185070, 1185480, 1185881, 1186275]","[1177539, 1177937, 1178315, 1178734, 1179131, 1179510, 1179924, 1180326, 1180734, 1181121, 1181543, 1181958, 1182354, 1182784, 1183179, 1183584, 1183987, 1184417, 1184830, 1185235, 1185660, 1186030, 1186425]","[1176987, 1177387, 1177786, 1178186, 1178587, 1178986, 1179386, 1179786, 1180205, 1180593, 1180996, 1181401, 1181801, 1182222, 1182632, 1183030, 1183429, 1183856, 1184279, 1184677, 1185095, 1185506, 1185906, 1186301]",22,R,ITM,1.1,
4,600,trial,0,61,61,61,trial,"['S', 'S', 'S', 'S', 'S', 'S', 'S', 'S', 'C', 'C', 'C', 'C', 'C', 'C', 'C', 'C', 'C', 'C', 'C', 'C', 'C', 'C', 'C', 'C']","[1192369, 1192739, 1193180, 1193792, 1194375, 1194978, 1195591, 1196147, 1196741, 1197302, 1197858, 1198395, 1198961, 1199506, 1200046, 1200595, 1201169, 1201689, 1202222, 1202774, 1203302, 1203815, 1204377, 1204958]","[1192517, 1192892, 1193425, 1194020, 1194595, 1195177, 1195816, 1196369, 1196958, 1197504, 1198059, 1198613, 1199162, 1199686, 1200246, 1200800, 1201380, 1201890, 1202446, 1202974, 1203514, 1204024, 1204586, 1205163]","[1192053, 1192652, 1193252, 1193852, 1194452, 1195053, 1195653, 1196253, 1196767, 1197328, 1197884, 1198422, 1198987, 1199532, 1200071, 1200621, 1201195, 1201715, 1202248, 1202799, 1203328, 1203841, 1204403, 1204984]",22,R,ITM,1.1,
3,400,trial,0,62,62,62,trial,"['S', 'S', 'S', 'S', 'S', 'S', 'S', 'C', 'C', 'C', 'C', 'C', 'C', 'C', 'C', 'C', 'C', 'C', 'C', 'C', 'C', 'C', 'C']","[1210817, 1211219, 1211612, 1212002, 1212394, 1212826, 1213223, 1213650, 1214089, 1214534, 1214937, 1215355, 1215753, 1216160, 1216572, 1216955, 1217362, 1217782, 1218227, 1218649, 1219052, 1219441, 1219857]","[1210983, 1211365, 1211756, 1212157, 1212567, 1212981, 1213384, 1213806, 1214236, 1214671, 1215099, 1215514, 1215870, 1216258, 1216736, 1217121, 1217517, 1217948, 1218362, 1218792, 1219184, 1219618, 1220018]","[1210455, 1210854, 1211254, 1211655, 1212055, 1212455, 1212855, 1213255, 1213676, 1214114, 1214560, 1214962, 1215381, 1215778, 1216186, 1216598, 1216980, 1217388, 1217808, 1218252, 1218674, 1219078, 1219467, 1219883]",22,R,ITM,1.1,
5,400,trial,0,63,63,63,trial,"['S', 'S', 'S', 'S', 'S', 'S', 'S', 'C', 'C', 'C', 'C', 'C', 'C', 'C', 'C', 'C', 'C', 'C', 'C', 'C', 'C', 'C', 'C']","[1225734, 1226136, 1226520, 1226959, 1227370, 1227783, 1228182, 1228554, 1228936, 1229330, 1229760, 1230161, 1230570, 1230960, 1231342, 1231763, 1232135, 1232543, 1232929, 1233331, 1233729, 1234119, 1234514]","[1225868, 1226283, 1226704, 1227123, 1227522, 1227930, 1228319, 1228700, 1229074, 1229480, 1229917, 1230317, 1230706, 1231115, 1231485, 1231899, 1232295, 1232679, 1233093, 1233488, 1233885, 1234286, 1234652]","[1225394, 1225794, 1226194, 1226594, 1226994, 1227395, 1227794, 1228194, 1228579, 1228962, 1229356, 1229786, 1230187, 1230597, 1230987, 1231368, 1231789, 1232161, 1232569, 1232955, 1233356, 1233755, 1234146, 1234540]",22,R,ITM,1.1,
2,600,trial,0,64,64,64,trial,"['S', 'S', 'S', 'S', 'S', 'S', 'S', 'S', 'C', 'C', 'C', 'C', 'C', 'C', 'C', 'C', 'C', 'C', 'C', 'C', 'C', 'C', 'C', 'C']","[1240386, 1240627, 1241270, 1241883, 1242468, 1243073, 1243683, 1244296, 1244892, 1245484, 1246064, 1246617, 1247200, 1247734, 1248282, 1248846, 1249398, 1249934, 1250487, 1251030, 1251545, 1252134, 1252689, 1253233]","[1240476, 1240935, 1241535, 1242106, 1242710, 1243322, 1243917, 1244517, 1245082, 1245705, 1246247, 1246823, 1247387, 1247922, 1248467, 1249033, 1249584, 1250111, 1250659, 1251244, 1251793, 1252325, 1252924, 1253442]","[1240140, 1240740, 1241340, 1241940, 1242541, 1243141, 1243741, 1244340, 1244919, 1245510, 1246091, 1246645, 1247226, 1247762, 1248309, 1248874, 1249425, 1249961, 1250513, 1251057, 1251571, 1252161, 1252717, 1253261]",22,R,ITM,1.1,
2,400,trial,0,65,65,65,trial,"['S', 'S', 'S', 'S', 'S', 'S', 'S', 'S', 'C', 'C', 'C', 'C', 'C', 'C', 'C', 'C', 'C', 'C', 'C', 'C', 'C', 'C', 'C', 'C']","[1259124, 1259351, 1259649, 1260035, 1260419, 1260806, 1261211, 1261604, 1262019, 1262430, 1262818, 1263207, 1263638, 1264077, 1264486, 1264892, 1265284, 1265692, 1266102, 1266508, 1266928, 1267324, 1267744, 1268147]","[1259237, 1259458, 1259759, 1260127, 1260533, 1260912, 1261341, 1261753, 1262149, 1262568, 1262957, 1263360, 1263766, 1264214, 1264619, 1265030, 1265425, 1265828, 1266219, 1266653, 1267047, 1267491, 1267893, 1268281]","[1258848, 1259248, 1259649, 1260048, 1260447, 1260849, 1261248, 1261647, 1262047, 1262456, 1262845, 1263235, 1263665, 1264105, 1264514, 1264919, 1265310, 1265719, 1266128, 1266535, 1266956, 1267351, 1267771, 1268174]",22,R,ITM,1.1,
7,600,trial,0,66,66,66,trial,"['S', 'S', 'S', 'S', 'S', 'S', 'S', 'S', 'C', 'C', 'C', 'C', 'C', 'C', 'C', 'C', 'C', 'C', 'C', 'C', 'C', 'C', 'C', 'C']","[1274080, 1274540, 1275023, 1275575, 1276176, 1276821, 1277433, 1277998, 1278605, 1279208, 1279819, 1280393, 1280955, 1281531, 1282070, 1282633, 1283141, 1283672, 1284220, 1284717, 1285236, 1285767, 1286298, 1286804]","[1274189, 1274674, 1275209, 1275803, 1276422, 1277023, 1277603, 1278182, 1278784, 1279371, 1279976, 1280572, 1281132, 1281731, 1282308, 1282839, 1283356, 1283873, 1284419, 1284947, 1285417, 1285985, 1286478, 1286982]","[1273834, 1274433, 1275033, 1275633, 1276233, 1276833, 1277433, 1278033, 1278632, 1279235, 1279846, 1280419, 1280982, 1281559, 1282097, 1282661, 1283169, 1283698, 1284247, 1284745, 1285264, 1285793, 1286325, 1286831]",22,R,ITM,1.1,
7,600,trial,0,67,67,67,trial,"['S', 'S', 'S', 'S', 'S', 'S', 'S', 'S', 'C', 'C', 'C', 'C', 'C', 'C', 'C', 'C', 'C', 'C', 'C', 'C', 'C', 'C', 'C', 'C']","[1292849, 1293222, 1293546, 1294181, 1294788, 1295371, 1295966, 1296592, 1297191, 1297764, 1298347, 1298904, 1299491, 1300051, 1300631, 1301213, 1301807, 1302351, 1302914, 1303485, 1304048, 1304631, 1305195, 1305745]","[1292979, 1293324, 1293788, 1294397, 1294976, 1295560, 1296162, 1296796, 1297373, 1297978, 1298561, 1299110, 1299699, 1300238, 1300843, 1301417, 1302017, 1302562, 1303135, 1303696, 1304259, 1304830, 1305409, 1305964]","[1292443, 1293042, 1293642, 1294242, 1294842, 1295442, 1296043, 1296643, 1297218, 1297792, 1298373, 1298930, 1299518, 1300079, 1300659, 1301239, 1301833, 1302378, 1302941, 1303512, 1304076, 1304658, 1305222, 1305773]",22,R,ITM,1.1,
4,400,trial,0,68,68,68,trial,"['S', 'S', 'S', 'S', 'S', 'S', 'S', 'C', 'C', 'C', 'C', 'C', 'C', 'C', 'C', 'C', 'C', 'C', 'C', 'C', 'C', 'C', 'C']","[1311770, 1312143, 1312548, 1312959, 1313339, 1313768, 1314160, 1314590, 1314999, 1315402, 1315794, 1316187, 1316591, 1316992, 1317393, 1317789, 1318212, 1318628, 1319023, 1319427, 1319822, 1320244, 1320639]","[1311917, 1312289, 1312689, 1313089, 1313489, 1313908, 1314281, 1314697, 1315153, 1315527, 1315927, 1316337, 1316747, 1317142, 1317559, 1317960, 1318375, 1318767, 1319194, 1319586, 1320002, 1320370, 1320794]","[1311393, 1311794, 1312194, 1312594, 1312994, 1313394, 1313795, 1314194, 1314616, 1315024, 1315428, 1315820, 1316212, 1316617, 1317017, 1317420, 1317815, 1318238, 1318653, 1319049, 1319452, 1319847, 1320269, 1320665]",22,R,ITM,1.1,
6,400,trial,0,69,69,69,trial,"['S', 'S', 'S', 'S', 'S', 'S', 'S', 'S', 'C', 'C', 'C', 'C', 'C', 'C', 'C', 'C', 'C', 'C', 'C', 'C', 'C', 'C', 'C', 'C']","[1326234, 1326457, 1326802, 1327166, 1327587, 1327978, 1328377, 1328772, 1329205, 1329629, 1330024, 1330421, 1330821, 1331236, 1331641, 1332032, 1332403, 1332825, 1333213, 1333609, 1334019, 1334419, 1334820, 1335234]","[1326328, 1326592, 1326950, 1327299, 1327732, 1328140, 1328512, 1328891, 1329362, 1329766, 1330189, 1330565, 1330989, 1331369, 1331806, 1332165, 1332570, 1332965, 1333371, 1333771, 1334195, 1334567, 1334982, 1335399]","[1326033, 1326432, 1326832, 1327233, 1327632, 1328032, 1328433, 1328832, 1329231, 1329655, 1330051, 1330448, 1330848, 1331263, 1331667, 1332060, 1332429, 1332851, 1333239, 1333637, 1334046, 1334446, 1334848, 1335261]",22,R,ITM,1.1,
5,600,trial,0,70,70,70,trial,"['S', 'S', 'S', 'S', 'S', 'S', 'S', 'S', 'C', 'C', 'C', 'C', 'C', 'C', 'C', 'C', 'C', 'C', 'C', 'C', 'C', 'C', 'C', 'C']","[1340926, 1341263, 1341857, 1342436, 1343003, 1343590, 1344160, 1344735, 1345358, 1345911, 1346461, 1347036, 1347574, 1348153, 1348717, 1349274, 1349795, 1350341, 1350862, 1351422, 1351955, 1352494, 1353043, 1353594]","[1341085, 1341556, 1342091, 1342668, 1343246, 1343791, 1344405, 1345006, 1345594, 1346137, 1346666, 1347238, 1347799, 1348354, 1348930, 1349498, 1350040, 1350589, 1351108, 1351655, 1352203, 1352726, 1353268, 1353850]","[1340654, 1341254, 1341854, 1342454, 1343054, 1343654, 1344254, 1344855, 1345384, 1345937, 1346487, 1347061, 1347600, 1348178, 1348744, 1349300, 1349821, 1350368, 1350889, 1351448, 1351982, 1352519, 1353069, 1353620]",22,R,ITM,1.1,
2,400,trial,0,71,71,71,trial,"['S', 'S', 'S', 'S', 'S', 'S', 'S', 'S', 'C', 'C', 'C', 'C', 'C', 'C', 'C', 'C', 'C', 'C', 'C', 'C', 'C', 'C', 'C', 'C']","[1359576, 1359840, 1360115, 1360479, 1360880, 1361264, 1361688, 1362042, 1362456, 1362850, 1363264, 1363656, 1364057, 1364436, 1364851, 1365251, 1365637, 1366050, 1366460, 1366883, 1367280, 1367699, 1368090, 1368524]","[1359711, 1359947, 1360247, 1360629, 1361026, 1361440, 1361829, 1362199, 1362620, 1363007, 1363382, 1363806, 1364201, 1364596, 1365015, 1365417, 1365798, 1366209, 1366624, 1367008, 1367447, 1367866, 1368260, 1368704]","[1359310, 1359710, 1360110, 1360512, 1360911, 1361311, 1361711, 1362110, 1362483, 1362878, 1363292, 1363684, 1364084, 1364464, 1364878, 1365277, 1365664, 1366077, 1366488, 1366910, 1367307, 1367726, 1368118, 1368552]",22,R,ITM,1.1,
4,400,trial,0,72,72,72,trial,"['S', 'S', 'S', 'S', 'S', 'S', 'S', 'S', 'C', 'C', 'C', 'C', 'C', 'C', 'C', 'C', 'C', 'C', 'C', 'C', 'C', 'C', 'C', 'C']","[1374177, 1374366, 1374673, 1375090, 1375497, 1375887, 1376297, 1376692, 1377107, 1377492, 1377902, 1378299, 1378702, 1379119, 1379509, 1379921, 1380329, 1380741, 1381143, 1381543, 1381964, 1382380, 1382786, 1383180]","[1374263, 1374491, 1374806, 1375217, 1375629, 1376009, 1376425, 1376824, 1377236, 1377642, 1378057, 1378438, 1378856, 1379266, 1379671, 1380062, 1380517, 1380891, 1381320, 1381704, 1382128, 1382533, 1382924, 1383354]","[1373921, 1374321, 1374722, 1375121, 1375521, 1375922, 1376322, 1376722, 1377133, 1377517, 1377928, 1378325, 1378728, 1379144, 1379534, 1379947, 1380355, 1380766, 1381169, 1381570, 1381991, 1382407, 1382811, 1383205]",22,R,ITM,1.1,
5,600,trial,0,73,73,73,trial,"['S', 'S', 'S', 'S', 'S', 'S', 'S', 'S', 'S', 'C', 'C', 'C', 'C', 'C', 'C', 'C', 'C', 'C', 'C', 'C', 'C', 'C', 'C', 'C', 'C']","[1389006, 1389190, 1389524, 1389889, 1390512, 1391097, 1391704, 1392311, 1392903, 1393522, 1394116, 1394699, 1395257, 1395830, 1396386, 1396959, 1397521, 1398086, 1398622, 1399169, 1399702, 1400240, 1400774, 1401315, 1401887]","[1389081, 1389383, 1389647, 1390137, 1390713, 1391352, 1391941, 1392553, 1393155, 1393761, 1394342, 1394926, 1395501, 1396043, 1396593, 1397178, 1397730, 1398294, 1398846, 1399388, 1399916, 1400487, 1400989, 1401532, 1402118]","[1388774, 1389373, 1389973, 1390573, 1391173, 1391773, 1392373, 1392973, 1393548, 1394142, 1394724, 1395282, 1395856, 1396413, 1396984, 1397547, 1398112, 1398648, 1399194, 1399728, 1400265, 1400801, 1401340, 1401914]",22,R,ITM,1.1,
4,600,trial,0,74,74,74,trial,"['S', 'S', 'S', 'S', 'S', 'S', 'S', 'S', 'C', 'C', 'C', 'C', 'C', 'C', 'C', 'C', 'C', 'C', 'C', 'C', 'C', 'C', 'C', 'C']","[1408007, 1408494, 1408835, 1409404, 1409956, 1410557, 1411161, 1411750, 1412366, 1412914, 1413468, 1414004, 1414532, 1415045, 1415560, 1416057, 1416554, 1417049, 1417537, 1418056, 1418598, 1419125, 1419667, 1420194]","[1408308, 1408598, 1409049, 1409608, 1410208, 1410806, 1411408, 1412017, 1412601, 1413126, 1413666, 1414202, 1414753, 1415251, 1415777, 1416275, 1416767, 1417260, 1417764, 1418263, 1418823, 1419356, 1419852, 1420424]","[1407656, 1408256, 1408856, 1409456, 1410055, 1410655, 1411255, 1411855, 1412391, 1412939, 1413493, 1414030, 1414557, 1415070, 1415585, 1416083, 1416580, 1417074, 1417563, 1418082, 1418624, 1419151, 1419693, 1420220]",22,R,ITM,1.1,
6,600,trial,0,75,75,75,trial,"['S', 'S', 'S', 'S', 'S', 'S', 'S', 'C', 'C', 'C', 'C', 'C', 'C', 'C', 'C', 'C', 'C', 'C', 'C', 'C', 'C', 'C', 'C']","[1425980, 1426647, 1427210, 1427818, 1428442, 1429055, 1429663, 1430257, 1430825, 1431372, 1431944, 1432555, 1433108, 1433653, 1434161, 1434703, 1435255, 1435799, 1436307, 1436830, 1437369, 1437881, 1438419]","[1426138, 1426821, 1427419, 1428058, 1428630, 1429295, 1429894, 1430462, 1431054, 1431588, 1432123, 1432740, 1433323, 1433834, 1434373, 1434940, 1435462, 1435996, 1436498, 1437033, 1437524, 1438034, 1438584]","[1425571, 1426170, 1426770, 1427371, 1427971, 1428571, 1429171, 1429771, 1430284, 1430852, 1431400, 1431970, 1432583, 1433135, 1433680, 1434188, 1434730, 1435282, 1435827, 1436335, 1436858, 1437395, 1437907, 1438446]",22,R,ITM,1.1,
7,400,trial,0,76,76,76,trial,"['S', 'S', 'S', 'S', 'S', 'S', 'S', 'C', 'C', 'C', 'C', 'C', 'C', 'C', 'C', 'C', 'C', 'C', 'C', 'C', 'C', 'C', 'C']","[1444555, 1444938, 1445368, 1445767, 1446162, 1446563, 1446962, 1447360, 1447726, 1448144, 1448560, 1448965, 1449365, 1449784, 1450205, 1450624, 1451016, 1451410, 1451829, 1452232, 1452639, 1453040, 1453451]","[1444729, 1445068, 1445484, 1445901, 1446320, 1446710, 1447104, 1447516, 1447907, 1448286, 1448721, 1449133, 1449523, 1449965, 1450362, 1450767, 1451167, 1451581, 1451984, 1452390, 1452784, 1453200, 1453630]","[1444183, 1444581, 1444981, 1445382, 1445781, 1446181, 1446581, 1446981, 1447387, 1447753, 1448171, 1448587, 1448992, 1449393, 1449811, 1450232, 1450650, 1451042, 1451437, 1451855, 1452260, 1452666, 1453068, 1453477]",22,R,ITM,1.1,
6,600,trial,0,77,77,77,trial,"['S', 'S', 'S', 'S', 'S', 'S', 'S', 'S', 'S', 'C', 'C', 'C', 'C', 'C', 'C', 'C', 'C', 'C', 'C', 'C', 'C', 'C', 'C', 'C', 'C']","[1459425, 1459572, 1459931, 1460390, 1460946, 1461504, 1462113, 1462715, 1463307, 1463896, 1464456, 1465034, 1465573, 1466142, 1466706, 1467266, 1467820, 1468396, 1468976, 1469540, 1470092, 1470672, 1471238, 1471800, 1472342]","[1459446, 1459684, 1460042, 1460532, 1461090, 1461729, 1462369, 1462962, 1463559, 1464121, 1464682, 1465248, 1465830, 1466369, 1466936, 1467502, 1468056, 1468612, 1469184, 1469765, 1470321, 1470888, 1471436, 1472006, 1472553]","[1459171, 1459770, 1460370, 1460970, 1461570, 1462170, 1462770, 1463370, 1463922, 1464483, 1465061, 1465600, 1466169, 1466734, 1467292, 1467846, 1468423, 1469002, 1469566, 1470119, 1470700, 1471265, 1471827, 1472369]",22,R,ITM,1.1,
6,400,trial,0,78,78,78,trial,"['S', 'S', 'S', 'S', 'S', 'S', 'S', 'C', 'C', 'C', 'C', 'C', 'C', 'C', 'C', 'C', 'C', 'C', 'C', 'C', 'C', 'C', 'C']","[1478334, 1478713, 1479102, 1479496, 1479900, 1480321, 1480718, 1481133, 1481530, 1481934, 1482343, 1482760, 1483176, 1483607, 1484032, 1484438, 1484863, 1485299, 1485700, 1486150, 1486566, 1486980, 1487393]","[1478457, 1478866, 1479241, 1479644, 1480070, 1480479, 1480876, 1481299, 1481684, 1482096, 1482522, 1482943, 1483315, 1483777, 1484207, 1484613, 1485006, 1485447, 1485874, 1486295, 1486706, 1487137, 1487557]","[1477958, 1478358, 1478757, 1479157, 1479558, 1479957, 1480357, 1480757, 1481159, 1481556, 1481961, 1482370, 1482787, 1483203, 1483633, 1484058, 1484466, 1484890, 1485326, 1485727, 1486177, 1486593, 1487006, 1487420]",22,R,ITM,1.1,
3,600,trial,0,79,79,79,trial,"['S', 'S', 'S', 'S', 'S', 'S', 'S', 'S', 'C', 'C', 'C', 'C', 'C', 'C', 'C', 'C', 'C', 'C', 'C', 'C', 'C', 'C', 'C', 'C', 'C']","[1493313, 1493716, 1494126, 1494752, 1495331, 1495915, 1496484, 1497083, 1497703, 1497810, 1498249, 1498809, 1499364, 1499897, 1500442, 1500999, 1501540, 1502050, 1502614, 1503137, 1503652, 1504168, 1504674, 1505159, 1505720]","[1493502, 1493832, 1494356, 1494950, 1495544, 1496121, 1496711, 1497305, 1497730, 1497892, 1498449, 1499011, 1499566, 1500084, 1500678, 1501207, 1501736, 1502255, 1502803, 1503340, 1503855, 1504380, 1504868, 1505351, 1505904]","[1492978, 1493578, 1494178, 1494778, 1495378, 1495979, 1496579, 1497179, 1497729, 1498274, 1498834, 1499389, 1499923, 1500468, 1501025, 1501565, 1502075, 1502640, 1503163, 1503678, 1504194, 1504700, 1505184, 1505745]",22,R,ITM,1.1,
2,600,trial,0,80,80,80,trial,"['S', 'S', 'S', 'S', 'S', 'S', 'S', 'S', 'C', 'C', 'C', 'C', 'C', 'C', 'C', 'C', 'C', 'C', 'C', 'C', 'C', 'C', 'C', 'C']","[1511741, 1511998, 1512626, 1513201, 1513847, 1514406, 1515040, 1515623, 1516236, 1516798, 1517385, 1517947, 1518502, 1519074, 1519633, 1520180, 1520726, 1521274, 1521845, 1522398, 1522976, 1523517, 1524075, 1524618]","[1511877, 1512261, 1512841, 1513422, 1514037, 1514595, 1515242, 1515871, 1516456, 1517031, 1517604, 1518173, 1518709, 1519281, 1519832, 1520402, 1520974, 1521513, 1522038, 1522603, 1523165, 1523731, 1524282, 1524833]","[1511514, 1512114, 1512713, 1513313, 1513913, 1514513, 1515112, 1515713, 1516264, 1516826, 1517413, 1517974, 1518530, 1519101, 1519660, 1520207, 1520752, 1521302, 1521872, 1522425, 1523004, 1523545, 1524103, 1524644]",22,R,ITM,1.1,
6,600,trial,0,81,81,81,trial,"['S', 'S', 'S', 'S', 'S', 'S', 'S', 'S', 'S', 'C', 'C', 'C', 'C', 'C', 'C', 'C', 'C', 'C', 'C', 'C', 'C', 'C', 'C', 'C', 'C']","[1530243, 1530465, 1531082, 1531773, 1532390, 1533000, 1533103, 1533596, 1534189, 1534782, 1535360, 1535923, 1536503, 1537103, 1537658, 1538223, 1538787, 1539345, 1539926, 1540497, 1541031, 1541598, 1542176, 1542752, 1543290]","[1530289, 1530552, 1531204, 1531870, 1532502, 1533023, 1533123, 1533619, 1534212, 1534863, 1535520, 1536065, 1536672, 1537267, 1537846, 1538445, 1538998, 1539559, 1540116, 1540681, 1541255, 1541812, 1542384, 1542921, 1543463]","[1530039, 1530638, 1531238, 1531838, 1532438, 1533038, 1533638, 1534238, 1534809, 1535386, 1535950, 1536530, 1537130, 1537686, 1538249, 1538813, 1539372, 1539952, 1540524, 1541058, 1541624, 1542204, 1542778, 1543317]",22,R,ITM,1.1,
7,600,trial,0,82,82,82,trial,"['S', 'S', 'S', 'S', 'S', 'S', 'S', 'S', 'C', 'C', 'C', 'C', 'C', 'C', 'C', 'C', 'C', 'C', 'C', 'C', 'C', 'C', 'C', 'C']","[1549457, 1550190, 1550295, 1550777, 1551404, 1552003, 1552601, 1553214, 1553782, 1554390, 1554996, 1555567, 1556177, 1556759, 1557302, 1557861, 1558411, 1558980, 1559522, 1560017, 1560599, 1561156, 1561700, 1562276]","[1549575, 1550215, 1550350, 1550998, 1551618, 1552234, 1552832, 1553421, 1554011, 1554597, 1555184, 1555770, 1556375, 1556951, 1557513, 1558054, 1558618, 1559175, 1559708, 1560223, 1560806, 1561336, 1561914, 1562468]","[1549051, 1549650, 1550251, 1550851, 1551451, 1552051, 1552651, 1553251, 1553810, 1554417, 1555023, 1555594, 1556205, 1556787, 1557329, 1557888, 1558437, 1559007, 1559549, 1560044, 1560626, 1561184, 1561728, 1562304]",22,R,ITM,1.1,
5,400,trial,0,83,83,83,trial,"['S', 'S', 'S', 'S', 'S', 'S', 'S', 'C', 'C', 'C', 'C', 'C', 'C', 'C', 'C', 'C', 'C', 'C', 'C', 'C', 'C', 'C', 'C']","[1568342, 1568671, 1569065, 1569470, 1569880, 1570281, 1570668, 1571083, 1571472, 1571861, 1572251, 1572675, 1573078, 1573470, 1573892, 1574307, 1574703, 1575084, 1575493, 1575907, 1576306, 1576719, 1577104]","[1568474, 1568812, 1569206, 1569616, 1570032, 1570436, 1570827, 1571240, 1571608, 1572007, 1572404, 1572820, 1573260, 1573641, 1574063, 1574479, 1574863, 1575234, 1575639, 1576051, 1576453, 1576835, 1577220]","[1567911, 1568310, 1568710, 1569111, 1569510, 1569910, 1570311, 1570711, 1571108, 1571499, 1571887, 1572277, 1572701, 1573103, 1573495, 1573917, 1574334, 1574729, 1575109, 1575519, 1575932, 1576333, 1576744, 1577129]",22,R,ITM,1.1,
3,400,trial,0,84,84,84,trial,"['S', 'S', 'S', 'S', 'S', 'S', 'S', 'C', 'C', 'C', 'C', 'C', 'C', 'C', 'C', 'C', 'C', 'C', 'C', 'C', 'C', 'C', 'C']","[1582916, 1583320, 1583700, 1584105, 1584490, 1584901, 1585295, 1585704, 1586107, 1586505, 1586900, 1587313, 1587735, 1588143, 1588546, 1588974, 1589388, 1589808, 1590216, 1590637, 1590998, 1591412, 1591820]","[1583045, 1583394, 1583783, 1584177, 1584583, 1584975, 1585369, 1585788, 1586201, 1586608, 1587005, 1587415, 1587845, 1588255, 1588651, 1589048, 1589470, 1589873, 1590325, 1590738, 1591144, 1591545, 1591946]","[1582553, 1582951, 1583351, 1583751, 1584151, 1584551, 1584951, 1585351, 1585730, 1586132, 1586531, 1586925, 1587339, 1587761, 1588169, 1588572, 1589001, 1589413, 1589833, 1590242, 1590663, 1591023, 1591438, 1591845]",22,R,ITM,1.1,
3,400,trial,0,85,85,85,trial,"['S', 'S', 'S', 'S', 'S', 'S', 'S', 'C', 'C', 'C', 'C', 'C', 'C', 'C', 'C', 'C', 'C', 'C', 'C', 'C', 'C', 'C', 'C']","[1597889, 1598284, 1598657, 1599106, 1599528, 1599925, 1600324, 1600728, 1601115, 1601486, 1601888, 1602302, 1602704, 1603104, 1603474, 1603904, 1604321, 1604690, 1605096, 1605514, 1605922, 1606304, 1606728]","[1598003, 1598435, 1598820, 1599260, 1599682, 1600090, 1600466, 1600901, 1601272, 1601657, 1602044, 1602458, 1602836, 1603255, 1603629, 1604037, 1604452, 1604842, 1605245, 1605656, 1606084, 1606466, 1606901]","[1597552, 1597953, 1598352, 1598752, 1599153, 1599552, 1599952, 1600352, 1600753, 1601140, 1601512, 1601913, 1602327, 1602729, 1603130, 1603500, 1603930, 1604346, 1604716, 1605122, 1605539, 1605948, 1606330, 1606754]",22,R,ITM,1.1,
4,400,trial,0,86,86,86,trial,"['S', 'S', 'S', 'S', 'S', 'S', 'S', 'S', 'C', 'C', 'C', 'C', 'C', 'C', 'C', 'C', 'C', 'C', 'C', 'C', 'C', 'C', 'C', 'C']","[1612479, 1612674, 1613062, 1613441, 1613850, 1614235, 1614623, 1615013, 1615430, 1615854, 1616267, 1616716, 1617140, 1617564, 1617976, 1618387, 1618789, 1619215, 1619629, 1620055, 1620445, 1620853, 1621275, 1621661]","[1612555, 1612801, 1613145, 1613536, 1613943, 1614343, 1614726, 1615140, 1615542, 1615952, 1616364, 1616817, 1617258, 1617684, 1618103, 1618516, 1618925, 1619373, 1619774, 1620213, 1620605, 1621014, 1621409, 1621828]","[1612231, 1612631, 1613030, 1613430, 1613831, 1614231, 1614631, 1615031, 1615457, 1615880, 1616293, 1616742, 1617166, 1617590, 1618001, 1618414, 1618814, 1619240, 1619655, 1620080, 1620470, 1620880, 1621301, 1621687]",22,R,ITM,1.1,
2,400,trial,0,87,87,87,trial,"['S', 'S', 'S', 'S', 'S', 'S', 'S', 'C', 'C', 'C', 'C', 'C', 'C', 'C', 'C', 'C', 'C', 'C', 'C', 'C', 'C', 'C', 'C']","[1627573, 1627982, 1628347, 1628777, 1629198, 1629625, 1630001, 1630410, 1630799, 1631213, 1631617, 1632057, 1632479, 1632902, 1633314, 1633719, 1634143, 1634551, 1634963, 1635408, 1635824, 1636235, 1636640]","[1627732, 1628139, 1628496, 1628918, 1629326, 1629753, 1630151, 1630547, 1630948, 1631353, 1631759, 1632176, 1632626, 1633029, 1633461, 1633863, 1634231, 1634672, 1635115, 1635527, 1635969, 1636386, 1636796]","[1627225, 1627623, 1628024, 1628425, 1628825, 1629224, 1629625, 1630025, 1630437, 1630827, 1631241, 1631644, 1632083, 1632506, 1632929, 1633342, 1633745, 1634169, 1634578, 1634991, 1635435, 1635852, 1636262, 1636667]",22,R,ITM,1.1,
4,600,trial,0,88,88,88,trial,"['S', 'S', 'S', 'S', 'S', 'S', 'S', 'S', 'C', 'C', 'C', 'C', 'C', 'C', 'C', 'C', 'C', 'C', 'C', 'C', 'C', 'C', 'C', 'C']","[1642349, 1642740, 1643137, 1643748, 1644334, 1644919, 1645513, 1646119, 1646715, 1647301, 1647890, 1648487, 1649082, 1649633, 1650211, 1650764, 1651322, 1651845, 1652395, 1652927, 1653478, 1654040, 1654585, 1655154]","[1642470, 1642872, 1643381, 1643981, 1644572, 1645165, 1645768, 1646376, 1646934, 1647533, 1648111, 1648706, 1649272, 1649822, 1650401, 1650944, 1651469, 1652046, 1652584, 1653118, 1653676, 1654243, 1654793, 1655361]","[1641982, 1642583, 1643183, 1643783, 1644383, 1644983, 1645583, 1646183, 1646741, 1647327, 1647916, 1648513, 1649108, 1649658, 1650237, 1650790, 1651348, 1651871, 1652420, 1652953, 1653504, 1654066, 1654610, 1655181]",22,R,ITM,1.1,
6,600,trial,0,89,89,89,trial,"['S', 'S', 'S', 'S', 'S', 'S', 'S', 'S', 'C', 'C', 'C', 'C', 'C', 'C', 'C', 'C', 'C', 'C', 'C', 'C', 'C', 'C', 'C', 'C']","[1660830, 1661044, 1661690, 1662278, 1662914, 1663465, 1664073, 1664691, 1665319, 1665868, 1666397, 1666951, 1667491, 1668059, 1668591, 1669118, 1669642, 1670164, 1670721, 1671250, 1671785, 1672306, 1672839, 1673339]","[1660940, 1661186, 1661837, 1662503, 1663118, 1663637, 1664287, 1664926, 1665508, 1666112, 1666613, 1667158, 1667709, 1668256, 1668802, 1669328, 1669844, 1670383, 1670914, 1671459, 1671992, 1672497, 1673046, 1673553]","[1660587, 1661186, 1661786, 1662386, 1662985, 1663585, 1664185, 1664785, 1665346, 1665895, 1666423, 1666977, 1667519, 1668085, 1668619, 1669145, 1669669, 1670192, 1670748, 1671277, 1671812, 1672333, 1672865, 1673367]",22,R,ITM,1.1,
7,400,trial,0,90,90,90,trial,"['S', 'S', 'S', 'S', 'S', 'S', 'S', 'S', 'C', 'C', 'C', 'C', 'C', 'C', 'C', 'C', 'C', 'C', 'C', 'C', 'C', 'C', 'C', 'C']","[1679351, 1679568, 1679874, 1680236, 1680629, 1681034, 1681435, 1681829, 1682253, 1682634, 1683054, 1683453, 1683850, 1684242, 1684639, 1685025, 1685436, 1685812, 1686183, 1686575, 1686965, 1687353, 1687738, 1688129]","[1679451, 1679696, 1680014, 1680387, 1680806, 1681202, 1681629, 1682030, 1682439, 1682818, 1683222, 1683634, 1684019, 1684410, 1684810, 1685193, 1685597, 1686007, 1686353, 1686719, 1687123, 1687508, 1687910, 1688316]","[1679108, 1679506, 1679906, 1680307, 1680707, 1681107, 1681507, 1681907, 1682281, 1682661, 1683081, 1683481, 1683876, 1684269, 1684666, 1685053, 1685464, 1685839, 1686210, 1686602, 1686991, 1687379, 1687764, 1688156]",22,R,ITM,1.1,
7,400,trial,0,91,91,91,trial,"['S', 'S', 'S', 'S', 'S', 'S', 'S', 'S', 'C', 'C', 'C', 'C', 'C', 'C', 'C', 'C', 'C', 'C', 'C', 'C', 'C', 'C', 'C', 'C']","[1693806, 1693991, 1694361, 1694728, 1695164, 1695571, 1695924, 1696324, 1696721, 1697079, 1697518, 1697912, 1698314, 1698708, 1699102, 1699488, 1699869, 1700280, 1700667, 1701017, 1701443, 1701844, 1702253, 1702654]","[1693861, 1694139, 1694476, 1694865, 1695294, 1695699, 1696054, 1696410, 1696846, 1697216, 1697650, 1698070, 1698456, 1698859, 1699249, 1699656, 1700046, 1700429, 1700829, 1701189, 1701596, 1702020, 1702402, 1702844]","[1693606, 1694005, 1694405, 1694806, 1695205, 1695605, 1696006, 1696405, 1696748, 1697105, 1697546, 1697940, 1698341, 1698736, 1699130, 1699515, 1699896, 1700306, 1700695, 1701045, 1701470, 1701871, 1702281, 1702680]",22,R,ITM,1.1,
2,400,trial,0,92,92,92,trial,"['S', 'S', 'S', 'S', 'S', 'S', 'S', 'C', 'C', 'C', 'C', 'C', 'C', 'C', 'C', 'C', 'C', 'C', 'C', 'C', 'C', 'C', 'C']","[1708473, 1708942, 1709341, 1709759, 1710170, 1710569, 1710957, 1711351, 1711772, 1712168, 1712596, 1713031, 1713456, 1713855, 1714269, 1714678, 1715113, 1715525, 1715939, 1716363, 1716814, 1717268, 1717725]","[1708631, 1709068, 1709462, 1709870, 1710286, 1710697, 1711079, 1711478, 1711895, 1712325, 1712744, 1713172, 1713611, 1714003, 1714422, 1714852, 1715268, 1715662, 1716067, 1716528, 1716959, 1717352, 1717822]","[1708169, 1708569, 1708968, 1709369, 1709769, 1710169, 1710569, 1710969, 1711379, 1711800, 1712196, 1712624, 1713058, 1713482, 1713883, 1714296, 1714706, 1715139, 1715552, 1715966, 1716389, 1716842, 1717296, 1717751]",22,R,ITM,1.1,
5,400,trial,0,93,93,93,trial,"['S', 'S', 'S', 'S', 'S', 'S', 'S', 'C', 'C', 'C', 'C', 'C', 'C', 'C', 'C', 'C', 'C', 'C', 'C', 'C', 'C', 'C', 'C']","[1723620, 1724005, 1724419, 1724812, 1725201, 1725614, 1726013, 1726411, 1726786, 1727193, 1727583, 1727976, 1728379, 1728766, 1729163, 1729566, 1729945, 1730351, 1730747, 1731151, 1731519, 1731924, 1732312]","[1723808, 1724197, 1724578, 1724966, 1725366, 1725780, 1726160, 1726572, 1726937, 1727336, 1727742, 1728139, 1728537, 1728936, 1729325, 1729724, 1730105, 1730526, 1730909, 1731282, 1731685, 1732089, 1732484]","[1723261, 1723660, 1724060, 1724461, 1724860, 1725260, 1725661, 1726061, 1726437, 1726812, 1727219, 1727608, 1728002, 1728405, 1728793, 1729188, 1729593, 1729972, 1730376, 1730772, 1731177, 1731546, 1731949, 1732337]",22,R,ITM,1.1,
4,600,trial,0,94,94,94,trial,"['S', 'S', 'S', 'S', 'S', 'S', 'S', 'S', 'C', 'C', 'C', 'C', 'C', 'C', 'C', 'C', 'C', 'C', 'C', 'C', 'C', 'C', 'C', 'C']","[1738189, 1738583, 1739042, 1739613, 1740183, 1740755, 1741325, 1741898, 1742508, 1743022, 1743566, 1744111, 1744636, 1745180, 1745700, 1746244, 1746738, 1747249, 1747791, 1748321, 1748850, 1749344, 1749875, 1750395]","[1738363, 1738760, 1739249, 1739829, 1740490, 1741038, 1741629, 1742223, 1742732, 1743259, 1743795, 1744318, 1744861, 1745387, 1745912, 1746401, 1746982, 1747475, 1747987, 1748512, 1749069, 1749532, 1750072, 1750574]","[1737843, 1738442, 1739042, 1739642, 1740242, 1740843, 1741443, 1742043, 1742533, 1743047, 1743592, 1744137, 1744662, 1745206, 1745726, 1746270, 1746763, 1747274, 1747817, 1748346, 1748876, 1749369, 1749901, 1750421]",22,R,ITM,1.1,
4,400,trial,0,95,95,95,trial,"['S', 'S', 'S', 'S', 'S', 'S', 'S', 'C', 'C', 'C', 'C', 'C', 'C', 'C', 'C', 'C', 'C', 'C', 'C', 'C', 'C', 'C', 'C']","[1756142, 1756564, 1756960, 1757387, 1757766, 1758183, 1758570, 1758983, 1759392, 1759802, 1760169, 1760572, 1760982, 1761375, 1761767, 1762177, 1762570, 1762951, 1763360, 1763753, 1764155, 1764563, 1764962]","[1756261, 1756686, 1757104, 1757513, 1757894, 1758277, 1758698, 1759099, 1759489, 1759919, 1760327, 1760700, 1761088, 1761503, 1761904, 1762325, 1762708, 1763093, 1763488, 1763915, 1764292, 1764664, 1765090]","[1755859, 1756258, 1756658, 1757059, 1757458, 1757858, 1758258, 1758658, 1759008, 1759418, 1759827, 1760195, 1760598, 1761007, 1761400, 1761793, 1762203, 1762595, 1762976, 1763387, 1763779, 1764180, 1764589, 1764987]",22,R,ITM,1.1,
7,600,trial,0,96,96,96,trial,"['S', 'S', 'S', 'S', 'S', 'S', 'S', 'S', 'C', 'C', 'C', 'C', 'C', 'C', 'C', 'C', 'C', 'C', 'C', 'C', 'C', 'C', 'C', 'C']","[1771129, 1771493, 1771942, 1772441, 1773088, 1773697, 1774284, 1774884, 1775481, 1776045, 1776592, 1777153, 1777708, 1778239, 1778810, 1779383, 1779918, 1780450, 1780996, 1781526, 1782063, 1782588, 1783130, 1783666]","[1771273, 1771673, 1772157, 1772705, 1773314, 1773924, 1774535, 1775151, 1775707, 1776273, 1776823, 1777378, 1777949, 1778482, 1779044, 1779599, 1780118, 1780652, 1781222, 1781765, 1782289, 1782820, 1783373, 1783920]","[1770769, 1771368, 1771968, 1772568, 1773168, 1773768, 1774368, 1774968, 1775509, 1776072, 1776620, 1777180, 1777735, 1778267, 1778838, 1779409, 1779945, 1780476, 1781022, 1781553, 1782090, 1782616, 1783156, 1783693]",22,R,ITM,1.1,
6,400,trial,0,97,97,97,trial,"['S', 'S', 'S', 'S', 'S', 'S', 'S', 'C', 'C', 'C', 'C', 'C', 'C', 'C', 'C', 'C', 'C', 'C', 'C', 'C', 'C', 'C', 'C', 'C']","[1789541, 1789935, 1790329, 1790755, 1791163, 1791560, 1791950, 1792398, 1792504, 1792788, 1793209, 1793627, 1794032, 1794410, 1794824, 1795250, 1795666, 1796077, 1796505, 1796935, 1797340, 1797750, 1798181, 1798631]","[1789646, 1790059, 1790455, 1790836, 1791290, 1791680, 1792076, 1792424, 1792524, 1792920, 1793330, 1793733, 1794139, 1794545, 1794852, 1795376, 1795824, 1796195, 1796619, 1797054, 1797497, 1797892, 1798306, 1798799]","[1789231, 1789630, 1790030, 1790430, 1790830, 1791230, 1791630, 1792030, 1792424, 1792815, 1793235, 1793653, 1794059, 1794437, 1794850, 1795276, 1795693, 1796104, 1796532, 1796962, 1797366, 1797777, 1798208, 1798659]",22,R,ITM,1.1,
2,600,trial,0,98,98,98,trial,"['S', 'S', 'S', 'S', 'S', 'S', 'S', 'S', 'C', 'C', 'C', 'C', 'C', 'C', 'C', 'C', 'C', 'C', 'C', 'C', 'C', 'C', 'C', 'C', 'C', 'C', 'C', 'C']","[1804355, 1804748, 1805250, 1805801, 1806420, 1807029, 1807605, 1808168, 1808752, 1809323, 1809889, 1810454, 1810997, 1811104, 1811526, 1811634, 1812063, 1812604, 1813191, 1813735, 1814307, 1814415, 1814867, 1815422, 1815976, 1816508, 1816617, 1817026]","[1804499, 1804942, 1805484, 1806060, 1806613, 1807260, 1807817, 1808403, 1808980, 1809531, 1810080, 1810647, 1811024, 1811183, 1811554, 1811701, 1812246, 1812792, 1813384, 1813891, 1814335, 1814456, 1815040, 1815603, 1816147, 1816536, 1816693, 1817207]","[1804073, 1804674, 1805274, 1805874, 1806473, 1807073, 1807672, 1808273, 1808780, 1809349, 1809915, 1810481, 1811024, 1811554, 1812089, 1812632, 1813219, 1813763, 1814335, 1814895, 1815450, 1816003, 1816536, 1817054]",22,R,ITM,1.1,
3,600,trial,0,99,99,99,trial,"['S', 'S', 'S', 'S', 'S', 'S', 'S', 'C', 'C', 'C', 'C', 'C', 'C', 'C', 'C', 'C', 'C', 'C', 'C', 'C', 'C', 'C', 'C']","[1823111, 1823860, 1824445, 1825073, 1825630, 1826290, 1826875, 1827462, 1827998, 1828546, 1829068, 1829611, 1830137, 1830721, 1831218, 1831716, 1832254, 1832731, 1833232, 1833762, 1834265, 1834774, 1835292]","[1823278, 1824075, 1824653, 1825248, 1825839, 1826476, 1827090, 1827631, 1828205, 1828732, 1829261, 1829806, 1830350, 1830863, 1831406, 1831922, 1832428, 1832901, 1833431, 1833933, 1834462, 1834949, 1835451]","[1822800, 1823400, 1824001, 1824601, 1825201, 1825800, 1826400, 1827000, 1827487, 1828024, 1828572, 1829094, 1829637, 1830163, 1830747, 1831243, 1831742, 1832280, 1832757, 1833259, 1833788, 1834291, 1834800, 1835318]",22,R,ITM,1.1,
5,600,trial,0,100,100,100,trial,"['S', 'S', 'S', 'S', 'S', 'S', 'S', 'S', 'S', 'C', 'C', 'C', 'C', 'C', 'C', 'C', 'C', 'C', 'C', 'C', 'C', 'C', 'C', 'C', 'C']","[1841048, 1841417, 1841896, 1842502, 1842606, 1843044, 1843663, 1844264, 1844859, 1845458, 1846027, 1846595, 1847143, 1847705, 1848263, 1848799, 1849359, 1849892, 1850446, 1850999, 1851540, 1852079, 1852626, 1853171, 1853699]","[1841226, 1841575, 1842123, 1842526, 1842660, 1843213, 1843730, 1844288, 1844976, 1845627, 1846202, 1846734, 1847285, 1847838, 1848394, 1848978, 1849545, 1850076, 1850608, 1851174, 1851772, 1852272, 1852839, 1853363, 1853876]","[1840757, 1841357, 1841957, 1842557, 1843158, 1843758, 1844358, 1844957, 1845484, 1846052, 1846621, 1847169, 1847731, 1848289, 1848824, 1849385, 1849918, 1850473, 1851026, 1851566, 1852104, 1852653, 1853198, 1853724]",22,R,ITM,1.1,
5,600,trial,0,101,101,101,trial,"['S', 'S', 'S', 'S', 'S', 'S', 'S', 'C', 'C', 'C', 'C', 'C', 'C', 'C', 'C', 'C', 'C', 'C', 'C', 'C', 'C', 'C', 'C']","[1859574, 1860325, 1860988, 1861625, 1862170, 1862802, 1863391, 1863995, 1864560, 1865150, 1865679, 1866250, 1866815, 1867351, 1867892, 1868456, 1869010, 1869540, 1870088, 1870625, 1871173, 1871682, 1872219]","[1859731, 1860514, 1861150, 1861780, 1862361, 1862996, 1863605, 1864192, 1864742, 1865330, 1865877, 1866458, 1867004, 1867578, 1868097, 1868653, 1869178, 1869736, 1870236, 1870806, 1871349, 1871864, 1872397]","[1859279, 1859878, 1860478, 1861079, 1861679, 1862279, 1862879, 1863479, 1864020, 1864586, 1865176, 1865706, 1866276, 1866841, 1867376, 1867918, 1868482, 1869036, 1869566, 1870113, 1870651, 1871200, 1871708, 1872245]",22,R,ITM,1.1,
2,400,trial,0,102,102,102,trial,"['S', 'S', 'S', 'S', 'S', 'S', 'S', 'C', 'C', 'C', 'C', 'C', 'C', 'C', 'C', 'C', 'C', 'C', 'C', 'C', 'C', 'C', 'C', 'C']","[1878425, 1878786, 1879157, 1879541, 1879949, 1880361, 1880798, 1881187, 1881602, 1881994, 1882400, 1882820, 1883233, 1883641, 1883749, 1884051, 1884450, 1884848, 1885268, 1885675, 1886075, 1886481, 1886893, 1887292]","[1878523, 1878875, 1879246, 1879696, 1880095, 1880499, 1880905, 1881322, 1881728, 1882120, 1882526, 1882957, 1883366, 1883669, 1883770, 1884141, 1884592, 1884990, 1885389, 1885779, 1886215, 1886617, 1887042, 1887436]","[1877997, 1878397, 1878797, 1879197, 1879597, 1879997, 1880396, 1880798, 1881213, 1881628, 1882021, 1882427, 1882847, 1883259, 1883669, 1884078, 1884478, 1884875, 1885296, 1885702, 1886103, 1886508, 1886920, 1887320]",22,R,ITM,1.1,
6,600,trial,0,103,103,103,trial,"['S', 'S', 'S', 'S', 'S', 'S', 'S', 'S', 'C', 'C', 'C', 'C', 'C', 'C', 'C', 'C', 'C', 'C', 'C', 'C', 'C', 'C', 'C', 'C']","[1893027, 1893385, 1893902, 1894512, 1895109, 1895708, 1896306, 1896900, 1897518, 1898055, 1898571, 1899101, 1899650, 1900194, 1900715, 1901261, 1901796, 1902323, 1902868, 1903385, 1903935, 1904447, 1904984, 1905503]","[1893166, 1893564, 1894136, 1894728, 1895341, 1895954, 1896541, 1897159, 1897681, 1898233, 1898785, 1899309, 1899857, 1900387, 1900914, 1901479, 1901997, 1902510, 1903071, 1903594, 1904125, 1904652, 1905179, 1905693]","[1892799, 1893398, 1893998, 1894598, 1895198, 1895798, 1896398, 1896998, 1897545, 1898082, 1898599, 1899127, 1899676, 1900221, 1900742, 1901288, 1901824, 1902351, 1902896, 1903412, 1903962, 1904474, 1905010, 1905529]",22,R,ITM,1.1,
3,400,trial,0,104,104,104,trial,"['S', 'S', 'S', 'S', 'S', 'S', 'S', 'C', 'C', 'C', 'C', 'C', 'C', 'C', 'C', 'C', 'C', 'C', 'C', 'C', 'C', 'C', 'C']","[1911259, 1911659, 1912090, 1912528, 1912915, 1913316, 1913679, 1914112, 1914481, 1914907, 1915305, 1915709, 1916098, 1916490, 1916867, 1917276, 1917690, 1918062, 1918477, 1918877, 1919286, 1919709, 1920086]","[1911422, 1911802, 1912208, 1912633, 1913018, 1913408, 1913802, 1914219, 1914587, 1915027, 1915390, 1915796, 1916213, 1916580, 1916983, 1917342, 1917776, 1918175, 1918601, 1919005, 1919386, 1919805, 1920204]","[1910958, 1911357, 1911757, 1912157, 1912557, 1912957, 1913357, 1913757, 1914137, 1914507, 1914933, 1915331, 1915735, 1916124, 1916516, 1916893, 1917301, 1917716, 1918088, 1918502, 1918903, 1919311, 1919734, 1920111]",22,R,ITM,1.1,
6,600,trial,0,105,105,105,trial,"['S', 'S', 'S', 'S', 'S', 'S', 'S', 'S', 'C', 'C', 'C', 'C', 'C', 'C', 'C', 'C', 'C', 'C', 'C', 'C', 'C', 'C', 'C', 'C']","[1925806, 1926120, 1926624, 1927242, 1927847, 1928409, 1929025, 1929648, 1930251, 1930822, 1931392, 1931935, 1932515, 1933075, 1933641, 1934191, 1934715, 1935283, 1935805, 1936334, 1936879, 1937384, 1937902, 1938411]","[1925934, 1926268, 1926864, 1927449, 1927956, 1928464, 1929072, 1929679, 1930331, 1930919, 1931471, 1932040, 1932613, 1933185, 1933729, 1934302, 1934843, 1935419, 1935961, 1936491, 1936985, 1937507, 1938046, 1938544]","[1925516, 1926115, 1926715, 1927315, 1927915, 1928515, 1929115, 1929715, 1930277, 1930849, 1931418, 1931962, 1932542, 1933102, 1933668, 1934218, 1934742, 1935310, 1935833, 1936362, 1936906, 1937411, 1937930, 1938439]",22,R,ITM,1.1,
7,400,trial,0,106,106,106,trial,"['S', 'S', 'S', 'S', 'S', 'S', 'S', 'C', 'C', 'C', 'C', 'C', 'C', 'C', 'C', 'C', 'C', 'C', 'C', 'C', 'C', 'C', 'C']","[1944084, 1944477, 1944860, 1945280, 1945668, 1946081, 1946504, 1946921, 1947310, 1947713, 1948095, 1948472, 1948883, 1949293, 1949702, 1950078, 1950456, 1950834, 1951204, 1951595, 1952023, 1952435, 1952784]","[1944188, 1944597, 1944982, 1945412, 1945786, 1946212, 1946648, 1947025, 1947401, 1947812, 1948200, 1948608, 1949014, 1949377, 1949804, 1950184, 1950566, 1950945, 1951333, 1951717, 1952090, 1952538, 1952946]","[1943750, 1944150, 1944549, 1944949, 1945350, 1945749, 1946149, 1946549, 1946948, 1947337, 1947740, 1948123, 1948498, 1948911, 1949320, 1949729, 1950106, 1950484, 1950861, 1951232, 1951623, 1952050, 1952462, 1952811]",22,R,ITM,1.1,
3,600,trial,0,107,107,107,trial,"['S', 'S', 'S', 'S', 'S', 'S', 'S', 'S', 'C', 'C', 'C', 'C', 'C', 'C', 'C', 'C', 'C', 'C', 'C', 'C', 'C', 'C', 'C', 'C']","[1958850, 1959185, 1959754, 1960283, 1960940, 1961527, 1962082, 1962704, 1963247, 1963798, 1964368, 1964874, 1965398, 1965974, 1966527, 1967043, 1967588, 1968176, 1968738, 1969266, 1969815, 1970331, 1970856, 1971407]","[1958978, 1959391, 1959938, 1960370, 1960960, 1961568, 1962138, 1962759, 1963318, 1963868, 1964453, 1964957, 1965480, 1966082, 1966588, 1967147, 1967659, 1968259, 1968835, 1969347, 1969885, 1970441, 1970948, 1971545]","[1958585, 1959185, 1959785, 1960385, 1960985, 1961585, 1962185, 1962785, 1963273, 1963824, 1964394, 1964900, 1965423, 1966000, 1966553, 1967069, 1967613, 1968201, 1968763, 1969292, 1969841, 1970357, 1970882, 1971433]",22,R,ITM,1.1,
2,600,trial,0,108,108,108,trial,"['S', 'S', 'S', 'S', 'S', 'S', 'S', 'S', 'C', 'C', 'C', 'C', 'C', 'C', 'C', 'C', 'C', 'C', 'C', 'C', 'C', 'C', 'C', 'C']","[1977030, 1977229, 1977890, 1978533, 1979181, 1979744, 1980347, 1980947, 1981570, 1982124, 1982680, 1983220, 1983778, 1984345, 1984903, 1985462, 1986023, 1986576, 1987147, 1987721, 1988251, 1988805, 1989351, 1989912]","[1977108, 1977355, 1978031, 1978672, 1979345, 1979879, 1980505, 1981110, 1981706, 1982263, 1982813, 1983371, 1983925, 1984488, 1985047, 1985612, 1986183, 1986734, 1987303, 1987846, 1988384, 1988930, 1989469, 1990016]","[1976830, 1977431, 1978031, 1978630, 1979231, 1979831, 1980431, 1981031, 1981596, 1982150, 1982706, 1983248, 1983806, 1984371, 1984929, 1985489, 1986051, 1986604, 1987175, 1987748, 1988279, 1988833, 1989379, 1989939]",22,R,ITM,1.1,
5,600,trial,0,109,109,109,trial,"['S', 'S', 'S', 'S', 'S', 'S', 'S', 'C', 'C', 'C', 'C', 'C', 'C', 'C', 'C', 'C', 'C', 'C', 'C', 'C', 'C', 'C', 'C']","[1995883, 1996634, 1997216, 1997858, 1998435, 1999006, 1999619, 2000217, 2000750, 2001330, 2001865, 2002428, 2002997, 2003554, 2004102, 2004661, 2005202, 2005741, 2006255, 2006805, 2007367, 2007918, 2008432]","[1996028, 1996775, 1997378, 1998006, 1998552, 1999138, 1999756, 2000391, 2000909, 2001474, 2002025, 2002592, 2003167, 2003726, 2004280, 2004834, 2005359, 2005900, 2006432, 2006978, 2007545, 2008096, 2008543]","[1995523, 1996122, 1996722, 1997322, 1997922, 1998522, 1999122, 1999722, 2000242, 2000776, 2001355, 2001891, 2002454, 2003022, 2003579, 2004127, 2004686, 2005228, 2005767, 2006281, 2006831, 2007394, 2007945, 2008458]",22,R,ITM,1.1,
4,600,trial,0,110,110,110,trial,"['S', 'S', 'S', 'S', 'S', 'S', 'S', 'S', 'C', 'C', 'C', 'C', 'C', 'C', 'C', 'C', 'C', 'C', 'C', 'C', 'C', 'C', 'C', 'C']","[2014268, 2014503, 2015046, 2015712, 2016312, 2016880, 2017419, 2017993, 2018579, 2019076, 2019582, 2020143, 2020654, 2021186, 2021727, 2022282, 2022821, 2023302, 2023820, 2024358, 2024906, 2025443, 2025982, 2026484]","[2014388, 2014637, 2015212, 2015869, 2016451, 2016984, 2017518, 2018072, 2018630, 2019145, 2019687, 2020234, 2020760, 2021278, 2021819, 2022373, 2022890, 2023409, 2023917, 2024455, 2024995, 2025537, 2026075, 2026564]","[2013995, 2014594, 2015194, 2015794, 2016394, 2016994, 2017594, 2018194, 2018605, 2019102, 2019608, 2020168, 2020680, 2021212, 2021752, 2022307, 2022847, 2023327, 2023845, 2024384, 2024933, 2025469, 2026007, 2026510]",22,R,ITM,1.1,
7,600,trial,0,111,111,111,trial,"['S', 'S', 'S', 'S', 'S', 'S', 'S', 'S', 'C', 'C', 'C', 'C', 'C', 'C', 'C', 'C', 'C', 'C', 'C', 'C', 'C', 'C', 'C', 'C']","[2032205, 2032397, 2033009, 2033686, 2034294, 2034877, 2035454, 2036033, 2036660, 2037178, 2037735, 2038290, 2038818, 2039345, 2039840, 2040360, 2040850, 2041325, 2041798, 2042328, 2042844, 2043315, 2043786, 2044255]","[2032295, 2032563, 2033176, 2033815, 2034424, 2034974, 2035550, 2036129, 2036746, 2037287, 2037837, 2038394, 2038913, 2039449, 2039912, 2040446, 2040925, 2041389, 2041872, 2042433, 2042928, 2043402, 2043893, 2044360]","[2031950, 2032549, 2033149, 2033750, 2034350, 2034950, 2035550, 2036150, 2036686, 2037204, 2037762, 2038317, 2038846, 2039372, 2039867, 2040387, 2040877, 2041352, 2041825, 2042354, 2042871, 2043341, 2043812, 2044282]",22,R,ITM,1.1,
2,400,trial,0,112,112,112,trial,"['S', 'S', 'S', 'S', 'S', 'S', 'S', 'C', 'C', 'C', 'C', 'C', 'C', 'C', 'C', 'C', 'C', 'C', 'C', 'C', 'C', 'C', 'C']","[2050029, 2050437, 2050830, 2051238, 2051625, 2052057, 2052429, 2052828, 2053229, 2053630, 2054047, 2054437, 2054849, 2055255, 2055643, 2056046, 2056448, 2056833, 2057236, 2057654, 2058066, 2058464, 2058846]","[2050178, 2050558, 2050957, 2051352, 2051765, 2052168, 2052548, 2052956, 2053340, 2053726, 2054128, 2054545, 2054947, 2055358, 2055738, 2056132, 2056554, 2056956, 2057355, 2057758, 2058171, 2058574, 2058950]","[2049675, 2050075, 2050476, 2050875, 2051275, 2051675, 2052074, 2052475, 2052855, 2053257, 2053657, 2054074, 2054465, 2054877, 2055282, 2055669, 2056074, 2056475, 2056860, 2057264, 2057681, 2058094, 2058491, 2058873]",22,R,ITM,1.1,
4,400,trial,0,113,113,113,trial,"['S', 'S', 'S', 'S', 'S', 'S', 'S', 'C', 'C', 'C', 'C', 'C', 'C', 'C', 'C', 'C', 'C', 'C', 'C', 'C', 'C', 'C', 'C']","[2064780, 2065193, 2065573, 2065960, 2066352, 2066774, 2067163, 2067548, 2067941, 2068342, 2068741, 2069139, 2069519, 2069936, 2070322, 2070739, 2071142, 2071524, 2071938, 2072321, 2072718, 2073124, 2073520]","[2064918, 2065282, 2065692, 2066086, 2066487, 2066890, 2067280, 2067697, 2068083, 2068467, 2068876, 2069270, 2069657, 2070060, 2070448, 2070874, 2071273, 2071658, 2072045, 2072441, 2072820, 2073243, 2073636]","[2064480, 2064880, 2065281, 2065680, 2066080, 2066481, 2066880, 2067280, 2067573, 2067966, 2068368, 2068766, 2069165, 2069544, 2069961, 2070347, 2070765, 2071168, 2071549, 2071963, 2072346, 2072743, 2073150, 2073545]",22,R,ITM,1.1,
7,400,trial,0,114,114,114,trial,"['S', 'S', 'S', 'S', 'S', 'S', 'S', 'C', 'C', 'C', 'C', 'C', 'C', 'C', 'C', 'C', 'C', 'C', 'C', 'C', 'C', 'C', 'C']","[2079433, 2079789, 2080150, 2080555, 2080966, 2081386, 2081803, 2082193, 2082587, 2082978, 2083375, 2083752, 2084148, 2084514, 2084895, 2085276, 2085658, 2086027, 2086404, 2086785, 2087138, 2087520, 2087903]","[2079566, 2079897, 2080276, 2080700, 2081119, 2081553, 2081972, 2082351, 2082738, 2083125, 2083490, 2083867, 2084272, 2084651, 2085040, 2085405, 2085795, 2086175, 2086550, 2086940, 2087311, 2087662, 2088083]","[2079076, 2079475, 2079876, 2080275, 2080675, 2081075, 2081475, 2081875, 2082220, 2082615, 2083005, 2083401, 2083780, 2084174, 2084541, 2084923, 2085304, 2085686, 2086054, 2086431, 2086811, 2087164, 2087547, 2087930]",22,R,ITM,1.1,
3,600,trial,0,115,115,115,trial,"['S', 'S', 'S', 'S', 'S', 'S', 'S', 'S', 'C', 'C', 'C', 'C', 'C', 'C', 'C', 'C', 'C', 'C', 'C', 'C', 'C', 'C', 'C', 'C']","[2093845, 2094223, 2094672, 2095182, 2095793, 2096347, 2096930, 2097495, 2098045, 2098537, 2099061, 2099614, 2100143, 2100669, 2101221, 2101735, 2102267, 2102809, 2103359, 2103904, 2104402, 2104919, 2105465, 2105980]","[2093983, 2094365, 2094761, 2095276, 2095888, 2096462, 2097042, 2097613, 2098136, 2098666, 2099171, 2099710, 2100267, 2100789, 2101324, 2101811, 2102343, 2102889, 2103440, 2103974, 2104510, 2105017, 2105547, 2106073]","[2093514, 2094113, 2094713, 2095313, 2095913, 2096514, 2097114, 2097714, 2098071, 2098563, 2099087, 2099640, 2100168, 2100695, 2101246, 2101761, 2102293, 2102835, 2103385, 2103929, 2104428, 2104944, 2105491, 2106006]",22,R,ITM,1.1,
4,600,trial,0,116,116,116,trial,"['S', 'S', 'S', 'S', 'S', 'S', 'S', 'S', 'C', 'C', 'C', 'C', 'C', 'C', 'C', 'C', 'C', 'C', 'C', 'C', 'C', 'C', 'C', 'C']","[2112034, 2112223, 2112829, 2113429, 2114038, 2114655, 2115210, 2115838, 2116460, 2116979, 2117499, 2118036, 2118566, 2119111, 2119687, 2120220, 2120752, 2121287, 2121829, 2122335, 2122871, 2123419, 2123954, 2124507]","[2112054, 2112357, 2112976, 2113597, 2114170, 2114807, 2115402, 2115975, 2116604, 2117152, 2117643, 2118179, 2118732, 2119258, 2119825, 2120399, 2120926, 2121469, 2122004, 2122530, 2123056, 2123593, 2124132, 2124678]","[2111798, 2112397, 2112997, 2113597, 2114197, 2114797, 2115397, 2115997, 2116486, 2117005, 2117525, 2118062, 2118592, 2119138, 2119712, 2120246, 2120777, 2121313, 2121856, 2122360, 2122898, 2123445, 2123979, 2124532]",22,R,ITM,1.1,
5,400,trial,0,117,117,117,trial,"['S', 'S', 'S', 'S', 'S', 'S', 'S', 'C', 'C', 'C', 'C', 'C', 'C', 'C', 'C', 'C', 'C', 'C', 'C', 'C', 'C', 'C', 'C']","[2130238, 2130638, 2131009, 2131425, 2131850, 2132271, 2132682, 2133092, 2133478, 2133869, 2134250, 2134661, 2135109, 2135513, 2135938, 2136348, 2136751, 2137156, 2137553, 2137940, 2138333, 2138757, 2139167]","[2130356, 2130762, 2131155, 2131565, 2131995, 2132417, 2132829, 2133248, 2133644, 2134019, 2134405, 2134815, 2135218, 2135663, 2136079, 2136503, 2136913, 2137308, 2137696, 2138062, 2138492, 2138859, 2139286]","[2129929, 2130329, 2130729, 2131129, 2131529, 2131930, 2132329, 2132729, 2133117, 2133504, 2133895, 2134277, 2134687, 2135136, 2135538, 2135963, 2136374, 2136776, 2137182, 2137579, 2137965, 2138359, 2138782, 2139193]",22,R,ITM,1.1,
3,400,trial,0,118,118,118,trial,"['S', 'S', 'S', 'S', 'S', 'S', 'S', 'C', 'C', 'C', 'C', 'C', 'C', 'C', 'C', 'C', 'C', 'C', 'C', 'C', 'C', 'C', 'C']","[2144966, 2145404, 2145801, 2146226, 2146660, 2147036, 2147453, 2147870, 2148287, 2148685, 2149114, 2149533, 2149937, 2150335, 2150754, 2151182, 2151595, 2152005, 2152415, 2152827, 2153251, 2153672, 2154113]","[2145089, 2145523, 2145928, 2146334, 2146765, 2147163, 2147573, 2147997, 2148402, 2148808, 2149252, 2149638, 2150040, 2150478, 2150889, 2151302, 2151711, 2152110, 2152548, 2152968, 2153406, 2153826, 2154213]","[2144703, 2145102, 2145502, 2145902, 2146302, 2146702, 2147102, 2147503, 2147896, 2148313, 2148711, 2149140, 2149559, 2149962, 2150361, 2150779, 2151207, 2151620, 2152031, 2152440, 2152853, 2153277, 2153698, 2154138]",22,R,ITM,1.1,
6,400,trial,0,119,119,119,trial,"['S', 'S', 'S', 'S', 'S', 'S', 'S', 'C', 'C', 'C', 'C', 'C', 'C', 'C', 'C', 'C', 'C', 'C', 'C', 'C', 'C', 'C', 'C']","[2160161, 2160550, 2160949, 2161359, 2161758, 2162179, 2162616, 2163018, 2163419, 2163833, 2164232, 2164625, 2165064, 2165495, 2165882, 2166276, 2166689, 2167079, 2167494, 2167912, 2168354, 2168761, 2169159]","[2160319, 2160702, 2161129, 2161506, 2161925, 2162351, 2162768, 2163172, 2163559, 2164005, 2164420, 2164809, 2165227, 2165667, 2166036, 2166451, 2166830, 2167226, 2167640, 2168081, 2168444, 2168901, 2169320]","[2159853, 2160253, 2160653, 2161053, 2161454, 2161853, 2162253, 2162654, 2163045, 2163446, 2163860, 2164258, 2164652, 2165092, 2165522, 2165910, 2166302, 2166716, 2167106, 2167521, 2167940, 2168382, 2168787, 2169186]",22,R,ITM,1.1,
5,400,trial,0,120,120,120,trial,"['S', 'S', 'S', 'S', 'S', 'S', 'S', 'C', 'C', 'C', 'C', 'C', 'C', 'C', 'C', 'C', 'C', 'C', 'C', 'C', 'C', 'C', 'C']","[2175240, 2175616, 2175968, 2176396, 2176805, 2177224, 2177609, 2178027, 2178450, 2178865, 2179267, 2179657, 2180056, 2180466, 2180840, 2181270, 2181687, 2182108, 2182521, 2182904, 2183335, 2183751, 2184156]","[2175395, 2175785, 2176174, 2176549, 2176959, 2177384, 2177776, 2178201, 2178627, 2179025, 2179409, 2179831, 2180211, 2180577, 2181022, 2181443, 2181853, 2182241, 2182615, 2183079, 2183468, 2183902, 2184322]","[2174910, 2175309, 2175709, 2176109, 2176509, 2176909, 2177309, 2177710, 2178053, 2178476, 2178890, 2179293, 2179684, 2180081, 2180493, 2180866, 2181296, 2181712, 2182133, 2182547, 2182930, 2183362, 2183777, 2184181]",22,R,ITM,1.1,
7,600,trial,0,121,121,121,trial,"['S', 'S', 'S', 'S', 'S', 'S', 'S', 'S', 'S', 'S', 'S', 'C', 'C', 'C', 'C', 'C', 'C', 'C', 'C', 'C', 'C', 'C', 'C', 'C', 'C', 'C', 'C', 'C', 'C', 'C']","[2189837, 2190248, 2190766, 2190866, 2191295, 2191395, 2191911, 2192011, 2192489, 2193082, 2193787, 2194367, 2194932, 2195485, 2196025, 2196589, 2197160, 2197711, 2198247, 2198819, 2199360, 2199468, 2199898, 2200004, 2200415, 2200962, 2201068, 2201482, 2202021, 2202545]","[2189945, 2190397, 2190786, 2190896, 2191315, 2191463, 2191931, 2192061, 2192652, 2193195, 2193934, 2194530, 2195080, 2195625, 2196133, 2196734, 2197289, 2197843, 2198387, 2198938, 2199388, 2199488, 2199924, 2200033, 2200565, 2200988, 2201120, 2201629, 2202147, 2202728]","[2189586, 2190186, 2190786, 2191386, 2191986, 2192586, 2193186, 2193786, 2194394, 2194960, 2195512, 2196051, 2196616, 2197187, 2197738, 2198274, 2198847, 2199388, 2199924, 2200441, 2200988, 2201508, 2202048, 2202572]",22,R,ITM,1.1,
4,400,trial,0,122,122,122,trial,"['S', 'S', 'S', 'S', 'S', 'S', 'C', 'C', 'C', 'C', 'C', 'C', 'C', 'C', 'C', 'C', 'C', 'C', 'C', 'C', 'C', 'C']","[2208729, 2209127, 2209541, 2209916, 2210320, 2210716, 2211144, 2211550, 2211928, 2212335, 2212725, 2213130, 2213518, 2213914, 2214303, 2214700, 2215088, 2215480, 2215897, 2216291, 2216694, 2217084]","[2208797, 2209231, 2209639, 2210035, 2210421, 2210834, 2211245, 2211661, 2212035, 2212452, 2212852, 2213257, 2213643, 2214010, 2214388, 2214785, 2215198, 2215585, 2216001, 2216422, 2216823, 2217236]","[2207995, 2208395, 2208795, 2209196, 2209595, 2209995, 2210396, 2210795, 2211170, 2211575, 2211953, 2212361, 2212751, 2213155, 2213543, 2213940, 2214329, 2214725, 2215114, 2215505, 2215922, 2216316, 2216720, 2217110]",22,R,ITM,1.1,
5,600,trial,0,123,123,123,trial,"['S', 'S', 'S', 'S', 'S', 'S', 'S', 'S', 'C', 'C', 'C', 'C', 'C', 'C', 'C', 'C', 'C', 'C', 'C', 'C', 'C', 'C', 'C', 'C']","[2222689, 2223088, 2223553, 2224121, 2224716, 2225301, 2225888, 2226536, 2227147, 2227675, 2228200, 2228750, 2229277, 2229853, 2230372, 2230904, 2231446, 2231969, 2232508, 2233019, 2233515, 2234067, 2234586, 2235132]","[2222714, 2223210, 2223677, 2224267, 2224839, 2225426, 2226007, 2226682, 2227263, 2227853, 2228369, 2228927, 2229415, 2229993, 2230573, 2231106, 2231648, 2232144, 2232648, 2233188, 2233713, 2234257, 2234796, 2235314]","[2222407, 2223006, 2223606, 2224206, 2224806, 2225406, 2226007, 2226607, 2227173, 2227701, 2228226, 2228775, 2229303, 2229878, 2230397, 2230931, 2231473, 2231995, 2232534, 2233044, 2233540, 2234094, 2234611, 2235158]",22,R,ITM,1.1,
6,400,trial,0,124,124,124,trial,"['S', 'S', 'S', 'S', 'S', 'S', 'S', 'S', 'C', 'C', 'C', 'C', 'C', 'C', 'C', 'C', 'C', 'C', 'C', 'C', 'C', 'C', 'C', 'C']","[2240732, 2240944, 2241346, 2241709, 2242126, 2242533, 2242950, 2243343, 2243762, 2244163, 2244539, 2244948, 2245358, 2245753, 2246163, 2246549, 2246969, 2247368, 2247789, 2248175, 2248579, 2248980, 2249399, 2249802]","[2240756, 2241100, 2241478, 2241833, 2242229, 2242615, 2243074, 2243476, 2243889, 2244252, 2244675, 2245080, 2245497, 2245891, 2246286, 2246694, 2247113, 2247499, 2247923, 2248247, 2248729, 2249094, 2249564, 2249927]","[2240580, 2240979, 2241379, 2241779, 2242180, 2242579, 2242979, 2243379, 2243788, 2244191, 2244567, 2244974, 2245385, 2245780, 2246191, 2246576, 2246996, 2247396, 2247816, 2248203, 2248605, 2249007, 2249425, 2249830]",22,R,ITM,1.1,
2,600,trial,0,125,125,125,trial,"['S', 'S', 'S', 'S', 'S', 'S', 'S', 'S', 'C', 'C', 'C', 'C', 'C', 'C', 'C', 'C', 'C', 'C', 'C', 'C', 'C', 'C', 'C', 'C']","[2255654, 2255982, 2256421, 2256988, 2257590, 2258172, 2258779, 2259330, 2259940, 2260470, 2261005, 2261521, 2262075, 2262588, 2263109, 2263645, 2264159, 2264675, 2265190, 2265707, 2266257, 2266828, 2267352, 2267876]","[2255787, 2256138, 2256623, 2257160, 2257785, 2258277, 2258892, 2259477, 2260069, 2260637, 2261156, 2261659, 2262228, 2262756, 2263289, 2263749, 2264292, 2264805, 2265349, 2265815, 2266373, 2266944, 2267472, 2268037]","[2255256, 2255857, 2256457, 2257057, 2257657, 2258257, 2258857, 2259457, 2259966, 2260497, 2261031, 2261548, 2262102, 2262616, 2263137, 2263671, 2264186, 2264702, 2265217, 2265735, 2266285, 2266855, 2267379, 2267902]",22,R,ITM,1.1,
