octave,ioi,event,.thisRepN,.thisTrialN,.thisN,.thisIndex,event,tap_types,tap_times,release_times,tone_times,subject,handedness,experiment,version,
,,SPR,0,-1,-1,0,SPR,"['P', 'P', 'P', 'P', 'P', 'P', 'P', 'P', 'P', 'P', 'P', 'P', 'P', 'P', 'P', 'P', 'P', 'P', 'P', 'P', 'P', 'P', 'P', 'P', 'P', 'P', 'P', 'P', 'P', 'P']","[33188, 33735, 34370, 34936, 35538, 36078, 36625, 37149, 37698, 38241, 38800, 39351, 39942, 40483, 41052, 41602, 42161, 42719, 43278, 43803, 44353, 44873, 45382, 45873, 46397, 46888, 47344, 47828, 48337, 48766]","[33332, 33928, 34533, 35098, 35642, 36192, 36734, 37264, 37816, 38349, 38905, 39468, 40055, 40601, 41143, 41719, 42293, 42832, 43392, 43911, 44451, 44980, 45481, 45978, 46486, 46980, 47459, 47925, 48442, 48897]",,39,R,ITM,1.1,
3,500,practice,0,0,0,0,practice,"['S', 'S', 'S', 'S', 'S', 'S', 'S', 'C', 'C', 'C', 'C', 'C', 'C', 'C', 'C', 'C', 'C', 'C', 'C', 'C', 'C', 'C', 'C']","[103770, 104357, 104905, 105479, 106005, 106516, 107019, 107544, 108056, 108577, 109069, 109602, 110094, 110587, 111086, 111560, 112035, 112557, 113026, 113542, 114042, 114540, 115049]","[103861, 104472, 105049, 105588, 106118, 106627, 107151, 107649, 108170, 108674, 109179, 109719, 110214, 110721, 111198, 111676, 112148, 112661, 113149, 113646, 114166, 114718, 115197]","[103573, 104072, 104572, 105072, 105572, 106073, 106572, 107072, 107570, 108082, 108603, 109095, 109628, 110119, 110614, 111112, 111586, 112061, 112582, 113051, 113567, 114068, 114566, 115075]",39,R,ITM,1.1,
6,500,practice,0,1,1,1,practice,"['S', 'S', 'S', 'S', 'S', 'S', 'S', 'C', 'C', 'C', 'C', 'C', 'C', 'C', 'C', 'C', 'C', 'C', 'C', 'C', 'C', 'C', 'C']","[121009, 121608, 122041, 122518, 123002, 123525, 124039, 124540, 125039, 125533, 126027, 126522, 127028, 127542, 128009, 128507, 128978, 129466, 129923, 130408, 130863, 131350, 131810]","[121149, 121701, 122180, 122649, 123158, 123675, 124192, 124677, 125182, 125676, 126206, 126690, 127232, 127680, 128162, 128659, 129118, 129588, 130069, 130553, 130962, 131471, 131919]","[120573, 121072, 121572, 122073, 122572, 123072, 123572, 124072, 124567, 125066, 125559, 126054, 126548, 127055, 127569, 128036, 128535, 129006, 129492, 129949, 130435, 130889, 131378, 131836]",39,R,ITM,1.1,
2,500,practice,0,2,2,2,practice,"['S', 'S', 'S', 'S', 'S', 'S', 'S', 'S', 'C', 'C', 'C', 'C', 'C', 'C', 'C', 'C', 'C', 'C', 'C', 'C', 'C', 'C', 'C', 'C']","[137778, 138188, 138592, 139052, 139550, 140059, 140537, 141063, 141566, 142024, 142484, 142977, 143429, 143877, 144331, 144791, 145233, 145658, 146091, 146540, 147002, 147449, 147891, 148350]","[137866, 138281, 138711, 139193, 139673, 140184, 140704, 141180, 141705, 142158, 142614, 143083, 143545, 143991, 144453, 144892, 145329, 145769, 146193, 146640, 147091, 147524, 147995, 148442]","[137607, 138106, 138606, 139106, 139606, 140106, 140606, 141107, 141592, 142052, 142512, 143004, 143457, 143904, 144358, 144819, 145261, 145686, 146117, 146567, 147030, 147477, 147918, 148378]",39,R,ITM,1.1,
7,500,practice,0,3,3,3,practice,"['S', 'S', 'S', 'S', 'S', 'S', 'S', 'S', 'C', 'C', 'C', 'C', 'C', 'C', 'C', 'C', 'C', 'C', 'C', 'C', 'C', 'C', 'C', 'C']","[154003, 154343, 154783, 155268, 155790, 156317, 156797, 157342, 157826, 158285, 158761, 159335, 159850, 160301, 160747, 161202, 161674, 162131, 162604, 163092, 163546, 164016, 164489, 164979]","[154095, 154477, 154924, 155398, 155933, 156449, 156942, 157475, 157947, 158410, 158895, 159518, 159962, 160400, 160880, 161314, 161778, 162230, 162692, 163186, 163638, 164121, 164601, 165088]","[153874, 154374, 154873, 155373, 155873, 156374, 156873, 157373, 157853, 158313, 158789, 159362, 159877, 160327, 160774, 161228, 161701, 162159, 162631, 163119, 163572, 164042, 164515, 165006]",39,R,ITM,1.1,
4,500,practice,0,4,4,4,practice,"['S', 'S', 'S', 'S', 'S', 'S', 'S', 'S', 'C', 'C', 'C', 'C', 'C', 'C', 'C', 'C', 'C', 'C', 'C', 'C', 'C', 'C', 'C', 'C']","[170609, 170963, 171364, 171840, 172376, 172887, 173393, 173884, 174406, 174907, 175388, 175872, 176369, 176867, 177345, 177820, 178297, 178814, 179252, 179753, 180231, 180731, 181212, 181726]","[170700, 171069, 171475, 171967, 172488, 172999, 173506, 174000, 174525, 175009, 175488, 175977, 176478, 176960, 177451, 177921, 178413, 178907, 179361, 179843, 180358, 180837, 181331, 181836]","[170464, 170963, 171463, 171963, 172464, 172963, 173463, 173963, 174432, 174932, 175414, 175897, 176395, 176892, 177371, 177846, 178324, 178840, 179277, 179779, 180256, 180757, 181237, 181751]",39,R,ITM,1.1,
5,500,practice,0,5,5,5,practice,"['S', 'S', 'S', 'S', 'S', 'S', 'S', 'S', 'C', 'C', 'C', 'C', 'C', 'C', 'C', 'C', 'C', 'C', 'C', 'C', 'C', 'C', 'C', 'C']","[187395, 187763, 188181, 188643, 189160, 189647, 190155, 190661, 191162, 191652, 192129, 192615, 193102, 193583, 194086, 194560, 195051, 195528, 195981, 196466, 196958, 197455, 197913, 198360]","[187486, 187862, 188298, 188756, 189270, 189756, 190268, 190767, 191288, 191754, 192231, 192731, 193199, 193699, 194172, 194678, 195180, 195622, 196099, 196563, 197037, 197538, 198007, 198461]","[187227, 187726, 188226, 188726, 189227, 189726, 190226, 190727, 191187, 191678, 192154, 192641, 193129, 193608, 194113, 194585, 195077, 195554, 196007, 196492, 196983, 197482, 197939, 198385]",39,R,ITM,1.1,
6,400,trial,0,6,6,6,trial,"['S', 'S', 'S', 'S', 'S', 'S', 'S', 'S', 'C', 'C', 'C', 'C', 'C', 'C', 'C', 'C', 'C', 'C', 'C', 'C', 'C', 'C', 'C', 'C']","[228440, 228772, 229046, 229385, 229785, 230176, 230574, 230950, 231346, 231718, 232089, 232497, 232861, 233242, 233638, 233998, 234393, 234750, 235134, 235567, 235918, 236286, 236646, 237046]","[228515, 228843, 229134, 229475, 229872, 230259, 230637, 231022, 231438, 231794, 232187, 232578, 232945, 233345, 233722, 234101, 234496, 234853, 235231, 235627, 235990, 236356, 236716, 237122]","[228259, 228659, 229059, 229459, 229859, 230259, 230660, 231059, 231372, 231745, 232117, 232524, 232888, 233269, 233665, 234024, 234420, 234777, 235162, 235593, 235945, 236314, 236673, 237073]",39,R,ITM,1.1,
3,600,trial,0,7,7,7,trial,"['S', 'S', 'S', 'S', 'S', 'S', 'S', 'S', 'S', 'C', 'C', 'C', 'C', 'C', 'C', 'C', 'C', 'C', 'C', 'C', 'C', 'C', 'C', 'C', 'C']","[242558, 242888, 243533, 243633, 244196, 244811, 245431, 246048, 246626, 247212, 247808, 248400, 249026, 249617, 250207, 250768, 251364, 251931, 252495, 253077, 253677, 254272, 254854, 255441, 255985]","[242629, 242987, 243553, 243653, 244284, 244902, 245505, 246135, 246702, 247303, 247915, 248477, 249125, 249719, 250303, 250859, 251465, 252019, 252599, 253187, 253765, 254382, 254959, 255557, 256096]","[242441, 243041, 243641, 244241, 244841, 245441, 246041, 246641, 247237, 247833, 248426, 249052, 249643, 250232, 250793, 251389, 251957, 252521, 253103, 253704, 254299, 254879, 255467, 256011]",39,R,ITM,1.1,
2,600,trial,0,8,8,8,trial,"['S', 'S', 'S', 'S', 'S', 'S', 'C', 'C', 'C', 'C', 'C', 'C', 'C', 'C', 'C', 'C', 'C', 'C', 'C', 'C', 'C', 'C']","[262917, 263514, 264124, 264734, 265357, 265960, 266519, 267134, 267732, 268358, 268977, 269566, 270189, 270776, 271351, 271934, 272488, 273092, 273647, 274229, 274805, 275418]","[263054, 263632, 264229, 264842, 265432, 266044, 266618, 267209, 267824, 268461, 269075, 269671, 270279, 270865, 271443, 272015, 272602, 273180, 273743, 274305, 274881, 275492]","[261757, 262358, 262958, 263558, 264158, 264757, 265357, 265956, 266547, 267162, 267760, 268385, 269004, 269592, 270216, 270802, 271379, 271962, 272515, 273120, 273675, 274256, 274833, 275445]",39,R,ITM,1.1,
7,600,trial,0,9,9,9,trial,"['S', 'S', 'S', 'S', 'S', 'S', 'S', 'S', 'C', 'C', 'C', 'C', 'C', 'C', 'C', 'C', 'C', 'C', 'C', 'C', 'C', 'C', 'C', 'C']","[281185, 281640, 282090, 282619, 283236, 283837, 284407, 284997, 285599, 286183, 286795, 287354, 287946, 288562, 289139, 289733, 290343, 290904, 291488, 292083, 292669, 293244, 293836, 294374]","[281290, 281729, 282190, 282742, 283345, 283941, 284518, 285123, 285690, 286274, 286881, 287440, 288038, 288650, 289229, 289832, 290418, 290988, 291566, 292164, 292751, 293319, 293923, 294474]","[280868, 281467, 282067, 282668, 283268, 283868, 284467, 285067, 285626, 286211, 286822, 287382, 287973, 288588, 289167, 289760, 290371, 290931, 291515, 292110, 292696, 293271, 293863, 294402]",39,R,ITM,1.1,
4,600,trial,0,10,10,10,trial,"['S', 'S', 'S', 'S', 'S', 'S', 'S', 'S', 'C', 'C', 'C', 'C', 'C', 'C', 'C', 'C', 'C', 'C', 'C', 'C', 'C', 'C', 'C', 'C']","[300400, 300786, 301200, 301770, 302432, 302991, 303595, 304199, 304789, 305369, 305952, 306537, 307103, 307681, 308270, 308841, 309446, 310020, 310619, 311205, 311803, 312388, 312983, 313558]","[300488, 300864, 301296, 301884, 302520, 303082, 303683, 304301, 304887, 305459, 306031, 306610, 307193, 307753, 308377, 308943, 309537, 310127, 310712, 311296, 311900, 312497, 313084, 313649]","[300051, 300651, 301251, 301851, 302451, 303051, 303651, 304251, 304815, 305394, 305978, 306563, 307129, 307706, 308295, 308867, 309473, 310045, 310644, 311231, 311829, 312414, 313009, 313583]",39,R,ITM,1.1,
7,400,trial,0,11,11,11,trial,"['S', 'S', 'S', 'S', 'S', 'S', 'C', 'C', 'C', 'C', 'C', 'C', 'C', 'C', 'C', 'C', 'C', 'C', 'C', 'C', 'C', 'C']","[320041, 320381, 320789, 321193, 321614, 322003, 322395, 322786, 323186, 323570, 323976, 324363, 324756, 325163, 325563, 325969, 326351, 326750, 327150, 327540, 327955, 328335]","[320130, 320458, 320871, 321272, 321683, 322070, 322461, 322862, 323251, 323645, 324031, 324410, 324814, 325230, 325628, 326040, 326419, 326828, 327221, 327623, 328028, 328394]","[319229, 319628, 320028, 320429, 320828, 321228, 321629, 322028, 322421, 322812, 323213, 323597, 324003, 324389, 324784, 325190, 325590, 325996, 326378, 326777, 327177, 327567, 327983, 328361]",39,R,ITM,1.1,
5,600,trial,0,12,12,12,trial,"['S', 'S', 'S', 'S', 'S', 'S', 'C', 'C', 'C', 'C', 'C', 'C', 'C', 'C', 'C', 'C', 'C', 'C', 'C', 'C', 'C', 'C']","[335043, 335565, 336155, 336735, 337316, 337922, 338566, 339129, 339724, 340278, 340899, 341439, 342008, 342566, 343139, 343688, 344260, 344792, 345344, 345927, 346469, 347002]","[335134, 335655, 336253, 336831, 337426, 338031, 338651, 339212, 339823, 340382, 341011, 341522, 342112, 342638, 343226, 343789, 344345, 344876, 345417, 345993, 346546, 347097]","[333816, 334416, 335016, 335617, 336217, 336817, 337416, 338016, 338591, 339154, 339750, 340303, 340925, 341465, 342034, 342593, 343164, 343713, 344286, 344817, 345369, 345953, 346494, 347029]",39,R,ITM,1.1,
5,400,trial,0,13,13,13,trial,"['S', 'S', 'S', 'S', 'C', 'C', 'C', 'C', 'C', 'C', 'C', 'C', 'C', 'C', 'C', 'C', 'C', 'C', 'C', 'C']","[354097, 354484, 354885, 355296, 355708, 356101, 356473, 356886, 357269, 357663, 358042, 358427, 358824, 359230, 359604, 360008, 360413, 360825, 361213, 361617]","[354189, 354578, 354980, 355388, 355805, 356188, 356562, 356967, 357355, 357743, 358130, 358513, 358899, 359308, 359698, 360093, 360504, 360914, 361285, 361695]","[352533, 352933, 353333, 353733, 354134, 354533, 354933, 355334, 355734, 356127, 356499, 356912, 357295, 357689, 358068, 358454, 358850, 359256, 359630, 360034, 360438, 360852, 361239, 361644]",39,R,ITM,1.1,
6,400,trial,0,14,14,14,trial,"['S', 'S', 'S', 'S', 'S', 'S', 'C', 'C', 'C', 'C', 'C', 'C', 'C', 'C', 'C', 'C', 'C', 'C', 'C', 'C', 'C', 'C']","[367801, 368184, 368540, 368933, 369310, 369728, 370146, 370523, 370910, 371294, 371654, 372052, 372486, 372909, 373293, 373685, 374062, 374475, 374879, 375263, 375659, 376047]","[367887, 368268, 368625, 369013, 369416, 369817, 370233, 370604, 370972, 371368, 371729, 372146, 372556, 372979, 373346, 373734, 374131, 374540, 374958, 375340, 375727, 376122]","[367051, 367452, 367851, 368251, 368651, 369051, 369452, 369851, 370173, 370550, 370936, 371321, 371681, 372079, 372513, 372935, 373319, 373712, 374088, 374502, 374905, 375289, 375686, 376075]",39,R,ITM,1.1,
4,400,trial,0,15,15,15,trial,"['S', 'S', 'S', 'S', 'C', 'C', 'C', 'C', 'C', 'C', 'C', 'C', 'C', 'C', 'C', 'C', 'C', 'C', 'C', 'C']","[383028, 383430, 383841, 384243, 384626, 385036, 385434, 385824, 386231, 386605, 386970, 387357, 387748, 388166, 388578, 388968, 389368, 389749, 390137, 390552]","[383114, 383514, 383927, 384330, 384722, 385118, 385508, 385902, 386308, 386682, 387035, 387427, 387829, 388228, 388640, 389023, 389437, 389825, 390200, 390618]","[381486, 381884, 382284, 382685, 383085, 383485, 383885, 384285, 384652, 385061, 385460, 385850, 386257, 386630, 386996, 387383, 387774, 388192, 388603, 388994, 389394, 389775, 390163, 390579]",39,R,ITM,1.1,
7,400,trial,0,16,16,16,trial,"['S', 'S', 'S', 'S', 'C', 'C', 'C', 'C', 'C', 'C', 'C', 'C', 'C', 'C', 'C', 'C', 'C', 'C', 'C', 'C']","[397748, 398157, 398556, 398970, 399371, 399728, 400129, 400520, 400943, 401355, 401738, 402144, 402571, 402946, 403315, 403731, 404130, 404558, 404926, 405324]","[397834, 398225, 398619, 399045, 399437, 399800, 400200, 400588, 400994, 401419, 401782, 402184, 402622, 403006, 403393, 403793, 404209, 404627, 404995, 405384]","[396183, 396583, 396983, 397383, 397784, 398183, 398583, 398984, 399397, 399755, 400156, 400546, 400970, 401383, 401765, 402171, 402598, 402972, 403343, 403759, 404157, 404586, 404954, 405351]",39,R,ITM,1.1,
3,400,trial,0,17,17,17,trial,"['S', 'S', 'S', 'S', 'S', 'S', 'C', 'C', 'C', 'C', 'C', 'C', 'C', 'C', 'C', 'C', 'C', 'C', 'C', 'C', 'C', 'C']","[411507, 411882, 412259, 412627, 413037, 413431, 413858, 414221, 414610, 415007, 415401, 415770, 416163, 416560, 416912, 417315, 417703, 418106, 418484, 418904, 419287, 419678]","[411589, 411951, 412331, 412707, 413115, 413509, 413934, 414287, 414683, 415086, 415470, 415841, 416234, 416632, 417000, 417391, 417781, 418170, 418551, 418965, 419366, 419745]","[410707, 411107, 411507, 411908, 412307, 412707, 413107, 413507, 413884, 414246, 414636, 415033, 415427, 415796, 416189, 416585, 416937, 417341, 417729, 418131, 418509, 418929, 419312, 419703]",39,R,ITM,1.1,
3,600,trial,0,18,18,18,trial,"['S', 'S', 'S', 'S', 'S', 'S', 'S', 'C', 'C', 'C', 'C', 'C', 'C', 'C', 'C', 'C', 'C', 'C', 'C', 'C', 'C', 'C', 'C']","[440444, 441256, 441793, 442370, 442959, 443544, 444150, 444768, 445357, 445928, 446515, 447114, 447707, 448326, 448896, 449418, 450033, 450622, 451233, 451877, 452484, 453155, 453776]","[440520, 441344, 441860, 442462, 443052, 443635, 444264, 444857, 445443, 446022, 446606, 447210, 447810, 448391, 448984, 449523, 450103, 450699, 451293, 451951, 452553, 453224, 453829]","[440044, 440644, 441244, 441844, 442444, 443044, 443644, 444244, 444793, 445382, 445954, 446540, 447139, 447732, 448352, 448921, 449443, 450059, 450648, 451259, 451903, 452509, 453181, 453801]",39,R,ITM,1.1,
3,400,trial,0,19,19,19,trial,"['S', 'S', 'S', 'S', 'C', 'C', 'C', 'C', 'C', 'C', 'C', 'C', 'C', 'C', 'C', 'C', 'C', 'C', 'C', 'C']","[460625, 461026, 461429, 461829, 462255, 462616, 463012, 463393, 463792, 464195, 464585, 464937, 465325, 465727, 466124, 466491, 466911, 467301, 467684, 468079]","[460698, 461095, 461507, 461921, 462318, 462687, 463079, 463449, 463861, 464257, 464655, 465012, 465416, 465805, 466194, 466575, 466975, 467363, 467740, 468106]","[459095, 459494, 459894, 460295, 460695, 461095, 461495, 461895, 462280, 462642, 463038, 463419, 463817, 464221, 464611, 464963, 465350, 465753, 466150, 466516, 466936, 467326, 467709, 468105]",39,R,ITM,1.1,
6,600,trial,0,20,20,20,trial,"['S', 'S', 'S', 'S', 'S', 'S', 'C', 'C', 'C', 'C', 'C', 'C', 'C', 'C', 'C', 'C', 'C', 'C', 'C', 'C', 'C', 'C']","[474596, 475156, 475763, 476357, 476919, 477549, 478170, 478770, 479355, 479945, 480544, 481147, 481716, 482314, 482883, 483441, 484003, 484609, 485168, 485708, 486301, 486895]","[474676, 475237, 475833, 476442, 477005, 477609, 478238, 478834, 479426, 480009, 480602, 481213, 481790, 482395, 482989, 483529, 484102, 484689, 485236, 485776, 486349, 486962]","[473405, 474005, 474605, 475205, 475805, 476405, 477005, 477605, 478196, 478796, 479382, 479973, 480572, 481175, 481742, 482340, 482910, 483469, 484030, 484635, 485194, 485736, 486328, 486922]",39,R,ITM,1.1,
2,400,trial,0,21,21,21,trial,"['S', 'S', 'S', 'S', 'C', 'C', 'C', 'C', 'C', 'C', 'C', 'C', 'C', 'C', 'C', 'C', 'C', 'C', 'C', 'C']","[493832, 494254, 494653, 495042, 495449, 495838, 496245, 496678, 497062, 497471, 497801, 498254, 498659, 499062, 499453, 499864, 500271, 500642, 501093, 501497]","[493904, 494328, 494715, 495123, 495514, 495917, 496332, 496744, 497122, 497550, 497903, 498325, 498713, 499135, 499526, 499929, 500345, 500737, 501159, 501562]","[492274, 492675, 493074, 493474, 493875, 494274, 494673, 495073, 495475, 495865, 496272, 496706, 497089, 497499, 497827, 498281, 498685, 499089, 499480, 499892, 500297, 500669, 501120, 501525]",39,R,ITM,1.1,
5,400,trial,0,22,22,22,trial,"['S', 'S', 'S', 'S', 'S', 'S', 'C', 'C', 'C', 'C', 'C', 'C', 'C', 'C', 'C', 'C', 'C', 'C', 'C', 'C', 'C', 'C']","[507759, 508189, 508560, 508946, 509352, 509750, 510152, 510565, 510952, 511301, 511746, 512132, 512541, 512928, 513345, 513751, 514124, 514539, 514934, 515346, 515749, 516136]","[507812, 508227, 508627, 509014, 509416, 509819, 510222, 510631, 510978, 511379, 511800, 512205, 512622, 513013, 513405, 513825, 514199, 514591, 514991, 515425, 515808, 516201]","[507027, 507427, 507827, 508227, 508627, 509027, 509427, 509828, 510178, 510590, 510978, 511327, 511771, 512157, 512568, 512955, 513372, 513776, 514150, 514566, 514961, 515372, 515775, 516162]",39,R,ITM,1.1,
7,600,trial,0,23,23,23,trial,"['S', 'S', 'S', 'S', 'S', 'S', 'S', 'C', 'C', 'C', 'C', 'C', 'C', 'C', 'C', 'C', 'C', 'C', 'C', 'C', 'C', 'C', 'C']","[522083, 522777, 523387, 524002, 524627, 525222, 525824, 526395, 526943, 527471, 528030, 528546, 529112, 529648, 530208, 530732, 531296, 531835, 532411, 532951, 533477, 534029, 534595]","[522127, 522849, 523456, 524069, 524686, 525281, 525871, 526475, 527002, 527540, 528102, 528632, 529187, 529723, 530302, 530821, 531371, 531911, 532471, 533027, 533561, 534099, 534673]","[521698, 522297, 522897, 523497, 524097, 524697, 525297, 525897, 526422, 526969, 527498, 528057, 528574, 529138, 529676, 530236, 530758, 531322, 531863, 532439, 532977, 533504, 534055, 534623]",39,R,ITM,1.1,
5,600,trial,0,24,24,24,trial,"['S', 'S', 'S', 'S', 'S', 'S', 'C', 'C', 'C', 'C', 'C', 'C', 'C', 'C', 'C', 'C', 'C', 'C', 'C', 'C', 'C', 'C']","[541276, 541868, 542467, 543093, 543688, 544295, 544854, 545421, 545987, 546552, 547108, 547693, 548260, 548818, 549374, 549953, 550532, 551113, 551656, 552238, 552799, 553384]","[541361, 541944, 542567, 543161, 543781, 544367, 544943, 545480, 546072, 546637, 547191, 547764, 548342, 548895, 549456, 550023, 550609, 551205, 551727, 552316, 552880, 553459]","[540139, 540739, 541339, 541939, 542539, 543139, 543739, 544339, 544880, 545446, 546013, 546578, 547134, 547719, 548287, 548844, 549400, 549979, 550557, 551140, 551683, 552263, 552825, 553410]",39,R,ITM,1.1,
6,600,trial,0,25,25,25,trial,"['S', 'S', 'S', 'S', 'S', 'S', 'C', 'C', 'C', 'C', 'C', 'C', 'C', 'C', 'C', 'C', 'C', 'C', 'C', 'C', 'C', 'C']","[560303, 560920, 561506, 562138, 562745, 563311, 563911, 564471, 565033, 565602, 566166, 566719, 567275, 567817, 568401, 568928, 569511, 570079, 570617, 571149, 571702, 572212]","[560388, 560998, 561594, 562224, 562804, 563387, 563982, 564543, 565096, 565660, 566230, 566785, 567354, 567897, 568479, 569026, 569586, 570149, 570686, 571235, 571777, 572305]","[559188, 559788, 560388, 560988, 561587, 562187, 562787, 563387, 563939, 564498, 565060, 565629, 566193, 566747, 567302, 567843, 568428, 568954, 569538, 570106, 570644, 571175, 571729, 572239]",39,R,ITM,1.1,
2,400,trial,0,26,26,26,trial,"['S', 'S', 'S', 'S', 'S', 'S', 'S', 'C', 'C', 'C', 'C', 'C', 'C', 'C', 'C', 'C', 'C', 'C', 'C', 'C', 'C', 'C', 'C']","[578174, 578461, 578820, 579216, 579615, 580033, 580443, 580880, 581288, 581697, 582113, 582522, 582934, 583362, 583782, 584235, 584657, 585066, 585466, 585886, 586276, 586701, 587114]","[578240, 578531, 578902, 579306, 579694, 580113, 580529, 580955, 581369, 581783, 582190, 582618, 583022, 583445, 583861, 584313, 584731, 585150, 585569, 585963, 586368, 586785, 587189]","[577653, 578054, 578453, 578853, 579253, 579653, 580052, 580453, 580907, 581315, 581724, 582140, 582549, 582962, 583390, 583809, 584261, 584684, 585094, 585493, 585913, 586304, 586729, 587142]",39,R,ITM,1.1,
4,600,trial,0,27,27,27,trial,"['S', 'S', 'S', 'S', 'S', 'S', 'C', 'C', 'C', 'C', 'C', 'C', 'C', 'C', 'C', 'C', 'C', 'C', 'C', 'C', 'C', 'C']","[593760, 594383, 594968, 595591, 596195, 596764, 597388, 597965, 598561, 599161, 599709, 600283, 600821, 601389, 601961, 602542, 603097, 603650, 604186, 604744, 605310, 605894]","[593862, 594468, 595050, 595695, 596308, 596871, 597495, 598057, 598651, 599248, 599809, 600373, 600924, 601487, 602060, 602627, 603204, 603760, 604291, 604847, 605389, 605982]","[592635, 593235, 593836, 594436, 595036, 595635, 596235, 596835, 597413, 597991, 598587, 599187, 599735, 600309, 600847, 601414, 601987, 602567, 603122, 603675, 604212, 604770, 605336, 605920]",39,R,ITM,1.1,
4,400,trial,0,28,28,28,trial,"['S', 'S', 'S', 'S', 'S', 'S', 'C', 'C', 'C', 'C', 'C', 'C', 'C', 'C', 'C', 'C', 'C', 'C', 'C', 'C', 'C', 'C']","[612194, 612561, 612975, 613396, 613780, 614197, 614574, 614943, 615318, 615685, 616079, 616486, 616903, 617283, 617720, 618164, 618580, 618992, 619372, 619778, 620147, 620525]","[612279, 612667, 613075, 613466, 613864, 614273, 614659, 615036, 615411, 615776, 616169, 616563, 616983, 617377, 617801, 618241, 618671, 619059, 619462, 619842, 620210, 620598]","[611434, 611834, 612234, 612634, 613035, 613434, 613834, 614235, 614599, 614969, 615344, 615710, 616104, 616512, 616929, 617309, 617746, 618189, 618607, 619018, 619398, 619804, 620173, 620551]",39,R,ITM,1.1,
2,600,trial,0,29,29,29,trial,"['S', 'S', 'S', 'S', 'C', 'C', 'C', 'C', 'C', 'C', 'C', 'C', 'C', 'C', 'C', 'C', 'C', 'C', 'C', 'C']","[628618, 629214, 629827, 630466, 631044, 631626, 632160, 632749, 633312, 633916, 634473, 635070, 635693, 636305, 636916, 637519, 638105, 638712, 639322, 639929]","[628717, 629317, 629925, 630546, 631131, 631704, 632253, 632824, 633405, 633993, 634577, 635163, 635767, 636376, 636998, 637593, 638189, 638787, 639401, 639996]","[626317, 626917, 627516, 628116, 628717, 629317, 629917, 630516, 631071, 631653, 632187, 632775, 633338, 633944, 634501, 635098, 635720, 636333, 636944, 637546, 638133, 638739, 639348, 639955]",39,R,ITM,1.1,
6,600,trial,0,30,30,30,trial,"['S', 'S', 'S', 'S', 'S', 'S', 'S', 'C', 'C', 'C', 'C', 'C', 'C', 'C', 'C', 'C', 'C', 'C', 'C', 'C', 'C', 'C', 'C']","[653188, 653602, 654162, 654757, 655405, 655973, 656560, 657133, 657708, 658270, 658844, 659414, 659989, 660580, 661138, 661726, 662340, 662900, 663502, 664055, 664612, 665187, 665760]","[653247, 653641, 654234, 654824, 655472, 656049, 656632, 657207, 657779, 658332, 658908, 659489, 660042, 660652, 661230, 661796, 662438, 662982, 663578, 664124, 664694, 665267, 665852]","[652424, 653024, 653624, 654224, 654824, 655424, 656024, 656624, 657160, 657734, 658296, 658872, 659440, 660016, 660606, 661165, 661752, 662368, 662928, 663529, 664082, 664639, 665213, 665787]",39,R,ITM,1.1,
4,400,trial,0,31,31,31,trial,"['S', 'S', 'S', 'S', 'S', 'S', 'C', 'C', 'C', 'C', 'C', 'C', 'C', 'C', 'C', 'C', 'C', 'C', 'C', 'C', 'C', 'C']","[672036, 672417, 672802, 673240, 673646, 674018, 674411, 674831, 675235, 675624, 676017, 676423, 676775, 677171, 677590, 678004, 678384, 678776, 679202, 679598, 679937, 680360]","[672065, 672474, 672864, 673293, 673707, 674084, 674472, 674887, 675278, 675693, 676081, 676465, 676842, 677237, 677635, 678053, 678470, 678866, 679288, 679670, 680017, 680430]","[671264, 671665, 672064, 672464, 672864, 673264, 673665, 674064, 674437, 674856, 675261, 675650, 676042, 676450, 676801, 677196, 677616, 678030, 678410, 678802, 679228, 679623, 679962, 680386]",39,R,ITM,1.1,
5,400,trial,0,32,32,32,trial,"['S', 'S', 'S', 'S', 'C', 'C', 'C', 'C', 'C', 'C', 'C', 'C', 'C', 'C', 'C', 'C', 'C', 'C', 'C', 'C']","[687305, 687705, 688084, 688481, 688869, 689254, 689630, 690010, 690378, 690755, 691140, 691532, 691916, 692329, 692720, 693091, 693457, 693858, 694243, 694621]","[687394, 687771, 688155, 688501, 688939, 689316, 689702, 690073, 690458, 690829, 691225, 691609, 692002, 692393, 692788, 693168, 693555, 693934, 694326, 694708]","[685756, 686155, 686556, 686955, 687355, 687755, 688155, 688556, 688894, 689280, 689655, 690035, 690404, 690782, 691166, 691558, 691943, 692355, 692746, 693117, 693483, 693883, 694268, 694646]",39,R,ITM,1.1,
5,600,trial,0,33,33,33,trial,"['S', 'S', 'S', 'S', 'S', 'S', 'C', 'C', 'C', 'C', 'C', 'C', 'C', 'C', 'C', 'C', 'C', 'C', 'C', 'C', 'C', 'C']","[701468, 702056, 702688, 703290, 703824, 704457, 704996, 705574, 706134, 706728, 707299, 707838, 708370, 708928, 709466, 710035, 710558, 711018, 711603, 712175, 712774, 713339]","[701548, 702131, 702771, 703363, 703900, 704533, 705075, 705659, 706211, 706794, 707366, 707907, 708438, 708984, 709542, 710113, 710639, 711094, 711669, 712253, 712838, 713434]","[700372, 700972, 701572, 702172, 702771, 703371, 703971, 704571, 705021, 705600, 706159, 706754, 707324, 707864, 708396, 708954, 709491, 710061, 710584, 711045, 711628, 712201, 712800, 713365]",39,R,ITM,1.1,
6,600,trial,0,34,34,34,trial,"['S', 'S', 'S', 'S', 'S', 'S', 'C', 'C', 'C', 'C', 'C', 'C', 'C', 'C', 'C', 'C', 'C', 'C', 'C', 'C', 'C', 'C']","[720008, 720647, 721245, 721851, 722449, 723028, 723603, 724177, 724745, 725339, 725967, 726562, 727145, 727741, 728323, 728913, 729484, 730054, 730607, 731271, 731805, 732353]","[720084, 720733, 721325, 721938, 722537, 723102, 723688, 724252, 724802, 725420, 726013, 726639, 727233, 727790, 728401, 728957, 729561, 730126, 730675, 731350, 731882, 732431]","[718925, 719524, 720124, 720724, 721325, 721925, 722525, 723124, 723630, 724204, 724771, 725366, 725995, 726589, 727172, 727768, 728349, 728940, 729511, 730081, 730635, 731297, 731832, 732381]",39,R,ITM,1.1,
5,600,trial,0,35,35,35,trial,"['S', 'S', 'S', 'S', 'S', 'S', 'C', 'C', 'C', 'C', 'C', 'C', 'C', 'C', 'C', 'C', 'C', 'C', 'C', 'C', 'C', 'C']","[738899, 739515, 740152, 740780, 741335, 741946, 742556, 743152, 743737, 744344, 744916, 745502, 746057, 746645, 747252, 747811, 748341, 748655, 749087, 749633, 750268, 750850]","[738963, 739572, 740226, 740835, 741413, 742043, 742638, 743229, 743818, 744438, 745009, 745582, 746136, 746688, 747339, 747880, 748407, 748681, 749113, 749685, 750342, 750907]","[737799, 738397, 738997, 739597, 740197, 740797, 741397, 741997, 742582, 743178, 743763, 744370, 744943, 745528, 746084, 746671, 747278, 747837, 748366, 748681, 749113, 749659, 750294, 750875]",39,R,ITM,1.1,
2,400,trial,0,36,36,36,trial,"['S', 'S', 'S', 'S', 'S', 'S', 'C', 'C', 'C', 'C', 'C', 'C', 'C', 'C', 'C', 'C', 'C', 'C', 'C', 'C', 'C', 'C']","[757287, 757653, 758062, 758483, 758863, 759257, 759663, 760083, 760468, 760886, 761270, 761692, 762089, 762503, 762938, 763336, 763792, 764229, 764669, 765094, 765499, 765924]","[757347, 757708, 758118, 758538, 758927, 759324, 759728, 760145, 760543, 760970, 761375, 761779, 762182, 762607, 763020, 763426, 763863, 764304, 764744, 765167, 765563, 766015]","[756503, 756903, 757303, 757703, 758103, 758503, 758902, 759304, 759691, 760110, 760496, 760912, 761297, 761718, 762117, 762530, 762966, 763363, 763820, 764256, 764696, 765121, 765526, 765950]",39,R,ITM,1.1,
3,600,trial,0,37,37,37,trial,"['S', 'S', 'S', 'S', 'S', 'S', 'C', 'C', 'C', 'C', 'C', 'C', 'C', 'C', 'C', 'C', 'C', 'C', 'C', 'C', 'C', 'C']","[772796, 773392, 774016, 774598, 775187, 775772, 776368, 776935, 777513, 778054, 778651, 779240, 779807, 780382, 780960, 781589, 782118, 782717, 783361, 783904, 784479, 785042]","[772888, 773510, 774107, 774707, 775318, 775855, 776467, 777017, 777600, 778135, 778724, 779302, 779865, 780454, 781015, 781656, 782200, 782788, 783455, 783989, 784539, 785115]","[771663, 772262, 772862, 773463, 774063, 774663, 775263, 775863, 776393, 776961, 777538, 778080, 778677, 779266, 779833, 780407, 780986, 781615, 782144, 782743, 783386, 783930, 784504, 785068]",39,R,ITM,1.1,
2,400,trial,0,38,38,38,trial,"['S', 'S', 'S', 'S', 'C', 'C', 'C', 'C', 'C', 'C', 'C', 'C', 'C', 'C', 'C', 'C', 'C', 'C', 'C', 'C']","[792020, 792426, 792827, 793236, 793630, 794063, 794466, 794872, 795281, 795674, 796120, 796546, 796960, 797370, 797798, 798199, 798596, 799015, 799458, 799854]","[792085, 792485, 792887, 793288, 793683, 794116, 794529, 794939, 795361, 795760, 796203, 796636, 797040, 797467, 797884, 798277, 798694, 799121, 799571, 799925]","[790466, 790865, 791265, 791665, 792067, 792466, 792866, 793267, 793657, 794090, 794493, 794900, 795309, 795702, 796146, 796572, 796987, 797398, 797826, 798226, 798623, 799042, 799485, 799881]",39,R,ITM,1.1,
3,600,trial,0,39,39,39,trial,"['S', 'S', 'S', 'S', 'S', 'S', 'C', 'C', 'C', 'C', 'C', 'C', 'C', 'C', 'C', 'C', 'C', 'C', 'C', 'C', 'C', 'C']","[806788, 807436, 808015, 808612, 809211, 809783, 810455, 811046, 811640, 812205, 812813, 813341, 813956, 814490, 815049, 815626, 816226, 816819, 817333, 817946, 819458, 820027]","[806903, 807515, 808107, 808682, 809295, 809873, 810505, 811123, 811710, 812279, 812847, 813409, 814001, 814561, 815115, 815711, 816318, 816859, 817438, 818008, 819532, 820074]","[805658, 806258, 806858, 807458, 808058, 808658, 809259, 809859, 810480, 811072, 811666, 812230, 812838, 813367, 813981, 814516, 815075, 815651, 816251, 816844, 817358, 817972, 819483, 820052]",39,R,ITM,1.1,
6,400,trial,0,40,40,40,trial,"['S', 'S', 'S', 'S', 'C', 'C', 'C', 'C', 'C', 'C', 'C', 'C', 'C', 'C', 'C', 'C', 'C', 'C', 'C', 'C']","[827356, 827786, 828239, 828625, 829048, 829465, 829853, 830226, 830626, 831017, 831404, 831792, 832212, 832614, 833013, 833381, 833759, 834154, 834548, 834958]","[827410, 827852, 828293, 828682, 829118, 829530, 829918, 830280, 830700, 831082, 831466, 831854, 832271, 832693, 833084, 833472, 833841, 834227, 834621, 835018]","[825840, 826240, 826639, 827039, 827440, 827839, 828239, 828639, 829076, 829493, 829881, 830253, 830653, 831044, 831431, 831818, 832240, 832641, 833041, 833408, 833786, 834181, 834576, 834985]",39,R,ITM,1.1,
4,600,trial,0,41,41,41,trial,"['S', 'S', 'S', 'S', 'S', 'S', 'C', 'C', 'C', 'C', 'C', 'C', 'C', 'C', 'C', 'C', 'C', 'C', 'C', 'C', 'C', 'C']","[841586, 842219, 842804, 843443, 844068, 844634, 845196, 845749, 846337, 846906, 847496, 848077, 848626, 849174, 849775, 850302, 850880, 851499, 852061, 852616, 853228, 853815]","[841801, 842359, 843051, 843646, 844172, 844709, 845282, 845827, 846401, 846949, 847581, 848121, 848686, 849230, 849819, 850373, 850971, 851524, 852125, 852680, 853292, 853840]","[840535, 841135, 841735, 842335, 842935, 843535, 844135, 844735, 845221, 845774, 846362, 846931, 847521, 848103, 848652, 849200, 849801, 850328, 850906, 851524, 852086, 852641, 853254, 853840]",39,R,ITM,1.1,
4,400,trial,0,42,42,42,trial,"['S', 'S', 'S', 'S', 'S', 'S', 'C', 'C', 'C', 'C', 'C', 'C', 'C', 'C', 'C', 'C', 'C', 'C', 'C', 'C', 'C', 'C']","[873180, 873578, 873967, 874350, 874748, 875163, 875587, 875997, 876392, 876778, 877182, 877575, 877959, 878330, 878757, 879196, 879624, 880033, 880446, 880860, 881255, 881687]","[873244, 873635, 874044, 874429, 874808, 875245, 875651, 876059, 876466, 876859, 877256, 877648, 878032, 878407, 878821, 879262, 879685, 880108, 880522, 880932, 881337, 881753]","[872444, 872844, 873244, 873645, 874044, 874444, 874845, 875245, 875613, 876022, 876418, 876804, 877208, 877600, 877984, 878356, 878783, 879221, 879649, 880059, 880472, 880885, 881282, 881713]",39,R,ITM,1.1,
4,600,trial,0,43,43,43,trial,"['S', 'S', 'S', 'S', 'C', 'C', 'C', 'C', 'C', 'C', 'C', 'C', 'C', 'C', 'C', 'C', 'C', 'C', 'C', 'C', 'C']","[888573, 889123, 889700, 890937, 892100, 893468, 894590, 895099, 895644, 895997, 896177, 896644, 897221, 897802, 898304, 898841, 899388, 899943, 900212, 900827, 901373]","[888652, 889190, 889791, 891026, 892182, 893553, 894680, 895214, 895722, 896023, 896198, 896707, 897247, 897869, 898377, 898909, 899459, 899989, 900238, 900876, 901400]","[887386, 887985, 888584, 889184, 889784, 890384, 890984, 891584, 892126, 893494, 894617, 895125, 895670, 896023, 896669, 897247, 897827, 898330, 898867, 899414, 899969, 900238, 900852, 901400]",39,R,ITM,1.1,
3,400,trial,0,44,44,44,trial,"['S', 'S', 'S', 'S', 'S', 'S', 'S', 'C', 'C', 'C', 'C', 'C', 'C', 'C', 'C', 'C', 'C', 'C', 'C', 'C', 'C', 'C', 'C']","[907401, 907723, 908038, 908443, 908830, 909225, 909645, 910061, 910482, 910895, 911313, 911697, 912137, 912550, 912950, 913372, 913831, 914204, 914607, 914972, 915349, 915776, 916153]","[907446, 907789, 908131, 908559, 908939, 909337, 909742, 910162, 910598, 911023, 911423, 911833, 912258, 912644, 913057, 913473, 913960, 914349, 914707, 915077, 915470, 915852, 916226]","[906872, 907271, 907671, 908071, 908471, 908871, 909272, 909671, 910087, 910508, 910920, 911339, 911723, 912162, 912576, 912975, 913397, 913857, 914230, 914632, 914998, 915375, 915802, 916178]",39,R,ITM,1.1,
7,600,trial,0,45,45,45,trial,"['S', 'S', 'S', 'S', 'S', 'S', 'C', 'C', 'C', 'C', 'C', 'C', 'C', 'C', 'C', 'C', 'C', 'C', 'C', 'C', 'C', 'C']","[922697, 923314, 923923, 924524, 925061, 925668, 926282, 926837, 927492, 928043, 928624, 929258, 929876, 930461, 930991, 931565, 932093, 932658, 933185, 933753, 934288, 934575]","[922821, 923412, 924008, 924600, 925154, 925772, 926395, 926965, 927612, 928342, 928841, 929396, 930041, 930563, 931106, 931631, 932169, 932751, 933310, 933841, 934362, 934601]","[921566, 922164, 922764, 923364, 923964, 924564, 925164, 925764, 926310, 926864, 927518, 928069, 928651, 929285, 929904, 930488, 931017, 931593, 932121, 932685, 933212, 933781, 934315, 934601]",39,R,ITM,1.1,
7,400,trial,0,46,46,46,trial,"['S', 'S', 'S', 'S', 'S', 'S', 'C', 'C', 'C', 'C', 'C', 'C', 'C', 'C', 'C', 'C', 'C', 'C', 'C', 'C', 'C', 'C']","[941157, 941501, 941894, 942266, 942654, 943087, 943516, 943890, 944286, 944705, 945135, 945534, 945950, 946345, 946791, 947228, 947615, 948073, 948515, 948965, 949417, 949840]","[941208, 941565, 941954, 942328, 942710, 943144, 943583, 943967, 944345, 944777, 945204, 945629, 946050, 946446, 946879, 947318, 947720, 948160, 948605, 949030, 949484, 949911]","[940323, 940723, 941123, 941523, 941923, 942323, 942724, 943123, 943543, 943917, 944313, 944732, 945162, 945560, 945978, 946372, 946818, 947256, 947643, 948100, 948542, 948993, 949444, 949867]",39,R,ITM,1.1,
7,400,trial,0,47,47,47,trial,"['S', 'S', 'S', 'S', 'S', 'S', 'C', 'C', 'C', 'C', 'C', 'C', 'C', 'C', 'C', 'C', 'C', 'C', 'C', 'C', 'C', 'C']","[956144, 956522, 956883, 957318, 957702, 958087, 958511, 958941, 959299, 959673, 960092, 960489, 960898, 961316, 961754, 962142, 962525, 962920, 963267, 963646, 964123, 964407]","[956229, 956599, 956961, 957372, 957764, 958182, 958585, 959003, 959366, 959765, 960168, 960566, 960987, 961391, 961827, 962205, 962600, 962988, 963351, 963733, 964202, 964542]","[955417, 955816, 956216, 956616, 957017, 957416, 957816, 958216, 958538, 958967, 959327, 959699, 960119, 960517, 960925, 961344, 961780, 962168, 962552, 962947, 963295, 963674, 964151, 964433]",39,R,ITM,1.1,
6,400,trial,0,48,48,48,trial,"['S', 'S', 'S', 'S', 'C', 'C', 'C', 'C', 'C', 'C', 'C', 'C', 'C', 'C', 'C', 'C', 'C', 'C', 'C', 'C']","[971625, 972037, 972445, 972843, 973245, 973591, 973963, 974271, 974699, 975123, 975534, 975928, 976328, 976754, 977099, 977470, 977861, 978237, 978649, 979064]","[971732, 972104, 972505, 972931, 973343, 973682, 974034, 974410, 974777, 975187, 975613, 976004, 976429, 976860, 977222, 977559, 977914, 978323, 978729, 979140]","[970087, 970486, 970887, 971286, 971686, 972086, 972486, 972887, 973272, 973618, 973989, 974299, 974726, 975150, 975560, 975954, 976356, 976782, 977127, 977497, 977889, 978264, 978675, 979091]",39,R,ITM,1.1,
2,600,trial,0,49,49,49,trial,"['S', 'S', 'S', 'S', 'S', 'S', 'C', 'C', 'C', 'C', 'C', 'C', 'C', 'C', 'C', 'C', 'C', 'C', 'C', 'C', 'C', 'C']","[985717, 986256, 986843, 987425, 988009, 988644, 989228, 989793, 990407, 990941, 991514, 992113, 992659, 993179, 993758, 994367, 994998, 995654, 996303, 996844, 997415, 997975]","[985803, 986338, 986931, 987520, 988100, 988745, 989327, 989882, 990482, 991028, 991611, 992201, 992739, 993267, 993835, 994440, 995074, 995743, 996373, 996926, 997501, 998059]","[984530, 985131, 985731, 986330, 986931, 987530, 988130, 988730, 989254, 989819, 990435, 990968, 991541, 992141, 992686, 993207, 993784, 994394, 995025, 995682, 996330, 996871, 997442, 998001]",39,R,ITM,1.1,
2,600,trial,0,50,50,50,trial,"['S', 'S', 'S', 'S', 'S', 'S', 'C', 'C', 'C', 'C', 'C', 'C', 'C', 'C', 'C', 'C', 'C', 'C', 'C', 'C', 'C', 'C']","[1004521, 1005097, 1005717, 1006303, 1006949, 1007559, 1008203, 1008790, 1009402, 1009933, 1010534, 1011074, 1011616, 1012190, 1013620, 1014182, 1015218, 1016323, 1017334, 1017647, 1018073, 1018553]","[1004600, 1005179, 1005803, 1006404, 1007058, 1007660, 1008322, 1008883, 1009498, 1010255, 1010633, 1011163, 1011713, 1012282, 1013725, 1014210, 1015327, 1016354, 1017481, 1017698, 1018179, 1018637]","[1003379, 1003979, 1004579, 1005179, 1005779, 1006380, 1006979, 1007580, 1008231, 1008818, 1009429, 1009960, 1010562, 1011101, 1011644, 1012217, 1013647, 1014210, 1015244, 1016350, 1017362, 1017673, 1018099, 1018579]",39,R,ITM,1.1,
3,400,trial,0,51,51,51,trial,"['S', 'S', 'S', 'S', 'C', 'C', 'C', 'C', 'C', 'C', 'C', 'C', 'C', 'C', 'C', 'C', 'C', 'C', 'C', 'C']","[1025684, 1026092, 1026473, 1026883, 1027300, 1027695, 1028044, 1028443, 1028852, 1029237, 1029630, 1030050, 1030456, 1030883, 1031283, 1031671, 1032094, 1032518, 1032933, 1033324]","[1025741, 1026154, 1026545, 1026959, 1027369, 1027758, 1028129, 1028516, 1028914, 1029294, 1029711, 1030121, 1030525, 1030948, 1031353, 1031771, 1032171, 1032597, 1033001, 1033404]","[1024142, 1024541, 1024942, 1025341, 1025741, 1026141, 1026541, 1026941, 1027325, 1027721, 1028070, 1028468, 1028878, 1029263, 1029656, 1030076, 1030481, 1030908, 1031309, 1031697, 1032121, 1032544, 1032958, 1033350]",39,R,ITM,1.1,
7,600,trial,0,52,52,52,trial,"['S', 'S', 'S', 'S', 'S', 'S', 'S', 'S', 'C', 'C', 'C', 'C', 'C', 'C', 'C', 'C', 'C', 'C', 'C', 'C', 'C', 'C', 'C', 'C']","[1038800, 1039627, 1040011, 1040496, 1041042, 1041686, 1042305, 1042906, 1043652, 1044183, 1044703, 1045206, 1045753, 1046312, 1046879, 1047359, 1047916, 1048531, 1049071, 1049622, 1050127, 1050617, 1051150, 1051663]","[1038821, 1039698, 1040074, 1040563, 1041132, 1041769, 1042409, 1043009, 1043740, 1044270, 1044800, 1045276, 1045839, 1046410, 1046977, 1047469, 1047999, 1048617, 1049166, 1049705, 1050215, 1050680, 1051215, 1051723]","[1038763, 1039362, 1039962, 1040562, 1041161, 1041761, 1042361, 1042961, 1043679, 1044210, 1044730, 1045232, 1045780, 1046339, 1046905, 1047386, 1047944, 1048558, 1049099, 1049650, 1050155, 1050644, 1051176, 1051691]",39,R,ITM,1.1,
5,400,trial,0,53,53,53,trial,"['S', 'S', 'S', 'S', 'S', 'S', 'S', 'C', 'C', 'C', 'C', 'C', 'C', 'C', 'C', 'C', 'C', 'C', 'C', 'C', 'C', 'C', 'C']","[1058002, 1058308, 1058618, 1058971, 1059372, 1059763, 1060154, 1060570, 1060956, 1061329, 1061745, 1062131, 1062540, 1062946, 1063377, 1063779, 1064165, 1064554, 1064933, 1065290, 1065709, 1066090, 1066471]","[1058038, 1058366, 1058661, 1059042, 1059441, 1059841, 1060237, 1060638, 1061032, 1061403, 1061812, 1062207, 1062618, 1063026, 1063452, 1063832, 1064250, 1064619, 1064991, 1065372, 1065780, 1066144, 1066517]","[1057436, 1057837, 1058236, 1058636, 1059037, 1059437, 1059837, 1060237, 1060596, 1060981, 1061355, 1061771, 1062157, 1062565, 1062973, 1063403, 1063805, 1064190, 1064580, 1064960, 1065316, 1065736, 1066116, 1066497]",39,R,ITM,1.1,
7,400,trial,0,54,54,54,trial,"['S', 'S', 'S', 'S', 'S', 'S', 'S', 'S', 'C', 'C', 'C', 'C', 'C', 'C', 'C', 'C', 'C', 'C', 'C', 'C', 'C', 'C', 'C', 'C']","[1078955, 1079262, 1079520, 1079845, 1080240, 1080627, 1081044, 1081421, 1081817, 1082203, 1082600, 1082975, 1083390, 1083802, 1084208, 1084621, 1085030, 1085390, 1085768, 1086154, 1086552, 1086872, 1087258, 1087620]","[1079030, 1079317, 1079584, 1079921, 1080316, 1080695, 1081112, 1081498, 1081908, 1082293, 1082675, 1083053, 1083467, 1083876, 1084296, 1084701, 1085107, 1085485, 1085857, 1086270, 1086638, 1086987, 1087325, 1087696]","[1078695, 1079095, 1079495, 1079896, 1080295, 1080695, 1081096, 1081496, 1081843, 1082230, 1082627, 1083001, 1083417, 1083829, 1084234, 1084649, 1085058, 1085417, 1085795, 1086182, 1086578, 1086900, 1087285, 1087647]",39,R,ITM,1.1,
5,600,trial,0,55,55,55,trial,"['S', 'S', 'S', 'S', 'S', 'S', 'S', 'C', 'C', 'C', 'C', 'C', 'C', 'C', 'C', 'C', 'C', 'C', 'C', 'C', 'C', 'C', 'C']","[1093720, 1094323, 1094936, 1095523, 1096102, 1096722, 1097289, 1097952, 1098483, 1099084, 1099644, 1100129, 1100673, 1101025, 1101516, 1102109, 1102702, 1103209, 1103756, 1104254, 1104780, 1105313, 1105860]","[1093807, 1094410, 1095011, 1095612, 1096209, 1096827, 1097404, 1098023, 1098606, 1099209, 1099778, 1100226, 1100773, 1101050, 1101580, 1102169, 1102736, 1103277, 1103812, 1104328, 1104844, 1105391, 1105939]","[1093227, 1093827, 1094427, 1095027, 1095627, 1096227, 1096827, 1097427, 1097978, 1098509, 1099110, 1099671, 1100154, 1100698, 1101050, 1101542, 1102135, 1102728, 1103236, 1103782, 1104280, 1104805, 1105339, 1105887]",39,R,ITM,1.1,
5,400,trial,0,56,56,56,trial,"['S', 'S', 'S', 'S', 'S', 'S', 'C', 'C', 'C', 'C', 'C', 'C', 'C', 'C', 'C', 'C', 'C', 'C', 'C', 'C', 'C', 'C']","[1112267, 1112608, 1113016, 1113447, 1113850, 1114240, 1114636, 1115033, 1115445, 1115835, 1116240, 1116644, 1117031, 1117446, 1117844, 1118275, 1118659, 1119087, 1119463, 1119845, 1120228, 1120651]","[1112331, 1112666, 1113085, 1113507, 1113924, 1114296, 1114700, 1115092, 1115491, 1115902, 1116307, 1116700, 1117107, 1117515, 1117936, 1118348, 1118736, 1119140, 1119548, 1119915, 1120316, 1120723]","[1111465, 1111865, 1112265, 1112666, 1113065, 1113465, 1113865, 1114265, 1114661, 1115059, 1115470, 1115860, 1116266, 1116669, 1117058, 1117471, 1117870, 1118301, 1118685, 1119113, 1119489, 1119870, 1120253, 1120676]",39,R,ITM,1.1,
3,400,trial,0,57,57,57,trial,"['S', 'S', 'S', 'S', 'S', 'S', 'S', 'C', 'C', 'C', 'C', 'C', 'C', 'C', 'C', 'C', 'C', 'C', 'C', 'C', 'C', 'C', 'C', 'C', 'C', 'C']","[1126642, 1126986, 1127398, 1127810, 1128186, 1128595, 1128989, 1129395, 1129779, 1130055, 1130564, 1130972, 1131329, 1131680, 1132070, 1132562, 1132966, 1133228, 1133508, 1140333, 1140439, 1140592, 1142850, 1144136, 1144820, 1145236]","[1126714, 1127079, 1127476, 1127876, 1128276, 1128667, 1129076, 1129495, 1129882, 1130081, 1130662, 1131047, 1131425, 1131784, 1132418, 1132642, 1133060, 1133371, 1138468, 1140359, 1140460, 1140664, 1142920, 1144187, 1144890, 1145300]","[1126278, 1126676, 1127076, 1127476, 1127876, 1128276, 1128676, 1129076, 1129420, 1129804, 1130081, 1130590, 1130997, 1131355, 1131706, 1132096, 1132588, 1132992, 1133534, 1140359, 1142876, 1144162, 1144846, 1145263]",39,R,ITM,1.1,
5,400,trial,0,58,58,58,trial,"['S', 'S', 'S', 'S', 'S', 'S', 'S', 'C', 'C', 'C', 'C', 'C', 'C', 'C', 'C', 'C', 'C', 'C', 'C', 'C', 'C', 'C', 'C']","[1151319, 1151560, 1151865, 1152230, 1152592, 1153004, 1153438, 1153855, 1154268, 1154627, 1155020, 1155393, 1155822, 1156207, 1156611, 1157026, 1157436, 1157849, 1158251, 1158649, 1159051, 1159443, 1159830]","[1151382, 1151617, 1151935, 1152308, 1152671, 1153090, 1153514, 1153935, 1154352, 1154705, 1155097, 1155467, 1155894, 1156284, 1156687, 1157101, 1157510, 1157916, 1158326, 1158735, 1159135, 1159536, 1159918]","[1150760, 1151160, 1151560, 1151961, 1152360, 1152760, 1153160, 1153560, 1153881, 1154293, 1154653, 1155046, 1155420, 1155849, 1156234, 1156636, 1157052, 1157462, 1157875, 1158277, 1158675, 1159076, 1159469, 1159857]",39,R,ITM,1.1,
4,600,trial,0,59,59,59,trial,"['S', 'S', 'S', 'S', 'C', 'C', 'C', 'C', 'C', 'C', 'C', 'C', 'C', 'C', 'C', 'C', 'C', 'C', 'C', 'C']","[1167625, 1168218, 1168830, 1169403, 1170017, 1170555, 1171110, 1171704, 1172278, 1172902, 1173515, 1174090, 1174673, 1175265, 1175858, 1176421, 1177021, 1177561, 1178122, 1178776]","[1167731, 1168285, 1168916, 1169487, 1170089, 1170638, 1171196, 1171793, 1172358, 1172970, 1173615, 1174168, 1174763, 1175353, 1175954, 1176527, 1177146, 1177657, 1178215, 1178842]","[1165331, 1165931, 1166531, 1167131, 1167731, 1168331, 1168931, 1169531, 1170042, 1170581, 1171136, 1171730, 1172303, 1172928, 1173540, 1174116, 1174699, 1175291, 1175883, 1176448, 1177047, 1177586, 1178147, 1178802]",39,R,ITM,1.1,
6,600,trial,0,60,60,60,trial,"['S', 'S', 'S', 'S', 'C', 'C', 'C', 'C', 'C', 'C', 'C', 'C', 'C', 'C', 'C', 'C', 'C', 'C', 'C', 'C']","[1186574, 1187151, 1187764, 1188343, 1188942, 1189495, 1190057, 1190617, 1191186, 1191752, 1192338, 1192887, 1193495, 1194022, 1194606, 1195163, 1195736, 1207867, 1217968, 1218253]","[1186622, 1187220, 1187836, 1188416, 1189022, 1189573, 1190146, 1190703, 1191251, 1191836, 1192415, 1193001, 1193602, 1194140, 1194692, 1195275, 1195856, 1207917, 1217994, 1218301]","[1184218, 1184817, 1185416, 1186016, 1186616, 1187216, 1187816, 1188416, 1188969, 1189522, 1190084, 1190644, 1191213, 1191779, 1192366, 1192913, 1193523, 1194050, 1194633, 1195190, 1195762, 1207894, 1217994, 1218280]",39,R,ITM,1.1,
2,600,trial,0,61,61,61,trial,"['S', 'S', 'S', 'S', 'C', 'C', 'C', 'C', 'C', 'C', 'C', 'C', 'C', 'C', 'C', 'C', 'C', 'C', 'C', 'C']","[1226162, 1226727, 1227344, 1227902, 1228514, 1229092, 1229647, 1230205, 1230797, 1231387, 1231959, 1232512, 1233082, 1233612, 1234182, 1234767, 1235340, 1235897, 1236564, 1237019]","[1226248, 1226796, 1227397, 1227980, 1228601, 1229161, 1229726, 1230261, 1230862, 1231453, 1232019, 1232593, 1233156, 1233691, 1234250, 1234819, 1235428, 1235990, 1236659, 1237117]","[1223780, 1224380, 1224980, 1225579, 1226180, 1226780, 1227380, 1227980, 1228540, 1229120, 1229674, 1230233, 1230825, 1231414, 1231986, 1232538, 1233108, 1233640, 1234209, 1234794, 1235366, 1235923, 1236592, 1237047]",39,R,ITM,1.1,
2,400,trial,0,62,62,62,trial,"['S', 'S', 'S', 'S', 'C', 'C', 'C', 'C', 'C', 'C', 'C', 'C', 'C', 'C', 'C', 'C', 'C', 'C', 'C', 'C']","[1244150, 1244557, 1244953, 1245395, 1245776, 1246159, 1246577, 1246981, 1247363, 1247749, 1248162, 1248535, 1248968, 1249385, 1249809, 1250213, 1250616, 1250963, 1251384, 1251776]","[1244219, 1244609, 1245020, 1245419, 1245826, 1246201, 1246628, 1247030, 1247419, 1247812, 1248226, 1248623, 1249032, 1249485, 1249881, 1250288, 1250694, 1251082, 1251473, 1251901]","[1242619, 1243019, 1243419, 1243819, 1244218, 1244619, 1245020, 1245419, 1245804, 1246187, 1246604, 1247008, 1247390, 1247775, 1248190, 1248562, 1248995, 1249413, 1249837, 1250241, 1250642, 1250991, 1251411, 1251804]",39,R,ITM,1.1,
3,600,trial,0,63,63,63,trial,"['B', 'S', 'S', 'S', 'S', 'S', 'C', 'C', 'C', 'C', 'C', 'C', 'C', 'C', 'C', 'C', 'C', 'C', 'C', 'C', 'C', 'C']","[1257406, 1259701, 1260016, 1260443, 1260943, 1261547, 1262186, 1262716, 1263271, 1263809, 1264432, 1265005, 1265532, 1266095, 1266662, 1267239, 1267778, 1268376, 1268867, 1269448, 1270005, 1270575]","[1258017, 1259779, 1260036, 1260505, 1261030, 1261618, 1262247, 1262763, 1263332, 1263879, 1264477, 1265061, 1265612, 1266169, 1266723, 1267265, 1267869, 1268421, 1268967, 1269547, 1270080, 1270652]","[1257418, 1258017, 1258617, 1259217, 1259817, 1260418, 1261018, 1261618, 1262212, 1262742, 1263297, 1263835, 1264457, 1265031, 1265558, 1266120, 1266688, 1267265, 1267804, 1268402, 1268892, 1269474, 1270031, 1270600]",39,R,ITM,1.1,
4,600,trial,0,64,64,64,trial,"['S', 'S', 'S', 'S', 'C', 'C', 'C', 'C', 'C', 'C', 'C', 'C', 'C', 'C', 'C', 'C', 'C', 'C', 'C', 'C']","[1278724, 1279296, 1279904, 1280492, 1281102, 1281673, 1282279, 1282871, 1283985, 1284463, 1287349, 1287848, 1288364, 1288834, 1289317, 1289805, 1290306, 1290860, 1291353, 1291944]","[1278825, 1279381, 1279983, 1280576, 1281195, 1281761, 1282366, 1282974, 1284093, 1284552, 1287446, 1287922, 1288442, 1288906, 1289398, 1289878, 1290389, 1290962, 1291431, 1292018]","[1276378, 1276977, 1277576, 1278176, 1278776, 1279376, 1279976, 1280576, 1281128, 1281698, 1282306, 1282896, 1284011, 1284489, 1287374, 1287874, 1288389, 1288859, 1289342, 1289831, 1290332, 1290886, 1291378, 1291970]",39,R,ITM,1.1,
7,400,trial,0,65,65,65,trial,"['S', 'S', 'S', 'S', 'C', 'C', 'C', 'C', 'C', 'C', 'C', 'C', 'C', 'C', 'C', 'C', 'C', 'C', 'C', 'C']","[1298878, 1299290, 1299712, 1300131, 1300529, 1300912, 1301328, 1301711, 1302122, 1302533, 1302929, 1303334, 1303741, 1304045, 1304441, 1304836, 1305233, 1305667, 1306167, 1306449]","[1298945, 1299339, 1299791, 1300190, 1300595, 1300988, 1301403, 1301786, 1302178, 1302615, 1303035, 1303447, 1303838, 1304166, 1304756, 1304966, 1305317, 1305747, 1306253, 1306477]","[1297391, 1297790, 1298190, 1298590, 1298991, 1299390, 1299790, 1300190, 1300556, 1300939, 1301356, 1301739, 1302150, 1302559, 1302956, 1303362, 1303769, 1304072, 1304468, 1304862, 1305261, 1305695, 1306193, 1306476]",39,R,ITM,1.1,
4,400,trial,0,66,66,66,trial,"['S', 'S', 'S', 'S', 'S', 'S', 'C', 'C', 'C', 'C', 'C', 'C', 'C', 'C', 'C', 'C', 'C', 'C', 'C', 'C', 'C', 'C', 'C']","[1312662, 1313021, 1313418, 1313824, 1314266, 1314657, 1315037, 1315417, 1315843, 1316237, 1316608, 1316979, 1317363, 1317715, 1318234, 1318669, 1318925, 1319184, 1319456, 1321750, 1322106, 1322491, 1322873]","[1312743, 1313087, 1313499, 1313896, 1314338, 1314749, 1315140, 1315513, 1315944, 1316341, 1316707, 1317098, 1317462, 1317889, 1318589, 1318782, 1319027, 1319278, 1321465, 1321786, 1322155, 1322549, 1322950]","[1311912, 1312312, 1312712, 1313113, 1313512, 1313912, 1314312, 1314712, 1315063, 1315442, 1315868, 1316262, 1316634, 1317005, 1317389, 1317741, 1318259, 1318694, 1319209, 1319482, 1321776, 1322132, 1322517, 1322899]",39,R,ITM,1.1,
5,600,trial,0,67,67,67,trial,"['S', 'S', 'S', 'S', 'S', 'S', 'C', 'C', 'C', 'C', 'C', 'C', 'C', 'C', 'C', 'C', 'C', 'C', 'C', 'C', 'C', 'C', 'C']","[1329896, 1330320, 1330909, 1331424, 1332062, 1332684, 1333219, 1333804, 1334328, 1334877, 1335461, 1335981, 1336315, 1336749, 1336993, 1339492, 1340566, 1341043, 1341504, 1341968, 1342398, 1342856, 1343280]","[1329969, 1330396, 1330993, 1331503, 1332150, 1332747, 1333318, 1333829, 1334384, 1334970, 1335536, 1336075, 1336341, 1336875, 1339377, 1339735, 1340621, 1341135, 1341583, 1342027, 1342461, 1342901, 1343341]","[1328587, 1329187, 1329787, 1330387, 1330988, 1331588, 1332188, 1332787, 1333244, 1333829, 1334353, 1334902, 1335488, 1336006, 1336341, 1336774, 1339518, 1340592, 1341069, 1341530, 1341995, 1342424, 1342881, 1343305]",39,R,ITM,1.1,
6,400,trial,0,68,68,68,trial,"['S', 'S', 'S', 'S', 'S', 'S', 'C', 'C', 'C', 'C', 'C', 'C', 'C', 'C', 'C', 'C', 'C', 'C', 'C', 'C', 'C', 'C']","[1349679, 1350063, 1350436, 1350853, 1351291, 1351676, 1352069, 1352491, 1352899, 1353288, 1353659, 1354061, 1354480, 1354916, 1355356, 1355725, 1356129, 1356948, 1357660, 1358049, 1358436, 1358828]","[1349747, 1350122, 1350501, 1350929, 1351352, 1351743, 1352141, 1352569, 1352969, 1353374, 1353732, 1354124, 1354547, 1354972, 1355401, 1355819, 1356185, 1356994, 1357693, 1358092, 1358495, 1358892]","[1348944, 1349343, 1349743, 1350144, 1350543, 1350943, 1351344, 1351743, 1352096, 1352517, 1352927, 1353316, 1353686, 1354088, 1354507, 1354944, 1355382, 1355752, 1356155, 1356975, 1357687, 1358075, 1358464, 1358856]",39,R,ITM,1.1,
4,400,trial,0,69,69,69,trial,"['S', 'S', 'S', 'S', 'S', 'S', 'C', 'C', 'C', 'C', 'C', 'C', 'C', 'C', 'C', 'C', 'C', 'C', 'C', 'C', 'C', 'C']","[1365074, 1365458, 1365837, 1366286, 1366675, 1367073, 1367479, 1367871, 1368272, 1368680, 1369105, 1369486, 1369930, 1370356, 1370727, 1371202, 1371608, 1372094, 1372617, 1373058, 1373436, 1373881]","[1365142, 1365531, 1365911, 1366366, 1366751, 1367163, 1367554, 1367956, 1368343, 1368762, 1369184, 1369574, 1370023, 1370446, 1370823, 1371354, 1371979, 1372494, 1372678, 1373119, 1373533, 1373973]","[1364360, 1364760, 1365160, 1365560, 1365960, 1366361, 1366760, 1367160, 1367505, 1367897, 1368298, 1368706, 1369132, 1369511, 1369956, 1370382, 1370754, 1371228, 1371633, 1372121, 1372644, 1373083, 1373463, 1373906]",39,R,ITM,1.1,
3,400,trial,0,70,70,70,trial,"['S', 'S', 'S', 'S', 'S', 'S', 'C', 'C', 'C', 'C', 'C', 'C', 'C', 'C', 'C', 'C', 'C', 'C', 'C', 'C', 'C', 'C', 'C', 'C', 'C']","[1380040, 1380425, 1380813, 1381188, 1381764, 1382054, 1382482, 1383103, 1383468, 1383829, 1384239, 1384634, 1384739, 1386105, 1386397, 1386723, 1386828, 1386990, 1387117, 1387515, 1387898, 1389545, 1389928, 1390279, 1390648]","[1380109, 1380506, 1380927, 1381303, 1381793, 1382166, 1382539, 1383156, 1383545, 1383902, 1384364, 1384659, 1384759, 1386152, 1386423, 1386748, 1386910, 1387010, 1387269, 1387541, 1387924, 1389571, 1389955, 1390322, 1390673]","[1379326, 1379726, 1380126, 1380527, 1380926, 1381326, 1381726, 1382126, 1382508, 1383129, 1383493, 1383855, 1384264, 1384659, 1386131, 1386423, 1386748, 1387143, 1387541, 1387924, 1389571, 1389955, 1390305, 1390673]",39,R,ITM,1.1,
2,600,trial,0,71,71,71,trial,"['S', 'S', 'S', 'S', 'S', 'S', 'C', 'C', 'C', 'C', 'C', 'C', 'C', 'C', 'C', 'C', 'C', 'C', 'C', 'C', 'C', 'C']","[1397344, 1397909, 1398598, 1399177, 1399798, 1400399, 1400986, 1401569, 1402198, 1402770, 1403871, 1404343, 1404880, 1405425, 1434123, 1434522, 1434930, 1435302, 1435657, 1436052, 1436437, 1436781]","[1397416, 1398003, 1398672, 1399258, 1399914, 1400529, 1401069, 1401640, 1402258, 1402821, 1403940, 1404418, 1404975, 1405483, 1434167, 1434571, 1434988, 1435355, 1435723, 1436101, 1436477, 1436838]","[1396257, 1396856, 1397456, 1398056, 1398658, 1399258, 1399858, 1400457, 1401014, 1401596, 1402224, 1402797, 1403898, 1404369, 1404907, 1405452, 1434150, 1434550, 1434957, 1435330, 1435683, 1436079, 1436465, 1436808]",39,R,ITM,1.1,
7,600,trial,0,72,72,72,trial,"['S', 'S', 'S', 'S', 'S', 'S', 'C', 'C', 'C', 'C', 'C', 'C', 'C', 'C', 'C', 'C', 'C', 'C', 'C', 'C', 'C', 'C']","[1443673, 1444297, 1444875, 1445431, 1446080, 1446744, 1447308, 1447948, 1448501, 1449031, 1455599, 1456070, 1456520, 1456943, 1457376, 1457796, 1458231, 1467052, 1467375, 1467717, 1468035, 1468353]","[1443736, 1444376, 1444945, 1445528, 1446141, 1446805, 1447402, 1447999, 1448555, 1449080, 1455626, 1456098, 1456546, 1456999, 1457452, 1457875, 1458300, 1467112, 1467427, 1467780, 1468079, 1468390]","[1442576, 1443175, 1443775, 1444375, 1444975, 1445575, 1446175, 1446775, 1447334, 1447975, 1448528, 1449058, 1455626, 1456098, 1456546, 1456970, 1457402, 1457822, 1458257, 1467078, 1467402, 1467744, 1468061, 1468380]",39,R,ITM,1.1,
6,600,trial,0,73,73,73,trial,"['S', 'S', 'S', 'S', 'S', 'S', 'C', 'C', 'C', 'C', 'C', 'C', 'C', 'C', 'C', 'C', 'C', 'C', 'C', 'C', 'C', 'C']","[1475025, 1475566, 1476153, 1476786, 1477351, 1477934, 1478470, 1479046, 1479640, 1480208, 1480787, 1481432, 1487305, 1487776, 1488235, 1488660, 1489089, 1489554, 1489976, 1490421, 1490894, 1491853]","[1475103, 1475625, 1476242, 1476857, 1477431, 1478008, 1478564, 1479122, 1479730, 1480306, 1480869, 1486369, 1487377, 1487835, 1488301, 1488737, 1489160, 1489597, 1490034, 1490489, 1490921, 1491880]","[1473870, 1474470, 1475070, 1475671, 1476271, 1476871, 1477470, 1478070, 1478497, 1479072, 1479667, 1480236, 1480815, 1481459, 1487333, 1487803, 1488262, 1488687, 1489116, 1489581, 1490003, 1490448, 1490921, 1491880]",39,R,ITM,1.1,
7,600,trial,0,74,74,74,trial,"['S', 'S', 'S', 'S', 'S', 'S', 'S', 'C', 'C', 'C', 'C', 'C', 'C', 'C', 'C', 'C', 'C', 'C', 'C', 'C', 'C', 'C', 'C']","[1497779, 1498551, 1499075, 1499653, 1500299, 1500911, 1501392, 1502039, 1502610, 1503173, 1503719, 1504275, 1504781, 1505414, 1505968, 1506479, 1507019, 1507590, 1508103, 1508639, 1509181, 1509774, 1510291]","[1497809, 1498638, 1499161, 1499719, 1500359, 1500964, 1501443, 1502091, 1502682, 1503225, 1503777, 1504349, 1504850, 1505472, 1506030, 1506570, 1507085, 1507664, 1508157, 1508700, 1509256, 1509811, 1510337]","[1497423, 1498023, 1498624, 1499224, 1499824, 1500424, 1501024, 1501624, 1502066, 1502638, 1503200, 1503747, 1504302, 1504807, 1505441, 1505994, 1506506, 1507047, 1507617, 1508130, 1508667, 1509209, 1509800, 1510318]",39,R,ITM,1.1,
3,600,trial,0,75,75,75,trial,"['S', 'S', 'S', 'S', 'C', 'C', 'C', 'C', 'C', 'C', 'C', 'C', 'C', 'C', 'C', 'C', 'C', 'C', 'C', 'C', 'C', 'C', 'C', 'C']","[1517923, 1518566, 1519169, 1519744, 1520391, 1520925, 1521569, 1522101, 1522603, 1522711, 1523985, 1524180, 1525076, 1525694, 1527584, 1528105, 1528672, 1529236, 1529739, 1530259, 1530778, 1530950, 1531750, 1531858]","[1518030, 1518686, 1519287, 1519876, 1520449, 1521021, 1521601, 1522132, 1522630, 1522731, 1524054, 1524235, 1525488, 1525915, 1527681, 1528172, 1528734, 1529270, 1529833, 1530336, 1530870, 1531133, 1531777]","[1515657, 1516256, 1516856, 1517456, 1518056, 1518656, 1519256, 1519856, 1520416, 1520951, 1521595, 1522126, 1522628, 1524011, 1525102, 1525720, 1527610, 1528131, 1528697, 1529262, 1529764, 1530285, 1530804, 1531776]",39,R,ITM,1.1,
2,400,trial,0,76,76,76,trial,"['S', 'S', 'S', 'S', 'S', 'S', 'S', 'C', 'C', 'C', 'C', 'C', 'C', 'C', 'C', 'C', 'C', 'C', 'C', 'C', 'C', 'C', 'C']","[1537667, 1538004, 1538309, 1538735, 1539102, 1539473, 1539834, 1540245, 1540622, 1541026, 1541439, 1541834, 1542246, 1542641, 1543052, 1543456, 1543879, 1544285, 1544669, 1545092, 1545533, 1545943, 1546356]","[1537713, 1538040, 1538343, 1538764, 1539139, 1539526, 1539901, 1540297, 1540684, 1541098, 1541497, 1541901, 1542312, 1542708, 1543106, 1543535, 1543946, 1544359, 1544750, 1545189, 1545591, 1546030, 1546440]","[1537126, 1537526, 1537927, 1538326, 1538725, 1539125, 1539526, 1539927, 1540273, 1540648, 1541053, 1541467, 1541862, 1542274, 1542669, 1543078, 1543484, 1543907, 1544312, 1544696, 1545118, 1545561, 1545970, 1546384]",39,R,ITM,1.1,
6,400,trial,0,77,77,77,trial,"['S', 'S', 'S', 'S', 'C', 'C', 'C', 'C', 'C', 'C', 'C', 'C', 'C', 'C', 'C', 'C', 'C', 'C', 'C', 'C']","[1553434, 1553805, 1554190, 1554592, 1555009, 1555381, 1555788, 1556172, 1556547, 1556909, 1557311, 1557691, 1558071, 1558483, 1558883, 1559292, 1559573, 1559987, 1560409, 1560805]","[1553508, 1553891, 1554275, 1554674, 1555091, 1555468, 1555856, 1556237, 1556622, 1556976, 1557373, 1557770, 1558136, 1558539, 1558969, 1559374, 1559658, 1560064, 1560474, 1560872]","[1551865, 1552264, 1552664, 1553064, 1553464, 1553864, 1554265, 1554664, 1555036, 1555407, 1555815, 1556199, 1556575, 1556935, 1557338, 1557718, 1558097, 1558510, 1558909, 1559319, 1559600, 1560013, 1560436, 1560833]",39,R,ITM,1.1,
7,600,trial,0,78,78,78,trial,"['S', 'C', 'C', 'C', 'C', 'C', 'C', 'C', 'C', 'C', 'C', 'C', 'C', 'C', 'C', 'C', 'C']","[1570234, 1570757, 1571304, 1571818, 1572302, 1572878, 1573399, 1573893, 1574414, 1574942, 1575413, 1575957, 1577291, 1586931, 1587382, 1587816, 1588247]","[1570265, 1570821, 1571346, 1571881, 1572392, 1572937, 1573487, 1573991, 1574501, 1575028, 1575512, 1575985, 1577362, 1586966, 1587440, 1587851, 1588274]","[1566140, 1566739, 1567339, 1567939, 1568539, 1569139, 1569739, 1570339, 1570784, 1571331, 1571845, 1572330, 1572905, 1573427, 1573920, 1574440, 1574969, 1575441, 1575985, 1577318, 1586959, 1587409, 1587843, 1588274]",39,R,ITM,1.1,
5,600,trial,0,79,79,79,trial,"['S', 'S', 'S', 'S', 'S', 'S', 'C', 'C', 'C', 'C', 'C', 'C', 'C', 'C', 'C', 'C', 'C', 'C', 'C', 'C', 'C', 'C']","[1594769, 1595330, 1595935, 1596539, 1597107, 1597708, 1598287, 1598850, 1599439, 1600025, 1600559, 1601181, 1601727, 1602331, 1602925, 1603684, 1604212, 1604708, 1605235, 1605766, 1606277, 1606832]","[1594816, 1595378, 1595998, 1596595, 1597155, 1597786, 1598373, 1598916, 1599506, 1600110, 1600664, 1601247, 1601789, 1602377, 1602957, 1603781, 1604317, 1604802, 1605299, 1605875, 1606356, 1606889]","[1593611, 1594211, 1594811, 1595411, 1596011, 1596611, 1597211, 1597811, 1598313, 1598875, 1599466, 1600051, 1600584, 1601208, 1601753, 1602357, 1602951, 1603709, 1604238, 1604734, 1605261, 1605791, 1606302, 1606857]",39,R,ITM,1.1,
4,600,trial,0,80,80,80,trial,"['S', 'S', 'S', 'S', 'S', 'C', 'C', 'C', 'C', 'C', 'C', 'C', 'C', 'C', 'C', 'C', 'C', 'C', 'C', 'C', 'C']","[1613755, 1614376, 1614977, 1615631, 1616176, 1617347, 1617944, 1623544, 1624036, 1624535, 1625029, 1625506, 1626001, 1626486, 1626961, 1627481, 1627979, 1628495, 1628940, 1629455, 1634103]","[1613867, 1614449, 1615065, 1615686, 1616286, 1617406, 1618010, 1623625, 1624094, 1624576, 1625102, 1625569, 1626062, 1626556, 1627075, 1627558, 1628073, 1628580, 1629033, 1629508, 1634150]","[1612632, 1613231, 1613831, 1614431, 1615031, 1615631, 1616231, 1616831, 1617373, 1617970, 1623570, 1624061, 1624560, 1625055, 1625532, 1626027, 1626512, 1626987, 1627506, 1628005, 1628521, 1628965, 1629480, 1634129]",39,R,ITM,1.1,
6,600,trial,0,81,81,81,trial,"['S', 'S', 'S', 'S', 'S', 'S', 'C', 'C', 'C', 'C', 'C', 'C', 'C', 'C', 'C', 'C', 'C', 'C', 'C', 'C', 'C', 'C']","[1640843, 1641428, 1642004, 1642587, 1643165, 1643785, 1644369, 1644965, 1645531, 1646047, 1646624, 1647193, 1647756, 1648332, 1648891, 1649452, 1650002, 1650573, 1651103, 1652528, 1653030, 1653585]","[1640931, 1641516, 1642083, 1642661, 1643243, 1643872, 1644469, 1645036, 1645606, 1646144, 1646729, 1647263, 1647840, 1648410, 1648990, 1649531, 1650098, 1650675, 1652236, 1652591, 1653104, 1653661]","[1639716, 1640315, 1640915, 1641516, 1642116, 1642716, 1643315, 1643915, 1644396, 1644992, 1645557, 1646073, 1646652, 1647220, 1647783, 1648360, 1648918, 1649479, 1650029, 1650599, 1651131, 1652555, 1653057, 1653613]",39,R,ITM,1.1,
7,600,trial,0,82,82,82,trial,"['S', 'S', 'S', 'S', 'C', 'C', 'C', 'C', 'C', 'C', 'C', 'C', 'C', 'C', 'C', 'C', 'C', 'C', 'C', 'C']","[1660355, 1660904, 1661455, 1662150, 1667269, 1667715, 1668085, 1668431, 1668756, 1669171, 1669533, 1669894, 1670295, 1670689, 1671045, 1671399, 1671833, 1672258, 1672649, 1673082]","[1660449, 1660986, 1661586, 1666938, 1667346, 1667815, 1668168, 1668537, 1668890, 1669234, 1669587, 1669957, 1670351, 1670747, 1671101, 1671476, 1671896, 1672309, 1672714, 1673146]","[1659151, 1659750, 1660350, 1660950, 1661550, 1662150, 1662750, 1663350, 1667296, 1667741, 1668112, 1668459, 1668783, 1669197, 1669560, 1669921, 1670323, 1670716, 1671071, 1671426, 1671860, 1672286, 1672676, 1673110]",39,R,ITM,1.1,
2,600,trial,0,83,83,83,trial,"['S', 'S', 'S', 'S', 'C', 'C', 'C', 'C', 'C', 'C', 'C', 'C', 'C', 'C', 'C', 'C', 'C', 'C', 'C', 'C']","[1681125, 1681714, 1682302, 1682894, 1683491, 1684069, 1684638, 1685169, 1685735, 1686240, 1686789, 1687352, 1687884, 1688424, 1688972, 1689534, 1690072, 1690606, 1691134, 1691657]","[1681179, 1681779, 1682372, 1682962, 1683566, 1684149, 1684706, 1685250, 1685787, 1686318, 1686860, 1687393, 1687946, 1688495, 1689059, 1689610, 1690158, 1690693, 1691215, 1691746]","[1678826, 1679426, 1680026, 1680626, 1681226, 1681826, 1682426, 1683026, 1683519, 1684097, 1684665, 1685196, 1685762, 1686267, 1686816, 1687379, 1687912, 1688451, 1688999, 1689561, 1690098, 1690634, 1691162, 1691684]",39,R,ITM,1.1,
6,600,trial,0,84,84,84,trial,"['S', 'S', 'S', 'S', 'S', 'S', 'C', 'C', 'C', 'C', 'C', 'C', 'C', 'C', 'C', 'C', 'C', 'C', 'C', 'C', 'C', 'C']","[1698087, 1698665, 1699273, 1699867, 1700481, 1701154, 1701668, 1702223, 1704716, 1709667, 1710261, 1710767, 1711315, 1711851, 1712394, 1712920, 1713456, 1714021, 1714609, 1715056, 1715678, 1716001]","[1698166, 1698755, 1699363, 1699976, 1700601, 1701262, 1701832, 1702342, 1709587, 1709819, 1710353, 1710845, 1711392, 1711937, 1712558, 1713024, 1713718, 1714135, 1714635, 1715151, 1715755, 1716195]","[1696976, 1697575, 1698176, 1698776, 1699376, 1699976, 1700576, 1701176, 1701696, 1702250, 1704742, 1709693, 1710287, 1710794, 1711343, 1711878, 1712420, 1712947, 1713482, 1714048, 1714635, 1715083, 1715704, 1716029]",39,R,ITM,1.1,
2,400,trial,0,85,85,85,trial,"['S', 'S', 'S', 'S', 'S', 'S', 'C', 'C', 'C', 'C', 'C', 'C', 'C', 'C', 'C', 'C', 'C', 'C', 'C', 'C', 'C', 'C']","[1722292, 1722648, 1723038, 1723423, 1723851, 1724263, 1724654, 1725097, 1725475, 1725872, 1726236, 1726664, 1727070, 1727458, 1727865, 1728250, 1728635, 1729028, 1729451, 1729824, 1730213, 1730646]","[1722361, 1722716, 1723116, 1723507, 1723931, 1724324, 1724721, 1725143, 1725546, 1725926, 1726329, 1726735, 1727130, 1727544, 1727938, 1728329, 1728720, 1729126, 1729525, 1729929, 1730297, 1730736]","[1721491, 1721892, 1722292, 1722692, 1723092, 1723492, 1723892, 1724292, 1724681, 1725125, 1725503, 1725899, 1726263, 1726692, 1727096, 1727485, 1727893, 1728278, 1728663, 1729055, 1729478, 1729852, 1730241, 1730672]",39,R,ITM,1.1,
2,600,trial,0,86,86,86,trial,"['S', 'S', 'S', 'S', 'S', 'S', 'S', 'S', 'S', 'C', 'C', 'C', 'C', 'C', 'C', 'C', 'C', 'C', 'C', 'C', 'C', 'C', 'C', 'C', 'C']","[1736281, 1736937, 1737296, 1737852, 1738402, 1739027, 1739284, 1739702, 1740335, 1740817, 1743652, 1744129, 1744615, 1745050, 1745513, 1745957, 1746394, 1746864, 1747315, 1747761, 1748211, 1748619, 1749073, 1749511, 1749958]","[1736642, 1737000, 1737359, 1737934, 1738547, 1739179, 1739304, 1739764, 1740422, 1741949, 1743724, 1744199, 1744683, 1745111, 1745582, 1746018, 1746462, 1746926, 1747366, 1747820, 1748267, 1748718, 1749130, 1749564, 1750053]","[1736134, 1736734, 1737334, 1737933, 1738534, 1739133, 1739735, 1740334, 1740845, 1743679, 1744156, 1744642, 1745078, 1745541, 1745985, 1746421, 1746890, 1747343, 1747788, 1748239, 1748646, 1749101, 1749537, 1749986]",39,R,ITM,1.1,
5,400,trial,0,87,87,87,trial,"['S', 'S', 'S', 'S', 'S', 'S', 'C', 'C', 'C', 'C', 'C', 'C', 'C', 'C', 'C', 'C', 'C', 'C', 'C', 'C', 'C', 'C']","[1756191, 1756588, 1756986, 1757380, 1757782, 1758196, 1758605, 1759002, 1759394, 1759777, 1760180, 1760573, 1760972, 1761390, 1761842, 1762222, 1762589, 1763021, 1763398, 1763802, 1764144, 1764510]","[1756243, 1756655, 1757056, 1757461, 1757849, 1758275, 1758670, 1759070, 1759444, 1759834, 1760242, 1760658, 1761053, 1761480, 1761901, 1762286, 1762652, 1763094, 1763501, 1763879, 1764230, 1764603]","[1755443, 1755842, 1756242, 1756642, 1757042, 1757443, 1757842, 1758242, 1758631, 1759029, 1759421, 1759803, 1760205, 1760599, 1760998, 1761416, 1761867, 1762247, 1762615, 1763047, 1763425, 1763827, 1764169, 1764536]",39,R,ITM,1.1,
3,400,trial,0,88,88,88,trial,"['S', 'S', 'S', 'S', 'S', 'S', 'C', 'C', 'C', 'C', 'C', 'C', 'C', 'C', 'C', 'C', 'C', 'C', 'C', 'C', 'C', 'C', 'C']","[1770812, 1771208, 1771574, 1771976, 1772377, 1772792, 1773206, 1773597, 1773977, 1774368, 1774754, 1775144, 1775544, 1775909, 1776306, 1777055, 1777421, 1777778, 1778172, 1778430, 1779195, 1779548, 1779949]","[1770865, 1771280, 1771651, 1772047, 1772447, 1772872, 1773276, 1773677, 1774072, 1774455, 1774845, 1775235, 1775659, 1776033, 1776427, 1777144, 1777508, 1777881, 1778266, 1778961, 1779273, 1779610, 1780019]","[1770047, 1770447, 1770847, 1771247, 1771648, 1772047, 1772447, 1772848, 1773232, 1773623, 1774003, 1774394, 1774780, 1775170, 1775569, 1775935, 1776331, 1777081, 1777446, 1777804, 1778198, 1779221, 1779573, 1779975]",39,R,ITM,1.1,
4,600,trial,0,89,89,89,trial,"['S', 'S', 'S', 'C', 'C', 'C', 'C', 'C', 'C', 'C', 'C', 'C', 'C', 'C', 'C', 'C', 'C', 'C', 'C', 'C']","[1786483, 1786957, 1789625, 1790136, 1790685, 1791215, 1791752, 1792247, 1792710, 1794912, 1795359, 1795860, 1796334, 1796787, 1797477, 1797855, 1798372, 1798590, 1798690, 1799622]","[1786555, 1789415, 1789709, 1790210, 1790773, 1791285, 1791876, 1792494, 1794738, 1794998, 1795432, 1795991, 1796518, 1797082, 1797547, 1797975, 1798508, 1798610, 1799330]","[1785453, 1786052, 1786652, 1787252, 1787852, 1788452, 1789052, 1789652, 1790161, 1790710, 1791241, 1791777, 1792273, 1792736, 1794937, 1795385, 1795886, 1796360, 1796813, 1797502, 1797880, 1798397, 1798716, 1799649]",39,R,ITM,1.1,
2,400,trial,0,90,90,90,trial,"['S', 'S', 'S', 'S', 'S', 'S', 'C', 'C', 'C', 'C', 'C', 'C', 'C', 'C', 'C', 'C', 'C', 'C', 'C', 'C', 'C', 'C']","[1805796, 1806194, 1806574, 1806987, 1807396, 1807814, 1808221, 1808594, 1808993, 1809402, 1809807, 1810205, 1810639, 1811017, 1811423, 1811848, 1812250, 1812656, 1813051, 1813459, 1813889, 1814286]","[1805851, 1806245, 1806645, 1807057, 1807457, 1807888, 1808289, 1808653, 1809053, 1809463, 1809866, 1810268, 1810713, 1811111, 1811514, 1811927, 1812336, 1812722, 1813128, 1813543, 1813998, 1814393]","[1805038, 1805438, 1805838, 1806238, 1806639, 1807038, 1807438, 1807839, 1808248, 1808622, 1809019, 1809429, 1809833, 1810232, 1810666, 1811045, 1811449, 1811875, 1812277, 1812682, 1813078, 1813487, 1813915, 1814313]",39,R,ITM,1.1,
7,400,trial,0,91,91,91,trial,"['S', 'S', 'S', 'S', 'C', 'C', 'C', 'C', 'C', 'C', 'C', 'C', 'C', 'C', 'C', 'C', 'C', 'C', 'C', 'C']","[1821513, 1821875, 1822253, 1822627, 1823014, 1823410, 1823780, 1824165, 1824537, 1824924, 1825313, 1825699, 1826083, 1826459, 1826842, 1827223, 1827607, 1827982, 1828366, 1828734]","[1821554, 1821924, 1822292, 1822680, 1823072, 1823461, 1823855, 1824227, 1824601, 1824995, 1825367, 1825774, 1826167, 1826527, 1826913, 1827287, 1827684, 1828064, 1828443, 1828812]","[1819914, 1820313, 1820713, 1821113, 1821513, 1821914, 1822313, 1822713, 1823041, 1823436, 1823808, 1824193, 1824565, 1824951, 1825340, 1825726, 1826111, 1826486, 1826869, 1827250, 1827634, 1828009, 1828392, 1828762]",39,R,ITM,1.1,
6,400,trial,0,92,92,92,trial,"['S', 'S', 'S', 'S', 'S', 'S', 'C', 'C', 'C', 'C', 'C', 'C', 'C', 'C', 'C', 'C', 'C', 'C', 'C', 'C', 'C', 'C']","[1835121, 1835547, 1835928, 1836352, 1836742, 1837136, 1837516, 1837936, 1838320, 1838720, 1839128, 1839508, 1839928, 1840342, 1841133, 1841536, 1841935, 1842338, 1842728, 1843101, 1843481, 1849184]","[1835186, 1835616, 1836025, 1836421, 1836828, 1837216, 1837602, 1838000, 1838396, 1838811, 1839205, 1839605, 1840015, 1840439, 1841236, 1841630, 1842026, 1842365, 1842842, 1843266, 1847192, 1849259]","[1834418, 1834816, 1835216, 1835616, 1836016, 1836417, 1836816, 1837216, 1837543, 1837963, 1838347, 1838746, 1839156, 1839536, 1839954, 1840368, 1841161, 1841562, 1841961, 1842365, 1842755, 1843128, 1843508, 1849210]",39,R,ITM,1.1,
3,400,trial,0,93,93,93,trial,"['S', 'S', 'S', 'S', 'S', 'S', 'C', 'C', 'C', 'C', 'C', 'C', 'C', 'C', 'C', 'C', 'C', 'C', 'C', 'C', 'C', 'C']","[1855447, 1855818, 1856206, 1856585, 1856973, 1857395, 1857795, 1858190, 1858569, 1858949, 1859345, 1859755, 1860132, 1860520, 1860931, 1861339, 1861751, 1862129, 1862546, 1862966, 1863384, 1863752]","[1855520, 1855883, 1856278, 1856664, 1857060, 1857472, 1857884, 1858272, 1858643, 1859018, 1859434, 1859832, 1860218, 1860596, 1861024, 1861435, 1861829, 1862225, 1862657, 1863091, 1863469]","[1854673, 1855072, 1855472, 1855873, 1856272, 1856672, 1857073, 1857472, 1857820, 1858215, 1858594, 1858974, 1859371, 1859780, 1860158, 1860546, 1860957, 1861364, 1861777, 1862155, 1862572, 1862991, 1863409, 1863778]",39,R,ITM,1.1,
3,600,trial,0,94,94,94,trial,"['B', 'S', 'S', 'S', 'S', 'S', 'C', 'C', 'C', 'C', 'C', 'C', 'C', 'C', 'C', 'C', 'C', 'C', 'C', 'C', 'C', 'C']","[1869231, 1870936, 1871527, 1872093, 1872690, 1873291, 1873913, 1874448, 1874976, 1875505, 1876037, 1876564, 1877081, 1877619, 1878148, 1878639, 1879169, 1879724, 1880252, 1880773, 1881296, 1881856]","[1870793, 1871026, 1871605, 1872174, 1872761, 1873364, 1873998, 1874509, 1875039, 1875580, 1876143, 1876647, 1877174, 1877645, 1878221, 1878719, 1879249, 1879822, 1880346, 1880848, 1881379, 1881940]","[1869243, 1869843, 1870443, 1871043, 1871643, 1872243, 1872843, 1873443, 1873939, 1874473, 1875002, 1875530, 1876063, 1876590, 1877106, 1877645, 1878173, 1878665, 1879194, 1879749, 1880278, 1880799, 1881322, 1881881]",39,R,ITM,1.1,
3,600,trial,0,95,95,95,trial,"['S', 'S', 'S', 'S', 'S', 'S', 'C', 'C', 'C', 'C', 'C', 'C', 'C', 'C', 'C', 'C', 'C', 'C', 'C', 'C', 'C', 'C']","[1888719, 1889315, 1889903, 1890496, 1891103, 1891719, 1892328, 1892912, 1893495, 1894130, 1894660, 1895227, 1895797, 1896379, 1896927, 1897502, 1898462, 1899027, 1899585, 1900128, 1901178, 1901740]","[1888821, 1889414, 1890018, 1890592, 1891211, 1891827, 1892451, 1893025, 1893609, 1894246, 1894779, 1895312, 1895899, 1896489, 1897326, 1898249, 1898487, 1899053, 1899678, 1900238, 1901287, 1901826]","[1887587, 1888187, 1888787, 1889387, 1889987, 1890587, 1891187, 1891787, 1892355, 1892937, 1893521, 1894156, 1894685, 1895252, 1895823, 1896404, 1896952, 1897528, 1898487, 1899053, 1899611, 1900153, 1901204, 1901765]",39,R,ITM,1.1,
6,400,trial,0,96,96,96,trial,"['S', 'S', 'S', 'C', 'C', 'C', 'C', 'C', 'C', 'C', 'C', 'C', 'C', 'C', 'C', 'C', 'C', 'C', 'C']","[1908703, 1909106, 1909585, 1910345, 1910695, 1911005, 1911994, 1912409, 1912803, 1913196, 1913551, 1913920, 1914349, 1914736, 1917074, 1917431, 1917812, 1918192, 1918604]","[1908798, 1909191, 1909676, 1910434, 1910846, 1911845, 1912078, 1912495, 1912904, 1913279, 1913649, 1914033, 1914459, 1916987, 1917156, 1917510, 1917881, 1918275, 1918699]","[1907186, 1907586, 1907985, 1908385, 1908786, 1909185, 1909585, 1909985, 1910372, 1910723, 1911031, 1912022, 1912435, 1912830, 1913223, 1913578, 1913947, 1914376, 1914764, 1917102, 1917458, 1917840, 1918220, 1918631]",39,R,ITM,1.1,
7,400,trial,0,97,97,97,trial,"['S', 'S', 'S', 'S', 'S', 'S', 'C', 'C', 'C', 'C', 'C', 'C', 'C', 'C', 'C', 'C', 'C', 'C', 'C', 'C', 'C', 'C']","[1925079, 1925462, 1925863, 1926241, 1926637, 1927060, 1927451, 1927818, 1928208, 1928617, 1928996, 1929363, 1929753, 1930149, 1930537, 1930935, 1931326, 1931692, 1932101, 1932525, 1932922, 1933282]","[1925147, 1925528, 1925925, 1926310, 1926695, 1927129, 1927527, 1927892, 1928291, 1928686, 1929071, 1929449, 1929843, 1930226, 1930618, 1930999, 1931405, 1931774, 1932178, 1932597, 1932990, 1933359]","[1924325, 1924724, 1925125, 1925524, 1925924, 1926324, 1926724, 1927124, 1927478, 1927845, 1928235, 1928644, 1929024, 1929391, 1929781, 1930177, 1930564, 1930962, 1931353, 1931719, 1932129, 1932552, 1932950, 1933309]",39,R,ITM,1.1,
5,400,trial,0,98,98,98,trial,"['S', 'S', 'S', 'S', 'S', 'S', 'C', 'C', 'C', 'C', 'C', 'C', 'C', 'C', 'C', 'C', 'C', 'C', 'C', 'C', 'C', 'C']","[1939614, 1940005, 1940396, 1940806, 1941197, 1941591, 1941998, 1942354, 1942724, 1943001, 1943300, 1953870, 1954191, 1954522, 1954869, 1955205, 1955529, 1955855, 1956199, 1956535, 1956873, 1957208]","[1939670, 1940070, 1940486, 1940873, 1941274, 1941678, 1942087, 1942492, 1942851, 1943121, 1952422, 1953938, 1954256, 1954594, 1954939, 1955263, 1955597, 1955918, 1956260, 1956594, 1956937, 1957275]","[1938869, 1939269, 1939670, 1940069, 1940469, 1940870, 1941269, 1941669, 1942024, 1942380, 1942750, 1943026, 1943325, 1953896, 1954216, 1954547, 1954894, 1955230, 1955555, 1955880, 1956225, 1956560, 1956898, 1957233]",39,R,ITM,1.1,
4,400,trial,0,99,99,99,trial,"['S', 'S', 'S', 'S', 'S', 'S', 'C', 'C', 'C', 'C', 'C', 'C', 'C', 'C', 'C', 'C', 'C', 'C', 'C', 'C', 'C', 'C']","[1963357, 1963747, 1964132, 1964522, 1964941, 1965363, 1965770, 1966154, 1966545, 1966982, 1967367, 1967756, 1968120, 1968504, 1968903, 1969294, 1969615, 1970632, 1971008, 1971371, 1971752, 1972124]","[1963422, 1963809, 1964192, 1964596, 1965014, 1965424, 1965843, 1966236, 1966609, 1967015, 1967419, 1967832, 1968210, 1968615, 1969009, 1969394, 1970414, 1970714, 1971069, 1971458, 1971832, 1972187]","[1962624, 1963022, 1963422, 1963823, 1964222, 1964622, 1965022, 1965422, 1965796, 1966180, 1966571, 1967007, 1967392, 1967781, 1968146, 1968530, 1968928, 1969319, 1969641, 1970658, 1971034, 1971396, 1971778, 1972150]",39,R,ITM,1.1,
4,400,trial,0,100,100,100,trial,"['B', 'S', 'S', 'S', 'S', 'S', 'S', 'S', 'C', 'C', 'C', 'C', 'C', 'C', 'C', 'C', 'C', 'C', 'C', 'C', 'C', 'C', 'C', 'C']","[1977490, 1977932, 1978253, 1978639, 1978999, 1979423, 1979764, 1980236, 1980891, 1983308, 1983654, 1984005, 1984359, 1984764, 1985150, 1985489, 1985850, 1986222, 1986580, 1986947, 1987336, 1987698, 1988069, 1988428]","[1977814, 1978008, 1978319, 1978724, 1979068, 1979520, 1980100, 1980301, 1983151, 1983388, 1983712, 1984075, 1984425, 1984790, 1985199, 1985538, 1985907, 1986254, 1986643, 1986994, 1987383, 1987741, 1988130, 1988482]","[1977502, 1977902, 1978301, 1978701, 1979101, 1979501, 1979901, 1980301, 1980917, 1983334, 1983680, 1984030, 1984385, 1984790, 1985177, 1985515, 1985875, 1986247, 1986607, 1986972, 1987361, 1987725, 1988094, 1988454]",39,R,ITM,1.1,
5,600,trial,0,101,101,101,trial,"['S', 'S', 'S', 'S', 'S', 'S', 'C', 'C', 'C', 'C', 'C', 'C', 'C', 'C', 'C', 'C', 'C', 'C', 'C', 'C', 'C', 'C']","[1995326, 1995907, 1996507, 1997075, 1997664, 1998265, 1998894, 1999457, 2000041, 2000594, 2001187, 2001758, 2002319, 2002718, 2003935, 2004384, 2004880, 2005367, 2005846, 2006324, 2006847, 2007250]","[1995415, 1995988, 1996596, 1997168, 1997758, 1998366, 1998980, 1999535, 2000124, 2000715, 2001437, 2002010, 2002536, 2003392, 2004011, 2004464, 2004956, 2005467, 2005958, 2006440, 2006955]","[1994214, 1994813, 1995413, 1996013, 1996613, 1997213, 1997813, 1998413, 1998919, 1999482, 2000067, 2000620, 2001213, 2001783, 2002344, 2002744, 2003960, 2004410, 2004907, 2005393, 2005872, 2006349, 2006873, 2007276]",39,R,ITM,1.1,
5,600,trial,0,102,102,102,trial,"['S', 'S', 'S', 'S', 'S', 'S', 'C', 'C', 'C', 'C', 'C', 'C', 'C', 'C', 'C', 'C', 'C', 'C', 'C', 'C', 'C', 'C', 'C']","[2013883, 2014469, 2015035, 2015662, 2016236, 2016842, 2017488, 2018039, 2018570, 2019148, 2019686, 2020251, 2020801, 2021344, 2021997, 2022795, 2023956, 2024205, 2024588, 2025151, 2028431, 2028917, 2029432]","[2013952, 2014537, 2015111, 2015737, 2016308, 2016905, 2017559, 2018142, 2018659, 2019234, 2019814, 2020344, 2020897, 2021476, 2022078, 2023804, 2024019, 2024225, 2024614, 2028140, 2028498, 2029005, 2029542]","[2012737, 2013337, 2013937, 2014537, 2015137, 2015737, 2016337, 2016937, 2017514, 2018065, 2018595, 2019174, 2019712, 2020278, 2020827, 2021370, 2022023, 2022820, 2023983, 2024614, 2025177, 2028457, 2028943, 2029458]",39,R,ITM,1.1,
2,400,trial,0,103,103,103,trial,"['S', 'S', 'S', 'S', 'C', 'C', 'C', 'C', 'C', 'C', 'C', 'C', 'C', 'C', 'C', 'C', 'C', 'C', 'C', 'C']","[2036670, 2037060, 2037450, 2037850, 2038255, 2038640, 2039016, 2039416, 2039806, 2040175, 2040563, 2040956, 2041344, 2041733, 2042127, 2042541, 2042930, 2043332, 2043748, 2044147]","[2036728, 2037124, 2037514, 2037927, 2038337, 2038719, 2039093, 2039491, 2039879, 2040251, 2040631, 2041028, 2041408, 2041808, 2042213, 2042608, 2043008, 2043384, 2043839, 2044225]","[2035111, 2035510, 2035911, 2036312, 2036711, 2037111, 2037512, 2037911, 2038283, 2038668, 2039044, 2039444, 2039834, 2040202, 2040591, 2040983, 2041371, 2041760, 2042155, 2042568, 2042956, 2043360, 2043774, 2044175]",39,R,ITM,1.1,
3,600,trial,0,104,104,104,trial,"['S', 'S', 'S', 'S', 'S', 'S', 'C', 'C', 'C', 'C', 'C', 'C', 'C', 'C', 'C', 'C', 'C', 'C', 'C', 'C', 'C', 'C', 'C']","[2050769, 2051366, 2051981, 2052594, 2053178, 2053798, 2054384, 2054935, 2055556, 2056072, 2056659, 2057057, 2057316, 2057820, 2058873, 2059365, 2059867, 2060418, 2060900, 2061389, 2061876, 2062368, 2062867]","[2050861, 2051466, 2052058, 2052688, 2053274, 2053883, 2054477, 2055038, 2055661, 2056184, 2056753, 2057236, 2057400, 2057913, 2058968, 2059450, 2059949, 2060482, 2060968, 2061455, 2061962, 2062453, 2062949]","[2049630, 2050229, 2050829, 2051429, 2052029, 2052629, 2053229, 2053829, 2054410, 2054961, 2055581, 2056097, 2056685, 2057082, 2057845, 2058899, 2059390, 2059892, 2060443, 2060925, 2061415, 2061901, 2062394, 2062893]",39,R,ITM,1.1,
4,400,trial,0,105,105,105,trial,"['S', 'S', 'S', 'S', 'S', 'S', 'C', 'C', 'C', 'C', 'C', 'C', 'C', 'C', 'C', 'C', 'C', 'C', 'C', 'C', 'C', 'C', 'C']","[2069048, 2069434, 2069816, 2070206, 2070604, 2070989, 2071425, 2071803, 2072166, 2072579, 2072984, 2073373, 2073776, 2074193, 2074753, 2075064, 2075511, 2075895, 2076342, 2076828, 2077694, 2077837, 2078114]","[2069118, 2069514, 2069911, 2070311, 2070684, 2071061, 2071516, 2071888, 2072254, 2072667, 2073059, 2073476, 2073884, 2074301, 2074797, 2075163, 2075616, 2076016, 2076470, 2077539, 2077757, 2077898, 2078213]","[2068311, 2068710, 2069110, 2069511, 2069911, 2070311, 2070711, 2071111, 2071450, 2071829, 2072192, 2072604, 2073010, 2073399, 2073802, 2074219, 2074778, 2075089, 2075537, 2075921, 2076367, 2076854, 2077720, 2078140]",39,R,ITM,1.1,
2,400,trial,0,106,106,106,trial,"['S', 'S', 'S', 'S', 'S', 'S', 'S', 'C', 'C', 'C', 'C', 'C', 'C', 'C', 'C', 'C', 'C', 'C', 'C', 'C', 'C', 'C', 'C', 'C']","[2083905, 2084269, 2084646, 2085054, 2085482, 2085897, 2086218, 2086699, 2089405, 2089728, 2090095, 2090452, 2090799, 2091165, 2091543, 2091915, 2092320, 2092680, 2092908, 2093077, 2093494, 2093899, 2098227, 2099908]","[2083997, 2084347, 2084728, 2085161, 2085586, 2085962, 2086401, 2089252, 2089478, 2089782, 2090155, 2090523, 2090873, 2091237, 2091641, 2092002, 2092397, 2092828, 2092952, 2093182, 2093601, 2098147, 2099764, 2099979]","[2083560, 2083960, 2084361, 2084761, 2085161, 2085561, 2085961, 2086362, 2086726, 2089433, 2089755, 2090123, 2090480, 2090825, 2091192, 2091571, 2091942, 2092347, 2092706, 2093104, 2093520, 2093926, 2098253, 2099935]",39,R,ITM,1.1,
4,400,trial,0,107,107,107,trial,"['S', 'S', 'S', 'S', 'S', 'C', 'C', 'C', 'C', 'C', 'C', 'C', 'C', 'C', 'C', 'C', 'C', 'C', 'C', 'C', 'C']","[2105795, 2107111, 2107494, 2107859, 2108275, 2108654, 2109060, 2109445, 2109793, 2110168, 2110596, 2110896, 2111302, 2111688, 2112104, 2112502, 2112794, 2113208, 2114690, 2115033, 2115449]","[2105899, 2107175, 2107552, 2107926, 2108328, 2108728, 2109142, 2109503, 2109901, 2110253, 2110704, 2111015, 2111345, 2111785, 2112217, 2112612, 2113036, 2113988, 2114764, 2115106, 2115527]","[2105588, 2105988, 2106387, 2106787, 2107187, 2107587, 2107987, 2108387, 2108681, 2109085, 2109471, 2109818, 2110194, 2110622, 2110921, 2111328, 2111714, 2112131, 2112528, 2112820, 2113233, 2114716, 2115058, 2115475]",39,R,ITM,1.1,
7,600,trial,0,108,108,108,trial,"['S', 'S', 'S', 'S', 'S', 'S', 'C', 'C', 'C', 'C', 'C', 'C', 'C', 'C', 'C', 'C', 'C', 'C', 'C', 'C', 'C', 'C']","[2122011, 2122624, 2123213, 2123772, 2124357, 2124953, 2125542, 2126067, 2126596, 2127116, 2127651, 2128180, 2128717, 2129221, 2129756, 2130285, 2130817, 2131332, 2131860, 2132383, 2132938, 2133470]","[2122074, 2122681, 2123292, 2123848, 2124435, 2125031, 2125624, 2126144, 2126672, 2127181, 2127704, 2128262, 2128800, 2129306, 2129824, 2130360, 2130881, 2131430, 2131941, 2132475, 2133004, 2133562]","[2120907, 2121506, 2122106, 2122706, 2123307, 2123907, 2124507, 2125107, 2125570, 2126094, 2126622, 2127142, 2127678, 2128207, 2128745, 2129249, 2129782, 2130312, 2130843, 2131359, 2131887, 2132410, 2132965, 2133496]",39,R,ITM,1.1,
7,400,trial,0,109,109,109,trial,"['S', 'S', 'S', 'S', 'S', 'S', 'S', 'C', 'C', 'C', 'C', 'C', 'C', 'C', 'C', 'C', 'C', 'C', 'C', 'C', 'C', 'C', 'C']","[2139286, 2139675, 2140224, 2140587, 2140998, 2141379, 2141792, 2142197, 2142582, 2142982, 2143367, 2143782, 2144175, 2144580, 2144958, 2145327, 2145696, 2146095, 2146364, 2146791, 2147174, 2147552, 2147932]","[2139340, 2139695, 2140292, 2140656, 2141051, 2141451, 2141860, 2142261, 2142650, 2143062, 2143447, 2143885, 2144274, 2144660, 2145038, 2145409, 2145788, 2146191, 2146520, 2146866, 2147232, 2147603, 2148005]","[2139092, 2139491, 2139891, 2140292, 2140691, 2141091, 2141491, 2141891, 2142224, 2142610, 2143009, 2143393, 2143809, 2144202, 2144608, 2144985, 2145353, 2145724, 2146122, 2146391, 2146818, 2147202, 2147578, 2147958]",39,R,ITM,1.1,
6,600,trial,0,110,110,110,trial,"['S', 'S', 'S', 'S', 'S', 'S', 'C', 'C', 'C', 'C', 'C', 'C', 'C', 'C', 'C', 'C', 'C', 'C', 'C', 'C', 'C', 'C']","[2154475, 2155077, 2155695, 2156295, 2156864, 2157453, 2158040, 2158598, 2159138, 2159659, 2160207, 2160757, 2161304, 2161821, 2162358, 2162889, 2163437, 2163964, 2164482, 2164987, 2165477, 2171737]","[2154562, 2155154, 2155777, 2156386, 2156933, 2157526, 2158128, 2158676, 2159224, 2159736, 2160274, 2160841, 2161390, 2161903, 2162439, 2162987, 2163512, 2164057, 2164619, 2165216, 2168127, 2171801]","[2153377, 2153976, 2154576, 2155176, 2155777, 2156377, 2156977, 2157576, 2158067, 2158625, 2159165, 2159686, 2160234, 2160785, 2161331, 2161848, 2162384, 2162916, 2163464, 2163991, 2164509, 2165014, 2165504, 2171763]",39,R,ITM,1.1,
7,600,trial,0,111,111,111,trial,"['S', 'S', 'S', 'S', 'S', 'S', 'C', 'C', 'C', 'C', 'C', 'C', 'C', 'C', 'C', 'C', 'C', 'C', 'C', 'C', 'C', 'C']","[2178640, 2179026, 2179584, 2180171, 2180779, 2181357, 2181966, 2182514, 2183059, 2183617, 2184158, 2184680, 2185226, 2185758, 2186302, 2186871, 2187423, 2187975, 2188500, 2189050, 2189617, 2190159]","[2178716, 2179098, 2179670, 2180245, 2180851, 2181441, 2182067, 2182595, 2183138, 2183703, 2184245, 2184749, 2185323, 2185840, 2186378, 2186946, 2187514, 2188038, 2188580, 2189121, 2189712, 2190264]","[2177281, 2177880, 2178480, 2179080, 2179680, 2180280, 2180880, 2181480, 2181993, 2182541, 2183087, 2183644, 2184184, 2184708, 2185252, 2185786, 2186330, 2186899, 2187451, 2188002, 2188527, 2189077, 2189644, 2190187]",39,R,ITM,1.1,
5,600,trial,0,112,112,112,trial,"['S', 'S', 'S', 'S', 'S', 'S', 'S', 'C', 'C', 'C', 'C', 'C', 'C', 'C', 'C', 'C', 'C', 'C', 'C', 'C', 'C', 'C', 'C', 'C']","[2196101, 2196459, 2196940, 2197171, 2197540, 2198140, 2199544, 2200462, 2200927, 2201441, 2201579, 2202446, 2203439, 2204247, 2204728, 2205182, 2205671, 2206091, 2206571, 2207023, 2207449, 2207885, 2208340, 2208802]","[2196165, 2196541, 2197062, 2197219, 2198054, 2199417, 2200291, 2200537, 2201070, 2201499, 2202253, 2203293, 2204061, 2204318, 2204789, 2205267, 2205730, 2206170, 2206638, 2207096, 2207534, 2207970, 2208412, 2208834]","[2195741, 2196340, 2196940, 2197540, 2198140, 2198740, 2199341, 2199941, 2200487, 2200953, 2201466, 2202472, 2203464, 2204272, 2204753, 2205209, 2205697, 2206117, 2206597, 2207049, 2207474, 2207911, 2208367, 2208828]",39,R,ITM,1.1,
5,400,trial,0,113,113,113,trial,"['S', 'S', 'S', 'S', 'S', 'S', 'C', 'C', 'C', 'C', 'C', 'C', 'C', 'C', 'C', 'C', 'C', 'C', 'C', 'C', 'C', 'C']","[2215115, 2215493, 2215903, 2216327, 2216738, 2217123, 2217529, 2217906, 2218297, 2218694, 2219068, 2219464, 2219877, 2220262, 2220657, 2221073, 2221465, 2221880, 2222265, 2222678, 2223066, 2223429]","[2215171, 2215553, 2215956, 2216392, 2216799, 2217207, 2217592, 2217979, 2218358, 2218753, 2219133, 2219533, 2219920, 2220325, 2220737, 2221144, 2221533, 2221959, 2222340, 2222758, 2223134, 2223531]","[2214389, 2214790, 2215189, 2215589, 2215989, 2216389, 2216790, 2217189, 2217554, 2217931, 2218322, 2218720, 2219095, 2219490, 2219904, 2220288, 2220684, 2221099, 2221491, 2221905, 2222291, 2222703, 2223091, 2223455]",39,R,ITM,1.1,
6,400,trial,0,114,114,114,trial,"['S', 'S', 'S', 'S', 'S', 'S', 'C', 'C', 'C', 'C', 'C', 'C', 'C', 'C', 'C', 'C', 'C', 'C', 'C', 'C', 'C', 'C']","[2229536, 2229933, 2230322, 2230714, 2231131, 2231540, 2231930, 2232303, 2232699, 2233084, 2233450, 2233831, 2234207, 2234545, 2236104, 2236442, 2236796, 2237166, 2237587, 2238019, 2238457, 2238951]","[2229610, 2230004, 2230392, 2230795, 2231200, 2231610, 2232012, 2232382, 2232786, 2233189, 2233566, 2233999, 2234342, 2235869, 2236180, 2236512, 2236860, 2237244, 2237664, 2238086, 2238532, 2239026]","[2228781, 2229179, 2229579, 2229980, 2230379, 2230779, 2231179, 2231579, 2231957, 2232331, 2232726, 2233112, 2233477, 2233859, 2234233, 2234571, 2236131, 2236469, 2236823, 2237193, 2237614, 2238047, 2238485, 2238978]",39,R,ITM,1.1,
2,600,trial,0,115,115,115,trial,"['S', 'S', 'S', 'S', 'S', 'S', 'C', 'C', 'C', 'C', 'C', 'C', 'C', 'C', 'C', 'C', 'C', 'C', 'C', 'C', 'C', 'C']","[2245836, 2246425, 2247005, 2247588, 2248182, 2248796, 2249398, 2249984, 2250539, 2251132, 2251747, 2252344, 2252968, 2253491, 2253978, 2254593, 2255190, 2255778, 2256897, 2257434, 2257941, 2258434]","[2245934, 2246510, 2247096, 2247688, 2248249, 2248870, 2249482, 2250066, 2250632, 2251215, 2251819, 2252446, 2253033, 2253572, 2254284, 2254663, 2255234, 2256615, 2256968, 2257488, 2258009, 2258496]","[2244710, 2245310, 2245910, 2246509, 2247110, 2247710, 2248310, 2248910, 2249425, 2250010, 2250565, 2251160, 2251774, 2252370, 2252995, 2253518, 2254005, 2254619, 2255217, 2255806, 2256923, 2257462, 2257968, 2258461]",39,R,ITM,1.1,
4,600,trial,0,116,116,116,trial,"['S', 'S', 'S', 'S', 'S', 'S', 'C', 'C', 'C', 'C', 'C', 'C', 'C', 'C', 'C', 'C', 'C', 'C', 'C', 'C', 'C', 'C', 'C']","[2265238, 2265874, 2266448, 2267054, 2267622, 2268258, 2268858, 2269416, 2270012, 2270417, 2270535, 2271131, 2271663, 2272234, 2272821, 2274368, 2275267, 2275805, 2276318, 2276805, 2277356, 2280900, 2281357]","[2265337, 2265963, 2266530, 2267129, 2267714, 2268344, 2268945, 2269521, 2270073, 2270455, 2270578, 2271175, 2271740, 2272273, 2272860, 2274481, 2275316, 2275849, 2276349, 2276831, 2277383, 2280926, 2281390]","[2264124, 2264724, 2265324, 2265924, 2266524, 2267124, 2267724, 2268324, 2268883, 2269442, 2270038, 2270443, 2271157, 2271688, 2272260, 2272846, 2274394, 2275293, 2275830, 2276343, 2276831, 2277383, 2280926, 2281382]",39,R,ITM,1.1,
5,400,trial,0,117,117,117,trial,"['S', 'S', 'S', 'S', 'C', 'C', 'C', 'C', 'C', 'C', 'C', 'C', 'C', 'C', 'C', 'C', 'C', 'C', 'C', 'C']","[2288228, 2289069, 2289369, 2289674, 2290070, 2290441, 2290823, 2291200, 2291600, 2291984, 2292366, 2292765, 2293175, 2293566, 2293972, 2294333, 2294749, 2295156, 2295569, 2295889]","[2288813, 2289133, 2289399, 2289697, 2290096, 2290466, 2290848, 2291226, 2291629, 2292024, 2292400, 2292804, 2293216, 2293607, 2294005, 2294384, 2294781, 2295199, 2295604, 2295944]","[2286912, 2287311, 2287711, 2288111, 2288512, 2288911, 2289311, 2289712, 2290096, 2290466, 2290848, 2291225, 2291625, 2292011, 2292391, 2292791, 2293200, 2293592, 2293999, 2294359, 2294774, 2295182, 2295595, 2295916]",39,R,ITM,1.1,
4,600,trial,0,118,118,118,trial,"['S', 'S', 'S', 'S', 'S', 'S', 'S', 'S', 'C', 'C', 'C', 'C', 'C', 'C', 'C', 'C', 'C', 'C', 'C', 'C', 'C', 'C', 'C', 'C']","[2301674, 2302152, 2302642, 2303305, 2303938, 2304537, 2305141, 2305756, 2306309, 2306869, 2307418, 2307971, 2308547, 2309104, 2309657, 2310214, 2310782, 2311280, 2311812, 2312345, 2312891, 2316056, 2316561, 2317115]","[2301827, 2302172, 2302701, 2303341, 2303998, 2304600, 2305196, 2305811, 2306356, 2306908, 2307463, 2308017, 2308577, 2309144, 2309693, 2310249, 2310808, 2311308, 2311849, 2312375, 2312918, 2316112, 2316620, 2317179]","[2301651, 2302252, 2302852, 2303452, 2304051, 2304651, 2305251, 2305851, 2306334, 2306895, 2307443, 2307996, 2308573, 2309130, 2309683, 2310240, 2310808, 2311306, 2311837, 2312371, 2312918, 2316082, 2316587, 2317140]",39,R,ITM,1.1,
3,600,trial,0,119,119,119,trial,"['S', 'S', 'S', 'S', 'S', 'S', 'C', 'C', 'C', 'C', 'C', 'C', 'C', 'C', 'C', 'C', 'C', 'C', 'C', 'C', 'C', 'C']","[2323838, 2324403, 2325002, 2325599, 2326192, 2326799, 2327392, 2327968, 2328523, 2329085, 2329655, 2330235, 2330790, 2331357, 2331916, 2332475, 2333051, 2333587, 2334142, 2334681, 2335251, 2335815]","[2323916, 2324496, 2325083, 2325691, 2326261, 2326877, 2327459, 2328020, 2328598, 2329159, 2329728, 2330288, 2330887, 2331441, 2331996, 2332546, 2333110, 2333672, 2334233, 2334764, 2335328, 2335844]","[2322713, 2323313, 2323913, 2324513, 2325113, 2325713, 2326313, 2326914, 2327417, 2327994, 2328549, 2329111, 2329680, 2330261, 2330816, 2331382, 2331941, 2332500, 2333077, 2333613, 2334169, 2334706, 2335277, 2335841]",39,R,ITM,1.1,
7,400,trial,0,120,120,120,trial,"['S', 'S', 'S', 'S', 'C', 'C', 'C', 'C', 'C', 'C', 'C', 'C', 'C', 'C', 'C', 'C', 'C', 'C', 'C', 'C']","[2342792, 2343200, 2343606, 2344052, 2344458, 2344830, 2345249, 2345710, 2346052, 2350412, 2350793, 2351145, 2351488, 2351866, 2352233, 2352582, 2352959, 2353344, 2353750, 2354198]","[2342867, 2343274, 2343682, 2344145, 2344524, 2344916, 2345352, 2345738, 2350219, 2350483, 2350856, 2351211, 2351557, 2351921, 2352289, 2352636, 2353012, 2353398, 2353803, 2354226]","[2341251, 2341649, 2342049, 2342450, 2342849, 2343249, 2343649, 2344049, 2344485, 2344858, 2345276, 2345738, 2346080, 2350440, 2350821, 2351172, 2351514, 2351893, 2352260, 2352609, 2352987, 2353372, 2353777, 2354225]",39,R,ITM,1.1,
3,400,trial,0,121,121,121,trial,"['S', 'S', 'S', 'S', 'S', 'S', 'C', 'C', 'C', 'C', 'C', 'C', 'C', 'C', 'C', 'C', 'C', 'C', 'C', 'C', 'C', 'C']","[2360402, 2360772, 2361168, 2361553, 2361974, 2362364, 2362761, 2363177, 2363568, 2363942, 2364324, 2364731, 2365104, 2365452, 2365857, 2366242, 2366660, 2367028, 2367409, 2367790, 2368193, 2368584]","[2360450, 2360832, 2361223, 2361620, 2362044, 2362443, 2362834, 2363240, 2363638, 2364015, 2364409, 2364784, 2365189, 2365542, 2365925, 2366330, 2366722, 2367108, 2367491, 2367867, 2368271, 2368678]","[2359645, 2360043, 2360443, 2360843, 2361243, 2361644, 2362043, 2362443, 2362786, 2363203, 2363593, 2363968, 2364350, 2364756, 2365129, 2365477, 2365883, 2366268, 2366686, 2367053, 2367434, 2367815, 2368219, 2368610]",39,R,ITM,1.1,
2,600,trial,0,122,122,122,trial,"['S', 'S', 'S', 'S', 'S', 'S', 'S', 'C', 'C', 'C', 'C', 'C', 'C', 'C', 'C', 'C', 'C', 'C', 'C', 'C', 'C', 'C', 'C']","[2374631, 2375110, 2375709, 2376320, 2376909, 2377469, 2378083, 2378685, 2379258, 2379796, 2380332, 2380851, 2381414, 2381928, 2382471, 2383000, 2383578, 2384140, 2384697, 2385213, 2385752, 2386265, 2386794]","[2374723, 2375184, 2375796, 2376413, 2376992, 2377545, 2378133, 2378752, 2379325, 2379859, 2380379, 2380914, 2381460, 2382010, 2382529, 2383070, 2383631, 2384379, 2384759, 2385277, 2385796, 2386370, 2386907]","[2374026, 2374626, 2375226, 2375825, 2376426, 2377026, 2377626, 2378226, 2378713, 2379285, 2379824, 2380359, 2380878, 2381441, 2381956, 2382497, 2383028, 2383605, 2384167, 2384724, 2385241, 2385779, 2386291, 2386822]",39,R,ITM,1.1,
3,400,trial,0,123,123,123,trial,"['S', 'S', 'S', 'S', 'C', 'C', 'C', 'C', 'C', 'C', 'C', 'C', 'C', 'C', 'C', 'C', 'C', 'C', 'C', 'C']","[2394034, 2394413, 2394806, 2395201, 2395616, 2396001, 2396374, 2396763, 2397157, 2397571, 2397971, 2400623, 2400980, 2401361, 2401744, 2402125, 2402457, 2402839, 2403169, 2403534]","[2394092, 2394455, 2394868, 2395267, 2395695, 2396052, 2396425, 2396826, 2397182, 2397596, 2397997, 2400679, 2401007, 2401417, 2401795, 2402168, 2402507, 2402879, 2403200, 2403581]","[2392493, 2392891, 2393291, 2393692, 2394091, 2394491, 2394891, 2395291, 2395641, 2396026, 2396399, 2396788, 2397182, 2397596, 2397997, 2400649, 2401006, 2401387, 2401770, 2402151, 2402483, 2402865, 2403194, 2403560]",39,R,ITM,1.1,
6,600,trial,0,124,124,124,trial,"['S', 'S', 'S', 'S', 'S', 'S', 'C', 'C', 'C', 'C', 'C', 'C', 'C', 'C', 'C', 'C', 'C', 'C', 'C', 'C', 'C', 'C']","[2410036, 2410609, 2411213, 2411794, 2412404, 2413006, 2413634, 2414175, 2414666, 2415201, 2415727, 2416262, 2416754, 2417274, 2417796, 2418278, 2418793, 2419282, 2419765, 2420311, 2420813, 2421340]","[2410056, 2410686, 2411279, 2411857, 2412475, 2413082, 2413709, 2414249, 2414750, 2415261, 2415794, 2416342, 2416830, 2417352, 2417867, 2418319, 2418859, 2419341, 2419840, 2420361, 2420896, 2421408]","[2408926, 2409524, 2410124, 2410724, 2411324, 2411924, 2412524, 2413124, 2413661, 2414201, 2414694, 2415228, 2415754, 2416289, 2416781, 2417302, 2417822, 2418305, 2418820, 2419309, 2419792, 2420337, 2420841, 2421366]",39,R,ITM,1.1,
6,400,trial,0,125,125,125,trial,"['S', 'S', 'S', 'S', 'S', 'S', 'C', 'C', 'C', 'C', 'C', 'C', 'C', 'C', 'C', 'C', 'C', 'C', 'C', 'C', 'C', 'C']","[2427622, 2427996, 2428382, 2428768, 2429167, 2429561, 2429956, 2430358, 2430755, 2431135, 2431507, 2431885, 2432246, 2432623, 2432992, 2433381, 2433775, 2434170, 2434563, 2434949, 2435312, 2435706]","[2427676, 2428066, 2428447, 2428826, 2429228, 2429633, 2430023, 2430423, 2430804, 2431193, 2431585, 2431943, 2432320, 2432698, 2433058, 2433457, 2433851, 2434236, 2434641, 2435011, 2435407, 2435783]","[2426857, 2427256, 2427656, 2428056, 2428456, 2428856, 2429256, 2429657, 2429983, 2430385, 2430782, 2431162, 2431535, 2431911, 2432273, 2432650, 2433018, 2433409, 2433802, 2434197, 2434590, 2434975, 2435339, 2435734]",39,R,ITM,1.1,
