octave,ioi,event,.thisRepN,.thisTrialN,.thisN,.thisIndex,event,tap_types,tap_times,release_times,tone_times,subject,handedness,experiment,version,
,,SPR,0,-1,-1,0,SPR,"['P', 'P', 'P', 'P', 'P', 'P', 'P', 'P', 'P', 'P', 'P', 'P', 'P', 'P', 'P', 'P', 'P', 'P', 'P', 'P', 'P', 'P', 'P', 'P', 'P', 'P', 'P', 'P', 'P', 'P']","[40707, 42954, 47550, 47777, 48265, 48552, 48798, 49067, 49314, 49527, 49753, 50018, 50306, 50575, 50841, 51104, 51352, 51636, 51911, 52218, 52504, 52782, 53047, 53316, 53596, 53897, 54164, 54456, 54722, 54974]","[41227, 43862, 47634, 47844, 48366, 48606, 48864, 49142, 49362, 49576, 49817, 50097, 50365, 50652, 50922, 51124, 51408, 51715, 51991, 52291, 52591, 52857, 53136, 53389, 53675, 53958, 54216, 54510, 54780, 55066]",,28,R,ITM,1.1,
2,500,practice,0,0,0,0,practice,"['S', 'S', 'S', 'S', 'S', 'S', 'S', 'C', 'C', 'C', 'C', 'C', 'C', 'C', 'C', 'C', 'C', 'C', 'C', 'C', 'C', 'C', 'C', 'C']","[114903, 115183, 115660, 116139, 116683, 117152, 117623, 118078, 118464, 118849, 119209, 119531, 119820, 120104, 120393, 120649, 121416, 121823, 122185, 122555, 122950, 138406, 138846, 139427]","[115017, 115302, 115750, 116243, 116775, 117258, 117753, 118191, 118562, 118961, 119309, 119632, 119909, 120184, 120479, 120734, 121526, 121946, 122298, 122663, 123064, 138544, 138950, 139526]","[114285, 114784, 115286, 115785, 116285, 116786, 117285, 117785, 118105, 118491, 118877, 119237, 119559, 119847, 120132, 120420, 121443, 121849, 122213, 122582, 122978, 138434, 138872, 139454]",28,R,ITM,1.1,
6,500,practice,0,1,1,1,practice,"['S', 'S', 'S', 'S', 'S', 'S', 'S', 'C', 'C', 'C', 'C', 'C', 'C', 'C', 'C', 'C', 'C', 'C', 'C', 'C', 'C', 'C', 'C']","[145897, 146324, 146694, 147145, 147600, 148097, 148568, 149070, 149585, 150011, 150563, 151019, 151497, 151949, 152460, 152899, 153427, 153842, 154278, 154767, 155217, 155700, 156093]","[146008, 146449, 146830, 147232, 147682, 148191, 148672, 149182, 149681, 150146, 150673, 151144, 151607, 152073, 152579, 153018, 153516, 153940, 154419, 154891, 155351, 155814, 156216]","[145120, 145619, 146119, 146619, 147120, 147619, 148119, 148619, 149097, 149612, 150038, 150590, 151046, 151525, 151975, 152486, 152926, 153455, 153869, 154306, 154793, 155244, 155726, 156120]",28,R,ITM,1.1,
3,500,practice,0,2,2,2,practice,"['S', 'S', 'S', 'S', 'S', 'S', 'S', 'S', 'C', 'C', 'C', 'C', 'C', 'C', 'C', 'C', 'C', 'C', 'C', 'C', 'C', 'C', 'C', 'C']","[161944, 162318, 162644, 163096, 163576, 164064, 164627, 165062, 165553, 165984, 166528, 167050, 167550, 168043, 168532, 169054, 169566, 170084, 170590, 171147, 171616, 172155, 172691, 173171]","[162034, 162421, 162772, 163208, 163677, 164163, 164729, 165169, 165676, 166087, 166631, 167161, 167667, 168155, 168657, 169163, 169667, 170188, 170717, 171247, 171731, 172289, 172805, 173310]","[161677, 162178, 162677, 163177, 163677, 164177, 164677, 165177, 165578, 166009, 166553, 167075, 167576, 168069, 168558, 169079, 169591, 170109, 170615, 171172, 171641, 172181, 172717, 173197]",28,R,ITM,1.1,
5,500,practice,0,3,3,3,practice,"['S', 'S', 'S', 'S', 'S', 'S', 'S', 'S', 'C', 'C', 'C', 'C', 'C', 'C', 'C', 'C', 'C', 'C', 'C', 'C', 'C', 'C', 'C', 'C']","[178992, 179378, 179796, 180131, 180612, 181028, 181527, 182026, 182487, 182940, 183401, 183872, 184360, 184849, 185357, 185826, 186298, 186789, 187236, 187694, 188218, 188697, 189126, 189573]","[179036, 179482, 179900, 180227, 180699, 181155, 181657, 182139, 182597, 183063, 183521, 183985, 184489, 184954, 185472, 185934, 186430, 186906, 187351, 187822, 188354, 188823, 189259, 189708]","[178679, 179178, 179678, 180178, 180678, 181178, 181679, 182178, 182512, 182966, 183427, 183898, 184386, 184875, 185382, 185851, 186324, 186816, 187261, 187720, 188243, 188724, 189152, 189599]",28,R,ITM,1.1,
4,500,practice,0,4,4,4,practice,"['S', 'S', 'S', 'S', 'S', 'S', 'S', 'S', 'C', 'C', 'C', 'C', 'C', 'C', 'C', 'C', 'C', 'C', 'C', 'C', 'C', 'C', 'C', 'C']","[195290, 195612, 196092, 196566, 197046, 197531, 198056, 198562, 199074, 199595, 200069, 200570, 201075, 201564, 202079, 202613, 203040, 203517, 203995, 204455, 204938, 205412, 205936, 206419]","[195403, 195748, 196178, 196644, 197117, 197628, 198155, 198666, 199185, 199709, 200194, 200682, 201174, 201672, 202210, 202715, 203169, 203664, 204122, 204600, 205060, 205532, 206027, 206547]","[195126, 195625, 196125, 196625, 197126, 197625, 198125, 198625, 199100, 199620, 200094, 200596, 201101, 201589, 202104, 202639, 203066, 203543, 204020, 204481, 204963, 205437, 205962, 206445]",28,R,ITM,1.1,
7,500,practice,0,5,5,5,practice,"['S', 'S', 'S', 'S', 'S', 'S', 'S', 'S', 'C', 'C', 'C', 'C', 'C', 'C', 'C', 'C', 'C', 'C', 'C', 'C', 'C', 'C', 'C', 'C']","[212484, 212830, 213137, 213621, 214085, 214640, 215132, 215659, 216175, 216686, 217149, 217672, 218156, 218625, 219096, 219656, 220125, 220626, 221086, 221581, 222064, 222552, 222991, 223558]","[212585, 212940, 213239, 213712, 214194, 214739, 215261, 215783, 216296, 216801, 217263, 217780, 218283, 218722, 219202, 219761, 220257, 220761, 221235, 221728, 222186, 222678, 223132, 223646]","[212213, 212712, 213213, 213712, 214212, 214712, 215213, 215712, 216202, 216713, 217176, 217700, 218182, 218651, 219122, 219682, 220151, 220654, 221113, 221607, 222091, 222578, 223017, 223585]",28,R,ITM,1.1,
7,400,trial,0,6,6,6,trial,"['S', 'S', 'S', 'S', 'S', 'S', 'S', 'C', 'C', 'C', 'C', 'C', 'C', 'C', 'C', 'C', 'C', 'C', 'C', 'C', 'C', 'C', 'C']","[256223, 256546, 256905, 257297, 257674, 258046, 258366, 258723, 259073, 259440, 259800, 260195, 260629, 260971, 261351, 261741, 262110, 262462, 262858, 263236, 263595, 263959, 264342]","[256314, 256671, 257018, 257402, 257782, 258144, 258494, 258837, 259182, 259544, 259922, 260308, 260707, 261089, 261460, 261854, 262212, 262565, 262967, 263340, 263706, 264081, 264448]","[255553, 255952, 256352, 256752, 257153, 257552, 257952, 258353, 258751, 259099, 259468, 259827, 260221, 260656, 260999, 261378, 261768, 262136, 262490, 262885, 263264, 263622, 263986, 264370]",28,R,ITM,1.1,
5,600,trial,0,7,7,7,trial,"['S', 'S', 'S', 'S', 'S', 'S', 'S', 'S', 'C', 'C', 'C', 'C', 'C', 'C', 'C', 'C', 'C', 'C', 'C', 'C', 'C', 'C', 'C', 'C']","[270142, 270414, 271023, 271659, 272224, 272813, 273439, 274003, 274530, 275126, 275680, 276255, 276816, 277347, 277872, 278477, 278927, 279396, 279900, 280434, 280939, 281454, 281942, 282435]","[270236, 270555, 271131, 271763, 272305, 272942, 273562, 274146, 274696, 275252, 275800, 276376, 276952, 277506, 278004, 278603, 279103, 279568, 280043, 280571, 281070, 281577, 282076, 282567]","[269904, 270503, 271104, 271704, 272304, 272903, 273503, 274103, 274555, 275152, 275705, 276281, 276843, 277372, 277898, 278503, 278953, 279421, 279925, 280460, 280965, 281481, 281967, 282462]",28,R,ITM,1.1,
6,400,trial,0,8,8,8,trial,"['S', 'S', 'S', 'S', 'S', 'S', 'C', 'C', 'C', 'C', 'C', 'C', 'C', 'C', 'C', 'C', 'C', 'C', 'C', 'C', 'C', 'C']","[288233, 288655, 289583, 289928, 290269, 290641, 291010, 291401, 291769, 292173, 292555, 292923, 293291, 293655, 294022, 294395, 294796, 295155, 295499, 295869, 296272, 296651]","[288354, 288752, 289693, 290050, 290399, 290753, 291131, 291515, 291875, 292278, 292674, 293023, 293419, 293773, 294117, 294503, 294908, 295269, 295617, 295983, 296401, 296759]","[287886, 288285, 288686, 289085, 289485, 289886, 290286, 290686, 291037, 291428, 291795, 292201, 292582, 292950, 293317, 293682, 294048, 294423, 294823, 295183, 295526, 295897, 296299, 296679]",28,R,ITM,1.1,
6,400,trial,0,9,9,9,trial,"['S', 'S', 'S', 'S', 'S', 'S', 'S', 'C', 'C', 'C', 'C', 'C', 'C', 'C', 'C', 'C', 'C', 'C', 'C', 'C', 'C', 'C', 'C']","[302512, 302865, 303543, 303836, 304191, 304619, 305003, 305395, 305780, 306182, 306557, 306952, 307365, 307772, 308074, 308478, 308887, 309230, 309613, 310000, 310389, 310760, 311137]","[302576, 302961, 303665, 303966, 304303, 304741, 305133, 305522, 305913, 306312, 306682, 307073, 307471, 307874, 308201, 308609, 308999, 309353, 309751, 310123, 310508, 310861, 311255]","[302294, 302693, 303093, 303494, 303893, 304293, 304693, 305093, 305422, 305807, 306208, 306584, 306979, 307392, 307800, 308101, 308505, 308914, 309257, 309641, 310027, 310417, 310788, 311164]",28,R,ITM,1.1,
5,400,trial,0,10,10,10,trial,"['S', 'S', 'S', 'S', 'S', 'S', 'S', 'C', 'C', 'C', 'C', 'C', 'C', 'C', 'C', 'C', 'C', 'C', 'C', 'C', 'C', 'C', 'C']","[316887, 317206, 317652, 317996, 318404, 318791, 319209, 319628, 320030, 320423, 320809, 321195, 321571, 321939, 322361, 322731, 323101, 323470, 323893, 324236, 324598, 325001, 325378]","[317005, 317343, 317773, 318120, 318511, 318921, 319350, 319738, 320146, 320531, 320906, 321303, 321673, 322050, 322454, 322832, 323195, 323573, 323996, 324338, 324718, 325086, 325467]","[316484, 316884, 317284, 317684, 318085, 318484, 318884, 319284, 319654, 320057, 320449, 320835, 321220, 321597, 321965, 322387, 322756, 323127, 323495, 323918, 324262, 324624, 325026, 325403]",28,R,ITM,1.1,
2,600,trial,0,11,11,11,trial,"['S', 'S', 'S', 'S', 'S', 'S', 'S', 'C', 'C', 'C', 'C', 'C', 'C', 'C', 'C', 'C', 'C', 'C', 'C', 'C', 'C', 'C', 'C']","[331754, 332178, 332844, 333440, 334080, 334671, 335304, 335809, 336410, 336929, 337499, 338019, 338493, 339033, 339558, 340090, 340585, 341117, 341624, 342057, 342636, 343130, 343616]","[331802, 332299, 332965, 333535, 334179, 334770, 335398, 335926, 336525, 337029, 337605, 338129, 338625, 339171, 339664, 340207, 340720, 341230, 341726, 342185, 342739, 343252, 343739]","[331134, 331735, 332335, 332935, 333535, 334134, 334735, 335334, 335836, 336438, 336956, 337526, 338045, 338520, 339059, 339586, 340117, 340612, 341144, 341651, 342085, 342663, 343156, 343644]",28,R,ITM,1.1,
2,400,trial,0,12,12,12,trial,"['S', 'S', 'C', 'C', 'C', 'C', 'C', 'C', 'C', 'C', 'C', 'C', 'C', 'C', 'C', 'C', 'C', 'C']","[351811, 352103, 352416, 352717, 353134, 353539, 353915, 354326, 354721, 355097, 355506, 355900, 356244, 356647, 357053, 357415, 357839, 358234]","[351923, 352199, 352537, 352830, 353244, 353647, 354022, 354441, 354834, 355212, 355619, 356028, 356352, 356763, 357171, 357551, 357944, 358351]","[349361, 349760, 350160, 350560, 350960, 351360, 351760, 352160, 352443, 352744, 353162, 353565, 353943, 354354, 354748, 355125, 355533, 355928, 356271, 356675, 357081, 357443, 357866, 358260]",28,R,ITM,1.1,
2,400,trial,0,13,13,13,trial,"['S', 'S', 'S', 'S', 'S', 'S', 'S', 'C', 'C', 'C', 'C', 'C', 'C', 'C', 'C', 'C', 'C', 'C', 'C', 'C', 'C', 'C', 'C']","[364619, 365003, 365276, 365554, 365911, 366273, 366701, 367057, 367461, 367854, 368252, 368634, 369024, 369440, 369820, 370202, 370598, 371017, 371376, 371692, 372098, 372483, 372880]","[364730, 365096, 365386, 365675, 366017, 366407, 366806, 367179, 367582, 367984, 368375, 368768, 369150, 369549, 369938, 370319, 370716, 371142, 371487, 371832, 372238, 372613, 373009]","[363929, 364329, 364729, 365129, 365530, 365929, 366329, 366729, 367084, 367488, 367882, 368280, 368662, 369051, 369467, 369848, 370230, 370625, 371045, 371402, 371720, 372125, 372510, 372907]",28,R,ITM,1.1,
4,600,trial,0,14,14,14,trial,"['S', 'S', 'S', 'S', 'S', 'S', 'C', 'C', 'C', 'C', 'C', 'C', 'C', 'C', 'C', 'C', 'C', 'C', 'C', 'C', 'C', 'C']","[379498, 380075, 380708, 381284, 381956, 382528, 383122, 383673, 384265, 384842, 385355, 385898, 386454, 386989, 387540, 388113, 388698, 389148, 389691, 390224, 390746, 391221]","[379595, 380153, 380787, 381396, 382053, 382639, 383238, 383805, 384397, 384944, 385476, 386019, 386575, 387108, 387667, 388213, 388798, 389291, 389850, 390371, 390879, 391375]","[378378, 378978, 379578, 380178, 380778, 381378, 381978, 382578, 383148, 383699, 384291, 384868, 385381, 385924, 386480, 387014, 387566, 388139, 388723, 389174, 389716, 390250, 390771, 391246]",28,R,ITM,1.1,
4,600,trial,0,15,15,15,trial,"['S', 'S', 'S', 'S', 'S', 'S', 'C', 'C', 'C', 'C', 'C', 'C', 'C', 'C', 'C', 'C', 'C', 'C', 'C', 'C', 'C', 'C']","[398118, 398628, 399182, 399793, 400347, 400997, 401613, 402150, 402728, 403270, 403844, 404399, 404945, 405500, 406052, 406600, 407132, 407692, 408227, 408758, 409402, 409943]","[398239, 398718, 399291, 399882, 400453, 401102, 401713, 402299, 402868, 403424, 403973, 404510, 405084, 405646, 406191, 406766, 407335, 407852, 408390, 408926, 409524, 410130]","[396882, 397483, 398083, 398683, 399282, 399882, 400482, 401082, 401639, 402176, 402754, 403296, 403869, 404424, 404971, 405526, 406078, 406626, 407157, 407717, 408253, 408783, 409427, 409968]",28,R,ITM,1.1,
5,600,trial,0,16,16,16,trial,"['S', 'S', 'S', 'S', 'S', 'S', 'C', 'C', 'C', 'C', 'C', 'C', 'C', 'C', 'C', 'C', 'C', 'C', 'C', 'C', 'C', 'C']","[416808, 417316, 417881, 418609, 419139, 419746, 420297, 420848, 421407, 421903, 422462, 423015, 423507, 424082, 424562, 425132, 425620, 426188, 426644, 427185, 427677, 428132]","[416929, 417436, 418025, 418726, 419248, 419870, 420430, 420968, 421504, 422031, 422573, 423124, 423657, 424218, 424701, 425284, 425798, 426328, 426835, 427316, 427792, 428303]","[415609, 416208, 416808, 417409, 418009, 418609, 419208, 419808, 420323, 420875, 421433, 421929, 422488, 423041, 423534, 424108, 424588, 425157, 425646, 426214, 426670, 427210, 427703, 428157]",28,R,ITM,1.1,
7,600,trial,0,17,17,17,trial,"['S', 'S', 'S', 'S', 'S', 'S', 'C', 'C', 'C', 'C', 'C', 'C', 'C', 'C', 'C', 'C', 'C', 'C', 'C', 'C', 'C', 'C']","[434970, 435503, 436108, 436678, 437316, 437891, 438480, 439010, 439619, 440228, 440720, 441330, 441909, 442466, 443034, 443601, 444166, 444748, 445299, 445833, 446456, 446976]","[435092, 435609, 436219, 436806, 437428, 438027, 438609, 439200, 439773, 440346, 440883, 441478, 442054, 442596, 443175, 443738, 444311, 444888, 445456, 446047, 446645]","[433739, 434338, 434938, 435538, 436139, 436739, 437339, 437939, 438507, 439036, 439646, 440255, 440748, 441358, 441935, 442492, 443061, 443629, 444193, 444775, 445326, 445859, 446483, 447003]",28,R,ITM,1.1,
4,400,trial,0,18,18,18,trial,"['S', 'S', 'S', 'S', 'S', 'C', 'C', 'C', 'C', 'C', 'C', 'C', 'C', 'C', 'C', 'C', 'C', 'C', 'C', 'C', 'C']","[466829, 467085, 467420, 467772, 468107, 468427, 468795, 469144, 469528, 469829, 470223, 470589, 470939, 471312, 471695, 472131, 472485, 472863, 473259, 473624, 473988]","[466932, 467192, 467550, 467888, 468199, 468535, 468867, 469222, 469554, 469946, 470334, 470680, 471061, 471408, 471802, 472232, 472595, 472983, 473370, 473746, 474128]","[465228, 465629, 466029, 466429, 466829, 467229, 467630, 468029, 468453, 468820, 469170, 469554, 469855, 470249, 470615, 470965, 471337, 471720, 472157, 472511, 472889, 473285, 473651, 474013]",28,R,ITM,1.1,
4,400,trial,0,19,19,19,trial,"['S', 'S', 'S', 'S', 'S', 'S', 'S', 'C', 'C', 'C', 'C', 'C', 'C', 'C', 'C', 'C', 'C', 'C', 'C', 'C', 'C', 'C', 'C']","[480603, 480908, 481310, 481572, 481971, 482345, 482760, 483175, 483531, 483922, 484300, 484680, 485071, 485476, 485861, 486248, 486632, 487000, 487352, 487707, 488174, 488593, 488967]","[480717, 481007, 481405, 481701, 482102, 482492, 482896, 483310, 483654, 484025, 484397, 484796, 485195, 485572, 485980, 486358, 486743, 487097, 487460, 487828, 488294, 488701, 489122]","[479754, 480153, 480553, 480953, 481353, 481754, 482153, 482553, 483201, 483557, 483948, 484326, 484706, 485097, 485501, 485886, 486275, 486659, 487025, 487377, 487734, 488201, 488620, 488992]",28,R,ITM,1.1,
6,600,trial,0,20,20,20,trial,"['S', 'S', 'S', 'S', 'S', 'S', 'C', 'C', 'C', 'C', 'C', 'C', 'C', 'C', 'C', 'C', 'C', 'C', 'C', 'C', 'C', 'C']","[495943, 496440, 496915, 497541, 498177, 498887, 499429, 500009, 500645, 501138, 501748, 502306, 502925, 503484, 504046, 504672, 505213, 505773, 506379, 506932, 507440, 508016]","[495987, 496550, 497011, 497653, 498292, 498987, 499523, 500142, 500753, 501255, 501864, 502455, 503029, 503584, 504190, 504782, 505352, 505903, 506501, 507107, 507639, 508179]","[494772, 495372, 495972, 496572, 497172, 497772, 498372, 498972, 499456, 500036, 500673, 501166, 501775, 502333, 502951, 503511, 504074, 504699, 505240, 505800, 506405, 506959, 507466, 508043]",28,R,ITM,1.1,
7,600,trial,0,21,21,21,trial,"['S', 'S', 'S', 'S', 'S', 'S', 'C', 'C', 'C', 'C', 'C', 'C', 'C', 'C', 'C', 'C', 'C', 'C', 'C', 'C', 'C', 'C']","[514715, 515193, 515820, 516369, 517033, 517637, 518195, 518771, 519396, 519887, 520451, 521030, 521652, 522170, 522691, 523260, 523834, 524398, 524948, 525466, 526015, 526535]","[514841, 515319, 515919, 516485, 517127, 517728, 518321, 518913, 519519, 520078, 520578, 521226, 521874, 522341, 522908, 523454, 523990, 524627, 525181, 525709, 526276]","[513455, 514054, 514654, 515254, 515854, 516454, 517054, 517654, 518221, 518798, 519422, 519915, 520478, 521057, 521679, 522198, 522718, 523288, 523860, 524426, 524976, 525493, 526043, 526563]",28,R,ITM,1.1,
3,600,trial,0,22,22,22,trial,"['S', 'S', 'S', 'S', 'S', 'S', 'S', 'S', 'C', 'C', 'C', 'C', 'C', 'C', 'C', 'C', 'C', 'C', 'C', 'C', 'C', 'C', 'C', 'C', 'C', 'C', 'C']","[533475, 534073, 534694, 535302, 535402, 535867, 536478, 536578, 537051, 537602, 538218, 538769, 539316, 539937, 540043, 540414, 541021, 541126, 541587, 542132, 542741, 543249, 543356, 543821, 544339, 544878, 545422]","[533576, 534093, 534714, 535322, 535422, 535957, 536498, 536598, 537170, 537742, 538331, 538912, 539486, 539963, 540063, 540619, 541046, 541206, 541742, 542266, 542864, 543275, 543395, 543930, 544439, 544999, 545507]","[532339, 532939, 533539, 534139, 534739, 535340, 535940, 536540, 537076, 537627, 538244, 538795, 539342, 539963, 540440, 541046, 541613, 542157, 542767, 543275, 543847, 544365, 544904, 545447]",28,R,ITM,1.1,
3,400,trial,0,23,23,23,trial,"['C', 'C', 'C', 'C', 'C', 'C', 'C', 'C', 'C', 'C', 'C', 'C', 'C', 'C', 'C', 'C']","[553971, 554266, 554673, 555068, 555512, 555856, 556262, 556645, 557047, 557419, 557830, 558228, 558623, 559062, 559492, 559823]","[554079, 554388, 554785, 555197, 555632, 555984, 556370, 556760, 557153, 557532, 557946, 558356, 558742, 559177, 559597, 559967]","[550914, 551312, 551712, 552113, 552512, 552912, 553312, 553712, 553997, 554292, 554698, 555094, 555538, 555882, 556289, 556670, 557073, 557445, 557855, 558254, 558649, 559087, 559517, 559849]",28,R,ITM,1.1,
6,600,trial,0,24,24,24,trial,"['S', 'S', 'S', 'S', 'S', 'S', 'S', 'S', 'C', 'C', 'C', 'C', 'C', 'C', 'C', 'C', 'C', 'C', 'C', 'C', 'C', 'C', 'C', 'C', 'C', 'C', 'C', 'C']","[566116, 566474, 567051, 567673, 568316, 568841, 568944, 569513, 570067, 570659, 571295, 571889, 572460, 572566, 573084, 573680, 573787, 574275, 574383, 574809, 575451, 576035, 576600, 576709, 577123, 577727, 578268, 578772]","[566234, 566612, 567156, 567693, 568391, 568864, 568964, 569604, 570188, 570798, 571407, 572001, 572486, 572587, 573201, 573707, 573807, 574303, 574403, 574966, 575478, 576172, 576628, 576758, 577284, 577849, 578403, 578979]","[565380, 565980, 566579, 567179, 567779, 568379, 568979, 569579, 570095, 570686, 571322, 571917, 572486, 573111, 573707, 574302, 574835, 575478, 576063, 576627, 577150, 577754, 578294, 578799]",28,R,ITM,1.1,
3,400,trial,0,25,25,25,trial,"['S', 'S', 'S', 'S', 'S', 'C', 'C', 'C', 'C', 'C', 'C', 'C', 'C', 'C', 'C', 'C', 'C', 'C', 'C', 'C', 'C']","[585594, 585865, 586272, 586717, 587115, 587507, 587900, 588300, 588712, 589110, 589500, 589937, 590356, 590763, 591193, 591582, 592030, 592404, 592803, 593213, 593610]","[585689, 585966, 586390, 586831, 587252, 587654, 588050, 588432, 588833, 589230, 589634, 590075, 590472, 590892, 591301, 591722, 592150, 592522, 592934, 593354, 593745]","[584083, 584482, 584882, 585282, 585682, 586082, 586482, 586883, 587533, 587926, 588325, 588738, 589135, 589526, 589963, 590382, 590788, 591218, 591607, 592056, 592430, 592829, 593239, 593636]",28,R,ITM,1.1,
3,600,trial,0,26,26,26,trial,"['S', 'S', 'S', 'S', 'S', 'S', 'S', 'S', 'C', 'C', 'C', 'C', 'C', 'C', 'C', 'C', 'C', 'C', 'C', 'C', 'C', 'C', 'C', 'C']","[599430, 599769, 600255, 600811, 601389, 602041, 602586, 603199, 603765, 604378, 604959, 605558, 606138, 606721, 607302, 607828, 608413, 608942, 609472, 610104, 610603, 611187, 611752, 612319]","[599552, 599899, 600353, 600924, 601519, 602147, 602696, 603307, 603909, 604489, 605102, 605677, 606287, 606907, 607439, 607995, 608534, 609089, 609681, 610209, 610786, 611348, 611918, 612452]","[599089, 599687, 600287, 600887, 601487, 602087, 602687, 603287, 603791, 604403, 604985, 605584, 606163, 606746, 607329, 607854, 608439, 608967, 609498, 610129, 610628, 611213, 611779, 612344]",28,R,ITM,1.1,
5,400,trial,0,27,27,27,trial,"['S', 'S', 'S', 'S', 'S', 'S', 'S', 'S', 'C', 'C', 'C', 'C', 'C', 'C', 'C', 'C', 'C', 'C', 'C', 'C', 'C', 'C', 'C', 'C']","[617932, 618188, 618470, 618830, 619235, 619613, 619972, 620426, 620835, 621180, 621585, 621970, 622387, 622778, 623168, 623577, 623982, 624393, 624766, 625162, 625576, 625980, 626320, 626708]","[618044, 618293, 618600, 618942, 619339, 619714, 620100, 620531, 620934, 621313, 621700, 622115, 622508, 622886, 623295, 623700, 624084, 624504, 624898, 625294, 625708, 626089, 626433, 626833]","[617671, 618071, 618470, 618870, 619271, 619671, 620071, 620471, 620861, 621207, 621611, 621997, 622413, 622804, 623195, 623603, 624008, 624418, 624792, 625187, 625602, 626007, 626345, 626735]",28,R,ITM,1.1,
7,400,trial,0,28,28,28,trial,"['S', 'S', 'S', 'S', 'S', 'S', 'C', 'C', 'C', 'C', 'C', 'C', 'C', 'C', 'C', 'C', 'C', 'C', 'C', 'C', 'C', 'C']","[633177, 633567, 633975, 634389, 634796, 635234, 635654, 636003, 636405, 636786, 637165, 637588, 637959, 638367, 638752, 639116, 639503, 639884, 640246, 640651, 641050, 641440]","[633289, 633663, 634084, 634497, 634918, 635347, 635760, 636143, 636540, 636906, 637302, 637717, 638096, 638498, 638860, 639245, 639614, 640003, 640370, 640744, 641175, 641559]","[632430, 632829, 633229, 633629, 634030, 634429, 634829, 635230, 635680, 636030, 636432, 636814, 637192, 637616, 637986, 638395, 638780, 639142, 639529, 639910, 640273, 640677, 641077, 641468]",28,R,ITM,1.1,
2,600,trial,0,29,29,29,trial,"['S', 'S', 'S', 'S', 'S', 'S', 'S', 'C', 'C', 'C', 'C', 'C', 'C', 'C', 'C', 'C', 'C', 'C', 'C', 'C', 'C', 'C', 'C']","[647657, 648119, 648837, 649634, 650002, 650496, 651098, 651659, 652175, 652746, 653287, 653876, 654393, 654943, 655466, 655925, 656504, 657051, 657575, 658065, 658596, 659107, 659616]","[647776, 648274, 648969, 649721, 650123, 650642, 651217, 651793, 652311, 652878, 653416, 654001, 654525, 655087, 655599, 656093, 656634, 657187, 657714, 658206, 658734, 659261, 659775]","[647057, 647657, 648256, 648857, 649457, 650057, 650657, 651257, 651686, 652203, 652773, 653314, 653902, 654419, 654969, 655493, 655952, 656532, 657078, 657602, 658093, 658624, 659135, 659644]",28,R,ITM,1.1,
3,600,trial,0,30,30,30,trial,"['S', 'S', 'S', 'S', 'S', 'S', 'S', 'C', 'C', 'C', 'C', 'C', 'C', 'C', 'C', 'C', 'C', 'C', 'C', 'C', 'C', 'C', 'C']","[674297, 674697, 675240, 675858, 676387, 676986, 677604, 678160, 678704, 679258, 679802, 680390, 680979, 681478, 682082, 682626, 683193, 683799, 684333, 684876, 685430, 686010, 686582]","[674405, 674830, 675382, 675981, 676516, 677164, 677760, 678319, 678851, 679413, 679957, 680519, 681119, 681628, 682233, 682804, 683372, 683960, 684457, 684985, 685539, 686133, 686704]","[673661, 674262, 674862, 675462, 676061, 676661, 677261, 677861, 678185, 678729, 679283, 679828, 680416, 681005, 681503, 682107, 682651, 683218, 683825, 684358, 684902, 685456, 686035, 686608]",28,R,ITM,1.1,
5,400,trial,0,31,31,31,trial,"['S', 'S', 'S', 'S', 'S', 'S', 'S', 'C', 'C', 'C', 'C', 'C', 'C', 'C', 'C', 'C', 'C', 'C', 'C', 'C', 'C', 'C', 'C']","[692682, 693000, 693348, 693793, 694172, 694545, 694953, 695314, 695691, 696086, 696476, 696868, 697165, 697551, 697979, 698342, 698717, 699130, 699497, 699905, 700306, 700647, 701004]","[692791, 693108, 693475, 693894, 694297, 694679, 695069, 695437, 695831, 696211, 696588, 697001, 697299, 697680, 698088, 698475, 698853, 699252, 699643, 700038, 700433, 700790, 701159]","[692242, 692641, 693042, 693442, 693842, 694242, 694642, 695043, 695340, 695716, 696112, 696502, 696894, 697191, 697577, 698005, 698368, 698742, 699156, 699524, 699930, 700332, 700673, 701031]",28,R,ITM,1.1,
4,400,trial,0,32,32,32,trial,"['S', 'S', 'S', 'S', 'S', 'S', 'S', 'C', 'C', 'C', 'C', 'C', 'C', 'C', 'C', 'C', 'C', 'C', 'C', 'C', 'C', 'C', 'C']","[707039, 707411, 707695, 708109, 708495, 708927, 709337, 709779, 710159, 710572, 710949, 711347, 711770, 712142, 712493, 712897, 713310, 713696, 714094, 714437, 714828, 715226, 715608]","[707147, 707507, 707838, 708228, 708640, 709069, 709470, 709894, 710269, 710674, 711054, 711455, 711862, 712254, 712626, 713041, 713438, 713827, 714203, 714550, 714951, 715333, 715732]","[706610, 707010, 707410, 707810, 708210, 708611, 709010, 709410, 709806, 710184, 710597, 710976, 711373, 711795, 712168, 712518, 712923, 713335, 713721, 714120, 714463, 714854, 715251, 715633]",28,R,ITM,1.1,
3,600,trial,0,33,33,33,trial,"['S', 'S', 'S', 'S', 'S', 'S', 'C', 'C', 'C', 'C', 'C', 'C', 'C', 'C', 'C', 'C', 'C', 'C', 'C', 'C', 'C', 'C']","[722643, 723082, 723646, 724222, 724859, 725467, 726104, 726721, 727328, 727924, 728560, 729183, 729731, 730428, 730960, 731592, 732156, 732813, 733342, 733910, 734474, 735083]","[722768, 723195, 723745, 724347, 724966, 725572, 726223, 726831, 727460, 728057, 728671, 729317, 729878, 730549, 731116, 731761, 732325, 732949, 733511, 734068, 734655, 735310]","[721336, 721935, 722535, 723135, 723735, 724335, 724935, 725535, 726129, 726747, 727354, 727950, 728586, 729208, 729756, 730454, 730986, 731618, 732182, 732838, 733368, 733935, 734499, 735109]",28,R,ITM,1.1,
4,600,trial,0,34,34,34,trial,"['S', 'S', 'C', 'C', 'C', 'C', 'C', 'C', 'C', 'C', 'C', 'C', 'C', 'C', 'C', 'C', 'C', 'C', 'C', 'C', 'C']","[744626, 744999, 745459, 746034, 746524, 747055, 747607, 748162, 748738, 749213, 749771, 750285, 750785, 751257, 751802, 751907, 752336, 752442, 752813, 752918, 753340]","[744756, 745136, 745620, 746168, 746657, 747190, 747746, 748295, 748869, 749362, 749920, 750459, 750959, 751448, 751827, 751933, 752362, 752462, 752838, 752951, 753490]","[740830, 741430, 742030, 742630, 743230, 743830, 744430, 745030, 745485, 746059, 746550, 747080, 747632, 748187, 748764, 749239, 749797, 750311, 750811, 751283, 751827, 752362, 752838, 753366]",28,R,ITM,1.1,
2,400,trial,0,35,35,35,trial,"['S', 'S', 'S', 'S', 'S', 'S', 'C', 'C', 'C', 'C', 'C', 'C', 'C', 'C', 'C', 'C', 'C', 'C', 'C', 'C', 'C', 'C']","[759588, 759939, 760251, 760666, 761086, 761493, 761914, 762296, 762705, 763090, 763482, 763852, 764256, 764640, 765049, 765476, 765847, 766211, 766637, 767058, 767441, 767820]","[759683, 760028, 760370, 760773, 761201, 761586, 762030, 762397, 762816, 763195, 763581, 763957, 764366, 764758, 765171, 765594, 765973, 766350, 766760, 767161, 767562, 767936]","[758722, 759122, 759521, 759922, 760323, 760722, 761122, 761522, 761942, 762323, 762733, 763118, 763508, 763879, 764282, 764667, 765077, 765504, 765875, 766238, 766663, 767085, 767469, 767847]",28,R,ITM,1.1,
3,400,trial,0,36,36,36,trial,"['S', 'S', 'S', 'S', 'S', 'S', 'S', 'C', 'C', 'C', 'C', 'C', 'C', 'C', 'C', 'C', 'C', 'C', 'C', 'C', 'C', 'C', 'C']","[773853, 774172, 774509, 774931, 775322, 775676, 776077, 776480, 776882, 777251, 777648, 778027, 778384, 778759, 779142, 779507, 779855, 780240, 780587, 780989, 781363, 781704, 782134]","[773959, 774273, 774642, 775029, 775434, 775792, 776208, 776623, 777008, 777390, 777771, 778132, 778512, 778873, 779241, 779621, 779980, 780341, 780708, 781096, 781483, 781858, 782259]","[773422, 773821, 774221, 774621, 775021, 775421, 775821, 776221, 776506, 776907, 777277, 777673, 778052, 778409, 778784, 779167, 779533, 779881, 780266, 780612, 781015, 781388, 781729, 782159]",28,R,ITM,1.1,
7,600,trial,0,37,37,37,trial,"['S', 'S', 'S', 'S', 'S', 'S', 'S', 'C', 'C', 'C', 'C', 'C', 'C', 'C', 'C', 'C', 'C', 'C', 'C', 'C', 'C', 'C', 'C']","[788047, 788699, 789310, 789881, 790441, 791069, 791636, 792141, 792693, 793231, 793758, 794332, 794876, 795454, 795972, 796552, 797102, 797664, 798190, 798669, 799284, 799812, 800345]","[788167, 788814, 789396, 789997, 790559, 791160, 791746, 792281, 792800, 793341, 793899, 794469, 795006, 795568, 796083, 796664, 797237, 797791, 798350, 798857, 799410, 799961, 800501]","[787530, 788129, 788729, 789329, 789929, 790530, 791130, 791730, 792169, 792720, 793259, 793785, 794358, 794903, 795482, 796000, 796578, 797128, 797690, 798218, 798696, 799310, 799839, 800372]",28,R,ITM,1.1,
5,600,trial,0,38,38,38,trial,"['S', 'S', 'S', 'S', 'S', 'S', 'S', 'S', 'C', 'C', 'C', 'C', 'C', 'C', 'C', 'C', 'C', 'C', 'C', 'C', 'C', 'C', 'C', 'C']","[806568, 806859, 807243, 807843, 808404, 809037, 809652, 810225, 810742, 811325, 811871, 812447, 813028, 813576, 814129, 814673, 815228, 815824, 816384, 816966, 817484, 818037, 818552, 819063]","[806676, 806970, 807335, 807916, 808494, 809136, 809732, 810327, 810903, 811465, 812040, 812604, 813156, 813716, 814277, 814841, 815421, 815990, 816556, 817129, 817667, 818182, 818722, 819300]","[806077, 806676, 807276, 807876, 808476, 809076, 809676, 810276, 810769, 811351, 811896, 812474, 813053, 813601, 814154, 814699, 815254, 815850, 816409, 816992, 817510, 818063, 818579, 819090]",28,R,ITM,1.1,
2,400,trial,0,39,39,39,trial,"['S', 'S', 'S', 'S', 'S', 'C', 'C', 'C', 'C', 'C', 'C', 'C', 'C', 'C', 'C', 'C', 'C', 'C', 'C', 'C', 'C', 'C']","[825800, 826059, 826425, 826820, 827215, 827597, 828001, 828413, 828737, 828844, 829121, 829487, 829880, 830290, 830678, 831053, 831452, 831812, 832200, 832605, 832976, 833397]","[825820, 826149, 826532, 826916, 827321, 827731, 828123, 828517, 828764, 828864, 829243, 829636, 830008, 830403, 830802, 831177, 831544, 831933, 832315, 832709, 833106, 833505]","[824495, 824894, 825294, 825695, 826095, 826494, 826894, 827295, 827624, 828028, 828441, 828764, 829148, 829513, 829907, 830318, 830704, 831080, 831478, 831839, 832227, 832632, 833004, 833425]",28,R,ITM,1.1,
4,600,trial,0,40,40,40,trial,"['S', 'S', 'S', 'S', 'S', 'S', 'S', 'C', 'C', 'C', 'C', 'C', 'C', 'C', 'C', 'C', 'C', 'C', 'C', 'C', 'C', 'C', 'C']","[839639, 840178, 840674, 841225, 841833, 842434, 843009, 843571, 844104, 844656, 845205, 845804, 846356, 846932, 847493, 848048, 848611, 849145, 849689, 850250, 850775, 851344, 851975]","[839739, 840289, 840781, 841335, 841926, 842515, 843131, 843695, 844247, 844782, 845351, 845927, 846511, 847049, 847624, 848164, 848736, 849300, 849838, 850394, 850925, 851500, 852086]","[839038, 839639, 840239, 840839, 841439, 842039, 842639, 843239, 843596, 844130, 844682, 845232, 845830, 846382, 846958, 847518, 848073, 848636, 849171, 849715, 850276, 850800, 851369, 852000]",28,R,ITM,1.1,
6,600,trial,0,41,41,41,trial,"['S', 'S', 'S', 'S', 'S', 'S', 'S', 'C', 'C', 'C', 'C', 'C', 'C', 'C', 'C', 'C', 'C', 'C', 'C', 'C', 'C', 'C', 'C']","[857926, 858476, 859166, 859667, 860267, 860848, 861512, 862095, 862675, 863259, 863813, 864411, 864986, 865541, 866120, 866629, 867243, 867808, 868370, 868927, 869477, 870034, 870577]","[858027, 858568, 859249, 859763, 860378, 860967, 861615, 862216, 862797, 863405, 863973, 864567, 865132, 865702, 866276, 866837, 867373, 867985, 868549, 869097, 869625, 870180, 870721]","[857378, 857977, 858577, 859177, 859778, 860378, 860978, 861577, 862121, 862702, 863286, 863840, 864438, 865012, 865568, 866147, 866656, 867270, 867835, 868397, 868955, 869505, 870062, 870603]",28,R,ITM,1.1,
2,600,trial,0,42,42,42,trial,"['S', 'S', 'S', 'S', 'S', 'S', 'S', 'C', 'C', 'C', 'C', 'C', 'C', 'C', 'C', 'C', 'C', 'C', 'C', 'C', 'C', 'C', 'C']","[884798, 885337, 885879, 886437, 887049, 887631, 888195, 888757, 889259, 889860, 890408, 890961, 891515, 892052, 892550, 893128, 893636, 894183, 894675, 895211, 895724, 896284, 896759]","[884894, 885423, 885991, 886557, 887155, 887743, 888322, 888878, 889397, 889977, 890523, 891078, 891634, 892152, 892679, 893246, 893761, 894297, 894801, 895339, 895868, 896421, 896912]","[884185, 884785, 885385, 885985, 886584, 887185, 887785, 888385, 888783, 889286, 889887, 890435, 890988, 891543, 892080, 892576, 893156, 893663, 894210, 894702, 895239, 895751, 896311, 896787]",28,R,ITM,1.1,
7,400,trial,0,43,43,43,trial,"['S', 'S', 'S', 'S', 'S', 'S', 'S', 'C', 'C', 'C', 'C', 'C', 'C', 'C', 'C', 'C', 'C', 'C', 'C', 'C', 'C', 'C', 'C']","[902744, 903100, 903548, 903955, 904372, 904744, 905163, 905572, 905962, 906313, 906724, 907115, 907520, 907909, 908277, 908680, 909066, 909449, 909854, 910254, 910691, 911087, 911493]","[902840, 903221, 903605, 904069, 904481, 904856, 905268, 905669, 906072, 906424, 906824, 907236, 907622, 908012, 908400, 908769, 909193, 909566, 910002, 910363, 910793, 911205, 911597]","[902372, 902772, 903173, 903572, 903972, 904372, 904772, 905172, 905598, 905989, 906341, 906752, 907143, 907547, 907936, 908304, 908706, 909093, 909476, 909881, 910280, 910718, 911114, 911519]",28,R,ITM,1.1,
3,400,trial,0,44,44,44,trial,"['C', 'C', 'C', 'C', 'C', 'C', 'C', 'C', 'C', 'C', 'C', 'C', 'C', 'C', 'C', 'C']","[920027, 920347, 920792, 921152, 921541, 921940, 922318, 922726, 923129, 923502, 923902, 924316, 924693, 925037, 925433, 925814]","[920143, 920460, 920895, 921264, 921656, 922037, 922431, 922841, 923217, 923598, 923993, 924393, 924796, 925172, 925541, 925917]","[916930, 917330, 917730, 918130, 918531, 918930, 919330, 919730, 920052, 920373, 920817, 921178, 921567, 921966, 922344, 922752, 923155, 923528, 923928, 924342, 924719, 925063, 925459, 925840]",28,R,ITM,1.1,
6,400,trial,0,45,45,45,trial,"['S', 'S', 'S', 'S', 'S', 'S', 'S', 'S', 'C', 'C', 'C', 'C', 'C', 'C', 'C', 'C', 'C', 'C', 'C', 'C', 'C', 'C', 'C', 'C']","[931496, 931799, 932144, 932512, 932787, 933212, 933591, 933962, 934359, 934762, 935159, 935540, 935920, 936272, 936662, 937073, 937457, 937809, 938140, 938561, 938918, 939332, 939716, 940095]","[931588, 931906, 932268, 932613, 932908, 933309, 933719, 934089, 934492, 934902, 935273, 935651, 936032, 936406, 936802, 937183, 937564, 937949, 938261, 938686, 939062, 939453, 939829, 940216]","[931252, 931652, 932052, 932452, 932852, 933253, 933652, 934052, 934386, 934789, 935186, 935567, 935948, 936299, 936688, 937100, 937484, 937836, 938167, 938588, 938945, 939359, 939743, 940122]",28,R,ITM,1.1,
5,600,trial,0,46,46,46,trial,"['S', 'S', 'S', 'S', 'S', 'S', 'S', 'S', 'C', 'C', 'C', 'C', 'C', 'C', 'C', 'C', 'C', 'C', 'C', 'C', 'C', 'C', 'C', 'C']","[946004, 946276, 946748, 947339, 947941, 948506, 949217, 949781, 950344, 950959, 951441, 951999, 952482, 953027, 953568, 954121, 954594, 955159, 955611, 956184, 956715, 957203, 957749, 958182]","[946118, 946381, 946891, 947466, 948058, 948623, 949320, 949904, 950486, 951071, 951590, 952131, 952628, 953166, 953704, 954241, 954739, 955328, 955773, 956339, 956835, 957348, 957854, 958319]","[945699, 946299, 946899, 947500, 948100, 948700, 949299, 949899, 950370, 950984, 951467, 952025, 952508, 953053, 953593, 954147, 954619, 955185, 955636, 956210, 956741, 957229, 957775, 958208]",28,R,ITM,1.1,
7,600,trial,0,47,47,47,trial,"['S', 'S', 'S', 'S', 'S', 'S', 'S', 'S', 'C', 'C', 'C', 'C', 'C', 'C', 'C', 'C', 'C', 'C', 'C', 'C', 'C', 'C', 'C', 'C']","[964031, 964655, 965047, 965630, 966224, 966871, 967395, 968016, 968542, 969122, 969700, 970220, 970825, 971374, 971913, 972494, 973009, 973584, 974105, 974682, 975248, 975758, 976302, 976822]","[964130, 964751, 965161, 965719, 966335, 966959, 967513, 968122, 968652, 969254, 969809, 970348, 970955, 971518, 972045, 972634, 973161, 973714, 974263, 974810, 975369, 975892, 976435, 976977]","[963846, 964445, 965044, 965644, 966244, 966844, 967444, 968044, 968569, 969149, 969728, 970247, 970853, 971402, 971939, 972521, 973037, 973612, 974133, 974708, 975276, 975784, 976329, 976848]",28,R,ITM,1.1,
6,400,trial,0,48,48,48,trial,"['S', 'S', 'S', 'S', 'S', 'S', 'S', 'S', 'C', 'C', 'C', 'C', 'C', 'C', 'C', 'C', 'C', 'C', 'C', 'C', 'C', 'C', 'C', 'C']","[982832, 983096, 983418, 983790, 984140, 984542, 984913, 985281, 985645, 985992, 986415, 986789, 987188, 987560, 987967, 988321, 988731, 989129, 989504, 989883, 990296, 990648, 991026, 991433]","[982933, 983188, 983520, 983882, 984254, 984657, 985027, 985400, 985775, 986136, 986533, 986930, 987309, 987707, 988130, 988461, 988869, 989254, 989619, 990006, 990394, 990756, 991127, 991560]","[982583, 982982, 983383, 983782, 984182, 984583, 984982, 985382, 985671, 986019, 986442, 986817, 987214, 987588, 987995, 988348, 988759, 989157, 989531, 989910, 990322, 990674, 991053, 991460]",28,R,ITM,1.1,
4,400,trial,0,49,49,49,trial,"['S', 'S', 'S', 'S', 'S', 'C', 'C', 'C', 'C', 'C', 'C', 'C', 'C', 'C', 'C', 'C', 'C', 'C', 'C', 'C', 'C']","[998240, 998538, 998893, 999273, 999665, 1000044, 1000441, 1000814, 1001187, 1001581, 1001996, 1002355, 1002764, 1003169, 1003547, 1003938, 1004355, 1004692, 1005093, 1005467, 1005867]","[998339, 998632, 999013, 999366, 999753, 1000168, 1000562, 1000927, 1001308, 1001702, 1002116, 1002491, 1002889, 1003280, 1003668, 1004050, 1004464, 1004839, 1005219, 1005594, 1005987]","[996955, 997353, 997753, 998153, 998553, 998953, 999353, 999753, 1000070, 1000467, 1000840, 1001212, 1001607, 1002021, 1002381, 1002789, 1003195, 1003574, 1003964, 1004382, 1004718, 1005119, 1005493, 1005893]",28,R,ITM,1.1,
2,600,trial,0,50,50,50,trial,"['S', 'S', 'S', 'S', 'S', 'S', 'S', 'C', 'C', 'C', 'C', 'C', 'C', 'C', 'C', 'C', 'C', 'C', 'C', 'C', 'C', 'C', 'C']","[1012070, 1012721, 1013364, 1013927, 1014541, 1015239, 1015790, 1016404, 1016982, 1017570, 1018124, 1018704, 1019291, 1019803, 1020312, 1020916, 1021445, 1022025, 1022546, 1023087, 1023613, 1024133, 1024651]","[1012188, 1012838, 1013475, 1014053, 1014647, 1015322, 1015910, 1016518, 1017105, 1017698, 1018245, 1018826, 1019388, 1019935, 1020433, 1021027, 1021581, 1022126, 1022657, 1023200, 1023724, 1024239, 1024781]","[1011638, 1012238, 1012838, 1013438, 1014038, 1014637, 1015238, 1015838, 1016431, 1017009, 1017596, 1018151, 1018731, 1019318, 1019830, 1020339, 1020944, 1021472, 1022053, 1022574, 1023114, 1023640, 1024160, 1024677]",28,R,ITM,1.1,
7,400,trial,0,51,51,51,trial,"['S', 'S', 'S', 'S', 'S', 'S', 'C', 'C', 'C', 'C', 'C', 'C', 'C', 'C', 'C', 'C', 'C', 'C', 'C', 'C', 'C', 'C']","[1031105, 1031516, 1031919, 1032311, 1032731, 1033128, 1033527, 1033890, 1034291, 1034690, 1035076, 1035481, 1035859, 1036257, 1036656, 1037038, 1037455, 1037813, 1038227, 1038629, 1038976, 1039406]","[1031191, 1031613, 1032020, 1032421, 1032847, 1033239, 1033631, 1034003, 1034405, 1034787, 1035187, 1035585, 1035980, 1036369, 1036786, 1037154, 1037561, 1037942, 1038331, 1038747, 1039093, 1039514]","[1030385, 1030785, 1031184, 1031584, 1031985, 1032384, 1032784, 1033184, 1033554, 1033917, 1034317, 1034717, 1035103, 1035508, 1035886, 1036283, 1036683, 1037066, 1037483, 1037840, 1038254, 1038656, 1039002, 1039432]",28,R,ITM,1.1,
5,400,trial,0,52,52,52,trial,"['S', 'S', 'S', 'S', 'S', 'S', 'S', 'C', 'C', 'C', 'C', 'C', 'C', 'C', 'C', 'C', 'C', 'C', 'C', 'C', 'C', 'C', 'C']","[1045520, 1045838, 1046226, 1046621, 1047025, 1047456, 1047856, 1048329, 1048689, 1049110, 1049492, 1049885, 1050287, 1050652, 1051065, 1051456, 1051831, 1052210, 1052655, 1052995, 1053375, 1053753, 1054114]","[1045624, 1045955, 1046342, 1046735, 1047151, 1047578, 1047998, 1048442, 1048826, 1049232, 1049610, 1049998, 1050392, 1050776, 1051170, 1051546, 1051933, 1052318, 1052746, 1053021, 1053488, 1053876, 1054220]","[1045131, 1045530, 1045931, 1046330, 1046730, 1047131, 1047530, 1047930, 1048354, 1048716, 1049136, 1049518, 1049911, 1050312, 1050678, 1051091, 1051483, 1051856, 1052235, 1052681, 1053021, 1053402, 1053778, 1054140]",28,R,ITM,1.1,
6,600,trial,0,53,53,53,trial,"['S', 'S', 'S', 'S', 'S', 'S', 'S', 'S', 'C', 'C', 'C', 'C', 'C', 'C', 'C', 'C', 'C', 'C', 'C', 'C', 'C', 'C', 'C', 'C']","[1059780, 1060163, 1060549, 1061085, 1061744, 1062312, 1062903, 1063499, 1064092, 1064634, 1065072, 1065607, 1066101, 1066550, 1067056, 1067582, 1068058, 1068591, 1069069, 1069566, 1070094, 1070576, 1071041, 1071549]","[1059890, 1060274, 1060662, 1061216, 1061831, 1062429, 1063010, 1063609, 1064218, 1064748, 1065205, 1065721, 1066207, 1066679, 1067172, 1067707, 1068207, 1068689, 1069186, 1069687, 1070187, 1070686, 1071162, 1071660]","[1059479, 1060079, 1060679, 1061279, 1061879, 1062479, 1063079, 1063680, 1064119, 1064660, 1065100, 1065633, 1066129, 1066577, 1067082, 1067610, 1068085, 1068617, 1069096, 1069593, 1070120, 1070603, 1071068, 1071576]",28,R,ITM,1.1,
3,600,trial,0,54,54,54,trial,"['S', 'S', 'S', 'S', 'S', 'S', 'S', 'C', 'C', 'C', 'C', 'C', 'C', 'C', 'C', 'C', 'C', 'C', 'C', 'C', 'C', 'C', 'C']","[1085243, 1085581, 1086119, 1086600, 1087198, 1087848, 1088397, 1088961, 1089525, 1090111, 1090678, 1091222, 1091829, 1092379, 1092926, 1093512, 1094092, 1094617, 1095170, 1095725, 1096271, 1096823, 1097336]","[1085345, 1085829, 1086221, 1086707, 1087315, 1087954, 1088515, 1089090, 1089659, 1090219, 1090805, 1091367, 1091937, 1092517, 1093063, 1093641, 1094217, 1094769, 1095309, 1095841, 1096400, 1096974, 1097482]","[1084275, 1084875, 1085475, 1086075, 1086675, 1087276, 1087876, 1088476, 1088987, 1089551, 1090137, 1090704, 1091248, 1091855, 1092405, 1092952, 1093537, 1094118, 1094642, 1095196, 1095750, 1096297, 1096849, 1097362]",28,R,ITM,1.1,
7,600,trial,0,55,55,55,trial,"['S', 'S', 'S', 'S', 'S', 'S', 'S', 'S', 'C', 'C', 'C', 'C', 'C', 'C', 'C', 'C', 'C', 'C', 'C', 'C', 'C', 'C', 'C', 'C']","[1103096, 1103419, 1103889, 1104493, 1105157, 1105767, 1106341, 1106958, 1107481, 1108108, 1108696, 1109286, 1109871, 1110460, 1111024, 1111647, 1112170, 1112767, 1113333, 1113911, 1114492, 1115064, 1115600, 1116155]","[1103217, 1103523, 1103976, 1104588, 1105249, 1105865, 1106436, 1107048, 1107578, 1108221, 1108833, 1109416, 1110028, 1110585, 1111164, 1111785, 1112316, 1112929, 1113527, 1114081, 1114625, 1115190, 1115750, 1116280]","[1102741, 1103340, 1103940, 1104540, 1105140, 1105740, 1106340, 1106940, 1107508, 1108134, 1108722, 1109314, 1109899, 1110487, 1111051, 1111673, 1112198, 1112794, 1113360, 1113938, 1114519, 1115091, 1115628, 1116183]",28,R,ITM,1.1,
5,600,trial,0,56,56,56,trial,"['S', 'S', 'S', 'S', 'S', 'S', 'S', 'S', 'C', 'C', 'C', 'C', 'C', 'C', 'C', 'C', 'C', 'C', 'C', 'C', 'C', 'C', 'C', 'C']","[1122278, 1122581, 1122964, 1123510, 1124140, 1124760, 1125376, 1125987, 1126630, 1127205, 1127774, 1128360, 1128963, 1129483, 1130066, 1130627, 1131195, 1131749, 1132323, 1132886, 1133386, 1133950, 1134474, 1135066]","[1122369, 1122688, 1123076, 1123587, 1124236, 1124875, 1125459, 1126102, 1126724, 1127329, 1127883, 1128469, 1129074, 1129598, 1130186, 1130755, 1131335, 1131884, 1132450, 1133002, 1133555, 1134111, 1134625, 1135199]","[1121876, 1122476, 1123076, 1123676, 1124275, 1124875, 1125475, 1126075, 1126656, 1127232, 1127800, 1128387, 1128989, 1129508, 1130092, 1130652, 1131220, 1131774, 1132349, 1132912, 1133412, 1133977, 1134499, 1135092]",28,R,ITM,1.1,
3,400,trial,0,57,57,57,trial,"['S', 'S', 'S', 'S', 'S', 'S', 'S', 'C', 'C', 'C', 'C', 'C', 'C', 'C', 'C', 'C', 'C', 'C', 'C', 'C', 'C', 'C', 'C']","[1141046, 1141412, 1141723, 1142038, 1142381, 1142792, 1143185, 1143627, 1144029, 1144426, 1144799, 1145190, 1145519, 1145949, 1146329, 1146716, 1147107, 1147476, 1147869, 1148266, 1148650, 1148987, 1149394]","[1141157, 1141507, 1141828, 1142163, 1142514, 1142903, 1143327, 1143772, 1144160, 1144539, 1144912, 1145321, 1145661, 1146068, 1146476, 1146859, 1147239, 1147609, 1148000, 1148394, 1148781, 1149129, 1149516]","[1140468, 1140868, 1141267, 1141667, 1142067, 1142467, 1142867, 1143267, 1143653, 1144054, 1144452, 1144824, 1145216, 1145544, 1145974, 1146354, 1146741, 1147132, 1147501, 1147894, 1148292, 1148676, 1149012, 1149420]",28,R,ITM,1.1,
6,600,trial,0,58,58,58,trial,"['S', 'S', 'S', 'S', 'S', 'S', 'S', 'S', 'C', 'C', 'C', 'C', 'C', 'C', 'C', 'C', 'C', 'C', 'C', 'C', 'C', 'C', 'C', 'C']","[1155229, 1155552, 1156066, 1156653, 1157273, 1157808, 1158438, 1159021, 1159630, 1160243, 1160769, 1161331, 1161916, 1162431, 1162990, 1163569, 1164081, 1164673, 1165238, 1165804, 1166302, 1166816, 1167408, 1167905]","[1155319, 1155656, 1156156, 1156741, 1157293, 1157918, 1158533, 1159131, 1159739, 1160337, 1160893, 1161452, 1162016, 1162565, 1163138, 1163687, 1164221, 1164778, 1165424, 1165972, 1166509, 1167037, 1167528, 1168022]","[1154903, 1155502, 1156102, 1156702, 1157302, 1157902, 1158502, 1159102, 1159657, 1160270, 1160796, 1161358, 1161943, 1162458, 1163018, 1163596, 1164107, 1164700, 1165264, 1165831, 1166329, 1166842, 1167434, 1167932]",28,R,ITM,1.1,
2,600,trial,0,59,59,59,trial,"['S', 'S', 'S', 'S', 'S', 'S', 'S', 'C', 'C', 'C', 'C', 'C', 'C', 'C', 'C', 'C', 'C', 'C', 'C', 'C', 'C', 'C', 'C']","[1174076, 1174614, 1175292, 1175710, 1176365, 1176953, 1177547, 1178087, 1178678, 1179261, 1179882, 1180376, 1180904, 1181477, 1182002, 1182539, 1183076, 1183605, 1184117, 1184706, 1185190, 1185713, 1186254]","[1174204, 1174758, 1175386, 1175849, 1176450, 1177046, 1177662, 1178215, 1178788, 1179342, 1180001, 1180489, 1181022, 1181590, 1182157, 1182664, 1183199, 1183720, 1184235, 1184819, 1185305, 1185836, 1186369]","[1173445, 1174045, 1174645, 1175245, 1175844, 1176445, 1177044, 1177646, 1178114, 1178705, 1179289, 1179910, 1180402, 1180932, 1181505, 1182028, 1182567, 1183102, 1183632, 1184144, 1184734, 1185218, 1185740, 1186281]",28,R,ITM,1.1,
2,600,trial,0,60,60,60,trial,"['S', 'S', 'S', 'S', 'S', 'S', 'S', 'C', 'C', 'C', 'C', 'C', 'C', 'C', 'C', 'C', 'C', 'C', 'C', 'C', 'C', 'C', 'C']","[1192321, 1192786, 1193407, 1194021, 1194587, 1195179, 1195810, 1196354, 1196941, 1197478, 1198064, 1198561, 1199043, 1199579, 1200104, 1200675, 1201227, 1201751, 1202331, 1202820, 1203376, 1203879, 1204432]","[1192412, 1192888, 1193530, 1194139, 1194719, 1195271, 1195921, 1196470, 1197053, 1197605, 1198163, 1198673, 1199180, 1199721, 1200237, 1200801, 1201353, 1201878, 1202452, 1202946, 1203486, 1204029, 1204564]","[1191641, 1192241, 1192841, 1193441, 1194041, 1194641, 1195241, 1195841, 1196382, 1196967, 1197506, 1198092, 1198587, 1199071, 1199606, 1200132, 1200703, 1201254, 1201777, 1202358, 1202847, 1203403, 1203906, 1204459]",28,R,ITM,1.1,
4,600,trial,0,61,61,61,trial,"['S', 'S', 'S', 'S', 'S', 'S', 'C', 'C', 'C', 'C', 'C', 'C', 'C', 'C', 'C', 'C', 'C', 'C', 'C', 'C', 'C', 'C']","[1211000, 1211540, 1212110, 1212655, 1213288, 1213932, 1214504, 1215119, 1215679, 1216216, 1216770, 1217355, 1217915, 1218535, 1219064, 1219623, 1220124, 1220673, 1221219, 1221758, 1222308, 1222872]","[1211094, 1211596, 1212186, 1212770, 1213396, 1214048, 1214628, 1215222, 1215800, 1216335, 1216891, 1217495, 1218062, 1218650, 1219187, 1219755, 1220270, 1220829, 1221374, 1221909, 1222455, 1222998]","[1209787, 1210386, 1210986, 1211586, 1212186, 1212786, 1213386, 1213986, 1214530, 1215144, 1215705, 1216241, 1216795, 1217381, 1217942, 1218561, 1219090, 1219650, 1220150, 1220699, 1221244, 1221783, 1222334, 1222897]",28,R,ITM,1.1,
5,600,trial,0,62,62,62,trial,"['S', 'S', 'S', 'S', 'S', 'S', 'S', 'S', 'C', 'C', 'C', 'C', 'C', 'C', 'C', 'C', 'C', 'C', 'C', 'C', 'C', 'C', 'C', 'C']","[1228993, 1229272, 1229759, 1230412, 1230955, 1231528, 1232107, 1232733, 1233354, 1234025, 1234528, 1235046, 1235618, 1236134, 1236712, 1237255, 1237765, 1238290, 1238847, 1239368, 1239821, 1240436, 1240927, 1241438]","[1229091, 1229386, 1229872, 1230544, 1231060, 1231671, 1232238, 1232840, 1233487, 1234132, 1234666, 1235207, 1235749, 1236296, 1236858, 1237396, 1237914, 1238433, 1238973, 1239485, 1239968, 1240556, 1241049, 1241463]","[1228673, 1229272, 1229872, 1230471, 1231071, 1231671, 1232271, 1232871, 1233380, 1234051, 1234554, 1235073, 1235644, 1236160, 1236738, 1237280, 1237790, 1238316, 1238873, 1239394, 1239846, 1240462, 1240952, 1241463]",28,R,ITM,1.1,
2,400,trial,0,63,63,63,trial,"['S', 'S', 'S', 'S', 'S', 'S', 'S', 'S', 'C', 'C', 'C', 'C', 'C', 'C', 'C', 'C', 'C', 'C', 'C', 'C', 'C', 'C', 'C', 'C']","[1247634, 1247931, 1248269, 1248369, 1248648, 1249016, 1249448, 1249813, 1250207, 1250619, 1251002, 1251375, 1251753, 1252132, 1252488, 1252856, 1253259, 1253627, 1254010, 1254407, 1254844, 1255184, 1255588, 1255980]","[1247732, 1248022, 1248289, 1248389, 1248739, 1249117, 1249562, 1249928, 1250328, 1250724, 1251111, 1251483, 1251864, 1252240, 1252609, 1252977, 1253364, 1253736, 1254122, 1254529, 1254959, 1255322, 1255683, 1256100]","[1247105, 1247504, 1247904, 1248304, 1248704, 1249104, 1249504, 1249904, 1250234, 1250647, 1251028, 1251401, 1251780, 1252160, 1252515, 1252883, 1253286, 1253654, 1254038, 1254433, 1254872, 1255212, 1255616, 1256007]",28,R,ITM,1.1,
5,400,trial,0,64,64,64,trial,"['S', 'S', 'S', 'S', 'S', 'S', 'C', 'C', 'C', 'C', 'C', 'C', 'C', 'C', 'C', 'C', 'C', 'C', 'C', 'C', 'C', 'C']","[1262083, 1262427, 1263023, 1263345, 1263676, 1264062, 1264521, 1264889, 1265265, 1265667, 1266034, 1266413, 1266786, 1267180, 1267580, 1267964, 1268338, 1268677, 1269054, 1269462, 1269835, 1270192]","[1262176, 1262507, 1263093, 1263429, 1263774, 1264179, 1264617, 1265002, 1265385, 1265776, 1266154, 1266533, 1266898, 1267296, 1267704, 1268091, 1268453, 1268791, 1269186, 1269573, 1269951, 1270327]","[1261478, 1261877, 1262277, 1262678, 1263077, 1263477, 1263878, 1264277, 1264546, 1264915, 1265291, 1265692, 1266060, 1266439, 1266812, 1267206, 1267606, 1267990, 1268365, 1268704, 1269080, 1269487, 1269861, 1270218]",28,R,ITM,1.1,
5,400,trial,0,65,65,65,trial,"['S', 'S', 'S', 'S', 'S', 'S', 'S', 'C', 'C', 'C', 'C', 'C', 'C', 'C', 'C', 'C', 'C', 'C', 'C', 'C', 'C', 'C', 'C']","[1276293, 1276623, 1276947, 1277276, 1277657, 1278060, 1278524, 1278879, 1279280, 1279643, 1280033, 1280453, 1280854, 1281236, 1281606, 1282012, 1282394, 1282786, 1283171, 1283552, 1283935, 1284327, 1284716]","[1276384, 1276703, 1277042, 1277382, 1277780, 1278182, 1278620, 1279000, 1279393, 1279759, 1280159, 1280565, 1280965, 1281361, 1281713, 1282118, 1282521, 1282894, 1283280, 1283667, 1284054, 1284442, 1284818]","[1275703, 1276102, 1276503, 1276902, 1277302, 1277703, 1278103, 1278503, 1278905, 1279306, 1279670, 1280059, 1280479, 1280879, 1281263, 1281633, 1282037, 1282419, 1282811, 1283196, 1283577, 1283960, 1284353, 1284743]",28,R,ITM,1.1,
3,600,trial,0,66,66,66,trial,"['S', 'S', 'S', 'S', 'S', 'S', 'C', 'C', 'C', 'C', 'C', 'C', 'C', 'C', 'C', 'C', 'C', 'C', 'C', 'C', 'C', 'C']","[1291551, 1292027, 1292627, 1293242, 1293783, 1294443, 1295000, 1295592, 1296151, 1296718, 1297280, 1297788, 1298393, 1298907, 1299429, 1299983, 1300532, 1301096, 1301583, 1302110, 1302686, 1303117]","[1291574, 1292089, 1292711, 1293338, 1293875, 1294536, 1295100, 1295704, 1296275, 1296822, 1297381, 1297888, 1298472, 1299003, 1299533, 1300082, 1300652, 1301181, 1301680, 1302213, 1302770, 1303238]","[1290288, 1290887, 1291487, 1292087, 1292687, 1293287, 1293887, 1294487, 1295026, 1295618, 1296177, 1296744, 1297305, 1297814, 1298418, 1298932, 1299454, 1300009, 1300557, 1301122, 1301609, 1302135, 1302712, 1303143]",28,R,ITM,1.1,
6,400,trial,0,67,67,67,trial,"['S', 'S', 'S', 'S', 'S', 'S', 'S', 'C', 'C', 'C', 'C', 'C', 'C', 'C', 'C', 'C', 'C', 'C', 'C', 'C', 'C', 'C', 'C']","[1308926, 1309302, 1309657, 1310038, 1310397, 1310823, 1311230, 1311678, 1312056, 1312446, 1312858, 1313249, 1313623, 1314026, 1314471, 1314840, 1315250, 1315623, 1316013, 1316383, 1316775, 1317152, 1317529]","[1309005, 1309373, 1309761, 1310162, 1310520, 1310966, 1311329, 1311788, 1312165, 1312561, 1312967, 1313354, 1313727, 1314148, 1314577, 1314952, 1315364, 1315742, 1316115, 1316512, 1316889, 1317263, 1317655]","[1308487, 1308887, 1309286, 1309686, 1310087, 1310486, 1310886, 1311286, 1311705, 1312083, 1312473, 1312885, 1313276, 1313649, 1314053, 1314498, 1314867, 1315277, 1315650, 1316039, 1316410, 1316803, 1317179, 1317557]",28,R,ITM,1.1,
6,400,trial,0,68,68,68,trial,"['S', 'S', 'S', 'S', 'S', 'S', 'S', 'C', 'C', 'C', 'C', 'C', 'C', 'C', 'C', 'C', 'C', 'C', 'C', 'C', 'C', 'C', 'C']","[1323247, 1323706, 1324080, 1324466, 1324841, 1325217, 1325605, 1326013, 1326389, 1326776, 1327162, 1327542, 1327917, 1328309, 1328690, 1329090, 1329457, 1329844, 1330270, 1330652, 1331011, 1331416, 1331815]","[1323331, 1323795, 1324175, 1324567, 1324951, 1325342, 1325743, 1326126, 1326498, 1326875, 1327265, 1327652, 1328034, 1328424, 1328803, 1329187, 1329586, 1329965, 1330357, 1330763, 1331147, 1331534, 1331936]","[1322931, 1323329, 1323729, 1324129, 1324529, 1324930, 1325329, 1325729, 1326040, 1326416, 1326802, 1327188, 1327569, 1327943, 1328336, 1328717, 1329117, 1329484, 1329871, 1330296, 1330678, 1331039, 1331442, 1331843]",28,R,ITM,1.1,
7,400,trial,0,69,69,69,trial,"['S', 'S', 'S', 'S', 'S', 'S', 'S', 'C', 'C', 'C', 'C', 'C', 'C', 'C', 'C', 'C', 'C', 'C', 'C', 'C', 'C', 'C', 'C']","[1337680, 1338043, 1338444, 1338809, 1339219, 1339643, 1340029, 1340432, 1340855, 1341217, 1341623, 1342013, 1342418, 1342814, 1343190, 1343569, 1343983, 1344375, 1344753, 1345148, 1345540, 1345934, 1346332]","[1337751, 1338121, 1338541, 1338916, 1339354, 1339754, 1340169, 1340529, 1340949, 1341356, 1341750, 1342134, 1342535, 1342932, 1343334, 1343719, 1344098, 1344491, 1344879, 1345262, 1345672, 1346063, 1346445]","[1337244, 1337644, 1338043, 1338443, 1338844, 1339243, 1339643, 1340043, 1340459, 1340881, 1341244, 1341649, 1342040, 1342446, 1342841, 1343216, 1343597, 1344010, 1344403, 1344781, 1345175, 1345566, 1345961, 1346360]",28,R,ITM,1.1,
6,600,trial,0,70,70,70,trial,"['S', 'S', 'S', 'S', 'S', 'S', 'S', 'C', 'C', 'C', 'C', 'C', 'C', 'C', 'C', 'C', 'C', 'C', 'C', 'C', 'C', 'C', 'C']","[1352078, 1352695, 1353327, 1353908, 1354520, 1355146, 1355794, 1356350, 1356946, 1357473, 1358042, 1358573, 1359132, 1359646, 1360225, 1360808, 1361416, 1361932, 1362514, 1363024, 1363582, 1364209, 1364708]","[1352171, 1352776, 1353418, 1354013, 1354609, 1355244, 1355893, 1356477, 1357039, 1357575, 1358142, 1358675, 1359224, 1359757, 1360313, 1360916, 1361509, 1362076, 1362605, 1363160, 1363716, 1364275, 1364809]","[1351689, 1352288, 1352888, 1353488, 1354088, 1354688, 1355288, 1355888, 1356377, 1356973, 1357500, 1358068, 1358601, 1359159, 1359673, 1360251, 1360836, 1361443, 1361958, 1362541, 1363052, 1363610, 1364237, 1364734]",28,R,ITM,1.1,
4,600,trial,0,71,71,71,trial,"['S', 'S', 'S', 'S', 'S', 'S', 'S', 'S', 'C', 'C', 'C', 'C', 'C', 'C', 'C', 'C', 'C', 'C', 'C', 'C', 'C', 'C', 'C', 'C']","[1370450, 1370748, 1371156, 1371728, 1372323, 1372932, 1373521, 1374086, 1374710, 1375245, 1375822, 1376349, 1376901, 1377525, 1378048, 1378575, 1379127, 1379787, 1380246, 1380783, 1381326, 1381830, 1382378, 1382891]","[1370554, 1370842, 1371270, 1371826, 1372412, 1373026, 1373614, 1374192, 1374809, 1375362, 1375917, 1376462, 1377013, 1377624, 1378152, 1378696, 1379260, 1379889, 1380408, 1380904, 1381449, 1381947, 1382469, 1382993]","[1370027, 1370627, 1371227, 1371826, 1372426, 1373026, 1373626, 1374226, 1374736, 1375270, 1375848, 1376374, 1376926, 1377551, 1378073, 1378600, 1379152, 1379813, 1380273, 1380808, 1381352, 1381856, 1382404, 1382917]",28,R,ITM,1.1,
4,400,trial,0,72,72,72,trial,"['S', 'S', 'S', 'S', 'S', 'S', 'S', 'C', 'C', 'C', 'C', 'C', 'C', 'C', 'C', 'C', 'C', 'C', 'C', 'C', 'C', 'C', 'C']","[1389106, 1389407, 1389731, 1390121, 1390430, 1390840, 1391229, 1391685, 1392028, 1392425, 1392806, 1393190, 1393607, 1393999, 1394364, 1394791, 1395174, 1395546, 1395933, 1396368, 1396768, 1397154, 1397556]","[1389178, 1389492, 1389841, 1390226, 1390529, 1390957, 1391337, 1391775, 1392159, 1392555, 1392940, 1393317, 1393711, 1394099, 1394489, 1394900, 1395291, 1395668, 1396036, 1396484, 1396876, 1397260, 1397655]","[1388608, 1389007, 1389407, 1389807, 1390208, 1390607, 1391007, 1391408, 1391711, 1392054, 1392451, 1392832, 1393216, 1393633, 1394025, 1394390, 1394817, 1395200, 1395571, 1395958, 1396393, 1396794, 1397180, 1397581]",28,R,ITM,1.1,
3,400,trial,0,73,73,73,trial,"['S', 'S', 'S', 'S', 'S', 'S', 'S', 'S', 'C', 'C', 'C', 'C', 'C', 'C', 'C', 'C', 'C', 'C', 'C', 'C', 'C', 'C', 'C', 'C']","[1403395, 1403726, 1404096, 1404407, 1404796, 1405193, 1405613, 1405998, 1406418, 1406754, 1407141, 1407508, 1407899, 1408292, 1408713, 1409091, 1409440, 1409837, 1410247, 1410644, 1411003, 1411403, 1411787, 1412191]","[1403503, 1403817, 1404217, 1404535, 1404932, 1405328, 1405722, 1406108, 1406518, 1406886, 1407250, 1407618, 1408004, 1408389, 1408808, 1409197, 1409564, 1409942, 1410352, 1410738, 1411117, 1411528, 1411909, 1412301]","[1402968, 1403367, 1403767, 1404167, 1404567, 1404967, 1405367, 1405767, 1406444, 1406780, 1407167, 1407534, 1407925, 1408319, 1408739, 1409117, 1409466, 1409862, 1410273, 1410670, 1411028, 1411429, 1411813, 1412216]",28,R,ITM,1.1,
2,400,trial,0,74,74,74,trial,"['S', 'S', 'C', 'C', 'C', 'C', 'C', 'C', 'C', 'C', 'C', 'C', 'C', 'C', 'C', 'C', 'C', 'C']","[1420332, 1420710, 1421113, 1421523, 1421948, 1422350, 1422744, 1423178, 1423554, 1423958, 1424359, 1424724, 1425134, 1425491, 1425890, 1426326, 1426714, 1427126]","[1420441, 1420811, 1421235, 1421651, 1422074, 1422482, 1422871, 1423286, 1423690, 1424084, 1424484, 1424845, 1425232, 1425606, 1426010, 1426436, 1426837, 1427235]","[1417991, 1418389, 1418789, 1419190, 1419589, 1419991, 1420390, 1420790, 1421139, 1421550, 1421976, 1422376, 1422772, 1423206, 1423581, 1423985, 1424386, 1424752, 1425162, 1425518, 1425917, 1426354, 1426742, 1427152]",28,R,ITM,1.1,
4,400,trial,0,75,75,75,trial,"['S', 'S', 'S', 'S', 'S', 'S', 'S', 'S', 'C', 'C', 'C', 'C', 'C', 'C', 'C', 'C', 'C', 'C', 'C', 'C', 'C', 'C', 'C', 'C']","[1432695, 1433204, 1433503, 1433804, 1434168, 1434510, 1434917, 1435294, 1435717, 1436094, 1436512, 1436890, 1437268, 1437665, 1438071, 1438433, 1438819, 1439211, 1439593, 1440003, 1440325, 1440722, 1441078, 1441520]","[1432764, 1433306, 1433580, 1433903, 1434257, 1434652, 1435028, 1435409, 1435829, 1436229, 1436620, 1437000, 1437381, 1437778, 1438187, 1438573, 1438944, 1439330, 1439721, 1440123, 1440453, 1440841, 1441221, 1441629]","[1432667, 1433066, 1433466, 1433866, 1434266, 1434667, 1435066, 1435466, 1435743, 1436121, 1436537, 1436915, 1437294, 1437690, 1438097, 1438458, 1438844, 1439237, 1439619, 1440028, 1440351, 1440748, 1441103, 1441546]",28,R,ITM,1.1,
7,400,trial,0,76,76,76,trial,"['S', 'S', 'S', 'S', 'S', 'S', 'S', 'C', 'C', 'C', 'C', 'C', 'C', 'C', 'C', 'C', 'C', 'C', 'C', 'C', 'C', 'C', 'C']","[1447344, 1447775, 1448125, 1448562, 1449014, 1449422, 1449826, 1450263, 1450660, 1451086, 1451501, 1451906, 1452333, 1452738, 1453153, 1453557, 1453973, 1454394, 1454843, 1455228, 1455659, 1456083, 1456465]","[1447456, 1447859, 1448217, 1448656, 1449100, 1449513, 1449930, 1450368, 1450805, 1451212, 1451608, 1452016, 1452454, 1452868, 1453274, 1453692, 1454106, 1454521, 1454959, 1455373, 1455791, 1456197, 1456590]","[1447057, 1447456, 1447857, 1448256, 1448656, 1449056, 1449456, 1449857, 1450291, 1450687, 1451114, 1451529, 1451933, 1452360, 1452766, 1453179, 1453585, 1454001, 1454422, 1454871, 1455256, 1455686, 1456110, 1456493]",28,R,ITM,1.1,
7,600,trial,0,77,77,77,trial,"['S', 'S', 'S', 'S', 'S', 'S', 'S', 'C', 'C', 'C', 'C', 'C', 'C', 'C', 'C', 'C', 'C', 'C', 'C', 'C', 'C', 'C', 'C', 'C']","[1462292, 1462921, 1463572, 1464142, 1464774, 1465382, 1466008, 1466520, 1467126, 1467680, 1468256, 1468829, 1469425, 1469995, 1470613, 1471172, 1471767, 1472316, 1472885, 1473474, 1473582, 1474002, 1474618, 1475206]","[1462390, 1463007, 1463627, 1464221, 1464870, 1465486, 1466096, 1466618, 1467237, 1467787, 1468383, 1468951, 1469504, 1470087, 1470728, 1471302, 1471897, 1472460, 1473013, 1473502, 1473602, 1474160, 1474739, 1475335]","[1461847, 1462447, 1463047, 1463646, 1464246, 1464846, 1465446, 1466046, 1466547, 1467154, 1467708, 1468283, 1468857, 1469452, 1470021, 1470640, 1471200, 1471795, 1472343, 1472913, 1473502, 1474029, 1474644, 1475232]",28,R,ITM,1.1,
4,600,trial,0,78,78,78,trial,"['S', 'S', 'S', 'S', 'S', 'S', 'S', 'C', 'C', 'C', 'C', 'C', 'C', 'C', 'C', 'C', 'C', 'C', 'C', 'C', 'C', 'C', 'C']","[1481576, 1482070, 1482642, 1483206, 1483758, 1484370, 1485017, 1485583, 1486141, 1486741, 1487316, 1487910, 1488450, 1489099, 1489632, 1490198, 1490709, 1491268, 1491864, 1492380, 1493017, 1493528, 1494094]","[1481646, 1482144, 1482733, 1483299, 1483864, 1484473, 1485100, 1485673, 1486261, 1486833, 1487420, 1488002, 1488564, 1489196, 1489763, 1490320, 1490834, 1491393, 1491975, 1492505, 1493116, 1493663, 1494215]","[1480897, 1481496, 1482096, 1482696, 1483296, 1483896, 1484496, 1485096, 1485609, 1486167, 1486767, 1487342, 1487937, 1488476, 1489126, 1489657, 1490224, 1490735, 1491294, 1491890, 1492406, 1493043, 1493554, 1494120]",28,R,ITM,1.1,
5,400,trial,0,79,79,79,trial,"['S', 'S', 'S', 'S', 'S', 'S', 'S', 'S', 'C', 'C', 'C', 'C', 'C', 'C', 'C', 'C', 'C', 'C', 'C', 'C', 'C', 'C', 'C', 'C']","[1500081, 1500349, 1500745, 1501044, 1501386, 1501732, 1502069, 1502452, 1502852, 1503235, 1503627, 1504016, 1504392, 1504773, 1505126, 1505544, 1505894, 1506246, 1506652, 1507028, 1507393, 1507779, 1508114, 1508533]","[1500168, 1500466, 1500765, 1501144, 1501462, 1501814, 1502172, 1502564, 1502972, 1503348, 1503728, 1504128, 1504494, 1504877, 1505253, 1505651, 1506032, 1506375, 1506783, 1507160, 1507515, 1507910, 1508265, 1508636]","[1499762, 1500162, 1500561, 1500961, 1501362, 1501762, 1502162, 1502562, 1502877, 1503260, 1503652, 1504043, 1504417, 1504798, 1505152, 1505569, 1505920, 1506273, 1506677, 1507053, 1507419, 1507805, 1508140, 1508559]",28,R,ITM,1.1,
5,600,trial,0,80,80,80,trial,"['S', 'S', 'S', 'S', 'S', 'S', 'S', 'S', 'C', 'C', 'C', 'C', 'C', 'C', 'C', 'C', 'C', 'C', 'C', 'C', 'C', 'C', 'C', 'C']","[1514490, 1514786, 1515175, 1515751, 1516298, 1516976, 1517553, 1518105, 1518630, 1519144, 1519677, 1520258, 1520790, 1521359, 1521950, 1522607, 1523145, 1523713, 1524308, 1524837, 1525425, 1526011, 1526577, 1527033]","[1514578, 1514876, 1515275, 1515845, 1516393, 1517060, 1517638, 1518202, 1518750, 1519258, 1519827, 1520398, 1520942, 1521481, 1522056, 1522708, 1523281, 1523861, 1524429, 1524964, 1525538, 1526111, 1526682, 1527161]","[1514002, 1514602, 1515202, 1515802, 1516402, 1517002, 1517602, 1518202, 1518656, 1519171, 1519703, 1520283, 1520816, 1521385, 1521977, 1522632, 1523171, 1523738, 1524335, 1524862, 1525450, 1526038, 1526602, 1527059]",28,R,ITM,1.1,
7,600,trial,0,81,81,81,trial,"['S', 'S', 'S', 'S', 'S', 'S', 'S', 'C', 'C', 'C', 'C', 'C', 'C', 'C', 'C', 'C', 'C', 'C', 'C', 'C', 'C', 'C', 'C']","[1533593, 1534010, 1534558, 1535118, 1535747, 1536335, 1536944, 1537593, 1538173, 1538767, 1539375, 1539933, 1540563, 1541132, 1541728, 1542310, 1542864, 1543443, 1544006, 1544570, 1545139, 1545646, 1546243]","[1533705, 1534125, 1534754, 1535416, 1535997, 1536711, 1537287, 1537917, 1538502, 1539108, 1539687, 1540291, 1540879, 1541446, 1542018, 1542619, 1543197, 1543697, 1544297, 1544840, 1545420, 1545951, 1546479]","[1532788, 1533387, 1533987, 1534587, 1535187, 1535788, 1536388, 1536988, 1537619, 1538201, 1538795, 1539401, 1539959, 1540590, 1541158, 1541754, 1542338, 1542891, 1543471, 1544034, 1544597, 1545165, 1545673, 1546269]",28,R,ITM,1.1,
3,400,trial,0,82,82,82,trial,"['S', 'S', 'S', 'S', 'C', 'C', 'C', 'C', 'C', 'C', 'C', 'C', 'C', 'C', 'C', 'C', 'C', 'C', 'C', 'C']","[1553202, 1553583, 1553935, 1554334, 1554711, 1555066, 1555469, 1555864, 1556247, 1556664, 1557064, 1557459, 1557850, 1558206, 1558615, 1559022, 1559386, 1559775, 1560167, 1560553]","[1553275, 1553668, 1554040, 1554449, 1554846, 1555209, 1555580, 1555989, 1556381, 1556771, 1557169, 1557572, 1557969, 1558342, 1558746, 1559133, 1559513, 1559912, 1560290, 1560686]","[1551612, 1552011, 1552411, 1552812, 1553211, 1553611, 1554012, 1554411, 1554737, 1555092, 1555494, 1555890, 1556273, 1556689, 1557090, 1557485, 1557875, 1558232, 1558640, 1559048, 1559411, 1559800, 1560193, 1560579]",28,R,ITM,1.1,
3,400,trial,0,83,83,83,trial,"['S', 'S', 'S', 'S', 'S', 'S', 'C', 'C', 'C', 'C', 'C', 'C', 'C', 'C', 'C', 'C', 'C', 'C', 'C', 'C', 'C', 'C']","[1566819, 1567207, 1567566, 1567948, 1568354, 1568765, 1569197, 1569594, 1570039, 1570414, 1570824, 1571204, 1571590, 1571989, 1572395, 1572781, 1573188, 1573573, 1573994, 1574376, 1574761, 1575164]","[1566916, 1567306, 1567685, 1568072, 1568493, 1568914, 1569333, 1569737, 1570160, 1570546, 1570955, 1571338, 1571721, 1572126, 1572519, 1572912, 1573319, 1573694, 1574073, 1574467, 1574881, 1575287]","[1566102, 1566501, 1566901, 1567301, 1567702, 1568101, 1568501, 1568902, 1569222, 1569619, 1570065, 1570440, 1570849, 1571229, 1571615, 1572015, 1572420, 1572806, 1573214, 1573599, 1574020, 1574402, 1574787, 1575190]",28,R,ITM,1.1,
6,400,trial,0,84,84,84,trial,"['S', 'S', 'S', 'S', 'S', 'S', 'S', 'C', 'C', 'C', 'C', 'C', 'C', 'C', 'C', 'C', 'C', 'C', 'C', 'C', 'C', 'C', 'C']","[1581233, 1581538, 1581852, 1582232, 1582612, 1583048, 1583449, 1583855, 1584256, 1584637, 1585030, 1585421, 1585771, 1586160, 1586568, 1586977, 1587364, 1587746, 1588150, 1588548, 1588910, 1589303, 1589681]","[1581312, 1581633, 1581959, 1582354, 1582738, 1583177, 1583563, 1584000, 1584391, 1584772, 1585143, 1585540, 1585909, 1586295, 1586701, 1587109, 1587494, 1587879, 1588267, 1588671, 1589053, 1589432, 1589789]","[1580739, 1581138, 1581538, 1581938, 1582339, 1582738, 1583138, 1583539, 1583882, 1584282, 1584664, 1585057, 1585448, 1585799, 1586187, 1586595, 1587004, 1587392, 1587774, 1588176, 1588575, 1588936, 1589329, 1589707]",28,R,ITM,1.1,
4,600,trial,0,85,85,85,trial,"['S', 'S', 'S', 'S', 'S', 'S', 'S', 'C', 'C', 'C', 'C', 'C', 'C', 'C', 'C', 'C', 'C', 'C', 'C', 'C', 'C', 'C', 'C']","[1595656, 1596212, 1596808, 1597423, 1598028, 1598596, 1599219, 1599796, 1600371, 1600946, 1601515, 1602069, 1602636, 1603130, 1603703, 1604186, 1604776, 1605311, 1605848, 1606361, 1606912, 1607479, 1608019]","[1595766, 1596313, 1596930, 1597530, 1598144, 1598722, 1599342, 1599923, 1600488, 1601049, 1601619, 1602181, 1602733, 1603247, 1603812, 1604346, 1604896, 1605449, 1605979, 1606503, 1607043, 1607600, 1608130]","[1595130, 1595729, 1596329, 1596930, 1597530, 1598130, 1598730, 1599330, 1599822, 1600397, 1600971, 1601541, 1602096, 1602662, 1603155, 1603729, 1604212, 1604802, 1605337, 1605873, 1606386, 1606937, 1607504, 1608045]",28,R,ITM,1.1,
4,400,trial,0,86,86,86,trial,"['S', 'S', 'S', 'S', 'S', 'S', 'S', 'S', 'C', 'C', 'C', 'C', 'C', 'C', 'C', 'C', 'C', 'C', 'C', 'C', 'C', 'C', 'C', 'C']","[1614253, 1614539, 1614851, 1615229, 1615555, 1615959, 1616385, 1616771, 1617146, 1617499, 1617891, 1618233, 1618610, 1618979, 1619330, 1619701, 1620089, 1620484, 1620871, 1621257, 1621640, 1622038, 1622427, 1622819]","[1614351, 1614639, 1614956, 1615335, 1615690, 1616102, 1616518, 1616897, 1617255, 1617630, 1617989, 1618355, 1618722, 1619048, 1619438, 1619806, 1620216, 1620603, 1620986, 1621378, 1621755, 1622164, 1622559, 1622956]","[1613755, 1614155, 1614556, 1614955, 1615355, 1615755, 1616155, 1616556, 1617172, 1617524, 1617916, 1618258, 1618635, 1619005, 1619355, 1619727, 1620115, 1620510, 1620896, 1621282, 1621665, 1622064, 1622453, 1622845]",28,R,ITM,1.1,
3,600,trial,0,87,87,87,trial,"['S', 'S', 'S', 'S', 'S', 'S', 'S', 'C', 'C', 'C', 'C', 'C', 'C', 'C', 'C', 'C', 'C', 'C', 'C', 'C', 'C', 'C', 'C']","[1628635, 1629259, 1629889, 1630411, 1631073, 1631684, 1632303, 1632867, 1633451, 1633974, 1634584, 1635102, 1635644, 1636202, 1636800, 1637296, 1637877, 1638400, 1638955, 1639502, 1640039, 1640609, 1641101]","[1628749, 1629361, 1629986, 1630526, 1631167, 1631800, 1632414, 1632987, 1633556, 1634094, 1634655, 1635207, 1635732, 1636289, 1636888, 1637412, 1637963, 1638521, 1639041, 1639570, 1640137, 1640704, 1641224]","[1628201, 1628801, 1629401, 1630001, 1630600, 1631200, 1631800, 1632400, 1632892, 1633476, 1633999, 1634610, 1635128, 1635670, 1636228, 1636826, 1637321, 1637903, 1638425, 1638980, 1639528, 1640065, 1640635, 1641126]",28,R,ITM,1.1,
7,400,trial,0,88,88,88,trial,"['S', 'S', 'S', 'S', 'S', 'S', 'S', 'C', 'C', 'C', 'C', 'C', 'C', 'C', 'C', 'C', 'C', 'C', 'C', 'C', 'C', 'C', 'C']","[1646981, 1647270, 1647650, 1648024, 1648418, 1648832, 1649235, 1649675, 1650084, 1650556, 1650922, 1651354, 1651757, 1652145, 1652526, 1652930, 1653328, 1653709, 1654110, 1654497, 1654875, 1655267, 1655657]","[1647053, 1647382, 1647749, 1648142, 1648540, 1648955, 1649368, 1649777, 1650206, 1650647, 1651057, 1651475, 1651854, 1652262, 1652654, 1653051, 1653445, 1653826, 1654227, 1654621, 1655003, 1655394, 1655789]","[1646511, 1646909, 1647309, 1647710, 1648110, 1648510, 1648910, 1649310, 1649702, 1650111, 1650584, 1650950, 1651381, 1651783, 1652172, 1652553, 1652957, 1653356, 1653737, 1654136, 1654524, 1654901, 1655294, 1655684]",28,R,ITM,1.1,
2,400,trial,0,89,89,89,trial,"['S', 'S', 'S', 'S', 'S', 'S', 'S', 'C', 'C', 'C', 'C', 'C', 'C', 'C', 'C', 'C', 'C', 'C', 'C', 'C', 'C', 'C', 'C']","[1661556, 1661857, 1662203, 1662576, 1662913, 1663326, 1663742, 1664138, 1664538, 1664912, 1665294, 1665686, 1666080, 1666465, 1666835, 1667221, 1667592, 1667951, 1668355, 1668759, 1669157, 1669548, 1669926]","[1661645, 1661958, 1662320, 1662684, 1663030, 1663457, 1663857, 1664279, 1664670, 1665036, 1665408, 1665800, 1666194, 1666580, 1666953, 1667343, 1667719, 1668081, 1668481, 1668888, 1669291, 1669670, 1670050]","[1661058, 1661457, 1661857, 1662258, 1662657, 1663057, 1663457, 1663857, 1664164, 1664566, 1664940, 1665321, 1665713, 1666107, 1666493, 1666862, 1667248, 1667619, 1667979, 1668381, 1668787, 1669185, 1669574, 1669954]",28,R,ITM,1.1,
2,600,trial,0,90,90,90,trial,"['S', 'S', 'S', 'S', 'S', 'S', 'S', 'C', 'C', 'C', 'C', 'C', 'C', 'C', 'C', 'C', 'C', 'C', 'C', 'C', 'C', 'C', 'C']","[1676055, 1676503, 1677136, 1677670, 1678268, 1678945, 1679485, 1680065, 1680644, 1681214, 1681801, 1682354, 1682948, 1683495, 1684054, 1684610, 1685188, 1685770, 1686307, 1686846, 1687430, 1687982, 1688539]","[1676160, 1676591, 1677209, 1677755, 1678363, 1679053, 1679606, 1680178, 1680768, 1681315, 1681918, 1682477, 1683058, 1683616, 1684179, 1684719, 1685286, 1685871, 1686420, 1686964, 1687538, 1688107, 1688650]","[1675336, 1675936, 1676536, 1677136, 1677736, 1678336, 1678937, 1679537, 1680093, 1680670, 1681241, 1681828, 1682381, 1682975, 1683522, 1684080, 1684637, 1685215, 1685796, 1686335, 1686874, 1687456, 1688008, 1688566]",28,R,ITM,1.1,
7,600,trial,0,91,91,91,trial,"['S', 'S', 'S', 'S', 'S', 'S', 'S', 'C', 'C', 'C', 'C', 'C', 'C', 'C', 'C', 'C', 'C', 'C', 'C', 'C', 'C', 'C', 'C']","[1694726, 1695361, 1695932, 1696552, 1697200, 1697851, 1698448, 1699068, 1699682, 1700246, 1700827, 1701456, 1702060, 1702602, 1703237, 1703842, 1704474, 1705085, 1705680, 1706302, 1706909, 1707485, 1708067]","[1694827, 1695452, 1696037, 1696651, 1697299, 1697921, 1698558, 1699174, 1699776, 1700370, 1700944, 1701568, 1702183, 1702744, 1703335, 1703956, 1704579, 1705207, 1705807, 1706428, 1707031, 1707623, 1708204]","[1694297, 1694896, 1695496, 1696096, 1696696, 1697296, 1697896, 1698496, 1699096, 1699708, 1700273, 1700853, 1701483, 1702086, 1702630, 1703264, 1703869, 1704501, 1705112, 1705707, 1706329, 1706936, 1707512, 1708094]",28,R,ITM,1.1,
6,600,trial,0,92,92,92,trial,"['S', 'S', 'S', 'S', 'S', 'S', 'S', 'C', 'C', 'C', 'C', 'C', 'C', 'C', 'C', 'C', 'C', 'C', 'C', 'C', 'C', 'C', 'C']","[1714427, 1714938, 1715572, 1716147, 1716786, 1717332, 1717959, 1718562, 1719176, 1719728, 1720329, 1720901, 1721509, 1722109, 1722683, 1723289, 1723923, 1724524, 1725107, 1725644, 1726237, 1726810, 1727430]","[1714522, 1715047, 1715667, 1716257, 1716901, 1717440, 1718065, 1718686, 1719300, 1719863, 1720440, 1721033, 1721621, 1722227, 1722811, 1723404, 1724049, 1724663, 1725233, 1725813, 1726372, 1726947, 1727564]","[1713816, 1714415, 1715015, 1715615, 1716215, 1716815, 1717415, 1718016, 1718589, 1719203, 1719755, 1720355, 1720928, 1721536, 1722136, 1722711, 1723316, 1723950, 1724552, 1725133, 1725671, 1726265, 1726837, 1727458]",28,R,ITM,1.1,
3,600,trial,0,93,93,93,trial,"['S', 'S', 'S', 'S', 'S', 'S', 'S', 'C', 'C', 'C', 'C', 'C', 'C', 'C', 'C', 'C', 'C', 'C', 'C', 'C', 'C', 'C', 'C']","[1733903, 1734415, 1734935, 1735518, 1736101, 1736729, 1737369, 1737935, 1738515, 1739062, 1739683, 1740232, 1740788, 1741355, 1741925, 1742521, 1743132, 1743723, 1744356, 1744932, 1745498, 1745987, 1746660]","[1733955, 1734507, 1735043, 1735616, 1736184, 1736850, 1737470, 1738064, 1738628, 1739177, 1739770, 1740328, 1740888, 1741467, 1742041, 1742621, 1743222, 1743835, 1744447, 1745051, 1745614, 1746110, 1746780]","[1733240, 1733840, 1734440, 1735041, 1735641, 1736241, 1736840, 1737440, 1737961, 1738541, 1739087, 1739709, 1740258, 1740814, 1741380, 1741950, 1742546, 1743158, 1743749, 1744381, 1744958, 1745523, 1746013, 1746685]",28,R,ITM,1.1,
5,400,trial,0,94,94,94,trial,"['S', 'S', 'S', 'S', 'S', 'S', 'S', 'C', 'C', 'C', 'C', 'C', 'C', 'C', 'C', 'C', 'C', 'C', 'C', 'C', 'C', 'C', 'C']","[1752639, 1752925, 1753194, 1753517, 1753913, 1754278, 1754680, 1755096, 1755465, 1755820, 1756170, 1756581, 1756958, 1757337, 1757706, 1758096, 1758458, 1758830, 1759198, 1759572, 1759972, 1760354, 1760778]","[1752682, 1753006, 1753287, 1753616, 1754024, 1754390, 1754793, 1755228, 1755597, 1755941, 1756304, 1756701, 1757085, 1757449, 1757834, 1758217, 1758583, 1758955, 1759326, 1759713, 1760107, 1760467, 1760898]","[1752026, 1752424, 1752824, 1753224, 1753624, 1754024, 1754424, 1754824, 1755121, 1755492, 1755845, 1756195, 1756607, 1756984, 1757364, 1757731, 1758121, 1758484, 1758856, 1759223, 1759598, 1759997, 1760379, 1760804]",28,R,ITM,1.1,
7,400,trial,0,95,95,95,trial,"['S', 'S', 'S', 'S', 'S', 'S', 'S', 'C', 'C', 'C', 'C', 'C', 'C', 'C', 'C', 'C', 'C', 'C', 'C', 'C', 'C', 'C', 'C']","[1766896, 1767215, 1767487, 1767872, 1768255, 1768664, 1769060, 1769491, 1769881, 1770289, 1770694, 1771101, 1771482, 1771867, 1772274, 1772658, 1773044, 1773454, 1773865, 1774244, 1774631, 1775046, 1775431]","[1766962, 1767292, 1767602, 1767989, 1768389, 1768799, 1769191, 1769612, 1770013, 1770409, 1770813, 1771227, 1771620, 1772005, 1772393, 1772782, 1773173, 1773582, 1773974, 1774379, 1774756, 1775169, 1775560]","[1766364, 1766763, 1767163, 1767563, 1767963, 1768364, 1768763, 1769163, 1769518, 1769908, 1770315, 1770722, 1771128, 1771508, 1771893, 1772302, 1772686, 1773071, 1773481, 1773891, 1774271, 1774658, 1775073, 1775459]",28,R,ITM,1.1,
6,600,trial,0,96,96,96,trial,"['S', 'S', 'S', 'S', 'S', 'S', 'S', 'C', 'C', 'C', 'C', 'C', 'C', 'C', 'C', 'C', 'C', 'C', 'C', 'C', 'C', 'C', 'C']","[1781567, 1782135, 1782782, 1783376, 1783967, 1784610, 1785210, 1785803, 1786384, 1786974, 1787565, 1788143, 1788726, 1789314, 1789868, 1790445, 1791043, 1791640, 1792185, 1792721, 1793269, 1793808, 1794394]","[1781684, 1782255, 1782889, 1783485, 1784077, 1784731, 1785323, 1785910, 1786510, 1787109, 1787692, 1788272, 1788848, 1789448, 1789986, 1790563, 1791196, 1791826, 1792319, 1792935, 1793496, 1794078]","[1781010, 1781610, 1782210, 1782810, 1783410, 1784010, 1784610, 1785210, 1785830, 1786412, 1787000, 1787591, 1788170, 1788752, 1789340, 1789894, 1790473, 1791070, 1791667, 1792212, 1792748, 1793296, 1793835, 1794420]",28,R,ITM,1.1,
2,600,trial,0,97,97,97,trial,"['S', 'S', 'S', 'S', 'S', 'S', 'S', 'S', 'C', 'C', 'C', 'C', 'C', 'C', 'C', 'C', 'C', 'C', 'C', 'C', 'C', 'C', 'C', 'C']","[1800071, 1800373, 1800942, 1801566, 1802109, 1802761, 1803325, 1803942, 1804510, 1805113, 1805642, 1806219, 1806749, 1807307, 1807884, 1808472, 1809037, 1809585, 1810166, 1810714, 1811266, 1811812, 1812369, 1812947]","[1800188, 1800501, 1801062, 1801654, 1802221, 1802877, 1803450, 1804051, 1804662, 1805248, 1805770, 1806310, 1806894, 1807428, 1808000, 1808577, 1809136, 1809708, 1810301, 1810826, 1811396, 1811942, 1812528, 1813082]","[1799819, 1800419, 1801018, 1801619, 1802218, 1802819, 1803419, 1804019, 1804536, 1805140, 1805669, 1806246, 1806777, 1807334, 1807911, 1808498, 1809064, 1809611, 1810193, 1810742, 1811294, 1811840, 1812397, 1812975]",28,R,ITM,1.1,
4,400,trial,0,98,98,98,trial,"['S', 'S', 'S', 'S', 'S', 'S', 'S', 'S', 'C', 'C', 'C', 'C', 'C', 'C', 'C', 'C', 'C', 'C', 'C', 'C', 'C', 'C', 'C', 'C']","[1818850, 1819123, 1819422, 1819786, 1820149, 1820524, 1820877, 1821195, 1821550, 1821932, 1822285, 1822675, 1823093, 1823476, 1823896, 1824311, 1824709, 1825090, 1825497, 1825920, 1826310, 1826692, 1827109, 1827503]","[1818890, 1819212, 1819527, 1819911, 1820263, 1820636, 1820994, 1821312, 1821663, 1822038, 1822417, 1822784, 1823196, 1823598, 1824010, 1824423, 1824829, 1825216, 1825624, 1826038, 1826423, 1826823, 1827229, 1827612]","[1818396, 1818796, 1819195, 1819595, 1819996, 1820395, 1820795, 1821195, 1821577, 1821958, 1822311, 1822701, 1823119, 1823502, 1823922, 1824336, 1824736, 1825116, 1825522, 1825945, 1826335, 1826717, 1827135, 1827528]",28,R,ITM,1.1,
5,600,trial,0,99,99,99,trial,"['S', 'S', 'S', 'S', 'S', 'S', 'S', 'S', 'C', 'C', 'C', 'C', 'C', 'C', 'C', 'C', 'C', 'C', 'C', 'C', 'C', 'C', 'C', 'C']","[1833568, 1833876, 1834296, 1834867, 1835474, 1836068, 1836680, 1837233, 1837842, 1838393, 1838951, 1839540, 1840047, 1840628, 1841167, 1841722, 1842330, 1842843, 1843368, 1843913, 1844476, 1845001, 1845594, 1846073]","[1833682, 1834009, 1834451, 1834996, 1835575, 1836173, 1836770, 1837386, 1837962, 1838522, 1839072, 1839665, 1840182, 1840754, 1841314, 1841827, 1842435, 1842966, 1843494, 1844039, 1844577, 1845137, 1845713, 1846236]","[1833187, 1833786, 1834386, 1834986, 1835586, 1836186, 1836786, 1837386, 1837869, 1838418, 1838978, 1839566, 1840072, 1840654, 1841192, 1841748, 1842356, 1842869, 1843395, 1843939, 1844502, 1845027, 1845619, 1846098]",28,R,ITM,1.1,
6,400,trial,0,100,100,100,trial,"['S', 'S', 'S', 'S', 'S', 'S', 'C', 'C', 'C', 'C', 'C', 'C', 'C', 'C', 'C', 'C', 'C', 'C', 'C', 'C', 'C', 'C']","[1852516, 1852796, 1853117, 1853485, 1853880, 1854257, 1854683, 1855065, 1855460, 1855856, 1856231, 1856629, 1857005, 1857398, 1857769, 1858142, 1858518, 1858902, 1859290, 1859703, 1860071, 1860420]","[1852611, 1852896, 1853221, 1853597, 1854005, 1854376, 1854806, 1855193, 1855589, 1855982, 1856369, 1856755, 1857141, 1857534, 1857925, 1858257, 1858652, 1859018, 1859423, 1859825, 1860203, 1860574]","[1851573, 1851972, 1852372, 1852772, 1853172, 1853573, 1853972, 1854372, 1854709, 1855091, 1855488, 1855884, 1856258, 1856656, 1857033, 1857426, 1857796, 1858168, 1858544, 1858928, 1859317, 1859730, 1860098, 1860447]",28,R,ITM,1.1,
2,400,trial,0,101,101,101,trial,"['S', 'S', 'S', 'S', 'S', 'S', 'S', 'C', 'C', 'C', 'C', 'C', 'C', 'C', 'C', 'C', 'C', 'C', 'C', 'C', 'C', 'C', 'C']","[1866275, 1866594, 1866962, 1867343, 1867724, 1868145, 1868561, 1869004, 1869419, 1869836, 1870229, 1870640, 1871057, 1871464, 1871891, 1872302, 1872728, 1873152, 1873536, 1873951, 1874377, 1874755, 1875193]","[1866354, 1866714, 1867073, 1867463, 1867856, 1868253, 1868694, 1869122, 1869552, 1869941, 1870345, 1870768, 1871173, 1871590, 1872005, 1872431, 1872846, 1873270, 1873676, 1874096, 1874504, 1874882, 1875316]","[1865844, 1866245, 1866644, 1867043, 1867444, 1867843, 1868244, 1868644, 1869032, 1869446, 1869863, 1870256, 1870666, 1871084, 1871492, 1871918, 1872328, 1872754, 1873178, 1873563, 1873979, 1874404, 1874782, 1875221]",28,R,ITM,1.1,
7,600,trial,0,102,102,102,trial,"['S', 'S', 'S', 'S', 'S', 'S', 'S', 'C', 'C', 'C', 'C', 'C', 'C', 'C', 'C', 'C', 'C', 'C', 'C', 'C', 'C', 'C', 'C']","[1881321, 1881886, 1882441, 1883061, 1883662, 1884270, 1884912, 1885508, 1886047, 1886636, 1887230, 1887780, 1888357, 1888939, 1889529, 1890137, 1890680, 1891244, 1891787, 1892329, 1892914, 1893490, 1894088]","[1881501, 1882245, 1882767, 1883415, 1884049, 1884634, 1885229, 1885824, 1886405, 1886962, 1887519, 1888118, 1888728, 1889296, 1889844, 1890496, 1891001, 1891578, 1892087, 1892670, 1893241, 1893839]","[1880750, 1881349, 1881949, 1882548, 1883148, 1883748, 1884348, 1884948, 1885535, 1886074, 1886663, 1887257, 1887807, 1888385, 1888966, 1889557, 1890163, 1890707, 1891270, 1891815, 1892356, 1892940, 1893517, 1894116]",28,R,ITM,1.1,
4,600,trial,0,103,103,103,trial,"['S', 'S', 'S', 'S', 'S', 'S', 'S', 'C', 'C', 'C', 'C', 'C', 'C', 'C', 'C', 'C', 'C', 'C', 'C', 'C', 'C', 'C', 'C']","[1900215, 1900742, 1901346, 1901940, 1902550, 1903138, 1903792, 1904387, 1904982, 1905556, 1906122, 1906695, 1907286, 1907844, 1908447, 1908989, 1909571, 1910118, 1910683, 1911274, 1911806, 1912328, 1912943]","[1900348, 1901068, 1901675, 1902244, 1902878, 1903442, 1904113, 1904712, 1905302, 1905843, 1906479, 1907018, 1907640, 1908225, 1908776, 1909321, 1909879, 1910450, 1911035, 1911583, 1912108, 1912687]","[1899737, 1900336, 1900935, 1901535, 1902135, 1902735, 1903335, 1903935, 1904412, 1905007, 1905582, 1906148, 1906720, 1907311, 1907869, 1908473, 1909015, 1909597, 1910144, 1910710, 1911300, 1911832, 1912353, 1912969]",28,R,ITM,1.1,
5,400,trial,0,104,104,104,trial,"['S', 'S', 'S', 'S', 'S', 'S', 'C', 'C', 'C', 'C', 'C', 'C', 'C', 'C', 'C', 'C', 'C', 'C', 'C', 'C', 'C', 'C']","[1919131, 1919489, 1919863, 1920234, 1920644, 1921080, 1921504, 1921920, 1922322, 1922711, 1923105, 1923513, 1923900, 1924324, 1924779, 1925151, 1925537, 1925944, 1926332, 1926756, 1927142, 1927516]","[1919223, 1919586, 1919977, 1920373, 1920786, 1921187, 1921631, 1922067, 1922454, 1922843, 1923239, 1923638, 1924037, 1924453, 1924887, 1925289, 1925671, 1926068, 1926460, 1926873, 1927268, 1927651]","[1918368, 1918768, 1919167, 1919567, 1919967, 1920367, 1920768, 1921167, 1921529, 1921946, 1922348, 1922737, 1923132, 1923538, 1923926, 1924350, 1924804, 1925177, 1925563, 1925969, 1926358, 1926781, 1927169, 1927541]",28,R,ITM,1.1,
5,600,trial,0,105,105,105,trial,"['S', 'S', 'S', 'S', 'S', 'S', 'S', 'C', 'C', 'C', 'C', 'C', 'C', 'C', 'C', 'C', 'C', 'C', 'C', 'C', 'C', 'C', 'C']","[1933420, 1934022, 1934643, 1935201, 1935838, 1936392, 1936992, 1937504, 1938112, 1938657, 1939196, 1939776, 1940367, 1940908, 1941480, 1942018, 1942602, 1943179, 1943759, 1944321, 1944846, 1945440, 1945967]","[1933548, 1934239, 1934793, 1935354, 1935997, 1936552, 1937141, 1937685, 1938270, 1938837, 1939376, 1939936, 1940521, 1941073, 1941693, 1942248, 1942838, 1943421, 1944028, 1944610, 1945105, 1945734, 1946194]","[1932865, 1933464, 1934064, 1934664, 1935264, 1935864, 1936464, 1937064, 1937529, 1938138, 1938682, 1939222, 1939802, 1940392, 1940933, 1941507, 1942043, 1942628, 1943205, 1943785, 1944346, 1944872, 1945465, 1945994]",28,R,ITM,1.1,
4,400,trial,0,106,106,106,trial,"['S', 'S', 'S', 'S', 'S', 'S', 'S', 'C', 'C', 'C', 'C', 'C', 'C', 'C', 'C', 'C', 'C', 'C', 'C', 'C', 'C', 'C', 'C']","[1952438, 1952762, 1953105, 1953378, 1953720, 1954076, 1954458, 1954900, 1955291, 1955694, 1956090, 1956472, 1956885, 1957299, 1957683, 1958084, 1958479, 1958871, 1959275, 1959672, 1960067, 1960473, 1960856]","[1952530, 1952852, 1953216, 1953505, 1953839, 1954178, 1954576, 1955011, 1955417, 1955826, 1956221, 1956604, 1956998, 1957426, 1957825, 1958227, 1958608, 1959008, 1959390, 1959820, 1960210, 1960600, 1960987]","[1951757, 1952156, 1952557, 1952956, 1953356, 1953757, 1954157, 1954557, 1954926, 1955316, 1955720, 1956116, 1956498, 1956911, 1957324, 1957708, 1958110, 1958505, 1958896, 1959301, 1959698, 1960092, 1960500, 1960882]",28,R,ITM,1.1,
4,400,trial,0,107,107,107,trial,"['S', 'S', 'S', 'S', 'S', 'S', 'S', 'C', 'C', 'C', 'C', 'C', 'C', 'C', 'C', 'C', 'C', 'C', 'C', 'C', 'C', 'C', 'C']","[1966849, 1967131, 1967482, 1967859, 1968259, 1968678, 1969113, 1969504, 1969895, 1970315, 1970711, 1971124, 1971514, 1971945, 1972341, 1972755, 1973148, 1973540, 1973957, 1974424, 1974795, 1975175, 1975580]","[1966949, 1967252, 1967586, 1967985, 1968392, 1968806, 1969230, 1969620, 1970023, 1970441, 1970844, 1971261, 1971634, 1972074, 1972476, 1972871, 1973273, 1973683, 1974088, 1974509, 1974898, 1975290, 1975692]","[1966332, 1966731, 1967131, 1967532, 1967931, 1968331, 1968732, 1969131, 1969529, 1969921, 1970340, 1970737, 1971149, 1971539, 1971972, 1972367, 1972781, 1973174, 1973566, 1973983, 1974450, 1974820, 1975200, 1975606]",28,R,ITM,1.1,
6,600,trial,0,108,108,108,trial,"['S', 'S', 'S', 'S', 'S', 'S', 'S', 'S', 'C', 'C', 'C', 'C', 'C', 'C', 'C', 'C', 'C', 'C', 'C', 'C', 'C', 'C', 'C', 'C']","[1981423, 1982046, 1982733, 1983248, 1983625, 1983949, 1984481, 1985082, 1985695, 1986247, 1986879, 1987469, 1988071, 1988720, 1989230, 1989812, 1990359, 1990937, 1991536, 1992091, 1992680, 1993236, 1993799, 1994318]","[1981520, 1982135, 1982822, 1983364, 1983719, 1984106, 1984633, 1985213, 1985833, 1986384, 1987003, 1987596, 1988194, 1988799, 1989398, 1989963, 1990542, 1991108, 1991694, 1992286, 1992839, 1993419, 1993975, 1994532]","[1981050, 1981649, 1982249, 1982850, 1983450, 1984050, 1984649, 1985249, 1985722, 1986274, 1986906, 1987496, 1988098, 1988747, 1989257, 1989838, 1990386, 1990965, 1991563, 1992118, 1992708, 1993264, 1993826, 1994345]",28,R,ITM,1.1,
6,400,trial,0,109,109,109,trial,"['S', 'S', 'S', 'S', 'S', 'S', 'S', 'C', 'C', 'C', 'C', 'C', 'C', 'C', 'C', 'C', 'C', 'C', 'C', 'C', 'C', 'C', 'C']","[2000110, 2000407, 2000762, 2001178, 2001532, 2001973, 2002393, 2002836, 2003231, 2003629, 2004037, 2004427, 2004870, 2005269, 2005644, 2006044, 2006493, 2006883, 2007260, 2007667, 2008083, 2008469, 2008846]","[2000209, 2000529, 2000875, 2001299, 2001659, 2002099, 2002513, 2002960, 2003353, 2003753, 2004165, 2004563, 2004983, 2005392, 2005797, 2006194, 2006610, 2007013, 2007420, 2007796, 2008211, 2008593, 2008999]","[1999700, 2000099, 2000499, 2000900, 2001299, 2001699, 2002099, 2002499, 2002864, 2003258, 2003656, 2004064, 2004454, 2004896, 2005296, 2005671, 2006071, 2006520, 2006909, 2007286, 2007694, 2008110, 2008496, 2008872]",28,R,ITM,1.1,
6,600,trial,0,110,110,110,trial,"['S', 'S', 'S', 'S', 'S', 'S', 'S', 'S', 'C', 'C', 'C', 'C', 'C', 'C', 'C', 'C', 'C', 'C', 'C', 'C', 'C', 'C', 'C', 'C']","[2014670, 2015055, 2015449, 2016004, 2016565, 2017197, 2017817, 2018427, 2019053, 2019653, 2020261, 2020870, 2021485, 2022094, 2022732, 2023306, 2023934, 2024531, 2025157, 2025759, 2026355, 2026924, 2027517, 2028133]","[2014803, 2015201, 2015670, 2016277, 2016949, 2017602, 2018204, 2018853, 2019409, 2020042, 2020697, 2021219, 2021839, 2022476, 2023080, 2023659, 2024256, 2024888, 2025509, 2026083, 2026693, 2027325, 2027912]","[2014279, 2014878, 2015478, 2016078, 2016678, 2017278, 2017879, 2018479, 2019080, 2019680, 2020288, 2020896, 2021512, 2022121, 2022759, 2023333, 2023961, 2024558, 2025184, 2025786, 2026382, 2026950, 2027545, 2028160]",28,R,ITM,1.1,
7,400,trial,0,111,111,111,trial,"['S', 'S', 'S', 'S', 'S', 'S', 'S', 'C', 'C', 'C', 'C', 'C', 'C', 'C', 'C', 'C', 'C', 'C', 'C', 'C', 'C', 'C', 'C']","[2034351, 2034710, 2035044, 2035412, 2035836, 2036265, 2036643, 2037060, 2037446, 2037830, 2038237, 2038627, 2039007, 2039395, 2039786, 2040197, 2040587, 2040972, 2041388, 2041798, 2042202, 2042600, 2043014]","[2034455, 2034828, 2035163, 2035550, 2035951, 2036384, 2036773, 2037192, 2037578, 2037968, 2038351, 2038739, 2039129, 2039519, 2039914, 2040310, 2040704, 2041107, 2041515, 2041925, 2042335, 2042750, 2043197]","[2033949, 2034349, 2034748, 2035148, 2035549, 2035948, 2036348, 2036748, 2037088, 2037473, 2037858, 2038263, 2038653, 2039033, 2039421, 2039814, 2040223, 2040614, 2040999, 2041415, 2041826, 2042229, 2042628, 2043041]",28,R,ITM,1.1,
4,600,trial,0,112,112,112,trial,"['S', 'S', 'S', 'S', 'S', 'S', 'S', 'C', 'C', 'C', 'C', 'C', 'C', 'C', 'C', 'C', 'C', 'C', 'C', 'C', 'C', 'C', 'C']","[2049491, 2049907, 2050507, 2051045, 2051592, 2052190, 2052785, 2053332, 2053883, 2054479, 2055064, 2055645, 2056224, 2056803, 2057331, 2057895, 2058459, 2059024, 2059595, 2060187, 2060716, 2061284, 2061881]","[2049595, 2050028, 2050637, 2051171, 2051733, 2052328, 2052924, 2053484, 2054032, 2054611, 2055225, 2055774, 2056365, 2056956, 2057533, 2058134, 2058736, 2059296, 2059911, 2060478, 2061031, 2061643]","[2048669, 2049268, 2049868, 2050468, 2051068, 2051668, 2052269, 2052869, 2053358, 2053909, 2054505, 2055091, 2055670, 2056250, 2056828, 2057358, 2057921, 2058484, 2059049, 2059621, 2060213, 2060741, 2061309, 2061907]",28,R,ITM,1.1,
2,400,trial,0,113,113,113,trial,"['S', 'S', 'S', 'S', 'S', 'S', 'S', 'C', 'C', 'C', 'C', 'C', 'C', 'C', 'C', 'C', 'C', 'C', 'C', 'C', 'C', 'C', 'C']","[2067683, 2067992, 2068357, 2068743, 2069212, 2069570, 2069955, 2070404, 2070803, 2071222, 2071603, 2072011, 2072414, 2072830, 2073235, 2073652, 2074048, 2074466, 2074900, 2075316, 2075694, 2076096, 2076515]","[2067806, 2068115, 2068467, 2068871, 2069322, 2069701, 2070091, 2070526, 2070947, 2071354, 2071747, 2072156, 2072584, 2072969, 2073360, 2073775, 2074196, 2074625, 2075019, 2075446, 2075870, 2076284, 2076649]","[2067236, 2067636, 2068036, 2068435, 2068836, 2069236, 2069637, 2070036, 2070430, 2070831, 2071248, 2071630, 2072038, 2072441, 2072858, 2073263, 2073678, 2074076, 2074493, 2074927, 2075342, 2075720, 2076124, 2076542]",28,R,ITM,1.1,
3,600,trial,0,114,114,114,trial,"['S', 'S', 'S', 'S', 'S', 'S', 'S', 'S', 'C', 'C', 'C', 'C', 'C', 'C', 'C', 'C', 'C', 'C', 'C', 'C', 'C', 'C', 'C', 'C']","[2082658, 2083041, 2083446, 2083965, 2084513, 2085140, 2085747, 2086350, 2086977, 2087536, 2088175, 2088805, 2089387, 2089992, 2090552, 2091109, 2091748, 2092359, 2092962, 2093504, 2094076, 2094584, 2095249, 2095765]","[2082768, 2083183, 2083614, 2084253, 2084876, 2085474, 2086068, 2086723, 2087306, 2087907, 2088522, 2089129, 2089720, 2090300, 2090867, 2091430, 2092055, 2092650, 2093248, 2093847, 2094355, 2094938, 2095501]","[2082246, 2082846, 2083446, 2084046, 2084646, 2085246, 2085847, 2086447, 2087003, 2087562, 2088201, 2088830, 2089412, 2090017, 2090577, 2091134, 2091773, 2092385, 2092988, 2093530, 2094102, 2094610, 2095275, 2095791]",28,R,ITM,1.1,
2,400,trial,0,115,115,115,trial,"['S', 'S', 'S', 'S', 'S', 'S', 'S', 'C', 'C', 'C', 'C', 'C', 'C', 'C', 'C', 'C', 'C', 'C', 'C', 'C', 'C', 'C', 'C']","[2101882, 2102238, 2102560, 2102952, 2103349, 2103731, 2104154, 2104602, 2105016, 2105412, 2105810, 2106219, 2106630, 2107015, 2107442, 2107854, 2108237, 2108670, 2109063, 2109473, 2109879, 2110291, 2110699]","[2101957, 2102333, 2102680, 2103077, 2103465, 2103864, 2104298, 2104735, 2105146, 2105554, 2105945, 2106371, 2106768, 2107176, 2107579, 2107991, 2108386, 2108815, 2109213, 2109627, 2110027, 2110443, 2110867]","[2101425, 2101824, 2102224, 2102624, 2103024, 2103425, 2103824, 2104224, 2104630, 2105042, 2105440, 2105837, 2106246, 2106657, 2107042, 2107468, 2107882, 2108264, 2108698, 2109090, 2109500, 2109905, 2110318, 2110727]",28,R,ITM,1.1,
5,600,trial,0,116,116,116,trial,"['S', 'S', 'S', 'S', 'S', 'S', 'S', 'S', 'C', 'C', 'C', 'C', 'C', 'C', 'C', 'C', 'C', 'C', 'C', 'C', 'C', 'C', 'C', 'C']","[2116758, 2117113, 2117521, 2118117, 2118661, 2119276, 2119889, 2120530, 2121154, 2121738, 2122350, 2122961, 2123566, 2124108, 2124716, 2125319, 2125903, 2126582, 2127087, 2127682, 2128229, 2128822, 2129317, 2129871]","[2116849, 2117231, 2117656, 2118410, 2119061, 2119642, 2120273, 2120902, 2121506, 2122121, 2122712, 2123277, 2123891, 2124397, 2125040, 2125643, 2126226, 2126896, 2127432, 2127964, 2128529, 2129093, 2129623]","[2116376, 2116976, 2117576, 2118176, 2118776, 2119376, 2119976, 2120577, 2121181, 2121764, 2122376, 2122988, 2123592, 2124134, 2124741, 2125344, 2125929, 2126608, 2127113, 2127709, 2128256, 2128848, 2129343, 2129898]",28,R,ITM,1.1,
6,400,trial,0,117,117,117,trial,"['S', 'S', 'S', 'S', 'S', 'S', 'S', 'S', 'C', 'C', 'C', 'C', 'C', 'C', 'C', 'C', 'C', 'C', 'C', 'C', 'C', 'C', 'C', 'C']","[2135767, 2136049, 2136344, 2136697, 2137071, 2137492, 2137863, 2138290, 2138715, 2139082, 2139461, 2139828, 2140214, 2140597, 2140958, 2141329, 2141719, 2142115, 2142507, 2142891, 2143276, 2143659, 2144041, 2144414]","[2135859, 2136148, 2136450, 2136819, 2137201, 2137625, 2138003, 2138430, 2138863, 2139232, 2139607, 2139979, 2140362, 2140741, 2141103, 2141485, 2141869, 2142272, 2142655, 2143040, 2143422, 2143809, 2144195, 2144584]","[2135261, 2135659, 2136059, 2136459, 2136859, 2137260, 2137659, 2138059, 2138742, 2139109, 2139488, 2139854, 2140241, 2140623, 2140985, 2141356, 2141747, 2142143, 2142534, 2142918, 2143302, 2143685, 2144069, 2144441]",28,R,ITM,1.1,
7,600,trial,0,118,118,118,trial,"['S', 'S', 'S', 'S', 'S', 'S', 'S', 'C', 'C', 'C', 'C', 'C', 'C', 'C', 'C', 'C', 'C', 'C', 'C', 'C', 'C', 'C', 'C']","[2150683, 2151345, 2151921, 2152481, 2153107, 2153641, 2154249, 2154826, 2155402, 2155991, 2156598, 2157123, 2157724, 2158282, 2158814, 2159390, 2159974, 2160601, 2161133, 2161795, 2162343, 2162836, 2163359]","[2150857, 2151447, 2152047, 2152601, 2153219, 2153792, 2154394, 2154990, 2155558, 2156140, 2156731, 2157325, 2157918, 2158501, 2159041, 2159627, 2160221, 2160824, 2161370, 2161954, 2162548, 2163012, 2163515]","[2150168, 2150767, 2151367, 2151967, 2152567, 2153167, 2153767, 2154368, 2154853, 2155429, 2156017, 2156624, 2157150, 2157752, 2158309, 2158840, 2159417, 2160002, 2160627, 2161160, 2161821, 2162370, 2162863, 2163387]",28,R,ITM,1.1,
3,600,trial,0,119,119,119,trial,"['S', 'S', 'S', 'S', 'S', 'S', 'S', 'C', 'C', 'C', 'C', 'C', 'C', 'C', 'C', 'C', 'C', 'C', 'C', 'C', 'C', 'C', 'C']","[2169170, 2169838, 2170378, 2170929, 2171537, 2172135, 2172788, 2173375, 2173953, 2174533, 2175095, 2175634, 2176262, 2176785, 2177333, 2177867, 2178419, 2179004, 2179517, 2180011, 2180556, 2181105, 2181588]","[2169290, 2169946, 2170514, 2171062, 2171691, 2172338, 2172958, 2173556, 2174133, 2174691, 2175245, 2175800, 2176420, 2176995, 2177510, 2178070, 2178651, 2179190, 2179730, 2180208, 2180720, 2181264, 2181778]","[2168687, 2169287, 2169887, 2170487, 2171087, 2171687, 2172288, 2172888, 2173401, 2173978, 2174559, 2175121, 2175660, 2176287, 2176811, 2177358, 2177893, 2178445, 2179030, 2179543, 2180036, 2180582, 2181131, 2181614]",28,R,ITM,1.1,
3,400,trial,0,120,120,120,trial,"['S', 'S', 'S', 'S', 'S', 'S', 'S', 'S', 'C', 'C', 'C', 'C', 'C', 'C', 'C', 'C', 'C', 'C', 'C', 'C', 'C', 'C', 'C', 'C']","[2187512, 2187822, 2188167, 2188485, 2188810, 2189103, 2189443, 2189809, 2190219, 2190608, 2190998, 2191429, 2191784, 2192173, 2192561, 2192912, 2193288, 2193657, 2194021, 2194404, 2194795, 2195179, 2195518, 2195892]","[2187617, 2187930, 2188285, 2188620, 2188947, 2189250, 2189607, 2189955, 2190397, 2190770, 2191153, 2191550, 2191978, 2192317, 2192692, 2193063, 2193424, 2193785, 2194170, 2194546, 2194929, 2195320, 2195678, 2196029]","[2187126, 2187526, 2187925, 2188325, 2188725, 2189125, 2189526, 2189925, 2190245, 2190633, 2191024, 2191455, 2191810, 2192198, 2192586, 2192937, 2193313, 2193683, 2194046, 2194429, 2194821, 2195205, 2195544, 2195917]",28,R,ITM,1.1,
2,600,trial,0,121,121,121,trial,"['S', 'S', 'S', 'S', 'S', 'S', 'S', 'S', 'C', 'C', 'C', 'C', 'C', 'C', 'C', 'C', 'C', 'C', 'C', 'C', 'C', 'C', 'C', 'C']","[2202037, 2202387, 2202789, 2203315, 2203912, 2204511, 2205110, 2205729, 2206321, 2206923, 2207493, 2208066, 2208654, 2209263, 2209832, 2210367, 2210922, 2211500, 2212115, 2212682, 2213227, 2213757, 2214288, 2214867]","[2202179, 2202513, 2202955, 2203588, 2204251, 2204856, 2205478, 2206074, 2206695, 2207280, 2207850, 2208428, 2209015, 2209581, 2210141, 2210717, 2211240, 2211880, 2212441, 2213052, 2213540, 2214079, 2214597]","[2201621, 2202221, 2202820, 2203421, 2204021, 2204621, 2205221, 2205821, 2206349, 2206950, 2207519, 2208093, 2208680, 2209291, 2209859, 2210395, 2210950, 2211526, 2212143, 2212709, 2213254, 2213785, 2214315, 2214895]",28,R,ITM,1.1,
5,400,trial,0,122,122,122,trial,"['S', 'S', 'S', 'S', 'S', 'S', 'S', 'C', 'C', 'C', 'C', 'C', 'C', 'C', 'C', 'C', 'C', 'C', 'C', 'C', 'C', 'C', 'C']","[2221035, 2221375, 2221761, 2222160, 2222552, 2222947, 2223333, 2223762, 2224163, 2224546, 2224934, 2225273, 2225661, 2226050, 2226442, 2226812, 2227212, 2227613, 2227993, 2228389, 2228774, 2229181, 2229563]","[2221155, 2221508, 2221904, 2222309, 2222700, 2223087, 2223482, 2223911, 2224307, 2224678, 2225054, 2225409, 2225783, 2226184, 2226579, 2226968, 2227361, 2227749, 2228126, 2228516, 2228922, 2229303, 2229700]","[2220650, 2221049, 2221449, 2221849, 2222249, 2222649, 2223049, 2223450, 2223788, 2224189, 2224572, 2224960, 2225300, 2225688, 2226076, 2226467, 2226838, 2227238, 2227640, 2228019, 2228416, 2228800, 2229207, 2229588]",28,R,ITM,1.1,
2,600,trial,0,123,123,123,trial,"['S', 'S', 'S', 'S', 'S', 'S', 'S', 'C', 'C', 'C', 'C', 'C', 'C', 'C', 'C', 'C', 'C', 'C', 'C', 'C', 'C', 'C', 'C']","[2235669, 2236265, 2236814, 2237448, 2238027, 2238673, 2239318, 2239896, 2240491, 2241091, 2241745, 2242320, 2242928, 2243507, 2244131, 2244695, 2245272, 2245837, 2246435, 2247075, 2247606, 2248153, 2248723]","[2235804, 2236388, 2236969, 2237587, 2238174, 2238809, 2239437, 2240040, 2240654, 2241278, 2241916, 2242543, 2243140, 2243744, 2244277, 2244989, 2245571, 2246112, 2246714, 2247354, 2247884, 2248467]","[2235198, 2235798, 2236398, 2236998, 2237598, 2238198, 2238798, 2239397, 2239924, 2240519, 2241119, 2241773, 2242348, 2242956, 2243534, 2244159, 2244721, 2245300, 2245865, 2246462, 2247102, 2247633, 2248180, 2248751]",28,R,ITM,1.1,
7,400,trial,0,124,124,124,trial,"['S', 'S', 'S', 'S', 'S', 'S', 'S', 'C', 'C', 'C', 'C', 'C', 'C', 'C', 'C', 'C', 'C', 'C', 'C', 'C', 'C', 'C', 'C']","[2254986, 2255284, 2255590, 2255972, 2256371, 2256766, 2257144, 2257547, 2257936, 2258373, 2258752, 2259123, 2259494, 2259878, 2260260, 2260663, 2261061, 2261436, 2261819, 2262177, 2262572, 2262972, 2263342]","[2255096, 2255379, 2255711, 2256089, 2256510, 2256910, 2257287, 2257703, 2258107, 2258512, 2258893, 2259278, 2259633, 2260012, 2260406, 2260803, 2261207, 2261566, 2261948, 2262333, 2262701, 2263105, 2263468]","[2254455, 2254856, 2255256, 2255656, 2256056, 2256456, 2256857, 2257256, 2257573, 2257963, 2258401, 2258779, 2259149, 2259521, 2259906, 2260287, 2260689, 2261088, 2261463, 2261847, 2262204, 2262598, 2263000, 2263368]",28,R,ITM,1.1,
3,400,trial,0,125,125,125,trial,"['S', 'S', 'S', 'S', 'S', 'C', 'C', 'C', 'C', 'C', 'C', 'C', 'C', 'C', 'C', 'C', 'C', 'C', 'C', 'C', 'C']","[2270334, 2270683, 2270957, 2271280, 2271641, 2272070, 2272467, 2272870, 2273242, 2273655, 2274079, 2274485, 2274898, 2275318, 2275699, 2276140, 2276521, 2276952, 2277352, 2277747, 2278149]","[2270465, 2270811, 2271085, 2271420, 2271790, 2272212, 2272615, 2273010, 2273402, 2273823, 2274256, 2274644, 2275063, 2275476, 2275868, 2276294, 2276711, 2277118, 2277532, 2277918, 2278285]","[2268880, 2269279, 2269679, 2270080, 2270479, 2270879, 2271280, 2271679, 2272096, 2272494, 2272896, 2273267, 2273681, 2274105, 2274510, 2274924, 2275344, 2275725, 2276165, 2276547, 2276977, 2277378, 2277773, 2278174]",28,R,ITM,1.1,
