octave,ioi,event,.thisRepN,.thisTrialN,.thisN,.thisIndex,event,tap_types,tap_times,release_times,tone_times,subject,handedness,experiment,version,
,,SPR,0,-1,-1,0,SPR,"['P', 'P', 'P', 'P', 'P', 'P', 'P', 'P', 'P', 'P', 'P', 'P', 'P', 'P', 'P', 'P', 'P', 'P', 'P', 'P', 'P', 'P', 'P', 'P', 'P', 'P', 'P', 'P', 'P', 'P']","[40016, 55191, 55758, 56354, 56922, 57508, 58072, 58655, 59209, 59730, 60273, 60818, 61336, 61853, 62396, 62930, 63479, 64025, 64600, 65134, 65649, 66224, 66763, 67276, 67824, 68345, 68845, 69358, 69913, 70438]","[40171, 55371, 55948, 56592, 57138, 57748, 58311, 58869, 59426, 59954, 60499, 61016, 61546, 62056, 62616, 63172, 63689, 64304, 64784, 65343, 65845, 66407, 66927, 67428, 67944, 68517, 68990, 69513, 70096, 70639]",,17,R,ITM,1.1,
3,500,practice,0,0,0,0,practice,"['B', 'S', 'S', 'S', 'S', 'S', 'S', 'S', 'C', 'C', 'C', 'C', 'C', 'C', 'C', 'C', 'C', 'C', 'C', 'C', 'C', 'C', 'C', 'C']","[129807, 130318, 130845, 131325, 131877, 132310, 132879, 133298, 133898, 134400, 134931, 135479, 136032, 136609, 137196, 137789, 138432, 139055, 139677, 140338, 141017, 141790, 142493, 143126]","[129909, 130459, 130982, 131473, 131983, 132465, 132994, 133454, 134044, 134528, 135068, 135614, 136194, 136777, 137359, 137973, 138584, 139209, 139858, 140494, 141144, 141872, 142610, 143260]","[129818, 130318, 130819, 131318, 131818, 132318, 132818, 133318, 133923, 134425, 134958, 135504, 136057, 136635, 137222, 137815, 138458, 139080, 139703, 140363, 141042, 141815, 142519, 143153]",17,R,ITM,1.1,
4,500,practice,0,1,1,1,practice,"['S', 'S', 'S', 'S', 'S', 'S', 'S', 'C', 'C', 'C', 'C', 'C', 'C', 'C', 'C', 'C', 'C', 'C', 'C', 'C', 'C', 'C', 'C']","[149055, 149670, 150110, 150644, 151153, 151613, 152113, 152613, 153098, 153679, 154238, 154849, 155405, 156016, 156583, 157284, 157886, 158482, 159083, 159700, 160275, 160945, 161460]","[149203, 149789, 150246, 150752, 151258, 151738, 152222, 152717, 153171, 153773, 154346, 154961, 155508, 156141, 156717, 157387, 158020, 158590, 159172, 159816, 160377, 161006, 161543]","[148628, 149128, 149628, 150128, 150628, 151129, 151628, 152128, 152639, 153123, 153705, 154264, 154874, 155430, 156042, 156609, 157309, 157913, 158508, 159109, 159725, 160301, 160970, 161486]",17,R,ITM,1.1,
7,500,practice,0,2,2,2,practice,"['B', 'S', 'S', 'S', 'S', 'S', 'S', 'S', 'C', 'C', 'C', 'C', 'C', 'C', 'C', 'C', 'C', 'C', 'C', 'C', 'C', 'C', 'C', 'C']","[166922, 167347, 167872, 168435, 168954, 169483, 169975, 170434, 171036, 171627, 172205, 172815, 173408, 174030, 174642, 175254, 175865, 176514, 177167, 177753, 178424, 179039, 179633, 180254]","[166942, 167449, 167980, 168553, 169025, 169548, 170065, 170547, 171127, 171736, 172318, 172935, 173506, 174133, 174735, 175337, 175990, 176640, 177272, 177891, 178542, 179171, 179759, 180393]","[166935, 167434, 167934, 168434, 168934, 169435, 169934, 170434, 171064, 171654, 172231, 172843, 173434, 174058, 174668, 175282, 175892, 176541, 177193, 177780, 178451, 179065, 179660, 180282]",17,R,ITM,1.1,
2,500,practice,0,3,3,3,practice,"['S', 'S', 'S', 'S', 'S', 'S', 'S', 'S', 'C', 'C', 'C', 'C', 'C', 'C', 'C', 'C', 'C', 'C', 'C', 'C', 'C', 'C', 'C', 'C']","[185650, 186128, 186677, 187156, 187645, 188118, 188617, 189168, 189646, 190194, 190730, 191311, 191854, 192415, 193018, 193555, 194162, 194758, 195359, 195942, 196561, 197134, 197806, 198409]","[185755, 186273, 186820, 187275, 187746, 188215, 188708, 189242, 189739, 190278, 190830, 191397, 191933, 192508, 193102, 193617, 194272, 194818, 195434, 196039, 196662, 197276, 197880, 198514]","[185586, 186086, 186587, 187086, 187585, 188086, 188587, 189085, 189674, 190222, 190757, 191339, 191882, 192443, 193045, 193582, 194189, 194786, 195387, 195969, 196588, 197161, 197833, 198436]",17,R,ITM,1.1,
6,500,practice,0,4,4,4,practice,"['S', 'S', 'S', 'S', 'S', 'S', 'S', 'C', 'C', 'C', 'C', 'C', 'C', 'C', 'C', 'C', 'C', 'C', 'C', 'C', 'C', 'C', 'C']","[204413, 205071, 205574, 206112, 206617, 207109, 207578, 208090, 208643, 209281, 209814, 210375, 210893, 211520, 212065, 212780, 213431, 214068, 214714, 215299, 215952, 216555, 217250]","[204583, 205198, 205699, 206237, 206783, 207210, 207677, 208207, 208783, 209389, 209898, 210464, 210993, 211621, 212154, 212836, 213540, 214204, 214791, 215425, 216043, 216683, 217290]","[203996, 204494, 204994, 205494, 205995, 206494, 206994, 207495, 208116, 208670, 209307, 209842, 210403, 210920, 211547, 212091, 212807, 213457, 214094, 214742, 215326, 215979, 216583, 217277]",17,R,ITM,1.1,
5,500,practice,0,5,5,5,practice,"['S', 'S', 'S', 'S', 'S', 'S', 'S', 'C', 'C', 'C', 'C', 'C', 'C', 'C', 'C', 'C', 'C', 'C', 'C', 'C', 'C', 'C', 'C']","[222927, 223584, 224143, 224687, 225232, 225735, 226232, 226794, 227303, 227918, 228450, 229059, 229574, 230191, 230790, 231369, 231980, 232521, 233063, 233732, 234336, 234918, 235543]","[223066, 223675, 224219, 224803, 225306, 225839, 226335, 226971, 227442, 227978, 228514, 229157, 229652, 230297, 230901, 231463, 232119, 232673, 233227, 233870, 234377, 235005, 235598]","[222613, 223113, 223613, 224113, 224613, 225114, 225613, 226113, 226820, 227329, 227944, 228475, 229085, 229600, 230216, 230816, 231395, 232005, 232547, 233089, 233757, 234361, 234944, 235569]",17,R,ITM,1.1,
3,400,trial,0,6,6,6,trial,"['S', 'S', 'S', 'S', 'S', 'S', 'S', 'C', 'C', 'C', 'C', 'C', 'C', 'C', 'C', 'C', 'C', 'C', 'C', 'C', 'C', 'C', 'C']","[302145, 302682, 303135, 303446, 303816, 304231, 304609, 305006, 305356, 305673, 305954, 306275, 306749, 307094, 307521, 308020, 308426, 308825, 309196, 309532, 309954, 310293, 310660]","[302248, 302829, 303243, 303558, 303903, 304320, 304692, 305095, 305436, 305719, 306000, 306300, 306843, 307120, 307614, 308045, 308468, 308850, 309293, 309559, 310022, 310319, 310712]","[301877, 302276, 302676, 303076, 303476, 303877, 304276, 304676, 305032, 305382, 305698, 305980, 306300, 306775, 307120, 307547, 308045, 308452, 308850, 309222, 309558, 309980, 310319, 310685]",17,R,ITM,1.1,
6,600,trial,0,7,7,7,trial,"['S', 'S', 'S', 'S', 'S', 'S', 'S', 'S', 'C', 'C', 'C', 'C', 'C', 'C', 'C', 'C', 'C', 'C', 'C', 'C', 'C', 'C', 'C', 'C']","[316626, 316882, 317448, 318159, 318755, 319344, 319911, 320552, 321107, 321697, 322278, 322859, 323389, 323933, 324496, 325052, 325608, 326211, 326771, 327292, 327865, 328424, 328979, 329530]","[316693, 317049, 317591, 318297, 318866, 319448, 320010, 320620, 321179, 321787, 322370, 322940, 323524, 324064, 324680, 325201, 325748, 326333, 326872, 327453, 328034, 328605, 329158, 329701]","[316437, 317036, 317636, 318236, 318836, 319436, 320036, 320636, 321135, 321724, 322305, 322885, 323416, 323960, 324523, 325080, 325636, 326238, 326798, 327320, 327892, 328452, 329007, 329556]",17,R,ITM,1.1,
4,400,trial,0,8,8,8,trial,"['S', 'S', 'S', 'S', 'S', 'S', 'S', 'C', 'C', 'C', 'C', 'C', 'C', 'C', 'C', 'C', 'C', 'C', 'C', 'C', 'C', 'C', 'C']","[335524, 335945, 336226, 336663, 337035, 337431, 337804, 338237, 338581, 339028, 339396, 339755, 340163, 340526, 340895, 341286, 341649, 342005, 342358, 342744, 343122, 343457, 343835]","[335694, 336040, 336329, 336734, 337111, 337501, 337911, 338295, 338650, 339090, 339448, 339830, 340220, 340580, 340964, 341326, 341690, 342062, 342445, 342782, 343175, 343505, 343880]","[335119, 335519, 335920, 336319, 336719, 337119, 337519, 337920, 338263, 338608, 339054, 339422, 339780, 340189, 340551, 340921, 341312, 341675, 342031, 342383, 342769, 343148, 343483, 343861]",17,R,ITM,1.1,
4,600,trial,0,9,9,9,trial,"['S', 'S', 'S', 'S', 'S', 'S', 'S', 'S', 'C', 'C', 'C', 'C', 'C', 'C', 'C', 'C', 'C', 'C', 'C', 'C', 'C', 'C', 'C', 'C']","[349542, 350004, 350422, 351017, 351640, 352206, 352829, 353396, 353977, 354628, 355185, 355773, 356393, 356974, 357556, 358126, 358702, 359286, 359888, 360456, 361059, 361621, 362208, 362792]","[349616, 350072, 350540, 351153, 351738, 352346, 352958, 353516, 354109, 354737, 355325, 355918, 356506, 357137, 357700, 358298, 358861, 359422, 359962, 360589, 361186, 361780, 362369, 362945]","[349240, 349840, 350440, 351040, 351640, 352240, 352840, 353440, 354002, 354655, 355211, 355799, 356419, 357000, 357581, 358152, 358728, 359312, 359914, 360481, 361084, 361647, 362233, 362818]",17,R,ITM,1.1,
4,600,trial,0,10,10,10,trial,"['S', 'S', 'S', 'S', 'S', 'S', 'S', 'S', 'C', 'C', 'C', 'C', 'C', 'C', 'C', 'C', 'C', 'C', 'C', 'C', 'C', 'C', 'C', 'C']","[368804, 369238, 369722, 370260, 370862, 371447, 372015, 372612, 373224, 373884, 374459, 375045, 375628, 376230, 376845, 377417, 378022, 378598, 379216, 379828, 380354, 381027, 381649, 382213]","[368923, 369332, 369835, 370405, 370992, 371567, 372144, 372704, 373346, 374003, 374573, 375134, 375747, 376341, 376987, 377548, 378142, 378729, 379362, 379882, 380425, 381079, 381693, 382265]","[368448, 369047, 369647, 370247, 370847, 371447, 372047, 372647, 373250, 373910, 374486, 375070, 375654, 376256, 376870, 377443, 378048, 378624, 379242, 379853, 380380, 381052, 381675, 382238]",17,R,ITM,1.1,
6,400,trial,0,11,11,11,trial,"['S', 'S', 'S', 'S', 'S', 'S', 'S', 'C', 'C', 'C', 'C', 'C', 'C', 'C', 'C', 'C', 'C', 'C', 'C', 'C', 'C', 'C', 'C']","[387980, 388396, 388752, 389133, 389477, 389923, 390322, 390734, 391140, 391520, 391919, 392292, 392705, 393128, 393507, 393907, 394287, 394678, 395074, 395469, 395840, 396237, 396632]","[388078, 388452, 388800, 389219, 389574, 390004, 390387, 390802, 391184, 391603, 391977, 392378, 392778, 393202, 393583, 393949, 394322, 394745, 395147, 395532, 395911, 396305, 396731]","[387546, 387944, 388344, 388744, 389144, 389544, 389944, 390344, 390762, 391166, 391546, 391947, 392320, 392731, 393155, 393535, 393933, 394314, 394705, 395102, 395497, 395867, 396265, 396659]",17,R,ITM,1.1,
3,600,trial,0,12,12,12,trial,"['S', 'S', 'S', 'S', 'S', 'S', 'S', 'S', 'S', 'C', 'C', 'C', 'C', 'C', 'C', 'C', 'C', 'C', 'C', 'C', 'C', 'C', 'C', 'C', 'C']","[402409, 402753, 403255, 403847, 404380, 404988, 405588, 406179, 406279, 406843, 407471, 408058, 408584, 409177, 409758, 410339, 410907, 411498, 412019, 412617, 413167, 413788, 414405, 414995, 415482]","[402460, 402837, 403377, 403930, 404468, 405118, 405699, 406199, 406299, 406946, 407532, 408167, 408701, 409298, 409821, 410423, 411004, 411544, 412121, 412688, 413257, 413920, 414518, 415065, 415651]","[402013, 402613, 403213, 403813, 404413, 405013, 405613, 406213, 406868, 407496, 408084, 408609, 409202, 409785, 410364, 410933, 411524, 412045, 412643, 413193, 413813, 414431, 415021, 415508]",17,R,ITM,1.1,
5,600,trial,0,13,13,13,trial,"['S', 'S', 'S', 'S', 'S', 'S', 'S', 'C', 'C', 'C', 'C', 'C', 'C', 'C', 'C', 'C', 'C', 'C', 'C', 'C', 'C', 'C', 'C', 'C']","[421600, 422284, 422863, 423486, 424097, 424674, 425261, 425885, 426477, 427061, 427661, 428249, 428815, 429379, 430043, 430636, 431200, 431746, 432302, 432856, 433443, 433549, 434048, 434603]","[421698, 422324, 422992, 423611, 424184, 424752, 425374, 425974, 426592, 427205, 427779, 428274, 428925, 429538, 430098, 430763, 431225, 431771, 432453, 433018, 433469, 433628, 434217, 434765]","[421167, 421767, 422367, 422967, 423567, 424167, 424767, 425367, 425912, 426504, 427086, 427686, 428274, 428840, 429405, 430068, 430661, 431225, 431771, 432328, 432882, 433469, 434074, 434628]",17,R,ITM,1.1,
7,400,trial,0,14,14,14,trial,"['S', 'S', 'S', 'S', 'S', 'S', 'S', 'C', 'C', 'C', 'C', 'C', 'C', 'C', 'C', 'C', 'C', 'C', 'C', 'C', 'C', 'C', 'C']","[440811, 441157, 441502, 441927, 442306, 442705, 443107, 443469, 443851, 444270, 444623, 444992, 445409, 445821, 446212, 446614, 446991, 447368, 447732, 448149, 448562, 449020, 449413]","[440855, 441235, 441576, 441997, 442416, 442806, 443188, 443573, 443952, 444335, 444716, 445081, 445471, 445896, 446309, 446685, 447070, 447448, 447809, 448228, 448637, 449078, 449501]","[440328, 440726, 441126, 441526, 441926, 442327, 442726, 443126, 443497, 443879, 444298, 444650, 445019, 445435, 445849, 446238, 446642, 447019, 447395, 447759, 448177, 448589, 449048, 449440]",17,R,ITM,1.1,
4,400,trial,0,15,15,15,trial,"['S', 'S', 'S', 'S', 'S', 'S', 'S', 'S', 'C', 'C', 'C', 'C', 'C', 'C', 'C', 'C', 'C', 'C', 'C', 'C', 'C', 'C', 'C', 'C']","[455279, 455568, 455895, 456244, 456621, 456955, 457369, 457754, 458146, 458554, 458930, 459338, 459737, 460116, 460481, 460915, 461302, 461670, 462035, 462416, 462747, 463136, 463484, 463886]","[455366, 455630, 455968, 456305, 456670, 457028, 457427, 457807, 458231, 458610, 459009, 459406, 459800, 460201, 460574, 460966, 461369, 461735, 462120, 462484, 462828, 463202, 463561, 463953]","[454964, 455364, 455764, 456164, 456564, 456965, 457364, 457764, 458173, 458580, 458955, 459364, 459762, 460142, 460507, 460941, 461328, 461696, 462062, 462442, 462773, 463162, 463510, 463911]",17,R,ITM,1.1,
5,400,trial,0,16,16,16,trial,"['S', 'S', 'S', 'S', 'S', 'S', 'S', 'C', 'C', 'C', 'C', 'C', 'C', 'C', 'C', 'C', 'C', 'C', 'C', 'C', 'C', 'C', 'C']","[469706, 470162, 470506, 470945, 471285, 471711, 472107, 472503, 472898, 473299, 473686, 474063, 474413, 474829, 475216, 475621, 475961, 476344, 476749, 477120, 477522, 477896, 478290]","[469776, 470201, 470571, 470965, 471340, 471771, 472164, 472589, 472966, 473333, 473747, 474136, 474479, 474889, 475256, 475680, 476042, 476413, 476809, 477201, 477582, 477981, 478345]","[469336, 469734, 470134, 470535, 470935, 471335, 471735, 472135, 472529, 472924, 473326, 473711, 474089, 474439, 474856, 475242, 475646, 475987, 476369, 476775, 477146, 477548, 477922, 478316]",17,R,ITM,1.1,
5,400,trial,0,17,17,17,trial,"['S', 'S', 'S', 'S', 'S', 'S', 'S', 'C', 'C', 'C', 'C', 'C', 'C', 'C', 'C', 'C', 'C', 'C', 'C', 'C', 'C', 'C', 'C']","[484225, 484594, 485001, 485407, 485744, 486183, 486607, 486981, 487344, 487756, 488134, 488502, 488923, 489307, 489715, 490129, 490514, 490909, 491319, 491678, 492082, 492467, 492867]","[484291, 484658, 485063, 485480, 485817, 486244, 486627, 487052, 487421, 487842, 488196, 488588, 489001, 489406, 489822, 490231, 490620, 491011, 491369, 491781, 492164, 492544, 492921]","[483846, 484244, 484644, 485044, 485444, 485844, 486244, 486644, 487007, 487370, 487782, 488161, 488528, 488948, 489332, 489742, 490155, 490541, 490935, 491344, 491705, 492107, 492492, 492893]",17,R,ITM,1.1,
6,400,trial,0,18,18,18,trial,"['S', 'S', 'S', 'S', 'S', 'S', 'S', 'C', 'C', 'C', 'C', 'C', 'C', 'C', 'C', 'C', 'C', 'C', 'C', 'C', 'C', 'C', 'C']","[506745, 507166, 507570, 507902, 508302, 508729, 509117, 509517, 509892, 510298, 510706, 511119, 511479, 511896, 512296, 512657, 513055, 513463, 513817, 514250, 514612, 515000, 515438]","[506827, 507203, 507621, 507973, 508366, 508754, 509165, 509578, 509981, 510390, 510789, 511208, 511580, 511982, 512392, 512776, 513150, 513537, 513905, 514315, 514698, 515075, 515503]","[506331, 506729, 507129, 507529, 507929, 508329, 508729, 509129, 509544, 509919, 510325, 510733, 511145, 511507, 511923, 512323, 512684, 513082, 513489, 513844, 514277, 514639, 515027, 515465]",17,R,ITM,1.1,
7,400,trial,0,19,19,19,trial,"['S', 'S', 'S', 'S', 'S', 'S', 'S', 'C', 'C', 'C', 'C', 'C', 'C', 'C', 'C', 'C', 'C', 'C', 'C', 'C', 'C', 'C', 'C']","[521493, 521879, 522266, 522686, 523086, 523504, 523851, 524273, 524637, 525020, 525421, 525826, 526163, 526615, 526977, 527361, 527763, 528164, 528533, 528941, 529311, 529705, 530038]","[521572, 521955, 522344, 522769, 523146, 523572, 523938, 524342, 524709, 525125, 525504, 525889, 526261, 526684, 527084, 527468, 527858, 528237, 528648, 529053, 529410, 529809, 530138]","[521115, 521515, 521914, 522314, 522715, 523114, 523514, 523914, 524301, 524664, 525047, 525448, 525852, 526190, 526643, 527004, 527388, 527790, 528192, 528560, 528968, 529339, 529732, 530065]",17,R,ITM,1.1,
2,600,trial,0,20,20,20,trial,"['S', 'S', 'S', 'S', 'S', 'S', 'S', 'S', 'C', 'C', 'C', 'C', 'C', 'C', 'C', 'C', 'C', 'C', 'C', 'C', 'C', 'C', 'C', 'C', 'C']","[536088, 536517, 536975, 537550, 538144, 538703, 539356, 539904, 540465, 541148, 541748, 542344, 542938, 543565, 544111, 544653, 545186, 545866, 546455, 546931, 547462, 547569, 548072, 548655, 549250]","[536162, 536607, 537072, 537632, 538231, 538798, 539428, 540017, 540577, 541238, 541857, 542454, 543027, 543678, 544228, 544783, 545300, 545946, 546569, 547049, 547489, 547589, 548135, 548703, 549324]","[535703, 536303, 536903, 537503, 538102, 538703, 539303, 539904, 540492, 541175, 541775, 542371, 542964, 543592, 544139, 544679, 545214, 545894, 546483, 546959, 547489, 548100, 548682, 549277]",17,R,ITM,1.1,
7,600,trial,0,21,21,21,trial,"['S', 'S', 'S', 'S', 'S', 'S', 'S', 'C', 'C', 'C', 'C', 'C', 'C', 'C', 'C', 'C', 'C', 'C', 'C', 'C', 'C', 'C', 'C']","[555459, 556198, 556838, 557415, 558050, 558682, 559226, 559844, 560464, 561076, 561688, 562291, 562899, 563516, 564085, 564709, 565331, 565946, 566596, 567206, 567819, 568392, 568975]","[555572, 556351, 556954, 557576, 558181, 558784, 559370, 559991, 560638, 561221, 561827, 562456, 563044, 563662, 564203, 564853, 565455, 566093, 566733, 567335, 567930, 568534, 569097]","[555025, 555625, 556225, 556825, 557425, 558025, 558625, 559225, 559870, 560492, 561102, 561715, 562319, 562926, 563543, 564112, 564736, 565358, 565972, 566624, 567234, 567846, 568420, 569001]",17,R,ITM,1.1,
3,600,trial,0,22,22,22,trial,"['S', 'S', 'S', 'S', 'S', 'S', 'S', 'C', 'C', 'C', 'C', 'C', 'C', 'C', 'C', 'C', 'C', 'C', 'C', 'C', 'C', 'C', 'C']","[574936, 575637, 576291, 576891, 577525, 578065, 578661, 579291, 579905, 580468, 581039, 581667, 582234, 582829, 583408, 584019, 584611, 585179, 585793, 586336, 586933, 587509, 588096]","[575080, 575807, 576455, 577055, 577648, 578208, 578764, 579436, 580012, 580622, 581160, 581796, 582298, 582902, 583546, 584136, 584727, 585312, 585918, 586415, 587009, 587583, 588193]","[574478, 575078, 575678, 576278, 576878, 577478, 578078, 578678, 579316, 579932, 580494, 581064, 581693, 582259, 582854, 583434, 584045, 584637, 585204, 585819, 586361, 586958, 587535, 588122]",17,R,ITM,1.1,
2,400,trial,0,23,23,23,trial,"['S', 'S', 'S', 'S', 'S', 'S', 'S', 'C', 'C', 'C', 'C', 'C', 'C', 'C', 'C', 'C', 'C', 'C', 'C', 'C', 'C', 'C', 'C']","[593946, 594319, 594669, 595046, 595441, 595843, 596157, 596589, 597019, 597428, 597817, 598237, 598631, 599033, 599436, 599843, 600227, 600662, 601052, 601454, 601836, 602198, 602622]","[594080, 594393, 594727, 595130, 595484, 595896, 596230, 596667, 597079, 597488, 597885, 598264, 598677, 599132, 599511, 599924, 600322, 600717, 601129, 601521, 601902, 602272, 602677]","[593440, 593842, 594241, 594641, 595041, 595441, 595842, 596241, 596617, 597047, 597455, 597844, 598264, 598659, 599061, 599462, 599871, 600255, 600689, 601078, 601482, 601864, 602225, 602650]",17,R,ITM,1.1,
6,600,trial,0,24,24,24,trial,"['S', 'S', 'S', 'S', 'S', 'S', 'S', 'C', 'C', 'C', 'C', 'C', 'C', 'C', 'C', 'C', 'C', 'C', 'C', 'C', 'C', 'C', 'C']","[608822, 609501, 610115, 610744, 611318, 611856, 612539, 613092, 613693, 614279, 614914, 615491, 616099, 616725, 617341, 617909, 618500, 619089, 619655, 620265, 620850, 621404, 621991]","[608933, 609581, 610241, 610826, 611394, 611962, 612622, 613192, 613781, 614377, 615006, 615602, 616203, 616835, 617439, 617996, 618635, 619203, 619784, 620359, 620906, 621494, 622102]","[608332, 608931, 609531, 610131, 610732, 611332, 611932, 612531, 613118, 613720, 614305, 614940, 615518, 616126, 616752, 617368, 617935, 618527, 619117, 619681, 620292, 620876, 621431, 622019]",17,R,ITM,1.1,
7,600,trial,0,25,25,25,trial,"['S', 'S', 'S', 'S', 'S', 'S', 'S', 'S', 'C', 'C', 'C', 'C', 'C', 'C', 'C', 'C', 'C', 'C', 'C', 'C', 'C', 'C', 'C', 'C']","[627867, 628200, 628644, 629228, 629886, 630471, 631042, 631649, 632271, 632862, 633475, 634122, 634700, 635290, 635845, 636432, 636996, 637568, 638157, 638768, 639332, 639951, 640507, 641129]","[627939, 628278, 628733, 629329, 629975, 630572, 631152, 631751, 632410, 632975, 633597, 634249, 634833, 635411, 636017, 636567, 637156, 637701, 638290, 638931, 639485, 640139, 640735, 641387]","[627469, 628068, 628668, 629268, 629868, 630468, 631068, 631668, 632298, 632889, 633502, 634148, 634728, 635317, 635873, 636459, 637023, 637595, 638184, 638795, 639358, 639979, 640535, 641157]",17,R,ITM,1.1,
5,600,trial,0,26,26,26,trial,"['S', 'S', 'S', 'S', 'S', 'S', 'S', 'C', 'C', 'C', 'C', 'C', 'C', 'C', 'C', 'C', 'C', 'C', 'C', 'C', 'C', 'C', 'C']","[647055, 647759, 648406, 648969, 649523, 650101, 650744, 651295, 651944, 652494, 653058, 653707, 654329, 654887, 655466, 656024, 656655, 657238, 657827, 658441, 659009, 659591, 660160]","[647306, 647972, 648544, 649149, 649662, 650234, 650827, 651381, 652123, 652654, 653294, 653905, 654437, 655077, 655601, 656226, 656838, 657427, 658055, 658674, 659255, 659890]","[646569, 647169, 647769, 648369, 648968, 649568, 650168, 650768, 651321, 651970, 652520, 653083, 653732, 654355, 654914, 655492, 656050, 656681, 657263, 657853, 658467, 659035, 659616, 660187]",17,R,ITM,1.1,
2,600,trial,0,27,27,27,trial,"['S', 'S', 'S', 'S', 'S', 'S', 'S', 'C', 'C', 'C', 'C', 'C', 'C', 'C', 'C', 'C', 'C', 'C', 'C', 'C', 'C', 'C', 'C']","[666060, 666756, 667376, 667977, 668554, 669176, 669776, 670369, 670984, 671596, 672247, 672846, 673433, 674013, 674642, 675202, 675810, 676404, 676985, 677606, 678198, 678781, 679337]","[666328, 667016, 667620, 668207, 668788, 669414, 669998, 670605, 671218, 671860, 672485, 673125, 673741, 674313, 674893, 675485, 676087, 676723, 677298, 677917, 678519, 679096]","[665576, 666176, 666776, 667375, 667976, 668576, 669176, 669776, 670396, 671011, 671623, 672275, 672874, 673460, 674040, 674669, 675229, 675836, 676430, 677013, 677633, 678224, 678809, 679365]",17,R,ITM,1.1,
2,400,trial,0,28,28,28,trial,"['S', 'S', 'S', 'S', 'S', 'S', 'C', 'C', 'C', 'C', 'C', 'C', 'C', 'C', 'C', 'C', 'C', 'C', 'C', 'C', 'C', 'C']","[685547, 685887, 686299, 686704, 687116, 687503, 687903, 688296, 688716, 689136, 689502, 689911, 690323, 690735, 691124, 691552, 691959, 692367, 692818, 693217, 693612, 694009]","[685654, 685980, 686398, 686791, 687211, 687612, 688001, 688392, 688805, 689232, 689625, 690056, 690438, 690832, 691217, 691631, 692037, 692455, 692879, 693280, 693681, 694061]","[684717, 685116, 685516, 685916, 686316, 686715, 687116, 687516, 687930, 688324, 688743, 689164, 689528, 689938, 690350, 690762, 691150, 691579, 691987, 692393, 692845, 693243, 693639, 694036]",17,R,ITM,1.1,
3,400,trial,0,29,29,29,trial,"['S', 'S', 'S', 'S', 'S', 'S', 'C', 'C', 'C', 'C', 'C', 'C', 'C', 'C', 'C', 'C', 'C', 'C', 'C', 'C', 'C', 'C']","[700313, 700655, 701029, 701410, 701793, 702156, 702598, 702987, 703388, 703755, 704118, 704516, 704955, 705338, 705691, 706116, 706491, 706897, 707272, 707643, 708023, 708399]","[700387, 700704, 701053, 701463, 701848, 702239, 702661, 703077, 703463, 703844, 704231, 704624, 705039, 705416, 705766, 706166, 706585, 706985, 707392, 707753, 708125, 708534]","[699410, 699810, 700210, 700610, 701010, 701410, 701810, 702211, 702623, 703012, 703414, 703780, 704144, 704541, 704980, 705363, 705717, 706142, 706516, 706923, 707298, 707668, 708048, 708424]",17,R,ITM,1.1,
2,400,trial,0,30,30,30,trial,"['S', 'S', 'S', 'S', 'S', 'S', 'S', 'C', 'C', 'C', 'C', 'C', 'C', 'C', 'C', 'C', 'C', 'C', 'C', 'C', 'C', 'C', 'C']","[720070, 720491, 720878, 721270, 721648, 722054, 722432, 722837, 723233, 723602, 723988, 724407, 724802, 725191, 725565, 725978, 726358, 726725, 727129, 727523, 727897, 728263, 728654]","[720193, 720572, 720952, 721358, 721740, 722112, 722525, 722946, 723332, 723721, 724108, 724516, 724934, 725337, 725712, 726098, 726478, 726904, 727289, 727686, 728038, 728460, 728810]","[719670, 720070, 720471, 720870, 721270, 721671, 722070, 722469, 722864, 723261, 723630, 724016, 724433, 724829, 725219, 725592, 726004, 726385, 726753, 727156, 727549, 727924, 728290, 728681]",17,R,ITM,1.1,
7,400,trial,0,31,31,31,trial,"['S', 'S', 'S', 'S', 'S', 'S', 'S', 'S', 'C', 'C', 'C', 'C', 'C', 'C', 'C', 'C', 'C', 'C', 'C', 'C', 'C', 'C', 'C', 'C']","[734691, 735070, 735426, 735812, 736195, 736295, 736613, 736988, 737374, 737762, 738149, 738552, 738974, 739363, 739748, 740139, 740526, 740883, 741293, 741669, 742091, 742488, 742889, 743270]","[734820, 735182, 735533, 735918, 736215, 736315, 736697, 737081, 737486, 737880, 738317, 738654, 739108, 739456, 739887, 740275, 740640, 741012, 741415, 741793, 742185, 742589, 742984, 743351]","[734214, 734612, 735012, 735412, 735812, 736212, 736612, 737012, 737401, 737788, 738177, 738579, 739002, 739390, 739775, 740165, 740552, 740910, 741320, 741696, 742119, 742514, 742917, 743298]",17,R,ITM,1.1,
2,600,trial,0,32,32,32,trial,"['S', 'S', 'S', 'S', 'S', 'S', 'S', 'C', 'C', 'C', 'C', 'C', 'C', 'C', 'C', 'C', 'C', 'C', 'C', 'C', 'C', 'C', 'C']","[749461, 749993, 750541, 751114, 751707, 752273, 752864, 753510, 754089, 754655, 755251, 755843, 756424, 756992, 757593, 758166, 758759, 759355, 759948, 760530, 761134, 761707, 762324]","[749613, 750128, 750716, 751315, 751906, 752494, 753092, 753754, 754368, 754953, 755524, 756077, 756659, 757256, 757836, 758435, 758991, 759597, 760236, 760785, 761361, 761923, 762516]","[748694, 749294, 749894, 750494, 751093, 751693, 752294, 752894, 753538, 754117, 754681, 755278, 755869, 756452, 757019, 757619, 758193, 758787, 759382, 759975, 760558, 761160, 761734, 762351]",17,R,ITM,1.1,
6,600,trial,0,33,33,33,trial,"['S', 'S', 'S', 'S', 'S', 'S', 'S', 'C', 'C', 'C', 'C', 'C', 'C', 'C', 'C', 'C', 'C', 'C', 'C', 'C', 'C', 'C', 'C']","[768342, 768992, 769614, 770217, 770840, 771421, 772001, 772645, 773238, 773817, 774393, 775006, 775597, 776199, 776771, 777341, 777936, 778526, 779151, 779780, 780360, 780959, 781554]","[768536, 769205, 769859, 770484, 771164, 771731, 772337, 772951, 773550, 774114, 774659, 775248, 775848, 776476, 777043, 777632, 778217, 778838, 779431, 780012, 780551, 781227]","[767815, 768414, 769014, 769614, 770214, 770814, 771415, 772015, 772672, 773265, 773844, 774421, 775032, 775623, 776225, 776799, 777369, 777963, 778554, 779179, 779806, 780388, 780986, 781581]",17,R,ITM,1.1,
3,400,trial,0,34,34,34,trial,"['S', 'S', 'S', 'S', 'S', 'S', 'C', 'C', 'C', 'C', 'C', 'C', 'C', 'C', 'C', 'C', 'C', 'C', 'C', 'C', 'C', 'C']","[788093, 788493, 788873, 789258, 789685, 790064, 790473, 790854, 791258, 791676, 792091, 792498, 792922, 793314, 793703, 794093, 794551, 794925, 795298, 795710, 796114, 796514]","[788226, 788554, 788918, 789321, 789705, 790133, 790547, 790935, 791362, 791764, 792197, 792584, 793021, 793433, 793842, 794235, 794601, 795029, 795449, 795827, 796229, 796627]","[787293, 787693, 788093, 788493, 788893, 789294, 789693, 790093, 790499, 790880, 791283, 791703, 792117, 792523, 792947, 793339, 793729, 794119, 794577, 794950, 795324, 795736, 796140, 796539]",17,R,ITM,1.1,
5,600,trial,0,35,35,35,trial,"['S', 'S', 'S', 'S', 'S', 'S', 'S', 'C', 'C', 'C', 'C', 'C', 'C', 'C', 'C', 'C', 'C', 'C', 'C', 'C', 'C', 'C', 'C']","[802835, 803432, 804037, 804642, 805219, 805814, 806396, 807061, 807699, 808294, 808848, 809410, 809981, 810575, 811151, 811693, 812269, 812862, 813423, 813938, 814485, 815089, 815651]","[802949, 803614, 804147, 804781, 805307, 805984, 806645, 807263, 807909, 808495, 809043, 809666, 810285, 810857, 811441, 812075, 812607, 813150, 813682, 814219, 814733, 815261, 815759]","[802265, 802864, 803463, 804063, 804663, 805263, 805863, 806463, 807088, 807725, 808320, 808873, 809436, 810007, 810601, 811177, 811718, 812296, 812888, 813450, 813964, 814512, 815115, 815677]",17,R,ITM,1.1,
7,400,trial,0,36,36,36,trial,"['S', 'S', 'S', 'S', 'S', 'S', 'S', 'C', 'C', 'C', 'C', 'C', 'C', 'C', 'C', 'C', 'C', 'C', 'C', 'C', 'C', 'C', 'C']","[821636, 821998, 822348, 822723, 823122, 823516, 823930, 824335, 824741, 825144, 825540, 825958, 826342, 826738, 827116, 827549, 827917, 828328, 828696, 829096, 829471, 829857, 830251]","[821770, 822059, 822396, 822807, 823155, 823571, 823991, 824433, 824812, 825225, 825650, 826045, 826430, 826859, 827257, 827642, 828018, 828428, 828782, 829193, 829599, 829979, 830377]","[821147, 821547, 821946, 822346, 822747, 823146, 823546, 823946, 824363, 824768, 825170, 825567, 825985, 826369, 826766, 827143, 827576, 827944, 828355, 828723, 829124, 829498, 829884, 830277]",17,R,ITM,1.1,
4,400,trial,0,37,37,37,trial,"['S', 'S', 'S', 'S', 'S', 'S', 'S', 'C', 'C', 'C', 'C', 'C', 'C', 'C', 'C', 'C', 'C', 'C', 'C', 'C', 'C', 'C', 'C']","[836448, 836824, 837193, 837592, 837982, 838423, 838771, 839196, 839586, 839992, 840410, 840806, 841190, 841574, 841965, 842351, 842711, 843100, 843497, 843864, 844241, 844634, 845025]","[836584, 836915, 837273, 837663, 838086, 838514, 838865, 839322, 839698, 840043, 840489, 840905, 841234, 841698, 842071, 842432, 842824, 843181, 843572, 843955, 844318, 844723, 845117]","[836032, 836432, 836832, 837232, 837633, 838032, 838432, 838833, 839223, 839612, 840017, 840435, 840832, 841216, 841600, 841991, 842377, 842736, 843126, 843523, 843889, 844267, 844659, 845050]",17,R,ITM,1.1,
2,600,trial,0,38,38,38,trial,"['S', 'S', 'S', 'S', 'S', 'S', 'S', 'C', 'C', 'C', 'C', 'C', 'C', 'C', 'C', 'C', 'C', 'C', 'C', 'C', 'C', 'C', 'C']","[850982, 851730, 852337, 852975, 853628, 854171, 854775, 855382, 855985, 856589, 857183, 857787, 858380, 858956, 859537, 860137, 860775, 861344, 861917, 862482, 863162, 863785, 864321]","[851130, 851975, 852638, 853218, 853827, 854409, 854996, 855632, 856250, 856836, 857428, 858018, 858594, 859171, 859766, 860391, 861020, 861639, 862211, 862715, 863412, 864037, 864572]","[850585, 851185, 851785, 852385, 852985, 853585, 854185, 854786, 855408, 856011, 856615, 857209, 857814, 858406, 858983, 859565, 860165, 860803, 861371, 861943, 862510, 863190, 863813, 864349]",17,R,ITM,1.1,
7,600,trial,0,39,39,39,trial,"['S', 'S', 'S', 'S', 'S', 'S', 'S', 'C', 'C', 'C', 'C', 'C', 'C', 'C', 'C', 'C', 'C', 'C', 'C', 'C', 'C', 'C', 'C']","[870294, 871012, 871638, 872225, 872873, 873563, 874055, 874655, 875265, 875869, 876505, 877146, 877750, 878303, 878889, 879470, 880008, 880559, 881153, 881689, 882309, 882864, 883440]","[870474, 871244, 871882, 872513, 873132, 873782, 874317, 874895, 875513, 876138, 876731, 877360, 878003, 878615, 879202, 879792, 880257, 880871, 881445, 881972, 882588, 883192]","[869856, 870455, 871055, 871655, 872255, 872855, 873455, 874055, 874683, 875292, 875896, 876531, 877173, 877776, 878329, 878916, 879498, 880034, 880585, 881179, 881717, 882336, 882891, 883467]",17,R,ITM,1.1,
5,600,trial,0,40,40,40,trial,"['S', 'S', 'S', 'S', 'S', 'S', 'C', 'C', 'C', 'C', 'C', 'C', 'C', 'C', 'C', 'C', 'C', 'C', 'C', 'C', 'C', 'C']","[890432, 891034, 891668, 892218, 892854, 893452, 894060, 894661, 895249, 895847, 896462, 897073, 897700, 898300, 898893, 899562, 900224, 900910, 901516, 902152, 902772, 903439]","[890619, 891223, 891851, 892467, 893080, 893754, 894385, 894973, 895551, 896164, 896741, 897379, 897960, 898541, 899170, 899814, 900461, 901061, 901765, 902380, 903020]","[889233, 889832, 890432, 891032, 891632, 892232, 892832, 893432, 894087, 894688, 895276, 895874, 896488, 897098, 897726, 898326, 898919, 899588, 900249, 900936, 901541, 902178, 902798, 903464]",17,R,ITM,1.1,
5,400,trial,0,41,41,41,trial,"['S', 'S', 'S', 'S', 'S', 'C', 'C', 'C', 'C', 'C', 'C', 'C', 'C', 'C', 'C', 'C', 'C', 'C', 'C', 'C', 'C']","[910199, 910601, 911001, 911378, 911766, 912174, 912570, 912968, 913377, 913823, 914230, 914630, 915010, 915386, 915770, 916154, 916534, 916929, 917314, 917725, 918090]","[910298, 910695, 911099, 911495, 911900, 912288, 912694, 913119, 913513, 913915, 914333, 914732, 915103, 915491, 915895, 916276, 916657, 917027, 917408, 917826, 918200]","[909031, 909431, 909831, 910231, 910631, 911031, 911431, 911832, 912200, 912595, 912995, 913402, 913849, 914255, 914656, 915036, 915411, 915796, 916180, 916559, 916955, 917341, 917750, 918116]",17,R,ITM,1.1,
3,400,trial,0,42,42,42,trial,"['S', 'S', 'S', 'S', 'S', 'S', 'S', 'C', 'C', 'C', 'C', 'C', 'C', 'C', 'C', 'C', 'C', 'C', 'C', 'C', 'C', 'C', 'C']","[937568, 937921, 938292, 938677, 939072, 939488, 939882, 940279, 940667, 941078, 941473, 941871, 942235, 942641, 943025, 943415, 943765, 944172, 944571, 944948, 945335, 945720, 946128]","[937695, 938028, 938380, 938781, 939180, 939599, 940042, 940436, 940823, 941251, 941632, 942036, 942406, 942819, 943205, 943557, 943874, 944269, 944625, 945075, 945459, 945874, 946268]","[937107, 937507, 937907, 938307, 938707, 939107, 939507, 939908, 940305, 940693, 941104, 941499, 941896, 942261, 942666, 943050, 943440, 943791, 944197, 944596, 944973, 945360, 945745, 946154]",17,R,ITM,1.1,
7,600,trial,0,43,43,43,trial,"['S', 'S', 'S', 'S', 'S', 'S', 'S', 'C', 'C', 'C', 'C', 'C', 'C', 'C', 'C', 'C', 'C', 'C', 'C', 'C', 'C', 'C', 'C']","[952345, 953051, 953719, 954343, 954945, 955518, 956120, 956670, 957289, 957929, 958545, 959120, 959734, 960351, 960985, 961548, 962143, 962726, 963307, 963924, 964627, 965302, 965960]","[952492, 953228, 953896, 954508, 955088, 955678, 956283, 956875, 957517, 958171, 958798, 959358, 959943, 960538, 961156, 961721, 962354, 962955, 963528, 964136, 964814, 965505, 966116]","[951919, 952518, 953118, 953718, 954318, 954918, 955518, 956119, 956697, 957316, 957956, 958573, 959148, 959761, 960377, 961012, 961575, 962169, 962753, 963335, 963950, 964655, 965329, 965987]",17,R,ITM,1.1,
6,400,trial,0,44,44,44,trial,"['S', 'S', 'S', 'S', 'S', 'S', 'S', 'C', 'C', 'C', 'C', 'C', 'C', 'C', 'C', 'C', 'C', 'C', 'C', 'C', 'C', 'C', 'C']","[971947, 972297, 972726, 973096, 973494, 973935, 974260, 974660, 975065, 975466, 975856, 976229, 976604, 977004, 977386, 977746, 978113, 978529, 978896, 979310, 979690, 980077, 980453]","[972066, 972378, 972809, 973201, 973585, 973980, 974371, 974803, 975164, 975596, 976009, 976384, 976744, 977128, 977497, 977878, 978257, 978682, 979050, 979405, 979806, 980143, 980572]","[971524, 971922, 972322, 972723, 973123, 973523, 973923, 974323, 974687, 975091, 975493, 975883, 976257, 976631, 977031, 977413, 977774, 978141, 978555, 978924, 979337, 979717, 980104, 980480]",17,R,ITM,1.1,
3,600,trial,0,45,45,45,trial,"['S', 'S', 'S', 'S', 'S', 'S', 'S', 'C', 'C', 'C', 'C', 'C', 'C', 'C', 'C', 'C', 'C', 'C', 'C', 'C', 'C', 'C', 'C']","[986571, 987283, 987824, 988489, 989075, 989698, 990292, 990892, 991439, 992007, 992591, 993166, 993782, 994309, 994881, 995445, 995987, 996543, 997132, 997726, 998288, 998821, 999333]","[986734, 987375, 987948, 988621, 989250, 989883, 990521, 991132, 991654, 992258, 992834, 993406, 994055, 994584, 995160, 995735, 996308, 996838, 997408, 998001, 998523, 999153]","[986126, 986726, 987326, 987926, 988526, 989126, 989726, 990326, 990917, 991465, 992032, 992617, 993191, 993808, 994334, 994907, 995472, 996013, 996569, 997157, 997751, 998313, 998847, 999359]",17,R,ITM,1.1,
3,600,trial,0,46,46,46,trial,"['S', 'S', 'S', 'S', 'S', 'S', 'S', 'C', 'C', 'C', 'C', 'C', 'C', 'C', 'C', 'C', 'C', 'C', 'C', 'C', 'C', 'C', 'C']","[1005533, 1006241, 1006850, 1007429, 1008037, 1008697, 1009172, 1009809, 1010419, 1011049, 1011584, 1012179, 1012786, 1013341, 1013950, 1014561, 1015185, 1015826, 1016397, 1016980, 1017564, 1018156, 1018733]","[1005758, 1006448, 1007044, 1007653, 1008253, 1008852, 1009406, 1010025, 1010621, 1011257, 1011777, 1012426, 1013043, 1013593, 1014142, 1014753, 1015390, 1015952, 1016505, 1017115, 1017723, 1018314, 1018899]","[1005038, 1005637, 1006237, 1006837, 1007437, 1008037, 1008637, 1009238, 1009835, 1010445, 1011075, 1011609, 1012205, 1012811, 1013366, 1013976, 1014587, 1015211, 1015852, 1016423, 1017006, 1017589, 1018181, 1018759]",17,R,ITM,1.1,
6,400,trial,0,47,47,47,trial,"['S', 'S', 'S', 'S', 'S', 'S', 'S', 'C', 'C', 'C', 'C', 'C', 'C', 'C', 'C', 'C', 'C', 'C', 'C', 'C', 'C', 'C', 'C']","[1024984, 1025320, 1025682, 1026094, 1026473, 1026868, 1027275, 1027665, 1028072, 1028480, 1028872, 1029235, 1029627, 1030023, 1030401, 1030805, 1031231, 1031635, 1032055, 1032455, 1032813, 1033206, 1033604]","[1025092, 1025427, 1025786, 1026165, 1026576, 1026934, 1027354, 1027781, 1028183, 1028566, 1028951, 1029325, 1029702, 1030095, 1030503, 1030878, 1031335, 1031758, 1032165, 1032548, 1032926, 1033302, 1033696]","[1024468, 1024868, 1025268, 1025669, 1026068, 1026468, 1026868, 1027268, 1027693, 1028099, 1028506, 1028899, 1029263, 1029655, 1030049, 1030427, 1030832, 1031259, 1031662, 1032082, 1032482, 1032840, 1033233, 1033630]",17,R,ITM,1.1,
2,400,trial,0,48,48,48,trial,"['S', 'S', 'S', 'S', 'S', 'S', 'S', 'C', 'C', 'C', 'C', 'C', 'C', 'C', 'C', 'C', 'C', 'C', 'C', 'C', 'C', 'C', 'C']","[1039643, 1039993, 1040359, 1040745, 1041138, 1041553, 1041925, 1042334, 1042731, 1043156, 1043563, 1043971, 1044349, 1044776, 1045182, 1045599, 1045962, 1046408, 1046859, 1047246, 1047618, 1048020, 1048392]","[1039740, 1040071, 1040446, 1040857, 1041245, 1041672, 1042059, 1042473, 1042864, 1043273, 1043667, 1044080, 1044474, 1044891, 1045284, 1045688, 1046090, 1046511, 1046919, 1047333, 1047725, 1048114, 1048491]","[1039181, 1039582, 1039980, 1040380, 1040780, 1041181, 1041582, 1041981, 1042362, 1042758, 1043184, 1043590, 1043998, 1044377, 1044804, 1045210, 1045626, 1045990, 1046434, 1046887, 1047273, 1047646, 1048047, 1048420]",17,R,ITM,1.1,
4,400,trial,0,49,49,49,trial,"['S', 'S', 'S', 'S', 'S', 'S', 'S', 'C', 'C', 'C', 'C', 'C', 'C', 'C', 'C', 'C', 'C', 'C', 'C', 'C', 'C', 'C', 'C']","[1054299, 1054785, 1055108, 1055428, 1055850, 1056241, 1056653, 1057068, 1057472, 1057833, 1058181, 1058576, 1058976, 1059367, 1059789, 1060193, 1060613, 1060965, 1061382, 1061791, 1062213, 1062649, 1063075]","[1054341, 1054822, 1055154, 1055489, 1055909, 1056291, 1056692, 1057112, 1057522, 1057903, 1058250, 1058634, 1059021, 1059426, 1059838, 1060226, 1060658, 1061045, 1061449, 1061844, 1062242, 1062703, 1063153]","[1053880, 1054279, 1054680, 1055079, 1055479, 1055879, 1056279, 1056679, 1057093, 1057498, 1057860, 1058206, 1058601, 1059002, 1059393, 1059815, 1060218, 1060638, 1060990, 1061407, 1061817, 1062239, 1062675, 1063101]",17,R,ITM,1.1,
6,600,trial,0,50,50,50,trial,"['S', 'S', 'S', 'S', 'S', 'S', 'S', 'C', 'C', 'C', 'C', 'C', 'C', 'C', 'C', 'C', 'C', 'C', 'C', 'C', 'C', 'C', 'C']","[1069221, 1069944, 1070522, 1071121, 1071723, 1072344, 1072935, 1073510, 1074071, 1074640, 1075219, 1075799, 1076365, 1076934, 1077519, 1078090, 1078680, 1079241, 1079785, 1080388, 1080975, 1081510, 1082120]","[1069304, 1070022, 1070624, 1071269, 1071873, 1072531, 1073127, 1073738, 1074337, 1074916, 1075444, 1075978, 1076549, 1077143, 1077704, 1078258, 1078880, 1079516, 1080102, 1080736, 1081313, 1081866]","[1068789, 1069388, 1069988, 1070588, 1071188, 1071789, 1072389, 1072989, 1073538, 1074098, 1074668, 1075247, 1075825, 1076392, 1076961, 1077545, 1078118, 1078707, 1079268, 1079812, 1080415, 1081001, 1081537, 1082147]",17,R,ITM,1.1,
4,600,trial,0,51,51,51,trial,"['S', 'S', 'S', 'S', 'S', 'S', 'S', 'C', 'C', 'C', 'C', 'C', 'C', 'C', 'C', 'C', 'C', 'C', 'C', 'C', 'C', 'C', 'C']","[1087993, 1088619, 1089180, 1089807, 1090460, 1091013, 1091628, 1092256, 1092852, 1093444, 1094006, 1094595, 1095183, 1095809, 1096384, 1096951, 1097571, 1098145, 1098721, 1099280, 1099850, 1100413, 1101015]","[1088159, 1088779, 1089381, 1090011, 1090613, 1091226, 1091838, 1092461, 1093067, 1093656, 1094219, 1094809, 1095402, 1096009, 1096654, 1097285, 1097862, 1098476, 1098956, 1099581, 1100063, 1100650, 1101234]","[1087477, 1088077, 1088677, 1089277, 1089878, 1090478, 1091078, 1091677, 1092283, 1092878, 1093470, 1094032, 1094621, 1095208, 1095834, 1096411, 1096977, 1097596, 1098172, 1098746, 1099305, 1099876, 1100439, 1101040]",17,R,ITM,1.1,
5,400,trial,0,52,52,52,trial,"['S', 'S', 'S', 'S', 'S', 'S', 'S', 'C', 'C', 'C', 'C', 'C', 'C', 'C', 'C', 'C', 'C', 'C', 'C', 'C', 'C', 'C', 'C']","[1107027, 1107393, 1107761, 1108157, 1108551, 1108977, 1109353, 1109785, 1110181, 1110561, 1110968, 1111361, 1111737, 1112162, 1112545, 1112936, 1113316, 1113706, 1114097, 1114498, 1114876, 1115264, 1115634]","[1107139, 1107474, 1107849, 1108252, 1108655, 1109055, 1109447, 1109878, 1110289, 1110675, 1111066, 1111467, 1111843, 1112232, 1112646, 1113021, 1113434, 1113839, 1114230, 1114634, 1115005, 1115373, 1115778]","[1106573, 1106972, 1107373, 1107772, 1108172, 1108573, 1108973, 1109373, 1109811, 1110207, 1110588, 1110993, 1111388, 1111763, 1112187, 1112570, 1112962, 1113342, 1113732, 1114124, 1114524, 1114902, 1115289, 1115660]",17,R,ITM,1.1,
4,600,trial,0,53,53,53,trial,"['S', 'S', 'S', 'S', 'S', 'S', 'S', 'C', 'C', 'C', 'C', 'C', 'C', 'C', 'C', 'C', 'C', 'C', 'C', 'C', 'C', 'C', 'C']","[1121631, 1122344, 1122960, 1123592, 1124183, 1124771, 1125392, 1126022, 1126627, 1127195, 1127731, 1128309, 1128907, 1129462, 1130050, 1130626, 1131160, 1131752, 1132339, 1132889, 1133447, 1134004, 1134718]","[1121734, 1122458, 1123092, 1123773, 1124410, 1124983, 1125578, 1126188, 1126778, 1127408, 1127934, 1128572, 1129095, 1129628, 1130227, 1130795, 1131374, 1131950, 1132521, 1133111, 1133668, 1134176, 1134795]","[1121272, 1121872, 1122472, 1123073, 1123673, 1124273, 1124872, 1125472, 1126047, 1126653, 1127221, 1127756, 1128335, 1128933, 1129488, 1130076, 1130651, 1131186, 1131778, 1132364, 1132914, 1133472, 1134030, 1134745]",17,R,ITM,1.1,
4,600,trial,0,54,54,54,trial,"['S', 'S', 'S', 'S', 'S', 'S', 'S', 'C', 'C', 'C', 'C', 'C', 'C', 'C', 'C', 'C', 'C', 'C', 'C', 'C', 'C', 'C', 'C']","[1143399, 1144034, 1144619, 1145205, 1145781, 1146372, 1146992, 1147601, 1148115, 1148673, 1149240, 1149805, 1150363, 1150918, 1151451, 1152043, 1152590, 1153158, 1153704, 1154286, 1154806, 1155310, 1155861]","[1143536, 1144116, 1144754, 1145339, 1145931, 1146534, 1147161, 1147750, 1148304, 1148908, 1149437, 1149954, 1150498, 1151062, 1151601, 1152218, 1152769, 1153352, 1153891, 1154414, 1154926, 1155523, 1155964]","[1142930, 1143529, 1144129, 1144729, 1145329, 1145929, 1146529, 1147129, 1147627, 1148141, 1148698, 1149266, 1149831, 1150389, 1150944, 1151477, 1152068, 1152616, 1153183, 1153730, 1154312, 1154832, 1155337, 1155887]",17,R,ITM,1.1,
5,600,trial,0,55,55,55,trial,"['S', 'S', 'S', 'S', 'S', 'S', 'S', 'C', 'C', 'C', 'C', 'C', 'C', 'C', 'C', 'C', 'C', 'C', 'C', 'C', 'C', 'C', 'C']","[1161708, 1162441, 1163095, 1163697, 1164308, 1164879, 1165493, 1166076, 1166706, 1167300, 1167883, 1168526, 1169103, 1169669, 1170243, 1170822, 1171403, 1171989, 1172540, 1173131, 1173685, 1174288, 1174909]","[1161827, 1162592, 1163286, 1163888, 1164513, 1165112, 1165791, 1166437, 1167032, 1167636, 1168244, 1168837, 1169395, 1169973, 1170496, 1171116, 1171682, 1172295, 1172807, 1173332, 1173805, 1174431, 1175034]","[1161317, 1161917, 1162517, 1163117, 1163717, 1164317, 1164917, 1165517, 1166102, 1166733, 1167326, 1167909, 1168551, 1169130, 1169695, 1170269, 1170847, 1171429, 1172016, 1172566, 1173157, 1173710, 1174315, 1174935]",17,R,ITM,1.1,
5,600,trial,0,56,56,56,trial,"['S', 'S', 'S', 'S', 'S', 'S', 'S', 'C', 'C', 'C', 'C', 'C', 'C', 'C', 'C', 'C', 'C', 'C', 'C', 'C', 'C', 'C', 'C']","[1180882, 1181481, 1182121, 1182703, 1183280, 1183890, 1184490, 1185130, 1185699, 1186206, 1186770, 1187403, 1187983, 1188558, 1189130, 1189761, 1190353, 1190895, 1191469, 1192008, 1192554, 1193128, 1193666]","[1180989, 1181617, 1182261, 1182891, 1183502, 1184104, 1184686, 1185293, 1185977, 1186488, 1187076, 1187723, 1188262, 1188812, 1189409, 1190022, 1190595, 1191108, 1191715, 1192303, 1192842, 1193404]","[1180375, 1180974, 1181574, 1182173, 1182773, 1183373, 1183973, 1184573, 1185156, 1185725, 1186233, 1186796, 1187429, 1188008, 1188584, 1189155, 1189786, 1190379, 1190921, 1191494, 1192034, 1192580, 1193154, 1193692]",17,R,ITM,1.1,
6,600,trial,0,57,57,57,trial,"['S', 'S', 'S', 'S', 'S', 'S', 'S', 'C', 'C', 'C', 'C', 'C', 'C', 'C', 'C', 'C', 'C', 'C', 'C', 'C', 'C', 'C', 'C']","[1199716, 1200335, 1200963, 1201611, 1202211, 1202793, 1203351, 1203980, 1204579, 1205152, 1205727, 1206387, 1206924, 1207503, 1208082, 1208669, 1209272, 1209834, 1210415, 1210985, 1211570, 1212145, 1212701]","[1199836, 1200471, 1201167, 1201835, 1202427, 1203034, 1203634, 1204257, 1204857, 1205479, 1206011, 1206641, 1207259, 1207787, 1208283, 1208982, 1209550, 1210147, 1210696, 1211250, 1211854, 1212417]","[1199212, 1199811, 1200411, 1201011, 1201611, 1202211, 1202811, 1203411, 1204007, 1204606, 1205179, 1205753, 1206414, 1206950, 1207530, 1208110, 1208695, 1209298, 1209861, 1210442, 1211012, 1211596, 1212172, 1212728]",17,R,ITM,1.1,
2,600,trial,0,58,58,58,trial,"['S', 'S', 'S', 'S', 'S', 'S', 'S', 'C', 'C', 'C', 'C', 'C', 'C', 'C', 'C', 'C', 'C', 'C', 'C', 'C', 'C', 'C', 'C']","[1218655, 1219271, 1219895, 1220484, 1221105, 1221704, 1222338, 1222930, 1223521, 1224119, 1224699, 1225293, 1225915, 1226550, 1227138, 1227754, 1228324, 1228894, 1229476, 1230063, 1230661, 1231283, 1231864]","[1218887, 1219468, 1220094, 1220765, 1221394, 1221981, 1222536, 1223146, 1223749, 1224378, 1225025, 1225568, 1226164, 1226729, 1227377, 1227791, 1228394, 1228984, 1229601, 1230254, 1230829, 1231395, 1231987]","[1218131, 1218732, 1219332, 1219932, 1220531, 1221132, 1221732, 1222331, 1222957, 1223547, 1224145, 1224727, 1225321, 1225943, 1226576, 1227164, 1227781, 1228352, 1228920, 1229503, 1230091, 1230689, 1231310, 1231892]",17,R,ITM,1.1,
6,400,trial,0,59,59,59,trial,"['S', 'S', 'S', 'S', 'S', 'S', 'S', 'C', 'C', 'C', 'C', 'C', 'C', 'C', 'C', 'C', 'C', 'C', 'C', 'C', 'C', 'C', 'C']","[1238078, 1238412, 1238757, 1239190, 1239582, 1239985, 1240425, 1240770, 1241170, 1241554, 1241972, 1242329, 1242711, 1243133, 1243536, 1243924, 1244326, 1244774, 1245175, 1245590, 1246005, 1246422, 1246843]","[1238167, 1238486, 1238840, 1239273, 1239675, 1240075, 1240487, 1240853, 1241254, 1241644, 1242040, 1242452, 1242798, 1243216, 1243635, 1244041, 1244420, 1244830, 1245251, 1245671, 1246104, 1246478, 1246909]","[1237625, 1238025, 1238425, 1238825, 1239225, 1239625, 1240026, 1240425, 1240798, 1241197, 1241581, 1241999, 1242356, 1242737, 1243160, 1243564, 1243951, 1244353, 1244801, 1245202, 1245618, 1246031, 1246448, 1246870]",17,R,ITM,1.1,
3,400,trial,0,60,60,60,trial,"['S', 'S', 'S', 'S', 'S', 'S', 'S', 'C', 'C', 'C', 'C', 'C', 'C', 'C', 'C', 'C', 'C', 'C', 'C', 'C', 'C', 'C', 'C']","[1252713, 1253067, 1253438, 1253858, 1254240, 1254619, 1255035, 1255421, 1255826, 1256203, 1256567, 1256955, 1257370, 1257760, 1258121, 1258507, 1258907, 1259268, 1259646, 1260054, 1260420, 1260832, 1261221]","[1252801, 1253149, 1253528, 1253947, 1254339, 1254711, 1255121, 1255512, 1255906, 1256299, 1256680, 1257063, 1257481, 1257846, 1258196, 1258592, 1258986, 1259383, 1259767, 1260150, 1260530, 1260922, 1261331]","[1252284, 1252684, 1253085, 1253485, 1253885, 1254285, 1254685, 1255086, 1255447, 1255852, 1256228, 1256593, 1256981, 1257396, 1257786, 1258146, 1258532, 1258933, 1259293, 1259672, 1260080, 1260445, 1260858, 1261247]",17,R,ITM,1.1,
3,400,trial,0,61,61,61,trial,"['S', 'S', 'S', 'S', 'S', 'S', 'S', 'C', 'C', 'C', 'C', 'C', 'C', 'C', 'C', 'C', 'C', 'C', 'C', 'C', 'C', 'C', 'C']","[1267229, 1267577, 1267954, 1268327, 1268721, 1269101, 1269497, 1269926, 1270280, 1270663, 1271056, 1271453, 1271842, 1272209, 1272612, 1272990, 1273364, 1273761, 1274142, 1274534, 1274930, 1275326, 1275742]","[1267316, 1267667, 1268044, 1268441, 1268836, 1269208, 1269586, 1270009, 1270374, 1270776, 1271163, 1271527, 1271922, 1272306, 1272695, 1273095, 1273478, 1273871, 1274260, 1274661, 1275034, 1275409, 1275808]","[1266770, 1267170, 1267570, 1267971, 1268370, 1268770, 1269170, 1269570, 1269952, 1270305, 1270688, 1271081, 1271479, 1271868, 1272235, 1272638, 1273016, 1273390, 1273787, 1274168, 1274560, 1274955, 1275353, 1275767]",17,R,ITM,1.1,
6,400,trial,0,62,62,62,trial,"['S', 'S', 'S', 'S', 'S', 'S', 'S', 'C', 'C', 'C', 'C', 'C', 'C', 'C', 'C', 'C', 'C', 'C', 'C', 'C', 'C', 'C', 'C']","[1281822, 1282174, 1282597, 1282997, 1283369, 1283769, 1284150, 1284511, 1284919, 1285312, 1285692, 1286068, 1286446, 1286831, 1287275, 1287677, 1288044, 1288409, 1288793, 1289148, 1289537, 1289939, 1290320]","[1281881, 1282257, 1282666, 1283072, 1283434, 1283869, 1284253, 1284626, 1285021, 1285428, 1285821, 1286202, 1286642, 1286999, 1287389, 1287796, 1288146, 1288520, 1288895, 1289289, 1289650, 1290030, 1290444]","[1281397, 1281798, 1282197, 1282597, 1282997, 1283397, 1283798, 1284197, 1284539, 1284946, 1285339, 1285719, 1286094, 1286472, 1286857, 1287302, 1287705, 1288071, 1288435, 1288819, 1289175, 1289564, 1289966, 1290347]",17,R,ITM,1.1,
2,600,trial,0,63,63,63,trial,"['S', 'S', 'S', 'S', 'S', 'S', 'S', 'C', 'C', 'C', 'C', 'C', 'C', 'C', 'C', 'C', 'C', 'C', 'C', 'C', 'C', 'C', 'C']","[1296287, 1296967, 1297602, 1298212, 1298816, 1299463, 1300034, 1300625, 1301239, 1301850, 1302430, 1303029, 1303600, 1304183, 1304812, 1305399, 1306015, 1306604, 1307202, 1307779, 1308389, 1308993, 1309570]","[1296412, 1297153, 1297774, 1298440, 1299084, 1299646, 1300243, 1300865, 1301453, 1302064, 1302645, 1303264, 1303857, 1304492, 1305065, 1305648, 1306242, 1306868, 1307432, 1308017, 1308617, 1309236, 1309802]","[1295859, 1296459, 1297058, 1297659, 1298259, 1298860, 1299460, 1300060, 1300652, 1301267, 1301877, 1302458, 1303056, 1303627, 1304210, 1304839, 1305426, 1306043, 1306632, 1307230, 1307805, 1308416, 1309021, 1309597]",17,R,ITM,1.1,
4,600,trial,0,64,64,64,trial,"['S', 'S', 'S', 'S', 'S', 'S', 'S', 'C', 'C', 'C', 'C', 'C', 'C', 'C', 'C', 'C', 'C', 'C', 'C', 'C', 'C', 'C', 'C']","[1315940, 1316474, 1317073, 1317662, 1318248, 1318827, 1319389, 1320035, 1320606, 1321228, 1321814, 1322407, 1323015, 1323602, 1324197, 1324783, 1325350, 1325965, 1326550, 1327139, 1327757, 1328279, 1328864]","[1316055, 1316590, 1317171, 1317789, 1318443, 1319030, 1319617, 1320240, 1320896, 1321455, 1322035, 1322628, 1323262, 1323872, 1324479, 1325065, 1325592, 1326197, 1326799, 1327389, 1327979, 1328599]","[1315318, 1315918, 1316518, 1317118, 1317719, 1318319, 1318919, 1319519, 1320060, 1320632, 1321253, 1321839, 1322433, 1323040, 1323628, 1324223, 1324810, 1325376, 1325991, 1326576, 1327165, 1327782, 1328305, 1328889]",17,R,ITM,1.1,
4,400,trial,0,65,65,65,trial,"['S', 'S', 'S', 'S', 'S', 'S', 'S', 'C', 'C', 'C', 'C', 'C', 'C', 'C', 'C', 'C', 'C', 'C', 'C', 'C', 'C', 'C', 'C']","[1334659, 1334992, 1335359, 1335763, 1336162, 1336547, 1336956, 1337341, 1337717, 1338147, 1338567, 1338951, 1339346, 1339750, 1340130, 1340509, 1340918, 1341333, 1341713, 1342071, 1342429, 1342823, 1343160]","[1334793, 1335095, 1335451, 1335861, 1336267, 1336662, 1337053, 1337409, 1337828, 1338259, 1338667, 1339066, 1339460, 1339858, 1340222, 1340640, 1341035, 1341422, 1341804, 1342180, 1342528, 1342926, 1343256]","[1334171, 1334572, 1334971, 1335371, 1335772, 1336171, 1336571, 1336971, 1337367, 1337743, 1338173, 1338594, 1338977, 1339372, 1339776, 1340156, 1340535, 1340945, 1341359, 1341739, 1342097, 1342454, 1342849, 1343185]",17,R,ITM,1.1,
7,400,trial,0,66,66,66,trial,"['S', 'S', 'S', 'S', 'S', 'S', 'S', 'C', 'C', 'C', 'C', 'C', 'C', 'C', 'C', 'C', 'C', 'C', 'C', 'C', 'C', 'C', 'C']","[1349163, 1349490, 1349855, 1350239, 1350607, 1351030, 1351428, 1351805, 1352171, 1352563, 1352945, 1353326, 1353699, 1354091, 1354494, 1354862, 1355256, 1355633, 1356016, 1356400, 1356763, 1357201, 1357562]","[1349226, 1349582, 1349959, 1350349, 1350736, 1351152, 1351553, 1351930, 1352312, 1352699, 1353051, 1353392, 1353820, 1354218, 1354636, 1354997, 1355385, 1355768, 1356126, 1356606, 1356918, 1357329, 1357696]","[1348677, 1349076, 1349476, 1349876, 1350277, 1350676, 1351076, 1351476, 1351833, 1352198, 1352590, 1352973, 1353354, 1353725, 1354118, 1354522, 1354890, 1355283, 1355660, 1356043, 1356427, 1356789, 1357229, 1357590]",17,R,ITM,1.1,
7,600,trial,0,67,67,67,trial,"['S', 'S', 'S', 'S', 'S', 'S', 'S', 'C', 'C', 'C', 'C', 'C', 'C', 'C', 'C', 'C', 'C', 'C', 'C', 'C', 'C', 'C', 'C']","[1363756, 1364447, 1365020, 1365621, 1366266, 1366857, 1367408, 1368059, 1368628, 1369270, 1369860, 1370465, 1371021, 1371612, 1372193, 1372795, 1373377, 1373963, 1374557, 1375138, 1375706, 1376264, 1376837]","[1363898, 1364534, 1365124, 1365736, 1366383, 1366981, 1367560, 1368177, 1368798, 1369451, 1370157, 1370712, 1371275, 1371849, 1372435, 1373022, 1373640, 1374276, 1374799, 1375440, 1375966, 1376517]","[1363299, 1363898, 1364498, 1365098, 1365698, 1366298, 1366898, 1367498, 1368087, 1368655, 1369296, 1369887, 1370492, 1371048, 1371638, 1372220, 1372823, 1373405, 1373990, 1374584, 1375165, 1375732, 1376290, 1376864]",17,R,ITM,1.1,
2,400,trial,0,68,68,68,trial,"['S', 'S', 'S', 'S', 'S', 'S', 'S', 'C', 'C', 'C', 'C', 'C', 'C', 'C', 'C', 'C', 'C', 'C', 'C', 'C', 'C', 'C', 'C']","[1383107, 1383429, 1383787, 1384168, 1384553, 1384950, 1385350, 1385788, 1386172, 1386584, 1386936, 1387335, 1387748, 1388143, 1388533, 1388902, 1389254, 1389645, 1390036, 1390441, 1390832, 1391242, 1391609]","[1383239, 1383498, 1383886, 1384300, 1384686, 1385105, 1385526, 1385944, 1386351, 1386714, 1387101, 1387530, 1387889, 1388270, 1388634, 1389038, 1389423, 1389790, 1390164, 1390579, 1390957, 1391382, 1391807]","[1382581, 1382981, 1383380, 1383781, 1384180, 1384582, 1384981, 1385381, 1385815, 1386200, 1386610, 1386962, 1387362, 1387774, 1388170, 1388560, 1388930, 1389282, 1389673, 1390064, 1390468, 1390859, 1391269, 1391636]",17,R,ITM,1.1,
6,600,trial,0,69,69,69,trial,"['S', 'S', 'S', 'S', 'S', 'S', 'S', 'C', 'C', 'C', 'C', 'C', 'C', 'C', 'C', 'C', 'C', 'C', 'C', 'C', 'C', 'C', 'C']","[1397564, 1398234, 1398814, 1399434, 1400074, 1400622, 1401234, 1401825, 1402433, 1403021, 1403593, 1404183, 1404759, 1405348, 1405931, 1406476, 1407102, 1407698, 1408278, 1408825, 1409415, 1409990, 1410585]","[1397705, 1398379, 1399050, 1399673, 1400325, 1400912, 1401576, 1402179, 1402746, 1403340, 1403953, 1404480, 1405065, 1405648, 1406242, 1406790, 1407367, 1408011, 1408593, 1409123, 1409659, 1410246]","[1397073, 1397673, 1398274, 1398874, 1399474, 1400073, 1400673, 1401273, 1401852, 1402461, 1403047, 1403620, 1404210, 1404786, 1405376, 1405959, 1406502, 1407129, 1407726, 1408305, 1408852, 1409442, 1410017, 1410612]",17,R,ITM,1.1,
7,400,trial,0,70,70,70,trial,"['S', 'S', 'S', 'S', 'S', 'S', 'S', 'C', 'C', 'C', 'C', 'C', 'C', 'C', 'C', 'C', 'C', 'C', 'C', 'C', 'C', 'C', 'C']","[1416785, 1417080, 1417432, 1417808, 1418233, 1418634, 1419027, 1419428, 1419823, 1420198, 1420579, 1421002, 1421394, 1421780, 1422158, 1422563, 1422912, 1423323, 1423679, 1424092, 1424475, 1424872, 1425293]","[1416881, 1417188, 1417533, 1417938, 1418331, 1418749, 1419131, 1419528, 1419911, 1420307, 1420694, 1421114, 1421499, 1421867, 1422265, 1422658, 1423045, 1423413, 1423768, 1424155, 1424540, 1424953, 1425344]","[1416245, 1416644, 1417044, 1417444, 1417844, 1418245, 1418644, 1419044, 1419456, 1419850, 1420225, 1420606, 1421029, 1421421, 1421807, 1422185, 1422590, 1422940, 1423349, 1423707, 1424119, 1424502, 1424899, 1425319]",17,R,ITM,1.1,
3,600,trial,0,71,71,71,trial,"['S', 'S', 'S', 'S', 'S', 'S', 'S', 'C', 'C', 'C', 'C', 'C', 'C', 'C', 'C', 'C', 'C', 'C', 'C', 'C', 'C', 'C', 'C']","[1431191, 1431868, 1432491, 1433176, 1433732, 1434301, 1434929, 1435533, 1436139, 1436737, 1437352, 1437984, 1438547, 1439165, 1439760, 1440399, 1440973, 1441564, 1442157, 1442714, 1443317, 1443939, 1444552]","[1431285, 1431996, 1432651, 1433308, 1433866, 1434463, 1435097, 1435715, 1436312, 1436896, 1437497, 1438112, 1438707, 1439309, 1439900, 1440523, 1441139, 1441739, 1442294, 1442839, 1443461, 1444063, 1444664]","[1430716, 1431316, 1431916, 1432516, 1433116, 1433716, 1434316, 1434916, 1435558, 1436165, 1436763, 1437378, 1438010, 1438573, 1439191, 1439785, 1440424, 1440999, 1441590, 1442183, 1442740, 1443343, 1443964, 1444578]",17,R,ITM,1.1,
4,400,trial,0,72,72,72,trial,"['S', 'S', 'S', 'S', 'S', 'S', 'S', 'C', 'C', 'C', 'C', 'C', 'C', 'C', 'C', 'C', 'C', 'C', 'C', 'C', 'C', 'C', 'C']","[1450417, 1450747, 1451092, 1451531, 1451908, 1452290, 1452679, 1453061, 1453464, 1453881, 1454306, 1454682, 1455095, 1455480, 1455863, 1456236, 1456610, 1457010, 1457399, 1457799, 1458174, 1458561, 1458907]","[1450539, 1450841, 1451196, 1451651, 1452004, 1452386, 1452810, 1453207, 1453570, 1453950, 1454382, 1454789, 1455178, 1455559, 1455965, 1456370, 1456747, 1457150, 1457515, 1457881, 1458251, 1458747, 1459085]","[1449921, 1450321, 1450721, 1451121, 1451522, 1451921, 1452321, 1452722, 1453086, 1453490, 1453906, 1454331, 1454707, 1455121, 1455506, 1455889, 1456262, 1456635, 1457036, 1457425, 1457824, 1458199, 1458586, 1458932]",17,R,ITM,1.1,
7,600,trial,0,73,73,73,trial,"['S', 'S', 'S', 'S', 'S', 'S', 'S', 'S', 'C', 'C', 'C', 'C', 'C', 'C', 'C', 'C', 'C', 'C', 'C', 'C', 'C', 'C', 'C', 'C']","[1464735, 1465092, 1465521, 1466109, 1466711, 1467333, 1467881, 1468477, 1469100, 1469707, 1470279, 1470881, 1471510, 1472144, 1472751, 1473427, 1474044, 1474665, 1475265, 1475876, 1476462, 1477027, 1477646, 1478300]","[1464886, 1465201, 1465704, 1466338, 1466892, 1467496, 1468082, 1468747, 1469381, 1469977, 1470587, 1471162, 1471789, 1472407, 1473008, 1473614, 1474273, 1474833, 1475468, 1476067, 1476696, 1477283, 1477909, 1478546]","[1464321, 1464920, 1465520, 1466120, 1466720, 1467320, 1467920, 1468520, 1469127, 1469733, 1470306, 1470908, 1471537, 1472171, 1472779, 1473454, 1474071, 1474693, 1475292, 1475903, 1476489, 1477055, 1477673, 1478328]",17,R,ITM,1.1,
3,600,trial,0,74,74,74,trial,"['S', 'S', 'S', 'S', 'S', 'S', 'S', 'C', 'C', 'C', 'C', 'C', 'C', 'C', 'C', 'C', 'C', 'C', 'C', 'C', 'C', 'C', 'C']","[1484090, 1484783, 1485406, 1486004, 1486605, 1487218, 1487801, 1488400, 1489030, 1489612, 1490215, 1490824, 1491445, 1492077, 1492662, 1493217, 1493785, 1494407, 1495013, 1495586, 1496166, 1496747, 1497347]","[1484231, 1484895, 1485575, 1486172, 1486773, 1487403, 1487997, 1488658, 1489305, 1489865, 1490440, 1491084, 1491652, 1492300, 1492886, 1493468, 1494081, 1494649, 1495262, 1495770, 1496411, 1497005, 1497595]","[1483631, 1484231, 1484831, 1485431, 1486031, 1486631, 1487232, 1487832, 1488425, 1489055, 1489638, 1490241, 1490849, 1491471, 1492103, 1492687, 1493242, 1493811, 1494432, 1495038, 1495612, 1496192, 1496772, 1497372]",17,R,ITM,1.1,
5,400,trial,0,75,75,75,trial,"['S', 'S', 'S', 'S', 'S', 'S', 'S', 'C', 'C', 'C', 'C', 'C', 'C', 'C', 'C', 'C', 'C', 'C', 'C', 'C', 'C', 'C', 'C']","[1503517, 1503916, 1504289, 1504707, 1505099, 1505481, 1505858, 1506267, 1506661, 1507095, 1507512, 1507884, 1508277, 1508657, 1509046, 1509428, 1509815, 1510200, 1510638, 1511029, 1511401, 1511782, 1512190]","[1503654, 1504007, 1504390, 1504811, 1505187, 1505563, 1505970, 1506376, 1506768, 1507180, 1507606, 1507988, 1508358, 1508747, 1509142, 1509534, 1509907, 1510302, 1510704, 1511127, 1511500, 1511879, 1512294]","[1503100, 1503499, 1503899, 1504300, 1504699, 1505099, 1505500, 1505899, 1506293, 1506686, 1507122, 1507537, 1507909, 1508302, 1508682, 1509071, 1509454, 1509841, 1510225, 1510664, 1511056, 1511427, 1511808, 1512216]",17,R,ITM,1.1,
5,400,trial,0,76,76,76,trial,"['S', 'S', 'S', 'S', 'S', 'S', 'S', 'C', 'C', 'C', 'C', 'C', 'C', 'C', 'C', 'C', 'C', 'C', 'C', 'C', 'C', 'C', 'C']","[1518377, 1518772, 1519126, 1519521, 1519929, 1520329, 1520733, 1521133, 1521519, 1521914, 1522293, 1522682, 1523059, 1523444, 1523844, 1524245, 1524613, 1525001, 1525393, 1525790, 1526142, 1526546, 1526930]","[1518491, 1518846, 1519220, 1519633, 1520024, 1520430, 1520836, 1521250, 1521612, 1522003, 1522402, 1522774, 1523177, 1523584, 1523960, 1524345, 1524721, 1525137, 1525507, 1525892, 1526250, 1526648, 1527026]","[1517969, 1518368, 1518769, 1519168, 1519568, 1519968, 1520368, 1520769, 1521159, 1521545, 1521940, 1522319, 1522709, 1523085, 1523470, 1523870, 1524271, 1524638, 1525026, 1525420, 1525816, 1526168, 1526572, 1526956]",17,R,ITM,1.1,
2,400,trial,0,77,77,77,trial,"['S', 'S', 'S', 'S', 'S', 'S', 'S', 'C', 'C', 'C', 'C', 'C', 'C', 'C', 'C', 'C', 'C', 'C', 'C', 'C', 'C', 'C', 'C']","[1532745, 1533109, 1533473, 1533877, 1534267, 1534669, 1535056, 1535462, 1535863, 1536274, 1536694, 1537083, 1537468, 1537867, 1538255, 1538609, 1539008, 1539417, 1539789, 1540227, 1540612, 1541001, 1541423]","[1532859, 1533190, 1533587, 1533981, 1534374, 1534745, 1535172, 1535554, 1535953, 1536360, 1536782, 1537189, 1537574, 1537963, 1538333, 1538738, 1539123, 1539485, 1539885, 1540300, 1540690, 1541073, 1541469]","[1532293, 1532692, 1533091, 1533491, 1533892, 1534292, 1534692, 1535092, 1535490, 1535890, 1536302, 1536720, 1537110, 1537496, 1537894, 1538282, 1538635, 1539036, 1539443, 1539816, 1540253, 1540638, 1541028, 1541450]",17,R,ITM,1.1,
5,600,trial,0,78,78,78,trial,"['S', 'S', 'S', 'S', 'S', 'S', 'S', 'C', 'C', 'C', 'C', 'C', 'C', 'C', 'C', 'C', 'C', 'C', 'C', 'C', 'C', 'C', 'C']","[1547119, 1547895, 1548491, 1549113, 1549747, 1550304, 1550977, 1551517, 1552101, 1552706, 1553325, 1553945, 1554574, 1555181, 1555812, 1556393, 1556983, 1557574, 1558149, 1558767, 1559364, 1559970, 1560565]","[1547206, 1548037, 1548672, 1549305, 1549906, 1550520, 1551123, 1551704, 1552292, 1552904, 1553515, 1554122, 1554757, 1555385, 1555954, 1556572, 1557179, 1557778, 1558334, 1558916, 1559559, 1560162, 1560763]","[1546741, 1547341, 1547941, 1548541, 1549142, 1549742, 1550342, 1550941, 1551543, 1552128, 1552732, 1553350, 1553971, 1554599, 1555207, 1555837, 1556420, 1557009, 1557600, 1558174, 1558794, 1559391, 1559997, 1560591]",17,R,ITM,1.1,
3,600,trial,0,79,79,79,trial,"['S', 'S', 'S', 'S', 'S', 'S', 'S', 'C', 'C', 'C', 'C', 'C', 'C', 'C', 'C', 'C', 'C', 'C', 'C', 'C', 'C', 'C', 'C']","[1566707, 1567377, 1568039, 1568681, 1569300, 1569908, 1570508, 1571096, 1571710, 1572311, 1572918, 1573518, 1574111, 1574725, 1575282, 1575876, 1576481, 1577064, 1577637, 1578209, 1578788, 1579359, 1579943]","[1566862, 1567602, 1568274, 1568973, 1569585, 1570210, 1570788, 1571398, 1572006, 1572639, 1573246, 1573841, 1574487, 1575095, 1575667, 1576206, 1576815, 1577363, 1577910, 1578518, 1579083, 1579705]","[1566309, 1566908, 1567508, 1568108, 1568708, 1569308, 1569908, 1570508, 1571122, 1571735, 1572336, 1572943, 1573543, 1574136, 1574751, 1575308, 1575902, 1576507, 1577090, 1577663, 1578234, 1578814, 1579384, 1579969]",17,R,ITM,1.1,
5,600,trial,0,80,80,80,trial,"['S', 'S', 'S', 'S', 'S', 'S', 'S', 'C', 'C', 'C', 'C', 'C', 'C', 'C', 'C', 'C', 'C', 'C', 'C', 'C', 'C', 'C', 'C']","[1586074, 1586759, 1587423, 1587993, 1588578, 1589139, 1589769, 1590410, 1590990, 1591614, 1592222, 1592790, 1593397, 1593995, 1594634, 1595217, 1595845, 1596437, 1597034, 1597660, 1598261, 1598856, 1599482]","[1586223, 1586897, 1587510, 1588093, 1588721, 1589252, 1589873, 1590558, 1591118, 1591770, 1592367, 1593016, 1593648, 1594309, 1594932, 1595565, 1596132, 1596657, 1597345, 1597935, 1598542, 1599121, 1599735]","[1585647, 1586246, 1586846, 1587446, 1588046, 1588646, 1589246, 1589847, 1590435, 1591016, 1591640, 1592248, 1592815, 1593422, 1594020, 1594659, 1595243, 1595872, 1596463, 1597060, 1597685, 1598287, 1598881, 1599509]",17,R,ITM,1.1,
6,400,trial,0,81,81,81,trial,"['S', 'S', 'S', 'S', 'S', 'S', 'C', 'C', 'C', 'C', 'C', 'C', 'C', 'C', 'C', 'C', 'C', 'C', 'C', 'C', 'C', 'C']","[1606060, 1606387, 1606796, 1607192, 1607599, 1608000, 1608376, 1608767, 1609155, 1609540, 1609940, 1610397, 1610804, 1611195, 1611598, 1611993, 1612366, 1612754, 1613115, 1613508, 1613910, 1614301]","[1606135, 1606470, 1606901, 1607297, 1607694, 1608111, 1608498, 1608876, 1609270, 1609657, 1610048, 1610490, 1610925, 1611330, 1611709, 1612093, 1612508, 1612911, 1613302, 1613637, 1614039, 1614365]","[1605184, 1605583, 1605983, 1606383, 1606784, 1607183, 1607583, 1607984, 1608402, 1608794, 1609183, 1609568, 1609967, 1610425, 1610830, 1611222, 1611625, 1612019, 1612393, 1612781, 1613142, 1613535, 1613936, 1614327]",17,R,ITM,1.1,
6,600,trial,0,82,82,82,trial,"['S', 'S', 'S', 'S', 'S', 'S', 'S', 'C', 'C', 'C', 'C', 'C', 'C', 'C', 'C', 'C', 'C', 'C', 'C', 'C', 'C', 'C', 'C']","[1620211, 1620859, 1621454, 1622116, 1622712, 1623287, 1623900, 1624492, 1625100, 1625742, 1626392, 1626988, 1627632, 1628228, 1628853, 1629477, 1630110, 1630735, 1631345, 1631937, 1632548, 1633141, 1633741]","[1620360, 1620955, 1621571, 1622228, 1622823, 1623410, 1624038, 1624628, 1625246, 1625870, 1626473, 1627079, 1627694, 1628325, 1628958, 1629601, 1630247, 1630902, 1631490, 1632113, 1632621, 1633286, 1633873]","[1619698, 1620297, 1620897, 1621497, 1622097, 1622697, 1623298, 1623898, 1624518, 1625127, 1625768, 1626419, 1627016, 1627660, 1628255, 1628880, 1629504, 1630138, 1630761, 1631372, 1631964, 1632575, 1633168, 1633768]",17,R,ITM,1.1,
4,600,trial,0,83,83,83,trial,"['S', 'S', 'S', 'S', 'S', 'S', 'S', 'C', 'C', 'C', 'C', 'C', 'C', 'C', 'C', 'C', 'C', 'C', 'C', 'C', 'C', 'C', 'C']","[1639853, 1640333, 1640905, 1641467, 1642070, 1642652, 1643282, 1643846, 1644447, 1645090, 1645694, 1646296, 1646901, 1647499, 1648121, 1648707, 1649277, 1649929, 1650556, 1651156, 1651773, 1652384, 1652985]","[1639887, 1640402, 1641018, 1641600, 1642212, 1642828, 1643457, 1644019, 1644666, 1645240, 1645899, 1646491, 1647060, 1647650, 1648246, 1648891, 1649529, 1650155, 1650763, 1651385, 1651999, 1652611, 1653229]","[1639093, 1639693, 1640293, 1640893, 1641493, 1642093, 1642693, 1643293, 1643872, 1644473, 1645116, 1645720, 1646321, 1646926, 1647524, 1648147, 1648733, 1649303, 1649954, 1650583, 1651181, 1651799, 1652410, 1653011]",17,R,ITM,1.1,
2,400,trial,0,84,84,84,trial,"['S', 'S', 'S', 'S', 'S', 'S', 'C', 'C', 'C', 'C', 'C', 'C', 'C', 'C', 'C', 'C', 'C', 'C', 'C', 'C', 'C', 'C']","[1659251, 1659662, 1660095, 1660468, 1660869, 1661289, 1661697, 1662073, 1662477, 1662888, 1663269, 1663663, 1664084, 1664468, 1664861, 1665258, 1665653, 1666039, 1666420, 1666796, 1667150, 1667554]","[1659360, 1659749, 1660221, 1660609, 1660976, 1661383, 1661807, 1662187, 1662582, 1662959, 1663364, 1663754, 1664163, 1664572, 1664973, 1665344, 1665748, 1666162, 1666555, 1666929, 1667347, 1667705]","[1658488, 1658889, 1659289, 1659689, 1660089, 1660488, 1660890, 1661288, 1661724, 1662100, 1662504, 1662916, 1663297, 1663689, 1664111, 1664496, 1664887, 1665285, 1665680, 1666067, 1666447, 1666824, 1667177, 1667581]",17,R,ITM,1.1,
7,400,trial,0,85,85,85,trial,"['S', 'S', 'S', 'S', 'S', 'S', 'S', 'C', 'C', 'C', 'C', 'C', 'C', 'C', 'C', 'C', 'C', 'C', 'C', 'C', 'C', 'C', 'C']","[1673627, 1674029, 1674417, 1674827, 1675193, 1675581, 1675968, 1676376, 1676761, 1677159, 1677559, 1677928, 1678341, 1678718, 1679105, 1679503, 1679884, 1680285, 1680683, 1681086, 1681465, 1681872, 1682250]","[1673749, 1674131, 1674524, 1674896, 1675291, 1675689, 1676058, 1676469, 1676881, 1677260, 1677613, 1678038, 1678424, 1678837, 1679223, 1679605, 1679971, 1680389, 1680795, 1681179, 1681537, 1681975, 1682349]","[1673228, 1673627, 1674028, 1674427, 1674827, 1675228, 1675627, 1676027, 1676403, 1676787, 1677187, 1677586, 1677956, 1678368, 1678745, 1679132, 1679531, 1679911, 1680312, 1680709, 1681113, 1681491, 1681899, 1682277]",17,R,ITM,1.1,
4,600,trial,0,86,86,86,trial,"['S', 'S', 'S', 'S', 'S', 'S', 'S', 'C', 'C', 'C', 'C', 'C', 'C', 'C', 'C', 'C', 'C', 'C', 'C', 'C', 'C', 'C', 'C']","[1688115, 1688804, 1689400, 1689958, 1690679, 1691254, 1691834, 1692437, 1693030, 1693658, 1694244, 1694842, 1695438, 1696044, 1696625, 1697185, 1697801, 1698387, 1698973, 1699564, 1700144, 1700724, 1701312]","[1688258, 1688946, 1689538, 1690124, 1690832, 1691452, 1692080, 1692716, 1693275, 1693910, 1694485, 1695105, 1695712, 1696317, 1696867, 1697460, 1698026, 1698654, 1699259, 1699847, 1700430, 1701039]","[1687706, 1688306, 1688906, 1689506, 1690106, 1690706, 1691307, 1691907, 1692463, 1693056, 1693683, 1694270, 1694868, 1695464, 1696069, 1696651, 1697211, 1697826, 1698413, 1698999, 1699590, 1700170, 1700750, 1701338]",17,R,ITM,1.1,
5,400,trial,0,87,87,87,trial,"['S', 'S', 'S', 'S', 'S', 'S', 'S', 'C', 'C', 'C', 'C', 'C', 'C', 'C', 'C', 'C', 'C', 'C', 'C', 'C', 'C', 'C', 'C']","[1707509, 1707892, 1708282, 1708658, 1709060, 1709458, 1709839, 1710254, 1710627, 1711015, 1711388, 1711802, 1712192, 1712605, 1712980, 1713384, 1713763, 1714172, 1714541, 1714931, 1715322, 1715710, 1716097]","[1707651, 1707995, 1708360, 1708749, 1709120, 1709533, 1709923, 1710319, 1710724, 1711093, 1711512, 1711922, 1712290, 1712691, 1713090, 1713508, 1713891, 1714274, 1714656, 1715075, 1715453, 1715830, 1716190]","[1707059, 1707458, 1707858, 1708258, 1708658, 1709059, 1709458, 1709858, 1710279, 1710653, 1711041, 1711414, 1711827, 1712218, 1712630, 1713006, 1713410, 1713788, 1714199, 1714567, 1714957, 1715348, 1715736, 1716122]",17,R,ITM,1.1,
7,600,trial,0,88,88,88,trial,"['S', 'S', 'S', 'S', 'S', 'S', 'S', 'C', 'C', 'C', 'C', 'C', 'C', 'C', 'C', 'C', 'C', 'C', 'C', 'C', 'C', 'C', 'C']","[1721852, 1722591, 1723208, 1723907, 1724416, 1725065, 1725729, 1726246, 1726881, 1727467, 1728043, 1728676, 1729246, 1729835, 1730428, 1730996, 1731580, 1732190, 1732869, 1733457, 1734054, 1734642, 1735217]","[1721999, 1722744, 1723414, 1724045, 1724630, 1725274, 1725877, 1726472, 1727109, 1727724, 1728352, 1728914, 1729523, 1730137, 1730737, 1731295, 1731860, 1732526, 1733134, 1733739, 1734334, 1734894, 1735478]","[1721465, 1722064, 1722664, 1723265, 1723865, 1724465, 1725064, 1725664, 1726273, 1726909, 1727495, 1728069, 1728704, 1729272, 1729861, 1730456, 1731023, 1731607, 1732216, 1732895, 1733484, 1734081, 1734669, 1735244]",17,R,ITM,1.1,
2,400,trial,0,89,89,89,trial,"['S', 'S', 'S', 'S', 'S', 'S', 'S', 'C', 'C', 'C', 'C', 'C', 'C', 'C', 'C', 'C', 'C', 'C', 'C', 'C', 'C', 'C', 'C']","[1741464, 1741790, 1742149, 1742530, 1742909, 1743310, 1743700, 1744121, 1744506, 1744924, 1745335, 1745719, 1746127, 1746523, 1746958, 1747373, 1747759, 1748161, 1748533, 1748941, 1749332, 1749757, 1750133]","[1741556, 1741877, 1742257, 1742624, 1743015, 1743415, 1743789, 1744212, 1744609, 1745043, 1745471, 1745870, 1746228, 1746669, 1747026, 1747476, 1747843, 1748213, 1748651, 1749045, 1749453, 1749847, 1750219]","[1740939, 1741340, 1741741, 1742140, 1742540, 1742941, 1743340, 1743740, 1744149, 1744534, 1744952, 1745362, 1745745, 1746154, 1746550, 1746985, 1747400, 1747786, 1748189, 1748559, 1748968, 1749359, 1749785, 1750160]",17,R,ITM,1.1,
4,400,trial,0,90,90,90,trial,"['S', 'S', 'S', 'S', 'S', 'S', 'S', 'C', 'C', 'C', 'C', 'C', 'C', 'C', 'C', 'C', 'C', 'C', 'C', 'C', 'C', 'C', 'C', 'C']","[1756025, 1756406, 1756763, 1757190, 1757559, 1757979, 1758342, 1758789, 1759165, 1759559, 1759954, 1760365, 1760727, 1761108, 1761529, 1761937, 1762266, 1762654, 1763003, 1763389, 1763920, 1764267, 1764541, 1764789]","[1756132, 1756503, 1756878, 1757292, 1757685, 1758090, 1758489, 1758875, 1759239, 1759671, 1760060, 1760470, 1760833, 1761242, 1761643, 1762023, 1762359, 1762733, 1763070, 1763441, 1763977, 1764321, 1764595]","[1755625, 1756025, 1756425, 1756825, 1757225, 1757625, 1758025, 1758426, 1758815, 1759191, 1759585, 1759980, 1760392, 1760752, 1761135, 1761555, 1761963, 1762291, 1762679, 1763028, 1763415, 1763946, 1764292, 1764568]",17,R,ITM,1.1,
6,600,trial,0,91,91,91,trial,"['S', 'S', 'S', 'S', 'S', 'S', 'S', 'C', 'C', 'C', 'C', 'C', 'C', 'C', 'C', 'C', 'C', 'C', 'C', 'C', 'C', 'C', 'C']","[1770622, 1771348, 1772038, 1772595, 1773253, 1773796, 1774397, 1775019, 1775620, 1776211, 1776822, 1777434, 1778038, 1778647, 1779231, 1779804, 1780404, 1781033, 1781621, 1782204, 1782782, 1783405, 1783986]","[1770714, 1771460, 1772134, 1772781, 1773363, 1773970, 1774610, 1775188, 1775801, 1776428, 1777056, 1777713, 1778308, 1778906, 1779507, 1780098, 1780730, 1781327, 1781976, 1782544, 1783130, 1783665]","[1770229, 1770828, 1771428, 1772028, 1772628, 1773229, 1773829, 1774429, 1775046, 1775646, 1776238, 1776848, 1777461, 1778065, 1778673, 1779259, 1779830, 1780430, 1781060, 1781648, 1782232, 1782810, 1783432, 1784012]",17,R,ITM,1.1,
6,400,trial,0,92,92,92,trial,"['S', 'S', 'S', 'S', 'S', 'S', 'S', 'C', 'C', 'C', 'C', 'C', 'C', 'C', 'C', 'C', 'C', 'C', 'C', 'C', 'C', 'C', 'C']","[1790082, 1790388, 1790748, 1791138, 1791536, 1791928, 1792305, 1792687, 1793089, 1793458, 1793865, 1794249, 1794630, 1795024, 1795418, 1795823, 1796188, 1796581, 1796971, 1797376, 1797742, 1798155, 1798555]","[1790212, 1790511, 1790867, 1791258, 1791649, 1792046, 1792421, 1792828, 1793189, 1793569, 1793965, 1794356, 1794736, 1795126, 1795519, 1795923, 1796300, 1796685, 1797088, 1797505, 1797855, 1798264, 1798657]","[1789557, 1789958, 1790357, 1790757, 1791157, 1791557, 1791958, 1792357, 1792714, 1793116, 1793485, 1793892, 1794276, 1794657, 1795051, 1795445, 1795850, 1796215, 1796609, 1796999, 1797403, 1797769, 1798181, 1798582]",17,R,ITM,1.1,
3,400,trial,0,93,93,93,trial,"['S', 'S', 'S', 'S', 'S', 'S', 'S', 'C', 'C', 'C', 'C', 'C', 'C', 'C', 'C', 'C', 'C', 'C', 'C', 'C', 'C', 'C', 'C']","[1804600, 1804930, 1805292, 1805689, 1806092, 1806484, 1806909, 1807296, 1807688, 1808047, 1808442, 1808847, 1809189, 1809608, 1810029, 1810429, 1810809, 1811222, 1811611, 1812013, 1812427, 1812875, 1813268]","[1804732, 1805026, 1805381, 1805815, 1806206, 1806643, 1807041, 1807420, 1807778, 1808185, 1808581, 1808959, 1809313, 1809741, 1810131, 1810531, 1810912, 1811314, 1811716, 1812116, 1812520, 1812975, 1813369]","[1804121, 1804520, 1804920, 1805320, 1805720, 1806120, 1806520, 1806920, 1807322, 1807714, 1808072, 1808467, 1808873, 1809215, 1809634, 1810055, 1810455, 1810835, 1811248, 1811637, 1812038, 1812453, 1812900, 1813294]",17,R,ITM,1.1,
7,400,trial,0,94,94,94,trial,"['S', 'S', 'S', 'S', 'S', 'S', 'S', 'C', 'C', 'C', 'C', 'C', 'C', 'C', 'C', 'C', 'C', 'C', 'C', 'C', 'C', 'C', 'C']","[1819165, 1819539, 1819912, 1820311, 1820694, 1821070, 1821470, 1821905, 1822290, 1822697, 1823094, 1823516, 1823899, 1824288, 1824681, 1825085, 1825473, 1825869, 1826271, 1826659, 1827060, 1827486, 1827861]","[1819278, 1819624, 1819997, 1820431, 1820836, 1821239, 1821647, 1822047, 1822423, 1822851, 1823269, 1823637, 1824020, 1824334, 1824770, 1825182, 1825576, 1825986, 1826382, 1826768, 1827158, 1827607, 1827953]","[1818757, 1819155, 1819555, 1819955, 1820355, 1820755, 1821155, 1821555, 1821932, 1822317, 1822724, 1823121, 1823544, 1823927, 1824315, 1824707, 1825112, 1825501, 1825896, 1826297, 1826685, 1827087, 1827513, 1827888]",17,R,ITM,1.1,
3,400,trial,0,95,95,95,trial,"['S', 'S', 'S', 'S', 'S', 'S', 'S', 'C', 'C', 'C', 'C', 'C', 'C', 'C', 'C', 'C', 'C', 'C', 'C', 'C', 'C', 'C', 'C']","[1833667, 1834025, 1834449, 1834850, 1835218, 1835640, 1836030, 1836419, 1836832, 1837242, 1837656, 1838051, 1838426, 1838823, 1839217, 1839614, 1840053, 1840422, 1840847, 1841238, 1841611, 1841992, 1842386]","[1833782, 1834173, 1834531, 1834962, 1835378, 1835774, 1836167, 1836552, 1836934, 1837363, 1837739, 1838172, 1838574, 1838984, 1839386, 1839763, 1840144, 1840588, 1840975, 1841370, 1841685, 1842097, 1842507]","[1833267, 1833667, 1834067, 1834467, 1834867, 1835268, 1835667, 1836067, 1836444, 1836858, 1837267, 1837681, 1838076, 1838451, 1838849, 1839244, 1839641, 1840078, 1840448, 1840873, 1841263, 1841637, 1842018, 1842412]",17,R,ITM,1.1,
2,600,trial,0,96,96,96,trial,"['S', 'S', 'S', 'S', 'S', 'S', 'S', 'C', 'C', 'C', 'C', 'C', 'C', 'C', 'C', 'C', 'C', 'C', 'C', 'C', 'C', 'C', 'C']","[1848229, 1848946, 1849646, 1850202, 1850830, 1851401, 1852006, 1852583, 1853195, 1853800, 1854363, 1854959, 1855591, 1856162, 1856740, 1857232, 1857804, 1858443, 1859025, 1859580, 1860096, 1860676, 1861312]","[1848384, 1849151, 1849826, 1850484, 1851085, 1851646, 1852307, 1852909, 1853504, 1854046, 1854639, 1855256, 1855862, 1856444, 1856979, 1857554, 1858114, 1858683, 1859317, 1859758, 1860197, 1860858, 1861507]","[1847845, 1848445, 1849046, 1849646, 1850246, 1850846, 1851445, 1852045, 1852611, 1853222, 1853827, 1854391, 1854986, 1855619, 1856189, 1856768, 1857260, 1857831, 1858469, 1859052, 1859608, 1860123, 1860704, 1861339]",17,R,ITM,1.1,
5,400,trial,0,97,97,97,trial,"['S', 'S', 'S', 'S', 'S', 'S', 'S', 'C', 'C', 'C', 'C', 'C', 'C', 'C', 'C', 'C', 'C', 'C', 'C', 'C', 'C', 'C', 'C']","[1867129, 1867521, 1867912, 1868329, 1868729, 1869106, 1869516, 1869930, 1870304, 1870736, 1871084, 1871470, 1871876, 1872274, 1872675, 1873081, 1873438, 1873847, 1874201, 1874622, 1874995, 1875429, 1875809]","[1867262, 1867639, 1868046, 1868460, 1868846, 1869251, 1869673, 1870084, 1870458, 1870830, 1871215, 1871597, 1871990, 1872386, 1872779, 1873171, 1873549, 1873947, 1874324, 1874748, 1875124, 1875551, 1875898]","[1866730, 1867129, 1867529, 1867929, 1868329, 1868729, 1869129, 1869530, 1869956, 1870329, 1870761, 1871110, 1871497, 1871901, 1872301, 1872702, 1873106, 1873464, 1873873, 1874227, 1874648, 1875020, 1875454, 1875835]",17,R,ITM,1.1,
3,600,trial,0,98,98,98,trial,"['S', 'S', 'S', 'S', 'S', 'S', 'S', 'C', 'C', 'C', 'C', 'C', 'C', 'C', 'C', 'C', 'C', 'C', 'C', 'C', 'C', 'C', 'C']","[1881915, 1882499, 1883124, 1883710, 1884329, 1884896, 1885500, 1886121, 1886697, 1887292, 1887900, 1888493, 1889086, 1889708, 1890299, 1890862, 1891443, 1892057, 1892665, 1893251, 1893860, 1894445, 1894981]","[1882030, 1882635, 1883262, 1883859, 1884477, 1885161, 1885784, 1886381, 1886983, 1887614, 1888182, 1888763, 1889321, 1889958, 1890585, 1891181, 1891719, 1892278, 1892835, 1893442, 1893997, 1894584, 1895123]","[1881360, 1881959, 1882559, 1883159, 1883759, 1884359, 1884959, 1885559, 1886148, 1886723, 1887318, 1887926, 1888519, 1889112, 1889733, 1890325, 1890887, 1891469, 1892082, 1892690, 1893276, 1893885, 1894470, 1895007]",17,R,ITM,1.1,
2,600,trial,0,99,99,99,trial,"['S', 'S', 'S', 'S', 'S', 'S', 'S', 'C', 'C', 'C', 'C', 'C', 'C', 'C', 'C', 'C', 'C', 'C', 'C', 'C', 'C', 'C', 'C']","[1901037, 1901762, 1902428, 1902990, 1903597, 1904165, 1904802, 1905379, 1905972, 1906585, 1907170, 1907724, 1908281, 1908889, 1909470, 1910067, 1910684, 1911271, 1911865, 1912488, 1913080, 1913675, 1914245]","[1901215, 1901946, 1902618, 1903173, 1903774, 1904429, 1905054, 1905704, 1906316, 1906865, 1907444, 1908037, 1908597, 1909177, 1909672, 1910222, 1910808, 1911417, 1912040, 1912700, 1913321, 1913921, 1914436]","[1900615, 1901215, 1901814, 1902414, 1903015, 1903616, 1904216, 1904815, 1905405, 1905998, 1906612, 1907197, 1907750, 1908307, 1908917, 1909497, 1910093, 1910711, 1911298, 1911891, 1912515, 1913107, 1913703, 1914272]",17,R,ITM,1.1,
7,600,trial,0,100,100,100,trial,"['S', 'S', 'S', 'S', 'S', 'S', 'S', 'C', 'C', 'C', 'C', 'C', 'C', 'C', 'C', 'C', 'C', 'C', 'C', 'C', 'C', 'C', 'C']","[1920294, 1920916, 1921469, 1922062, 1922715, 1923332, 1923910, 1924507, 1925143, 1925718, 1926298, 1926885, 1927482, 1928072, 1928635, 1929222, 1929850, 1930411, 1930974, 1931502, 1932089, 1932648, 1933214]","[1920454, 1921108, 1921739, 1922354, 1922965, 1923565, 1924190, 1924724, 1925385, 1926048, 1926608, 1927205, 1927782, 1928396, 1928994, 1929583, 1930115, 1930696, 1931250, 1931830, 1932323, 1932932]","[1919731, 1920331, 1920931, 1921531, 1922131, 1922732, 1923332, 1923932, 1924535, 1925171, 1925745, 1926325, 1926912, 1927510, 1928099, 1928663, 1929248, 1929877, 1930437, 1931000, 1931530, 1932115, 1932675, 1933241]",17,R,ITM,1.1,
4,400,trial,0,101,101,101,trial,"['S', 'S', 'S', 'S', 'C', 'C', 'C', 'C', 'C', 'C', 'C', 'C', 'C', 'C', 'C', 'C', 'C', 'C', 'C', 'C']","[1940128, 1940529, 1940935, 1941326, 1941725, 1942144, 1942586, 1942986, 1943367, 1943742, 1944131, 1944517, 1944927, 1945317, 1945731, 1946136, 1946517, 1946903, 1947307, 1947696]","[1940206, 1940602, 1941015, 1941406, 1941787, 1942220, 1942686, 1943096, 1943477, 1943853, 1944240, 1944638, 1945029, 1945432, 1945824, 1946208, 1946619, 1947006, 1947420, 1947801]","[1938546, 1938946, 1939345, 1939745, 1940146, 1940546, 1940946, 1941346, 1941750, 1942169, 1942611, 1943012, 1943393, 1943768, 1944157, 1944543, 1944953, 1945342, 1945756, 1946163, 1946543, 1946929, 1947332, 1947721]",17,R,ITM,1.1,
2,600,trial,0,102,102,102,trial,"['S', 'S', 'S', 'S', 'S', 'S', 'S', 'C', 'C', 'C', 'C', 'C', 'C', 'C', 'C', 'C', 'C', 'C', 'C', 'C', 'C', 'C', 'C']","[1953869, 1954635, 1955262, 1955880, 1956459, 1957027, 1957636, 1958272, 1958852, 1959455, 1960098, 1960708, 1961283, 1961868, 1962475, 1963078, 1963671, 1964280, 1964906, 1965495, 1966070, 1966652, 1967252]","[1954002, 1954775, 1955426, 1956066, 1956647, 1957285, 1957893, 1958497, 1959063, 1959700, 1960292, 1960923, 1961500, 1962118, 1962721, 1963300, 1963905, 1964537, 1965122, 1965763, 1966324, 1966944, 1967497]","[1953490, 1954091, 1954691, 1955291, 1955891, 1956489, 1957090, 1957690, 1958299, 1958879, 1959483, 1960125, 1960734, 1961310, 1961895, 1962502, 1963105, 1963699, 1964307, 1964933, 1965521, 1966098, 1966679, 1967280]",17,R,ITM,1.1,
3,400,trial,0,103,103,103,trial,"['S', 'S', 'S', 'S', 'S', 'S', 'S', 'C', 'C', 'C', 'C', 'C', 'C', 'C', 'C', 'C', 'C', 'C', 'C', 'C', 'C', 'C', 'C']","[1973506, 1973831, 1974208, 1974631, 1975053, 1975445, 1975831, 1976240, 1976648, 1977054, 1977430, 1977826, 1978224, 1978618, 1979019, 1979401, 1979783, 1980208, 1980593, 1980984, 1981340, 1981743, 1982134]","[1973618, 1973951, 1974344, 1974776, 1975165, 1975585, 1975991, 1976400, 1976807, 1977183, 1977576, 1978000, 1978370, 1978761, 1979140, 1979491, 1979894, 1980328, 1980713, 1981107, 1981455, 1981863, 1982232]","[1973045, 1973445, 1973846, 1974245, 1974645, 1975046, 1975445, 1975845, 1976265, 1976674, 1977079, 1977455, 1977851, 1978250, 1978644, 1979044, 1979426, 1979808, 1980233, 1980618, 1981009, 1981366, 1981769, 1982159]",17,R,ITM,1.1,
7,400,trial,0,104,104,104,trial,"['S', 'S', 'S', 'S', 'S', 'S', 'S', 'C', 'C', 'C', 'C', 'C', 'C', 'C', 'C', 'C', 'C', 'C', 'C', 'C', 'C', 'C', 'C']","[1987994, 1988375, 1988781, 1989177, 1989564, 1989970, 1990368, 1990781, 1991179, 1991579, 1991974, 1992369, 1992764, 1993140, 1993540, 1993938, 1994323, 1994697, 1995083, 1995476, 1995855, 1996264, 1996656]","[1988140, 1988497, 1988885, 1989328, 1989710, 1990132, 1990544, 1990949, 1991351, 1991725, 1992068, 1992504, 1992881, 1993294, 1993666, 1994060, 1994450, 1994835, 1995211, 1995607, 1995976, 1996369, 1996763]","[1987620, 1988019, 1988419, 1988819, 1989219, 1989619, 1990020, 1990419, 1990808, 1991205, 1991607, 1992001, 1992396, 1992791, 1993167, 1993568, 1993965, 1994351, 1994725, 1995110, 1995504, 1995883, 1996292, 1996683]",17,R,ITM,1.1,
3,600,trial,0,105,105,105,trial,"['S', 'S', 'S', 'S', 'S', 'S', 'S', 'C', 'C', 'C', 'C', 'C', 'C', 'C', 'C', 'C', 'C', 'C', 'C', 'C', 'C', 'C', 'C']","[2002633, 2003313, 2003970, 2004554, 2005181, 2005781, 2006398, 2007009, 2007648, 2008210, 2008817, 2009383, 2009971, 2010568, 2011149, 2011779, 2012352, 2012930, 2013519, 2014117, 2014691, 2015321, 2015902]","[2002744, 2003501, 2004102, 2004773, 2005380, 2005970, 2006615, 2007244, 2007885, 2008467, 2009054, 2009632, 2010219, 2010830, 2011444, 2011986, 2012578, 2013217, 2013821, 2014426, 2015070, 2015600]","[2002233, 2002833, 2003433, 2004033, 2004633, 2005233, 2005833, 2006433, 2007034, 2007673, 2008236, 2008843, 2009409, 2009997, 2010594, 2011174, 2011804, 2012378, 2012955, 2013545, 2014143, 2014716, 2015346, 2015928]",17,R,ITM,1.1,
5,600,trial,0,106,106,106,trial,"['S', 'S', 'S', 'S', 'S', 'S', 'S', 'C', 'C', 'C', 'C', 'C', 'C', 'C', 'C', 'C', 'C', 'C', 'C', 'C', 'C', 'C', 'C']","[2021866, 2022577, 2023175, 2023773, 2024370, 2024978, 2025548, 2026138, 2026678, 2027245, 2027819, 2028404, 2028968, 2029523, 2030125, 2030669, 2031239, 2031764, 2032352, 2032916, 2033455, 2034066, 2034731]","[2022035, 2022793, 2023434, 2024060, 2024601, 2025206, 2025803, 2026357, 2026952, 2027537, 2028123, 2028661, 2029206, 2029766, 2030320, 2030958, 2031546, 2032062, 2032607, 2033238, 2033679, 2034176, 2034799]","[2021436, 2022035, 2022635, 2023235, 2023835, 2024435, 2025035, 2025635, 2026164, 2026703, 2027271, 2027845, 2028431, 2028994, 2029549, 2030150, 2030696, 2031265, 2031790, 2032377, 2032942, 2033480, 2034092, 2034757]",17,R,ITM,1.1,
4,600,trial,0,107,107,107,trial,"['S', 'S', 'S', 'S', 'S', 'S', 'S', 'C', 'C', 'C', 'C', 'C', 'C', 'C', 'C', 'C', 'C', 'C', 'C', 'C', 'C', 'C', 'C']","[2040821, 2041468, 2042087, 2042680, 2043271, 2043873, 2044450, 2045069, 2045661, 2046234, 2046803, 2047414, 2047967, 2048509, 2049071, 2049683, 2050263, 2050829, 2051422, 2052029, 2052613, 2053185, 2053792]","[2040940, 2041609, 2042240, 2042838, 2043486, 2044114, 2044697, 2045300, 2045813, 2046397, 2046960, 2047512, 2048126, 2048740, 2049255, 2049854, 2050440, 2051027, 2051619, 2052215, 2052751, 2053321, 2053902]","[2040331, 2040931, 2041531, 2042131, 2042731, 2043331, 2043931, 2044531, 2045094, 2045686, 2046260, 2046829, 2047439, 2047993, 2048535, 2049096, 2049709, 2050288, 2050855, 2051447, 2052056, 2052638, 2053211, 2053818]",17,R,ITM,1.1,
2,400,trial,0,108,108,108,trial,"['S', 'S', 'S', 'S', 'S', 'S', 'S', 'C', 'C', 'C', 'C', 'C', 'C', 'C', 'C', 'C', 'C', 'C', 'C', 'C', 'C', 'C', 'C']","[2059948, 2060312, 2060700, 2061108, 2061522, 2061922, 2062301, 2062690, 2063088, 2063503, 2063895, 2064244, 2064613, 2065017, 2065425, 2065826, 2066191, 2066603, 2066997, 2067407, 2067786, 2068199, 2068572]","[2060087, 2060433, 2060816, 2061246, 2061632, 2062050, 2062418, 2062814, 2063223, 2063619, 2064013, 2064379, 2064743, 2065118, 2065562, 2065942, 2066293, 2066724, 2067135, 2067520, 2067921, 2068332, 2068694]","[2059523, 2059922, 2060322, 2060723, 2061122, 2061521, 2061922, 2062322, 2062716, 2063115, 2063531, 2063923, 2064271, 2064641, 2065045, 2065453, 2065854, 2066219, 2066630, 2067024, 2067435, 2067814, 2068227, 2068599]",17,R,ITM,1.1,
5,600,trial,0,109,109,109,trial,"['S', 'S', 'S', 'S', 'S', 'S', 'S', 'C', 'C', 'C', 'C', 'C', 'C', 'C', 'C', 'C', 'C', 'C', 'C', 'C', 'C', 'C', 'C', 'C', 'C']","[2074791, 2075438, 2076038, 2076669, 2077275, 2077862, 2078438, 2079013, 2079576, 2080158, 2080721, 2081272, 2081382, 2081831, 2081937, 2082368, 2082924, 2083478, 2084060, 2084619, 2085208, 2085778, 2086331, 2086889, 2087470]","[2074913, 2075610, 2076271, 2076968, 2077524, 2078136, 2078734, 2079305, 2079880, 2080467, 2081121, 2081302, 2081591, 2081857, 2082142, 2082688, 2083194, 2083767, 2084353, 2084855, 2085391, 2085998, 2086545, 2087132, 2087695]","[2074299, 2074898, 2075498, 2076098, 2076698, 2077298, 2077898, 2078498, 2079039, 2079601, 2080184, 2080747, 2081298, 2081857, 2082394, 2082950, 2083504, 2084086, 2084644, 2085233, 2085805, 2086358, 2086915, 2087496]",17,R,ITM,1.1,
6,600,trial,0,110,110,110,trial,"['S', 'S', 'S', 'S', 'S', 'S', 'S', 'C', 'C', 'C', 'C', 'C', 'C', 'C', 'C', 'C', 'C', 'C', 'C', 'C', 'C', 'C', 'C']","[2093760, 2094409, 2094982, 2095584, 2096232, 2096781, 2097392, 2098020, 2098607, 2099202, 2099758, 2100345, 2100914, 2101507, 2102069, 2102660, 2103276, 2103872, 2104433, 2104976, 2105576, 2106126, 2106706]","[2093899, 2094561, 2095153, 2095782, 2096400, 2097042, 2097674, 2098291, 2098917, 2099464, 2100043, 2100633, 2101204, 2101786, 2102388, 2102914, 2103474, 2104081, 2104658, 2105225, 2105801, 2106414, 2106957]","[2093252, 2093851, 2094451, 2095051, 2095651, 2096251, 2096851, 2097452, 2098046, 2098633, 2099228, 2099785, 2100372, 2100940, 2101533, 2102095, 2102687, 2103304, 2103900, 2104460, 2105003, 2105604, 2106153, 2106733]",17,R,ITM,1.1,
7,400,trial,0,111,111,111,trial,"['S', 'S', 'S', 'S', 'S', 'S', 'S', 'C', 'C', 'C', 'C', 'C', 'C', 'C', 'C', 'C', 'C', 'C', 'C', 'C', 'C', 'C', 'C']","[2112598, 2112939, 2113311, 2113710, 2114101, 2114461, 2114906, 2115305, 2115705, 2116120, 2116534, 2116931, 2117344, 2117732, 2118138, 2118539, 2118926, 2119350, 2119761, 2120121, 2120512, 2120957, 2121336]","[2112707, 2113046, 2113374, 2113776, 2114162, 2114567, 2115013, 2115419, 2115780, 2116218, 2116655, 2117068, 2117454, 2117854, 2118237, 2118610, 2118988, 2119433, 2119862, 2120238, 2120636, 2121023, 2121410]","[2112136, 2112534, 2112934, 2113334, 2113734, 2114135, 2114534, 2114934, 2115333, 2115732, 2116148, 2116561, 2116959, 2117371, 2117758, 2118166, 2118565, 2118953, 2119376, 2119788, 2120148, 2120539, 2120984, 2121363]",17,R,ITM,1.1,
2,400,trial,0,112,112,112,trial,"['S', 'S', 'S', 'S', 'S', 'S', 'S', 'C', 'C', 'C', 'C', 'C', 'C', 'C', 'C', 'C', 'C', 'C', 'C', 'C', 'C', 'C', 'C']","[2127478, 2127860, 2128261, 2128637, 2128982, 2129460, 2129800, 2130234, 2130635, 2131033, 2131444, 2131823, 2132243, 2132663, 2133044, 2133468, 2133871, 2134259, 2134647, 2135045, 2135461, 2135858, 2136252]","[2127600, 2127930, 2128322, 2128712, 2129064, 2129530, 2129909, 2130328, 2130731, 2131137, 2131542, 2131961, 2132368, 2132729, 2133118, 2133539, 2133948, 2134338, 2134736, 2135136, 2135521, 2135923, 2136320]","[2127060, 2127460, 2127860, 2128261, 2128659, 2129060, 2129460, 2129860, 2130260, 2130662, 2131060, 2131471, 2131850, 2132270, 2132690, 2133070, 2133494, 2133899, 2134286, 2134675, 2135072, 2135489, 2135884, 2136279]",17,R,ITM,1.1,
6,600,trial,0,113,113,113,trial,"['S', 'S', 'S', 'S', 'S', 'S', 'S', 'C', 'C', 'C', 'C', 'C', 'C', 'C', 'C', 'C', 'C', 'C', 'C', 'C', 'C', 'C', 'C']","[2142283, 2142977, 2143578, 2144205, 2144809, 2145406, 2145987, 2146617, 2147193, 2147772, 2148383, 2148983, 2149586, 2150160, 2150762, 2151364, 2151934, 2152525, 2153105, 2153684, 2154266, 2154788, 2155356]","[2142491, 2143163, 2143746, 2144343, 2144968, 2145588, 2146235, 2146839, 2147376, 2147993, 2148623, 2149215, 2149828, 2150435, 2150999, 2151644, 2152244, 2152822, 2153360, 2153965, 2154492, 2155060, 2155616]","[2141844, 2142443, 2143043, 2143643, 2144243, 2144843, 2145443, 2146043, 2146643, 2147220, 2147799, 2148411, 2149010, 2149613, 2150187, 2150789, 2151392, 2151962, 2152553, 2153133, 2153710, 2154293, 2154815, 2155382]",17,R,ITM,1.1,
4,400,trial,0,114,114,114,trial,"['S', 'S', 'S', 'S', 'S', 'S', 'S', 'C', 'C', 'C', 'C', 'C', 'C', 'C', 'C', 'C', 'C', 'C', 'C', 'C', 'C', 'C', 'C']","[2161318, 2161651, 2162044, 2162471, 2162836, 2163195, 2163581, 2163994, 2164378, 2164807, 2165235, 2165647, 2166013, 2166431, 2166828, 2167219, 2167599, 2167954, 2168296, 2168605, 2168962, 2169325, 2169700]","[2161400, 2161740, 2162109, 2162506, 2162889, 2163278, 2163662, 2164070, 2164488, 2164912, 2165343, 2165754, 2166122, 2166574, 2166943, 2167320, 2167684, 2168058, 2168367, 2168673, 2169052, 2169372, 2169783]","[2160824, 2161224, 2161625, 2162024, 2162424, 2162824, 2163224, 2163624, 2164020, 2164404, 2164833, 2165261, 2165672, 2166039, 2166457, 2166853, 2167244, 2167625, 2167980, 2168322, 2168631, 2168987, 2169351, 2169726]",17,R,ITM,1.1,
7,600,trial,0,115,115,115,trial,"['S', 'S', 'S', 'S', 'S', 'S', 'S', 'C', 'C', 'C', 'C', 'C', 'C', 'C', 'C', 'C', 'C', 'C', 'C', 'C', 'C', 'C', 'C']","[2175986, 2176706, 2177295, 2177879, 2178512, 2179106, 2179673, 2180271, 2180869, 2181444, 2182048, 2182611, 2183223, 2183819, 2184374, 2184945, 2185544, 2186134, 2186775, 2187310, 2187913, 2188469, 2189030]","[2176133, 2176910, 2177561, 2178195, 2178830, 2179436, 2180034, 2180622, 2181201, 2181783, 2182375, 2182951, 2183500, 2184113, 2184721, 2185274, 2185833, 2186474, 2187060, 2187675, 2188248, 2188824, 2189257]","[2175507, 2176106, 2176706, 2177306, 2177906, 2178506, 2179106, 2179706, 2180297, 2180896, 2181471, 2182075, 2182638, 2183250, 2183845, 2184401, 2184973, 2185571, 2186161, 2186802, 2187337, 2187940, 2188496, 2189057]",17,R,ITM,1.1,
3,400,trial,0,116,116,116,trial,"['B', 'S', 'S', 'S', 'S', 'S', 'S', 'S', 'C', 'C', 'C', 'C', 'C', 'C', 'C', 'C', 'C', 'C', 'C', 'C', 'C', 'C', 'C', 'C']","[2194580, 2195045, 2195408, 2195759, 2196172, 2196573, 2197016, 2197415, 2197794, 2198177, 2198589, 2198995, 2199405, 2199775, 2200193, 2200584, 2200953, 2201361, 2201733, 2202173, 2202585, 2202941, 2203336, 2203688]","[2194745, 2195219, 2195524, 2195900, 2196324, 2196716, 2197147, 2197535, 2197925, 2198312, 2198720, 2199136, 2199544, 2199922, 2200351, 2200745, 2201086, 2201511, 2201904, 2202281, 2202684, 2203037, 2203432, 2203808]","[2194592, 2194992, 2195391, 2195791, 2196191, 2196591, 2196992, 2197391, 2197820, 2198203, 2198615, 2199021, 2199431, 2199800, 2200218, 2200609, 2200979, 2201387, 2201758, 2202199, 2202610, 2202967, 2203363, 2203714]",17,R,ITM,1.1,
2,600,trial,0,117,117,117,trial,"['S', 'S', 'S', 'S', 'S', 'S', 'S', 'S', 'C', 'C', 'C', 'C', 'C', 'C', 'C', 'C', 'C', 'C', 'C', 'C', 'C', 'C', 'C', 'C']","[2209665, 2210000, 2210477, 2211038, 2211662, 2212256, 2212817, 2213445, 2214017, 2214617, 2215186, 2215775, 2216383, 2216978, 2217564, 2218139, 2218755, 2219312, 2219913, 2220541, 2221131, 2221726, 2222327, 2222880]","[2209824, 2210124, 2210647, 2211253, 2211865, 2212447, 2213100, 2213735, 2214348, 2214897, 2215458, 2216055, 2216666, 2217279, 2217881, 2218486, 2219010, 2219542, 2220133, 2220737, 2221357, 2222028, 2222593]","[2209290, 2209890, 2210490, 2211090, 2211690, 2212289, 2212889, 2213490, 2214043, 2214643, 2215213, 2215801, 2216411, 2217006, 2217590, 2218166, 2218782, 2219339, 2219939, 2220569, 2221158, 2221754, 2222354, 2222907]",17,R,ITM,1.1,
4,600,trial,0,118,118,118,trial,"['S', 'S', 'S', 'S', 'S', 'S', 'S', 'C', 'C', 'C', 'C', 'C', 'C', 'C', 'C', 'C', 'C', 'C', 'C', 'C', 'C', 'C', 'C']","[2229004, 2229719, 2230338, 2230918, 2231531, 2232129, 2232729, 2233306, 2233926, 2234507, 2235092, 2235681, 2236284, 2236894, 2237497, 2238099, 2238739, 2239295, 2239851, 2240382, 2240987, 2241619, 2242151]","[2229141, 2229877, 2230510, 2231114, 2231771, 2232378, 2232964, 2233521, 2234120, 2234746, 2235293, 2235908, 2236476, 2237109, 2237732, 2238390, 2238872, 2239509, 2240068, 2240649, 2241200, 2241795, 2242322]","[2228566, 2229166, 2229766, 2230365, 2230965, 2231565, 2232165, 2232765, 2233331, 2233952, 2234533, 2235118, 2235707, 2236310, 2236919, 2237522, 2238125, 2238765, 2239321, 2239878, 2240407, 2241012, 2241645, 2242177]",17,R,ITM,1.1,
4,400,trial,0,119,119,119,trial,"['S', 'S', 'S', 'S', 'S', 'S', 'S', 'C', 'C', 'C', 'C', 'C', 'C', 'C', 'C', 'C', 'C', 'C', 'C', 'C', 'C', 'C', 'C']","[2248365, 2248717, 2249104, 2249504, 2249915, 2250323, 2250718, 2251096, 2251488, 2251896, 2252294, 2252674, 2253065, 2253484, 2253854, 2254227, 2254637, 2255006, 2255406, 2255805, 2256212, 2256642, 2257032]","[2248472, 2248794, 2249181, 2249584, 2250009, 2250418, 2250824, 2251258, 2251652, 2252048, 2252417, 2252814, 2253243, 2253605, 2253983, 2254398, 2254779, 2255132, 2255523, 2255937, 2256320, 2256714, 2257120]","[2247915, 2248315, 2248715, 2249115, 2249516, 2249915, 2250315, 2250716, 2251121, 2251514, 2251922, 2252319, 2252699, 2253090, 2253509, 2253880, 2254253, 2254662, 2255032, 2255431, 2255831, 2256238, 2256667, 2257057]",17,R,ITM,1.1,
7,600,trial,0,120,120,120,trial,"['S', 'S', 'S', 'S', 'S', 'S', 'S', 'C', 'C', 'C', 'C', 'C', 'C', 'C', 'C', 'C', 'C', 'C', 'C', 'C', 'C', 'C', 'C']","[2263016, 2263658, 2264259, 2264850, 2265551, 2266060, 2266605, 2267260, 2267919, 2268509, 2269097, 2269543, 2272473, 2273135, 2273726, 2274350, 2274920, 2275477, 2276039, 2276598, 2277175, 2277748, 2278340]","[2263106, 2263793, 2264365, 2265013, 2265670, 2266241, 2266845, 2267514, 2268138, 2268748, 2269386, 2272393, 2272811, 2273360, 2274120, 2274706, 2275283, 2275756, 2276319, 2276879, 2277511, 2277998, 2278597]","[2262492, 2263091, 2263691, 2264291, 2264891, 2265491, 2266091, 2266691, 2267288, 2267945, 2268536, 2269123, 2269570, 2272499, 2273162, 2273753, 2274376, 2274948, 2275505, 2276067, 2276625, 2277202, 2277775, 2278368]",17,R,ITM,1.1,
5,400,trial,0,121,121,121,trial,"['S', 'S', 'S', 'S', 'S', 'S', 'S', 'C', 'C', 'C', 'C', 'C', 'C', 'C', 'C', 'C', 'C', 'C', 'C', 'C', 'C', 'C', 'C']","[2284340, 2284625, 2284966, 2285398, 2285806, 2286196, 2286619, 2287011, 2287440, 2287838, 2288238, 2288614, 2289001, 2289416, 2289831, 2290260, 2290619, 2291000, 2291400, 2291812, 2292203, 2292577, 2292941]","[2284427, 2284715, 2285077, 2285513, 2285906, 2286309, 2286717, 2287135, 2287557, 2287960, 2288345, 2288717, 2289086, 2289513, 2289937, 2290380, 2290739, 2291150, 2291533, 2291911, 2292277, 2292665, 2293075]","[2283821, 2284219, 2284619, 2285020, 2285419, 2285819, 2286219, 2286619, 2287037, 2287466, 2287863, 2288264, 2288641, 2289027, 2289441, 2289857, 2290286, 2290646, 2291026, 2291426, 2291837, 2292229, 2292602, 2292968]",17,R,ITM,1.1,
6,400,trial,0,122,122,122,trial,"['S', 'S', 'S', 'S', 'S', 'S', 'S', 'C', 'C', 'C', 'C', 'C', 'C', 'C', 'C', 'C', 'C', 'C', 'C', 'C', 'C', 'C', 'C']","[2298677, 2299056, 2299457, 2299866, 2300267, 2300665, 2301074, 2301458, 2301849, 2302247, 2302637, 2303012, 2303405, 2303804, 2304225, 2304610, 2304999, 2305396, 2305762, 2306181, 2306584, 2306960, 2307347]","[2298806, 2299167, 2299577, 2299997, 2300382, 2300794, 2301190, 2301590, 2301970, 2302358, 2302746, 2303096, 2303514, 2303925, 2304290, 2304719, 2305092, 2305451, 2305855, 2306279, 2306677, 2307053, 2307400]","[2298307, 2298706, 2299106, 2299506, 2299907, 2300306, 2300706, 2301107, 2301485, 2301876, 2302274, 2302664, 2303039, 2303432, 2303831, 2304251, 2304637, 2305027, 2305424, 2305788, 2306207, 2306611, 2306987, 2307374]",17,R,ITM,1.1,
5,400,trial,0,123,123,123,trial,"['S', 'S', 'S', 'S', 'S', 'S', 'C', 'C', 'C', 'C', 'C', 'C', 'C', 'C', 'C', 'C', 'C', 'C', 'C', 'C', 'C', 'C']","[2313921, 2314271, 2314665, 2315064, 2315510, 2315897, 2316325, 2316706, 2317115, 2317490, 2317919, 2318284, 2318702, 2319098, 2319477, 2319865, 2320256, 2320660, 2321073, 2321441, 2321819, 2322248]","[2314024, 2314351, 2314771, 2315155, 2315594, 2316010, 2316429, 2316827, 2317238, 2317613, 2318036, 2318397, 2318812, 2319181, 2319587, 2319942, 2320368, 2320733, 2321171, 2321559, 2321944, 2322370]","[2313137, 2313535, 2313935, 2314335, 2314735, 2315136, 2315535, 2315935, 2316351, 2316732, 2317140, 2317515, 2317945, 2318310, 2318728, 2319124, 2319503, 2319891, 2320282, 2320686, 2321098, 2321467, 2321846, 2322274]",17,R,ITM,1.1,
3,600,trial,0,124,124,124,trial,"['S', 'S', 'S', 'S', 'S', 'S', 'C', 'C', 'C', 'C', 'C', 'C', 'C', 'C', 'C', 'C', 'C', 'C', 'C', 'C', 'C', 'C']","[2329213, 2329716, 2330356, 2330938, 2331545, 2332133, 2332776, 2333347, 2334287, 2334820, 2335409, 2336005, 2336576, 2337158, 2337720, 2338294, 2338921, 2339517, 2340162, 2340696, 2341246, 2341815]","[2329297, 2329845, 2330468, 2331102, 2331756, 2332377, 2333005, 2333617, 2334447, 2335084, 2335675, 2336279, 2336833, 2337459, 2337996, 2338536, 2339077, 2339727, 2340333, 2340943, 2341469, 2342078]","[2327973, 2328572, 2329172, 2329773, 2330373, 2330973, 2331573, 2332173, 2332802, 2333373, 2334313, 2334845, 2335434, 2336030, 2336602, 2337183, 2337745, 2338320, 2338947, 2339543, 2340188, 2340721, 2341272, 2341840]",17,R,ITM,1.1,
6,400,trial,0,125,125,125,trial,"['B', 'S', 'S', 'S', 'S', 'S', 'S', 'S', 'C', 'C', 'C', 'C', 'C', 'C', 'C', 'C', 'C', 'C', 'C', 'C', 'C', 'C', 'C', 'C']","[2347556, 2348022, 2348337, 2348724, 2349144, 2349526, 2349916, 2350339, 2350735, 2351095, 2351507, 2351898, 2352296, 2352668, 2353052, 2353432, 2353846, 2354265, 2354649, 2355044, 2355450, 2355827, 2356224, 2356587]","[2347830, 2348136, 2348428, 2348823, 2349245, 2349628, 2350060, 2350469, 2350851, 2351234, 2351619, 2352022, 2352379, 2352778, 2353153, 2353555, 2353975, 2354331, 2354746, 2355141, 2355569, 2355933, 2356312, 2356751]","[2347570, 2347968, 2348368, 2348768, 2349168, 2349569, 2349968, 2350368, 2350761, 2351122, 2351534, 2351926, 2352324, 2352695, 2353079, 2353460, 2353873, 2354291, 2354675, 2355070, 2355477, 2355854, 2356251, 2356615]",17,R,ITM,1.1,
