octave,ioi,event,.thisRepN,.thisTrialN,.thisN,.thisIndex,event,tap_types,tap_times,release_times,tone_times,subject,handedness,experiment,version,
,,SPR,0,-1,-1,0,SPR,"['P', 'P', 'P', 'P', 'P', 'P', 'P', 'P', 'P', 'P', 'P', 'P', 'P', 'P', 'P', 'P', 'P', 'P', 'P', 'P', 'P', 'P', 'P', 'P', 'P', 'P', 'P', 'P', 'P', 'P']","[39822, 40172, 40328, 40486, 40642, 40799, 40952, 41112, 41260, 41407, 41551, 41700, 41853, 41995, 42148, 42302, 42458, 42620, 42778, 42932, 43101, 43260, 43428, 43579, 43725, 43882, 44049, 44220, 44369, 44529]","[40077, 40239, 40391, 40542, 40697, 40851, 41008, 41157, 41304, 41455, 41603, 41751, 41897, 42047, 42189, 42357, 42516, 42671, 42830, 42986, 43147, 43310, 43471, 43627, 43771, 43919, 44090, 44256, 44408, 44559]",,32,R,ITM,1.1,
2,500,practice,0,0,0,0,practice,"['S', 'S', 'S', 'S', 'S', 'S', 'S', 'S', 'S', 'S', 'C', 'C', 'C', 'C', 'C', 'C', 'C', 'C', 'C', 'C', 'C', 'C', 'C', 'C', 'C', 'C']","[103006, 103277, 103719, 104188, 104600, 105019, 105399, 105726, 106068, 106479, 106815, 107255, 107654, 108082, 108510, 108923, 109346, 109721, 110097, 110469, 110849, 111210, 111593, 111909, 112243, 112614]","[103071, 103344, 103766, 104231, 104643, 105068, 105422, 105767, 106139, 106524, 106872, 107308, 107714, 108149, 108573, 108967, 109395, 109808, 110148, 110524, 110876, 111261, 111631, 111946, 112291, 112671]","[102858, 103358, 103859, 104357, 104858, 105357, 105859, 106358, 106842, 107282, 107680, 108108, 108537, 108951, 109374, 109749, 110124, 110496, 110876, 111238, 111621, 111936, 112271, 112642]",32,R,ITM,1.1,
3,500,practice,0,1,1,1,practice,"['S', 'S', 'S', 'S', 'S', 'S', 'S', 'C', 'C', 'C', 'C', 'C', 'C', 'C', 'C', 'C', 'C', 'C', 'C', 'C', 'C', 'C', 'C', 'C', 'C']","[118331, 118985, 119619, 120188, 120737, 121217, 121713, 122256, 122755, 123207, 123670, 124100, 124499, 124896, 125303, 125676, 126051, 126396, 126696, 126968, 127193, 127339, 127593, 127916, 128342]","[118437, 119106, 119697, 120236, 120787, 121268, 121769, 122329, 122822, 123264, 123710, 124143, 124549, 124940, 125336, 125722, 126090, 126444, 126742, 127017, 127225, 127394, 127634, 127964, 128384]","[118310, 118810, 119310, 119811, 120310, 120810, 121310, 121810, 122281, 122780, 123233, 123696, 124126, 124525, 124921, 125329, 125702, 126076, 126423, 126722, 126994, 127365, 127941, 128367]",32,R,ITM,1.1,
5,500,practice,0,2,2,2,practice,"['S', 'S', 'S', 'S', 'S', 'C', 'C', 'C', 'C', 'C', 'C', 'C', 'C', 'C', 'C', 'C', 'C', 'C', 'C', 'C', 'C', 'C']","[135361, 135780, 136293, 136757, 137235, 137757, 138182, 138578, 138983, 139401, 139791, 140135, 140457, 140806, 141066, 153113, 153619, 154070, 154529, 155008, 155428, 155856]","[135407, 135814, 136328, 136787, 137284, 137807, 138255, 138620, 139035, 139437, 139853, 140189, 140504, 140846, 141111, 153163, 153667, 154122, 154577, 155052, 155485, 155910]","[133860, 134361, 134860, 135360, 135860, 136360, 136860, 137360, 137783, 138208, 138604, 139009, 139426, 139816, 140161, 140482, 140831, 153139, 153645, 154095, 154555, 155034, 155455, 155882]",32,R,ITM,1.1,
7,500,practice,0,3,3,3,practice,"['B', 'S', 'S', 'S', 'S', 'S', 'S', 'S', 'C', 'C', 'C', 'C', 'C', 'C', 'C', 'C', 'C', 'C', 'C', 'C', 'C', 'C', 'C', 'C']","[161377, 161808, 162300, 162797, 163331, 163838, 164390, 164873, 165441, 165908, 166395, 166878, 167405, 167883, 168355, 168827, 169299, 169765, 170175, 170668, 171177, 171664, 172186, 172666]","[161397, 161849, 162352, 162861, 163392, 163893, 164429, 164920, 165480, 165975, 166441, 166926, 167445, 167925, 168397, 168881, 169366, 169820, 170231, 170736, 171225, 171704, 172265, 172747]","[161390, 161889, 162390, 162889, 163389, 163890, 164389, 164889, 165468, 165936, 166422, 166904, 167433, 167911, 168382, 168854, 169326, 169792, 170203, 170695, 171203, 171691, 172213, 172693]",32,R,ITM,1.1,
6,500,practice,0,4,4,4,practice,"['S', 'S', 'S', 'S', 'S', 'S', 'S', 'C', 'C', 'C', 'C', 'C', 'C', 'C', 'C', 'C', 'C', 'C', 'C', 'C', 'C', 'C', 'C']","[178772, 179290, 179801, 180329, 180857, 181332, 181837, 182332, 182825, 183320, 183816, 184297, 184787, 185257, 185771, 186258, 186724, 187247, 187674, 188185, 188628, 189151, 189630]","[178825, 179353, 179854, 180390, 180916, 181385, 181891, 182383, 182889, 183380, 183879, 184350, 184826, 185304, 185810, 186301, 186779, 187287, 187738, 188256, 188699, 189217, 189681]","[178373, 178872, 179373, 179872, 180372, 180872, 181372, 181872, 182360, 182853, 183348, 183843, 184325, 184814, 185285, 185798, 186286, 186752, 187274, 187701, 188212, 188656, 189177, 189658]",32,R,ITM,1.1,
4,500,practice,0,5,5,5,practice,"['S', 'S', 'S', 'S', 'S', 'S', 'S', 'C', 'C', 'C', 'C', 'C', 'C', 'C', 'C', 'C', 'C', 'C', 'C', 'C', 'C', 'C', 'C']","[195696, 196206, 196744, 197301, 197819, 198268, 198772, 199281, 199747, 200254, 200731, 201253, 201723, 202250, 202718, 203223, 203671, 204233, 204662, 205162, 205587, 206062, 206514]","[195736, 196256, 196784, 197322, 197855, 198324, 198840, 199317, 199800, 200331, 200805, 201307, 201821, 202315, 202784, 203291, 203747, 204302, 204731, 205223, 205664, 206144, 206603]","[195320, 195819, 196319, 196819, 197319, 197819, 198320, 198819, 199307, 199773, 200280, 200757, 201280, 201749, 202275, 202743, 203248, 203698, 204259, 204688, 205188, 205613, 206088, 206540]",32,R,ITM,1.1,
4,400,trial,0,6,6,6,trial,"['S', 'S', 'S', 'S', 'S', 'S', 'S', 'C', 'C', 'C', 'C', 'C', 'C', 'C', 'C', 'C', 'C', 'C', 'C', 'C', 'C', 'C', 'C']","[258429, 258869, 259320, 259729, 260165, 260509, 260893, 261301, 261651, 261986, 262316, 262677, 263058, 263430, 263812, 264178, 264528, 264922, 265297, 265645, 265974, 266372, 266774]","[258499, 258918, 259367, 259787, 260198, 260572, 260935, 261359, 261710, 262038, 262376, 262735, 263108, 263485, 263857, 264224, 264574, 264970, 265340, 265697, 266027, 266437, 266825]","[258184, 258584, 258984, 259384, 259784, 260185, 260584, 260984, 261326, 261677, 262011, 262342, 262704, 263084, 263455, 263837, 264204, 264554, 264947, 265323, 265670, 266000, 266397, 266800]",32,R,ITM,1.1,
6,400,trial,0,7,7,7,trial,"['S', 'S', 'S', 'S', 'S', 'S', 'S', 'S', 'C', 'C', 'C', 'C', 'C', 'C', 'C', 'C', 'C', 'C', 'C', 'C', 'C', 'C', 'C', 'C']","[272412, 272804, 273191, 273560, 273947, 274311, 274703, 275053, 275475, 275861, 276225, 276599, 276997, 277387, 277766, 278150, 278580, 278903, 279292, 279668, 280044, 280426, 280815, 281191]","[272472, 272849, 273234, 273617, 274010, 274360, 274752, 275098, 275517, 275901, 276284, 276651, 277045, 277429, 277822, 278193, 278619, 278955, 279341, 279714, 280078, 280479, 280852, 281235]","[272263, 272662, 273062, 273462, 273862, 274263, 274662, 275062, 275503, 275888, 276252, 276626, 277023, 277413, 277792, 278176, 278606, 278930, 279320, 279695, 280071, 280453, 280842, 281218]",32,R,ITM,1.1,
2,400,trial,0,8,8,8,trial,"['S', 'S', 'S', 'S', 'S', 'S', 'S', 'C', 'C', 'C', 'C', 'C', 'C', 'C', 'C', 'C', 'C', 'C', 'C', 'C', 'C', 'C', 'C']","[287217, 287645, 288041, 288470, 288913, 289334, 289729, 290115, 290531, 290910, 291303, 291687, 292075, 292444, 292852, 293252, 293624, 294041, 294439, 294808, 295177, 295542, 295929]","[287276, 287696, 288091, 288536, 288963, 289375, 289787, 290180, 290582, 290961, 291355, 291738, 292131, 292503, 292903, 293298, 293685, 294120, 294491, 294901, 295241, 295633, 296031]","[286924, 287325, 287724, 288124, 288523, 288924, 289324, 289724, 290143, 290558, 290937, 291330, 291714, 292102, 292471, 292879, 293278, 293652, 294069, 294466, 294836, 295204, 295569, 295957]",32,R,ITM,1.1,
7,600,trial,0,9,9,9,trial,"['S', 'S', 'S', 'S', 'S', 'S', 'S', 'C', 'C', 'C', 'C', 'C', 'C', 'C', 'C', 'C', 'C', 'C', 'C', 'C', 'C', 'C', 'C']","[301590, 302187, 302854, 303507, 304175, 304824, 305409, 306036, 306615, 307139, 307720, 308249, 308826, 309349, 309942, 310503, 311068, 311656, 312238, 312755, 313341, 313951, 314471]","[301648, 302238, 302910, 303571, 304234, 304876, 305465, 306093, 306666, 307195, 307766, 308324, 308894, 309433, 309998, 310572, 311145, 311716, 312289, 312806, 313402, 313993, 314541]","[301349, 301948, 302548, 303149, 303749, 304349, 304948, 305548, 306063, 306642, 307166, 307746, 308277, 308852, 309377, 309969, 310530, 311096, 311683, 312264, 312782, 313368, 313977, 314499]",32,R,ITM,1.1,
7,600,trial,0,10,10,10,trial,"['S', 'S', 'S', 'S', 'S', 'S', 'S', 'S', 'C', 'C', 'C', 'C', 'C', 'C', 'C', 'C', 'C', 'C', 'C', 'C', 'C', 'C', 'C', 'C']","[320187, 320781, 321353, 321943, 322484, 323056, 323636, 324219, 324811, 325403, 326016, 326630, 327214, 327826, 328375, 329090, 329710, 330284, 330894, 331446, 332051, 332601, 333185, 333793]","[320237, 320828, 321389, 321973, 322528, 323097, 323689, 324280, 324855, 325452, 326052, 326672, 327251, 327866, 328428, 329153, 329780, 330352, 330963, 331532, 332158, 332703, 333276, 333888]","[319986, 320585, 321185, 321785, 322385, 322985, 323586, 324186, 324839, 325430, 326043, 326657, 327241, 327853, 328402, 329116, 329737, 330311, 330920, 331472, 332079, 332627, 333212, 333820]",32,R,ITM,1.1,
5,600,trial,0,11,11,11,trial,"['S', 'S', 'S', 'S', 'S', 'S', 'S', 'C', 'C', 'C', 'C', 'C', 'C', 'C', 'C', 'C', 'C', 'C', 'C', 'C', 'C', 'C', 'C']","[339790, 340409, 341055, 341756, 342354, 342998, 343569, 344146, 344726, 345323, 345890, 346466, 347044, 347636, 348195, 348792, 349418, 349935, 350493, 351051, 351574, 352168, 352731]","[339864, 340453, 341105, 341800, 342422, 343041, 343626, 344208, 344764, 345363, 345929, 346514, 347100, 347688, 348256, 348866, 349457, 350000, 350564, 351095, 351629, 352222, 352783]","[339388, 339988, 340588, 341188, 341788, 342388, 342988, 343588, 344173, 344752, 345350, 345916, 346491, 347071, 347662, 348222, 348819, 349445, 349961, 350519, 351077, 351600, 352194, 352756]",32,R,ITM,1.1,
5,600,trial,0,12,12,12,trial,"['S', 'S', 'S', 'S', 'S', 'S', 'S', 'S', 'C', 'C', 'C', 'C', 'C', 'C', 'C', 'C', 'C', 'C', 'C', 'C', 'C', 'C', 'C', 'C']","[358482, 358984, 359516, 360094, 360713, 361286, 361839, 362432, 363014, 363612, 364200, 364769, 365378, 365967, 366514, 367035, 367642, 368239, 368783, 369429, 369960, 370575, 371179, 371708]","[358525, 359019, 359553, 360141, 360753, 361336, 361909, 362510, 363081, 363673, 364249, 364839, 365431, 366012, 366559, 367121, 367697, 368304, 368885, 369506, 370069, 370639, 371247, 371774]","[358282, 358882, 359482, 360082, 360682, 361282, 361882, 362482, 363040, 363637, 364226, 364794, 365404, 365992, 366539, 367060, 367668, 368265, 368808, 369455, 369987, 370600, 371205, 371735]",32,R,ITM,1.1,
6,600,trial,0,13,13,13,trial,"['S', 'S', 'S', 'S', 'S', 'S', 'S', 'S', 'C', 'C', 'C', 'C', 'C', 'C', 'C', 'C', 'C', 'C', 'C', 'C', 'C', 'C', 'C', 'C']","[377558, 378030, 378546, 379180, 379778, 380399, 380974, 381574, 382143, 382784, 383344, 383996, 384542, 385152, 385646, 386297, 386850, 387406, 387989, 388546, 389126, 389721, 390331, 390921]","[377625, 378083, 378586, 379213, 379824, 380444, 381019, 381614, 382199, 382837, 383407, 384039, 384614, 385210, 385769, 386368, 386939, 387481, 388044, 388651, 389212, 389826, 390423, 390991]","[377374, 377973, 378573, 379173, 379773, 380374, 380974, 381574, 382171, 382811, 383371, 384024, 384570, 385178, 385673, 386324, 386877, 387434, 388017, 388573, 389152, 389747, 390359, 390947]",32,R,ITM,1.1,
6,400,trial,0,14,14,14,trial,"['S', 'S', 'S', 'S', 'S', 'S', 'S', 'S', 'C', 'C', 'C', 'C', 'C', 'C', 'C', 'C', 'C', 'C', 'C', 'C', 'C', 'C', 'C', 'C']","[396755, 397179, 397519, 397812, 398163, 398486, 398841, 399224, 399609, 399944, 400279, 400670, 401072, 401424, 401825, 402230, 402586, 402980, 403341, 403719, 404111, 404507, 404926, 405347]","[396804, 397218, 397569, 397857, 398183, 398525, 398888, 399267, 399637, 399971, 400330, 400711, 401098, 401477, 401872, 402270, 402633, 403027, 403388, 403764, 404158, 404550, 404968, 405373]","[396546, 396944, 397344, 397745, 398144, 398544, 398944, 399344, 399637, 399971, 400306, 400697, 401098, 401451, 401852, 402256, 402613, 403007, 403367, 403745, 404139, 404534, 404953, 405373]",32,R,ITM,1.1,
3,400,trial,0,15,15,15,trial,"['S', 'S', 'S', 'S', 'S', 'S', 'S', 'C', 'C', 'C', 'C', 'C', 'C', 'C', 'C', 'C', 'C', 'C', 'C', 'C', 'C', 'C', 'C']","[411105, 411484, 411886, 412366, 412801, 413214, 413609, 414019, 414399, 414764, 415175, 415576, 415984, 416431, 416791, 417196, 417590, 417977, 418383, 418790, 419177, 419552, 419968]","[411147, 411528, 411921, 412398, 412837, 413251, 413641, 414051, 414438, 414789, 415216, 415617, 416010, 416456, 416845, 417234, 417635, 418017, 418425, 418839, 419212, 419590, 420011]","[410893, 411293, 411694, 412093, 412493, 412893, 413293, 413693, 414045, 414425, 414789, 415201, 415601, 416010, 416456, 416817, 417221, 417615, 418002, 418409, 418816, 419203, 419577, 419993]",32,R,ITM,1.1,
4,600,trial,0,16,16,16,trial,"['S', 'S', 'S', 'S', 'S', 'S', 'S', 'S', 'C', 'C', 'C', 'C', 'C', 'C', 'C', 'C', 'C', 'C', 'C', 'C', 'C', 'C', 'C', 'C']","[425934, 426329, 426849, 427459, 427993, 428575, 429125, 429696, 430368, 430899, 431494, 432013, 432560, 433104, 433642, 434185, 434671, 435251, 435793, 436347, 436917, 437480, 438026, 438555]","[425970, 426360, 426884, 427479, 428019, 428615, 429179, 429759, 430430, 430949, 431542, 432070, 432615, 433168, 433722, 434240, 434750, 435310, 435857, 436424, 436965, 437527, 438105, 438625]","[425747, 426347, 426947, 427547, 428147, 428747, 429347, 429947, 430394, 430924, 431519, 432038, 432586, 433130, 433668, 434210, 434697, 435276, 435819, 436373, 436942, 437506, 438051, 438582]",32,R,ITM,1.1,
4,600,trial,0,17,17,17,trial,"['S', 'S', 'S', 'S', 'S', 'S', 'S', 'S', 'C', 'C', 'C', 'C', 'C', 'C', 'C', 'C', 'C', 'C', 'C', 'C', 'C', 'C', 'C', 'C']","[444494, 445039, 445507, 446054, 446586, 447191, 447728, 448377, 448992, 449627, 450215, 450788, 451323, 451965, 452490, 453130, 453687, 454258, 454784, 455377, 455960, 456585, 457160, 457765]","[444558, 445059, 445547, 446100, 446655, 447248, 447833, 448455, 449106, 449730, 450342, 450925, 451468, 452108, 452627, 453256, 453805, 454410, 454906, 455539, 456082, 456699, 457269, 457863]","[444265, 444864, 445464, 446064, 446664, 447264, 447864, 448464, 449017, 449652, 450241, 450813, 451349, 451991, 452515, 453155, 453713, 454285, 454809, 455403, 455986, 456610, 457186, 457791]",32,R,ITM,1.1,
2,600,trial,0,18,18,18,trial,"['S', 'S', 'S', 'S', 'S', 'S', 'S', 'S', 'C', 'C', 'C', 'C', 'C', 'C', 'C', 'C', 'C', 'C', 'C', 'C', 'C', 'C', 'C', 'C']","[465885, 466357, 466803, 467381, 467956, 468523, 469139, 469742, 470317, 470914, 471480, 472083, 472693, 473281, 473870, 474447, 475028, 475648, 476251, 476805, 477369, 477928, 478473, 479076]","[465935, 466400, 466856, 467416, 468000, 468567, 469181, 469783, 470387, 471000, 471558, 472152, 472741, 473373, 473947, 474521, 475126, 475717, 476325, 476863, 477437, 478027, 478559, 479164]","[465582, 466182, 466782, 467381, 467980, 468581, 469181, 469781, 470344, 470940, 471507, 472111, 472721, 473308, 473896, 474474, 475056, 475674, 476278, 476832, 477396, 477956, 478499, 479104]",32,R,ITM,1.1,
4,400,trial,0,19,19,19,trial,"['S', 'S', 'S', 'S', 'S', 'S', 'S', 'C', 'C', 'C', 'C', 'C', 'C', 'C', 'C', 'C', 'C', 'C', 'C', 'C', 'C', 'C', 'C']","[484631, 485068, 485491, 485955, 486350, 486777, 487187, 487598, 487966, 488391, 488751, 489085, 489457, 489881, 490248, 490657, 491040, 491465, 491862, 492239, 492631, 492981, 493381]","[484658, 485111, 485563, 485992, 486406, 486813, 487231, 487642, 488008, 488429, 488803, 489139, 489495, 489919, 490307, 490734, 491124, 491525, 491915, 492314, 492674, 493032, 493463]","[484442, 484841, 485241, 485641, 486041, 486441, 486841, 487241, 487623, 487992, 488417, 488776, 489111, 489483, 489907, 490273, 490683, 491066, 491491, 491887, 492265, 492657, 493006, 493407]",32,R,ITM,1.1,
6,600,trial,0,20,20,20,trial,"['S', 'S', 'S', 'S', 'S', 'S', 'S', 'S', 'C', 'C', 'C', 'C', 'C', 'C', 'C', 'C', 'C', 'C', 'C', 'C', 'C', 'C', 'C', 'C']","[499448, 499927, 500365, 500877, 501448, 502022, 502608, 503251, 503797, 504413, 504981, 505537, 506089, 506619, 507233, 507797, 508378, 508931, 509443, 510002, 510537, 511039, 511674, 512233]","[499509, 499961, 500419, 500926, 501488, 502062, 502651, 503288, 503875, 504469, 505052, 505605, 506155, 506718, 507278, 507865, 508429, 508996, 509498, 510052, 510592, 511133, 511725, 512281]","[499163, 499763, 500363, 500963, 501563, 502163, 502763, 503363, 503825, 504439, 505009, 505565, 506116, 506647, 507259, 507824, 508404, 508957, 509470, 510028, 510564, 511066, 511702, 512260]",32,R,ITM,1.1,
5,400,trial,0,21,21,21,trial,"['S', 'S', 'S', 'S', 'S', 'S', 'S', 'S', 'S', 'C', 'C', 'C', 'C', 'C', 'C', 'C', 'C', 'C', 'C', 'C', 'C', 'C', 'C', 'C', 'C']","[518000, 518424, 518798, 519114, 519431, 519773, 520136, 520458, 520830, 521106, 521457, 521767, 522107, 522485, 522860, 523257, 523656, 524048, 524481, 524883, 525284, 525682, 526072, 526423, 526824]","[518056, 518445, 518819, 519160, 519476, 519805, 520174, 520504, 520866, 521154, 521493, 521816, 522141, 522534, 522917, 523308, 523713, 524130, 524522, 524922, 525346, 525740, 526099, 526476, 526868]","[517831, 518232, 518631, 519031, 519431, 519831, 520231, 520631, 521132, 521483, 521794, 522134, 522511, 522886, 523283, 523681, 524073, 524508, 524909, 525309, 525708, 526099, 526448, 526850]",32,R,ITM,1.1,
5,400,trial,0,22,22,22,trial,"['S', 'S', 'S', 'S', 'S', 'S', 'S', 'S', 'C', 'C', 'C', 'C', 'C', 'C', 'C', 'C', 'C', 'C', 'C', 'C', 'C', 'C', 'C', 'C']","[532684, 533064, 533416, 533718, 534055, 534423, 534776, 535128, 535526, 535910, 536353, 536730, 537148, 537519, 537947, 538340, 538670, 539018, 539431, 539814, 540225, 540613, 541030, 541323]","[532733, 533094, 533436, 533752, 534092, 534464, 534804, 535159, 535557, 535954, 536392, 536776, 537196, 537591, 537981, 538370, 538715, 539062, 539469, 539849, 540273, 540655, 541079, 541374]","[532477, 532876, 533276, 533677, 534076, 534476, 534877, 535277, 535552, 535936, 536380, 536756, 537175, 537544, 537972, 538365, 538695, 539043, 539457, 539840, 540252, 540639, 541056, 541348]",32,R,ITM,1.1,
2,400,trial,0,23,23,23,trial,"['S', 'S', 'S', 'S', 'S', 'S', 'S', 'C', 'C', 'C', 'C', 'C', 'C', 'C', 'C', 'C', 'C', 'C', 'C', 'C', 'C', 'C', 'C']","[547246, 547649, 548049, 548439, 548816, 549224, 549664, 550052, 550448, 550832, 551226, 551644, 552017, 552424, 552847, 553268, 553674, 554110, 554497, 554899, 555253, 555640, 556062]","[547289, 547691, 548094, 548484, 548864, 549266, 549696, 550108, 550497, 550873, 551263, 551685, 552069, 552508, 552906, 553324, 553720, 554151, 554551, 554945, 555297, 555704, 556114]","[546923, 547323, 547723, 548123, 548523, 548923, 549323, 549724, 550079, 550475, 550859, 551252, 551670, 552044, 552452, 552873, 553294, 553702, 554138, 554524, 554926, 555280, 555668, 556089]",32,R,ITM,1.1,
7,400,trial,0,24,24,24,trial,"['S', 'S', 'S', 'S', 'S', 'S', 'S', 'S', 'C', 'C', 'C', 'C', 'C', 'C', 'C', 'C', 'C', 'C', 'C', 'C', 'C', 'C', 'C', 'C']","[561746, 562036, 562392, 562740, 563129, 563522, 563922, 564292, 564649, 565019, 565452, 565819, 566239, 566653, 567044, 567484, 567897, 568301, 568714, 569121, 569543, 569895, 570386, 570772]","[561802, 562069, 562435, 562787, 563185, 563575, 563962, 564318, 564692, 565049, 565493, 565890, 566304, 566705, 567111, 567528, 567938, 568343, 568760, 569159, 569584, 569940, 570434, 570823]","[561587, 561985, 562385, 562785, 563185, 563586, 563985, 564385, 564675, 565047, 565480, 565846, 566265, 566680, 567070, 567511, 567923, 568329, 568740, 569149, 569571, 569922, 570414, 570800]",32,R,ITM,1.1,
3,600,trial,0,25,25,25,trial,"['S', 'S', 'S', 'S', 'S', 'S', 'S', 'S', 'C', 'C', 'C', 'C', 'C', 'C', 'C', 'C', 'C', 'C', 'C', 'C', 'C', 'C', 'C', 'C']","[576349, 576894, 577257, 577806, 578406, 578963, 579572, 580099, 580733, 581316, 581861, 582391, 582880, 583486, 584089, 584664, 585131, 585713, 586297, 586790, 587334, 587862, 588392, 588943]","[576399, 576935, 577334, 577854, 578464, 579005, 579592, 580150, 580791, 581372, 581924, 582453, 582958, 583579, 584162, 584727, 585238, 585769, 586373, 586905, 587419, 587969, 588493, 589034]","[576115, 576714, 577314, 577914, 578514, 579115, 579715, 580315, 580759, 581342, 581886, 582417, 582905, 583512, 584115, 584689, 585156, 585739, 586322, 586816, 587360, 587887, 588418, 588968]",32,R,ITM,1.1,
3,600,trial,0,26,26,26,trial,"['S', 'S', 'S', 'S', 'S', 'S', 'S', 'S', 'C', 'C', 'C', 'C', 'C', 'C', 'C', 'C', 'C', 'C', 'C', 'C', 'C', 'C', 'C', 'C']","[594908, 595462, 595950, 596438, 597017, 597600, 598173, 598719, 599290, 599926, 600503, 601060, 601661, 602182, 602754, 603302, 603917, 604470, 605017, 605589, 606140, 606664, 607203, 607745]","[594963, 595499, 595981, 596489, 597074, 597642, 598242, 598805, 599401, 600001, 600577, 601160, 601747, 602266, 602850, 603377, 603990, 604544, 605106, 605662, 606222, 606726, 607283, 607790]","[594674, 595274, 595874, 596474, 597074, 597675, 598275, 598875, 599316, 599952, 600528, 601085, 601688, 602208, 602779, 603328, 603942, 604495, 605042, 605615, 606166, 606690, 607228, 607770]",32,R,ITM,1.1,
2,600,trial,0,27,27,27,trial,"['S', 'S', 'S', 'S', 'S', 'S', 'S', 'S', 'C', 'C', 'C', 'C', 'C', 'C', 'C', 'C', 'C', 'C', 'C', 'C', 'C', 'C', 'C', 'C']","[613683, 614168, 614609, 615171, 615715, 616264, 616915, 617509, 618135, 618699, 619295, 619806, 620339, 620895, 621450, 621981, 622550, 623140, 623740, 624285, 624861, 625435, 625982, 626569]","[613727, 614214, 614653, 615211, 615757, 616308, 616949, 617541, 618182, 618743, 619330, 619870, 620391, 620944, 621498, 622024, 622607, 623201, 623780, 624325, 624908, 625484, 626016, 626596]","[613436, 614036, 614636, 615236, 615836, 616436, 617036, 617636, 618163, 618727, 619322, 619833, 620366, 620922, 621477, 622009, 622576, 623167, 623767, 624313, 624888, 625463, 626009, 626596]",32,R,ITM,1.1,
3,400,trial,0,28,28,28,trial,"['S', 'S', 'S', 'S', 'S', 'S', 'S', 'S', 'C', 'C', 'C', 'C', 'C', 'C', 'C', 'C', 'C', 'C', 'C', 'C', 'C', 'C', 'C', 'C']","[632321, 632718, 633097, 633466, 633816, 634137, 634468, 634904, 635282, 635648, 636020, 636362, 636718, 637083, 637516, 637918, 638284, 638642, 639032, 639419, 639817, 640167, 640590, 640929]","[632361, 632764, 633147, 633511, 633854, 634178, 634528, 634958, 635328, 635709, 636061, 636436, 636768, 637151, 637542, 637943, 638336, 638693, 639096, 639476, 639882, 640211, 640632, 640989]","[632128, 632528, 632928, 633328, 633729, 634128, 634528, 634929, 635308, 635673, 636046, 636388, 636743, 637109, 637542, 637943, 638310, 638667, 639057, 639446, 639843, 640193, 640616, 640955]",32,R,ITM,1.1,
7,400,trial,0,29,29,29,trial,"['S', 'S', 'S', 'S', 'S', 'S', 'S', 'S', 'C', 'C', 'C', 'C', 'C', 'C', 'C', 'C', 'C', 'C', 'C', 'C', 'C', 'C', 'C', 'C']","[646725, 647064, 647431, 647799, 648113, 648443, 648790, 649126, 649519, 649880, 650261, 650636, 650987, 651341, 651693, 652111, 652550, 652921, 653363, 653706, 654099, 654468, 654821, 655172]","[646771, 647099, 647480, 647847, 648164, 648483, 648810, 649193, 649575, 649924, 650322, 650671, 651040, 651378, 651765, 652164, 652592, 652977, 653389, 653751, 654127, 654525, 654885, 655221]","[646454, 646853, 647254, 647653, 648053, 648454, 648853, 649253, 649546, 649908, 650289, 650662, 651015, 651369, 651720, 652139, 652576, 652949, 653389, 653733, 654127, 654494, 654848, 655199]",32,R,ITM,1.1,
4,600,trial,0,30,30,30,trial,"['S', 'S', 'S', 'S', 'S', 'S', 'S', 'S', 'C', 'C', 'C', 'C', 'C', 'C', 'C', 'C', 'C', 'C', 'C', 'C', 'C', 'C', 'C', 'C']","[662345, 662683, 663129, 663663, 664306, 664943, 665542, 666166, 666722, 667272, 667799, 668384, 668934, 669518, 670031, 670605, 671169, 671626, 672140, 672681, 673280, 673784, 674343, 674922]","[662407, 662715, 663183, 663726, 664360, 664984, 665580, 666226, 666749, 667317, 667849, 668438, 668987, 669577, 670100, 670649, 671209, 671682, 672227, 672740, 673351, 673874, 674428, 675000]","[662185, 662785, 663385, 663985, 664584, 665184, 665784, 666384, 666747, 667298, 667825, 668409, 668959, 669544, 670057, 670630, 671196, 671651, 672165, 672707, 673305, 673810, 674369, 674948]",32,R,ITM,1.1,
6,600,trial,0,31,31,31,trial,"['S', 'S', 'S', 'S', 'S', 'S', 'S', 'S', 'C', 'C', 'C', 'C', 'C', 'C', 'C', 'C', 'C', 'C', 'C', 'C', 'C', 'C', 'C', 'C']","[680811, 681243, 681806, 682375, 682960, 683579, 684189, 684782, 685386, 686020, 686540, 687127, 687637, 688195, 688712, 689294, 689842, 690483, 691038, 691533, 692018, 692608, 693114, 693657]","[680876, 681305, 681854, 682428, 683013, 683631, 684232, 684843, 685440, 686055, 686587, 687161, 687694, 688252, 688798, 689387, 689922, 690531, 691081, 691633, 692123, 692706, 693202, 693749]","[680629, 681228, 681828, 682428, 683028, 683628, 684228, 684828, 685413, 686048, 686568, 687154, 687664, 688222, 688739, 689320, 689869, 690509, 691064, 691560, 692045, 692635, 693141, 693684]",32,R,ITM,1.1,
7,400,trial,0,32,32,32,trial,"['S', 'S', 'S', 'S', 'S', 'S', 'S', 'C', 'C', 'C', 'C', 'C', 'C', 'C', 'C', 'C', 'C', 'C', 'C', 'C', 'C', 'C', 'C']","[699529, 699913, 700294, 700665, 701024, 701630, 701960, 702351, 702670, 703067, 703481, 703893, 704303, 704733, 705190, 705615, 706040, 706491, 706886, 707308, 707770, 708183, 708587]","[699596, 699957, 700338, 700707, 701088, 701682, 702024, 702416, 702733, 703122, 703548, 703959, 704357, 704800, 705242, 705659, 706119, 706525, 706958, 707376, 707818, 708237, 708647]","[699261, 699660, 700060, 700461, 700860, 701260, 701661, 702060, 702379, 702697, 703093, 703509, 703920, 704329, 704760, 705217, 705643, 706068, 706518, 706913, 707336, 707796, 708209, 708614]",32,R,ITM,1.1,
6,400,trial,0,33,33,33,trial,"['S', 'S', 'S', 'S', 'S', 'S', 'S', 'C', 'C', 'C', 'C', 'C', 'C', 'C', 'C', 'C', 'C', 'C', 'C', 'C', 'C', 'C', 'C']","[714478, 714923, 715364, 715794, 716231, 716627, 717073, 717486, 717935, 718278, 718753, 719117, 719538, 719891, 720323, 720672, 721146, 721453, 721969, 722281, 722779, 723080, 723630]","[714545, 714964, 715385, 715868, 716269, 716677, 717126, 717541, 717965, 718359, 718780, 719196, 719594, 719942, 720389, 720727, 721209, 721556, 722019, 722363, 722831, 723178, 723666]","[714252, 714652, 715053, 715452, 715852, 716253, 716652, 717052, 717513, 717962, 718305, 718780, 719144, 719565, 719918, 720351, 720699, 721174, 721480, 721995, 722309, 722805, 723106, 723656]",32,R,ITM,1.1,
2,600,trial,0,34,34,34,trial,"['S', 'S', 'S', 'S', 'S', 'S', 'S', 'S', 'C', 'C', 'C', 'C', 'C', 'C', 'C', 'C', 'C', 'C', 'C', 'C', 'C', 'C', 'C', 'C']","[729517, 729954, 730440, 731079, 731661, 732261, 732859, 733479, 734063, 734665, 735129, 735722, 736254, 736809, 737329, 737875, 738337, 738974, 739494, 740029, 740511, 741033, 741564, 742017]","[729586, 730002, 730508, 731119, 731705, 732308, 732902, 733529, 734120, 734728, 735206, 735785, 736344, 736885, 737403, 737947, 738424, 739046, 739556, 740085, 740588, 741118, 741615, 742078]","[729354, 729954, 730554, 731154, 731754, 732353, 732954, 733554, 734091, 734692, 735157, 735750, 736280, 736835, 737356, 737903, 738364, 739001, 739522, 740057, 740538, 741059, 741592, 742044]",32,R,ITM,1.1,
7,600,trial,0,35,35,35,trial,"['S', 'S', 'S', 'S', 'S', 'S', 'S', 'S', 'C', 'C', 'C', 'C', 'C', 'C', 'C', 'C', 'C', 'C', 'C', 'C', 'C', 'C', 'C', 'C']","[747547, 747933, 748414, 748999, 749547, 750190, 750813, 751395, 752010, 752576, 753177, 753701, 754250, 754806, 755365, 755914, 756490, 757061, 757592, 758205, 758733, 759311, 759836, 760367]","[747602, 747990, 748493, 749036, 749602, 750210, 750865, 751504, 752075, 752670, 753266, 753812, 754332, 754885, 755431, 756028, 756601, 757151, 757715, 758232, 758831, 759408, 759911, 760523]","[747364, 747963, 748563, 749163, 749763, 750363, 750963, 751563, 752036, 752604, 753204, 753728, 754278, 754833, 755393, 755942, 756516, 757089, 757619, 758232, 758761, 759337, 759863, 760394]",32,R,ITM,1.1,
7,600,trial,0,36,36,36,trial,"['S', 'S', 'S', 'S', 'S', 'S', 'S', 'S', 'C', 'C', 'C', 'C', 'C', 'C', 'C', 'C', 'C', 'C', 'C', 'C', 'C', 'C', 'C', 'C']","[766287, 766785, 767205, 767769, 768349, 768950, 769514, 770078, 770731, 771346, 771883, 772496, 772990, 773590, 774093, 774728, 775241, 775811, 776321, 776851, 777328, 777889, 778293, 778868]","[766346, 766836, 767306, 767860, 768415, 768996, 769585, 770179, 770826, 771427, 771977, 772578, 773143, 773723, 774203, 774822, 775313, 775838, 776389, 776938, 777417, 777979, 778395, 778971]","[766094, 766693, 767293, 767893, 768493, 769093, 769693, 770293, 770758, 771373, 771910, 772523, 773017, 773617, 774121, 774756, 775268, 775838, 776348, 776878, 777355, 777917, 778320, 778896]",32,R,ITM,1.1,
3,600,trial,0,37,37,37,trial,"['S', 'S', 'S', 'S', 'S', 'S', 'S', 'C', 'C', 'C', 'C', 'C', 'C', 'C', 'C', 'C', 'C', 'C', 'C', 'C', 'C', 'C', 'C']","[784540, 785117, 785792, 786488, 787095, 787690, 788334, 788864, 789534, 790066, 790646, 791185, 791751, 792261, 792854, 793352, 794002, 794522, 795010, 795622, 796192, 796766, 797377]","[784599, 785152, 785827, 786508, 787117, 787756, 788392, 788939, 789604, 790167, 790702, 791293, 791883, 792387, 792985, 793475, 794103, 794642, 795155, 795772, 796319, 796846, 797462]","[784245, 784844, 785444, 786044, 786644, 787245, 787845, 788445, 788889, 789560, 790091, 790672, 791211, 791777, 792287, 792880, 793377, 794028, 794548, 795035, 795648, 796218, 796791, 797403]",32,R,ITM,1.1,
4,600,trial,0,38,38,38,trial,"['S', 'S', 'S', 'S', 'S', 'S', 'S', 'S', 'C', 'C', 'C', 'C', 'C', 'C', 'C', 'C', 'C', 'C', 'C', 'C', 'C', 'C', 'C', 'C']","[803297, 803854, 804343, 804871, 805419, 805988, 806553, 807161, 807743, 808347, 808910, 809490, 810076, 810668, 811187, 811804, 812350, 812924, 813582, 814138, 814764, 815380, 815944, 816594]","[803318, 803893, 804401, 804938, 805463, 806047, 806606, 807221, 807789, 808421, 808990, 809567, 810160, 810788, 811324, 811908, 812454, 813006, 813663, 814224, 814854, 815479, 816053, 816638]","[803081, 803681, 804281, 804881, 805481, 806081, 806681, 807281, 807770, 808373, 808936, 809516, 810101, 810693, 811213, 811830, 812376, 812950, 813608, 814163, 814789, 815406, 815971, 816620]",32,R,ITM,1.1,
5,600,trial,0,39,39,39,trial,"['S', 'S', 'S', 'S', 'S', 'S', 'S', 'S', 'C', 'C', 'C', 'C', 'C', 'C', 'C', 'C', 'C', 'C', 'C', 'C', 'C', 'C', 'C', 'C']","[822360, 822922, 823324, 823798, 824376, 824907, 825465, 826124, 826698, 827239, 827732, 828243, 828779, 829312, 829839, 830297, 830860, 831338, 831851, 832378, 832889, 833414, 833916, 834401]","[822414, 822961, 823365, 823852, 824413, 824964, 825537, 826176, 826773, 827283, 827786, 828328, 828856, 829337, 829865, 830356, 830885, 831388, 831901, 832448, 832931, 833452, 833958, 834444]","[822156, 822755, 823355, 823955, 824555, 825155, 825755, 826355, 826725, 827265, 827758, 828269, 828805, 829337, 829864, 830322, 830885, 831365, 831877, 832404, 832915, 833439, 833942, 834427]",32,R,ITM,1.1,
2,600,trial,0,40,40,40,trial,"['S', 'S', 'S', 'S', 'S', 'S', 'S', 'S', 'C', 'C', 'C', 'C', 'C', 'C', 'C', 'C', 'C', 'C', 'C', 'C', 'C', 'C', 'C', 'C']","[840322, 840753, 841274, 841833, 842402, 843003, 843600, 844174, 844767, 845449, 846053, 846630, 847209, 847796, 848338, 849004, 849555, 850098, 850604, 851194, 851649, 852255, 852779, 853360]","[840358, 840773, 841332, 841874, 842441, 843057, 843620, 844219, 844818, 845514, 846097, 846691, 847277, 847851, 848414, 849058, 849630, 850174, 850753, 851222, 851705, 852297, 852830, 853408]","[840153, 840753, 841353, 841953, 842553, 843153, 843753, 844352, 844794, 845476, 846081, 846658, 847237, 847822, 848366, 849032, 849582, 850125, 850631, 851221, 851677, 852282, 852805, 853388]",32,R,ITM,1.1,
7,400,trial,0,41,41,41,trial,"['S', 'S', 'S', 'S', 'S', 'S', 'S', 'S', 'C', 'C', 'C', 'C', 'C', 'C', 'C', 'C', 'C', 'C', 'C', 'C', 'C', 'C', 'C', 'C']","[859197, 859581, 860004, 860372, 860766, 861137, 861484, 861759, 862120, 862496, 862898, 863289, 863703, 864092, 864438, 864899, 865313, 865693, 866093, 866426, 866844, 867251, 867641, 867982]","[859217, 859601, 860024, 860392, 860786, 861168, 861504, 861801, 862176, 862558, 862934, 863332, 863730, 864134, 864506, 864939, 865359, 865721, 866119, 866485, 866889, 867295, 867681, 868009]","[858986, 859385, 859785, 860185, 860585, 860985, 861385, 861786, 862147, 862524, 862925, 863315, 863730, 864118, 864464, 864926, 865340, 865721, 866119, 866453, 866872, 867277, 867668, 868008]",32,R,ITM,1.1,
5,400,trial,0,42,42,42,trial,"['S', 'S', 'S', 'S', 'S', 'S', 'S', 'S', 'C', 'C', 'C', 'C', 'C', 'C', 'C', 'C', 'C', 'C', 'C', 'C', 'C', 'C', 'C', 'C']","[875670, 876006, 876324, 876646, 877003, 877367, 877723, 878133, 878543, 878897, 879235, 879604, 879953, 880350, 880699, 881070, 881444, 881830, 882204, 882597, 882948, 883377, 883730, 884141]","[875714, 876048, 876359, 876680, 877061, 877402, 877788, 878192, 878614, 878948, 879304, 879630, 880023, 880401, 880797, 881140, 881497, 881873, 882281, 882642, 883031, 883422, 883770, 884198]","[875482, 875880, 876280, 876680, 877080, 877480, 877880, 878280, 878569, 878922, 879260, 879630, 879979, 880376, 880726, 881095, 881470, 881856, 882230, 882623, 882973, 883402, 883756, 884166]",32,R,ITM,1.1,
3,400,trial,0,43,43,43,trial,"['S', 'S', 'S', 'S', 'S', 'S', 'S', 'S', 'C', 'C', 'C', 'C', 'C', 'C', 'C', 'C', 'C', 'C', 'C', 'C', 'C', 'C', 'C', 'C']","[889943, 890250, 890584, 890903, 891214, 891632, 891980, 892418, 892900, 893310, 893761, 894115, 894540, 894926, 895309, 895689, 896121, 896497, 896891, 897202, 897640, 898030, 898410, 898760]","[889988, 890270, 890604, 890923, 891278, 891652, 892022, 892476, 892956, 893335, 893787, 894141, 894596, 894952, 895362, 895727, 896147, 896565, 896917, 897284, 897666, 898056, 898436, 898790]","[889764, 890164, 890564, 890964, 891364, 891764, 892165, 892564, 892925, 893335, 893787, 894141, 894566, 894952, 895335, 895715, 896147, 896523, 896917, 897227, 897666, 898056, 898436, 898786]",32,R,ITM,1.1,
2,400,trial,0,44,44,44,trial,"['S', 'S', 'S', 'S', 'S', 'S', 'S', 'C', 'C', 'C', 'C', 'C', 'C', 'C', 'C', 'C', 'C', 'C', 'C', 'C', 'C', 'C', 'C']","[904514, 904943, 905368, 905793, 906147, 906585, 906921, 907314, 907742, 908125, 908490, 908872, 909233, 909584, 909978, 910357, 910791, 911151, 911580, 911966, 912352, 912749, 913160]","[904570, 904963, 905408, 905816, 906194, 906605, 906990, 907371, 907784, 908152, 908518, 908900, 909281, 909643, 910018, 910424, 910833, 911218, 911625, 911998, 912378, 912806, 913202]","[904246, 904646, 905047, 905446, 905845, 906247, 906645, 907046, 907340, 907769, 908152, 908518, 908900, 909259, 909612, 910005, 910385, 910818, 911178, 911607, 911993, 912378, 912777, 913186]",32,R,ITM,1.1,
5,600,trial,0,45,45,45,trial,"['S', 'S', 'S', 'S', 'S', 'S', 'S', 'S', 'S', 'C', 'C', 'C', 'C', 'C', 'C', 'C', 'C', 'C', 'C', 'C', 'C', 'C', 'C', 'C', 'C']","[918933, 919330, 919829, 920410, 920965, 921524, 922020, 922586, 923146, 924070, 924570, 925012, 925476, 925932, 926380, 926799, 927244, 927651, 928135, 928574, 929047, 929538, 930008, 930454, 930950]","[918998, 919350, 919867, 920430, 920998, 921556, 922079, 922606, 923169, 924118, 924608, 925039, 925519, 925958, 926405, 926826, 927278, 927677, 928160, 928636, 929090, 929564, 930034, 930501, 930991]","[918787, 919386, 919986, 920586, 921186, 921786, 922386, 922986, 924096, 924596, 925039, 925503, 925958, 926405, 926826, 927270, 927677, 928160, 928600, 929074, 929564, 930033, 930480, 930975]",32,R,ITM,1.1,
6,600,trial,0,46,46,46,trial,"['S', 'S', 'S', 'S', 'S', 'S', 'S', 'S', 'C', 'C', 'C', 'C', 'C', 'C', 'C', 'C', 'C', 'C', 'C', 'C', 'C', 'C', 'C', 'C']","[936457, 936837, 937286, 937893, 938484, 939106, 939727, 940375, 940968, 941622, 942195, 942775, 943370, 944012, 944546, 945137, 945753, 946306, 946949, 947520, 948091, 948642, 949274, 949889]","[936520, 936857, 937306, 937913, 938541, 939126, 939810, 940395, 941089, 941740, 942330, 942894, 943473, 944112, 944702, 945312, 945998, 946500, 947035, 947688, 948259, 948890, 949494, 950125]","[936281, 936881, 937480, 938080, 938680, 939280, 939880, 940480, 940995, 941649, 942223, 942802, 943396, 944038, 944574, 945164, 945780, 946333, 946975, 947547, 948118, 948669, 949301, 949915]",32,R,ITM,1.1,
2,400,trial,0,47,47,47,trial,"['S', 'S', 'S', 'S', 'S', 'S', 'S', 'S', 'C', 'C', 'C', 'C', 'C', 'C', 'C', 'C', 'C', 'C', 'C', 'C', 'C', 'C', 'C', 'C']","[955800, 956206, 956613, 956989, 957387, 957715, 958035, 958410, 958797, 959207, 959563, 959960, 960343, 960746, 961132, 961546, 961928, 962323, 962683, 963110, 963465, 963914, 964271, 964688]","[955843, 956226, 956651, 957040, 957409, 957754, 958096, 958453, 958857, 959254, 959599, 960014, 960396, 960800, 961168, 961587, 961988, 962358, 962743, 963137, 963540, 963966, 964341, 964742]","[955611, 956010, 956410, 956810, 957209, 957611, 958010, 958409, 958825, 959234, 959591, 959986, 960370, 960773, 961160, 961572, 961955, 962350, 962711, 963137, 963492, 963942, 964298, 964716]",32,R,ITM,1.1,
4,400,trial,0,48,48,48,trial,"['S', 'S', 'S', 'S', 'S', 'S', 'S', 'S', 'C', 'C', 'C', 'C', 'C', 'C', 'C', 'C', 'C', 'C', 'C', 'C', 'C', 'C', 'C', 'C']","[970494, 970915, 971260, 971613, 971950, 972250, 972581, 972956, 973362, 973734, 974149, 974492, 974905, 975305, 975638, 976038, 976419, 976850, 977186, 977640, 978011, 978447, 978838, 979284]","[970567, 970935, 971302, 971633, 971970, 972302, 972630, 973021, 973387, 973790, 974176, 974542, 974954, 975331, 975684, 976076, 976452, 976876, 977246, 977673, 978072, 978502, 978873, 979330]","[970296, 970696, 971097, 971496, 971896, 972296, 972696, 973096, 973387, 973760, 974175, 974518, 974930, 975331, 975665, 976064, 976446, 976876, 977212, 977666, 978036, 978472, 978864, 979310]",32,R,ITM,1.1,
5,400,trial,0,49,49,49,trial,"['S', 'S', 'S', 'S', 'S', 'S', 'S', 'S', 'C', 'C', 'C', 'C', 'C', 'C', 'C', 'C', 'C', 'C', 'C', 'C', 'C', 'C', 'C', 'C']","[984978, 985339, 985705, 986024, 986374, 986695, 987089, 987448, 987875, 988231, 988604, 989008, 989388, 989803, 990164, 990565, 990980, 991375, 991746, 992212, 992594, 992968, 993428, 993783]","[985006, 985359, 985725, 986074, 986394, 986755, 987126, 987495, 987919, 988288, 988663, 989073, 989445, 989849, 990234, 990624, 991010, 991434, 991825, 992278, 992656, 993012, 993462, 993823]","[984764, 985164, 985565, 985965, 986365, 986765, 987165, 987566, 987900, 988257, 988630, 989034, 989415, 989830, 990190, 990592, 991006, 991400, 991771, 992239, 992620, 992995, 993454, 993810]",32,R,ITM,1.1,
3,600,trial,0,50,50,50,trial,"['S', 'S', 'S', 'S', 'S', 'S', 'S', 'S', 'C', 'C', 'C', 'C', 'C', 'C', 'C', 'C', 'C', 'C', 'C', 'C', 'C', 'C', 'C', 'C']","[999683, 1000192, 1000692, 1001246, 1001817, 1002399, 1002974, 1003561, 1004142, 1004765, 1005339, 1005914, 1006460, 1007117, 1007673, 1008281, 1008833, 1009355, 1009950, 1010532, 1011058, 1011648, 1012250, 1012840]","[999735, 1000244, 1000724, 1001305, 1001872, 1002444, 1003042, 1003626, 1004222, 1004838, 1005467, 1006002, 1006571, 1007218, 1007850, 1008433, 1008956, 1009501, 1010086, 1010637, 1011203, 1011828, 1012412, 1013033]","[999493, 1000092, 1000692, 1001292, 1001892, 1002492, 1003092, 1003693, 1004168, 1004790, 1005365, 1005939, 1006486, 1007142, 1007698, 1008307, 1008860, 1009381, 1009976, 1010558, 1011084, 1011674, 1012276, 1012866]",32,R,ITM,1.1,
3,400,trial,0,51,51,51,trial,"['S', 'S', 'S', 'S', 'S', 'S', 'S', 'C', 'C', 'C', 'C', 'C', 'C', 'C', 'C', 'C', 'C', 'C', 'C', 'C', 'C', 'C', 'C']","[1018435, 1018855, 1019235, 1019589, 1020019, 1020467, 1020875, 1021279, 1021683, 1022081, 1022459, 1022867, 1023287, 1023718, 1024149, 1024553, 1024936, 1025395, 1025780, 1026192, 1026599, 1026957, 1027403]","[1018468, 1018897, 1019255, 1019656, 1020101, 1020487, 1020895, 1021325, 1021709, 1022125, 1022510, 1022920, 1023351, 1023772, 1024199, 1024618, 1025009, 1025441, 1025870, 1026269, 1026667, 1027043, 1027465]","[1018204, 1018603, 1019003, 1019403, 1019803, 1020204, 1020603, 1021003, 1021304, 1021709, 1022106, 1022485, 1022893, 1023312, 1023744, 1024175, 1024579, 1024962, 1025421, 1025806, 1026217, 1026625, 1026982, 1027429]",32,R,ITM,1.1,
6,400,trial,0,52,52,52,trial,"['S', 'S', 'S', 'S', 'S', 'S', 'S', 'S', 'C', 'C', 'C', 'C', 'C', 'C', 'C', 'C', 'C', 'C', 'C', 'C', 'C', 'C', 'C', 'C']","[1033244, 1033682, 1034050, 1034456, 1034859, 1035237, 1035638, 1036045, 1036446, 1036765, 1037172, 1037519, 1037890, 1038239, 1038645, 1038970, 1039405, 1039813, 1040214, 1040629, 1041030, 1041401, 1041869, 1042250]","[1033305, 1033702, 1034103, 1034489, 1034897, 1035296, 1035681, 1036092, 1036492, 1036843, 1037199, 1037575, 1037935, 1038303, 1038682, 1039048, 1039458, 1039856, 1040262, 1040684, 1041067, 1041464, 1041914, 1042302]","[1033050, 1033448, 1033848, 1034248, 1034648, 1035048, 1035448, 1035848, 1036473, 1036791, 1037199, 1037546, 1037917, 1038267, 1038672, 1038997, 1039432, 1039840, 1040240, 1040656, 1041057, 1041428, 1041896, 1042277]",32,R,ITM,1.1,
4,400,trial,0,53,53,53,trial,"['S', 'S', 'S', 'S', 'S', 'S', 'S', 'C', 'C', 'C', 'C', 'C', 'C', 'C', 'C', 'C', 'C', 'C', 'C', 'C', 'C', 'C', 'C']","[1048185, 1048758, 1049111, 1049670, 1049955, 1050304, 1050653, 1051064, 1051447, 1051819, 1052203, 1052597, 1052990, 1053372, 1053746, 1054163, 1054521, 1055000, 1055396, 1055784, 1056126, 1056509, 1056906]","[1048205, 1048798, 1049131, 1049713, 1050015, 1050324, 1050703, 1051089, 1051489, 1051856, 1052244, 1052658, 1053052, 1053441, 1053816, 1054210, 1054584, 1055026, 1055466, 1055839, 1056199, 1056574, 1056971]","[1047981, 1048379, 1048779, 1049180, 1049579, 1049979, 1050379, 1050779, 1051089, 1051472, 1051844, 1052228, 1052622, 1053016, 1053398, 1053771, 1054189, 1054546, 1055026, 1055422, 1055810, 1056152, 1056535, 1056932]",32,R,ITM,1.1,
2,600,trial,0,54,54,54,trial,"['S', 'S', 'S', 'S', 'S', 'S', 'S', 'S', 'C', 'C', 'C', 'C', 'C', 'C', 'C', 'C', 'C', 'C', 'C', 'C', 'C', 'C', 'C', 'C']","[1064458, 1064735, 1065199, 1065806, 1066358, 1067027, 1067598, 1068270, 1068865, 1069495, 1070081, 1070641, 1071232, 1071805, 1072368, 1072909, 1073491, 1074060, 1074607, 1075178, 1075704, 1076280, 1076785, 1077376]","[1064521, 1064787, 1065254, 1065865, 1066436, 1067094, 1067685, 1068338, 1068987, 1069589, 1070192, 1070750, 1071337, 1071891, 1072441, 1073020, 1073565, 1074154, 1074688, 1075251, 1075789, 1076362, 1076867, 1077434]","[1064227, 1064827, 1065427, 1066028, 1066628, 1067228, 1067827, 1068428, 1068892, 1069521, 1070108, 1070668, 1071258, 1071832, 1072396, 1072936, 1073518, 1074087, 1074633, 1075205, 1075732, 1076307, 1076812, 1077402]",32,R,ITM,1.1,
3,400,trial,0,55,55,55,trial,"['S', 'S', 'S', 'S', 'S', 'S', 'S', 'C', 'C', 'C', 'C', 'C', 'C', 'C', 'C', 'C', 'C', 'C', 'C', 'C', 'C', 'C', 'C']","[1083075, 1083488, 1083890, 1084313, 1084725, 1085164, 1085626, 1085997, 1086455, 1086832, 1087259, 1087606, 1088024, 1088449, 1088847, 1089219, 1089651, 1090076, 1090507, 1090929, 1091338, 1091719, 1092168]","[1083098, 1083517, 1083951, 1084361, 1084772, 1085227, 1085659, 1086063, 1086511, 1086915, 1087324, 1087683, 1088081, 1088510, 1088905, 1089293, 1089744, 1090158, 1090570, 1090981, 1091396, 1091782, 1092220]","[1082896, 1083296, 1083697, 1084096, 1084496, 1084896, 1085296, 1085697, 1086022, 1086481, 1086858, 1087285, 1087632, 1088050, 1088475, 1088873, 1089245, 1089677, 1090102, 1090533, 1090955, 1091363, 1091744, 1092194]",32,R,ITM,1.1,
7,600,trial,0,56,56,56,trial,"['S', 'S', 'S', 'S', 'S', 'S', 'S', 'S', 'C', 'C', 'C', 'C', 'C', 'C', 'C', 'C', 'C', 'C', 'C', 'C', 'C', 'C', 'C', 'C']","[1097735, 1098254, 1098715, 1099227, 1099793, 1100315, 1100914, 1101530, 1102092, 1102704, 1103287, 1103828, 1104398, 1104960, 1105490, 1106042, 1106616, 1107175, 1107729, 1108356, 1108878, 1109451, 1109955, 1110522]","[1097796, 1098275, 1098760, 1099285, 1099851, 1100376, 1100993, 1101577, 1102144, 1102767, 1103314, 1103898, 1104477, 1105011, 1105563, 1106110, 1106683, 1107245, 1107812, 1108413, 1108950, 1109515, 1110021, 1110572]","[1097501, 1098100, 1098700, 1099300, 1099900, 1100500, 1101101, 1101701, 1102118, 1102732, 1103314, 1103856, 1104425, 1104987, 1105518, 1106070, 1106642, 1107203, 1107756, 1108383, 1108904, 1109479, 1109983, 1110550]",32,R,ITM,1.1,
4,600,trial,0,57,57,57,trial,"['S', 'S', 'S', 'S', 'S', 'S', 'S', 'S', 'C', 'C', 'C', 'C', 'C', 'C', 'C', 'C', 'C', 'C', 'C', 'C', 'C', 'C', 'C', 'C']","[1116155, 1116613, 1117154, 1117735, 1118304, 1118896, 1119466, 1120013, 1120598, 1121163, 1121656, 1122237, 1122742, 1123287, 1123830, 1124422, 1124957, 1125528, 1126022, 1126584, 1127088, 1127644, 1128222, 1128748]","[1116197, 1116633, 1117213, 1117789, 1118347, 1118935, 1119516, 1120080, 1120671, 1121219, 1121726, 1122275, 1122824, 1123353, 1123909, 1124499, 1125058, 1125587, 1126096, 1126646, 1127166, 1127717, 1128288, 1128812]","[1116006, 1116606, 1117206, 1117806, 1118406, 1119006, 1119606, 1120206, 1120624, 1121188, 1121682, 1122263, 1122767, 1123312, 1123856, 1124448, 1124983, 1125554, 1126047, 1126609, 1127113, 1127669, 1128248, 1128773]",32,R,ITM,1.1,
3,400,trial,0,58,58,58,trial,"['S', 'S', 'S', 'S', 'S', 'S', 'S', 'S', 'C', 'C', 'C', 'C', 'C', 'C', 'C', 'C', 'C', 'C', 'C', 'C', 'C', 'C', 'C', 'C']","[1134234, 1134626, 1134963, 1135326, 1135681, 1136047, 1136483, 1136911, 1137296, 1137735, 1138124, 1138541, 1138918, 1139360, 1139762, 1140177, 1140571, 1141029, 1141497, 1141946, 1142328, 1142797, 1143163, 1143581]","[1134287, 1134649, 1135009, 1135365, 1135718, 1136102, 1136523, 1136957, 1137340, 1137761, 1138167, 1138582, 1138968, 1139386, 1139806, 1140221, 1140640, 1141068, 1141523, 1141971, 1142375, 1142822, 1143225, 1143649]","[1134081, 1134480, 1134880, 1135281, 1135680, 1136080, 1136480, 1136880, 1137321, 1137761, 1138150, 1138567, 1138944, 1139386, 1139787, 1140203, 1140596, 1141055, 1141523, 1141971, 1142353, 1142822, 1143189, 1143607]",32,R,ITM,1.1,
5,400,trial,0,59,59,59,trial,"['S', 'S', 'S', 'S', 'S', 'S', 'S', 'C', 'C', 'C', 'C', 'C', 'C', 'C', 'C', 'C', 'C', 'C', 'C', 'C', 'C', 'C', 'C']","[1149120, 1149639, 1150103, 1150502, 1150923, 1151347, 1151737, 1152145, 1152504, 1152924, 1153314, 1153769, 1154169, 1154628, 1155026, 1155496, 1155912, 1156320, 1156777, 1157201, 1157666, 1158067, 1158465]","[1149164, 1149685, 1150123, 1150522, 1150943, 1151390, 1151775, 1152171, 1152542, 1152971, 1153369, 1153815, 1154207, 1154663, 1155075, 1155566, 1155964, 1156393, 1156816, 1157246, 1157700, 1158110, 1158512]","[1148938, 1149337, 1149737, 1150137, 1150537, 1150938, 1151337, 1151737, 1152171, 1152530, 1152950, 1153340, 1153795, 1154195, 1154654, 1155053, 1155523, 1155938, 1156345, 1156803, 1157227, 1157692, 1158092, 1158491]",32,R,ITM,1.1,
6,600,trial,0,60,60,60,trial,"['S', 'S', 'S', 'S', 'S', 'S', 'S', 'S', 'C', 'C', 'C', 'C', 'C', 'C', 'C', 'C', 'C', 'C', 'C', 'C', 'C', 'C', 'C', 'C']","[1164164, 1164605, 1165107, 1165694, 1166256, 1166802, 1167354, 1168008, 1168587, 1169222, 1169752, 1170331, 1170891, 1171586, 1172232, 1172806, 1173450, 1173991, 1174716, 1175351, 1176085, 1176712, 1177467, 1178135]","[1164226, 1164664, 1165147, 1165751, 1166317, 1166860, 1167416, 1168053, 1168664, 1169288, 1169823, 1170398, 1170973, 1171638, 1172306, 1172890, 1173551, 1174160, 1174863, 1175523, 1176232, 1176902, 1177663, 1178298]","[1164005, 1164604, 1165204, 1165804, 1166404, 1167004, 1167604, 1168204, 1168615, 1169249, 1169778, 1170358, 1170918, 1171612, 1172258, 1172834, 1173477, 1174018, 1174744, 1175377, 1176112, 1176738, 1177495, 1178163]",32,R,ITM,1.1,
2,400,trial,0,61,61,61,trial,"['S', 'S', 'S', 'S', 'S', 'S', 'S', 'S', 'C', 'C', 'C', 'C', 'C', 'C', 'C', 'C', 'C', 'C', 'C', 'C', 'C', 'C', 'C', 'C']","[1183718, 1184160, 1184466, 1184804, 1185173, 1185561, 1185940, 1186378, 1186779, 1187190, 1187565, 1187919, 1188352, 1188717, 1189108, 1189524, 1189915, 1190336, 1190740, 1191126, 1191494, 1191912, 1192368, 1192778]","[1183788, 1184184, 1184507, 1184860, 1185218, 1185603, 1186003, 1186430, 1186841, 1187235, 1187613, 1187976, 1188385, 1188781, 1189135, 1189575, 1189993, 1190408, 1190793, 1191181, 1191559, 1191988, 1192394, 1192837]","[1183660, 1184059, 1184458, 1184860, 1185259, 1185659, 1186059, 1186459, 1186805, 1187217, 1187593, 1187946, 1188379, 1188744, 1189135, 1189552, 1189942, 1190364, 1190768, 1191153, 1191521, 1191939, 1192394, 1192805]",32,R,ITM,1.1,
5,600,trial,0,62,62,62,trial,"['S', 'S', 'S', 'S', 'S', 'S', 'S', 'S', 'C', 'C', 'C', 'C', 'C', 'C', 'C', 'C', 'C', 'C', 'C', 'C', 'C', 'C', 'C', 'C']","[1198471, 1198842, 1199388, 1199971, 1200549, 1201157, 1201702, 1202285, 1202793, 1203311, 1203829, 1204348, 1204894, 1205489, 1206003, 1206517, 1207007, 1207553, 1208010, 1208529, 1208984, 1209545, 1210027, 1210541]","[1198533, 1198892, 1199449, 1199995, 1200583, 1201199, 1201738, 1202323, 1202831, 1203347, 1203879, 1204421, 1204982, 1205535, 1206061, 1206579, 1207033, 1207578, 1208085, 1208556, 1209074, 1209614, 1210079, 1210572]","[1198323, 1198922, 1199522, 1200122, 1200722, 1201323, 1201923, 1202523, 1202819, 1203338, 1203855, 1204374, 1204920, 1205515, 1206030, 1206543, 1207033, 1207578, 1208036, 1208556, 1209010, 1209571, 1210052, 1210566]",32,R,ITM,1.1,
7,400,trial,0,63,63,63,trial,"['S', 'S', 'S', 'S', 'S', 'S', 'S', 'S', 'C', 'C', 'C', 'C', 'C', 'C', 'C', 'C', 'C', 'C', 'C', 'C', 'C', 'C', 'C', 'C']","[1216394, 1216745, 1217130, 1217489, 1217807, 1218201, 1218522, 1218842, 1219198, 1219571, 1219956, 1220332, 1220687, 1221081, 1221414, 1221821, 1222210, 1222614, 1223080, 1223404, 1223814, 1224163, 1224602, 1225026]","[1216490, 1216793, 1217189, 1217544, 1217852, 1218232, 1218569, 1218891, 1219239, 1219627, 1220004, 1220385, 1220748, 1221129, 1221472, 1221859, 1222261, 1222659, 1223122, 1223457, 1223840, 1224211, 1224646, 1225065]","[1216043, 1216442, 1216842, 1217243, 1217642, 1218042, 1218442, 1218842, 1219226, 1219599, 1219983, 1220359, 1220715, 1221108, 1221442, 1221848, 1222237, 1222641, 1223108, 1223432, 1223840, 1224190, 1224630, 1225053]",32,R,ITM,1.1,
2,400,trial,0,64,64,64,trial,"['S', 'S', 'S', 'S', 'S', 'S', 'S', 'S', 'S', 'C', 'C', 'C', 'C', 'C', 'C', 'C', 'C', 'C', 'C', 'C', 'C', 'C', 'C', 'C', 'C']","[1230980, 1231325, 1231640, 1232087, 1232395, 1232749, 1233060, 1233381, 1233713, 1233955, 1234289, 1234659, 1234989, 1235394, 1235748, 1236148, 1236490, 1236920, 1237320, 1237698, 1238128, 1238484, 1238847, 1239263, 1239691]","[1231023, 1231364, 1231684, 1232122, 1232449, 1232800, 1233127, 1233446, 1233774, 1234018, 1234353, 1234708, 1235099, 1235469, 1235819, 1236236, 1236587, 1236986, 1237374, 1237749, 1238175, 1238547, 1238912, 1239332, 1239744]","[1230747, 1231148, 1231547, 1231946, 1232347, 1232747, 1233147, 1233547, 1233982, 1234317, 1234686, 1235015, 1235421, 1235775, 1236174, 1236517, 1236946, 1237348, 1237725, 1238155, 1238512, 1238874, 1239289, 1239718]",32,R,ITM,1.1,
5,600,trial,0,65,65,65,trial,"['S', 'S', 'S', 'S', 'S', 'S', 'S', 'S', 'C', 'C', 'C', 'C', 'C', 'C', 'C', 'C', 'C', 'C', 'C', 'C', 'C', 'C', 'C', 'C']","[1245684, 1246117, 1246574, 1247178, 1247763, 1248365, 1248925, 1249438, 1250017, 1250583, 1251081, 1251605, 1252190, 1252734, 1253296, 1253875, 1254416, 1254934, 1255406, 1255921, 1256467, 1257007, 1257567, 1258115]","[1245730, 1246138, 1246612, 1247244, 1247817, 1248416, 1248969, 1249504, 1250081, 1250660, 1251155, 1251694, 1252265, 1252822, 1253370, 1253953, 1254522, 1255012, 1255500, 1256002, 1256529, 1257119, 1257628, 1258198]","[1245503, 1246102, 1246702, 1247302, 1247902, 1248502, 1249102, 1249702, 1250043, 1250609, 1251106, 1251631, 1252215, 1252760, 1253321, 1253902, 1254441, 1254960, 1255432, 1255947, 1256493, 1257032, 1257592, 1258141]",32,R,ITM,1.1,
2,600,trial,0,66,66,66,trial,"['S', 'S', 'S', 'S', 'S', 'S', 'S', 'S', 'C', 'C', 'C', 'C', 'C', 'C', 'C', 'C', 'C', 'C', 'C', 'C', 'C', 'C', 'C', 'C']","[1263655, 1264242, 1264782, 1265265, 1265780, 1266342, 1266896, 1267489, 1268077, 1268622, 1269126, 1269638, 1270157, 1270660, 1271150, 1271736, 1272335, 1272881, 1273487, 1274000, 1274594, 1275167, 1275728, 1276274]","[1263714, 1264263, 1264841, 1265308, 1265800, 1266381, 1266949, 1267538, 1268112, 1268692, 1269202, 1269693, 1270244, 1270758, 1271239, 1271814, 1272418, 1272968, 1273597, 1274105, 1274680, 1275268, 1275856, 1276418]","[1263430, 1264030, 1264630, 1265229, 1265829, 1266429, 1267031, 1267631, 1268104, 1268649, 1269153, 1269664, 1270184, 1270686, 1271178, 1271763, 1272363, 1272907, 1273513, 1274028, 1274621, 1275195, 1275755, 1276301]",32,R,ITM,1.1,
4,400,trial,0,67,67,67,trial,"['S', 'S', 'S', 'S', 'S', 'S', 'S', 'C', 'C', 'C', 'C', 'C', 'C', 'C', 'C', 'C', 'C', 'C', 'C', 'C', 'C', 'C', 'C']","[1282197, 1282585, 1283012, 1283459, 1283873, 1284246, 1284713, 1285102, 1285525, 1285945, 1286351, 1286744, 1287147, 1287568, 1287985, 1288365, 1288768, 1289216, 1289622, 1289984, 1290361, 1290768, 1291168]","[1282229, 1282605, 1283064, 1283504, 1283905, 1284267, 1284756, 1285168, 1285551, 1285970, 1286377, 1286789, 1287202, 1287613, 1288029, 1288404, 1288821, 1289260, 1289670, 1290050, 1290407, 1290819, 1291209]","[1281945, 1282344, 1282744, 1283144, 1283545, 1283944, 1284344, 1284744, 1285128, 1285551, 1285970, 1286377, 1286769, 1287173, 1287595, 1288010, 1288390, 1288794, 1289241, 1289649, 1290009, 1290387, 1290793, 1291194]",32,R,ITM,1.1,
7,400,trial,0,68,68,68,trial,"['S', 'S', 'S', 'S', 'S', 'S', 'S', 'S', 'C', 'C', 'C', 'C', 'C', 'C', 'C', 'C', 'C', 'C', 'C', 'C', 'C', 'C', 'C', 'C']","[1296930, 1297300, 1297606, 1297947, 1298265, 1298619, 1299043, 1299414, 1299792, 1300203, 1300562, 1300938, 1301291, 1301691, 1302066, 1302429, 1302818, 1303199, 1303577, 1303954, 1304367, 1304729, 1305154, 1305489]","[1296979, 1297332, 1297644, 1297968, 1298300, 1298670, 1299063, 1299466, 1299838, 1300243, 1300590, 1301002, 1301332, 1301731, 1302112, 1302457, 1302855, 1303240, 1303617, 1303994, 1304393, 1304775, 1305182, 1305544]","[1296698, 1297097, 1297498, 1297897, 1298297, 1298697, 1299097, 1299497, 1299820, 1300231, 1300589, 1300966, 1301318, 1301719, 1302093, 1302457, 1302846, 1303226, 1303605, 1303982, 1304393, 1304757, 1305182, 1305517]",32,R,ITM,1.1,
6,600,trial,0,69,69,69,trial,"['S', 'S', 'S', 'S', 'S', 'S', 'S', 'S', 'S', 'C', 'C', 'C', 'C', 'C', 'C', 'C', 'C', 'C', 'C', 'C', 'C', 'C', 'C', 'C', 'C']","[1311041, 1311360, 1311709, 1312097, 1312540, 1313062, 1313673, 1314243, 1314839, 1315385, 1315938, 1316466, 1317029, 1317562, 1318095, 1318592, 1319095, 1319633, 1320244, 1320768, 1321340, 1321866, 1322420, 1322950, 1323513]","[1311076, 1311380, 1311729, 1312117, 1312560, 1313082, 1313720, 1314302, 1314897, 1315457, 1315979, 1316502, 1317065, 1317602, 1318132, 1318653, 1319160, 1319705, 1320296, 1320848, 1321417, 1321933, 1322468, 1323019, 1323589]","[1310868, 1311468, 1312068, 1312668, 1313268, 1313868, 1314468, 1315068, 1315411, 1315964, 1316493, 1317056, 1317588, 1318122, 1318620, 1319121, 1319660, 1320270, 1320795, 1321367, 1321893, 1322446, 1322977, 1323540]",32,R,ITM,1.1,
3,600,trial,0,70,70,70,trial,"['S', 'S', 'S', 'S', 'S', 'S', 'S', 'C', 'C', 'C', 'C', 'C', 'C', 'C', 'C', 'C', 'C', 'C', 'C', 'C', 'C', 'C', 'C']","[1329559, 1330127, 1330709, 1331256, 1331873, 1332408, 1333028, 1333579, 1334123, 1334628, 1335218, 1335768, 1336346, 1336868, 1337445, 1338002, 1338605, 1339152, 1339683, 1340200, 1340777, 1341300, 1341854]","[1329606, 1330173, 1330761, 1331299, 1331917, 1332465, 1333096, 1333637, 1334179, 1334675, 1335262, 1335826, 1336390, 1336925, 1337521, 1338072, 1338716, 1339228, 1339723, 1340226, 1340815, 1341344, 1341914]","[1329077, 1329676, 1330276, 1330876, 1331476, 1332076, 1332676, 1333276, 1333605, 1334149, 1334653, 1335243, 1335793, 1336372, 1336895, 1337470, 1338028, 1338631, 1339177, 1339709, 1340226, 1340803, 1341326, 1341880]",32,R,ITM,1.1,
6,400,trial,0,71,71,71,trial,"['B', 'S', 'S', 'S', 'S', 'S', 'S', 'S', 'S', 'S', 'C', 'C', 'C', 'C', 'C', 'C', 'C', 'C', 'C', 'C', 'C', 'C', 'C', 'C', 'C', 'C', 'C']","[1347200, 1347483, 1347838, 1348227, 1348534, 1348879, 1349163, 1349521, 1349872, 1350248, 1350606, 1350870, 1351159, 1351429, 1351713, 1352033, 1352390, 1352767, 1353156, 1353560, 1353947, 1354371, 1354737, 1355124, 1355471, 1355834, 1356155]","[1347357, 1347522, 1347885, 1348263, 1348585, 1348919, 1349213, 1349550, 1349907, 1350304, 1350651, 1350924, 1351216, 1351489, 1351759, 1352095, 1352435, 1352822, 1353202, 1353605, 1354002, 1354415, 1354777, 1355175, 1355507, 1355865, 1356223]","[1347213, 1347612, 1348013, 1348412, 1348812, 1349213, 1349612, 1350012, 1350633, 1351186, 1351455, 1351741, 1352060, 1352417, 1352794, 1353183, 1353586, 1353974, 1354397, 1354765, 1355151, 1355498, 1355862, 1356182]",32,R,ITM,1.1,
3,600,trial,0,72,72,72,trial,"['S', 'S', 'S', 'S', 'S', 'S', 'S', 'S', 'C', 'C', 'C', 'C', 'C', 'C', 'C', 'C', 'C', 'C', 'C', 'C', 'C', 'C', 'C', 'C']","[1361777, 1362296, 1362741, 1363253, 1363838, 1364434, 1364993, 1365588, 1366151, 1366751, 1367259, 1367789, 1368329, 1368855, 1369359, 1369893, 1370385, 1370911, 1371476, 1371985, 1372515, 1373094, 1373611, 1374087]","[1361810, 1362330, 1362791, 1363293, 1363858, 1364454, 1365050, 1365630, 1366185, 1366776, 1367325, 1367832, 1368382, 1368912, 1369423, 1369961, 1370447, 1370963, 1371515, 1372065, 1372581, 1373154, 1373672, 1374160]","[1361532, 1362131, 1362732, 1363332, 1363932, 1364531, 1365131, 1365731, 1366176, 1366776, 1367284, 1367815, 1368354, 1368881, 1369384, 1369919, 1370411, 1370937, 1371501, 1372011, 1372540, 1373120, 1373636, 1374112]",32,R,ITM,1.1,
6,400,trial,0,73,73,73,trial,"['S', 'S', 'S', 'S', 'S', 'S', 'S', 'C', 'C', 'C', 'C', 'C', 'C', 'C', 'C', 'C', 'C', 'C', 'C', 'C', 'C', 'C', 'C']","[1380272, 1380601, 1381042, 1381434, 1381785, 1382254, 1382614, 1383024, 1383434, 1383838, 1384237, 1384652, 1385085, 1385546, 1385894, 1386334, 1386716, 1387162, 1387547, 1387923, 1388387, 1388723, 1389158]","[1380292, 1380654, 1381078, 1381454, 1381805, 1382274, 1382672, 1383067, 1383483, 1383880, 1384293, 1384698, 1385147, 1385574, 1385962, 1386360, 1386752, 1387189, 1387584, 1387967, 1388414, 1388804, 1389195]","[1379854, 1380253, 1380654, 1381053, 1381453, 1381854, 1382254, 1382654, 1383051, 1383460, 1383865, 1384263, 1384680, 1385113, 1385574, 1385921, 1386360, 1386742, 1387189, 1387575, 1387951, 1388413, 1388749, 1389185]",32,R,ITM,1.1,
7,600,trial,0,74,74,74,trial,"['S', 'S', 'S', 'S', 'S', 'S', 'S', 'S', 'C', 'C', 'C', 'C', 'C', 'C', 'C', 'C', 'C', 'C', 'C', 'C', 'C', 'C', 'C', 'C']","[1394797, 1395234, 1395783, 1396344, 1396938, 1397521, 1398115, 1398769, 1399415, 1400000, 1400676, 1401179, 1401767, 1402298, 1402796, 1403375, 1403925, 1404489, 1405088, 1405706, 1406230, 1406811, 1407431, 1408018]","[1394850, 1395269, 1395803, 1396364, 1396958, 1397563, 1398170, 1398810, 1399456, 1400080, 1400722, 1401226, 1401825, 1402407, 1402966, 1403529, 1404083, 1404676, 1405261, 1405793, 1406394, 1406984, 1407623, 1408169]","[1394633, 1395232, 1395832, 1396432, 1397032, 1397633, 1398233, 1398833, 1399443, 1400028, 1400702, 1401206, 1401795, 1402326, 1402823, 1403403, 1403952, 1404516, 1405115, 1405732, 1406257, 1406838, 1407459, 1408045]",32,R,ITM,1.1,
4,400,trial,0,75,75,75,trial,"['S', 'S', 'S', 'S', 'S', 'S', 'S', 'S', 'S', 'C', 'C', 'C', 'C', 'C', 'C', 'C', 'C', 'C', 'C', 'C', 'C', 'C', 'C', 'C', 'C']","[1413841, 1414253, 1414645, 1415009, 1415317, 1415630, 1415917, 1416308, 1416630, 1416987, 1417271, 1417652, 1417999, 1418391, 1418776, 1419196, 1419573, 1419968, 1420366, 1420777, 1421193, 1421601, 1422018, 1422410, 1422816]","[1413861, 1414292, 1414666, 1415029, 1415357, 1415652, 1415975, 1416328, 1416650, 1417034, 1417332, 1417692, 1418055, 1418438, 1418817, 1419257, 1419624, 1420029, 1420443, 1420848, 1421243, 1421668, 1422085, 1422486, 1422898]","[1413651, 1414051, 1414451, 1414851, 1415251, 1415651, 1416051, 1416452, 1417013, 1417296, 1417677, 1418024, 1418417, 1418802, 1419222, 1419598, 1419994, 1420393, 1420803, 1421218, 1421627, 1422044, 1422436, 1422841]",32,R,ITM,1.1,
4,600,trial,0,76,76,76,trial,"['S', 'S', 'S', 'S', 'S', 'S', 'S', 'S', 'C', 'C', 'C', 'C', 'C', 'C', 'C', 'C', 'C', 'C', 'C', 'C', 'C', 'C', 'C', 'C']","[1428333, 1428721, 1429260, 1430017, 1430500, 1431018, 1431580, 1432170, 1432757, 1433293, 1433795, 1434329, 1434857, 1435368, 1435858, 1436457, 1437002, 1437540, 1438058, 1438592, 1439142, 1439669, 1440185, 1440711]","[1428376, 1428763, 1429289, 1430040, 1430546, 1431038, 1431601, 1432203, 1432783, 1433319, 1433850, 1434398, 1434911, 1435418, 1435932, 1436506, 1437029, 1437586, 1438117, 1438637, 1439168, 1439694, 1440216, 1440737]","[1428147, 1428746, 1429346, 1429946, 1430546, 1431146, 1431746, 1432346, 1432782, 1433319, 1433821, 1434354, 1434883, 1435394, 1435884, 1436483, 1437029, 1437565, 1438084, 1438617, 1439168, 1439694, 1440210, 1440737]",32,R,ITM,1.1,
5,400,trial,0,77,77,77,trial,"['S', 'S', 'S', 'S', 'S', 'S', 'S', 'S', 'S', 'C', 'C', 'C', 'C', 'C', 'C', 'C', 'C', 'C', 'C', 'C', 'C', 'C', 'C', 'C', 'C']","[1446617, 1446950, 1447315, 1447580, 1447937, 1448276, 1448644, 1449032, 1449432, 1449732, 1450117, 1450474, 1450881, 1451296, 1451706, 1452062, 1452484, 1452903, 1453216, 1453674, 1454076, 1454493, 1454912, 1455340, 1455697]","[1446644, 1446970, 1447335, 1447600, 1447957, 1448296, 1448664, 1449052, 1449452, 1449786, 1450162, 1450518, 1450928, 1451347, 1451753, 1452125, 1452511, 1452942, 1453330, 1453730, 1454158, 1454519, 1454980, 1455408, 1455749]","[1446429, 1446829, 1447228, 1447628, 1448029, 1448429, 1448829, 1449229, 1449757, 1450142, 1450500, 1450906, 1451322, 1451731, 1452088, 1452511, 1452930, 1453242, 1453701, 1454102, 1454519, 1454938, 1455366, 1455724]",32,R,ITM,1.1,
4,600,trial,0,78,78,78,trial,"['S', 'S', 'S', 'S', 'S', 'S', 'S', 'S', 'S', 'C', 'C', 'C', 'C', 'C', 'C', 'C', 'C', 'C', 'C', 'C', 'C', 'C', 'C', 'C', 'C']","[1461704, 1462152, 1462589, 1463113, 1463635, 1464154, 1464690, 1465128, 1465614, 1466099, 1466559, 1467081, 1467639, 1468124, 1468649, 1469149, 1469683, 1470164, 1470700, 1471197, 1471708, 1472168, 1472750, 1473223, 1473745]","[1461746, 1462172, 1462641, 1463162, 1463671, 1464194, 1464727, 1465203, 1465659, 1466156, 1466616, 1467148, 1467713, 1468177, 1468705, 1469215, 1469749, 1470234, 1470742, 1471249, 1471733, 1472233, 1472826, 1473296, 1473792]","[1461506, 1462105, 1462705, 1463304, 1463904, 1464504, 1465104, 1465704, 1466125, 1466585, 1467107, 1467665, 1468149, 1468676, 1469174, 1469709, 1470189, 1470727, 1471223, 1471733, 1472195, 1472776, 1473249, 1473771]",32,R,ITM,1.1,
5,400,trial,0,79,79,79,trial,"['S', 'S', 'S', 'S', 'S', 'S', 'S', 'S', 'S', 'C', 'C', 'C', 'C', 'C', 'C', 'C', 'C', 'C', 'C', 'C', 'C', 'C', 'C', 'C', 'C', 'C']","[1479776, 1480064, 1480376, 1480685, 1481058, 1481433, 1481823, 1482176, 1482547, 1482932, 1483180, 1483593, 1483985, 1484344, 1484681, 1485037, 1485433, 1485841, 1486221, 1486590, 1486990, 1487338, 1487725, 1488100, 1488508, 1488861]","[1479808, 1480117, 1480419, 1480743, 1481110, 1481483, 1481874, 1482216, 1482596, 1482967, 1483237, 1483642, 1484024, 1484369, 1484742, 1485099, 1485475, 1485882, 1486290, 1486641, 1487038, 1487388, 1487787, 1488145, 1488543, 1488910]","[1479524, 1479923, 1480324, 1480723, 1481123, 1481523, 1481923, 1482323, 1482957, 1483619, 1484011, 1484369, 1484706, 1485063, 1485459, 1485868, 1486246, 1486616, 1487015, 1487364, 1487751, 1488125, 1488535, 1488886]",32,R,ITM,1.1,
6,400,trial,0,80,80,80,trial,"['S', 'S', 'S', 'S', 'S', 'S', 'S', 'S', 'C', 'C', 'C', 'C', 'C', 'C', 'C', 'C', 'C', 'C', 'C', 'C', 'C', 'C', 'C', 'C']","[1494772, 1495093, 1495443, 1495772, 1496142, 1496559, 1496918, 1497353, 1497749, 1498167, 1498569, 1498950, 1499312, 1499731, 1500121, 1500498, 1500914, 1501302, 1501749, 1502149, 1502518, 1502832, 1503199, 1503504]","[1494815, 1495137, 1495479, 1495818, 1496192, 1496592, 1496976, 1497394, 1497795, 1498193, 1498597, 1498998, 1499376, 1499790, 1500181, 1500554, 1500960, 1501376, 1501803, 1502190, 1502564, 1502902, 1503256, 1503587]","[1494605, 1495005, 1495404, 1495804, 1496204, 1496604, 1497005, 1497404, 1497776, 1498193, 1498597, 1498977, 1499338, 1499758, 1500147, 1500525, 1500942, 1501329, 1501776, 1502176, 1502545, 1502859, 1503225, 1503532]",32,R,ITM,1.1,
4,600,trial,0,81,81,81,trial,"['S', 'S', 'S', 'S', 'S', 'S', 'S', 'S', 'S', 'S', 'C', 'C', 'C', 'C', 'C', 'C', 'C', 'C', 'C', 'C', 'C', 'C', 'C', 'C', 'C', 'C']","[1509521, 1509856, 1510225, 1510654, 1510973, 1511480, 1512043, 1512605, 1513133, 1513602, 1514152, 1514621, 1515101, 1515606, 1516059, 1516509, 1516993, 1517407, 1517921, 1518443, 1518907, 1519430, 1519864, 1520462, 1520958, 1521451]","[1509572, 1509895, 1510245, 1510674, 1510993, 1511500, 1512064, 1512625, 1513165, 1513669, 1514208, 1514686, 1515145, 1515657, 1516099, 1516592, 1517049, 1517500, 1517979, 1518486, 1518950, 1519489, 1519932, 1520488, 1520984, 1521525]","[1509223, 1509823, 1510423, 1511023, 1511623, 1512223, 1512823, 1513423, 1514179, 1514648, 1515127, 1515631, 1516085, 1516534, 1517020, 1517432, 1517947, 1518470, 1518932, 1519456, 1519890, 1520488, 1520984, 1521476]",32,R,ITM,1.1,
3,600,trial,0,82,82,82,trial,"['S', 'S', 'S', 'S', 'S', 'S', 'S', 'S', 'S', 'C', 'C', 'C', 'C', 'C', 'C', 'C', 'C', 'C', 'C', 'C', 'C', 'C', 'C', 'C', 'C']","[1527122, 1527425, 1527993, 1528552, 1529078, 1529628, 1530211, 1530797, 1531276, 1531718, 1532273, 1532812, 1533399, 1533954, 1534515, 1535063, 1535625, 1536237, 1536857, 1537466, 1538484, 1539116, 1539621, 1540171, 1540724]","[1527188, 1527465, 1528032, 1528592, 1529098, 1529680, 1530231, 1530825, 1531296, 1531745, 1532316, 1532896, 1533495, 1534046, 1534592, 1535143, 1535669, 1536311, 1536912, 1537491, 1538527, 1539161, 1539701, 1540220, 1540789]","[1526973, 1527573, 1528173, 1528773, 1529373, 1529973, 1530573, 1531173, 1531744, 1532299, 1532837, 1533424, 1533979, 1534540, 1535088, 1535650, 1536263, 1536882, 1537491, 1538509, 1539141, 1539647, 1540197, 1540750]",32,R,ITM,1.1,
2,600,trial,0,83,83,83,trial,"['S', 'S', 'S', 'S', 'S', 'S', 'S', 'S', 'C', 'C', 'C', 'C', 'C', 'C', 'C', 'C', 'C', 'C', 'C', 'C', 'C', 'C', 'C', 'C']","[1546386, 1546791, 1547259, 1547772, 1548310, 1548898, 1549551, 1550128, 1550695, 1551260, 1551789, 1552346, 1552959, 1553512, 1554081, 1554607, 1555135, 1555766, 1556342, 1556895, 1557458, 1558021, 1558590, 1559129]","[1546406, 1546826, 1547299, 1547803, 1548362, 1548955, 1549571, 1550189, 1550773, 1551335, 1551877, 1552435, 1553038, 1553625, 1554213, 1554732, 1555251, 1555845, 1556471, 1557080, 1557582, 1558183, 1558762, 1559262]","[1546168, 1546768, 1547368, 1547967, 1548568, 1549168, 1549768, 1550368, 1550722, 1551288, 1551815, 1552373, 1552987, 1553540, 1554108, 1554633, 1555162, 1555792, 1556369, 1556922, 1557486, 1558048, 1558618, 1559156]",32,R,ITM,1.1,
2,400,trial,0,84,84,84,trial,"['S', 'S', 'S', 'S', 'S', 'S', 'S', 'S', 'C', 'C', 'C', 'C', 'C', 'C', 'C', 'C', 'C', 'C', 'C', 'C', 'C', 'C', 'C', 'C']","[1564690, 1565172, 1565503, 1565880, 1566220, 1566545, 1566909, 1567266, 1567676, 1568077, 1568498, 1568884, 1569309, 1569707, 1570108, 1570513, 1570906, 1571359, 1571734, 1572150, 1572571, 1572946, 1573355, 1573770]","[1564737, 1565192, 1565553, 1565923, 1566264, 1566581, 1566958, 1567316, 1567717, 1568133, 1568534, 1568943, 1569353, 1569771, 1570172, 1570572, 1570947, 1571411, 1571788, 1572215, 1572622, 1572999, 1573419, 1573851]","[1564546, 1564945, 1565345, 1565746, 1566145, 1566544, 1566944, 1567345, 1567704, 1568105, 1568525, 1568911, 1569336, 1569733, 1570136, 1570540, 1570933, 1571387, 1571761, 1572176, 1572597, 1572974, 1573383, 1573797]",32,R,ITM,1.1,
7,400,trial,0,85,85,85,trial,"['S', 'S', 'S', 'S', 'S', 'S', 'S', 'S', 'C', 'C', 'C', 'C', 'C', 'C', 'C', 'C', 'C', 'C', 'C', 'C', 'C', 'C', 'C', 'C']","[1579814, 1580197, 1580571, 1580959, 1581260, 1581604, 1581911, 1582298, 1582682, 1583064, 1583444, 1583795, 1584200, 1584578, 1584954, 1585347, 1585729, 1586117, 1586513, 1586878, 1587312, 1587721, 1588120, 1588445]","[1579848, 1580247, 1580596, 1581017, 1581313, 1581643, 1581964, 1582337, 1582727, 1583121, 1583496, 1583843, 1584261, 1584630, 1585005, 1585389, 1585796, 1586161, 1586553, 1586926, 1587340, 1587748, 1588147, 1588523]","[1579561, 1579960, 1580360, 1580761, 1581160, 1581560, 1581960, 1582360, 1582709, 1583090, 1583471, 1583822, 1584227, 1584605, 1584980, 1585374, 1585757, 1586144, 1586540, 1586905, 1587339, 1587748, 1588147, 1588472]",32,R,ITM,1.1,
5,400,trial,0,86,86,86,trial,"['S', 'S', 'S', 'S', 'S', 'S', 'S', 'S', 'S', 'C', 'C', 'C', 'C', 'C', 'C', 'C', 'C', 'C', 'C', 'C', 'C', 'C', 'C', 'C', 'C']","[1594264, 1594570, 1594888, 1595209, 1595569, 1595927, 1596320, 1596688, 1597045, 1597371, 1597730, 1598029, 1598437, 1598834, 1599270, 1599679, 1600098, 1600509, 1600942, 1601294, 1601783, 1602230, 1602624, 1603118, 1603510]","[1594284, 1594603, 1594926, 1595231, 1595589, 1595968, 1596340, 1596732, 1597089, 1597396, 1597756, 1598104, 1598464, 1598860, 1599315, 1599738, 1600123, 1600551, 1600971, 1601361, 1601831, 1602255, 1602703, 1603143, 1603535]","[1594089, 1594488, 1594888, 1595288, 1595688, 1596088, 1596488, 1596889, 1597396, 1597756, 1598055, 1598464, 1598860, 1599296, 1599705, 1600123, 1600535, 1600967, 1601319, 1601809, 1602255, 1602650, 1603143, 1603535]",32,R,ITM,1.1,
2,400,trial,0,87,87,87,trial,"['S', 'S', 'S', 'S', 'S', 'S', 'S', 'S', 'S', 'C', 'C', 'C', 'C', 'C', 'C', 'C', 'C', 'C', 'C', 'C', 'C', 'C', 'C', 'C', 'C']","[1609477, 1609774, 1610073, 1610362, 1610743, 1611036, 1611462, 1611793, 1612099, 1612455, 1612800, 1613148, 1613532, 1613943, 1614366, 1614749, 1615098, 1615531, 1615945, 1616311, 1616700, 1617086, 1617465, 1617887, 1618260]","[1609534, 1609809, 1610107, 1610404, 1610763, 1611097, 1611482, 1611835, 1612146, 1612498, 1612853, 1613204, 1613580, 1613989, 1614420, 1614777, 1615152, 1615557, 1615973, 1616367, 1616751, 1617158, 1617547, 1617957, 1618356]","[1609241, 1609640, 1610041, 1610441, 1610841, 1611241, 1611641, 1612041, 1612483, 1612826, 1613175, 1613559, 1613970, 1614393, 1614777, 1615125, 1615557, 1615973, 1616337, 1616727, 1617113, 1617491, 1617914, 1618288]",32,R,ITM,1.1,
3,400,trial,0,88,88,88,trial,"['S', 'S', 'S', 'S', 'S', 'S', 'S', 'S', 'S', 'C', 'C', 'C', 'C', 'C', 'C', 'C', 'C', 'C', 'C', 'C', 'C', 'C', 'C', 'C', 'C']","[1624053, 1624328, 1624630, 1624970, 1625335, 1625703, 1626103, 1626452, 1626863, 1627179, 1627507, 1627873, 1628210, 1628808, 1629166, 1629501, 1629881, 1630204, 1630594, 1630930, 1631248, 1631589, 1631936, 1632251, 1632627]","[1624097, 1624363, 1624650, 1625004, 1625371, 1625745, 1626125, 1626523, 1626884, 1627229, 1627547, 1627898, 1628267, 1628853, 1629204, 1629551, 1629917, 1630261, 1630623, 1630960, 1631313, 1631638, 1631986, 1632297, 1632653]","[1623875, 1624274, 1624674, 1625074, 1625475, 1625874, 1626274, 1626674, 1627204, 1627533, 1627898, 1628235, 1628833, 1629192, 1629527, 1629906, 1630230, 1630619, 1630956, 1631273, 1631614, 1631962, 1632277, 1632653]",32,R,ITM,1.1,
7,600,trial,0,89,89,89,trial,"['S', 'S', 'S', 'S', 'S', 'S', 'S', 'S', 'S', 'C', 'C', 'C', 'C', 'C', 'C', 'C', 'C', 'C', 'C', 'C', 'C', 'C', 'C', 'C', 'C']","[1638665, 1639113, 1639518, 1639985, 1640520, 1641020, 1641540, 1642036, 1642422, 1642943, 1643411, 1643916, 1644429, 1644920, 1645445, 1645933, 1646423, 1646942, 1647452, 1647963, 1648520, 1649067, 1649577, 1650057, 1650511]","[1638723, 1639138, 1639543, 1640023, 1640549, 1641067, 1641587, 1642062, 1642477, 1643004, 1643452, 1643956, 1644488, 1644981, 1645503, 1645984, 1646482, 1647023, 1647539, 1648049, 1648614, 1649141, 1649656, 1650140, 1650600]","[1638330, 1638930, 1639530, 1640130, 1640730, 1641330, 1641930, 1642530, 1642971, 1643439, 1643942, 1644456, 1644947, 1645472, 1645961, 1646449, 1646969, 1647479, 1647989, 1648547, 1649094, 1649603, 1650083, 1650538]",32,R,ITM,1.1,
4,400,trial,0,90,90,90,trial,"['S', 'S', 'S', 'S', 'S', 'S', 'S', 'S', 'C', 'C', 'C', 'C', 'C', 'C', 'C', 'C', 'C', 'C', 'C', 'C', 'C', 'C', 'C', 'C']","[1656155, 1656537, 1656922, 1657284, 1657656, 1657981, 1658322, 1658856, 1659171, 1659560, 1659881, 1660273, 1660666, 1661052, 1661480, 1661877, 1662262, 1662700, 1663093, 1663546, 1663941, 1664374, 1664721, 1665126]","[1656187, 1656579, 1656942, 1657304, 1657676, 1658002, 1658342, 1658887, 1659225, 1659586, 1659934, 1660309, 1660719, 1661111, 1661543, 1661927, 1662311, 1662727, 1663136, 1663601, 1664003, 1664420, 1664811, 1665203]","[1655965, 1656366, 1656765, 1657165, 1657565, 1657965, 1658365, 1658765, 1659197, 1659586, 1659907, 1660299, 1660693, 1661078, 1661506, 1661902, 1662287, 1662727, 1663119, 1663571, 1663967, 1664400, 1664747, 1665152]",32,R,ITM,1.1,
3,400,trial,0,91,91,91,trial,"['S', 'S', 'S', 'S', 'S', 'S', 'S', 'S', 'C', 'C', 'C', 'C', 'C', 'C', 'C', 'C', 'C', 'C', 'C', 'C', 'C', 'C', 'C', 'C']","[1670788, 1671140, 1671468, 1671808, 1672098, 1672475, 1672870, 1673267, 1673700, 1674158, 1674532, 1674929, 1675290, 1675680, 1675995, 1676404, 1676775, 1677520, 1677925, 1678300, 1678674, 1679080, 1679461, 1679852]","[1670840, 1671191, 1671492, 1671828, 1672151, 1672539, 1672914, 1673312, 1673738, 1674183, 1674594, 1674954, 1675337, 1675706, 1676052, 1676430, 1676824, 1677592, 1677968, 1678325, 1678707, 1679132, 1679503, 1679878]","[1670581, 1670981, 1671382, 1671781, 1672181, 1672582, 1672981, 1673381, 1673725, 1674183, 1674558, 1674954, 1675316, 1675706, 1676020, 1676430, 1676801, 1677546, 1677950, 1678325, 1678700, 1679106, 1679486, 1679878]",32,R,ITM,1.1,
4,400,trial,0,92,92,92,trial,"['S', 'S', 'S', 'S', 'S', 'S', 'S', 'S', 'C', 'C', 'C', 'C', 'C', 'C', 'C', 'C', 'C', 'C', 'C', 'C', 'C', 'C', 'C', 'C']","[1685777, 1686169, 1686501, 1686847, 1687192, 1687511, 1687931, 1688281, 1688676, 1689056, 1689442, 1689807, 1690209, 1690631, 1691059, 1691438, 1691876, 1692261, 1692645, 1692959, 1693396, 1693784, 1694205, 1694598]","[1685820, 1686189, 1686521, 1686867, 1687212, 1687566, 1687951, 1688301, 1688711, 1689081, 1689483, 1689852, 1690259, 1690703, 1691123, 1691535, 1691962, 1692326, 1692703, 1693034, 1693447, 1693846, 1694254, 1694666]","[1685594, 1685992, 1686392, 1686792, 1687192, 1687592, 1687992, 1688392, 1688701, 1689081, 1689467, 1689834, 1690234, 1690656, 1691084, 1691463, 1691901, 1692286, 1692670, 1692985, 1693422, 1693809, 1694231, 1694623]",32,R,ITM,1.1,
5,600,trial,0,93,93,93,trial,"['S', 'S', 'S', 'S', 'S', 'S', 'S', 'S', 'S', 'S', 'C', 'C', 'C', 'C', 'C', 'C', 'C', 'C', 'C', 'C', 'C', 'C', 'C', 'C', 'C', 'C']","[1700343, 1700692, 1701055, 1701404, 1701832, 1702293, 1702862, 1703278, 1703762, 1704214, 1704710, 1705281, 1705742, 1706311, 1706784, 1707318, 1707821, 1708350, 1708871, 1709392, 1709918, 1710405, 1710872, 1711382, 1711897, 1712387]","[1700429, 1700776, 1701146, 1701504, 1701889, 1702338, 1702902, 1703347, 1703803, 1704243, 1704748, 1705321, 1705819, 1706352, 1706847, 1707374, 1707880, 1708412, 1708950, 1709449, 1709943, 1710432, 1710911, 1711414, 1711938, 1712425]","[1700071, 1700670, 1701270, 1701870, 1702470, 1703070, 1703670, 1704270, 1704735, 1705307, 1705767, 1706337, 1706810, 1707343, 1707846, 1708376, 1708898, 1709419, 1709943, 1710432, 1710898, 1711408, 1711924, 1712412]",32,R,ITM,1.1,
7,400,trial,0,94,94,94,trial,"['S', 'S', 'S', 'S', 'S', 'S', 'S', 'S', 'S', 'C', 'C', 'C', 'C', 'C', 'C', 'C', 'C', 'C', 'C', 'C', 'C', 'C', 'C', 'C', 'C']","[1717954, 1718370, 1718695, 1719034, 1719340, 1719683, 1720020, 1720376, 1720749, 1721145, 1721478, 1721856, 1722225, 1722561, 1722927, 1723325, 1723658, 1724047, 1724428, 1724774, 1725177, 1725544, 1725934, 1726309, 1726672]","[1718010, 1718404, 1718754, 1719086, 1719384, 1719715, 1720066, 1720423, 1720808, 1721216, 1721578, 1721933, 1722289, 1722625, 1722996, 1723368, 1723749, 1724104, 1724473, 1724830, 1725252, 1725615, 1725993, 1726369, 1726740]","[1717751, 1718151, 1718550, 1718950, 1719350, 1719750, 1720151, 1720550, 1721171, 1721504, 1721882, 1722253, 1722588, 1722953, 1723353, 1723685, 1724073, 1724454, 1724801, 1725205, 1725571, 1725961, 1726337, 1726699]",32,R,ITM,1.1,
6,400,trial,0,95,95,95,trial,"['S', 'S', 'S', 'S', 'S', 'S', 'S', 'S', 'C', 'C', 'C', 'C', 'C', 'C', 'C', 'C', 'C', 'C', 'C', 'C', 'C', 'C', 'C', 'C']","[1732287, 1732684, 1732985, 1733305, 1733656, 1734053, 1734420, 1734805, 1735179, 1735538, 1735965, 1736338, 1736733, 1737117, 1737536, 1737885, 1738307, 1738686, 1739068, 1739452, 1739790, 1740269, 1740641, 1740945]","[1732311, 1732704, 1733025, 1733325, 1733676, 1734073, 1734462, 1734847, 1735211, 1735593, 1735993, 1736376, 1736771, 1737157, 1737579, 1737949, 1738334, 1738728, 1739131, 1739510, 1739856, 1740297, 1740668, 1741002]","[1732118, 1732518, 1732918, 1733318, 1733719, 1734118, 1734518, 1734919, 1735205, 1735566, 1735993, 1736366, 1736761, 1737145, 1737563, 1737913, 1738334, 1738713, 1739095, 1739479, 1739816, 1740296, 1740668, 1740972]",32,R,ITM,1.1,
5,600,trial,0,96,96,96,trial,"['S', 'S', 'S', 'S', 'S', 'S', 'S', 'S', 'S', 'C', 'C', 'C', 'C', 'C', 'C', 'C', 'C', 'C', 'C', 'C', 'C', 'C', 'C', 'C', 'C']","[1746936, 1747294, 1747724, 1748327, 1748992, 1749517, 1749947, 1750457, 1750848, 1751397, 1751872, 1752392, 1752892, 1753397, 1753928, 1754428, 1754910, 1755428, 1755953, 1756473, 1756980, 1757528, 1758097, 1758586, 1759109]","[1746971, 1747335, 1747772, 1748347, 1749028, 1749548, 1749992, 1750513, 1750902, 1751439, 1751933, 1752437, 1752927, 1753502, 1753982, 1754476, 1755006, 1755513, 1756028, 1756587, 1757059, 1757605, 1758179, 1758673, 1759166]","[1746726, 1747325, 1747926, 1748526, 1749126, 1749725, 1750325, 1750925, 1751422, 1751898, 1752418, 1752918, 1753423, 1753954, 1754455, 1754936, 1755454, 1755978, 1756498, 1757006, 1757554, 1758124, 1758613, 1759135]",32,R,ITM,1.1,
7,600,trial,0,97,97,97,trial,"['S', 'S', 'S', 'S', 'S', 'S', 'S', 'S', 'S', 'C', 'C', 'C', 'C', 'C', 'C', 'C', 'C', 'C', 'C', 'C', 'C', 'C', 'C', 'C', 'C']","[1764831, 1765261, 1765642, 1766150, 1766658, 1767225, 1767750, 1768265, 1768673, 1769218, 1769745, 1770259, 1770781, 1771255, 1771763, 1772241, 1772741, 1773246, 1773814, 1774363, 1774858, 1775376, 1775850, 1776447, 1777053]","[1764905, 1765298, 1765684, 1766194, 1766715, 1767245, 1767785, 1768306, 1768716, 1769245, 1769789, 1770304, 1770841, 1771335, 1771814, 1772309, 1772834, 1773367, 1773900, 1774440, 1774951, 1775471, 1775945, 1776475, 1777114]","[1764576, 1765175, 1765775, 1766375, 1766975, 1767575, 1768175, 1768775, 1769245, 1769772, 1770286, 1770808, 1771283, 1771791, 1772268, 1772768, 1773274, 1773842, 1774391, 1774885, 1775404, 1775877, 1776475, 1777080]",32,R,ITM,1.1,
6,600,trial,0,98,98,98,trial,"['S', 'S', 'S', 'S', 'S', 'S', 'S', 'S', 'C', 'C', 'C', 'C', 'C', 'C', 'C', 'C', 'C', 'C', 'C', 'C', 'C', 'C', 'C', 'C']","[1782902, 1783290, 1783660, 1784086, 1784628, 1785171, 1785751, 1786340, 1786933, 1787420, 1787916, 1788514, 1789072, 1789626, 1790177, 1790723, 1791310, 1791817, 1792368, 1792903, 1793503, 1794066, 1794702, 1795207]","[1782969, 1783332, 1783717, 1784134, 1784663, 1785191, 1785796, 1786388, 1787009, 1787479, 1787979, 1788560, 1789125, 1789703, 1790229, 1790777, 1791385, 1791880, 1792408, 1792945, 1793568, 1794172, 1794771, 1795281]","[1782475, 1783074, 1783674, 1784274, 1784875, 1785475, 1786075, 1786675, 1786959, 1787447, 1787943, 1788540, 1789099, 1789652, 1790204, 1790749, 1791337, 1791844, 1792396, 1792929, 1793530, 1794093, 1794728, 1795233]",32,R,ITM,1.1,
3,600,trial,0,99,99,99,trial,"['S', 'S', 'S', 'S', 'S', 'S', 'S', 'S', 'C', 'C', 'C', 'C', 'C', 'C', 'C', 'C', 'C', 'C', 'C', 'C', 'C', 'C', 'C', 'C']","[1800876, 1801187, 1801757, 1802305, 1802863, 1803457, 1804121, 1804710, 1805288, 1805806, 1806340, 1806841, 1807384, 1807924, 1808485, 1809060, 1809588, 1810173, 1810635, 1811290, 1811824, 1812415, 1812975, 1813511]","[1800927, 1801207, 1801803, 1802326, 1802883, 1803478, 1804169, 1804768, 1805314, 1805858, 1806366, 1806886, 1807437, 1807985, 1808537, 1809129, 1809666, 1810213, 1810721, 1811350, 1811877, 1812523, 1813057, 1813646]","[1800709, 1801308, 1801907, 1802507, 1803107, 1803707, 1804307, 1804907, 1805314, 1805832, 1806365, 1806867, 1807410, 1807949, 1808510, 1809086, 1809613, 1810199, 1810661, 1811315, 1811850, 1812441, 1813001, 1813536]",32,R,ITM,1.1,
6,600,trial,0,100,100,100,trial,"['S', 'S', 'S', 'S', 'S', 'S', 'S', 'S', 'S', 'C', 'C', 'C', 'C', 'C', 'C', 'C', 'C', 'C', 'C', 'C', 'C', 'C', 'C', 'C', 'C']","[1819045, 1819410, 1819968, 1820490, 1820957, 1821463, 1821875, 1822345, 1822916, 1823432, 1824036, 1824567, 1825105, 1825639, 1826185, 1826738, 1827229, 1827773, 1828335, 1828853, 1829413, 1829926, 1830472, 1830974, 1831403]","[1819090, 1819455, 1820002, 1820516, 1820988, 1821499, 1821895, 1822372, 1822936, 1823486, 1824063, 1824618, 1825148, 1825686, 1826216, 1826807, 1827277, 1827801, 1828362, 1828895, 1829440, 1829995, 1830559, 1831049, 1831485]","[1818911, 1819510, 1820110, 1820710, 1821310, 1821911, 1822511, 1823111, 1823460, 1824063, 1824593, 1825133, 1825666, 1826212, 1826764, 1827257, 1827801, 1828362, 1828880, 1829440, 1829953, 1830499, 1831002, 1831430]",32,R,ITM,1.1,
2,600,trial,0,101,101,101,trial,"['S', 'S', 'S', 'S', 'S', 'S', 'S', 'S', 'C', 'C', 'C', 'C', 'C', 'C', 'C', 'C', 'C', 'C', 'C', 'C', 'C', 'C', 'C', 'C']","[1837271, 1837724, 1838252, 1838785, 1839322, 1839934, 1840496, 1841089, 1841625, 1842181, 1842672, 1843487, 1844034, 1844543, 1845079, 1845515, 1846083, 1846583, 1847026, 1847596, 1848143, 1848617, 1849163, 1849624]","[1837302, 1837744, 1838279, 1838806, 1839371, 1839967, 1840516, 1841126, 1841651, 1842230, 1842746, 1843559, 1844098, 1844620, 1845194, 1845694, 1846180, 1846610, 1847160, 1847694, 1848225, 1848717, 1849255, 1849697]","[1837079, 1837679, 1838278, 1838878, 1839479, 1840079, 1840679, 1841278, 1841651, 1842207, 1842699, 1843515, 1844061, 1844570, 1845105, 1845541, 1846110, 1846610, 1847053, 1847623, 1848171, 1848645, 1849190, 1849652]",32,R,ITM,1.1,
6,600,trial,0,102,102,102,trial,"['S', 'S', 'S', 'S', 'S', 'S', 'S', 'S', 'C', 'C', 'C', 'C', 'C', 'C', 'C', 'C', 'C', 'C', 'C', 'C', 'C', 'C', 'C', 'C']","[1855621, 1856036, 1856488, 1857028, 1857570, 1858103, 1858704, 1859179, 1859977, 1860496, 1861031, 1861632, 1862192, 1862820, 1863403, 1864013, 1864349, 1864829, 1865470, 1870861, 1871433, 1871928, 1872494, 1873002]","[1855641, 1856073, 1856518, 1857048, 1857590, 1858131, 1858724, 1859221, 1860021, 1860542, 1861103, 1861678, 1862247, 1862889, 1863513, 1864088, 1864608, 1865014, 1865586, 1870896, 1871461, 1871992, 1872540, 1873073]","[1855367, 1855966, 1856566, 1857166, 1857766, 1858366, 1858966, 1859566, 1860004, 1860524, 1861059, 1861659, 1862219, 1862847, 1863430, 1864041, 1864376, 1864857, 1865497, 1870888, 1871461, 1871954, 1872521, 1873030]",32,R,ITM,1.1,
5,400,trial,0,103,103,103,trial,"['S', 'S', 'S', 'S', 'S', 'S', 'S', 'S', 'S', 'C', 'C', 'C', 'C', 'C', 'C', 'C', 'C', 'C', 'C', 'C', 'C', 'C', 'C', 'C', 'C']","[1878569, 1878947, 1879275, 1879572, 1879904, 1880237, 1880573, 1880883, 1881221, 1881553, 1881920, 1882242, 1882612, 1882957, 1883352, 1883715, 1884061, 1884409, 1884788, 1885115, 1885440, 1885735, 1886118, 1886470, 1886781]","[1878630, 1878986, 1879296, 1879617, 1879952, 1880274, 1880608, 1880930, 1881260, 1881596, 1881964, 1882304, 1882657, 1883017, 1883390, 1883754, 1884102, 1884449, 1884833, 1885157, 1885485, 1885782, 1886159, 1886501, 1886825]","[1878406, 1878804, 1879204, 1879604, 1880004, 1880404, 1880804, 1881204, 1881580, 1881946, 1882267, 1882638, 1882983, 1883378, 1883741, 1884087, 1884435, 1884814, 1885140, 1885466, 1885762, 1886144, 1886495, 1886807]",32,R,ITM,1.1,
5,600,trial,0,104,104,104,trial,"['S', 'S', 'S', 'S', 'S', 'S', 'S', 'S', 'C', 'C', 'C', 'C', 'C', 'C', 'C', 'C', 'C', 'C', 'C', 'C', 'C', 'C', 'C', 'C']","[1892398, 1892696, 1893206, 1893810, 1894426, 1895098, 1895678, 1896226, 1896844, 1897410, 1897975, 1898547, 1899044, 1899579, 1900070, 1900620, 1901136, 1901660, 1902238, 1902770, 1903268, 1903752, 1904253, 1904707]","[1892433, 1892733, 1893264, 1893858, 1894471, 1895118, 1895737, 1896279, 1896933, 1897485, 1898018, 1898591, 1899089, 1899630, 1900140, 1900694, 1901191, 1901704, 1902264, 1902795, 1903295, 1903777, 1904279, 1904752]","[1892200, 1892799, 1893399, 1893999, 1894599, 1895199, 1895799, 1896399, 1896870, 1897437, 1898001, 1898572, 1899071, 1899604, 1900096, 1900646, 1901162, 1901685, 1902264, 1902795, 1903295, 1903777, 1904279, 1904734]",32,R,ITM,1.1,
5,600,trial,0,105,105,105,trial,"['S', 'S', 'S', 'S', 'S', 'S', 'S', 'S', 'C', 'C', 'C', 'C', 'C', 'C', 'C', 'C', 'C', 'C', 'C', 'C', 'C', 'C', 'C', 'C']","[1910215, 1910596, 1911144, 1911690, 1912274, 1912840, 1913421, 1914058, 1914596, 1915126, 1915587, 1916084, 1916581, 1917105, 1917498, 1918123, 1918680, 1919276, 1919815, 1920354, 1920933, 1921494, 1922055, 1922712]","[1910236, 1910616, 1911164, 1911711, 1912313, 1912883, 1913490, 1914078, 1914621, 1915176, 1915685, 1916131, 1916630, 1917147, 1917578, 1918169, 1918766, 1919311, 1919868, 1920462, 1920993, 1921563, 1922134, 1922738]","[1910079, 1910678, 1911278, 1911878, 1912478, 1913078, 1913678, 1914278, 1914621, 1915153, 1915613, 1916109, 1916608, 1917130, 1917523, 1918149, 1918705, 1919301, 1919841, 1920379, 1920959, 1921520, 1922080, 1922738]",32,R,ITM,1.1,
6,400,trial,0,106,106,106,trial,"['S', 'S', 'S', 'S', 'S', 'S', 'S', 'S', 'C', 'C', 'C', 'C', 'C', 'C', 'C', 'C', 'C', 'C', 'C', 'C', 'C', 'C', 'C', 'C', 'C']","[1928589, 1928867, 1929244, 1929545, 1929848, 1930205, 1930527, 1930871, 1931230, 1931567, 1931963, 1932353, 1932674, 1933065, 1933392, 1933830, 1934117, 1934535, 1934851, 1935420, 1935706, 1936276, 1936543, 1938262, 1938589]","[1928647, 1928920, 1929281, 1929596, 1929914, 1930244, 1930568, 1930906, 1931275, 1931611, 1932006, 1932380, 1932729, 1933117, 1933456, 1933856, 1934189, 1934618, 1934909, 1935471, 1935759, 1936349, 1936589, 1938298, 1938616]","[1928108, 1928506, 1928906, 1929307, 1929706, 1930106, 1930506, 1930906, 1931257, 1931594, 1931991, 1932380, 1932700, 1933091, 1933419, 1933856, 1934145, 1934562, 1934877, 1935447, 1935733, 1936303, 1938289, 1938616]",32,R,ITM,1.1,
2,600,trial,0,107,107,107,trial,"['S', 'S', 'S', 'S', 'S', 'S', 'S', 'S', 'S', 'C', 'C', 'C', 'C', 'C', 'C', 'C', 'C', 'C', 'C', 'C', 'C', 'C', 'C', 'C', 'C']","[1944590, 1944964, 1945318, 1945824, 1946473, 1947059, 1947559, 1948036, 1948540, 1948984, 1949436, 1949939, 1950445, 1950922, 1951422, 1951894, 1952353, 1952817, 1953325, 1953845, 1954247, 1954585, 1955102, 1955532, 1956007]","[1944662, 1945027, 1945357, 1945864, 1946508, 1947079, 1947632, 1948114, 1948592, 1949026, 1949520, 1950027, 1950521, 1950991, 1951510, 1951941, 1952431, 1952843, 1953351, 1953876, 1954321, 1954643, 1955156, 1955587, 1956059]","[1944252, 1944851, 1945451, 1946052, 1946652, 1947251, 1947851, 1948452, 1949011, 1949463, 1949966, 1950473, 1950950, 1951450, 1951921, 1952380, 1952843, 1953351, 1953872, 1954274, 1954612, 1955130, 1955559, 1956034]",32,R,ITM,1.1,
4,400,trial,0,108,108,108,trial,"['S', 'S', 'S', 'S', 'S', 'S', 'S', 'S', 'C', 'C', 'C', 'C', 'C', 'C', 'C', 'C', 'C', 'C', 'C', 'C', 'C', 'C', 'C', 'C']","[1961595, 1961975, 1962370, 1962730, 1963057, 1963407, 1963753, 1964150, 1964530, 1964974, 1965355, 1965719, 1966053, 1966382, 1966849, 1967185, 1967606, 1967938, 1968309, 1968679, 1969070, 1969431, 1969797, 1970152]","[1961656, 1961995, 1962390, 1962750, 1963077, 1963443, 1963792, 1964212, 1964590, 1965015, 1965392, 1965763, 1966117, 1966439, 1966886, 1967236, 1967642, 1968009, 1968353, 1968719, 1969126, 1969500, 1969865, 1970209]","[1961428, 1961828, 1962228, 1962629, 1963028, 1963428, 1963828, 1964228, 1964556, 1964999, 1965380, 1965745, 1966078, 1966408, 1966874, 1967211, 1967633, 1967964, 1968334, 1968705, 1969095, 1969457, 1969822, 1970178]",32,R,ITM,1.1,
2,400,trial,0,109,109,109,trial,"['S', 'S', 'S', 'S', 'S', 'S', 'S', 'S', 'S', 'C', 'C', 'C', 'C', 'C', 'C', 'C', 'C', 'C', 'C', 'C', 'C', 'C', 'C', 'C', 'C']","[1975642, 1975960, 1976267, 1976606, 1976960, 1977345, 1977730, 1978076, 1978479, 1978830, 1979187, 1979482, 1979895, 1980259, 1980637, 1981030, 1981378, 1981698, 1982176, 1982542, 1982909, 1983260, 1983660, 1983982, 1984493]","[1975687, 1975980, 1976287, 1976626, 1976999, 1977365, 1977774, 1978112, 1978518, 1978870, 1979222, 1979535, 1979923, 1980306, 1980684, 1981072, 1981430, 1981762, 1982239, 1982586, 1982973, 1983318, 1983730, 1984066, 1984549]","[1975508, 1975907, 1976308, 1976709, 1977108, 1977508, 1977908, 1978307, 1978858, 1979214, 1979508, 1979923, 1980285, 1980663, 1981057, 1981406, 1981725, 1982203, 1982570, 1982937, 1983288, 1983687, 1984009, 1984521]",32,R,ITM,1.1,
3,400,trial,0,110,110,110,trial,"['S', 'S', 'S', 'S', 'S', 'S', 'S', 'S', 'S', 'C', 'C', 'C', 'C', 'C', 'C', 'C', 'C', 'C', 'C', 'C', 'C', 'C', 'C', 'C', 'C']","[1990439, 1990788, 1991111, 1991443, 1991710, 1992014, 1992311, 1992614, 1992961, 1993387, 1993819, 1994183, 1994542, 1994932, 1995302, 1995691, 1996050, 1996478, 1996915, 1997322, 1997801, 1998150, 1998520, 1998872, 1999221]","[1990473, 1990808, 1991132, 1991479, 1991764, 1992072, 1992332, 1992664, 1993016, 1993439, 1993844, 1994209, 1994592, 1994957, 1995338, 1995738, 1996100, 1996521, 1996972, 1997347, 1997841, 1998205, 1998545, 1998935, 1999276]","[1990297, 1990696, 1991096, 1991496, 1991897, 1992296, 1992696, 1993096, 1993412, 1993844, 1994209, 1994567, 1994957, 1995328, 1995717, 1996076, 1996504, 1996941, 1997347, 1997827, 1998176, 1998545, 1998898, 1999247]",32,R,ITM,1.1,
3,600,trial,0,111,111,111,trial,"['S', 'S', 'S', 'S', 'S', 'S', 'C', 'C', 'C', 'C', 'C', 'C', 'C', 'C', 'C', 'C', 'C', 'C', 'C', 'C', 'C', 'C', 'C']","[2005079, 2005334, 2005651, 2005992, 2006460, 2008955, 2009323, 2009568, 2009893, 2010291, 2010680, 2011030, 2011361, 2011673, 2011956, 2012283, 2012687, 2012994, 2013338, 2013636, 2013948, 2014260, 2014606]","[2005112, 2005378, 2005702, 2006040, 2006513, 2009020, 2009400, 2009633, 2009957, 2010344, 2010716, 2011088, 2011422, 2011731, 2012046, 2012335, 2012721, 2013028, 2013364, 2013674, 2013990, 2014317, 2014655]","[2004859, 2005458, 2006059, 2006659, 2007259, 2007858, 2008458, 2009058, 2009349, 2009919, 2010316, 2010705, 2011056, 2011386, 2011699, 2011981, 2012309, 2012712, 2013020, 2013364, 2013662, 2013974, 2014285, 2014631]",32,R,ITM,1.1,
4,600,trial,0,112,112,112,trial,"['S', 'S', 'S', 'S', 'S', 'S', 'S', 'S', 'C', 'C', 'C', 'C', 'C', 'C', 'C', 'C', 'C', 'C', 'C', 'C', 'C', 'C', 'C', 'C']","[2020593, 2021023, 2021442, 2021992, 2022630, 2023185, 2023852, 2024430, 2025013, 2025496, 2026021, 2026559, 2027052, 2027639, 2028156, 2028643, 2029166, 2029681, 2030244, 2030750, 2031279, 2031776, 2032240, 2032772]","[2020616, 2021043, 2021462, 2022012, 2022650, 2023251, 2023874, 2024475, 2025075, 2025551, 2026088, 2026643, 2027123, 2027708, 2028235, 2028707, 2029262, 2029812, 2030353, 2030871, 2031368, 2031881, 2032346, 2032831]","[2020413, 2021013, 2021613, 2022213, 2022813, 2023413, 2024013, 2024613, 2025038, 2025522, 2026047, 2026585, 2027077, 2027665, 2028182, 2028668, 2029193, 2029707, 2030270, 2030776, 2031304, 2031802, 2032266, 2032797]",32,R,ITM,1.1,
2,400,trial,0,113,113,113,trial,"['S', 'S', 'S', 'S', 'S', 'S', 'S', 'S', 'C', 'C', 'C', 'C', 'C', 'C', 'C', 'C', 'C', 'C', 'C', 'C', 'C', 'C', 'C', 'C']","[2038456, 2038835, 2039107, 2039439, 2039809, 2040199, 2040610, 2040991, 2041402, 2041778, 2042176, 2042559, 2042926, 2043305, 2043685, 2044077, 2044477, 2044864, 2045260, 2045596, 2046042, 2046425, 2046790, 2047114]","[2038491, 2038855, 2039148, 2039472, 2039829, 2040240, 2040648, 2041054, 2041457, 2041812, 2042223, 2042608, 2042985, 2043351, 2043743, 2044124, 2044518, 2044915, 2045298, 2045659, 2046069, 2046458, 2046844, 2047177]","[2038292, 2038692, 2039092, 2039492, 2039892, 2040291, 2040691, 2041093, 2041428, 2041804, 2042203, 2042587, 2042953, 2043332, 2043712, 2044103, 2044504, 2044891, 2045288, 2045623, 2046069, 2046451, 2046818, 2047140]",32,R,ITM,1.1,
7,400,trial,0,114,114,114,trial,"['S', 'S', 'S', 'S', 'S', 'S', 'S', 'S', 'C', 'C', 'C', 'C', 'C', 'C', 'C', 'C', 'C', 'C', 'C', 'C', 'C', 'C', 'C', 'C']","[2052699, 2053061, 2053423, 2053748, 2054078, 2054450, 2054825, 2055241, 2055662, 2056016, 2056442, 2056791, 2057221, 2057591, 2058002, 2058333, 2058726, 2059103, 2059444, 2059866, 2060243, 2060640, 2061030, 2061418]","[2052739, 2053081, 2053443, 2053768, 2054128, 2054479, 2054878, 2055272, 2055690, 2056049, 2056470, 2056837, 2057248, 2057637, 2058029, 2058379, 2058753, 2059143, 2059486, 2059893, 2060271, 2060677, 2061082, 2061465]","[2052498, 2052897, 2053298, 2053697, 2054097, 2054497, 2054897, 2055298, 2055690, 2056043, 2056470, 2056817, 2057248, 2057619, 2058029, 2058360, 2058753, 2059130, 2059470, 2059893, 2060270, 2060667, 2061058, 2061445]",32,R,ITM,1.1,
4,600,trial,0,115,115,115,trial,"['S', 'S', 'S', 'S', 'S', 'S', 'S', 'S', 'S', 'C', 'C', 'C', 'C', 'C', 'C', 'C', 'C', 'C', 'C', 'C', 'C', 'C', 'C', 'C', 'C']","[2067010, 2067294, 2067619, 2067964, 2068470, 2069027, 2069633, 2070209, 2070830, 2071383, 2071925, 2072469, 2072999, 2073541, 2074074, 2074607, 2075165, 2075715, 2076252, 2076782, 2077360, 2077947, 2078479, 2078984, 2079522]","[2067047, 2067332, 2067645, 2067984, 2068509, 2069047, 2069673, 2070253, 2070850, 2071415, 2071976, 2072514, 2073055, 2073590, 2074125, 2074674, 2075233, 2075752, 2076297, 2076845, 2077417, 2077973, 2078522, 2079038, 2079591]","[2066846, 2067446, 2068046, 2068646, 2069246, 2069847, 2070447, 2071047, 2071408, 2071951, 2072495, 2073025, 2073567, 2074099, 2074634, 2075191, 2075741, 2076277, 2076808, 2077385, 2077973, 2078504, 2079009, 2079548]",32,R,ITM,1.1,
7,400,trial,0,116,116,116,trial,"['S', 'S', 'S', 'S', 'S', 'S', 'S', 'S', 'C', 'C', 'C', 'C', 'C', 'C', 'C', 'C', 'C', 'C', 'C', 'C', 'C', 'C', 'C', 'C']","[2085167, 2085555, 2085890, 2086283, 2086604, 2086972, 2087340, 2087718, 2088080, 2088488, 2088905, 2089243, 2089720, 2090114, 2090491, 2090895, 2091308, 2091763, 2092163, 2092521, 2092946, 2093336, 2093756, 2094163]","[2085201, 2085575, 2085910, 2086303, 2086624, 2086992, 2087390, 2087747, 2088111, 2088515, 2088932, 2089306, 2089754, 2090163, 2090518, 2090921, 2091356, 2091791, 2092212, 2092596, 2092991, 2093382, 2093784, 2094190]","[2084989, 2085388, 2085788, 2086189, 2086588, 2086988, 2087389, 2087788, 2088108, 2088515, 2088932, 2089270, 2089747, 2090140, 2090518, 2090921, 2091334, 2091791, 2092189, 2092549, 2092973, 2093363, 2093784, 2094190]",32,R,ITM,1.1,
2,600,trial,0,117,117,117,trial,"['S', 'S', 'S', 'S', 'S', 'S', 'S', 'S', 'S', 'C', 'C', 'C', 'C', 'C', 'C', 'C', 'C', 'C', 'C', 'C', 'C', 'C', 'C', 'C', 'C']","[2099725, 2100141, 2100599, 2101147, 2101722, 2102328, 2102864, 2103347, 2103738, 2104793, 2105229, 2105604, 2106466, 2106887, 2107373, 2107888, 2108332, 2108803, 2109289, 2109721, 2110305, 2110859, 2111407, 2111966, 2112488]","[2099745, 2100179, 2100642, 2101167, 2101742, 2102348, 2102884, 2103387, 2103758, 2104820, 2105274, 2105663, 2106501, 2106944, 2107400, 2107931, 2108397, 2108854, 2109331, 2109782, 2110356, 2110912, 2111463, 2112021, 2112546]","[2099481, 2100081, 2100682, 2101282, 2101882, 2102482, 2103083, 2103682, 2104820, 2105256, 2105631, 2106492, 2106914, 2107400, 2107915, 2108358, 2108830, 2109317, 2109748, 2110332, 2110886, 2111434, 2111993, 2112516]",32,R,ITM,1.1,
7,600,trial,0,118,118,118,trial,"['S', 'S', 'S', 'S', 'S', 'S', 'S', 'S', 'C', 'C', 'C', 'C', 'C', 'C', 'C', 'C', 'C', 'C', 'C', 'C', 'C', 'C', 'C', 'C']","[2118080, 2118469, 2119037, 2119612, 2120156, 2120827, 2121390, 2122019, 2122613, 2123161, 2123724, 2124246, 2125010, 2125609, 2126143, 2126673, 2127214, 2127771, 2128279, 2128888, 2129410, 2130004, 2130613, 2131136]","[2118115, 2118489, 2119084, 2119632, 2120217, 2120847, 2121418, 2122073, 2122657, 2123225, 2123755, 2124273, 2125059, 2125649, 2126186, 2126723, 2127272, 2127826, 2128360, 2128952, 2129537, 2130117, 2130669, 2131200]","[2117908, 2118508, 2119108, 2119708, 2120308, 2120908, 2121508, 2122108, 2122641, 2123189, 2123751, 2124273, 2125038, 2125636, 2126170, 2126701, 2127242, 2127799, 2128307, 2128916, 2129436, 2130031, 2130639, 2131164]",32,R,ITM,1.1,
6,400,trial,0,119,119,119,trial,"['S', 'S', 'S', 'S', 'S', 'S', 'S', 'S', 'C', 'C', 'C', 'C', 'C', 'C', 'C', 'C', 'C', 'C', 'C', 'C', 'C', 'C', 'C', 'C']","[2137142, 2137519, 2137840, 2138202, 2138586, 2138936, 2139262, 2139626, 2139985, 2140362, 2140722, 2141110, 2141522, 2141928, 2142298, 2142688, 2143089, 2143480, 2143837, 2144257, 2144538, 2144956, 2145342, 2145746]","[2137194, 2137539, 2137886, 2138252, 2138622, 2138960, 2139310, 2139684, 2140048, 2140408, 2140791, 2141157, 2141587, 2141976, 2142339, 2142750, 2143140, 2143540, 2143904, 2144286, 2144624, 2145008, 2145393, 2145821]","[2136837, 2137235, 2137635, 2138035, 2138435, 2138835, 2139235, 2139635, 2140012, 2140389, 2140748, 2141137, 2141549, 2141956, 2142324, 2142714, 2143116, 2143507, 2143863, 2144283, 2144565, 2144983, 2145369, 2145774]",32,R,ITM,1.1,
6,600,trial,0,120,120,120,trial,"['S', 'S', 'S', 'S', 'S', 'S', 'S', 'S', 'S', 'C', 'C', 'C', 'C', 'C', 'C', 'C', 'C', 'C', 'C', 'C', 'C', 'C', 'C', 'C', 'C']","[2151449, 2151760, 2152096, 2152478, 2152995, 2153564, 2154118, 2154705, 2155325, 2155879, 2156471, 2157024, 2157628, 2158187, 2158738, 2159312, 2159807, 2160392, 2160930, 2161466, 2162068, 2162592, 2163202, 2163714, 2164183]","[2151483, 2151780, 2152116, 2152498, 2153048, 2153629, 2154188, 2154769, 2155345, 2155962, 2156546, 2157113, 2157656, 2158262, 2158802, 2159364, 2159901, 2160478, 2160987, 2161557, 2162145, 2162669, 2163238, 2163755, 2164261]","[2151279, 2151878, 2152478, 2153078, 2153678, 2154278, 2154878, 2155479, 2155906, 2156498, 2157051, 2157655, 2158214, 2158766, 2159339, 2159834, 2160418, 2160958, 2161492, 2162095, 2162620, 2163229, 2163741, 2164209]",32,R,ITM,1.1,
3,600,trial,0,121,121,121,trial,"['S', 'S', 'S', 'S', 'S', 'S', 'S', 'S', 'S', 'C', 'C', 'C', 'C', 'C', 'C', 'C', 'C', 'C', 'C', 'C', 'C', 'C', 'C', 'C', 'C']","[2169979, 2170370, 2170906, 2171475, 2172019, 2172512, 2173049, 2173581, 2174120, 2174525, 2175056, 2175603, 2176187, 2176704, 2177263, 2177838, 2178363, 2178919, 2179499, 2180048, 2180589, 2181151, 2181725, 2182289, 2182836]","[2170027, 2170403, 2170926, 2171521, 2172063, 2172590, 2173103, 2173647, 2174183, 2174585, 2175137, 2175707, 2176268, 2176824, 2177352, 2177967, 2178459, 2179008, 2179572, 2180126, 2180704, 2181236, 2181836, 2182368, 2182899]","[2169803, 2170403, 2171003, 2171603, 2172204, 2172804, 2173404, 2174003, 2174552, 2175082, 2175629, 2176212, 2176730, 2177289, 2177863, 2178388, 2178945, 2179524, 2180074, 2180615, 2181177, 2181750, 2182315, 2182861]",32,R,ITM,1.1,
7,600,trial,0,122,122,122,trial,"['S', 'S', 'S', 'S', 'S', 'S', 'S', 'S', 'C', 'C', 'C', 'C', 'C', 'C', 'C', 'C', 'C', 'C', 'C', 'C', 'C', 'C', 'C', 'C']","[2188791, 2189220, 2189708, 2190270, 2190861, 2191432, 2192012, 2192596, 2193165, 2193705, 2194246, 2194781, 2195284, 2195803, 2196346, 2196862, 2197406, 2197953, 2198491, 2199024, 2199556, 2200117, 2200691, 2201236]","[2188811, 2189240, 2189728, 2190290, 2190899, 2191472, 2192033, 2192616, 2193191, 2193762, 2194300, 2194852, 2195350, 2195875, 2196405, 2196944, 2197476, 2198007, 2198518, 2199119, 2199654, 2200188, 2200745, 2201315]","[2188621, 2189220, 2189820, 2190420, 2191021, 2191621, 2192221, 2192820, 2193191, 2193733, 2194273, 2194808, 2195310, 2195830, 2196373, 2196889, 2197434, 2197981, 2198518, 2199051, 2199582, 2200143, 2200718, 2201263]",32,R,ITM,1.1,
5,400,trial,0,123,123,123,trial,"['S', 'S', 'S', 'S', 'S', 'S', 'S', 'S', 'C', 'C', 'C', 'C', 'C', 'C', 'C', 'C', 'C', 'C', 'C', 'C', 'C', 'C', 'C', 'C']","[2207190, 2207616, 2208034, 2208452, 2208844, 2209220, 2209624, 2209995, 2210720, 2211057, 2211447, 2211850, 2212290, 2212687, 2213046, 2213478, 2213892, 2214292, 2214689, 2215114, 2215480, 2215858, 2216211, 2216630]","[2207218, 2207636, 2208054, 2208472, 2208864, 2209240, 2209644, 2210041, 2210767, 2211107, 2211502, 2211900, 2212316, 2212713, 2213114, 2213537, 2213950, 2214350, 2214740, 2215140, 2215523, 2215908, 2216290, 2216683]","[2206953, 2207353, 2207753, 2208153, 2208553, 2208953, 2209353, 2209754, 2210746, 2211083, 2211473, 2211875, 2212316, 2212713, 2213071, 2213504, 2213918, 2214318, 2214715, 2215140, 2215505, 2215883, 2216238, 2216655]",32,R,ITM,1.1,
