octave,ioi,event,.thisRepN,.thisTrialN,.thisN,.thisIndex,event,tap_types,tap_times,release_times,tone_times,subject,handedness,experiment,version,
,,SPR,0,-1,-1,0,SPR,"['P', 'P', 'P', 'P', 'P', 'P', 'P', 'P', 'P', 'P', 'P', 'P', 'P', 'P', 'P', 'P', 'P', 'P', 'P', 'P', 'P', 'P', 'P', 'P', 'P', 'P', 'P', 'P', 'P', 'P']","[38754, 39698, 40617, 41463, 42300, 43170, 44024, 44877, 45703, 46541, 47376, 48198, 49019, 49867, 50702, 51557, 52393, 53238, 54040, 54896, 55705, 56531, 57384, 58307, 59160, 60006, 60858, 61743, 62524, 63298]","[38898, 39817, 40718, 41563, 42392, 43235, 44089, 44897, 45760, 46609, 47433, 48249, 49083, 49935, 50771, 51617, 52460, 53295, 54116, 54948, 55764, 56582, 57454, 58348, 59223, 60070, 60908, 61806, 62601, 63366]",,26,R,ITM,1.1,
7,500,practice,0,0,0,0,practice,"['S', 'S', 'S', 'S', 'S', 'S', 'S', 'C', 'C', 'C', 'C', 'C', 'C', 'C', 'C', 'C', 'C', 'C', 'C', 'C', 'C', 'C', 'C']","[137716, 138041, 138473, 138954, 139464, 139952, 140442, 140933, 141463, 141981, 142476, 143002, 143495, 143995, 144506, 144993, 145510, 145978, 146452, 146975, 147462, 147955, 148463]","[137776, 138118, 138554, 139025, 139522, 140002, 140494, 140984, 141508, 142035, 142530, 143055, 143561, 144047, 144548, 145051, 145567, 146034, 146514, 147031, 147527, 148020, 148517]","[136952, 137451, 137951, 138451, 138951, 139451, 139952, 140451, 140959, 141491, 142008, 142502, 143030, 143521, 144022, 144533, 145019, 145538, 146004, 146479, 147003, 147488, 147983, 148490]",26,R,ITM,1.1,
3,500,practice,0,1,1,1,practice,"['S', 'S', 'S', 'S', 'S', 'S', 'C', 'C', 'C', 'C', 'C', 'C', 'C', 'C', 'C', 'C', 'C', 'C', 'C', 'C', 'C', 'C']","[155151, 155646, 156121, 156622, 157124, 157629, 158119, 158608, 159142, 159654, 160122, 160616, 161108, 161605, 162092, 162574, 163094, 163577, 164050, 164561, 165066, 165574]","[155212, 155716, 156190, 156693, 157192, 157687, 158182, 158661, 159190, 159695, 160187, 160672, 161152, 161650, 162139, 162636, 163122, 163631, 164112, 164617, 165115, 165621]","[154164, 154663, 155163, 155663, 156164, 156663, 157163, 157663, 158145, 158633, 159168, 159680, 160148, 160643, 161133, 161631, 162117, 162599, 163120, 163603, 164076, 164587, 165092, 165600]",26,R,ITM,1.1,
4,500,practice,0,2,2,2,practice,"['S', 'S', 'S', 'S', 'S', 'S', 'S', 'C', 'C', 'C', 'C', 'C', 'C', 'C', 'C', 'C', 'C', 'C', 'C', 'C', 'C', 'C', 'C']","[171849, 172354, 172881, 173351, 173847, 174362, 174889, 175307, 175821, 176327, 176822, 177310, 177825, 178301, 178782, 179300, 179731, 180262, 180793, 181235, 181748, 182266, 182735]","[171902, 172405, 172904, 173389, 173895, 174382, 174930, 175369, 175847, 176372, 176883, 177380, 177863, 178339, 178826, 179345, 179817, 180313, 180841, 181322, 181804, 182352, 182797]","[171375, 171874, 172375, 172874, 173374, 173874, 174374, 174874, 175334, 175847, 176353, 176847, 177336, 177851, 178327, 178807, 179325, 179757, 180288, 180818, 181261, 181774, 182293, 182761]",26,R,ITM,1.1,
6,500,practice,0,3,3,3,practice,"['S', 'S', 'S', 'S', 'S', 'S', 'C', 'C', 'C', 'C', 'C', 'C', 'C', 'C', 'C', 'C', 'C', 'C', 'C', 'C', 'C', 'C']","[188985, 189510, 190033, 190505, 190980, 191464, 191979, 192503, 192988, 193490, 193961, 194467, 194958, 195460, 195923, 196445, 196940, 197435, 197961, 198434, 198940, 199455]","[189031, 189569, 190089, 190561, 191038, 191539, 192045, 192552, 193057, 193532, 194021, 194535, 195014, 195511, 195993, 196491, 196979, 197497, 198018, 198504, 198999, 199523]","[188052, 188552, 189052, 189552, 190052, 190553, 191052, 191552, 192006, 192530, 193014, 193518, 193989, 194495, 194984, 195487, 195950, 196472, 196967, 197463, 197988, 198461, 198967, 199482]",26,R,ITM,1.1,
2,500,practice,0,4,4,4,practice,"['S', 'S', 'S', 'S', 'S', 'S', 'C', 'C', 'C', 'C', 'C', 'C', 'C', 'C', 'C', 'C', 'C', 'C', 'C', 'C', 'C', 'C']","[205949, 206471, 206958, 207466, 207982, 208483, 208990, 209513, 209981, 210513, 211012, 211499, 212009, 212514, 213020, 213522, 214020, 214490, 215012, 215543, 216025, 216524]","[206038, 206531, 207037, 207534, 208039, 208543, 209058, 209577, 210069, 210588, 211083, 211569, 212077, 212569, 213101, 213590, 214100, 214577, 215095, 215618, 216088, 216588]","[205031, 205532, 206031, 206531, 207031, 207531, 208031, 208531, 209017, 209540, 210008, 210541, 211040, 211525, 212037, 212541, 213048, 213549, 214046, 214516, 215040, 215570, 216052, 216552]",26,R,ITM,1.1,
5,500,practice,0,5,5,5,practice,"['S', 'S', 'S', 'S', 'S', 'S', 'S', 'C', 'C', 'C', 'C', 'C', 'C', 'C', 'C', 'C', 'C', 'C', 'C', 'C', 'C', 'C', 'C']","[222681, 223176, 223668, 224190, 224693, 225192, 225723, 226163, 226667, 227150, 227661, 228153, 228638, 229134, 229606, 230104, 230602, 231085, 231523, 232077, 232603, 233072, 233588]","[222747, 223228, 223723, 224225, 224742, 225255, 225743, 226254, 226706, 227205, 227687, 228224, 228701, 229211, 229648, 230177, 230657, 231165, 231610, 232127, 232656, 233149, 233614]","[222211, 222710, 223210, 223710, 224210, 224710, 225210, 225711, 226190, 226693, 227176, 227687, 228178, 228665, 229159, 229633, 230129, 230629, 231110, 231548, 232102, 232629, 233098, 233614]",26,R,ITM,1.1,
2,600,trial,0,6,6,6,trial,"['S', 'S', 'S', 'S', 'S', 'S', 'C', 'C', 'C', 'C', 'C', 'C', 'C', 'C', 'C', 'C', 'C', 'C', 'C', 'C', 'C', 'C']","[306207, 306859, 307490, 308108, 308712, 309327, 309857, 310444, 311044, 311642, 312217, 312804, 313396, 313993, 314582, 315166, 315742, 316345, 316896, 317491, 318083, 318675]","[306270, 306935, 307557, 308170, 308797, 309360, 309925, 310510, 311115, 311707, 312275, 312864, 313428, 314050, 314669, 315230, 315782, 316402, 316990, 317562, 318128, 318764]","[305107, 305708, 306308, 306907, 307508, 308108, 308708, 309308, 309884, 310470, 311071, 311669, 312245, 312830, 313422, 314020, 314608, 315194, 315768, 316371, 316923, 317518, 318110, 318703]",26,R,ITM,1.1,
4,600,trial,0,7,7,7,trial,"['S', 'S', 'S', 'S', 'S', 'S', 'C', 'C', 'C', 'C', 'C', 'C', 'C', 'C', 'C', 'C', 'C', 'C', 'C', 'C', 'C', 'C']","[325470, 326115, 326730, 327352, 327952, 328552, 329156, 329763, 330361, 330935, 331527, 332123, 332680, 333279, 333864, 334473, 335026, 335620, 336209, 336809, 337361, 337966]","[325539, 326173, 326764, 327405, 328006, 328611, 329232, 329805, 330389, 331012, 331646, 332192, 332801, 333351, 333957, 334561, 335141, 335699, 336316, 336896, 337512, 338054]","[324354, 324953, 325553, 326152, 326752, 327352, 327952, 328552, 329182, 329789, 330387, 330960, 331552, 332148, 332706, 333304, 333890, 334498, 335051, 335645, 336235, 336835, 337387, 337991]",26,R,ITM,1.1,
5,400,trial,0,8,8,8,trial,"['S', 'S', 'S', 'S', 'S', 'S', 'C', 'C', 'C', 'C', 'C', 'C', 'C', 'C', 'C', 'C', 'C', 'C', 'C', 'C', 'C', 'C']","[344349, 344687, 345085, 345500, 345913, 346311, 347082, 347445, 347828, 348226, 348611, 348997, 349375, 349849, 350229, 350616, 351002, 351393, 351757, 352150, 352541, 352920]","[344382, 344740, 345121, 345539, 345944, 346368, 347146, 347473, 347864, 348252, 348645, 349044, 349436, 349918, 350307, 350655, 351031, 351420, 351799, 352206, 352599, 352947]","[343540, 343940, 344339, 344739, 345139, 345539, 345939, 346339, 347108, 347470, 347854, 348252, 348638, 349023, 349401, 349875, 350255, 350642, 351028, 351419, 351783, 352176, 352567, 352947]",26,R,ITM,1.1,
3,400,trial,0,9,9,9,trial,"['S', 'S', 'S', 'S', 'S', 'S', 'C', 'C', 'C', 'C', 'C', 'C', 'C', 'C', 'C', 'C', 'C', 'C', 'C', 'C', 'C', 'C']","[359008, 359413, 359828, 360254, 360636, 361055, 361465, 361840, 362224, 362596, 362990, 363369, 363772, 364162, 364563, 364975, 365378, 365773, 366146, 366529, 366886, 367293]","[359055, 359483, 359889, 360299, 360681, 361082, 361495, 361902, 362250, 362654, 363016, 363420, 363824, 364220, 364621, 365026, 365435, 365818, 366174, 366579, 366938, 367338]","[358280, 358680, 359080, 359480, 359880, 360281, 360680, 361080, 361491, 361866, 362250, 362621, 363016, 363395, 363798, 364187, 364589, 365000, 365404, 365799, 366172, 366555, 366912, 367319]",26,R,ITM,1.1,
6,400,trial,0,10,10,10,trial,"['S', 'S', 'S', 'S', 'S', 'S', 'C', 'C', 'C', 'C', 'C', 'C', 'C', 'C', 'C', 'C', 'C', 'C', 'C', 'C', 'C', 'C']","[373718, 374107, 374526, 374938, 375345, 375745, 376130, 376498, 376900, 377279, 377664, 378060, 378437, 378836, 379201, 379608, 379965, 380374, 380753, 381134, 381524, 381916]","[373794, 374172, 374600, 374994, 375412, 375791, 376164, 376528, 376936, 377327, 377700, 378099, 378492, 378872, 379264, 379635, 380004, 380401, 380801, 381173, 381579, 381947]","[372984, 373384, 373784, 374184, 374584, 374984, 375385, 375784, 376158, 376525, 376927, 377306, 377691, 378087, 378465, 378863, 379229, 379635, 379992, 380401, 380781, 381161, 381550, 381942]",26,R,ITM,1.1,
6,400,trial,0,11,11,11,trial,"['S', 'S', 'S', 'S', 'S', 'S', 'C', 'C', 'C', 'C', 'C', 'C', 'C', 'C', 'C', 'C', 'C', 'C', 'C', 'C', 'C', 'C']","[388236, 388634, 389044, 389455, 389828, 390217, 390611, 391025, 391421, 391830, 392230, 392615, 393004, 393405, 393799, 394180, 394577, 394989, 395378, 395776, 396154, 396548]","[388297, 388703, 389086, 389486, 389903, 390267, 390667, 391080, 391469, 391857, 392257, 392656, 393047, 393432, 393828, 394243, 394610, 395026, 395456, 395802, 396208, 396612]","[387497, 387897, 388297, 388698, 389097, 389497, 389897, 390297, 390638, 391052, 391448, 391857, 392257, 392643, 393031, 393432, 393826, 394207, 394604, 395016, 395406, 395802, 396181, 396574]",26,R,ITM,1.1,
2,400,trial,0,12,12,12,trial,"['S', 'S', 'S', 'S', 'S', 'S', 'C', 'C', 'C', 'C', 'C', 'C', 'C', 'C', 'C', 'C', 'C', 'C', 'C', 'C', 'C', 'C']","[402762, 403180, 403580, 404009, 404412, 404804, 405206, 405641, 405998, 406395, 406788, 407186, 407569, 407985, 408365, 408758, 409155, 409541, 409930, 410334, 410748, 411106]","[402838, 403226, 403648, 404044, 404476, 404843, 405268, 405668, 406055, 406423, 406851, 407226, 407597, 408025, 408428, 408811, 409182, 409596, 409957, 410361, 410776, 411154]","[402038, 402439, 402838, 403238, 403637, 404038, 404438, 404837, 405232, 405668, 406025, 406423, 406814, 407213, 407597, 408011, 408392, 408785, 409182, 409569, 409957, 410361, 410776, 411133]",26,R,ITM,1.1,
5,600,trial,0,13,13,13,trial,"['S', 'S', 'S', 'S', 'S', 'S', 'C', 'C', 'C', 'C', 'C', 'C', 'C', 'C', 'C', 'C', 'C', 'C', 'C', 'C', 'C', 'C']","[417949, 418623, 419232, 419832, 420432, 421036, 421645, 422274, 422893, 423521, 424174, 424782, 425368, 425959, 426582, 427194, 427839, 428491, 429110, 429713, 430314, 430910]","[418045, 418689, 419265, 419898, 420520, 421086, 421742, 422324, 422935, 423548, 424200, 424845, 425474, 426046, 426688, 427282, 427938, 428576, 429222, 429778, 430446, 431002]","[416833, 417432, 418032, 418632, 419232, 419832, 420432, 421032, 421670, 422299, 422919, 423546, 424200, 424808, 425394, 425985, 426607, 427219, 427865, 428517, 429135, 429739, 430340, 430936]",26,R,ITM,1.1,
2,600,trial,0,14,14,14,trial,"['S', 'S', 'S', 'S', 'S', 'C', 'C', 'C', 'C', 'C', 'C', 'C', 'C', 'C', 'C', 'C', 'C', 'C', 'C', 'C', 'C']","[437829, 438441, 439040, 440255, 440858, 441475, 442065, 442708, 443308, 443913, 444531, 445138, 445763, 446355, 446915, 447590, 448201, 448816, 449381, 449994, 450600]","[437849, 438484, 439086, 440316, 440937, 441533, 442140, 442783, 443365, 443983, 444622, 445217, 445892, 446407, 446989, 447643, 448276, 448887, 449463, 450078, 450686]","[436681, 437280, 437880, 438481, 439081, 439682, 440282, 440881, 441501, 442092, 442736, 443335, 443940, 444559, 445165, 445791, 446382, 446942, 447618, 448228, 448842, 449409, 450021, 450628]",26,R,ITM,1.1,
7,400,trial,0,15,15,15,trial,"['S', 'S', 'S', 'S', 'S', 'S', 'C', 'C', 'C', 'C', 'C', 'C', 'C', 'C', 'C', 'C', 'C', 'C', 'C', 'C', 'C', 'C']","[456733, 457103, 457512, 457921, 458326, 458719, 459097, 459491, 459846, 460215, 460575, 460987, 461372, 461757, 462138, 462512, 462888, 463260, 463642, 464029, 464406, 464794]","[456780, 457168, 457577, 457967, 458371, 458790, 459165, 459518, 459909, 460255, 460639, 461049, 461441, 461810, 462213, 462568, 462967, 463335, 463717, 464086, 464479, 464822]","[456000, 456399, 456799, 457199, 457600, 457999, 458399, 458800, 459124, 459518, 459873, 460241, 460603, 461015, 461400, 461785, 462166, 462539, 462915, 463287, 463669, 464057, 464433, 464822]",26,R,ITM,1.1,
7,600,trial,0,16,16,16,trial,"['S', 'S', 'S', 'S', 'S', 'S', 'S', 'C', 'C', 'C', 'C', 'C', 'C', 'C', 'C', 'C', 'C', 'C', 'C', 'C', 'C', 'C', 'C']","[471053, 471484, 472084, 472694, 473334, 473895, 474457, 475079, 475683, 476299, 476899, 477544, 478152, 478751, 479385, 479995, 480592, 481239, 481813, 482437, 483030, 483654, 484254]","[471110, 471556, 472148, 472769, 473391, 473960, 474525, 475124, 475746, 476372, 476961, 477608, 478192, 478854, 479457, 480062, 480691, 481337, 481916, 482532, 483101, 483715, 484333]","[470320, 470919, 471518, 472118, 472718, 473318, 473918, 474518, 475106, 475710, 476325, 476925, 477571, 478179, 478778, 479412, 480022, 480620, 481266, 481840, 482464, 483057, 483682, 484281]",26,R,ITM,1.1,
5,600,trial,0,17,17,17,trial,"['S', 'S', 'S', 'S', 'S', 'S', 'C', 'C', 'C', 'C', 'C', 'C', 'C', 'C', 'C', 'C', 'C', 'C', 'C', 'C', 'C', 'C']","[490897, 491516, 492151, 492736, 493332, 493927, 494513, 495101, 495662, 496233, 496819, 497427, 498033, 498601, 499218, 499807, 500427, 501038, 501627, 502205, 502814, 503405]","[491055, 491672, 492263, 492862, 493461, 494030, 494644, 495206, 495789, 496348, 496942, 497531, 498156, 498759, 499371, 499976, 500550, 501210, 501822, 502411, 503006, 503593]","[489777, 490375, 490975, 491575, 492175, 492775, 493375, 493975, 494538, 495127, 495687, 496259, 496844, 497453, 498060, 498627, 499245, 499832, 500454, 501063, 501654, 502231, 502840, 503432]",26,R,ITM,1.1,
3,600,trial,0,18,18,18,trial,"['S', 'S', 'S', 'S', 'S', 'S', 'S', 'C', 'C', 'C', 'C', 'C', 'C', 'C', 'C', 'C', 'C', 'C', 'C', 'C', 'C', 'C', 'C']","[526469, 527142, 527771, 528387, 528988, 529575, 530186, 530771, 531375, 531961, 532558, 533178, 533782, 534349, 534951, 535545, 536187, 536768, 537353, 537926, 538537, 539138, 539712]","[526572, 527234, 527874, 528486, 529089, 529670, 530269, 530868, 531471, 532070, 532667, 533286, 533879, 534452, 535048, 535642, 536268, 536852, 537418, 538029, 538612, 539245, 539788]","[525986, 526586, 527186, 527787, 528387, 528987, 529586, 530186, 530797, 531400, 531987, 532584, 533203, 533808, 534375, 534977, 535571, 536213, 536794, 537378, 537952, 538562, 539163, 539738]",26,R,ITM,1.1,
3,600,trial,0,19,19,19,trial,"['S', 'S', 'S', 'S', 'S', 'S', 'C', 'C', 'C', 'C', 'C', 'C', 'C', 'C', 'C', 'C', 'C', 'C', 'C', 'C', 'C', 'C']","[546281, 546916, 547499, 548099, 548698, 549312, 549940, 550529, 551129, 551752, 552295, 552904, 553477, 554054, 554656, 555278, 555863, 556443, 557031, 557626, 558225, 558832]","[546376, 546970, 547578, 548170, 548784, 549406, 550018, 550615, 551191, 551836, 552348, 552994, 553563, 554150, 554753, 555383, 555971, 556552, 557140, 557757, 558372, 558964]","[545166, 545766, 546366, 546966, 547566, 548166, 548766, 549366, 549965, 550554, 551154, 551778, 552321, 552930, 553502, 554080, 554682, 555303, 555888, 556469, 557057, 557651, 558251, 558858]",26,R,ITM,1.1,
5,400,trial,0,20,20,20,trial,"['S', 'S', 'S', 'S', 'C', 'C', 'C', 'C', 'C', 'C', 'C', 'C', 'C', 'C', 'C', 'C', 'C', 'C', 'C', 'C']","[566068, 566480, 566905, 567309, 567704, 568096, 568462, 568861, 569255, 569636, 570016, 570402, 570779, 571155, 571544, 571921, 572277, 572673, 573058, 573427]","[566152, 566540, 566968, 567389, 567771, 568155, 568544, 568916, 569323, 569691, 570089, 570464, 570845, 571216, 571606, 571954, 572345, 572717, 573113, 573479]","[564564, 564964, 565364, 565765, 566164, 566564, 566964, 567364, 567730, 568123, 568487, 568887, 569281, 569662, 570042, 570428, 570805, 571181, 571570, 571947, 572303, 572698, 573084, 573453]",26,R,ITM,1.1,
7,400,trial,0,21,21,21,trial,"['S', 'S', 'S', 'S', 'S', 'S', 'C', 'C', 'C', 'C', 'C', 'C', 'C', 'C', 'C', 'C', 'C', 'C', 'C', 'C', 'C', 'C']","[579833, 580252, 580646, 581026, 581442, 581821, 582270, 582656, 583052, 583439, 583841, 584211, 584626, 584994, 585392, 585797, 586177, 586543, 586935, 587333, 587711, 588081]","[579908, 580316, 580707, 581085, 581496, 581898, 582323, 582719, 583116, 583505, 583911, 584271, 584677, 585059, 585475, 585839, 586244, 586590, 587004, 587366, 587779, 588137]","[579108, 579507, 579907, 580307, 580707, 581107, 581508, 581907, 582297, 582682, 583079, 583465, 583869, 584239, 584652, 585022, 585419, 585824, 586204, 586569, 586961, 587360, 587739, 588107]",26,R,ITM,1.1,
6,600,trial,0,22,22,22,trial,"['S', 'S', 'S', 'S', 'S', 'S', 'C', 'C', 'C', 'C', 'C', 'C', 'C', 'C', 'C', 'C', 'C', 'C', 'C', 'C', 'C', 'C']","[594794, 595438, 596074, 596685, 597230, 597812, 598436, 599044, 599672, 600300, 600898, 601482, 602078, 602670, 603290, 603924, 604520, 605107, 605745, 606328, 606926, 607534]","[594896, 595547, 596167, 596762, 597315, 597880, 598532, 599114, 599733, 600361, 600966, 601553, 602157, 602737, 603377, 604000, 604582, 605184, 605798, 606420, 607022, 607629]","[593665, 594265, 594865, 595464, 596064, 596664, 597264, 597864, 598463, 599070, 599699, 600328, 600925, 601508, 602105, 602697, 603318, 603951, 604547, 605134, 605771, 606356, 606953, 607561]",26,R,ITM,1.1,
7,600,trial,0,23,23,23,trial,"['S', 'S', 'S', 'S', 'S', 'S', 'C', 'C', 'C', 'C', 'C', 'C', 'C', 'C', 'C', 'C', 'C', 'C', 'C', 'C', 'C', 'C']","[614109, 614766, 615415, 615993, 616603, 617212, 617815, 618434, 619033, 619659, 620239, 620884, 621491, 622096, 622686, 623262, 623878, 624487, 625075, 625658, 626272, 626906]","[614204, 614844, 615491, 616087, 616706, 617306, 617891, 618514, 619101, 619727, 620326, 620955, 621544, 622153, 622776, 623336, 623946, 624566, 625146, 625726, 626351, 626968]","[612995, 613594, 614194, 614793, 615393, 615993, 616593, 617193, 617841, 618462, 619060, 619685, 620266, 620911, 621517, 622124, 622713, 623289, 623904, 624515, 625102, 625685, 626298, 626932]",26,R,ITM,1.1,
4,600,trial,0,24,24,24,trial,"['S', 'S', 'S', 'S', 'S', 'S', 'C', 'C', 'C', 'C', 'C', 'C', 'C', 'C', 'C', 'C', 'C', 'C', 'C', 'C', 'C', 'C']","[633312, 633967, 634560, 635225, 635785, 636372, 636985, 637589, 638157, 638737, 639336, 639866, 640470, 641094, 643439, 644030, 644620, 645259, 645836, 646423, 647006, 647607]","[633396, 634045, 634626, 635288, 635843, 636473, 637090, 637682, 638239, 638828, 639428, 639946, 640542, 641143, 643565, 644150, 644718, 645371, 645968, 646532, 647132, 647726]","[632217, 632816, 633416, 634016, 634616, 635216, 635816, 636417, 637010, 637615, 638184, 638764, 639362, 639892, 640495, 641120, 643465, 644056, 644645, 645285, 645863, 646449, 647031, 647632]",26,R,ITM,1.1,
4,400,trial,0,25,25,25,trial,"['S', 'S', 'S', 'S', 'S', 'S', 'C', 'C', 'C', 'C', 'C', 'C', 'C', 'C', 'C', 'C', 'C', 'C', 'C', 'C', 'C', 'C']","[653850, 654238, 654666, 655090, 655493, 655901, 656294, 656683, 657089, 657480, 657878, 658263, 658649, 659045, 659443, 659825, 660215, 660580, 660961, 661356, 661734, 662120]","[653919, 654306, 654742, 655145, 655575, 655963, 656368, 656745, 657157, 657542, 657948, 658319, 658721, 659098, 659518, 659888, 660254, 660636, 661030, 661406, 661813, 662178]","[653137, 653537, 653937, 654338, 654737, 655137, 655538, 655938, 656320, 656708, 657115, 657506, 657903, 658288, 658674, 659070, 659469, 659851, 660241, 660605, 660986, 661382, 661760, 662146]",26,R,ITM,1.1,
3,400,trial,0,26,26,26,trial,"['S', 'S', 'S', 'S', 'S', 'S', 'C', 'C', 'C', 'C', 'C', 'C', 'C', 'C', 'C', 'C', 'C', 'C', 'C', 'C', 'C', 'C']","[668394, 668792, 669197, 669603, 669985, 670386, 670785, 671204, 671596, 671971, 672353, 672785, 673153, 673530, 673910, 674291, 674697, 675087, 675459, 675837, 676217, 676612]","[668466, 668849, 669260, 669659, 670071, 670450, 670862, 671246, 671661, 672046, 672431, 672827, 673225, 673594, 673980, 674356, 674765, 675147, 675517, 675889, 676271, 676656]","[667649, 668048, 668448, 668849, 669248, 669648, 670048, 670448, 670811, 671229, 671622, 671996, 672378, 672811, 673178, 673556, 673937, 674317, 674722, 675112, 675484, 675863, 676243, 676637]",26,R,ITM,1.1,
4,400,trial,0,27,27,27,trial,"['S', 'S', 'S', 'S', 'S', 'S', 'C', 'C', 'C', 'C', 'C', 'C', 'C', 'C', 'C', 'C', 'C', 'C', 'C', 'C', 'C', 'C']","[683023, 683420, 683828, 684239, 684619, 685007, 685411, 685809, 686206, 686607, 686993, 687344, 687775, 688202, 688593, 688986, 689374, 689786, 690180, 690557, 690947, 691371]","[683081, 683480, 683909, 684290, 684696, 685067, 685493, 685863, 686280, 686650, 687034, 687400, 687840, 688264, 688659, 689031, 689444, 689824, 690216, 690598, 690992, 691403]","[682265, 682664, 683064, 683464, 683865, 684264, 684664, 685064, 685437, 685835, 686231, 686632, 687019, 687370, 687801, 688228, 688619, 689011, 689399, 689812, 690206, 690583, 690972, 691397]",26,R,ITM,1.1,
2,400,trial,0,28,28,28,trial,"['S', 'S', 'S', 'S', 'S', 'S', 'C', 'C', 'C', 'C', 'C', 'C', 'C', 'C', 'C', 'C', 'C', 'C', 'C', 'C', 'C', 'C']","[697682, 698070, 698489, 698882, 699280, 699715, 700129, 700528, 700939, 701341, 701741, 702162, 702526, 702938, 703341, 703740, 704152, 704545, 704950, 705328, 705747, 706145]","[697752, 698128, 698555, 698927, 699322, 699748, 700181, 700572, 700999, 701388, 701805, 702202, 702588, 702979, 703389, 703791, 704188, 704579, 705005, 705377, 705811, 706172]","[696947, 697348, 697746, 698147, 698548, 698947, 699347, 699748, 700156, 700556, 700965, 701369, 701768, 702189, 702553, 702965, 703369, 703768, 704179, 704573, 704977, 705355, 705774, 706172]",26,R,ITM,1.1,
6,600,trial,0,29,29,29,trial,"['S', 'S', 'S', 'S', 'S', 'S', 'C', 'C', 'C', 'C', 'C', 'C', 'C', 'C', 'C', 'C', 'C', 'C', 'C', 'C', 'C', 'C']","[712864, 713498, 714167, 714710, 715317, 715945, 716556, 717149, 717771, 718374, 718973, 719583, 720204, 720826, 721431, 722055, 722661, 723302, 723910, 724510, 725101, 725691]","[712945, 713585, 714225, 714775, 715370, 716016, 716618, 717216, 717836, 718435, 719042, 719634, 720264, 720902, 721488, 722112, 722723, 723348, 723987, 724582, 725174, 725762]","[711745, 712345, 712945, 713545, 714145, 714745, 715345, 715945, 716582, 717175, 717799, 718401, 719001, 719610, 720231, 720852, 721458, 722081, 722689, 723329, 723937, 724538, 725129, 725719]",26,R,ITM,1.1,
2,400,trial,0,30,30,30,trial,"['S', 'S', 'S', 'S', 'S', 'S', 'C', 'C', 'C', 'C', 'C', 'C', 'C', 'C', 'C', 'C', 'C', 'C', 'C', 'C', 'C', 'C']","[753576, 753951, 754367, 754802, 755217, 755628, 756028, 756431, 756846, 757248, 757653, 758028, 758423, 758828, 759211, 759631, 760015, 760408, 760799, 761203, 761595, 761977]","[753627, 754002, 754439, 754862, 755286, 755670, 756085, 756478, 756900, 757297, 757714, 758083, 758470, 758864, 759251, 759665, 760071, 760448, 760835, 761255, 761653, 762031]","[752862, 753260, 753660, 754061, 754461, 754862, 755261, 755661, 756056, 756458, 756873, 757275, 757681, 758054, 758451, 758854, 759238, 759659, 760043, 760434, 760825, 761231, 761622, 762004]",26,R,ITM,1.1,
4,400,trial,0,31,31,31,trial,"['S', 'S', 'S', 'S', 'S', 'S', 'C', 'C', 'C', 'C', 'C', 'C', 'C', 'C', 'C', 'C', 'C', 'C', 'C', 'C', 'C', 'C']","[768081, 768466, 768870, 769246, 769654, 770057, 770461, 770826, 771243, 771644, 772044, 772433, 772823, 773235, 773628, 774011, 774410, 774804, 775212, 775572, 775984, 776347]","[768139, 768521, 768918, 769297, 769701, 770110, 770515, 770868, 771281, 771680, 772094, 772477, 772880, 773274, 773679, 774062, 774453, 774835, 775262, 775613, 776023, 776397]","[767333, 767732, 768133, 768532, 768932, 769332, 769732, 770132, 770487, 770851, 771269, 771671, 772070, 772459, 772848, 773261, 773654, 774037, 774435, 774830, 775237, 775598, 776009, 776373]",26,R,ITM,1.1,
3,600,trial,0,32,32,32,trial,"['S', 'S', 'S', 'S', 'S', 'S', 'C', 'C', 'C', 'C', 'C', 'C', 'C', 'C', 'C', 'C', 'C', 'C', 'C', 'C', 'C', 'C']","[783046, 783682, 784306, 784907, 785469, 786121, 786680, 787268, 787895, 788505, 789125, 789750, 790378, 791016, 791639, 792265, 792895, 793518, 794146, 794776, 795375, 795986]","[783127, 783765, 784380, 784957, 785518, 786172, 786723, 787310, 787934, 788543, 789158, 789788, 790424, 791054, 791669, 792318, 792940, 793564, 794190, 794815, 795445, 796033]","[781894, 782493, 783093, 783693, 784293, 784893, 785494, 786094, 786706, 787294, 787920, 788531, 789150, 789776, 790404, 791042, 791664, 792291, 792921, 793543, 794172, 794802, 795401, 796012]",26,R,ITM,1.1,
5,400,trial,0,33,33,33,trial,"['S', 'S', 'S', 'S', 'S', 'S', 'C', 'C', 'C', 'C', 'C', 'C', 'C', 'C', 'C', 'C', 'C', 'C', 'C', 'C', 'C', 'C']","[802235, 802618, 803001, 803402, 803831, 804261, 804649, 805055, 805443, 805826, 806209, 806617, 807007, 807407, 807803, 808173, 808591, 808970, 809373, 809747, 810148, 810521]","[802293, 802665, 803065, 803462, 803897, 804300, 804705, 805100, 805499, 805869, 806270, 806654, 807068, 807450, 807851, 808220, 808623, 809010, 809426, 809781, 810207, 810561]","[801495, 801893, 802293, 802694, 803093, 803493, 803893, 804293, 804676, 805082, 805469, 805852, 806235, 806642, 807032, 807433, 807829, 808200, 808616, 808995, 809400, 809773, 810174, 810547]",26,R,ITM,1.1,
4,400,trial,0,34,34,34,trial,"['S', 'S', 'S', 'S', 'S', 'S', 'C', 'C', 'C', 'C', 'C', 'C', 'C', 'C', 'C', 'C', 'C', 'C', 'C', 'C', 'C', 'C']","[816965, 817335, 817756, 818149, 818554, 818969, 819383, 819758, 820163, 820549, 820959, 821351, 821758, 822144, 822549, 822935, 823339, 823708, 824135, 824522, 824910, 825303]","[817027, 817382, 817811, 818198, 818623, 819012, 819430, 819803, 820225, 820596, 821016, 821393, 821821, 822181, 822621, 822977, 823398, 823762, 824194, 824561, 824967, 825342]","[816207, 816606, 817006, 817406, 817806, 818206, 818607, 819006, 819408, 819783, 820189, 820575, 820984, 821377, 821784, 822169, 822575, 822962, 823365, 823734, 824161, 824548, 824937, 825328]",26,R,ITM,1.1,
2,600,trial,0,35,35,35,trial,"['S', 'S', 'S', 'S', 'S', 'S', 'C', 'C', 'C', 'C', 'C', 'C', 'C', 'C', 'C', 'C', 'C', 'C', 'C', 'C', 'C', 'C']","[832219, 832893, 833522, 834084, 834690, 835279, 835880, 836509, 837155, 837773, 838397, 839050, 839664, 840304, 840912, 841549, 842152, 842796, 843400, 844035, 844662, 845293]","[832311, 832963, 833625, 834150, 834755, 835355, 835975, 836561, 837237, 837831, 838476, 839101, 839746, 840360, 840980, 841610, 842217, 842867, 843493, 844089, 844719, 845371]","[831079, 831678, 832279, 832879, 833479, 834078, 834679, 835278, 835908, 836536, 837183, 837800, 838424, 839077, 839691, 840332, 840939, 841576, 842179, 842822, 843426, 844062, 844690, 845320]",26,R,ITM,1.1,
3,400,trial,0,36,36,36,trial,"['S', 'S', 'S', 'S', 'C', 'C', 'C', 'C', 'C', 'C', 'C', 'C', 'C', 'C', 'C', 'C', 'C', 'C', 'C', 'C']","[852294, 852674, 853102, 853497, 853903, 854296, 854697, 855081, 855481, 855869, 856267, 856662, 857062, 857458, 857861, 858258, 858674, 859057, 859458, 859854]","[852376, 852722, 853158, 853550, 853970, 854327, 854748, 855134, 855533, 855923, 856311, 856714, 857125, 857520, 857925, 858310, 858721, 859104, 859512, 859905]","[850777, 851176, 851576, 851976, 852376, 852776, 853176, 853576, 853928, 854322, 854723, 855107, 855506, 855895, 856293, 856687, 857088, 857484, 857886, 858285, 858699, 859082, 859484, 859880]",26,R,ITM,1.1,
6,400,trial,0,37,37,37,trial,"['S', 'S', 'S', 'S', 'S', 'S', 'C', 'C', 'C', 'C', 'C', 'C', 'C', 'C', 'C', 'C', 'C', 'C', 'C', 'C', 'C', 'C']","[865994, 866366, 866769, 867184, 867588, 867965, 868380, 868766, 869146, 869572, 869945, 870326, 870723, 871099, 871468, 871858, 872239, 872621, 873014, 873411, 873801, 874194]","[866045, 866413, 866846, 867241, 867659, 868041, 868455, 868820, 869233, 869619, 870025, 870369, 870796, 871151, 871541, 871902, 872305, 872666, 873078, 873458, 873888, 874251]","[865234, 865633, 866033, 866434, 866833, 867233, 867634, 868033, 868408, 868793, 869173, 869600, 869971, 870352, 870750, 871126, 871494, 871884, 872265, 872647, 873041, 873438, 873829, 874221]",26,R,ITM,1.1,
6,600,trial,0,38,38,38,trial,"['S', 'S', 'S', 'S', 'S', 'S', 'C', 'C', 'C', 'C', 'C', 'C', 'C', 'C', 'C', 'C', 'C', 'C', 'C', 'C', 'C', 'C']","[881060, 881789, 882393, 882997, 883589, 884163, 884772, 885413, 886023, 886636, 887268, 887892, 888508, 889113, 889769, 890375, 890979, 891552, 892199, 892831, 893496, 894129]","[881152, 881844, 882462, 883061, 883655, 884235, 884859, 885471, 886104, 886701, 887352, 887946, 888579, 889164, 889856, 890458, 891069, 891624, 892267, 892884, 893553, 894180]","[879987, 880586, 881186, 881786, 882386, 882987, 883587, 884187, 884799, 885441, 886049, 886663, 887294, 887919, 888535, 889141, 889796, 890401, 891006, 891580, 892227, 892858, 893523, 894155]",26,R,ITM,1.1,
2,600,trial,0,39,39,39,trial,"['S', 'S', 'S', 'S', 'S', 'S', 'C', 'C', 'C', 'C', 'C', 'C', 'C', 'C', 'C', 'C', 'C', 'C', 'C', 'C', 'C', 'C']","[900748, 901344, 901920, 902531, 903166, 903805, 904403, 905023, 905584, 906205, 906809, 907422, 908017, 908608, 909224, 909850, 910438, 911040, 911640, 912238, 912846, 913482]","[900803, 901415, 901997, 902616, 903242, 903881, 904480, 905086, 905672, 906270, 906895, 907485, 908086, 908688, 909302, 909897, 910507, 911127, 911707, 912299, 912930, 913546]","[899615, 900215, 900814, 901415, 902014, 902616, 903215, 903816, 904431, 905050, 905611, 906232, 906836, 907449, 908044, 908635, 909252, 909878, 910465, 911067, 911668, 912265, 912873, 913509]",26,R,ITM,1.1,
3,400,trial,0,40,40,40,trial,"['S', 'S', 'S', 'S', 'S', 'S', 'C', 'C', 'C', 'C', 'C', 'C', 'C', 'C', 'C', 'C', 'C', 'C', 'C', 'C', 'C', 'C']","[919635, 919991, 920410, 920843, 921253, 921657, 922072, 922463, 922853, 923239, 923632, 924016, 924426, 924828, 925235, 925611, 926016, 926412, 926798, 927184, 927589, 927975]","[919709, 920050, 920477, 920885, 921315, 921711, 922125, 922511, 922920, 923291, 923705, 924075, 924498, 924878, 925301, 925658, 926082, 926456, 926863, 927222, 927640, 928025]","[918899, 919300, 919699, 920099, 920499, 920899, 921299, 921699, 922097, 922488, 922878, 923265, 923658, 924042, 924451, 924854, 925260, 925636, 926042, 926438, 926824, 927210, 927614, 928001]",26,R,ITM,1.1,
5,400,trial,0,41,41,41,trial,"['S', 'S', 'S', 'S', 'S', 'S', 'C', 'C', 'C', 'C', 'C', 'C', 'C', 'C', 'C', 'C', 'C', 'C', 'C', 'C', 'C', 'C']","[934440, 934820, 935226, 935636, 936059, 936461, 936862, 937264, 937666, 938054, 938442, 938834, 939233, 939622, 940027, 940397, 940803, 941204, 941599, 941991, 942391, 942791]","[934514, 934879, 935287, 935693, 936114, 936502, 936916, 937308, 937730, 938092, 938498, 938891, 939294, 939666, 940079, 940444, 940858, 941240, 941665, 942040, 942452, 942842]","[933711, 934110, 934510, 934910, 935310, 935710, 936111, 936510, 936888, 937290, 937693, 938080, 938468, 938861, 939258, 939648, 940053, 940423, 940829, 941231, 941626, 942017, 942416, 942817]",26,R,ITM,1.1,
5,600,trial,0,42,42,42,trial,"['S', 'S', 'S', 'S', 'S', 'S', 'C', 'C', 'C', 'C', 'C', 'C', 'C', 'C', 'C', 'C', 'C', 'C', 'C', 'C', 'C', 'C']","[951310, 951991, 952605, 953181, 953797, 954401, 954997, 955590, 956178, 956769, 957375, 957968, 958541, 959126, 959730, 960326, 960955, 961566, 962177, 962810, 963391, 963990]","[951385, 952051, 952664, 953229, 953848, 954444, 955051, 955633, 956237, 956803, 957420, 958004, 958606, 959170, 959795, 960368, 961005, 961609, 962229, 962856, 963467, 964016]","[950216, 950815, 951415, 952015, 952615, 953216, 953816, 954416, 955023, 955617, 956204, 956794, 957402, 957995, 958568, 959153, 959756, 960352, 960980, 961592, 962202, 962836, 963417, 964016]",26,R,ITM,1.1,
2,400,trial,0,43,43,43,trial,"['S', 'S', 'S', 'S', 'S', 'S', 'C', 'C', 'C', 'C', 'C', 'C', 'C', 'C', 'C', 'C', 'C', 'C', 'C', 'C', 'C', 'C']","[970118, 970480, 970893, 971329, 971759, 972171, 972578, 972971, 973370, 973755, 974172, 974547, 974923, 975345, 975755, 976155, 976557, 976950, 977364, 977739, 978154, 978564]","[970172, 970528, 970950, 971377, 971802, 972211, 972606, 972998, 973406, 973795, 974223, 974589, 974987, 975388, 975807, 976204, 976608, 976990, 977397, 977780, 978200, 978600]","[969397, 969797, 970198, 970597, 970996, 971398, 971797, 972197, 972606, 972998, 973396, 973782, 974199, 974575, 974951, 975372, 975782, 976183, 976583, 976977, 977392, 977767, 978182, 978590]",26,R,ITM,1.1,
6,600,trial,0,44,44,44,trial,"['S', 'S', 'S', 'S', 'S', 'S', 'C', 'C', 'C', 'C', 'C', 'C', 'C', 'C', 'C', 'C', 'C', 'C', 'C', 'C', 'C', 'C']","[985262, 985887, 986508, 987078, 987656, 988259, 988898, 989492, 990114, 990705, 991315, 991915, 992526, 993118, 993735, 994307, 994933, 995522, 996152, 996741, 997380, 997996]","[985323, 985939, 986550, 987112, 987708, 988297, 988949, 989531, 990166, 990740, 991361, 991953, 992560, 993163, 993784, 994359, 994980, 995557, 996200, 996782, 997420, 998032]","[984110, 984709, 985309, 985908, 986508, 987108, 987708, 988308, 988924, 989518, 990141, 990732, 991342, 991941, 992553, 993144, 993762, 994333, 994960, 995550, 996178, 996767, 997406, 998023]",26,R,ITM,1.1,
7,400,trial,0,45,45,45,trial,"['S', 'S', 'S', 'S', 'S', 'S', 'C', 'C', 'C', 'C', 'C', 'C', 'C', 'C', 'C', 'C', 'C', 'C', 'C', 'C', 'C', 'C']","[1004508, 1004887, 1005325, 1005743, 1006125, 1006545, 1006957, 1007336, 1007744, 1008137, 1008535, 1008935, 1009333, 1009725, 1010132, 1010521, 1010909, 1011306, 1011707, 1012085, 1012478, 1012882]","[1004557, 1004947, 1005382, 1005787, 1006183, 1006595, 1007008, 1007394, 1007820, 1008188, 1008587, 1008974, 1009390, 1009769, 1010187, 1010569, 1010960, 1011359, 1011748, 1012130, 1012537, 1012913]","[1003770, 1004169, 1004569, 1004969, 1005369, 1005769, 1006170, 1006569, 1006984, 1007363, 1007771, 1008163, 1008563, 1008962, 1009360, 1009752, 1010160, 1010547, 1010935, 1011333, 1011734, 1012113, 1012506, 1012909]",26,R,ITM,1.1,
4,600,trial,0,46,46,46,trial,"['S', 'S', 'S', 'S', 'S', 'S', 'C', 'C', 'C', 'C', 'C', 'C', 'C', 'C', 'C', 'C', 'C', 'C', 'C', 'C', 'C', 'C']","[1019337, 1019953, 1020562, 1021153, 1021753, 1022371, 1022988, 1023583, 1024158, 1024747, 1025319, 1025935, 1026543, 1027140, 1027737, 1028340, 1028938, 1029519, 1030127, 1030732, 1031341, 1031936]","[1019411, 1020021, 1020641, 1021201, 1021809, 1022425, 1023046, 1023635, 1024184, 1024786, 1025345, 1025982, 1026593, 1027191, 1027795, 1028395, 1029009, 1029558, 1030183, 1030789, 1031415, 1031997]","[1018200, 1018799, 1019399, 1019999, 1020599, 1021199, 1021799, 1022399, 1023013, 1023608, 1024184, 1024773, 1025345, 1025960, 1026569, 1027166, 1027764, 1028366, 1028964, 1029544, 1030153, 1030758, 1031366, 1031961]",26,R,ITM,1.1,
6,400,trial,0,47,47,47,trial,"['S', 'S', 'S', 'S', 'S', 'S', 'C', 'C', 'C', 'C', 'C', 'C', 'C', 'C', 'C', 'C', 'C', 'C', 'C', 'C', 'C', 'C']","[1038177, 1038563, 1038950, 1039335, 1039791, 1040211, 1040626, 1041051, 1041473, 1041857, 1042271, 1042672, 1043094, 1043470, 1043879, 1044259, 1044688, 1045075, 1045508, 1045875, 1046292, 1046702]","[1038223, 1038612, 1039014, 1039396, 1039839, 1040271, 1040687, 1041103, 1041516, 1041910, 1042319, 1042719, 1043139, 1043517, 1043932, 1044311, 1044754, 1045124, 1045549, 1045942, 1046355, 1046756]","[1037451, 1037850, 1038251, 1038650, 1039050, 1039451, 1039850, 1040250, 1040653, 1041078, 1041501, 1041885, 1042297, 1042699, 1043122, 1043496, 1043906, 1044286, 1044715, 1045102, 1045534, 1045902, 1046320, 1046728]",26,R,ITM,1.1,
5,600,trial,0,48,48,48,trial,"['S', 'S', 'S', 'S', 'S', 'S', 'C', 'C', 'C', 'C', 'C', 'C', 'C', 'C', 'C', 'C', 'C', 'C', 'C', 'C', 'C', 'C']","[1053259, 1053922, 1054535, 1055149, 1055720, 1056309, 1056922, 1057550, 1058163, 1058763, 1059367, 1060005, 1060610, 1061231, 1061841, 1062465, 1063028, 1063616, 1064217, 1064818, 1065412, 1066028]","[1053335, 1053975, 1054601, 1055208, 1055795, 1056363, 1056966, 1057607, 1058227, 1058823, 1059418, 1060059, 1060659, 1061282, 1061911, 1062518, 1063098, 1063666, 1064283, 1064875, 1065473, 1066083]","[1052136, 1052735, 1053335, 1053935, 1054535, 1055135, 1055735, 1056335, 1056949, 1057576, 1058189, 1058789, 1059393, 1060032, 1060635, 1061257, 1061867, 1062492, 1063054, 1063642, 1064243, 1064844, 1065439, 1066054]",26,R,ITM,1.1,
3,600,trial,0,49,49,49,trial,"['S', 'S', 'S', 'S', 'S', 'S', 'C', 'C', 'C', 'C', 'C', 'C', 'C', 'C', 'C', 'C', 'C', 'C', 'C', 'C', 'C', 'C']","[1072942, 1073556, 1074168, 1074791, 1075401, 1075999, 1076598, 1077199, 1077773, 1078384, 1078959, 1079563, 1080145, 1080750, 1081364, 1081942, 1082547, 1083132, 1083748, 1084340, 1084954, 1085553]","[1073008, 1073605, 1074241, 1074850, 1075465, 1076068, 1076678, 1077250, 1077859, 1078414, 1079014, 1079607, 1080197, 1080801, 1081428, 1081992, 1082615, 1083200, 1083803, 1084383, 1084995, 1085603]","[1071841, 1072441, 1073041, 1073641, 1074241, 1074841, 1075441, 1076041, 1076624, 1077225, 1077798, 1078410, 1078984, 1079588, 1080171, 1080775, 1081390, 1081967, 1082572, 1083158, 1083773, 1084365, 1084980, 1085579]",26,R,ITM,1.1,
7,600,trial,0,50,50,50,trial,"['S', 'S', 'S', 'S', 'S', 'S', 'C', 'C', 'C', 'C', 'C', 'C', 'C', 'C', 'C', 'C', 'C', 'C', 'C', 'C', 'C', 'C']","[1092178, 1092764, 1093426, 1094018, 1094577, 1095164, 1095772, 1096381, 1096938, 1097546, 1098153, 1098732, 1099315, 1099860, 1100456, 1101058, 1101649, 1102230, 1102823, 1103429, 1103995, 1104604]","[1092230, 1092817, 1093474, 1094064, 1094633, 1095216, 1095825, 1096426, 1097016, 1097598, 1098200, 1098780, 1099352, 1099900, 1100508, 1101113, 1101713, 1102307, 1102896, 1103470, 1104073, 1104655]","[1091048, 1091647, 1092247, 1092847, 1093447, 1094047, 1094647, 1095247, 1095798, 1096408, 1096965, 1097573, 1098181, 1098760, 1099341, 1099888, 1100484, 1101085, 1101677, 1102257, 1102851, 1103456, 1104023, 1104630]",26,R,ITM,1.1,
4,600,trial,0,51,51,51,trial,"['S', 'S', 'S', 'S', 'S', 'S', 'C', 'C', 'C', 'C', 'C', 'C', 'C', 'C', 'C', 'C', 'C', 'C', 'C', 'C', 'C', 'C']","[1111056, 1111649, 1112284, 1112914, 1113470, 1114072, 1114688, 1115261, 1115854, 1116441, 1117037, 1117647, 1118242, 1118818, 1119416, 1120016, 1120609, 1121216, 1121787, 1122375, 1122948, 1123550]","[1111145, 1111709, 1112365, 1112960, 1113545, 1114092, 1114742, 1115314, 1115924, 1116544, 1117114, 1117704, 1118296, 1118886, 1119482, 1120066, 1120663, 1121272, 1121856, 1122449, 1123030, 1123593]","[1109946, 1110545, 1111145, 1111745, 1112345, 1112945, 1113545, 1114145, 1114714, 1115287, 1115880, 1116468, 1117063, 1117673, 1118268, 1118843, 1119441, 1120041, 1120634, 1121243, 1121813, 1122401, 1122973, 1123575]",26,R,ITM,1.1,
7,600,trial,0,52,52,52,trial,"['S', 'S', 'S', 'S', 'S', 'S', 'C', 'C', 'C', 'C', 'C', 'C', 'C', 'C', 'C', 'C', 'C', 'C', 'C', 'C', 'C', 'C']","[1130016, 1130619, 1131248, 1131839, 1132481, 1133079, 1133676, 1134245, 1134832, 1135413, 1136009, 1136590, 1137198, 1137809, 1138396, 1138981, 1139552, 1140148, 1140725, 1141312, 1141892, 1142462]","[1130080, 1130701, 1131355, 1131942, 1132582, 1133169, 1133786, 1134328, 1134930, 1135507, 1136120, 1136733, 1137342, 1137967, 1138549, 1139110, 1139697, 1140311, 1140885, 1141473, 1142064, 1142648]","[1128920, 1129519, 1130119, 1130718, 1131318, 1131918, 1132518, 1133118, 1133704, 1134273, 1134860, 1135439, 1136035, 1136617, 1137224, 1137836, 1138423, 1139008, 1139579, 1140174, 1140752, 1141339, 1141919, 1142490]",26,R,ITM,1.1,
7,400,trial,0,53,53,53,trial,"['S', 'S', 'S', 'S', 'S', 'S', 'S', 'C', 'C', 'C', 'C', 'C', 'C', 'C', 'C', 'C', 'C', 'C', 'C', 'C', 'C', 'C', 'C']","[1148713, 1148965, 1149320, 1149717, 1150137, 1150553, 1150966, 1151374, 1151779, 1152181, 1152576, 1152982, 1153346, 1153769, 1154197, 1154606, 1154996, 1155390, 1155789, 1156185, 1156577, 1156987, 1157380]","[1148776, 1149029, 1149394, 1149777, 1150199, 1150613, 1151025, 1151436, 1151837, 1152245, 1152627, 1153018, 1153402, 1153825, 1154242, 1154682, 1155054, 1155461, 1155856, 1156284, 1156640, 1157064, 1157460]","[1148194, 1148594, 1148993, 1149393, 1149793, 1150193, 1150594, 1150993, 1151400, 1151807, 1152208, 1152604, 1153009, 1153374, 1153797, 1154224, 1154633, 1155023, 1155417, 1155816, 1156211, 1156604, 1157015, 1157407]",26,R,ITM,1.1,
3,600,trial,0,54,54,54,trial,"['S', 'S', 'S', 'S', 'S', 'S', 'C', 'C', 'C', 'C', 'C', 'C', 'C', 'C', 'C', 'C', 'C', 'C', 'C', 'C', 'C', 'C']","[1165175, 1165811, 1166413, 1167040, 1167663, 1168284, 1168871, 1169455, 1170053, 1170651, 1171240, 1171823, 1172432, 1173017, 1173623, 1174213, 1174823, 1175402, 1175989, 1176559, 1177178, 1177773]","[1165256, 1165884, 1166498, 1167120, 1167740, 1168340, 1168934, 1169521, 1170132, 1170701, 1171324, 1171886, 1172501, 1173080, 1173694, 1174287, 1174915, 1175463, 1176065, 1176610, 1177251, 1177829]","[1164085, 1164684, 1165284, 1165884, 1166484, 1167084, 1167684, 1168284, 1168897, 1169480, 1170078, 1170676, 1171266, 1171849, 1172458, 1173043, 1173649, 1174239, 1174849, 1175428, 1176014, 1176585, 1177203, 1177798]",26,R,ITM,1.1,
4,400,trial,0,55,55,55,trial,"['S', 'S', 'S', 'S', 'S', 'S', 'C', 'C', 'C', 'C', 'C', 'C', 'C', 'C', 'C', 'C', 'C', 'C', 'C', 'C', 'C', 'C']","[1184160, 1184528, 1184947, 1185358, 1185753, 1186180, 1186612, 1187013, 1187414, 1187788, 1188177, 1188590, 1188982, 1189393, 1189788, 1190181, 1190585, 1190972, 1191362, 1191754, 1192130, 1192536]","[1184233, 1184579, 1185014, 1185406, 1185824, 1186231, 1186670, 1187070, 1187489, 1187900, 1188320, 1188691, 1189099, 1189509, 1189893, 1190284, 1190701, 1191068, 1191467, 1191868, 1192273, 1192644]","[1183449, 1183847, 1184247, 1184647, 1185047, 1185447, 1185847, 1186247, 1186637, 1187039, 1187439, 1187814, 1188203, 1188616, 1189008, 1189420, 1189814, 1190208, 1190610, 1190998, 1191388, 1191780, 1192156, 1192561]",26,R,ITM,1.1,
2,600,trial,0,56,56,56,trial,"['S', 'S', 'S', 'S', 'S', 'S', 'C', 'C', 'C', 'C', 'C', 'C', 'C', 'C', 'C', 'C', 'C', 'C', 'C', 'C', 'C', 'C']","[1199358, 1199962, 1200563, 1201150, 1201794, 1202394, 1202983, 1203579, 1204172, 1204771, 1205401, 1205991, 1206591, 1207191, 1207791, 1208378, 1208964, 1209555, 1210158, 1210741, 1211363, 1211975]","[1199457, 1200035, 1200643, 1201228, 1201863, 1202457, 1203070, 1203682, 1204269, 1204865, 1205480, 1206080, 1206688, 1207280, 1207871, 1208483, 1209057, 1209665, 1210253, 1210816, 1211479, 1212072]","[1198193, 1198793, 1199393, 1199992, 1200593, 1201193, 1201794, 1202393, 1203011, 1203607, 1204200, 1204799, 1205429, 1206019, 1206619, 1207218, 1207819, 1208404, 1208990, 1209583, 1210185, 1210768, 1211389, 1212002]",26,R,ITM,1.1,
4,600,trial,0,57,57,57,trial,"['S', 'S', 'S', 'S', 'S', 'S', 'C', 'C', 'C', 'C', 'C', 'C', 'C', 'C', 'C', 'C', 'C', 'C', 'C', 'C', 'C', 'C']","[1218627, 1219257, 1219879, 1220492, 1221101, 1221656, 1222250, 1222835, 1223418, 1224013, 1224590, 1225166, 1225772, 1226372, 1226980, 1227618, 1228200, 1228772, 1229380, 1229966, 1230552, 1231121]","[1218749, 1219349, 1219964, 1220585, 1221183, 1221721, 1222323, 1222889, 1223491, 1224101, 1224679, 1225239, 1225865, 1226423, 1227059, 1227677, 1228277, 1228830, 1229456, 1230028, 1230638, 1231191]","[1217550, 1218149, 1218749, 1219349, 1219949, 1220549, 1221149, 1221749, 1222276, 1222860, 1223444, 1224039, 1224615, 1225192, 1225797, 1226397, 1227005, 1227644, 1228226, 1228797, 1229406, 1229991, 1230578, 1231147]",26,R,ITM,1.1,
6,600,trial,0,58,58,58,trial,"['S', 'S', 'S', 'S', 'S', 'S', 'C', 'C', 'C', 'C', 'C', 'C', 'C', 'C', 'C', 'C', 'C', 'C', 'C', 'C', 'C', 'C']","[1237791, 1238425, 1239040, 1239663, 1240244, 1240838, 1241441, 1242021, 1242609, 1243200, 1243789, 1244338, 1244958, 1245541, 1246130, 1246705, 1247298, 1247876, 1248421, 1249009, 1249577, 1250144]","[1237902, 1238525, 1239130, 1239744, 1240315, 1240910, 1241508, 1242097, 1242681, 1243269, 1243851, 1244405, 1245028, 1245633, 1246206, 1246780, 1247349, 1247919, 1248481, 1249069, 1249661, 1250196]","[1236685, 1237284, 1237884, 1238484, 1239085, 1239685, 1240285, 1240884, 1241467, 1242048, 1242636, 1243227, 1243815, 1244364, 1244985, 1245568, 1246156, 1246733, 1247325, 1247902, 1248448, 1249037, 1249605, 1250170]",26,R,ITM,1.1,
4,600,trial,0,59,59,59,trial,"['S', 'S', 'S', 'S', 'S', 'S', 'C', 'C', 'C', 'C', 'C', 'C', 'C', 'C', 'C', 'C', 'C', 'C', 'C', 'C', 'C', 'C']","[1256697, 1257298, 1257914, 1258536, 1259130, 1259725, 1260328, 1260921, 1261509, 1262067, 1262661, 1263259, 1263846, 1264413, 1265025, 1265602, 1266185, 1266737, 1267308, 1267920, 1268478, 1269060]","[1256787, 1257392, 1258005, 1258596, 1259213, 1259808, 1260396, 1260972, 1261563, 1262136, 1262749, 1263336, 1263924, 1264481, 1265111, 1265673, 1266265, 1266793, 1267397, 1267983, 1268563, 1269128]","[1255578, 1256177, 1256777, 1257377, 1257977, 1258577, 1259177, 1259778, 1260354, 1260947, 1261535, 1262093, 1262687, 1263285, 1263872, 1264439, 1265050, 1265628, 1266210, 1266763, 1267334, 1267946, 1268504, 1269086]",26,R,ITM,1.1,
7,600,trial,0,60,60,60,trial,"['S', 'S', 'S', 'S', 'S', 'S', 'C', 'C', 'C', 'C', 'C', 'C', 'C', 'C', 'C', 'C', 'C', 'C', 'C', 'C', 'C', 'C']","[1275801, 1276445, 1277066, 1277664, 1278266, 1278867, 1279470, 1280036, 1280638, 1281224, 1281845, 1282430, 1283021, 1283616, 1284247, 1284831, 1285440, 1285999, 1286577, 1287169, 1287726, 1288336]","[1275913, 1276529, 1277163, 1277717, 1278353, 1278915, 1279569, 1280175, 1280747, 1281357, 1281957, 1282567, 1283158, 1283740, 1284360, 1284960, 1285591, 1286152, 1286716, 1287310, 1287884, 1288484]","[1274714, 1275314, 1275913, 1276513, 1277113, 1277713, 1278313, 1278913, 1279498, 1280064, 1280665, 1281252, 1281871, 1282457, 1283048, 1283644, 1284275, 1284857, 1285467, 1286027, 1286604, 1287196, 1287753, 1288363]",26,R,ITM,1.1,
2,600,trial,0,61,61,61,trial,"['S', 'S', 'S', 'S', 'S', 'S', 'C', 'C', 'C', 'C', 'C', 'C', 'C', 'C', 'C', 'C', 'C', 'C', 'C', 'C', 'C', 'C']","[1295155, 1295751, 1296392, 1296998, 1297603, 1298171, 1298783, 1299355, 1299954, 1300538, 1301124, 1301739, 1302317, 1302906, 1303510, 1304077, 1304666, 1305275, 1305834, 1306419, 1307008, 1307586]","[1295241, 1295848, 1296481, 1297084, 1297695, 1298281, 1298877, 1299450, 1300054, 1300677, 1301230, 1301830, 1302403, 1303006, 1303577, 1304171, 1304767, 1305372, 1305920, 1306499, 1307105, 1307728]","[1294033, 1294632, 1295234, 1295834, 1296434, 1297033, 1297633, 1298232, 1298809, 1299382, 1299981, 1300564, 1301150, 1301767, 1302344, 1302934, 1303537, 1304104, 1304693, 1305302, 1305862, 1306446, 1307034, 1307614]",26,R,ITM,1.1,
3,400,trial,0,62,62,62,trial,"['S', 'S', 'S', 'S', 'S', 'S', 'C', 'C', 'C', 'C', 'C', 'C', 'C', 'C', 'C', 'C', 'C', 'C', 'C', 'C', 'C', 'C']","[1313806, 1314177, 1314586, 1314980, 1315405, 1315820, 1316237, 1316657, 1317053, 1317443, 1317822, 1318230, 1318636, 1319025, 1319404, 1319782, 1320193, 1320591, 1320976, 1321344, 1321739, 1322137]","[1313861, 1314241, 1314672, 1315068, 1315487, 1315894, 1316336, 1316709, 1317145, 1317522, 1317915, 1318293, 1318705, 1319087, 1319489, 1319853, 1320274, 1320669, 1321054, 1321412, 1321835, 1322199]","[1313088, 1313487, 1313887, 1314287, 1314688, 1315087, 1315487, 1315888, 1316262, 1316682, 1317079, 1317469, 1317848, 1318255, 1318662, 1319051, 1319430, 1319808, 1320218, 1320616, 1321003, 1321369, 1321764, 1322163]",26,R,ITM,1.1,
6,400,trial,0,63,63,63,trial,"['S', 'S', 'S', 'S', 'S', 'S', 'C', 'C', 'C', 'C', 'C', 'C', 'C', 'C', 'C', 'C', 'C', 'C', 'C', 'C', 'C', 'C']","[1328538, 1328930, 1329350, 1329770, 1330170, 1330560, 1330968, 1331355, 1331729, 1332132, 1332517, 1332899, 1333289, 1333663, 1334085, 1334448, 1334877, 1335256, 1335657, 1336043, 1336427, 1336819]","[1328624, 1328996, 1329425, 1329836, 1330239, 1330621, 1331032, 1331406, 1331824, 1332184, 1332597, 1332960, 1333368, 1333728, 1334159, 1334535, 1334944, 1335312, 1335744, 1336092, 1336503, 1336870]","[1327797, 1328196, 1328596, 1328996, 1329396, 1329797, 1330196, 1330596, 1330995, 1331383, 1331756, 1332159, 1332544, 1332927, 1333316, 1333690, 1334112, 1334474, 1334903, 1335282, 1335685, 1336071, 1336455, 1336846]",26,R,ITM,1.1,
2,400,trial,0,64,64,64,trial,"['S', 'S', 'S', 'S', 'S', 'S', 'C', 'C', 'C', 'C', 'C', 'C', 'C', 'C', 'C', 'C', 'C', 'C', 'C', 'C', 'C', 'C']","[1343126, 1343521, 1343917, 1344316, 1344742, 1345157, 1345570, 1345984, 1346386, 1346782, 1347186, 1347574, 1347975, 1348348, 1348749, 1349156, 1349545, 1349962, 1350349, 1350728, 1351134, 1351549]","[1343212, 1343596, 1343991, 1344392, 1344812, 1345225, 1345636, 1346045, 1346455, 1346847, 1347267, 1347640, 1348045, 1348428, 1348824, 1349213, 1349620, 1350009, 1350432, 1350784, 1351208, 1351606]","[1342425, 1342824, 1343224, 1343625, 1344024, 1344424, 1344825, 1345225, 1345597, 1346012, 1346414, 1346809, 1347214, 1347602, 1348001, 1348376, 1348775, 1349184, 1349573, 1349990, 1350377, 1350756, 1351161, 1351576]",26,R,ITM,1.1,
2,400,trial,0,65,65,65,trial,"['S', 'S', 'S', 'S', 'S', 'S', 'C', 'C', 'C', 'C', 'C', 'C', 'C', 'C', 'C', 'C', 'C', 'C', 'C', 'C', 'C', 'C']","[1357852, 1358252, 1358665, 1359079, 1359478, 1359891, 1360308, 1360688, 1361106, 1361489, 1361871, 1362297, 1362714, 1363111, 1363500, 1363893, 1364286, 1364688, 1365071, 1365477, 1365895, 1366294]","[1357925, 1358325, 1358749, 1359144, 1359572, 1359967, 1360373, 1360775, 1361171, 1361579, 1361966, 1362362, 1362802, 1363163, 1363578, 1363942, 1364349, 1364729, 1365143, 1365522, 1365965, 1366340]","[1357125, 1357526, 1357925, 1358325, 1358725, 1359125, 1359525, 1359924, 1360334, 1360715, 1361133, 1361517, 1361898, 1362324, 1362742, 1363138, 1363526, 1363920, 1364314, 1364715, 1365099, 1365505, 1365921, 1366322]",26,R,ITM,1.1,
5,400,trial,0,66,66,66,trial,"['S', 'S', 'S', 'S', 'S', 'S', 'C', 'C', 'C', 'C', 'C', 'C', 'C', 'C', 'C', 'C', 'C', 'C', 'C', 'C', 'C', 'C']","[1372807, 1373199, 1373620, 1374032, 1374434, 1374835, 1375229, 1375635, 1376052, 1376437, 1376833, 1377243, 1377652, 1378039, 1378437, 1378811, 1379207, 1379604, 1380014, 1380415, 1380799, 1381199]","[1372897, 1373276, 1373704, 1374090, 1374508, 1374887, 1375314, 1375700, 1376116, 1376498, 1376904, 1377307, 1377721, 1378103, 1378503, 1378868, 1379282, 1379657, 1380065, 1380473, 1380885, 1381244]","[1372077, 1372475, 1372875, 1373276, 1373675, 1374075, 1374475, 1374875, 1375255, 1375662, 1376077, 1376462, 1376859, 1377268, 1377678, 1378065, 1378462, 1378837, 1379232, 1379630, 1380040, 1380442, 1380825, 1381225]",26,R,ITM,1.1,
5,600,trial,0,67,67,67,trial,"['S', 'S', 'S', 'S', 'S', 'S', 'C', 'C', 'C', 'C', 'C', 'C', 'C', 'C', 'C', 'C', 'C', 'C', 'C', 'C', 'C', 'C']","[1388079, 1388722, 1389356, 1389944, 1390552, 1391135, 1391727, 1392314, 1392910, 1393474, 1394080, 1394649, 1395254, 1395847, 1396453, 1397065, 1397638, 1398218, 1398799, 1399369, 1399972, 1400579]","[1388177, 1388818, 1389434, 1390008, 1390615, 1391201, 1391813, 1392366, 1392998, 1393561, 1394151, 1394719, 1395324, 1395919, 1396534, 1397125, 1397710, 1398286, 1398878, 1399437, 1400046, 1400638]","[1386972, 1387570, 1388170, 1388770, 1389370, 1389970, 1390570, 1391170, 1391753, 1392340, 1392935, 1393500, 1394106, 1394674, 1395279, 1395872, 1396478, 1397091, 1397663, 1398245, 1398824, 1399395, 1399999, 1400605]",26,R,ITM,1.1,
7,400,trial,0,68,68,68,trial,"['S', 'S', 'S', 'S', 'S', 'S', 'C', 'C', 'C', 'C', 'C', 'C', 'C', 'C', 'C', 'C', 'C', 'C', 'C', 'C', 'C', 'C']","[1407053, 1407450, 1407860, 1408270, 1408661, 1409052, 1409471, 1409886, 1410284, 1410668, 1411050, 1411449, 1411837, 1412226, 1412622, 1413017, 1413413, 1413780, 1414171, 1414563, 1414951, 1415341]","[1407121, 1407494, 1407937, 1408322, 1408737, 1409110, 1409538, 1409960, 1410359, 1410724, 1411136, 1411494, 1411920, 1412274, 1412690, 1413073, 1413501, 1413823, 1414247, 1414624, 1415049, 1415401]","[1406339, 1406737, 1407137, 1407538, 1407937, 1408337, 1408737, 1409137, 1409499, 1409912, 1410312, 1410696, 1411077, 1411476, 1411864, 1412253, 1412649, 1413045, 1413440, 1413808, 1414199, 1414591, 1414978, 1415368]",26,R,ITM,1.1,
7,600,trial,0,69,69,69,trial,"['S', 'S', 'S', 'S', 'S', 'S', 'C', 'C', 'C', 'C', 'C', 'C', 'C', 'C', 'C', 'C', 'C', 'C', 'C', 'C', 'C', 'C']","[1422071, 1422740, 1423325, 1423910, 1424528, 1425137, 1425738, 1426315, 1426917, 1427509, 1428098, 1428671, 1429297, 1429892, 1430497, 1431074, 1431670, 1432270, 1432898, 1433491, 1434077, 1434710]","[1422182, 1422820, 1423431, 1424022, 1424619, 1425225, 1425827, 1426423, 1427014, 1427592, 1428204, 1428777, 1429392, 1430009, 1430595, 1431165, 1431774, 1432383, 1433019, 1433608, 1434214, 1434855]","[1420973, 1421572, 1422172, 1422771, 1423371, 1423971, 1424571, 1425171, 1425765, 1426341, 1426944, 1427535, 1428125, 1428699, 1429323, 1429919, 1430523, 1431101, 1431698, 1432297, 1432925, 1433518, 1434104, 1434737]",26,R,ITM,1.1,
4,400,trial,0,70,70,70,trial,"['S', 'S', 'S', 'S', 'S', 'S', 'C', 'C', 'C', 'C', 'C', 'C', 'C', 'C', 'C', 'C', 'C', 'C', 'C', 'C', 'C', 'C']","[1441062, 1441453, 1441858, 1442285, 1442702, 1443089, 1443506, 1443893, 1444294, 1444706, 1445094, 1445479, 1445879, 1446284, 1446667, 1447060, 1447446, 1447849, 1448241, 1448650, 1449027, 1449436]","[1441149, 1441521, 1441949, 1442358, 1442798, 1443183, 1443599, 1443956, 1444383, 1444763, 1445171, 1445548, 1445959, 1446347, 1446754, 1447131, 1447542, 1447943, 1448341, 1448743, 1449129, 1449503]","[1440349, 1440749, 1441149, 1441549, 1441949, 1442350, 1442749, 1443149, 1443532, 1443918, 1444320, 1444731, 1445120, 1445505, 1445905, 1446309, 1446692, 1447086, 1447472, 1447875, 1448266, 1448676, 1449053, 1449461]",26,R,ITM,1.1,
6,600,trial,0,71,71,71,trial,"['S', 'S', 'S', 'S', 'S', 'S', 'C', 'C', 'C', 'C', 'C', 'C', 'C', 'C', 'C', 'C', 'C', 'C', 'C', 'C', 'C', 'C']","[1456320, 1456941, 1457583, 1458172, 1458784, 1459377, 1460011, 1460624, 1461234, 1461828, 1462405, 1463007, 1463610, 1464201, 1464795, 1465399, 1465989, 1466595, 1467203, 1467783, 1468380, 1468964]","[1456440, 1457063, 1457692, 1458257, 1458872, 1459454, 1460085, 1460692, 1461313, 1461933, 1462521, 1463058, 1463702, 1464280, 1464869, 1465460, 1466058, 1466657, 1467295, 1467877, 1468497, 1469045]","[1455196, 1455795, 1456395, 1456995, 1457595, 1458195, 1458795, 1459395, 1460038, 1460651, 1461261, 1461855, 1462431, 1463033, 1463638, 1464228, 1464822, 1465426, 1466015, 1466621, 1467230, 1467809, 1468407, 1468991]",26,R,ITM,1.1,
3,400,trial,0,72,72,72,trial,"['S', 'S', 'S', 'S', 'S', 'S', 'C', 'C', 'C', 'C', 'C', 'C', 'C', 'C', 'C', 'C', 'C', 'C', 'C', 'C', 'C', 'C']","[1475217, 1475618, 1476015, 1476403, 1476832, 1477233, 1477663, 1478059, 1478436, 1478831, 1479209, 1479583, 1479973, 1480376, 1480767, 1481154, 1481541, 1481940, 1482334, 1482695, 1483091, 1483489]","[1475289, 1475681, 1476070, 1476454, 1476879, 1477292, 1477710, 1478098, 1478471, 1478885, 1479249, 1479624, 1480015, 1480401, 1480815, 1481190, 1481601, 1481975, 1482370, 1482749, 1483140, 1483524]","[1474527, 1474926, 1475326, 1475726, 1476126, 1476527, 1476926, 1477326, 1477689, 1478084, 1478462, 1478856, 1479235, 1479609, 1479999, 1480401, 1480793, 1481180, 1481567, 1481966, 1482359, 1482721, 1483117, 1483514]",26,R,ITM,1.1,
7,400,trial,0,73,73,73,trial,"['S', 'S', 'S', 'S', 'S', 'S', 'C', 'C', 'C', 'C', 'C', 'C', 'C', 'C', 'C', 'C', 'C', 'C', 'C', 'C', 'C', 'C']","[1489624, 1490004, 1490395, 1490804, 1491214, 1491628, 1492035, 1492424, 1492805, 1493181, 1493557, 1493937, 1494330, 1494699, 1495085, 1495463, 1495848, 1496216, 1496629, 1497010, 1497406, 1497792]","[1489685, 1490063, 1490458, 1490859, 1491264, 1491663, 1492080, 1492481, 1492862, 1493238, 1493608, 1493979, 1494381, 1494738, 1495137, 1495517, 1495906, 1496268, 1496681, 1497052, 1497457, 1497834]","[1488883, 1489283, 1489682, 1490082, 1490483, 1490883, 1491283, 1491683, 1492062, 1492451, 1492832, 1493209, 1493583, 1493964, 1494358, 1494726, 1495111, 1495491, 1495876, 1496243, 1496656, 1497036, 1497433, 1497819]",26,R,ITM,1.1,
5,600,trial,0,74,74,74,trial,"['S', 'S', 'S', 'S', 'S', 'S', 'C', 'C', 'C', 'C', 'C', 'C', 'C', 'C', 'C', 'C', 'C', 'C', 'C', 'C', 'C', 'C']","[1504491, 1505130, 1505730, 1506341, 1506952, 1507527, 1508123, 1508705, 1509273, 1509872, 1510449, 1511052, 1511627, 1512197, 1512770, 1513356, 1513914, 1514499, 1515059, 1515668, 1516250, 1516829]","[1504567, 1505198, 1505783, 1506397, 1507001, 1507575, 1508188, 1508762, 1509336, 1509925, 1510523, 1511136, 1511692, 1512264, 1512832, 1513398, 1513973, 1514571, 1515138, 1515731, 1516303, 1516922]","[1503398, 1503997, 1504598, 1505198, 1505798, 1506397, 1506997, 1507597, 1508149, 1508731, 1509300, 1509898, 1510475, 1511077, 1511653, 1512222, 1512796, 1513381, 1513939, 1514524, 1515085, 1515694, 1516275, 1516855]",26,R,ITM,1.1,
5,400,trial,0,75,75,75,trial,"['S', 'S', 'S', 'S', 'S', 'S', 'C', 'C', 'C', 'C', 'C', 'C', 'C', 'C', 'C', 'C', 'C', 'C', 'C', 'C', 'C', 'C']","[1522872, 1523274, 1523685, 1524107, 1524525, 1524942, 1525351, 1525768, 1526156, 1526540, 1526937, 1527331, 1527718, 1528110, 1528494, 1528872, 1529261, 1529647, 1530022, 1530436, 1530821, 1531215]","[1522956, 1523318, 1523757, 1524158, 1524590, 1524980, 1525417, 1525800, 1526212, 1526590, 1526994, 1527402, 1527791, 1528162, 1528566, 1528926, 1529337, 1529679, 1530066, 1530492, 1530887, 1531257]","[1522189, 1522588, 1522989, 1523388, 1523788, 1524189, 1524589, 1524989, 1525377, 1525793, 1526181, 1526565, 1526963, 1527357, 1527744, 1528136, 1528519, 1528898, 1529286, 1529672, 1530048, 1530463, 1530847, 1531241]",26,R,ITM,1.1,
3,600,trial,0,76,76,76,trial,"['S', 'S', 'S', 'S', 'S', 'S', 'C', 'C', 'C', 'C', 'C', 'C', 'C', 'C', 'C', 'C', 'C', 'C', 'C', 'C', 'C', 'C']","[1537599, 1538281, 1538883, 1539487, 1540114, 1540710, 1541291, 1541879, 1542490, 1543062, 1543650, 1544255, 1544883, 1545466, 1546053, 1546644, 1547220, 1547804, 1548387, 1548959, 1549553, 1550133]","[1537689, 1538357, 1538962, 1539559, 1540174, 1540769, 1541354, 1541960, 1542562, 1543139, 1543711, 1544321, 1544930, 1545531, 1546109, 1546714, 1547290, 1547871, 1548461, 1549039, 1549624, 1550198]","[1536532, 1537131, 1537731, 1538331, 1538931, 1539531, 1540131, 1540731, 1541316, 1541905, 1542515, 1543088, 1543675, 1544281, 1544908, 1545492, 1546079, 1546670, 1547246, 1547830, 1548412, 1548985, 1549579, 1550158]",26,R,ITM,1.1,
6,400,trial,0,77,77,77,trial,"['S', 'S', 'S', 'S', 'S', 'S', 'C', 'C', 'C', 'C', 'C', 'C', 'C', 'C', 'C', 'C', 'C', 'C', 'C', 'C', 'C', 'C']","[1556435, 1556803, 1557229, 1557642, 1558047, 1558444, 1558879, 1559283, 1559687, 1560068, 1560478, 1560856, 1561250, 1561638, 1562035, 1562433, 1562839, 1563227, 1563618, 1564024, 1564425, 1564793]","[1556507, 1556858, 1557304, 1557696, 1558121, 1558504, 1558943, 1559331, 1559753, 1560145, 1560531, 1560923, 1561330, 1561710, 1562121, 1562492, 1562901, 1563283, 1563688, 1564093, 1564495, 1564856]","[1555722, 1556121, 1556521, 1556921, 1557321, 1557722, 1558121, 1558521, 1558905, 1559310, 1559713, 1560095, 1560505, 1560883, 1561278, 1561665, 1562061, 1562461, 1562865, 1563253, 1563644, 1564051, 1564451, 1564820]",26,R,ITM,1.1,
5,400,trial,0,78,78,78,trial,"['S', 'S', 'S', 'S', 'S', 'S', 'C', 'C', 'C', 'C', 'C', 'C', 'C', 'C', 'C', 'C', 'C', 'C', 'C', 'C', 'C', 'C']","[1571246, 1571622, 1572045, 1572452, 1572847, 1573263, 1573686, 1574094, 1574497, 1574890, 1575268, 1575676, 1576091, 1576474, 1576868, 1577274, 1577671, 1578073, 1578460, 1578872, 1579279, 1579669]","[1571315, 1571681, 1572115, 1572526, 1572892, 1573308, 1573741, 1574126, 1574542, 1574933, 1575317, 1575721, 1576135, 1576521, 1576924, 1577327, 1577718, 1578118, 1578518, 1578910, 1579354, 1579721]","[1570525, 1570925, 1571325, 1571725, 1572125, 1572526, 1572925, 1573325, 1573712, 1574120, 1574522, 1574916, 1575293, 1575702, 1576117, 1576500, 1576894, 1577299, 1577697, 1578099, 1578485, 1578898, 1579304, 1579695]",26,R,ITM,1.1,
5,600,trial,0,79,79,79,trial,"['S', 'S', 'S', 'S', 'S', 'S', 'C', 'C', 'C', 'C', 'C', 'C', 'C', 'C', 'C', 'C', 'C', 'C', 'C', 'C', 'C', 'C']","[1586223, 1586847, 1587438, 1588096, 1588695, 1589310, 1589917, 1590519, 1591113, 1591721, 1592336, 1592976, 1593594, 1594191, 1594816, 1595425, 1596062, 1596689, 1597305, 1597922, 1598545, 1599155]","[1586302, 1586911, 1587501, 1588159, 1588768, 1589364, 1589982, 1590565, 1591194, 1591772, 1592404, 1593033, 1593662, 1594256, 1594878, 1595470, 1596112, 1596736, 1597379, 1597979, 1598615, 1599206]","[1585138, 1585737, 1586337, 1586937, 1587537, 1588137, 1588738, 1589338, 1589943, 1590545, 1591139, 1591747, 1592363, 1593001, 1593620, 1594217, 1594842, 1595451, 1596088, 1596715, 1597332, 1597947, 1598571, 1599180]",26,R,ITM,1.1,
5,400,trial,0,80,80,80,trial,"['S', 'S', 'S', 'S', 'S', 'S', 'C', 'C', 'C', 'C', 'C', 'C', 'C', 'C', 'C', 'C', 'C', 'C', 'C', 'C', 'C', 'C']","[1605354, 1605737, 1606150, 1606535, 1606960, 1607364, 1607786, 1608184, 1608572, 1608951, 1609347, 1609742, 1610153, 1610508, 1610911, 1611313, 1611651, 1612039, 1612440, 1612809, 1613203, 1613583]","[1605422, 1605785, 1606233, 1606596, 1607033, 1607411, 1607854, 1608228, 1608647, 1608999, 1609404, 1609792, 1610217, 1610558, 1610955, 1611339, 1611719, 1612065, 1612479, 1612855, 1613271, 1613630]","[1604649, 1605048, 1605448, 1605849, 1606248, 1606648, 1607048, 1607448, 1607813, 1608210, 1608598, 1608977, 1609372, 1609768, 1610180, 1610533, 1610937, 1611339, 1611676, 1612065, 1612467, 1612835, 1613229, 1613609]",26,R,ITM,1.1,
7,400,trial,0,81,81,81,trial,"['S', 'S', 'S', 'S', 'S', 'S', 'C', 'C', 'C', 'C', 'C', 'C', 'C', 'C', 'C', 'C', 'C', 'C', 'C', 'C', 'C', 'C']","[1619749, 1620128, 1620568, 1620956, 1621357, 1621768, 1622183, 1622575, 1622966, 1623350, 1623775, 1624142, 1624534, 1624919, 1625328, 1625689, 1626081, 1626449, 1626864, 1627264, 1627672, 1628053]","[1619838, 1620198, 1620618, 1621028, 1621428, 1621824, 1622249, 1622638, 1623041, 1623426, 1623843, 1624202, 1624597, 1624985, 1625403, 1625756, 1626140, 1626499, 1626927, 1627326, 1627731, 1628136]","[1618998, 1619398, 1619799, 1620198, 1620598, 1620999, 1621398, 1621798, 1622211, 1622602, 1622993, 1623376, 1623801, 1624170, 1624561, 1624945, 1625356, 1625715, 1626107, 1626476, 1626891, 1627290, 1627699, 1628081]",26,R,ITM,1.1,
2,400,trial,0,82,82,82,trial,"['S', 'S', 'S', 'S', 'S', 'S', 'C', 'C', 'C', 'C', 'C', 'C', 'C', 'C', 'C', 'C', 'C', 'C', 'C', 'C', 'C', 'C']","[1634468, 1634833, 1635241, 1635650, 1636069, 1636462, 1636841, 1637242, 1637652, 1638046, 1638434, 1638821, 1639217, 1639612, 1640019, 1640412, 1640793, 1641174, 1641558, 1641963, 1642351, 1642739]","[1634558, 1634896, 1635328, 1635699, 1636127, 1636546, 1636945, 1637283, 1637709, 1638097, 1638503, 1638870, 1639284, 1639670, 1640079, 1640461, 1640851, 1641217, 1641612, 1642018, 1642429, 1642790]","[1633726, 1634126, 1634527, 1634927, 1635328, 1635726, 1636127, 1636528, 1636869, 1637270, 1637679, 1638074, 1638462, 1638848, 1639243, 1639639, 1640046, 1640438, 1640820, 1641201, 1641584, 1641991, 1642378, 1642766]",26,R,ITM,1.1,
2,600,trial,0,83,83,83,trial,"['S', 'S', 'S', 'S', 'S', 'S', 'C', 'C', 'C', 'C', 'C', 'C', 'C', 'C', 'C', 'C', 'C', 'C', 'C', 'C', 'C', 'C']","[1649468, 1650120, 1650753, 1651343, 1651977, 1652577, 1653133, 1653689, 1654303, 1654890, 1655468, 1656062, 1656673, 1657249, 1657870, 1658463, 1659068, 1659643, 1660254, 1660855, 1661456, 1662060]","[1649542, 1650201, 1650825, 1651417, 1652029, 1652629, 1653192, 1653751, 1654353, 1654956, 1655554, 1656126, 1656744, 1657312, 1657926, 1658512, 1659138, 1659711, 1660316, 1660926, 1661511, 1662112]","[1648377, 1648977, 1649577, 1650178, 1650777, 1651378, 1651977, 1652576, 1653159, 1653715, 1654331, 1654918, 1655495, 1656090, 1656699, 1657277, 1657897, 1658489, 1659096, 1659671, 1660280, 1660882, 1661483, 1662088]",26,R,ITM,1.1,
6,400,trial,0,84,84,84,trial,"['S', 'S', 'S', 'S', 'S', 'S', 'C', 'C', 'C', 'C', 'C', 'C', 'C', 'C', 'C', 'C', 'C', 'C', 'C', 'C', 'C', 'C']","[1668314, 1668680, 1669108, 1669543, 1669953, 1670361, 1670775, 1671186, 1671585, 1671976, 1672381, 1672767, 1673158, 1673563, 1673978, 1674360, 1674757, 1675154, 1675569, 1675938, 1676328, 1676696]","[1668400, 1668746, 1669186, 1669603, 1670031, 1670416, 1670834, 1671226, 1671629, 1672034, 1672444, 1672814, 1673214, 1673614, 1674035, 1674413, 1674821, 1675210, 1675631, 1675995, 1676394, 1676764]","[1667600, 1667999, 1668400, 1668799, 1669199, 1669599, 1669999, 1670400, 1670802, 1671214, 1671612, 1672004, 1672409, 1672794, 1673186, 1673589, 1674006, 1674388, 1674783, 1675182, 1675595, 1675965, 1676356, 1676724]",26,R,ITM,1.1,
3,400,trial,0,85,85,85,trial,"['S', 'S', 'S', 'S', 'S', 'S', 'C', 'C', 'C', 'C', 'C', 'C', 'C', 'C', 'C', 'C', 'C', 'C', 'C', 'C', 'C', 'C']","[1682895, 1683283, 1683690, 1684105, 1684507, 1684911, 1685319, 1685718, 1686099, 1686500, 1686909, 1687308, 1687703, 1688095, 1688495, 1688898, 1689304, 1689695, 1690097, 1690491, 1690892, 1691271]","[1682977, 1683344, 1683773, 1684171, 1684590, 1684972, 1685392, 1685775, 1686183, 1686573, 1686978, 1687363, 1687773, 1688157, 1688567, 1688939, 1689380, 1689750, 1690155, 1690544, 1690959, 1691341]","[1682172, 1682571, 1682971, 1683372, 1683771, 1684171, 1684572, 1684971, 1685345, 1685743, 1686125, 1686525, 1686935, 1687333, 1687729, 1688121, 1688520, 1688924, 1689329, 1689720, 1690123, 1690517, 1690917, 1691296]",26,R,ITM,1.1,
4,400,trial,0,86,86,86,trial,"['S', 'S', 'S', 'S', 'S', 'S', 'C', 'C', 'C', 'C', 'C', 'C', 'C', 'C', 'C', 'C', 'C', 'C', 'C', 'C', 'C', 'C']","[1697294, 1697712, 1698131, 1698540, 1698951, 1699349, 1699740, 1700135, 1700534, 1700936, 1701341, 1701720, 1702129, 1702536, 1702917, 1703305, 1703696, 1704107, 1704525, 1704902, 1705289, 1705698]","[1697390, 1697773, 1698216, 1698598, 1699023, 1699407, 1699808, 1700191, 1700603, 1700995, 1701402, 1701773, 1702173, 1702586, 1702980, 1703356, 1703769, 1704169, 1704594, 1704961, 1705362, 1705751]","[1696591, 1696990, 1697390, 1697790, 1698190, 1698590, 1698991, 1699390, 1699766, 1700161, 1700560, 1700962, 1701366, 1701745, 1702155, 1702561, 1702942, 1703330, 1703721, 1704132, 1704552, 1704928, 1705315, 1705724]",26,R,ITM,1.1,
4,600,trial,0,87,87,87,trial,"['S', 'S', 'S', 'S', 'S', 'S', 'C', 'C', 'C', 'C', 'C', 'C', 'C', 'C', 'C', 'C', 'C', 'C', 'C', 'C', 'C', 'C']","[1712202, 1712840, 1713461, 1714072, 1714669, 1715276, 1715902, 1716504, 1717152, 1717766, 1718378, 1718983, 1719584, 1720198, 1720813, 1721425, 1722033, 1722634, 1723261, 1723869, 1724476, 1725054]","[1712305, 1712923, 1713530, 1714123, 1714736, 1715341, 1715978, 1716570, 1717214, 1717813, 1718451, 1719053, 1719658, 1720243, 1720862, 1721476, 1722088, 1722702, 1723338, 1723934, 1724546, 1725117]","[1711124, 1711723, 1712323, 1712923, 1713523, 1714123, 1714723, 1715323, 1715928, 1716530, 1717178, 1717791, 1718404, 1719009, 1719610, 1720223, 1720839, 1721451, 1722059, 1722659, 1723287, 1723894, 1724502, 1725080]",26,R,ITM,1.1,
6,600,trial,0,88,88,88,trial,"['S', 'S', 'S', 'S', 'S', 'S', 'C', 'C', 'C', 'C', 'C', 'C', 'C', 'C', 'C', 'C', 'C', 'C', 'C', 'C', 'C', 'C']","[1731899, 1732547, 1733166, 1733766, 1734378, 1734979, 1735593, 1736178, 1736785, 1737348, 1737934, 1738549, 1739140, 1739718, 1740312, 1740900, 1741480, 1742066, 1742641, 1743226, 1743808, 1744387]","[1732001, 1732625, 1733256, 1733819, 1734438, 1735031, 1735645, 1736224, 1736837, 1737394, 1738020, 1738598, 1739204, 1739773, 1740382, 1740957, 1741551, 1742125, 1742695, 1743287, 1743868, 1744442]","[1730818, 1731417, 1732017, 1732616, 1733216, 1733816, 1734416, 1735016, 1735621, 1736206, 1736812, 1737375, 1737962, 1738575, 1739167, 1739746, 1740340, 1740926, 1741507, 1742094, 1742668, 1743254, 1743835, 1744414]",26,R,ITM,1.1,
5,600,trial,0,89,89,89,trial,"['S', 'S', 'S', 'S', 'S', 'S', 'C', 'C', 'C', 'C', 'C', 'C', 'C', 'C', 'C', 'C', 'C', 'C', 'C', 'C', 'C', 'C']","[1751280, 1751898, 1752483, 1753068, 1753711, 1754299, 1754914, 1755501, 1756077, 1756643, 1757219, 1757805, 1758385, 1758984, 1759548, 1760128, 1760681, 1761250, 1761828, 1762392, 1762968, 1763569]","[1751382, 1751989, 1752562, 1753162, 1753780, 1754380, 1754996, 1755566, 1756158, 1756702, 1757277, 1757869, 1758466, 1759048, 1759636, 1760191, 1760770, 1761324, 1761904, 1762473, 1763051, 1763638]","[1750163, 1750762, 1751362, 1751962, 1752562, 1753162, 1753762, 1754362, 1754940, 1755528, 1756102, 1756668, 1757245, 1757831, 1758410, 1759009, 1759574, 1760153, 1760708, 1761275, 1761855, 1762418, 1762995, 1763596]",26,R,ITM,1.1,
4,400,trial,0,90,90,90,trial,"['S', 'S', 'S', 'S', 'S', 'S', 'C', 'C', 'C', 'C', 'C', 'C', 'C', 'C', 'C', 'C', 'C', 'C', 'C', 'C', 'C', 'C']","[1770072, 1770461, 1770893, 1771312, 1771732, 1772141, 1772557, 1772954, 1773336, 1773727, 1774131, 1774532, 1774932, 1775318, 1775727, 1776098, 1776506, 1776920, 1777319, 1777687, 1778083, 1778478]","[1770155, 1770521, 1770992, 1771379, 1771811, 1772204, 1772625, 1773029, 1773422, 1773796, 1774193, 1774598, 1775012, 1775377, 1775792, 1776171, 1776575, 1776972, 1777410, 1777763, 1778159, 1778519]","[1769380, 1769779, 1770179, 1770579, 1770979, 1771379, 1771780, 1772179, 1772582, 1772980, 1773362, 1773753, 1774156, 1774558, 1774959, 1775343, 1775753, 1776123, 1776532, 1776946, 1777345, 1777713, 1778109, 1778503]",26,R,ITM,1.1,
3,600,trial,0,91,91,91,trial,"['S', 'S', 'S', 'S', 'S', 'S', 'C', 'C', 'C', 'C', 'C', 'C', 'C', 'C', 'C', 'C', 'C', 'C', 'C', 'C', 'C', 'C']","[1784938, 1785580, 1786181, 1786786, 1787398, 1787986, 1788594, 1789173, 1789773, 1790351, 1790946, 1791507, 1792118, 1792714, 1793318, 1793878, 1794487, 1795086, 1795676, 1796252, 1796868, 1797443]","[1785030, 1785636, 1786249, 1786855, 1787458, 1788047, 1788667, 1789228, 1789835, 1790406, 1791011, 1791569, 1792172, 1792764, 1793397, 1793929, 1794556, 1795137, 1795761, 1796301, 1796940, 1797506]","[1783822, 1784422, 1785022, 1785622, 1786222, 1786822, 1787422, 1788022, 1788619, 1789199, 1789799, 1790376, 1790971, 1791533, 1792144, 1792740, 1793344, 1793903, 1794512, 1795111, 1795701, 1796278, 1796893, 1797469]",26,R,ITM,1.1,
7,600,trial,0,92,92,92,trial,"['S', 'S', 'S', 'S', 'S', 'S', 'C', 'C', 'C', 'C', 'C', 'C', 'C', 'C', 'C', 'C', 'C', 'C', 'C', 'C', 'C', 'C']","[1804268, 1804898, 1805495, 1806113, 1806728, 1807304, 1807923, 1808522, 1809104, 1809697, 1810293, 1810893, 1811484, 1812106, 1812683, 1813256, 1813860, 1814475, 1815068, 1815645, 1816237, 1816824]","[1804355, 1804964, 1805583, 1806192, 1806795, 1807358, 1807985, 1808588, 1809179, 1809751, 1810364, 1810948, 1811542, 1812147, 1812762, 1813322, 1813907, 1814528, 1815143, 1815709, 1816308, 1816876]","[1803152, 1803751, 1804351, 1804951, 1805551, 1806151, 1806751, 1807351, 1807949, 1808549, 1809132, 1809725, 1810320, 1810920, 1811511, 1812133, 1812710, 1813282, 1813888, 1814502, 1815095, 1815671, 1816263, 1816851]",26,R,ITM,1.1,
7,400,trial,0,93,93,93,trial,"['S', 'S', 'S', 'S', 'S', 'S', 'C', 'C', 'C', 'C', 'C', 'C', 'C', 'C', 'C', 'C', 'C', 'C', 'C', 'C', 'C', 'C']","[1822861, 1823237, 1823653, 1824069, 1824490, 1824894, 1825315, 1825715, 1826124, 1826541, 1826933, 1827329, 1827759, 1828128, 1828509, 1828890, 1829299, 1829693, 1830088, 1830465, 1830854, 1831252]","[1822944, 1823311, 1823744, 1824119, 1824558, 1824958, 1825403, 1825780, 1826183, 1826594, 1827022, 1827394, 1827828, 1828203, 1828573, 1828945, 1829382, 1829733, 1830148, 1830514, 1830921, 1831294]","[1822142, 1822541, 1822942, 1823342, 1823742, 1824142, 1824542, 1824943, 1825342, 1825741, 1826151, 1826568, 1826960, 1827355, 1827786, 1828156, 1828536, 1828917, 1829325, 1829721, 1830115, 1830492, 1830882, 1831279]",26,R,ITM,1.1,
4,600,trial,0,94,94,94,trial,"['S', 'S', 'S', 'S', 'S', 'S', 'C', 'C', 'C', 'C', 'C', 'C', 'C', 'C', 'C', 'C', 'C', 'C', 'C', 'C', 'C', 'C']","[1838012, 1838666, 1839273, 1839885, 1840489, 1841078, 1841641, 1842200, 1842763, 1843362, 1843930, 1844516, 1845078, 1845633, 1846255, 1846846, 1847409, 1847977, 1848538, 1849119, 1849708, 1850309]","[1838111, 1838712, 1839339, 1839922, 1840530, 1841130, 1841698, 1842239, 1842811, 1843392, 1843980, 1844548, 1845112, 1845659, 1846300, 1846901, 1847457, 1848009, 1848600, 1849158, 1849761, 1850344]","[1836932, 1837531, 1838130, 1838730, 1839330, 1839930, 1840530, 1841130, 1841667, 1842226, 1842789, 1843389, 1843955, 1844542, 1845103, 1845658, 1846281, 1846872, 1847435, 1848003, 1848563, 1849146, 1849735, 1850335]",26,R,ITM,1.1,
2,400,trial,0,95,95,95,trial,"['S', 'S', 'S', 'S', 'S', 'S', 'C', 'C', 'C', 'C', 'C', 'C', 'C', 'C', 'C', 'C', 'C', 'C', 'C', 'C', 'C', 'C']","[1856514, 1856881, 1857284, 1857683, 1858094, 1858488, 1858870, 1859271, 1859657, 1860041, 1860446, 1860842, 1861253, 1861638, 1862031, 1862431, 1862822, 1863225, 1863620, 1864006, 1864413, 1864812]","[1856572, 1856917, 1857344, 1857723, 1858142, 1858550, 1858941, 1859313, 1859700, 1860085, 1860480, 1860882, 1861296, 1861690, 1862088, 1862491, 1862855, 1863269, 1863672, 1864057, 1864459, 1864861]","[1855765, 1856165, 1856565, 1856965, 1857366, 1857765, 1858165, 1858566, 1858896, 1859298, 1859685, 1860069, 1860473, 1860870, 1861279, 1861664, 1862059, 1862459, 1862850, 1863252, 1863647, 1864033, 1864440, 1864840]",26,R,ITM,1.1,
2,600,trial,0,96,96,96,trial,"['S', 'S', 'S', 'S', 'S', 'S', 'C', 'C', 'C', 'C', 'C', 'C', 'C', 'C', 'C', 'C', 'C', 'C', 'C', 'C', 'C', 'C']","[1871684, 1872313, 1872927, 1873566, 1874105, 1874729, 1875335, 1875964, 1876577, 1877196, 1877793, 1878425, 1879007, 1879575, 1880196, 1880816, 1881399, 1882021, 1882620, 1883249, 1883866, 1884483]","[1871756, 1872376, 1872976, 1873635, 1874177, 1874784, 1875393, 1876017, 1876622, 1877244, 1877862, 1878470, 1879055, 1879621, 1880249, 1880882, 1881465, 1882064, 1882655, 1883284, 1883901, 1884542]","[1870576, 1871176, 1871776, 1872375, 1872976, 1873576, 1874176, 1874777, 1875361, 1875992, 1876603, 1877223, 1877820, 1878452, 1879034, 1879602, 1880222, 1880843, 1881426, 1882049, 1882647, 1883276, 1883893, 1884511]",26,R,ITM,1.1,
6,600,trial,0,97,97,97,trial,"['S', 'S', 'S', 'S', 'S', 'S', 'C', 'C', 'C', 'C', 'C', 'C', 'C', 'C', 'C', 'C', 'C', 'C', 'C', 'C', 'C', 'C']","[1891013, 1891627, 1892253, 1892902, 1893474, 1894076, 1894641, 1895219, 1895795, 1896377, 1896960, 1897540, 1898114, 1898716, 1899294, 1899900, 1900429, 1901001, 1901572, 1902196, 1902766, 1903338]","[1891067, 1891684, 1892306, 1892942, 1893516, 1894128, 1894694, 1895270, 1895847, 1896403, 1897013, 1897603, 1898169, 1898759, 1899355, 1899950, 1900478, 1901032, 1901640, 1902247, 1902802, 1903406]","[1889943, 1890542, 1891142, 1891742, 1892342, 1892942, 1893542, 1894142, 1894668, 1895245, 1895822, 1896403, 1896987, 1897567, 1898140, 1898743, 1899321, 1899928, 1900456, 1901029, 1901599, 1902224, 1902792, 1903366]",26,R,ITM,1.1,
3,400,trial,0,98,98,98,trial,"['S', 'S', 'S', 'S', 'C', 'C', 'C', 'C', 'C', 'C', 'C', 'C', 'C', 'C', 'C', 'C', 'C', 'C', 'C', 'C']","[1910619, 1911036, 1911448, 1911868, 1912288, 1912689, 1913079, 1913479, 1913879, 1914298, 1914680, 1915090, 1915502, 1915914, 1916296, 1916709, 1917110, 1917531, 1917930, 1918345]","[1910689, 1911086, 1911517, 1911914, 1912347, 1912733, 1913141, 1913535, 1913946, 1914336, 1914741, 1915128, 1915576, 1915953, 1916361, 1916753, 1917176, 1917565, 1918015, 1918406]","[1909104, 1909505, 1909904, 1910304, 1910705, 1911104, 1911504, 1911904, 1912313, 1912715, 1913105, 1913504, 1913905, 1914323, 1914705, 1915116, 1915528, 1915939, 1916321, 1916735, 1917135, 1917556, 1917956, 1918370]",26,R,ITM,1.1,
6,400,trial,0,99,99,99,trial,"['S', 'S', 'S', 'S', 'S', 'S', 'C', 'C', 'C', 'C', 'C', 'C', 'C', 'C', 'C', 'C', 'C', 'C', 'C', 'C', 'C', 'C']","[1924640, 1925045, 1925436, 1925850, 1926251, 1926650, 1927057, 1927475, 1927866, 1928247, 1928641, 1929018, 1929405, 1929808, 1930207, 1930624, 1931020, 1931398, 1931807, 1932192, 1932601, 1932986]","[1924704, 1925115, 1925522, 1925924, 1926325, 1926715, 1927116, 1927512, 1927915, 1928304, 1928711, 1929084, 1929479, 1929844, 1930272, 1930679, 1931102, 1931458, 1931866, 1932255, 1932663, 1933044]","[1923916, 1924316, 1924715, 1925115, 1925515, 1925915, 1926316, 1926715, 1927085, 1927502, 1927894, 1928273, 1928668, 1929044, 1929432, 1929836, 1930233, 1930650, 1931046, 1931424, 1931835, 1932220, 1932628, 1933014]",26,R,ITM,1.1,
3,600,trial,0,100,100,100,trial,"['S', 'S', 'S', 'S', 'S', 'S', 'C', 'C', 'C', 'C', 'C', 'C', 'C', 'C', 'C', 'C', 'C', 'C', 'C', 'C', 'C', 'C']","[1939780, 1940413, 1941015, 1941601, 1942196, 1942814, 1943471, 1944064, 1944655, 1945262, 1945874, 1946457, 1947056, 1947673, 1948288, 1948878, 1949483, 1950069, 1950683, 1951272, 1951887, 1952458]","[1939877, 1940487, 1941071, 1941662, 1942250, 1942887, 1943533, 1944115, 1944712, 1945319, 1945939, 1946522, 1947131, 1947731, 1948336, 1948945, 1949539, 1950119, 1950752, 1951334, 1951955, 1952520]","[1938652, 1939250, 1939850, 1940450, 1941050, 1941650, 1942250, 1942850, 1943496, 1944089, 1944681, 1945287, 1945900, 1946482, 1947081, 1947699, 1948314, 1948904, 1949508, 1950095, 1950708, 1951298, 1951912, 1952484]",26,R,ITM,1.1,
7,600,trial,0,101,101,101,trial,"['S', 'S', 'S', 'S', 'S', 'S', 'C', 'C', 'C', 'C', 'C', 'C', 'C', 'C', 'C', 'C', 'C', 'C', 'C', 'C', 'C', 'C']","[1959032, 1959648, 1960276, 1960889, 1961489, 1962075, 1962692, 1963264, 1963884, 1964470, 1965075, 1965662, 1966267, 1966861, 1967436, 1968060, 1968623, 1969234, 1969827, 1970433, 1971032, 1971614]","[1959139, 1959717, 1960334, 1960941, 1961560, 1962145, 1962764, 1963338, 1963951, 1964546, 1965161, 1965755, 1966361, 1966943, 1967527, 1968132, 1968715, 1969312, 1969917, 1970526, 1971130, 1971724]","[1957933, 1958533, 1959133, 1959732, 1960332, 1960932, 1961532, 1962132, 1962720, 1963290, 1963911, 1964497, 1965102, 1965689, 1966294, 1966887, 1967464, 1968088, 1968650, 1969262, 1969855, 1970459, 1971058, 1971641]",26,R,ITM,1.1,
7,400,trial,0,102,102,102,trial,"['S', 'S', 'S', 'S', 'S', 'S', 'C', 'C', 'C', 'C', 'C', 'C', 'C', 'C', 'C', 'C', 'C', 'C', 'C', 'C', 'C', 'C']","[1977752, 1978120, 1978545, 1978945, 1979357, 1979759, 1980187, 1980584, 1980977, 1981348, 1981758, 1982146, 1982558, 1982947, 1983342, 1983735, 1984135, 1984527, 1984924, 1985327, 1985719, 1986112]","[1977821, 1978166, 1978629, 1979015, 1979412, 1979800, 1980230, 1980630, 1981029, 1981398, 1981795, 1982203, 1982621, 1982995, 1983418, 1983804, 1984203, 1984583, 1984993, 1985380, 1985783, 1986173]","[1977046, 1977445, 1977845, 1978246, 1978645, 1979045, 1979445, 1979845, 1980215, 1980611, 1981004, 1981376, 1981785, 1982173, 1982585, 1982974, 1983370, 1983762, 1984161, 1984555, 1984952, 1985354, 1985745, 1986140]",26,R,ITM,1.1,
5,600,trial,0,103,103,103,trial,"['S', 'S', 'S', 'S', 'S', 'S', 'C', 'C', 'C', 'C', 'C', 'C', 'C', 'C', 'C', 'C', 'C', 'C', 'C', 'C', 'C', 'C']","[1992576, 1993216, 1993842, 1994428, 1995055, 1995674, 1996238, 1996850, 1997478, 1998085, 1998687, 1999289, 1999889, 2000483, 2001074, 2001671, 2002287, 2002869, 2003478, 2004077, 2004669, 2005258]","[1992689, 1993291, 1993929, 1994487, 1995118, 1995730, 1996313, 1996920, 1997540, 1998158, 1998769, 1999358, 1999959, 2000550, 2001154, 2001736, 2002367, 2002951, 2003530, 2004169, 2004755, 2005334]","[1991488, 1992087, 1992687, 1993287, 1993887, 1994487, 1995087, 1995687, 1996264, 1996875, 1997504, 1998110, 1998712, 1999314, 1999915, 2000508, 2001099, 2001696, 2002314, 2002894, 2003504, 2004103, 2004695, 2005284]",26,R,ITM,1.1,
2,600,trial,0,104,104,104,trial,"['S', 'S', 'S', 'S', 'S', 'S', 'C', 'C', 'C', 'C', 'C', 'C', 'C', 'C', 'C', 'C', 'C', 'C', 'C', 'C', 'C', 'C']","[2011984, 2012621, 2013253, 2013830, 2014439, 2015044, 2015640, 2016216, 2016800, 2017385, 2017996, 2018545, 2019164, 2019749, 2020338, 2020944, 2021538, 2022185, 2022796, 2023403, 2024007, 2024596]","[2012084, 2012688, 2013320, 2013890, 2014496, 2015094, 2015680, 2016269, 2016840, 2017429, 2018029, 2018601, 2019216, 2019809, 2020408, 2021001, 2021610, 2022246, 2022851, 2023473, 2024058, 2024647]","[2010884, 2011484, 2012084, 2012684, 2013284, 2013883, 2014484, 2015084, 2015668, 2016242, 2016828, 2017413, 2018023, 2018573, 2019191, 2019777, 2020366, 2020971, 2021566, 2022213, 2022823, 2023431, 2024035, 2024624]",26,R,ITM,1.1,
7,600,trial,0,105,105,105,trial,"['S', 'S', 'S', 'S', 'S', 'C', 'C', 'C', 'C', 'C', 'C', 'C', 'C', 'C', 'C', 'C', 'C', 'C', 'C', 'C', 'C']","[2031667, 2032242, 2032839, 2033446, 2034052, 2034649, 2035250, 2035878, 2036457, 2037028, 2037632, 2038209, 2038791, 2039351, 2039922, 2040477, 2041067, 2041646, 2042224, 2042788, 2043361]","[2031727, 2032299, 2032904, 2033512, 2034085, 2034712, 2035320, 2035932, 2036545, 2037075, 2037699, 2038273, 2038848, 2039404, 2039964, 2040519, 2041109, 2041712, 2042264, 2042844, 2043419]","[2029928, 2030527, 2031127, 2031727, 2032327, 2032927, 2033527, 2034127, 2034675, 2035277, 2035905, 2036485, 2037055, 2037659, 2038237, 2038818, 2039377, 2039950, 2040504, 2041094, 2041673, 2042252, 2042815, 2043388]",26,R,ITM,1.1,
4,600,trial,0,106,106,106,trial,"['S', 'S', 'S', 'S', 'S', 'S', 'C', 'C', 'C', 'C', 'C', 'C', 'C', 'C', 'C', 'C', 'C', 'C', 'C', 'C', 'C', 'C']","[2049776, 2050364, 2050975, 2051584, 2052200, 2052792, 2053415, 2053994, 2054610, 2055201, 2055789, 2056374, 2056988, 2057563, 2058163, 2058729, 2059336, 2059953, 2060532, 2061129, 2061718, 2062297]","[2049835, 2050425, 2051046, 2051644, 2052261, 2052862, 2053477, 2054052, 2054652, 2055257, 2055867, 2056432, 2057034, 2057631, 2058210, 2058810, 2059409, 2059999, 2060632, 2061188, 2061783, 2062354]","[2048678, 2049278, 2049879, 2050479, 2051079, 2051679, 2052279, 2052879, 2053441, 2054020, 2054636, 2055227, 2055815, 2056399, 2057015, 2057588, 2058188, 2058755, 2059362, 2059978, 2060558, 2061155, 2061744, 2062322]",26,R,ITM,1.1,
7,600,trial,0,107,107,107,trial,"['S', 'S', 'S', 'S', 'S', 'S', 'C', 'C', 'C', 'C', 'C', 'C', 'C', 'C', 'C', 'C', 'C', 'C', 'C', 'C', 'C', 'C']","[2068907, 2069489, 2070106, 2070684, 2071270, 2071883, 2072479, 2073079, 2073671, 2074281, 2074888, 2075457, 2076057, 2076648, 2077256, 2077831, 2078400, 2078986, 2079585, 2080182, 2080752, 2081333]","[2069000, 2069554, 2070171, 2070742, 2071355, 2071971, 2072544, 2073154, 2073729, 2074327, 2074955, 2075534, 2076126, 2076724, 2077344, 2077919, 2078482, 2079064, 2079664, 2080257, 2080838, 2081432]","[2067706, 2068305, 2068905, 2069506, 2070106, 2070706, 2071305, 2071905, 2072506, 2073106, 2073699, 2074309, 2074915, 2075485, 2076085, 2076675, 2077284, 2077858, 2078427, 2079012, 2079612, 2080208, 2080780, 2081359]",26,R,ITM,1.1,
6,600,trial,0,108,108,108,trial,"['S', 'S', 'S', 'S', 'S', 'S', 'C', 'C', 'C', 'C', 'C', 'C', 'C', 'C', 'C', 'C', 'C', 'C', 'C', 'C', 'C', 'C']","[2088094, 2088689, 2089295, 2089914, 2090493, 2091086, 2091683, 2092282, 2092864, 2093469, 2094048, 2094621, 2095183, 2095741, 2096379, 2096986, 2097565, 2098132, 2098718, 2099297, 2099879, 2100463]","[2088202, 2088772, 2089379, 2089974, 2090553, 2091166, 2091753, 2092331, 2092933, 2093558, 2094138, 2094742, 2095301, 2095899, 2096498, 2097090, 2097674, 2098242, 2098832, 2099410, 2099979, 2100573]","[2086955, 2087554, 2088154, 2088754, 2089353, 2089953, 2090553, 2091153, 2091710, 2092310, 2092891, 2093496, 2094074, 2094649, 2095210, 2095769, 2096406, 2097012, 2097592, 2098160, 2098745, 2099323, 2099907, 2100490]",26,R,ITM,1.1,
5,400,trial,0,109,109,109,trial,"['S', 'S', 'S', 'S', 'S', 'S', 'C', 'C', 'C', 'C', 'C', 'C', 'C', 'C', 'C', 'C', 'C', 'C', 'C', 'C', 'C', 'C']","[2106941, 2107303, 2107709, 2108112, 2108520, 2108933, 2109352, 2109755, 2110139, 2110523, 2110934, 2111320, 2111702, 2112107, 2112501, 2112886, 2113292, 2113696, 2114099, 2114490, 2114888, 2115279]","[2107023, 2107386, 2107790, 2108192, 2108609, 2108986, 2109404, 2109819, 2110212, 2110597, 2110992, 2111421, 2111779, 2112164, 2112593, 2112975, 2113375, 2113773, 2114177, 2114580, 2114977, 2115353]","[2106180, 2106579, 2106979, 2107379, 2107780, 2108179, 2108579, 2108979, 2109379, 2109780, 2110164, 2110548, 2110959, 2111346, 2111727, 2112133, 2112527, 2112912, 2113317, 2113723, 2114124, 2114515, 2114914, 2115305]",26,R,ITM,1.1,
6,400,trial,0,110,110,110,trial,"['S', 'S', 'S', 'S', 'S', 'S', 'C', 'C', 'C', 'C', 'C', 'C', 'C', 'C', 'C', 'C', 'C', 'C', 'C', 'C', 'C', 'C']","[2121718, 2122109, 2122535, 2122916, 2123341, 2123735, 2124155, 2124538, 2124946, 2125348, 2125752, 2126148, 2126543, 2126941, 2127340, 2127719, 2128138, 2128541, 2128925, 2129306, 2129713, 2130107]","[2121821, 2122201, 2122627, 2122997, 2123426, 2123833, 2124265, 2124616, 2125038, 2125440, 2125870, 2126256, 2126642, 2127046, 2127458, 2127817, 2128242, 2128630, 2129037, 2129394, 2129811, 2130204]","[2120984, 2121384, 2121784, 2122184, 2122585, 2122984, 2123384, 2123784, 2124182, 2124566, 2124974, 2125376, 2125779, 2126176, 2126571, 2126968, 2127368, 2127746, 2128164, 2128569, 2128952, 2129333, 2129739, 2130134]",26,R,ITM,1.1,
6,400,trial,0,111,111,111,trial,"['S', 'S', 'S', 'S', 'S', 'S', 'C', 'C', 'C', 'C', 'C', 'C', 'C', 'C', 'C', 'C', 'C', 'C', 'C', 'C', 'C', 'C']","[2136563, 2136931, 2137364, 2137750, 2138166, 2138544, 2138988, 2139398, 2139789, 2140191, 2140604, 2140974, 2141380, 2141768, 2142169, 2142560, 2142953, 2143349, 2143748, 2144139, 2144537, 2144933]","[2136626, 2136992, 2137413, 2137825, 2138232, 2138626, 2139078, 2139463, 2139870, 2140267, 2140680, 2141057, 2141443, 2141843, 2142251, 2142631, 2143040, 2143428, 2143842, 2144198, 2144625, 2144990]","[2135826, 2136225, 2136626, 2137025, 2137425, 2137825, 2138225, 2138626, 2139015, 2139425, 2139816, 2140219, 2140632, 2141000, 2141407, 2141796, 2142196, 2142586, 2142980, 2143376, 2143774, 2144165, 2144564, 2144960]",26,R,ITM,1.1,
2,600,trial,0,112,112,112,trial,"['S', 'S', 'S', 'S', 'S', 'S', 'C', 'C', 'C', 'C', 'C', 'C', 'C', 'C', 'C', 'C', 'C', 'C', 'C', 'C', 'C', 'C']","[2151756, 2152356, 2152971, 2153520, 2154157, 2154719, 2155320, 2155877, 2156496, 2157061, 2157657, 2158217, 2158826, 2159418, 2160015, 2160599, 2161202, 2161805, 2162420, 2162992, 2163601, 2164194]","[2151832, 2152426, 2153023, 2153588, 2154204, 2154790, 2155379, 2155936, 2156536, 2157119, 2157698, 2158266, 2158877, 2159475, 2160057, 2160643, 2161256, 2161860, 2162455, 2163043, 2163634, 2164246]","[2150556, 2151156, 2151755, 2152356, 2152956, 2153556, 2154157, 2154757, 2155347, 2155905, 2156524, 2157088, 2157683, 2158244, 2158853, 2159446, 2160041, 2160626, 2161228, 2161832, 2162448, 2163018, 2163629, 2164221]",26,R,ITM,1.1,
6,600,trial,0,113,113,113,trial,"['S', 'S', 'S', 'S', 'S', 'S', 'C', 'C', 'C', 'C', 'C', 'C', 'C', 'C', 'C', 'C', 'C', 'C', 'C', 'C', 'C', 'C']","[2171083, 2171658, 2172271, 2172891, 2173512, 2174119, 2174713, 2175331, 2175912, 2176495, 2177123, 2177701, 2178258, 2178822, 2179429, 2180012, 2180578, 2181161, 2181756, 2182333, 2182909, 2183517]","[2171162, 2171720, 2172324, 2172955, 2173560, 2174163, 2174768, 2175377, 2175948, 2176555, 2177176, 2177762, 2178304, 2178869, 2179476, 2180064, 2180618, 2181199, 2181814, 2182373, 2182940, 2183569]","[2169955, 2170554, 2171154, 2171754, 2172354, 2172954, 2173554, 2174154, 2174740, 2175357, 2175940, 2176522, 2177149, 2177728, 2178286, 2178848, 2179456, 2180038, 2180605, 2181189, 2181783, 2182361, 2182937, 2183543]",26,R,ITM,1.1,
4,400,trial,0,114,114,114,trial,"['S', 'S', 'S', 'S', 'S', 'S', 'C', 'C', 'C', 'C', 'C', 'C', 'C', 'C', 'C', 'C', 'C', 'C', 'C', 'C', 'C', 'C']","[2189806, 2190206, 2190618, 2191022, 2191435, 2191840, 2192272, 2192668, 2193058, 2193449, 2193841, 2194231, 2194625, 2195023, 2195425, 2195802, 2196183, 2196581, 2196975, 2197369, 2197760, 2198130]","[2189873, 2190269, 2190679, 2191098, 2191505, 2191906, 2192334, 2192747, 2193128, 2193533, 2193923, 2194302, 2194715, 2195085, 2195510, 2195875, 2196268, 2196653, 2197043, 2197423, 2197830, 2198194]","[2189100, 2189498, 2189898, 2190299, 2190698, 2191098, 2191498, 2191898, 2192297, 2192694, 2193084, 2193475, 2193866, 2194256, 2194651, 2195049, 2195450, 2195827, 2196208, 2196606, 2197001, 2197395, 2197785, 2198156]",26,R,ITM,1.1,
3,400,trial,0,115,115,115,trial,"['S', 'S', 'S', 'S', 'S', 'S', 'C', 'C', 'C', 'C', 'C', 'C', 'C', 'C', 'C', 'C', 'C', 'C', 'C', 'C', 'C', 'C']","[2204284, 2204683, 2205096, 2205498, 2205908, 2206305, 2206708, 2207109, 2207506, 2207905, 2208307, 2208703, 2209091, 2209480, 2209868, 2210258, 2210649, 2211027, 2211424, 2211817, 2212212, 2212606]","[2204369, 2204760, 2205178, 2205564, 2205987, 2206363, 2206784, 2207167, 2207575, 2207967, 2208376, 2208754, 2209160, 2209538, 2209948, 2210316, 2210699, 2211095, 2211502, 2211871, 2212300, 2212677]","[2203559, 2203959, 2204359, 2204760, 2205159, 2205559, 2205959, 2206359, 2206734, 2207134, 2207533, 2207931, 2208332, 2208729, 2209117, 2209506, 2209894, 2210284, 2210674, 2211053, 2211449, 2211843, 2212238, 2212632]",26,R,ITM,1.1,
5,600,trial,0,116,116,116,trial,"['S', 'S', 'S', 'S', 'S', 'S', 'C', 'C', 'C', 'C', 'C', 'C', 'C', 'C', 'C', 'C', 'C', 'C', 'C', 'C', 'C', 'C']","[2219436, 2220039, 2220649, 2221267, 2221875, 2222477, 2223074, 2223637, 2224222, 2224793, 2225379, 2225968, 2226537, 2227120, 2227685, 2228267, 2228802, 2229385, 2229935, 2230507, 2231062, 2231644]","[2219517, 2220113, 2220718, 2221327, 2221964, 2222537, 2223138, 2223687, 2224291, 2224864, 2225464, 2226029, 2226627, 2227190, 2227782, 2228323, 2228885, 2229447, 2230024, 2230562, 2231116, 2231694]","[2218329, 2218928, 2219527, 2220127, 2220727, 2221327, 2221927, 2222527, 2223100, 2223663, 2224247, 2224819, 2225405, 2225993, 2226563, 2227146, 2227712, 2228292, 2228828, 2229410, 2229960, 2230533, 2231089, 2231669]",26,R,ITM,1.1,
3,400,trial,0,117,117,117,trial,"['S', 'S', 'S', 'S', 'S', 'S', 'C', 'C', 'C', 'C', 'C', 'C', 'C', 'C', 'C', 'C', 'C', 'C', 'C', 'C', 'C', 'C']","[2238128, 2238539, 2238958, 2239363, 2239781, 2240181, 2240587, 2240969, 2241391, 2241798, 2242201, 2242596, 2243001, 2243402, 2243793, 2244183, 2244571, 2244974, 2245407, 2245815, 2246208, 2246594]","[2238208, 2238597, 2239031, 2239409, 2239849, 2240231, 2240636, 2241029, 2241433, 2241839, 2242263, 2242635, 2243057, 2243464, 2243867, 2244235, 2244628, 2245017, 2245466, 2245874, 2246264, 2246653]","[2237425, 2237825, 2238224, 2238624, 2239025, 2239424, 2239824, 2240224, 2240613, 2240995, 2241417, 2241823, 2242227, 2242622, 2243026, 2243428, 2243819, 2244208, 2244596, 2245000, 2245433, 2245840, 2246234, 2246620]",26,R,ITM,1.1,
3,600,trial,0,118,118,118,trial,"['S', 'S', 'S', 'S', 'S', 'S', 'C', 'C', 'C', 'C', 'C', 'C', 'C', 'C', 'C', 'C', 'C', 'C', 'C', 'C', 'C', 'C']","[2253217, 2253842, 2254469, 2255107, 2255662, 2256242, 2256876, 2257444, 2258045, 2258633, 2259235, 2259828, 2260440, 2261030, 2261616, 2262200, 2262817, 2263393, 2264005, 2264601, 2265195, 2265796]","[2253296, 2253921, 2254518, 2255165, 2255736, 2256296, 2256946, 2257514, 2258118, 2258713, 2259315, 2259904, 2260492, 2261110, 2261692, 2262264, 2262891, 2263468, 2264079, 2264658, 2265266, 2265864]","[2252097, 2252696, 2253296, 2253896, 2254496, 2255096, 2255696, 2256296, 2256902, 2257470, 2258071, 2258659, 2259261, 2259854, 2260465, 2261056, 2261642, 2262225, 2262843, 2263418, 2264031, 2264627, 2265221, 2265822]",26,R,ITM,1.1,
7,400,trial,0,119,119,119,trial,"['S', 'S', 'S', 'S', 'S', 'S', 'C', 'C', 'C', 'C', 'C', 'C', 'C', 'C', 'C', 'C', 'C', 'C', 'C', 'C', 'C', 'C']","[2272097, 2272502, 2272899, 2273305, 2273716, 2274113, 2274522, 2274906, 2275322, 2275721, 2276107, 2276504, 2276922, 2277313, 2277703, 2278082, 2278464, 2278875, 2279278, 2279672, 2280076, 2280460]","[2272128, 2272566, 2272968, 2273362, 2273783, 2274174, 2274596, 2274963, 2275389, 2275781, 2276205, 2276564, 2276990, 2277382, 2277752, 2278148, 2278530, 2278933, 2279344, 2279742, 2280150, 2280544]","[2271362, 2271761, 2272161, 2272562, 2272961, 2273361, 2273761, 2274161, 2274548, 2274933, 2275350, 2275747, 2276133, 2276531, 2276950, 2277341, 2277731, 2278109, 2278491, 2278902, 2279306, 2279700, 2280102, 2280487]",26,R,ITM,1.1,
2,400,trial,0,120,120,120,trial,"['S', 'S', 'S', 'S', 'S', 'S', 'C', 'C', 'C', 'C', 'C', 'C', 'C', 'C', 'C', 'C', 'C', 'C', 'C', 'C', 'C', 'C']","[2286610, 2286983, 2287380, 2287788, 2288198, 2288592, 2289010, 2289412, 2289809, 2290201, 2290591, 2290976, 2291397, 2291813, 2292205, 2292618, 2293032, 2293401, 2293799, 2294203, 2294602, 2295006]","[2286685, 2287055, 2287477, 2287851, 2288262, 2288666, 2289097, 2289463, 2289878, 2290277, 2290672, 2291048, 2291460, 2291869, 2292263, 2292674, 2293091, 2293476, 2293865, 2294254, 2294659, 2295070]","[2285877, 2286277, 2286676, 2287077, 2287476, 2287877, 2288277, 2288677, 2289038, 2289438, 2289837, 2290228, 2290618, 2291003, 2291424, 2291841, 2292232, 2292645, 2293060, 2293428, 2293827, 2294231, 2294630, 2295033]",26,R,ITM,1.1,
3,600,trial,0,121,121,121,trial,"['S', 'S', 'S', 'S', 'S', 'S', 'C', 'C', 'C', 'C', 'C', 'C', 'C', 'C', 'C', 'C', 'C', 'C', 'C', 'C', 'C', 'C']","[2301924, 2302555, 2303145, 2303757, 2304349, 2304950, 2305533, 2306138, 2306721, 2307322, 2307917, 2308499, 2309089, 2309672, 2310290, 2310889, 2311530, 2312094, 2312656, 2313241, 2313834, 2314440]","[2302013, 2302630, 2303235, 2303824, 2304422, 2305014, 2305622, 2306206, 2306798, 2307390, 2307972, 2308561, 2309153, 2309749, 2310367, 2310957, 2311605, 2312157, 2312736, 2313315, 2313895, 2314520]","[2300772, 2301371, 2301971, 2302571, 2303171, 2303771, 2304371, 2304971, 2305559, 2306163, 2306747, 2307348, 2307943, 2308525, 2309114, 2309698, 2310316, 2310915, 2311556, 2312120, 2312682, 2313267, 2313860, 2314466]",26,R,ITM,1.1,
4,400,trial,0,122,122,122,trial,"['S', 'S', 'S', 'S', 'S', 'S', 'C', 'C', 'C', 'C', 'C', 'C', 'C', 'C', 'C', 'C', 'C', 'C', 'C', 'C', 'C', 'C']","[2320730, 2321118, 2321533, 2321937, 2322344, 2322726, 2323145, 2323539, 2323934, 2324327, 2324715, 2325098, 2325496, 2325884, 2326300, 2326710, 2327120, 2327508, 2327874, 2328247, 2328639, 2329022]","[2320806, 2321179, 2321596, 2322006, 2322394, 2322790, 2323202, 2323582, 2323984, 2324376, 2324762, 2325148, 2325549, 2325949, 2326343, 2326764, 2327185, 2327565, 2327925, 2328308, 2328709, 2329083]","[2320020, 2320419, 2320819, 2321219, 2321619, 2322019, 2322419, 2322820, 2323171, 2323565, 2323959, 2324353, 2324741, 2325124, 2325522, 2325910, 2326326, 2326735, 2327146, 2327534, 2327900, 2328272, 2328666, 2329048]",26,R,ITM,1.1,
4,600,trial,0,123,123,123,trial,"['S', 'S', 'S', 'S', 'S', 'C', 'C', 'C', 'C', 'C', 'C', 'C', 'C', 'C', 'C', 'C', 'C', 'C', 'C', 'C', 'C']","[2336227, 2336776, 2337390, 2337977, 2338573, 2339210, 2339812, 2340395, 2340993, 2341595, 2342194, 2342803, 2343395, 2343988, 2344588, 2345180, 2345782, 2346366, 2346959, 2347563, 2348144]","[2336286, 2336850, 2337446, 2338041, 2338627, 2339280, 2339869, 2340477, 2341054, 2341663, 2342260, 2342876, 2343473, 2344056, 2344655, 2345241, 2345858, 2346443, 2347027, 2347636, 2348215]","[2334473, 2335073, 2335673, 2336273, 2336873, 2337473, 2338073, 2338673, 2339235, 2339837, 2340421, 2341018, 2341620, 2342220, 2342829, 2343420, 2344013, 2344613, 2345205, 2345807, 2346392, 2346985, 2347588, 2348170]",26,R,ITM,1.1,
2,400,trial,0,124,124,124,trial,"['S', 'S', 'S', 'S', 'S', 'S', 'C', 'C', 'C', 'C', 'C', 'C', 'C', 'C', 'C', 'C', 'C', 'C', 'C', 'C', 'C', 'C']","[2354472, 2354844, 2355266, 2355699, 2356106, 2356523, 2356925, 2357327, 2357742, 2358134, 2358548, 2358935, 2359331, 2359725, 2360121, 2360528, 2360940, 2361338, 2361753, 2362157, 2362587, 2362979]","[2354552, 2354912, 2355340, 2355760, 2356196, 2356580, 2356994, 2357394, 2357818, 2358191, 2358608, 2358992, 2359411, 2359788, 2360200, 2360583, 2361012, 2361415, 2361806, 2362220, 2362641, 2363063]","[2353752, 2354151, 2354551, 2354952, 2355351, 2355751, 2356151, 2356551, 2356953, 2357355, 2357770, 2358161, 2358575, 2358962, 2359359, 2359752, 2360147, 2360556, 2360968, 2361366, 2361780, 2362183, 2362613, 2363005]",26,R,ITM,1.1,
5,400,trial,0,125,125,125,trial,"['S', 'S', 'S', 'S', 'S', 'S', 'C', 'C', 'C', 'C', 'C', 'C', 'C', 'C', 'C', 'C', 'C', 'C', 'C', 'C', 'C', 'C']","[2369359, 2369748, 2370157, 2370546, 2370974, 2371384, 2371776, 2372173, 2372576, 2372987, 2373367, 2373750, 2374161, 2374538, 2374918, 2375309, 2375732, 2376114, 2376504, 2376897, 2377295, 2377670]","[2369444, 2369799, 2370227, 2370598, 2371042, 2371442, 2371833, 2372221, 2372626, 2373044, 2373446, 2373813, 2374201, 2374604, 2374984, 2375369, 2375779, 2376179, 2376556, 2376963, 2377362, 2377735]","[2368644, 2369042, 2369442, 2369842, 2370242, 2370642, 2371042, 2371442, 2371802, 2372199, 2372601, 2373013, 2373393, 2373776, 2374187, 2374563, 2374943, 2375335, 2375757, 2376139, 2376529, 2376923, 2377321, 2377696]",26,R,ITM,1.1,
