octave,ioi,event,.thisRepN,.thisTrialN,.thisN,.thisIndex,event,tap_types,tap_times,release_times,tone_times,subject,handedness,experiment,version,
,,SPR,0,-1,-1,0,SPR,"['P', 'P', 'P', 'P', 'P', 'P', 'P', 'P', 'P', 'P', 'P', 'P', 'P', 'P', 'P', 'P', 'P', 'P', 'P', 'P', 'P', 'P', 'P', 'P', 'P', 'P', 'P', 'P', 'P', 'P']","[604924, 605651, 606468, 607250, 608053, 608881, 609682, 610462, 611291, 612057, 612921, 613687, 614464, 615229, 615952, 616713, 617413, 618136, 618799, 619511, 620259, 621089, 621906, 622629, 623456, 624223, 625008, 625700, 626480, 627239]","[605091, 605774, 606566, 607377, 608152, 608956, 609757, 610531, 611363, 612159, 613005, 613751, 614539, 615334, 616055, 616813, 617482, 618230, 618885, 619591, 620359, 621178, 621969, 622737, 623550, 624292, 625077, 625764, 626575, 627320]",,11,R,ITM,1.1,
2,500,practice,0,0,0,0,practice,"['S', 'S', 'S', 'S', 'S', 'S', 'S', 'C', 'C', 'C', 'C', 'C', 'C', 'C', 'C', 'C', 'C', 'C', 'C', 'C', 'C', 'C', 'C']","[710037, 710370, 710824, 711339, 711862, 712400, 712862, 713316, 713826, 714336, 714840, 715313, 715802, 716283, 716764, 717243, 717765, 718197, 718671, 719156, 719617, 720079, 720553]","[710116, 710448, 710913, 711430, 711936, 712470, 712932, 713393, 713897, 714423, 714924, 715392, 715885, 716348, 716831, 717307, 717833, 718272, 718774, 719243, 719690, 720174, 720641]","[709362, 709861, 710363, 710861, 711362, 711862, 712363, 712861, 713344, 713853, 714363, 714866, 715340, 715829, 716310, 716791, 717270, 717792, 718225, 718698, 719182, 719643, 720106, 720581]",11,R,ITM,1.1,
4,500,practice,0,1,1,1,practice,"['S', 'S', 'S', 'S', 'S', 'S', 'S', 'C', 'C', 'C', 'C', 'C', 'C', 'C', 'C', 'C', 'C', 'C', 'C', 'C', 'C', 'C', 'C']","[726402, 726883, 727415, 727949, 728433, 728949, 729446, 729945, 730414, 730901, 731396, 731876, 732333, 732814, 733250, 733727, 734189, 734651, 735125, 735566, 736005, 736471, 736872]","[726484, 726942, 727484, 728002, 728498, 729019, 729504, 730015, 730490, 730979, 731470, 731964, 732421, 732895, 733348, 733824, 734271, 734737, 735197, 735647, 736095, 736552, 736963]","[725997, 726497, 726998, 727497, 727997, 728498, 728998, 729498, 729970, 730439, 730928, 731421, 731901, 732358, 732839, 733277, 733753, 734215, 734676, 735151, 735592, 736030, 736496, 736898]",11,R,ITM,1.1,
5,500,practice,0,2,2,2,practice,"['S', 'S', 'S', 'S', 'S', 'S', 'S', 'S', 'C', 'C', 'C', 'C', 'C', 'C', 'C', 'C', 'C', 'C', 'C', 'C', 'C', 'C', 'C', 'C']","[742802, 743183, 743554, 744030, 744530, 745051, 745553, 746022, 746508, 746986, 747503, 747988, 748447, 748955, 749395, 749856, 750321, 750806, 751254, 751726, 752157, 752629, 753111, 753541]","[742883, 743260, 743636, 744116, 744603, 745122, 745623, 746091, 746583, 747054, 747567, 748047, 748522, 749020, 749462, 749922, 750387, 750870, 751318, 751794, 752237, 752695, 753166, 753623]","[742551, 743050, 743550, 744050, 744550, 745051, 745550, 746050, 746534, 747012, 747529, 748013, 748473, 748982, 749421, 749882, 750348, 750832, 751281, 751752, 752183, 752656, 753136, 753567]",11,R,ITM,1.1,
3,500,practice,0,3,3,3,practice,"['S', 'S', 'S', 'S', 'S', 'S', 'S', 'C', 'C', 'C', 'C', 'C', 'C', 'C', 'C', 'C', 'C', 'C', 'C', 'C', 'C', 'C', 'C']","[759697, 760203, 760744, 761281, 761763, 762257, 762752, 763260, 763763, 764243, 764740, 765196, 765667, 766112, 766604, 767076, 767568, 768063, 768562, 769049, 769521, 770041, 770502]","[759749, 760288, 760833, 761357, 761856, 762353, 762845, 763368, 763851, 764314, 764810, 765276, 765752, 766231, 766679, 767142, 767628, 768126, 768631, 769134, 769590, 770094, 770558]","[759354, 759854, 760353, 760853, 761353, 761853, 762353, 762853, 763286, 763789, 764269, 764766, 765221, 765692, 766138, 766629, 767101, 767594, 768089, 768587, 769075, 769547, 770067, 770528]",11,R,ITM,1.1,
6,500,practice,0,4,4,4,practice,"['S', 'S', 'S', 'S', 'S', 'S', 'S', 'C', 'C', 'C', 'C', 'C', 'C', 'C', 'C', 'C', 'C', 'C', 'C', 'C', 'C', 'C', 'C']","[776279, 776832, 777382, 777912, 778413, 778957, 779476, 779971, 780474, 780932, 781385, 781906, 782395, 782899, 783364, 783831, 784295, 784806, 785293, 785754, 786214, 786690, 787180]","[776350, 776915, 777457, 777982, 778490, 779033, 779565, 780042, 780549, 781000, 781478, 781974, 782470, 782940, 783431, 783900, 784365, 784865, 785361, 785829, 786287, 786776, 787251]","[776026, 776524, 777024, 777524, 778024, 778524, 779024, 779525, 779998, 780502, 780959, 781412, 781934, 782422, 782926, 783391, 783857, 784323, 784834, 785320, 785781, 786242, 786716, 787208]",11,R,ITM,1.1,
7,500,practice,0,5,5,5,practice,"['S', 'S', 'S', 'S', 'S', 'S', 'S', 'C', 'C', 'C', 'C', 'C', 'C', 'C', 'C', 'C', 'C', 'C', 'C', 'C', 'C', 'C', 'C']","[792970, 793539, 794097, 794622, 795126, 795638, 796128, 796615, 797109, 797555, 798108, 798571, 799085, 799546, 800084, 800570, 801052, 801566, 802021, 802514, 803001, 803567, 803981]","[793022, 793602, 794174, 794690, 795199, 795700, 796200, 796687, 797161, 797624, 798174, 798631, 799128, 799625, 800130, 800619, 801124, 801603, 802093, 802591, 803087, 803628, 804048]","[792700, 793199, 793699, 794200, 794699, 795199, 795699, 796199, 796642, 797135, 797582, 798136, 798598, 799112, 799574, 800112, 800598, 801079, 801593, 802049, 802542, 803027, 803594, 804008]",11,R,ITM,1.1,
6,400,trial,0,6,6,6,trial,"['S', 'S', 'S', 'S', 'S', 'S', 'S', 'C', 'C', 'C', 'C', 'C', 'C', 'C', 'C', 'C', 'C', 'C', 'C', 'C', 'C', 'C', 'C']","[840951, 841396, 841786, 842136, 842528, 842902, 843322, 843701, 844036, 844392, 844745, 845110, 845518, 845906, 846328, 846724, 847137, 847565, 847921, 848340, 848720, 849126, 849514]","[841049, 841488, 841871, 842205, 842615, 842991, 843403, 843785, 844118, 844471, 844806, 845175, 845558, 845967, 846361, 846776, 847188, 847611, 848001, 848409, 848792, 849165, 849574]","[840587, 840986, 841387, 841786, 842186, 842587, 842986, 843386, 843727, 844063, 844419, 844772, 845136, 845546, 845933, 846355, 846750, 847164, 847592, 847948, 848368, 848748, 849153, 849542]",11,R,ITM,1.1,
4,600,trial,0,7,7,7,trial,"['S', 'S', 'S', 'S', 'S', 'S', 'S', 'C', 'C', 'C', 'C', 'C', 'C', 'C', 'C', 'C', 'C', 'C', 'C', 'C', 'C', 'C', 'C']","[855448, 856113, 856785, 857460, 858053, 858646, 859264, 859844, 860448, 861050, 861634, 862211, 862788, 863373, 863958, 864537, 865106, 865693, 866262, 866832, 867388, 867945, 868547]","[855531, 856196, 856869, 857546, 858132, 858721, 859333, 859915, 860518, 861127, 861708, 862273, 862841, 863450, 864035, 864614, 865180, 865752, 866332, 866910, 867473, 868026, 868620]","[855085, 855684, 856284, 856883, 857483, 858083, 858683, 859283, 859870, 860474, 861076, 861660, 862236, 862814, 863398, 863983, 864563, 865132, 865719, 866287, 866857, 867414, 867971, 868573]",11,R,ITM,1.1,
3,400,trial,0,8,8,8,trial,"['S', 'S', 'S', 'S', 'S', 'S', 'S', 'C', 'C', 'C', 'C', 'C', 'C', 'C', 'C', 'C', 'C', 'C', 'C', 'C', 'C', 'C', 'C']","[874697, 875001, 875367, 875763, 876188, 876573, 876965, 877352, 877701, 878106, 878495, 878916, 879295, 879718, 881051, 881490, 881886, 882285, 882731, 883153, 883598, 884016, 884452]","[874747, 875068, 875440, 875826, 876249, 876626, 877015, 877419, 877753, 878166, 878535, 878966, 879335, 879757, 881113, 881530, 881924, 882332, 882768, 883191, 883633, 884051, 884496]","[874226, 874627, 875026, 875426, 875826, 876226, 876626, 877026, 877378, 877726, 878132, 878521, 878942, 879321, 879744, 881077, 881516, 881911, 882311, 882756, 883179, 883623, 884041, 884477]",11,R,ITM,1.1,
4,400,trial,0,9,9,9,trial,"['S', 'S', 'S', 'S', 'S', 'S', 'S', 'C', 'C', 'C', 'C', 'C', 'C', 'C', 'C', 'C', 'C', 'C', 'C', 'C', 'C', 'C', 'C']","[890422, 890827, 891260, 891656, 892057, 892471, 892821, 893205, 893595, 893939, 894305, 894701, 895033, 895444, 895830, 896280, 896656, 897036, 897443, 897850, 898222, 898629, 898997]","[890494, 890911, 891331, 891728, 892116, 892538, 892893, 893280, 893663, 894033, 894409, 894768, 895114, 895536, 895895, 896333, 896718, 897118, 897507, 897917, 898298, 898709, 899079]","[890070, 890468, 890868, 891269, 891668, 892068, 892468, 892868, 893231, 893621, 893965, 894330, 894728, 895058, 895471, 895856, 896306, 896681, 897061, 897469, 897875, 898247, 898655, 899022]",11,R,ITM,1.1,
2,400,trial,0,10,10,10,trial,"['S', 'S', 'S', 'S', 'S', 'S', 'S', 'C', 'C', 'C', 'C', 'C', 'C', 'C', 'C', 'C', 'C', 'C', 'C', 'C', 'C', 'C', 'C']","[904985, 905460, 905878, 906304, 906732, 907141, 907529, 907922, 908306, 908695, 909080, 909456, 909824, 910224, 910568, 911005, 911368, 911757, 912130, 912529, 912933, 913299, 913692]","[905060, 905535, 905950, 906369, 906805, 907216, 907592, 907980, 908352, 908762, 909156, 909523, 909919, 910306, 910654, 911085, 911451, 911817, 912197, 912584, 912994, 913366, 913747]","[904767, 905167, 905567, 905967, 906366, 906767, 907167, 907568, 907949, 908334, 908723, 909108, 909484, 909851, 910251, 910595, 911033, 911395, 911784, 912156, 912557, 912961, 913326, 913720]",11,R,ITM,1.1,
7,600,trial,0,11,11,11,trial,"['S', 'S', 'S', 'S', 'S', 'S', 'S', 'S', 'C', 'C', 'C', 'C', 'C', 'C', 'C', 'C', 'C', 'C', 'C', 'C', 'C', 'C', 'C', 'C']","[919256, 919587, 920197, 920844, 921492, 922064, 922655, 923258, 923858, 924472, 925095, 925674, 926269, 926859, 927483, 928073, 928676, 929263, 929858, 930475, 931070, 931611, 932240, 932840]","[919325, 919668, 920262, 920910, 921554, 922128, 922719, 923324, 923920, 924531, 925162, 925740, 926332, 926927, 927550, 928137, 928743, 929330, 929920, 930531, 931134, 931682, 932287, 932905]","[919079, 919678, 920279, 920879, 921479, 922078, 922678, 923278, 923886, 924498, 925122, 925701, 926296, 926885, 927510, 928101, 928703, 929291, 929886, 930502, 931098, 931639, 932267, 932867]",11,R,ITM,1.1,
7,400,trial,0,12,12,12,trial,"['S', 'S', 'S', 'S', 'S', 'S', 'S', 'C', 'C', 'C', 'C', 'C', 'C', 'C', 'C', 'C', 'C', 'C', 'C', 'C', 'C', 'C', 'C']","[938630, 938967, 939340, 939750, 940141, 940537, 940934, 941320, 941722, 942137, 942573, 942963, 943355, 943770, 944184, 944574, 944978, 945386, 945750, 946165, 946553, 946937, 947338]","[938694, 939034, 939406, 939811, 940197, 940587, 940979, 941378, 941785, 942199, 942618, 943016, 943414, 943838, 944246, 944649, 945061, 945438, 945820, 946241, 946621, 947009, 947407]","[938180, 938579, 938979, 939379, 939780, 940179, 940579, 940979, 941346, 941749, 942163, 942601, 942990, 943382, 943797, 944210, 944601, 945006, 945413, 945776, 946192, 946581, 946964, 947364]",11,R,ITM,1.1,
2,600,trial,0,13,13,13,trial,"['S', 'S', 'S', 'S', 'S', 'S', 'S', 'C', 'C', 'C', 'C', 'C', 'C', 'C', 'C', 'C', 'C', 'C', 'C', 'C', 'C', 'C', 'C']","[953295, 953986, 954671, 955312, 955943, 956530, 957125, 957712, 958295, 958922, 959529, 960126, 960774, 961357, 961914, 962482, 963108, 963703, 964264, 964864, 965479, 966035, 966615]","[953367, 954064, 954757, 955384, 956018, 956604, 957195, 957784, 958369, 959005, 959596, 960205, 960847, 961427, 961996, 962566, 963176, 963766, 964337, 964938, 965554, 966114, 966710]","[952942, 953542, 954142, 954741, 955342, 955941, 956542, 957143, 957740, 958322, 958950, 959556, 960154, 960800, 961384, 961941, 962509, 963136, 963731, 964292, 964890, 965507, 966062, 966642]",11,R,ITM,1.1,
7,600,trial,0,14,14,14,trial,"['S', 'S', 'S', 'S', 'S', 'S', 'S', 'C', 'C', 'C', 'C', 'C', 'C', 'C', 'C', 'C', 'C', 'C', 'C', 'C', 'C', 'C', 'C']","[972533, 973211, 973880, 974551, 975197, 975811, 976417, 977010, 977622, 978194, 978761, 979352, 979953, 980547, 981142, 981765, 982368, 982950, 983523, 984110, 984688, 985275, 985863]","[972610, 973288, 973950, 974622, 975273, 975897, 976481, 977075, 977689, 978269, 978834, 979418, 980028, 980629, 981217, 981837, 982420, 983036, 983589, 984173, 984752, 985342, 985924]","[972241, 972840, 973441, 974041, 974641, 975240, 975840, 976440, 977038, 977648, 978221, 978789, 979380, 979981, 980575, 981169, 981792, 982395, 982977, 983549, 984137, 984716, 985302, 985890]",11,R,ITM,1.1,
2,600,trial,0,15,15,15,trial,"['S', 'S', 'S', 'S', 'S', 'S', 'S', 'C', 'C', 'C', 'C', 'C', 'C', 'C', 'C', 'C', 'C', 'C', 'C', 'C', 'C', 'C', 'C']","[991908, 992607, 993259, 993863, 994519, 995173, 995773, 996370, 996973, 997570, 998137, 998728, 999325, 999921, 1000498, 1001080, 1001646, 1002253, 1002850, 1003418, 1004035, 1004623, 1005237]","[991984, 992685, 993333, 993934, 994603, 995256, 995856, 996441, 997051, 997653, 998225, 998819, 999402, 1000000, 1000565, 1001162, 1001720, 1002341, 1002951, 1003494, 1004118, 1004706, 1005320]","[991590, 992189, 992789, 993390, 993990, 994590, 995190, 995789, 996397, 997000, 997597, 998165, 998755, 999353, 999948, 1000524, 1001107, 1001673, 1002280, 1002877, 1003446, 1004062, 1004651, 1005264]",11,R,ITM,1.1,
2,400,trial,0,16,16,16,trial,"['S', 'S', 'S', 'S', 'S', 'S', 'S', 'C', 'C', 'C', 'C', 'C', 'C', 'C', 'C', 'C', 'C', 'C', 'C', 'C', 'C', 'C', 'C']","[1011116, 1011501, 1011904, 1012268, 1012660, 1013092, 1013493, 1013859, 1014250, 1014644, 1015041, 1015429, 1015819, 1016211, 1016581, 1016985, 1017367, 1017773, 1018179, 1018564, 1018923, 1019290, 1019735]","[1011185, 1011560, 1011960, 1012330, 1012729, 1013133, 1013535, 1013921, 1014315, 1014695, 1015110, 1015506, 1015911, 1016295, 1016673, 1017074, 1017461, 1017862, 1018262, 1018647, 1018991, 1019369, 1019809]","[1010693, 1011092, 1011491, 1011892, 1012291, 1012692, 1013092, 1013492, 1013885, 1014278, 1014671, 1015068, 1015456, 1015846, 1016239, 1016607, 1017013, 1017395, 1017800, 1018206, 1018592, 1018949, 1019318, 1019762]",11,R,ITM,1.1,
5,600,trial,0,17,17,17,trial,"['S', 'S', 'S', 'S', 'S', 'S', 'S', 'C', 'C', 'C', 'C', 'C', 'C', 'C', 'C', 'C', 'C', 'C', 'C', 'C', 'C', 'C', 'C']","[1025666, 1026317, 1026982, 1027608, 1028233, 1028862, 1029487, 1030082, 1030665, 1031232, 1031810, 1032406, 1032963, 1033504, 1034129, 1034687, 1035285, 1035890, 1036486, 1037078, 1037683, 1038265, 1038848]","[1025737, 1026400, 1027064, 1027686, 1028313, 1028933, 1029556, 1030140, 1030740, 1031324, 1031895, 1032494, 1033074, 1033616, 1034216, 1034776, 1035406, 1036006, 1036606, 1037172, 1037756, 1038347, 1038944]","[1025325, 1025924, 1026524, 1027123, 1027723, 1028323, 1028923, 1029523, 1030108, 1030690, 1031258, 1031835, 1032431, 1032988, 1033530, 1034155, 1034714, 1035311, 1035916, 1036513, 1037104, 1037709, 1038291, 1038873]",11,R,ITM,1.1,
6,600,trial,0,18,18,18,trial,"['S', 'S', 'S', 'S', 'S', 'S', 'S', 'C', 'C', 'C', 'C', 'C', 'C', 'C', 'C', 'C', 'C', 'C', 'C', 'C', 'C', 'C', 'C']","[1066162, 1066767, 1067412, 1068101, 1068710, 1069290, 1069875, 1070454, 1070955, 1071470, 1072009, 1072566, 1073127, 1073667, 1074254, 1074786, 1075246, 1075825, 1076342, 1076871, 1077447, 1078012, 1078539]","[1066246, 1066845, 1067484, 1068190, 1068800, 1069374, 1069970, 1070538, 1071044, 1071552, 1072080, 1072652, 1073236, 1073741, 1074334, 1074868, 1075333, 1075903, 1076422, 1076929, 1077492, 1078061, 1078598]","[1065790, 1066390, 1066990, 1067590, 1068190, 1068790, 1069390, 1069990, 1070482, 1070982, 1071498, 1072036, 1072592, 1073154, 1073693, 1074282, 1074812, 1075272, 1075852, 1076369, 1076897, 1077474, 1078039, 1078565]",11,R,ITM,1.1,
3,400,trial,0,19,19,19,trial,"['S', 'S', 'S', 'S', 'S', 'S', 'S', 'C', 'C', 'C', 'C', 'C', 'C', 'C', 'C', 'C', 'C', 'C', 'C', 'C', 'C', 'C', 'C']","[1084268, 1084711, 1085175, 1085603, 1085993, 1086393, 1086775, 1087180, 1087575, 1087986, 1088368, 1088733, 1089143, 1089545, 1089910, 1090322, 1090735, 1091106, 1091537, 1091909, 1092312, 1092684, 1093079]","[1084341, 1084782, 1085240, 1085668, 1086064, 1086466, 1086850, 1087256, 1087637, 1088040, 1088438, 1088803, 1089217, 1089573, 1089966, 1090392, 1090780, 1091179, 1091577, 1091971, 1092367, 1092749, 1093143]","[1084011, 1084411, 1084811, 1085211, 1085612, 1086011, 1086411, 1086812, 1087206, 1087600, 1088012, 1088394, 1088758, 1089169, 1089570, 1089936, 1090348, 1090760, 1091132, 1091563, 1091935, 1092337, 1092710, 1093104]",11,R,ITM,1.1,
4,400,trial,0,20,20,20,trial,"['S', 'S', 'S', 'S', 'S', 'S', 'S', 'C', 'C', 'C', 'C', 'C', 'C', 'C', 'C', 'C', 'C', 'C', 'C', 'C', 'C', 'C', 'C']","[1098845, 1099293, 1099709, 1100125, 1100536, 1100939, 1101336, 1101744, 1102116, 1102514, 1102871, 1103268, 1103656, 1104049, 1104446, 1104834, 1105225, 1105592, 1105975, 1106362, 1106738, 1107174, 1107517]","[1098915, 1099364, 1099785, 1100188, 1100602, 1100988, 1101385, 1101800, 1102176, 1102569, 1102928, 1103342, 1103735, 1104123, 1104512, 1104900, 1105269, 1105651, 1106029, 1106430, 1106784, 1107235, 1107586]","[1098585, 1098983, 1099383, 1099783, 1100183, 1100583, 1100983, 1101383, 1101769, 1102142, 1102540, 1102897, 1103294, 1103682, 1104074, 1104472, 1104860, 1105251, 1105617, 1106000, 1106387, 1106763, 1107200, 1107543]",11,R,ITM,1.1,
5,400,trial,0,21,21,21,trial,"['S', 'S', 'S', 'S', 'S', 'S', 'S', 'C', 'C', 'C', 'C', 'C', 'C', 'C', 'C', 'C', 'C', 'C', 'C', 'C', 'C', 'C', 'C']","[1113588, 1114008, 1114427, 1114823, 1115240, 1115638, 1116002, 1116407, 1116788, 1117160, 1117516, 1117914, 1118316, 1118717, 1119144, 1119563, 1119925, 1120324, 1120705, 1121110, 1121477, 1121853, 1122267]","[1113654, 1114075, 1114500, 1114899, 1115316, 1115718, 1116066, 1116469, 1116856, 1117223, 1117586, 1117981, 1118385, 1118792, 1119213, 1119620, 1119993, 1120400, 1120782, 1121185, 1121558, 1121929, 1122336]","[1113299, 1113699, 1114099, 1114500, 1114899, 1115299, 1115699, 1116099, 1116433, 1116814, 1117186, 1117542, 1117939, 1118342, 1118743, 1119170, 1119590, 1119950, 1120350, 1120731, 1121135, 1121504, 1121879, 1122293]",11,R,ITM,1.1,
5,600,trial,0,22,22,22,trial,"['S', 'S', 'S', 'S', 'S', 'S', 'S', 'S', 'C', 'C', 'C', 'C', 'C', 'C', 'C', 'C', 'C', 'C', 'C', 'C', 'C', 'C', 'C', 'C']","[1128091, 1128395, 1129021, 1129708, 1130326, 1130917, 1131499, 1132081, 1132642, 1133229, 1133804, 1134365, 1134928, 1135500, 1136057, 1136603, 1137140, 1137701, 1138249, 1138762, 1139293, 1139843, 1140368, 1140914]","[1128156, 1128475, 1129095, 1129783, 1130398, 1130985, 1131578, 1132141, 1132716, 1133304, 1133878, 1134441, 1135003, 1135586, 1136142, 1136678, 1137248, 1137788, 1138330, 1138847, 1139391, 1139923, 1140454, 1140990]","[1127938, 1128537, 1129137, 1129736, 1130336, 1130936, 1131536, 1132136, 1132667, 1133254, 1133831, 1134392, 1134955, 1135526, 1136082, 1136628, 1137166, 1137727, 1138275, 1138788, 1139318, 1139868, 1140393, 1140939]",11,R,ITM,1.1,
7,400,trial,0,23,23,23,trial,"['S', 'S', 'S', 'S', 'S', 'S', 'S', 'C', 'C', 'C', 'C', 'C', 'C', 'C', 'C', 'C', 'C', 'C', 'C', 'C', 'C', 'C', 'C']","[1146881, 1147307, 1147771, 1148206, 1148639, 1149057, 1149438, 1149842, 1150189, 1150622, 1151020, 1151415, 1151793, 1152201, 1152601, 1152976, 1153361, 1153767, 1154169, 1154567, 1154953, 1155317, 1155736]","[1146958, 1147384, 1147846, 1148288, 1148706, 1149136, 1149496, 1149896, 1150266, 1150694, 1151082, 1151483, 1151868, 1152280, 1152676, 1153062, 1153440, 1153858, 1154255, 1154641, 1155042, 1155421, 1155819]","[1146670, 1147069, 1147469, 1147870, 1148270, 1148670, 1149070, 1149470, 1149869, 1150216, 1150649, 1151046, 1151441, 1151820, 1152228, 1152627, 1153003, 1153388, 1153794, 1154197, 1154594, 1154979, 1155344, 1155763]",11,R,ITM,1.1,
5,400,trial,0,24,24,24,trial,"['S', 'S', 'S', 'S', 'S', 'S', 'S', 'C', 'C', 'C', 'C', 'C', 'C', 'C', 'C', 'C', 'C', 'C', 'C', 'C', 'C', 'C', 'C']","[1161549, 1161943, 1162361, 1162763, 1163165, 1163539, 1163932, 1164336, 1164736, 1165109, 1165489, 1165870, 1166228, 1166651, 1167041, 1167420, 1167821, 1168207, 1168598, 1168979, 1169371, 1169733, 1170142]","[1161602, 1162019, 1162438, 1162831, 1163249, 1163631, 1164027, 1164427, 1164810, 1165185, 1165574, 1165952, 1166309, 1166718, 1167102, 1167482, 1167885, 1168273, 1168649, 1169041, 1169433, 1169818, 1170210]","[1161220, 1161618, 1162018, 1162418, 1162818, 1163218, 1163618, 1164018, 1164361, 1164763, 1165135, 1165514, 1165895, 1166254, 1166676, 1167068, 1167446, 1167848, 1168233, 1168623, 1169005, 1169396, 1169759, 1170168]",11,R,ITM,1.1,
6,600,trial,0,25,25,25,trial,"['S', 'S', 'S', 'S', 'S', 'S', 'S', 'S', 'C', 'C', 'C', 'C', 'C', 'C', 'C', 'C', 'C', 'C', 'C', 'C', 'C', 'C', 'C', 'C']","[1176142, 1176796, 1177267, 1177731, 1178264, 1178824, 1179435, 1180077, 1180703, 1181304, 1181896, 1182501, 1183050, 1183614, 1184191, 1184741, 1185288, 1185862, 1186429, 1186990, 1187528, 1188121, 1188649, 1189243]","[1176224, 1176877, 1177353, 1177806, 1178342, 1178907, 1179520, 1180161, 1180795, 1181390, 1182006, 1182602, 1183148, 1183705, 1184265, 1184798, 1185374, 1185942, 1186511, 1187075, 1187609, 1188195, 1188748, 1189308]","[1175931, 1176530, 1177131, 1177731, 1178331, 1178931, 1179531, 1180131, 1180731, 1181331, 1181923, 1182528, 1183077, 1183642, 1184218, 1184769, 1185314, 1185889, 1186457, 1187016, 1187556, 1188148, 1188677, 1189270]",11,R,ITM,1.1,
6,400,trial,0,26,26,26,trial,"['S', 'S', 'S', 'S', 'S', 'S', 'S', 'C', 'C', 'C', 'C', 'C', 'C', 'C', 'C', 'C', 'C', 'C', 'C', 'C', 'C', 'C', 'C']","[1195074, 1195491, 1195986, 1196400, 1196803, 1197213, 1197599, 1198003, 1198357, 1198744, 1199089, 1199501, 1199888, 1200262, 1200649, 1201020, 1201402, 1201774, 1202177, 1202537, 1202898, 1203308, 1203661]","[1195156, 1195585, 1196049, 1196488, 1196887, 1197281, 1197673, 1198089, 1198437, 1198808, 1199178, 1199577, 1199951, 1200331, 1200729, 1201112, 1201490, 1201853, 1202239, 1202619, 1202984, 1203383, 1203746]","[1194899, 1195299, 1195699, 1196099, 1196499, 1196899, 1197299, 1197700, 1198030, 1198384, 1198771, 1199117, 1199527, 1199915, 1200288, 1200676, 1201047, 1201429, 1201801, 1202203, 1202565, 1202925, 1203336, 1203688]",11,R,ITM,1.1,
4,600,trial,0,27,27,27,trial,"['S', 'S', 'S', 'S', 'S', 'S', 'S', 'C', 'C', 'C', 'C', 'C', 'C', 'C', 'C', 'C', 'C', 'C', 'C', 'C', 'C', 'C', 'C']","[1209690, 1210316, 1210944, 1211579, 1212238, 1212838, 1213416, 1214030, 1214590, 1215203, 1215775, 1216329, 1216907, 1217461, 1218007, 1218584, 1219162, 1219685, 1220259, 1220810, 1221385, 1221884, 1222468]","[1209765, 1210403, 1211029, 1211640, 1212316, 1212910, 1213506, 1214106, 1214679, 1215291, 1215859, 1216407, 1216976, 1217534, 1218081, 1218654, 1219226, 1219751, 1220333, 1220877, 1221463, 1221949, 1222542]","[1209292, 1209891, 1210491, 1211091, 1211692, 1212292, 1212892, 1213491, 1214056, 1214615, 1215228, 1215801, 1216355, 1216933, 1217487, 1218032, 1218610, 1219187, 1219710, 1220285, 1220837, 1221410, 1221910, 1222494]",11,R,ITM,1.1,
3,600,trial,0,28,28,28,trial,"['S', 'S', 'S', 'S', 'S', 'S', 'S', 'C', 'C', 'C', 'C', 'C', 'C', 'C', 'C', 'C', 'C', 'C', 'C', 'C', 'C', 'C', 'C']","[1228583, 1229149, 1229782, 1230404, 1230985, 1231589, 1232218, 1232884, 1233455, 1233995, 1234578, 1235126, 1235695, 1236201, 1236786, 1237346, 1237885, 1238441, 1239046, 1239541, 1240116, 1241294, 1241787]","[1228646, 1229220, 1229865, 1230473, 1231046, 1231671, 1232290, 1232955, 1233505, 1234060, 1234654, 1235226, 1235784, 1236293, 1236862, 1237389, 1237951, 1238489, 1239104, 1239603, 1240184, 1241363, 1241848]","[1228138, 1228738, 1229338, 1229938, 1230538, 1231138, 1231738, 1232338, 1232910, 1233480, 1234021, 1234604, 1235151, 1235721, 1236227, 1236811, 1237371, 1237911, 1238467, 1239071, 1239567, 1240141, 1241320, 1241812]",11,R,ITM,1.1,
3,600,trial,0,29,29,29,trial,"['S', 'S', 'S', 'S', 'S', 'S', 'S', 'C', 'C', 'C', 'C', 'C', 'C', 'C', 'C', 'C', 'C', 'C', 'C', 'C', 'C', 'C', 'C']","[1247846, 1248514, 1249133, 1249761, 1250395, 1250953, 1251571, 1252153, 1252702, 1253258, 1253830, 1254379, 1254964, 1255494, 1256017, 1256592, 1257170, 1257669, 1258249, 1258773, 1259360, 1259843, 1260387]","[1247908, 1248596, 1249204, 1249845, 1250468, 1251025, 1251654, 1252237, 1252779, 1253325, 1253907, 1254458, 1255027, 1255586, 1256104, 1256665, 1257226, 1257735, 1258314, 1258854, 1259433, 1259928, 1260460]","[1247436, 1248036, 1248636, 1249236, 1249837, 1250437, 1251037, 1251637, 1252178, 1252727, 1253283, 1253856, 1254405, 1254989, 1255520, 1256043, 1256617, 1257196, 1257695, 1258274, 1258799, 1259385, 1259869, 1260412]",11,R,ITM,1.1,
6,600,trial,0,30,30,30,trial,"['S', 'S', 'S', 'S', 'S', 'S', 'S', 'C', 'C', 'C', 'C', 'C', 'C', 'C', 'C', 'C', 'C', 'C', 'C', 'C', 'C', 'C', 'C']","[1269611, 1270244, 1270894, 1271516, 1272142, 1272796, 1273423, 1274042, 1274603, 1275203, 1275739, 1276323, 1276886, 1277438, 1277985, 1278515, 1279030, 1279527, 1280089, 1280581, 1281164, 1281700, 1282249]","[1269668, 1270307, 1270962, 1271592, 1272224, 1272871, 1273496, 1274117, 1274669, 1275277, 1275814, 1276393, 1276963, 1277529, 1278049, 1278581, 1279107, 1279629, 1280155, 1280649, 1281223, 1281773, 1282318]","[1269272, 1269871, 1270471, 1271071, 1271671, 1272271, 1272871, 1273472, 1274070, 1274630, 1275230, 1275765, 1276350, 1276913, 1277466, 1278013, 1278541, 1279056, 1279554, 1280116, 1280608, 1281190, 1281728, 1282276]",11,R,ITM,1.1,
6,400,trial,0,31,31,31,trial,"['S', 'S', 'S', 'S', 'S', 'S', 'S', 'C', 'C', 'C', 'C', 'C', 'C', 'C', 'C', 'C', 'C', 'C', 'C', 'C', 'C', 'C', 'C']","[1287813, 1288258, 1288689, 1289131, 1289572, 1290021, 1290424, 1290817, 1291214, 1291633, 1292029, 1292429, 1292804, 1293224, 1293616, 1294031, 1294443, 1294854, 1295263, 1295669, 1296041, 1296466, 1296846]","[1287886, 1288328, 1288762, 1289196, 1289645, 1290089, 1290496, 1290885, 1291289, 1291697, 1292097, 1292510, 1292886, 1293303, 1293684, 1294084, 1294501, 1294927, 1295335, 1295733, 1296094, 1296536, 1296894]","[1287662, 1288061, 1288461, 1288861, 1289262, 1289661, 1290061, 1290462, 1290844, 1291241, 1291660, 1292057, 1292455, 1292830, 1293251, 1293643, 1294058, 1294471, 1294880, 1295290, 1295695, 1296068, 1296493, 1296874]",11,R,ITM,1.1,
4,400,trial,0,32,32,32,trial,"['S', 'S', 'S', 'S', 'S', 'S', 'S', 'C', 'C', 'C', 'C', 'C', 'C', 'C', 'C', 'C', 'C', 'C', 'C', 'C', 'C', 'C', 'C']","[1302766, 1303153, 1303613, 1304067, 1304467, 1304880, 1305270, 1305683, 1306077, 1306448, 1306870, 1307273, 1307640, 1308016, 1308405, 1308804, 1309158, 1309553, 1309928, 1310309, 1310703, 1311066, 1311457]","[1302827, 1303228, 1303675, 1304121, 1304527, 1304936, 1305333, 1305745, 1306148, 1306521, 1306945, 1307319, 1307705, 1308092, 1308479, 1308870, 1309246, 1309649, 1310015, 1310396, 1310791, 1311159, 1311533]","[1302521, 1302921, 1303321, 1303721, 1304121, 1304521, 1304922, 1305321, 1305710, 1306102, 1306474, 1306897, 1307299, 1307666, 1308042, 1308431, 1308829, 1309184, 1309579, 1309954, 1310334, 1310729, 1311091, 1311482]",11,R,ITM,1.1,
7,400,trial,0,33,33,33,trial,"['S', 'S', 'S', 'S', 'S', 'S', 'S', 'C', 'C', 'C', 'C', 'C', 'C', 'C', 'C', 'C', 'C', 'C', 'C', 'C', 'C', 'C', 'C']","[1317348, 1317778, 1318182, 1318620, 1319003, 1319428, 1319826, 1320232, 1320610, 1321003, 1321384, 1321785, 1322159, 1322542, 1322940, 1323303, 1323661, 1324055, 1324445, 1324811, 1325186, 1325595, 1325956]","[1317422, 1317844, 1318256, 1318686, 1319074, 1319497, 1319894, 1320295, 1320687, 1321077, 1321450, 1321843, 1322225, 1322601, 1323012, 1323369, 1323751, 1324150, 1324532, 1324899, 1325276, 1325690, 1326049]","[1317073, 1317472, 1317872, 1318273, 1318672, 1319072, 1319473, 1319872, 1320259, 1320638, 1321030, 1321412, 1321812, 1322185, 1322568, 1322967, 1323330, 1323688, 1324083, 1324472, 1324837, 1325213, 1325623, 1325983]",11,R,ITM,1.1,
3,400,trial,0,34,34,34,trial,"['S', 'S', 'S', 'S', 'S', 'S', 'S', 'C', 'C', 'C', 'C', 'C', 'C', 'C', 'C', 'C', 'C', 'C', 'C', 'C', 'C', 'C', 'C']","[1331591, 1332005, 1332422, 1332857, 1333297, 1333754, 1334160, 1334580, 1334999, 1335370, 1335732, 1336156, 1336537, 1336919, 1337300, 1337699, 1338098, 1338478, 1338857, 1339270, 1339650, 1340050, 1340403]","[1331644, 1332082, 1332502, 1332932, 1333372, 1333820, 1334234, 1334667, 1335077, 1335436, 1335817, 1336236, 1336624, 1337016, 1337391, 1337780, 1338164, 1338574, 1338942, 1339357, 1339729, 1340135, 1340489]","[1331407, 1331807, 1332207, 1332608, 1333007, 1333407, 1333808, 1334207, 1334605, 1335024, 1335396, 1335757, 1336181, 1336562, 1336944, 1337325, 1337724, 1338124, 1338504, 1338883, 1339295, 1339675, 1340076, 1340429]",11,R,ITM,1.1,
6,400,trial,0,35,35,35,trial,"['S', 'S', 'S', 'S', 'S', 'S', 'S', 'C', 'C', 'C', 'C', 'C', 'C', 'C', 'C', 'C', 'C', 'C', 'C', 'C', 'C', 'C', 'C']","[1346198, 1346625, 1347063, 1347577, 1348004, 1348400, 1348786, 1349165, 1349554, 1349932, 1350325, 1350699, 1351078, 1351467, 1351863, 1352264, 1352637, 1352999, 1353410, 1353795, 1354199, 1354575, 1354955]","[1346273, 1346697, 1347126, 1347639, 1348077, 1348464, 1348850, 1349230, 1349623, 1349994, 1350391, 1350762, 1351150, 1351538, 1351949, 1352322, 1352708, 1353075, 1353477, 1353848, 1354263, 1354628, 1355006]","[1346034, 1346435, 1346834, 1347234, 1347635, 1348035, 1348435, 1348835, 1349191, 1349580, 1349958, 1350351, 1350726, 1351105, 1351493, 1351889, 1352291, 1352664, 1353026, 1353437, 1353822, 1354226, 1354603, 1354983]",11,R,ITM,1.1,
4,400,trial,0,36,36,36,trial,"['S', 'S', 'S', 'S', 'S', 'S', 'S', 'C', 'C', 'C', 'C', 'C', 'C', 'C', 'C', 'C', 'C', 'C', 'C', 'C', 'C', 'C', 'C']","[1360593, 1361025, 1361463, 1361868, 1362347, 1362788, 1363176, 1363602, 1363958, 1364369, 1364768, 1365158, 1365527, 1365920, 1366315, 1366693, 1367097, 1367474, 1367856, 1368237, 1368623, 1369013, 1369406]","[1360664, 1361104, 1361525, 1361935, 1362408, 1362853, 1363255, 1363678, 1364025, 1364445, 1364833, 1365239, 1365602, 1365986, 1366374, 1366746, 1367142, 1367535, 1367917, 1368287, 1368701, 1369091, 1369465]","[1360399, 1360799, 1361200, 1361599, 1361999, 1362399, 1362799, 1363200, 1363628, 1363984, 1364396, 1364794, 1365184, 1365553, 1365946, 1366340, 1366719, 1367122, 1367499, 1367881, 1368262, 1368648, 1369038, 1369432]",11,R,ITM,1.1,
5,600,trial,0,37,37,37,trial,"['S', 'S', 'S', 'S', 'S', 'S', 'S', 'S', 'C', 'C', 'C', 'C', 'C', 'C', 'C', 'C', 'C', 'C', 'C', 'C', 'C', 'C', 'C', 'C']","[1374919, 1375478, 1375964, 1376496, 1377121, 1377722, 1378318, 1378916, 1379494, 1380134, 1380697, 1381309, 1381899, 1382488, 1383055, 1383642, 1384182, 1384773, 1385307, 1385931, 1386433, 1387025, 1387573, 1388151]","[1374988, 1375557, 1376054, 1376592, 1377193, 1377804, 1378415, 1379002, 1379570, 1380219, 1380785, 1381394, 1381978, 1382565, 1383141, 1383717, 1384282, 1384851, 1385397, 1386024, 1386527, 1387117, 1387655, 1388236]","[1374732, 1375331, 1375931, 1376531, 1377131, 1377731, 1378331, 1378931, 1379520, 1380160, 1380723, 1381336, 1381924, 1382513, 1383081, 1383668, 1384208, 1384799, 1385332, 1385957, 1386460, 1387052, 1387598, 1388177]",11,R,ITM,1.1,
2,400,trial,0,38,38,38,trial,"['S', 'S', 'S', 'S', 'S', 'S', 'S', 'C', 'C', 'C', 'C', 'C', 'C', 'C', 'C', 'C', 'C', 'C', 'C', 'C', 'C', 'C', 'C']","[1394109, 1394514, 1394918, 1395338, 1395747, 1396168, 1396563, 1396955, 1397344, 1397733, 1398146, 1398533, 1398926, 1399325, 1399743, 1400152, 1400543, 1400910, 1401317, 1401702, 1402096, 1402494, 1402863]","[1394184, 1394595, 1394991, 1395395, 1395799, 1396213, 1396616, 1397018, 1397409, 1397801, 1398198, 1398595, 1398983, 1399402, 1399799, 1400238, 1400616, 1400998, 1401400, 1401796, 1402177, 1402584, 1402931]","[1393783, 1394184, 1394582, 1394983, 1395383, 1395783, 1396184, 1396583, 1396982, 1397371, 1397761, 1398173, 1398559, 1398952, 1399353, 1399771, 1400179, 1400569, 1400937, 1401344, 1401729, 1402123, 1402522, 1402891]",11,R,ITM,1.1,
3,600,trial,0,39,39,39,trial,"['S', 'S', 'S', 'S', 'S', 'S', 'S', 'C', 'C', 'C', 'C', 'C', 'C', 'C', 'C', 'C', 'C', 'C', 'C', 'C', 'C', 'C', 'C']","[1408942, 1409631, 1410268, 1410893, 1411521, 1412182, 1412754, 1413353, 1413897, 1414424, 1414959, 1415519, 1416053, 1416600, 1417159, 1417702, 1418289, 1418787, 1419292, 1419822, 1420335, 1420851, 1421357]","[1409033, 1409702, 1410330, 1410955, 1411594, 1412256, 1412818, 1413423, 1413963, 1414506, 1415042, 1415601, 1416136, 1416696, 1417236, 1417781, 1418357, 1418892, 1419393, 1419901, 1420426, 1420934, 1421453]","[1408667, 1409267, 1409867, 1410467, 1411067, 1411667, 1412268, 1412868, 1413379, 1413922, 1414450, 1414984, 1415544, 1416079, 1416626, 1417185, 1417728, 1418314, 1418813, 1419318, 1419847, 1420360, 1420876, 1421382]",11,R,ITM,1.1,
7,600,trial,0,40,40,40,trial,"['S', 'S', 'S', 'S', 'S', 'S', 'S', 'S', 'C', 'C', 'C', 'C', 'C', 'C', 'C', 'C', 'C', 'C', 'C', 'C', 'C', 'C', 'C', 'C']","[1427377, 1427801, 1428254, 1428872, 1429499, 1430093, 1430713, 1431307, 1431928, 1432527, 1433135, 1433722, 1434279, 1434869, 1435397, 1435968, 1436520, 1437087, 1437585, 1438176, 1438670, 1439220, 1439745, 1440288]","[1427458, 1427886, 1428335, 1428929, 1429569, 1430163, 1430782, 1431382, 1432009, 1432596, 1433201, 1433794, 1434349, 1434941, 1435475, 1436052, 1436608, 1437163, 1437680, 1438258, 1438759, 1439312, 1439867, 1440387]","[1427158, 1427757, 1428357, 1428957, 1429556, 1430156, 1430756, 1431356, 1431956, 1432554, 1433161, 1433749, 1434307, 1434897, 1435423, 1435996, 1436547, 1437115, 1437612, 1438203, 1438698, 1439247, 1439772, 1440316]",11,R,ITM,1.1,
3,600,trial,0,41,41,41,trial,"['S', 'S', 'S', 'S', 'S', 'S', 'S', 'S', 'C', 'C', 'C', 'C', 'C', 'C', 'C', 'C', 'C', 'C', 'C', 'C', 'C', 'C', 'C', 'C']","[1445900, 1446310, 1446835, 1447445, 1448064, 1448657, 1449294, 1449926, 1450484, 1451086, 1451631, 1452213, 1452785, 1453377, 1453904, 1454496, 1455026, 1455594, 1456212, 1456789, 1457305, 1457871, 1458404, 1458979]","[1445974, 1446382, 1446904, 1447499, 1448143, 1448757, 1449375, 1449993, 1450580, 1451166, 1451719, 1452290, 1452845, 1453428, 1453971, 1454574, 1455104, 1455694, 1456291, 1456875, 1457417, 1457991, 1458502, 1459085]","[1445727, 1446326, 1446926, 1447526, 1448126, 1448726, 1449326, 1449926, 1450510, 1451112, 1451657, 1452238, 1452811, 1453403, 1453930, 1454522, 1455051, 1455620, 1456237, 1456815, 1457331, 1457897, 1458429, 1459005]",11,R,ITM,1.1,
2,600,trial,0,42,42,42,trial,"['S', 'S', 'S', 'S', 'S', 'S', 'S', 'S', 'C', 'C', 'C', 'C', 'C', 'C', 'C', 'C', 'C', 'C', 'C', 'C', 'C', 'C', 'C', 'C']","[1467935, 1468380, 1468836, 1469415, 1470026, 1470594, 1471201, 1471851, 1472435, 1473026, 1473628, 1474230, 1474836, 1475467, 1476051, 1476659, 1477252, 1477819, 1478440, 1479016, 1479619, 1480171, 1480760, 1481374]","[1468013, 1468452, 1468918, 1469483, 1470111, 1470669, 1471303, 1471942, 1472534, 1473115, 1473697, 1474305, 1474914, 1475546, 1476125, 1476739, 1477343, 1477896, 1478530, 1479113, 1479718, 1480269, 1480841, 1481449]","[1467703, 1468303, 1468902, 1469503, 1470103, 1470702, 1471303, 1471902, 1472461, 1473053, 1473655, 1474257, 1474864, 1475494, 1476078, 1476686, 1477278, 1477847, 1478467, 1479043, 1479646, 1480198, 1480787, 1481402]",11,R,ITM,1.1,
7,400,trial,0,43,43,43,trial,"['S', 'S', 'S', 'S', 'S', 'S', 'S', 'C', 'C', 'C', 'C', 'C', 'C', 'C', 'C', 'C', 'C', 'C', 'C', 'C', 'C', 'C', 'C']","[1487553, 1487923, 1488306, 1488697, 1489099, 1489536, 1489895, 1490307, 1490686, 1491083, 1491459, 1491852, 1492236, 1492626, 1492999, 1493412, 1493797, 1494195, 1494563, 1494956, 1495329, 1495727, 1496125]","[1487625, 1487990, 1488373, 1488771, 1489166, 1489585, 1489969, 1490378, 1490766, 1491153, 1491538, 1491930, 1492313, 1492710, 1493091, 1493481, 1493895, 1494281, 1494649, 1495046, 1495427, 1495813, 1496200]","[1487153, 1487552, 1487952, 1488352, 1488752, 1489153, 1489552, 1489952, 1490334, 1490713, 1491110, 1491485, 1491879, 1492262, 1492653, 1493025, 1493440, 1493824, 1494221, 1494591, 1494983, 1495356, 1495753, 1496152]",11,R,ITM,1.1,
7,600,trial,0,44,44,44,trial,"['S', 'S', 'S', 'S', 'S', 'S', 'S', 'S', 'C', 'C', 'C', 'C', 'C', 'C', 'C', 'C', 'C', 'C', 'C', 'C', 'C', 'C', 'C', 'C']","[1501729, 1502285, 1502778, 1503349, 1503919, 1504546, 1505099, 1505717, 1506289, 1506883, 1507493, 1508041, 1508603, 1509164, 1509705, 1510286, 1510804, 1511371, 1511892, 1512436, 1512962, 1513493, 1514015, 1514542]","[1501803, 1502366, 1502851, 1503416, 1503995, 1504629, 1505171, 1505787, 1506363, 1506969, 1507560, 1508140, 1508707, 1509269, 1509818, 1510387, 1510895, 1511453, 1511982, 1512522, 1513029, 1513568, 1514118, 1514637]","[1501517, 1502116, 1502716, 1503316, 1503917, 1504517, 1505117, 1505716, 1506316, 1506910, 1507520, 1508069, 1508630, 1509191, 1509732, 1510313, 1510832, 1511399, 1511920, 1512464, 1512988, 1513520, 1514042, 1514569]",11,R,ITM,1.1,
3,400,trial,0,45,45,45,trial,"['S', 'S', 'S', 'S', 'S', 'S', 'S', 'C', 'C', 'C', 'C', 'C', 'C', 'C', 'C', 'C', 'C', 'C', 'C', 'C', 'C', 'C', 'C']","[1520465, 1520835, 1521333, 1521732, 1522127, 1522538, 1522949, 1523353, 1523712, 1524086, 1524442, 1524836, 1525239, 1525627, 1526028, 1526424, 1526804, 1527226, 1527629, 1528001, 1528387, 1528787, 1529128]","[1520549, 1520913, 1521406, 1521796, 1522189, 1522607, 1523020, 1523430, 1523785, 1524159, 1524520, 1524919, 1525307, 1525702, 1526103, 1526511, 1526885, 1527304, 1527704, 1528097, 1528486, 1528872, 1529244]","[1520240, 1520641, 1521040, 1521440, 1521841, 1522240, 1522640, 1523040, 1523379, 1523737, 1524112, 1524467, 1524861, 1525265, 1525653, 1526053, 1526450, 1526830, 1527251, 1527655, 1528027, 1528413, 1528813, 1529154]",11,R,ITM,1.1,
4,600,trial,0,46,46,46,trial,"['S', 'S', 'S', 'S', 'S', 'S', 'S', 'S', 'C', 'C', 'C', 'C', 'C', 'C', 'C', 'C', 'C', 'C', 'C', 'C', 'C', 'C', 'C', 'C']","[1534861, 1535331, 1535760, 1536325, 1536925, 1537500, 1538102, 1538674, 1539249, 1539805, 1540370, 1540948, 1541542, 1542138, 1542636, 1543193, 1543728, 1544298, 1544857, 1545394, 1545924, 1546477, 1546992, 1547536]","[1534932, 1535421, 1535852, 1536402, 1537009, 1537602, 1538180, 1538774, 1539339, 1539901, 1540473, 1541062, 1541651, 1542214, 1542757, 1543296, 1543833, 1544408, 1544948, 1545501, 1546024, 1546578, 1547098, 1547652]","[1534542, 1535142, 1535742, 1536343, 1536943, 1537543, 1538143, 1538743, 1539274, 1539830, 1540396, 1540973, 1541568, 1542164, 1542662, 1543219, 1543753, 1544324, 1544883, 1545419, 1545950, 1546503, 1547018, 1547561]",11,R,ITM,1.1,
2,400,trial,0,47,47,47,trial,"['S', 'S', 'S', 'S', 'S', 'S', 'S', 'C', 'C', 'C', 'C', 'C', 'C', 'C', 'C', 'C', 'C', 'C', 'C', 'C', 'C', 'C', 'C']","[1553319, 1553750, 1554172, 1554589, 1554989, 1555415, 1555832, 1556252, 1556643, 1557050, 1557449, 1557862, 1558289, 1558708, 1559106, 1559486, 1559926, 1560313, 1560755, 1561164, 1561581, 1561966, 1562360]","[1553414, 1553827, 1554267, 1554677, 1555081, 1555511, 1555927, 1556315, 1556718, 1557117, 1557518, 1557955, 1558379, 1558808, 1559177, 1559563, 1559994, 1560392, 1560823, 1561246, 1561660, 1562054, 1562448]","[1553112, 1553511, 1553911, 1554312, 1554711, 1555111, 1555511, 1555910, 1556279, 1556671, 1557076, 1557477, 1557890, 1558317, 1558734, 1559133, 1559514, 1559954, 1560341, 1560782, 1561192, 1561608, 1561993, 1562387]",11,R,ITM,1.1,
6,600,trial,0,48,48,48,trial,"['S', 'S', 'S', 'S', 'S', 'S', 'S', 'C', 'C', 'C', 'C', 'C', 'C', 'C', 'C', 'C', 'C', 'C', 'C', 'C', 'C', 'C', 'C']","[1568458, 1569063, 1569677, 1570270, 1570872, 1571520, 1572116, 1572724, 1573264, 1573816, 1574344, 1574900, 1575439, 1575970, 1576499, 1577054, 1577583, 1578132, 1578688, 1579188, 1579760, 1580267, 1580790]","[1568536, 1569150, 1569769, 1570351, 1570957, 1571606, 1572204, 1572824, 1573358, 1573897, 1574434, 1574983, 1575532, 1576083, 1576600, 1577148, 1577650, 1578214, 1578763, 1579269, 1579858, 1580374, 1580897]","[1568084, 1568685, 1569285, 1569885, 1570484, 1571084, 1571684, 1572284, 1572751, 1573292, 1573842, 1574371, 1574928, 1575467, 1575998, 1576525, 1577080, 1577611, 1578160, 1578715, 1579214, 1579787, 1580295, 1580818]",11,R,ITM,1.1,
2,600,trial,0,49,49,49,trial,"['S', 'S', 'S', 'S', 'S', 'S', 'S', 'S', 'C', 'C', 'C', 'C', 'C', 'C', 'C', 'C', 'C', 'C', 'C', 'C', 'C', 'C', 'C', 'C']","[1586344, 1586826, 1587310, 1587865, 1588459, 1589046, 1589660, 1590276, 1590900, 1591489, 1592083, 1592632, 1593229, 1593818, 1594419, 1595030, 1595609, 1596210, 1596781, 1597350, 1597868, 1598469, 1598990, 1599625]","[1586421, 1586905, 1587389, 1587949, 1588546, 1589146, 1589761, 1590371, 1590989, 1591592, 1592186, 1592743, 1593323, 1593905, 1594520, 1595131, 1595703, 1596297, 1596883, 1597444, 1597968, 1598567, 1599083, 1599707]","[1586132, 1586733, 1587333, 1587933, 1588531, 1589132, 1589732, 1590332, 1590927, 1591517, 1592111, 1592658, 1593256, 1593844, 1594446, 1595057, 1595636, 1596236, 1596808, 1597378, 1597894, 1598496, 1599017, 1599652]",11,R,ITM,1.1,
5,400,trial,0,50,50,50,trial,"['S', 'S', 'S', 'S', 'S', 'S', 'S', 'C', 'C', 'C', 'C', 'C', 'C', 'C', 'C', 'C', 'C', 'C', 'C', 'C', 'C', 'C', 'C']","[1605640, 1606036, 1606410, 1606809, 1607218, 1607626, 1608020, 1608385, 1608778, 1609200, 1609560, 1609962, 1610336, 1610723, 1611124, 1611529, 1611896, 1612282, 1612674, 1613079, 1613479, 1613876, 1614276]","[1605722, 1606100, 1606495, 1606887, 1607293, 1607707, 1608095, 1608477, 1608883, 1609278, 1609665, 1610060, 1610438, 1610821, 1611216, 1611619, 1611987, 1612361, 1612756, 1613171, 1613573, 1613967, 1614356]","[1605219, 1605618, 1606019, 1606418, 1606818, 1607218, 1607618, 1608018, 1608411, 1608804, 1609226, 1609586, 1609988, 1610361, 1610749, 1611151, 1611554, 1611922, 1612308, 1612700, 1613105, 1613506, 1613901, 1614302]",11,R,ITM,1.1,
5,600,trial,0,51,51,51,trial,"['S', 'S', 'S', 'S', 'S', 'S', 'S', 'S', 'C', 'C', 'C', 'C', 'C', 'C', 'C', 'C', 'C', 'C', 'C', 'C', 'C', 'C', 'C', 'C']","[1620268, 1620826, 1621294, 1621842, 1622419, 1623005, 1623582, 1624156, 1624810, 1625398, 1625987, 1626588, 1627132, 1627710, 1628267, 1628819, 1629368, 1629978, 1630551, 1631148, 1631698, 1632254, 1632812, 1633376]","[1620345, 1620905, 1621356, 1621905, 1622482, 1623094, 1623661, 1624255, 1624895, 1625463, 1626056, 1626655, 1627208, 1627794, 1628344, 1628901, 1629471, 1630075, 1630651, 1631245, 1631806, 1632357, 1632944, 1633503]","[1620070, 1620669, 1621269, 1621869, 1622469, 1623069, 1623669, 1624269, 1624836, 1625423, 1626012, 1626614, 1627158, 1627736, 1628293, 1628845, 1629394, 1630004, 1630577, 1631174, 1631724, 1632281, 1632837, 1633401]",11,R,ITM,1.1,
5,400,trial,0,52,52,52,trial,"['S', 'S', 'S', 'S', 'S', 'S', 'S', 'C', 'C', 'C', 'C', 'C', 'C', 'C', 'C', 'C', 'C', 'C', 'C', 'C', 'C', 'C', 'C']","[1639437, 1639851, 1640260, 1640658, 1641062, 1641472, 1641842, 1642250, 1642615, 1643010, 1643387, 1643807, 1644180, 1644600, 1644993, 1645416, 1645827, 1646221, 1646651, 1647077, 1647472, 1647879, 1648266]","[1639518, 1639926, 1640322, 1640723, 1641105, 1641517, 1641916, 1642327, 1642683, 1643071, 1643462, 1643875, 1644274, 1644686, 1645090, 1645513, 1645914, 1646330, 1646757, 1647176, 1647577, 1647978, 1648387]","[1639156, 1639557, 1639956, 1640356, 1640756, 1641156, 1641556, 1641956, 1642276, 1642641, 1643035, 1643413, 1643834, 1644206, 1644625, 1645019, 1645443, 1645852, 1646246, 1646678, 1647102, 1647499, 1647904, 1648291]",11,R,ITM,1.1,
4,600,trial,0,53,53,53,trial,"['S', 'S', 'S', 'S', 'S', 'S', 'S', 'C', 'C', 'C', 'C', 'C', 'C', 'C', 'C', 'C', 'C', 'C', 'C', 'C', 'C', 'C', 'C']","[1654017, 1654651, 1655318, 1655924, 1656547, 1657154, 1657796, 1658406, 1659020, 1659599, 1660174, 1660723, 1661290, 1661850, 1662418, 1662986, 1663515, 1664111, 1664701, 1665255, 1665842, 1666398, 1666939]","[1654097, 1654734, 1655413, 1655997, 1656628, 1657237, 1657886, 1658491, 1659092, 1659672, 1660248, 1660793, 1661358, 1661931, 1662477, 1663071, 1663597, 1664182, 1664766, 1665335, 1665913, 1666480, 1667018]","[1653687, 1654286, 1654886, 1655486, 1656086, 1656686, 1657286, 1657886, 1658433, 1659045, 1659625, 1660199, 1660748, 1661316, 1661876, 1662444, 1663011, 1663541, 1664138, 1664727, 1665281, 1665868, 1666423, 1666965]",11,R,ITM,1.1,
3,400,trial,0,54,54,54,trial,"['S', 'S', 'S', 'S', 'S', 'S', 'S', 'C', 'C', 'C', 'C', 'C', 'C', 'C', 'C', 'C', 'C', 'C', 'C', 'C', 'C', 'C', 'C']","[1676004, 1676398, 1676813, 1677223, 1677620, 1678005, 1678419, 1678822, 1679211, 1679610, 1680000, 1680389, 1680778, 1681163, 1681557, 1681969, 1682345, 1682734, 1683104, 1683501, 1683916, 1684308, 1684691]","[1676086, 1676457, 1676880, 1677295, 1677670, 1678059, 1678479, 1678861, 1679265, 1679673, 1680078, 1680473, 1680864, 1681250, 1681650, 1682065, 1682444, 1682833, 1683219, 1683614, 1684001, 1684390, 1684782]","[1675642, 1676042, 1676442, 1676843, 1677242, 1677642, 1678043, 1678442, 1678848, 1679237, 1679636, 1680026, 1680414, 1680803, 1681188, 1681583, 1681994, 1682371, 1682759, 1683130, 1683526, 1683942, 1684334, 1684717]",11,R,ITM,1.1,
5,400,trial,0,55,55,55,trial,"['S', 'S', 'S', 'S', 'S', 'S', 'S', 'C', 'C', 'C', 'C', 'C', 'C', 'C', 'C', 'C', 'C', 'C', 'C', 'C', 'C', 'C', 'C']","[1690347, 1690806, 1691258, 1691700, 1692099, 1692500, 1692907, 1693322, 1693710, 1694088, 1694480, 1694857, 1695247, 1695635, 1696024, 1696379, 1696817, 1697217, 1697628, 1697988, 1698357, 1698744, 1699146]","[1690444, 1690891, 1691326, 1691764, 1692179, 1692588, 1693001, 1693410, 1693813, 1694189, 1694562, 1694951, 1695337, 1695728, 1696119, 1696491, 1696905, 1697306, 1697704, 1698092, 1698459, 1698862, 1699247]","[1690156, 1690554, 1690954, 1691355, 1691754, 1692154, 1692554, 1692954, 1693347, 1693736, 1694113, 1694505, 1694883, 1695273, 1695661, 1696051, 1696405, 1696842, 1697243, 1697653, 1698014, 1698383, 1698770, 1699172]",11,R,ITM,1.1,
7,400,trial,0,56,56,56,trial,"['S', 'S', 'S', 'S', 'S', 'S', 'S', 'C', 'C', 'C', 'C', 'C', 'C', 'C', 'C', 'C', 'C', 'C', 'C', 'C', 'C', 'C', 'C']","[1705264, 1705660, 1706063, 1706449, 1706875, 1707284, 1707642, 1708082, 1708467, 1708841, 1709253, 1709670, 1710092, 1710453, 1710874, 1711270, 1711645, 1712061, 1712450, 1712832, 1713222, 1713618, 1714010]","[1705339, 1705739, 1706131, 1706539, 1706952, 1707369, 1707751, 1708151, 1708550, 1708935, 1709337, 1709736, 1710159, 1710539, 1710938, 1711361, 1711734, 1712148, 1712530, 1712926, 1713313, 1713699, 1714091]","[1704923, 1705321, 1705721, 1706121, 1706521, 1706921, 1707321, 1707721, 1708108, 1708494, 1708869, 1709281, 1709697, 1710119, 1710480, 1710902, 1711297, 1711672, 1712088, 1712477, 1712860, 1713249, 1713646, 1714036]",11,R,ITM,1.1,
7,600,trial,0,57,57,57,trial,"['S', 'S', 'S', 'S', 'S', 'S', 'S', 'S', 'C', 'C', 'C', 'C', 'C', 'C', 'C', 'C', 'C', 'C', 'C', 'C', 'C', 'C', 'C', 'C']","[1719555, 1719984, 1720552, 1721194, 1721830, 1722418, 1722997, 1723596, 1724190, 1724786, 1725380, 1725955, 1726510, 1727073, 1727588, 1728177, 1728678, 1729246, 1729795, 1730353, 1730902, 1731445, 1731958, 1732538]","[1719643, 1720088, 1720640, 1721283, 1721912, 1722509, 1723094, 1723689, 1724276, 1724875, 1725470, 1726060, 1726603, 1727159, 1727693, 1728271, 1728769, 1729327, 1729878, 1730446, 1730990, 1731533, 1732058, 1732618]","[1719414, 1720014, 1720614, 1721214, 1721815, 1722415, 1723015, 1723614, 1724217, 1724814, 1725407, 1725982, 1726537, 1727099, 1727614, 1728203, 1728706, 1729272, 1729821, 1730379, 1730928, 1731472, 1731986, 1732564]",11,R,ITM,1.1,
6,400,trial,0,58,58,58,trial,"['S', 'S', 'S', 'S', 'S', 'S', 'S', 'C', 'C', 'C', 'C', 'C', 'C', 'C', 'C', 'C', 'C', 'C', 'C', 'C', 'C', 'C', 'C']","[1738379, 1738740, 1739141, 1739522, 1739878, 1740281, 1740689, 1741077, 1741463, 1741843, 1742252, 1742650, 1743020, 1743422, 1743801, 1744188, 1744568, 1744971, 1745351, 1745737, 1746120, 1746525, 1746908]","[1738454, 1738806, 1739209, 1739583, 1739951, 1740362, 1740773, 1741167, 1741560, 1741941, 1742336, 1742726, 1743104, 1743497, 1743889, 1744283, 1744655, 1745062, 1745448, 1745832, 1746215, 1746594, 1746983]","[1737942, 1738340, 1738740, 1739141, 1739540, 1739940, 1740340, 1740740, 1741104, 1741490, 1741870, 1742278, 1742678, 1743046, 1743450, 1743828, 1744215, 1744595, 1744999, 1745378, 1745764, 1746147, 1746552, 1746934]",11,R,ITM,1.1,
3,400,trial,0,59,59,59,trial,"['S', 'S', 'S', 'S', 'S', 'S', 'S', 'C', 'C', 'C', 'C', 'C', 'C', 'C', 'C', 'C', 'C', 'C', 'C', 'C', 'C', 'C', 'C']","[1752662, 1753065, 1753456, 1753882, 1754287, 1754703, 1755113, 1755509, 1755892, 1756315, 1756724, 1757139, 1757565, 1757968, 1758382, 1758807, 1759178, 1759579, 1760001, 1760437, 1760834, 1761250, 1761631]","[1752745, 1753134, 1753515, 1753935, 1754344, 1754761, 1755172, 1755580, 1755965, 1756385, 1756806, 1757215, 1757638, 1758059, 1758472, 1758879, 1759258, 1759653, 1760077, 1760510, 1760904, 1761311, 1761704]","[1752328, 1752727, 1753127, 1753527, 1753927, 1754328, 1754727, 1755127, 1755535, 1755918, 1756341, 1756749, 1757165, 1757591, 1757993, 1758407, 1758832, 1759204, 1759604, 1760026, 1760462, 1760860, 1761275, 1761656]",11,R,ITM,1.1,
3,600,trial,0,60,60,60,trial,"['S', 'S', 'S', 'S', 'S', 'S', 'S', 'C', 'C', 'C', 'C', 'C', 'C', 'C', 'C', 'C', 'C', 'C', 'C', 'C', 'C', 'C', 'C']","[1767442, 1768056, 1768685, 1769304, 1769981, 1770628, 1771222, 1771804, 1772351, 1772873, 1773473, 1774022, 1774535, 1775059, 1775621, 1776156, 1776693, 1777248, 1777796, 1778344, 1778877, 1779414, 1779927]","[1767526, 1768135, 1768785, 1769384, 1770061, 1770711, 1771309, 1771890, 1772438, 1772959, 1773555, 1774112, 1774638, 1775149, 1775712, 1776241, 1776762, 1777335, 1777886, 1778426, 1778962, 1779487, 1780015]","[1767093, 1767693, 1768293, 1768893, 1769493, 1770093, 1770693, 1771293, 1771830, 1772377, 1772899, 1773499, 1774048, 1774561, 1775085, 1775646, 1776182, 1776718, 1777273, 1777822, 1778370, 1778903, 1779439, 1779952]",11,R,ITM,1.1,
4,400,trial,0,61,61,61,trial,"['S', 'S', 'S', 'S', 'S', 'S', 'S', 'C', 'C', 'C', 'C', 'C', 'C', 'C', 'C', 'C', 'C', 'C', 'C', 'C', 'C', 'C', 'C']","[1785647, 1786029, 1786384, 1786790, 1787194, 1787594, 1787974, 1788349, 1788724, 1789114, 1789481, 1789877, 1790275, 1790676, 1791059, 1791443, 1791819, 1792216, 1792609, 1793008, 1793357, 1793762, 1794154]","[1785718, 1786099, 1786469, 1786862, 1787274, 1787672, 1788067, 1788442, 1788797, 1789177, 1789543, 1789938, 1790320, 1790727, 1791114, 1791495, 1791900, 1792307, 1792656, 1793053, 1793451, 1793829, 1794222]","[1785247, 1785647, 1786046, 1786446, 1786846, 1787246, 1787646, 1788046, 1788375, 1788749, 1789139, 1789507, 1789902, 1790302, 1790703, 1791085, 1791469, 1791845, 1792241, 1792634, 1793034, 1793383, 1793787, 1794180]",11,R,ITM,1.1,
6,400,trial,0,62,62,62,trial,"['S', 'S', 'S', 'S', 'S', 'S', 'S', 'C', 'C', 'C', 'C', 'C', 'C', 'C', 'C', 'C', 'C', 'C', 'C', 'C', 'C', 'C', 'C']","[1800008, 1800370, 1800741, 1801165, 1801593, 1801955, 1802338, 1802746, 1803165, 1803550, 1803931, 1804334, 1804731, 1805101, 1805468, 1805852, 1806244, 1806610, 1806991, 1807357, 1807747, 1808130, 1808506]","[1800080, 1800443, 1800792, 1801230, 1801661, 1802030, 1802425, 1802830, 1803240, 1803632, 1804009, 1804400, 1804797, 1805155, 1805522, 1805917, 1806302, 1806680, 1807063, 1807420, 1807817, 1808192, 1808582]","[1799608, 1800007, 1800408, 1800807, 1801207, 1801608, 1802008, 1802408, 1802773, 1803193, 1803578, 1803958, 1804361, 1804758, 1805127, 1805495, 1805879, 1806272, 1806637, 1807017, 1807384, 1807773, 1808156, 1808533]",11,R,ITM,1.1,
4,600,trial,0,63,63,63,trial,"['S', 'S', 'S', 'S', 'S', 'S', 'S', 'S', 'C', 'C', 'C', 'C', 'C', 'C', 'C', 'C', 'C', 'C', 'C', 'C', 'C', 'C', 'C', 'C']","[1814270, 1814795, 1815317, 1815839, 1816391, 1816988, 1817589, 1818175, 1818713, 1819290, 1819837, 1820405, 1820954, 1821502, 1822052, 1822584, 1823109, 1823653, 1824176, 1824699, 1825215, 1825724, 1826232, 1826760]","[1814348, 1814870, 1815386, 1815917, 1816468, 1817066, 1817669, 1818229, 1818801, 1819364, 1819914, 1820473, 1821037, 1821577, 1822111, 1822649, 1823158, 1823720, 1824241, 1824776, 1825301, 1825809, 1826317, 1826838]","[1814007, 1814606, 1815206, 1815806, 1816407, 1817007, 1817607, 1818207, 1818738, 1819316, 1819863, 1820431, 1820980, 1821528, 1822077, 1822610, 1823134, 1823679, 1824201, 1824726, 1825241, 1825750, 1826257, 1826786]",11,R,ITM,1.1,
2,600,trial,0,64,64,64,trial,"['S', 'S', 'S', 'S', 'S', 'S', 'S', 'S', 'C', 'C', 'C', 'C', 'C', 'C', 'C', 'C', 'C', 'C', 'C', 'C', 'C', 'C', 'C', 'C']","[1832673, 1833225, 1833649, 1834212, 1834858, 1835465, 1836038, 1836616, 1837237, 1837848, 1838452, 1839047, 1839650, 1840263, 1840866, 1841499, 1842064, 1842637, 1843185, 1843828, 1844386, 1844969, 1845514, 1846084]","[1832750, 1833309, 1833740, 1834298, 1834926, 1835532, 1836123, 1836702, 1837321, 1837941, 1838539, 1839126, 1839736, 1840337, 1840943, 1841563, 1842151, 1842703, 1843272, 1843896, 1844461, 1845049, 1845602, 1846166]","[1832484, 1833083, 1833684, 1834284, 1834885, 1835484, 1836083, 1836684, 1837264, 1837875, 1838480, 1839074, 1839678, 1840290, 1840893, 1841526, 1842091, 1842665, 1843212, 1843855, 1844413, 1844997, 1845541, 1846112]",11,R,ITM,1.1,
6,600,trial,0,65,65,65,trial,"['S', 'S', 'S', 'S', 'S', 'S', 'S', 'S', 'C', 'C', 'C', 'C', 'C', 'C', 'C', 'C', 'C', 'C', 'C', 'C', 'C', 'C', 'C', 'C']","[1851988, 1852519, 1852949, 1853483, 1854034, 1854600, 1855229, 1855844, 1856416, 1857003, 1857514, 1858137, 1858704, 1859258, 1859753, 1860333, 1860861, 1861442, 1861962, 1862531, 1863098, 1863655, 1864201, 1864736]","[1852065, 1852588, 1853027, 1853551, 1854112, 1854673, 1855295, 1855922, 1856484, 1857063, 1857586, 1858217, 1858783, 1859359, 1859860, 1860435, 1860946, 1861511, 1862038, 1862605, 1863177, 1863741, 1864288, 1864815]","[1851713, 1852312, 1852912, 1853512, 1854112, 1854712, 1855312, 1855912, 1856444, 1857030, 1857541, 1858163, 1858732, 1859284, 1859780, 1860361, 1860888, 1861470, 1861989, 1862558, 1863124, 1863682, 1864227, 1864764]",11,R,ITM,1.1,
2,400,trial,0,66,66,66,trial,"['S', 'S', 'S', 'S', 'S', 'S', 'S', 'C', 'C', 'C', 'C', 'C', 'C', 'C', 'C', 'C', 'C', 'C', 'C', 'C', 'C', 'C', 'C']","[1870814, 1871252, 1871647, 1872060, 1872473, 1872869, 1873275, 1873669, 1874101, 1874472, 1874854, 1875225, 1875642, 1876039, 1876428, 1876808, 1877185, 1877590, 1877981, 1878373, 1878742, 1879183, 1879568]","[1870896, 1871318, 1871716, 1872121, 1872517, 1872933, 1873336, 1873738, 1874174, 1874549, 1874941, 1875333, 1875733, 1876126, 1876515, 1876905, 1877298, 1877685, 1878079, 1878459, 1878833, 1879243, 1879642]","[1870516, 1870916, 1871316, 1871716, 1872116, 1872517, 1872916, 1873316, 1873696, 1874127, 1874500, 1874882, 1875253, 1875670, 1876067, 1876455, 1876835, 1877213, 1877616, 1878008, 1878400, 1878769, 1879211, 1879595]",11,R,ITM,1.1,
5,600,trial,0,67,67,67,trial,"['S', 'S', 'S', 'S', 'S', 'S', 'S', 'C', 'C', 'C', 'C', 'C', 'C', 'C', 'C', 'C', 'C', 'C', 'C', 'C', 'C', 'C', 'C']","[1885351, 1885960, 1886611, 1887282, 1887884, 1888508, 1889082, 1889697, 1890246, 1890779, 1891363, 1891907, 1892470, 1892989, 1893514, 1894035, 1894582, 1895096, 1895651, 1896159, 1896708, 1897239, 1897759]","[1885420, 1886044, 1886685, 1887358, 1887964, 1888590, 1889169, 1889766, 1890326, 1890830, 1891419, 1891972, 1892537, 1893054, 1893573, 1894115, 1894635, 1895165, 1895728, 1896222, 1896783, 1897314, 1897841]","[1885005, 1885604, 1886204, 1886804, 1887405, 1888005, 1888605, 1889205, 1889723, 1890272, 1890804, 1891389, 1891933, 1892497, 1893015, 1893539, 1894061, 1894608, 1895121, 1895676, 1896184, 1896733, 1897265, 1897785]",11,R,ITM,1.1,
7,400,trial,0,68,68,68,trial,"['S', 'S', 'S', 'S', 'S', 'S', 'S', 'C', 'C', 'C', 'C', 'C', 'C', 'C', 'C', 'C', 'C', 'C', 'C', 'C', 'C', 'C', 'C']","[1903463, 1903939, 1904350, 1904787, 1905189, 1905598, 1906025, 1906418, 1906825, 1907206, 1907599, 1908027, 1908411, 1908825, 1909191, 1909584, 1909998, 1910402, 1910790, 1911193, 1911587, 1911959, 1912385]","[1903548, 1903996, 1904390, 1904847, 1905247, 1905646, 1906085, 1906469, 1906887, 1907269, 1907672, 1908090, 1908488, 1908867, 1909269, 1909652, 1910069, 1910473, 1910854, 1911257, 1911631, 1912025, 1912451]","[1903246, 1903646, 1904047, 1904446, 1904846, 1905246, 1905646, 1906046, 1906445, 1906851, 1907233, 1907627, 1908055, 1908438, 1908851, 1909218, 1909611, 1910025, 1910429, 1910817, 1911220, 1911614, 1911987, 1912412]",11,R,ITM,1.1,
3,600,trial,0,69,69,69,trial,"['S', 'S', 'S', 'S', 'S', 'S', 'S', 'C', 'C', 'C', 'C', 'C', 'C', 'C', 'C', 'C', 'C', 'C', 'C', 'C', 'C', 'C', 'C']","[1918348, 1918939, 1919529, 1920149, 1920726, 1921323, 1921931, 1922508, 1923042, 1923542, 1924043, 1924590, 1925059, 1925597, 1926107, 1926663, 1927180, 1927663, 1928161, 1928641, 1929164, 1929652, 1930139]","[1918403, 1918992, 1919606, 1920231, 1920803, 1921404, 1922013, 1922595, 1923118, 1923617, 1924111, 1924637, 1925122, 1925676, 1926162, 1926724, 1927243, 1927738, 1928242, 1928719, 1929249, 1929735, 1930231]","[1918002, 1918600, 1919200, 1919800, 1920400, 1921000, 1921600, 1922200, 1922534, 1923067, 1923567, 1924069, 1924616, 1925085, 1925622, 1926132, 1926689, 1927205, 1927689, 1928186, 1928667, 1929190, 1929677, 1930165]",11,R,ITM,1.1,
4,600,trial,0,70,70,70,trial,"['S', 'S', 'S', 'S', 'S', 'S', 'S', 'S', 'C', 'C', 'C', 'C', 'C', 'C', 'C', 'C', 'C', 'C', 'C', 'C', 'C', 'C', 'C', 'C']","[1936047, 1936451, 1937013, 1937584, 1938172, 1938774, 1939406, 1940020, 1940620, 1941193, 1941745, 1942317, 1942847, 1943401, 1943919, 1944489, 1945008, 1945559, 1946076, 1946627, 1947100, 1947680, 1948206, 1948748]","[1936110, 1936516, 1937100, 1937675, 1938258, 1938855, 1939478, 1940100, 1940717, 1941262, 1941828, 1942409, 1942969, 1943500, 1944023, 1944572, 1945091, 1945668, 1946175, 1946732, 1947209, 1947781, 1948302, 1948839]","[1935888, 1936487, 1937087, 1937687, 1938287, 1938887, 1939487, 1940087, 1940645, 1941219, 1941771, 1942342, 1942873, 1943427, 1943945, 1944516, 1945034, 1945584, 1946101, 1946653, 1947125, 1947706, 1948231, 1948774]",11,R,ITM,1.1,
4,400,trial,0,71,71,71,trial,"['S', 'S', 'S', 'S', 'S', 'S', 'S', 'C', 'C', 'C', 'C', 'C', 'C', 'C', 'C', 'C', 'C', 'C', 'C', 'C', 'C', 'C', 'C']","[1954852, 1955245, 1955658, 1956063, 1956450, 1956853, 1957240, 1957624, 1958033, 1958392, 1958774, 1959153, 1959505, 1959922, 1960302, 1960687, 1961108, 1961515, 1961890, 1962309, 1962712, 1963097, 1963475]","[1954938, 1955313, 1955740, 1956143, 1956541, 1956948, 1957342, 1957727, 1958092, 1958461, 1958856, 1959227, 1959581, 1959992, 1960358, 1960762, 1961158, 1961576, 1961960, 1962365, 1962771, 1963180, 1963566]","[1954523, 1954921, 1955321, 1955721, 1956121, 1956521, 1956921, 1957321, 1957650, 1958059, 1958418, 1958801, 1959179, 1959531, 1959948, 1960328, 1960713, 1961134, 1961540, 1961916, 1962335, 1962737, 1963122, 1963501]",11,R,ITM,1.1,
2,600,trial,0,72,72,72,trial,"['S', 'S', 'S', 'S', 'S', 'S', 'S', 'C', 'C', 'C', 'C', 'C', 'C', 'C', 'C', 'C', 'C', 'C', 'C', 'C', 'C', 'C', 'C']","[1969246, 1969825, 1970407, 1971007, 1971597, 1972177, 1972795, 1973434, 1973964, 1974536, 1975090, 1975684, 1976278, 1976825, 1977411, 1977975, 1978587, 1979164, 1979723, 1980269, 1980845, 1981381, 1981925]","[1969311, 1969887, 1970458, 1971066, 1971668, 1972264, 1972885, 1973488, 1974055, 1974602, 1975170, 1975735, 1976340, 1976912, 1977490, 1978057, 1978682, 1979253, 1979803, 1980359, 1980938, 1981478, 1982007]","[1968887, 1969487, 1970087, 1970688, 1971288, 1971888, 1972488, 1973087, 1973462, 1973992, 1974563, 1975117, 1975710, 1976304, 1976852, 1977438, 1978002, 1978613, 1979192, 1979750, 1980296, 1980871, 1981408, 1981953]",11,R,ITM,1.1,
5,600,trial,0,73,73,73,trial,"['S', 'S', 'S', 'S', 'S', 'S', 'S', 'C', 'C', 'C', 'C', 'C', 'C', 'C', 'C', 'C', 'C', 'C', 'C', 'C', 'C', 'C', 'C']","[1988049, 1988631, 1989272, 1989918, 1990486, 1991123, 1991751, 1992349, 1992922, 1993436, 1994041, 1994573, 1995116, 1995664, 1996223, 1996756, 1997319, 1997863, 1998358, 1998896, 1999431, 1999955, 2000482]","[1988139, 1988711, 1989381, 1989991, 1990580, 1991212, 1991838, 1992428, 1992977, 1993505, 1994114, 1994655, 1995201, 1995746, 1996314, 1996843, 1997413, 1997940, 1998438, 1998957, 1999516, 2000052, 2000573]","[1987653, 1988252, 1988852, 1989452, 1990052, 1990652, 1991252, 1991853, 1992375, 1992947, 1993461, 1994066, 1994599, 1995142, 1995689, 1996249, 1996782, 1997344, 1997889, 1998385, 1998921, 1999458, 1999981, 2000507]",11,R,ITM,1.1,
5,400,trial,0,74,74,74,trial,"['S', 'S', 'S', 'S', 'S', 'S', 'S', 'C', 'C', 'C', 'C', 'C', 'C', 'C', 'C', 'C', 'C', 'C', 'C', 'C', 'C', 'C', 'C']","[2006631, 2006996, 2007376, 2007784, 2008190, 2008594, 2008999, 2009404, 2009768, 2010138, 2010517, 2010890, 2011269, 2011644, 2012009, 2012369, 2012711, 2013070, 2013440, 2013825, 2014192, 2014563, 2014918]","[2006713, 2007069, 2007477, 2007859, 2008267, 2008674, 2009089, 2009502, 2009872, 2010223, 2010602, 2010959, 2011333, 2011710, 2012089, 2012467, 2012809, 2013170, 2013545, 2013922, 2014299, 2014673, 2015024]","[2006289, 2006688, 2007089, 2007488, 2007888, 2008288, 2008688, 2009089, 2009430, 2009794, 2010164, 2010543, 2010915, 2011294, 2011670, 2012035, 2012396, 2012738, 2013095, 2013465, 2013850, 2014218, 2014589, 2014944]",11,R,ITM,1.1,
2,400,trial,0,75,75,75,trial,"['S', 'S', 'S', 'S', 'S', 'S', 'S', 'C', 'C', 'C', 'C', 'C', 'C', 'C', 'C', 'C', 'C', 'C', 'C', 'C', 'C', 'C', 'C']","[2020962, 2021328, 2021718, 2022085, 2022498, 2022885, 2023282, 2023745, 2024158, 2024526, 2024925, 2025317, 2025706, 2026103, 2026482, 2026876, 2027250, 2027650, 2028022, 2028404, 2028777, 2029181, 2029549]","[2021043, 2021410, 2021795, 2022175, 2022579, 2022971, 2023379, 2023825, 2024239, 2024616, 2025009, 2025397, 2025797, 2026206, 2026594, 2026980, 2027366, 2027760, 2028121, 2028506, 2028877, 2029283, 2029671]","[2020621, 2021021, 2021422, 2021820, 2022220, 2022621, 2023021, 2023420, 2023772, 2024184, 2024554, 2024951, 2025344, 2025733, 2026130, 2026509, 2026904, 2027277, 2027676, 2028049, 2028431, 2028805, 2029208, 2029577]",11,R,ITM,1.1,
7,600,trial,0,76,76,76,trial,"['S', 'S', 'S', 'S', 'S', 'S', 'S', 'S', 'C', 'C', 'C', 'C', 'C', 'C', 'C', 'C', 'C', 'C', 'C', 'C', 'C', 'C', 'C', 'C']","[2035580, 2036114, 2036544, 2037094, 2037651, 2038292, 2038848, 2039462, 2040051, 2040585, 2041137, 2041671, 2042199, 2042696, 2043241, 2043765, 2044253, 2044769, 2045260, 2045772, 2046257, 2046774, 2047239, 2047752]","[2035656, 2036177, 2036615, 2037169, 2037730, 2038380, 2038931, 2039561, 2040161, 2040660, 2041214, 2041765, 2042288, 2042788, 2043316, 2043848, 2044351, 2044853, 2045358, 2045845, 2046327, 2046840, 2047333, 2047828]","[2035355, 2035954, 2036554, 2037154, 2037754, 2038354, 2038955, 2039555, 2040079, 2040611, 2041163, 2041699, 2042226, 2042723, 2043268, 2043793, 2044279, 2044796, 2045287, 2045799, 2046283, 2046800, 2047265, 2047779]",11,R,ITM,1.1,
6,600,trial,0,77,77,77,trial,"['S', 'S', 'S', 'S', 'S', 'S', 'S', 'C', 'C', 'C', 'C', 'C', 'C', 'C', 'C', 'C', 'C', 'C', 'C', 'C', 'C', 'C', 'C']","[2053574, 2054178, 2054835, 2055486, 2056154, 2056758, 2057324, 2057951, 2058490, 2059025, 2059585, 2060108, 2060619, 2061171, 2061702, 2062223, 2062740, 2063281, 2063789, 2064325, 2064828, 2065371, 2065866]","[2053653, 2054251, 2054912, 2055570, 2056220, 2056837, 2057420, 2058018, 2058574, 2059115, 2059666, 2060191, 2060705, 2061250, 2061794, 2062296, 2062826, 2063367, 2063875, 2064401, 2064940, 2065461, 2065945]","[2053250, 2053849, 2054449, 2055048, 2055648, 2056248, 2056848, 2057448, 2057977, 2058518, 2059053, 2059612, 2060135, 2060646, 2061199, 2061728, 2062249, 2062767, 2063307, 2063815, 2064353, 2064856, 2065397, 2065893]",11,R,ITM,1.1,
7,600,trial,0,78,78,78,trial,"['S', 'S', 'S', 'S', 'S', 'S', 'S', 'C', 'C', 'C', 'C', 'C', 'C', 'C', 'C', 'C', 'C', 'C', 'C', 'C', 'C', 'C', 'C']","[2071999, 2072597, 2073156, 2073743, 2074349, 2074897, 2075554, 2076156, 2076711, 2077251, 2077813, 2078392, 2078957, 2079492, 2080043, 2080601, 2081146, 2081714, 2082223, 2082749, 2083291, 2083814, 2084347]","[2072039, 2072676, 2073249, 2073829, 2074414, 2074969, 2075629, 2076242, 2076795, 2077316, 2077885, 2078467, 2079037, 2079559, 2080113, 2080657, 2081221, 2081771, 2082311, 2082835, 2083366, 2083886, 2084436]","[2071647, 2072246, 2072846, 2073446, 2074046, 2074646, 2075246, 2075846, 2076184, 2076739, 2077278, 2077840, 2078418, 2078985, 2079518, 2080070, 2080628, 2081174, 2081741, 2082249, 2082777, 2083317, 2083841, 2084375]",11,R,ITM,1.1,
2,400,trial,0,79,79,79,trial,"['S', 'S', 'S', 'S', 'S', 'S', 'S', 'C', 'C', 'C', 'C', 'C', 'C', 'C', 'C', 'C', 'C', 'C', 'C', 'C', 'C', 'C', 'C']","[2090234, 2090627, 2091005, 2091389, 2091790, 2092207, 2092605, 2092974, 2093341, 2093749, 2094146, 2094552, 2094953, 2095367, 2095768, 2096162, 2096552, 2096936, 2097351, 2097700, 2098108, 2098493, 2098851]","[2090311, 2090694, 2091073, 2091489, 2091888, 2092289, 2092684, 2093050, 2093430, 2093817, 2094199, 2094619, 2094998, 2095437, 2095826, 2096244, 2096636, 2097017, 2097398, 2097793, 2098181, 2098541, 2098928]","[2089853, 2090252, 2090653, 2091054, 2091453, 2091853, 2092253, 2092653, 2093001, 2093369, 2093776, 2094174, 2094578, 2094980, 2095393, 2095795, 2096190, 2096580, 2096963, 2097379, 2097728, 2098136, 2098520, 2098879]",11,R,ITM,1.1,
7,400,trial,0,80,80,80,trial,"['S', 'S', 'S', 'S', 'S', 'S', 'S', 'C', 'C', 'C', 'C', 'C', 'C', 'C', 'C', 'C', 'C', 'C', 'C', 'C', 'C', 'C', 'C']","[2104877, 2105281, 2105711, 2106100, 2106493, 2106903, 2107278, 2107651, 2108045, 2108407, 2108804, 2109191, 2109551, 2109945, 2110318, 2110700, 2111065, 2111446, 2111825, 2112201, 2112572, 2112950, 2113329]","[2104953, 2105355, 2105775, 2106152, 2106552, 2106962, 2107336, 2107727, 2108118, 2108493, 2108878, 2109262, 2109626, 2110013, 2110385, 2110772, 2111140, 2111533, 2111903, 2112253, 2112641, 2113012, 2113385]","[2104535, 2104933, 2105333, 2105734, 2106133, 2106533, 2106933, 2107333, 2107678, 2108072, 2108434, 2108830, 2109218, 2109579, 2109972, 2110346, 2110727, 2111092, 2111472, 2111852, 2112228, 2112599, 2112976, 2113356]",11,R,ITM,1.1,
4,400,trial,0,81,81,81,trial,"['S', 'S', 'S', 'S', 'S', 'S', 'S', 'C', 'C', 'C', 'C', 'C', 'C', 'C', 'C', 'C', 'C', 'C', 'C', 'C', 'C', 'C', 'C']","[2119307, 2119657, 2120043, 2120444, 2120834, 2121222, 2121631, 2122024, 2122402, 2122771, 2123143, 2123513, 2123868, 2124244, 2124621, 2124965, 2125339, 2125705, 2126058, 2126419, 2126771, 2127154, 2127489]","[2119364, 2119703, 2120100, 2120496, 2120899, 2121305, 2121713, 2122112, 2122477, 2122844, 2123216, 2123580, 2123929, 2124312, 2124666, 2125044, 2125414, 2125766, 2126132, 2126505, 2126855, 2127210, 2127580]","[2118957, 2119356, 2119756, 2120157, 2120557, 2120957, 2121357, 2121757, 2122050, 2122428, 2122797, 2123168, 2123539, 2123893, 2124270, 2124647, 2124991, 2125365, 2125730, 2126084, 2126445, 2126796, 2127179, 2127514]",11,R,ITM,1.1,
3,600,trial,0,82,82,82,trial,"['S', 'S', 'S', 'S', 'S', 'S', 'S', 'S', 'C', 'C', 'C', 'C', 'C', 'C', 'C', 'C', 'C', 'C', 'C', 'C', 'C', 'C', 'C', 'C']","[2133573, 2134180, 2134773, 2135457, 2135827, 2136097, 2136663, 2137275, 2137902, 2138448, 2138951, 2139462, 2139958, 2140503, 2141002, 2141524, 2141995, 2142511, 2142960, 2143432, 2143891, 2144378, 2144832, 2145289]","[2133655, 2134258, 2134858, 2135547, 2135895, 2136202, 2136764, 2137359, 2137986, 2138516, 2139035, 2139537, 2140036, 2140602, 2141104, 2141614, 2142094, 2142585, 2143072, 2143515, 2143982, 2144471, 2144906, 2145383]","[2133223, 2133822, 2134422, 2135022, 2135622, 2136222, 2136822, 2137422, 2137927, 2138474, 2138977, 2139488, 2139983, 2140528, 2141028, 2141550, 2142020, 2142536, 2142986, 2143458, 2143917, 2144404, 2144858, 2145314]",11,R,ITM,1.1,
5,600,trial,0,83,83,83,trial,"['S', 'S', 'S', 'S', 'S', 'S', 'S', 'S', 'C', 'C', 'C', 'C', 'C', 'C', 'C', 'C', 'C', 'C', 'C', 'C', 'C', 'C', 'C', 'C']","[2150858, 2151324, 2151875, 2152455, 2153054, 2153606, 2154199, 2154781, 2155385, 2155944, 2156513, 2157015, 2157566, 2158098, 2158590, 2159141, 2159607, 2160119, 2160570, 2161065, 2161546, 2162002, 2162489, 2162939]","[2150937, 2151405, 2151954, 2152547, 2153144, 2153700, 2154295, 2154883, 2155490, 2156027, 2156587, 2157087, 2157632, 2158173, 2158669, 2159217, 2159666, 2160186, 2160647, 2161136, 2161631, 2162099, 2162582, 2163056]","[2150694, 2151294, 2151895, 2152495, 2153095, 2153695, 2154295, 2154895, 2155411, 2155970, 2156538, 2157040, 2157592, 2158124, 2158617, 2159167, 2159633, 2160145, 2160595, 2161092, 2161571, 2162028, 2162514, 2162965]",11,R,ITM,1.1,
4,600,trial,0,84,84,84,trial,"['S', 'S', 'S', 'S', 'S', 'S', 'S', 'S', 'C', 'C', 'C', 'C', 'C', 'C', 'C', 'C', 'C', 'C', 'C', 'C', 'C', 'C', 'C', 'C']","[2168427, 2169022, 2169470, 2169981, 2170517, 2171130, 2171722, 2172280, 2172888, 2173405, 2173924, 2174407, 2174926, 2175442, 2175970, 2176463, 2177007, 2177516, 2178019, 2178535, 2179079, 2179572, 2180056, 2180548]","[2168507, 2169085, 2169553, 2170060, 2170605, 2171203, 2171787, 2172371, 2172968, 2173493, 2173991, 2174481, 2174997, 2175493, 2176014, 2176548, 2177084, 2177585, 2178105, 2178613, 2179149, 2179660, 2180152, 2180639]","[2168257, 2168856, 2169456, 2170056, 2170656, 2171256, 2171856, 2172456, 2172913, 2173430, 2173949, 2174433, 2174952, 2175468, 2175995, 2176489, 2177033, 2177542, 2178044, 2178561, 2179104, 2179598, 2180081, 2180574]",11,R,ITM,1.1,
6,600,trial,0,85,85,85,trial,"['S', 'S', 'S', 'S', 'S', 'S', 'S', 'S', 'C', 'C', 'C', 'C', 'C', 'C', 'C', 'C', 'C', 'C', 'C', 'C', 'C', 'C', 'C', 'C']","[2186385, 2186887, 2187324, 2187866, 2188450, 2189027, 2189668, 2190267, 2190907, 2191459, 2192064, 2192636, 2193157, 2193699, 2194263, 2194801, 2195320, 2195931, 2196467, 2197036, 2197560, 2198094, 2198679, 2199265]","[2186466, 2186986, 2187411, 2187966, 2188538, 2189112, 2189767, 2190356, 2190990, 2191538, 2192153, 2192718, 2193255, 2193783, 2194347, 2194891, 2195398, 2196004, 2196540, 2197110, 2197653, 2198189, 2198769, 2199356]","[2186139, 2186738, 2187338, 2187938, 2188538, 2189138, 2189739, 2190339, 2190934, 2191486, 2192092, 2192664, 2193183, 2193726, 2194290, 2194828, 2195348, 2195957, 2196495, 2197063, 2197586, 2198121, 2198706, 2199291]",11,R,ITM,1.1,
4,400,trial,0,86,86,86,trial,"['S', 'S', 'S', 'S', 'S', 'S', 'S', 'C', 'C', 'C', 'C', 'C', 'C', 'C', 'C', 'C', 'C', 'C', 'C', 'C', 'C', 'C', 'C']","[2205148, 2205513, 2205893, 2206312, 2206732, 2207127, 2207535, 2207944, 2208347, 2208750, 2209117, 2209515, 2209907, 2210294, 2210682, 2211066, 2211444, 2211813, 2212235, 2212642, 2213030, 2213402, 2213838]","[2205216, 2205592, 2205980, 2206400, 2206822, 2207221, 2207599, 2208002, 2208394, 2208815, 2209199, 2209600, 2209982, 2210385, 2210779, 2211178, 2211553, 2211940, 2212359, 2212743, 2213141, 2213522, 2213923]","[2204781, 2205180, 2205580, 2205980, 2206381, 2206780, 2207180, 2207581, 2207970, 2208372, 2208776, 2209142, 2209541, 2209933, 2210320, 2210708, 2211092, 2211470, 2211838, 2212260, 2212668, 2213056, 2213428, 2213864]",11,R,ITM,1.1,
5,400,trial,0,87,87,87,trial,"['S', 'S', 'S', 'S', 'S', 'S', 'S', 'C', 'C', 'C', 'C', 'C', 'C', 'C', 'C', 'C', 'C', 'C', 'C', 'C', 'C', 'C', 'C']","[2219632, 2220001, 2220430, 2220851, 2221278, 2221715, 2222127, 2222572, 2222957, 2223357, 2223717, 2224102, 2224479, 2224874, 2225248, 2225638, 2226010, 2226369, 2226762, 2227133, 2227493, 2227864, 2228254]","[2219708, 2220085, 2220502, 2220939, 2221377, 2221818, 2222253, 2222675, 2223069, 2223433, 2223813, 2224187, 2224576, 2224955, 2225349, 2225735, 2226100, 2226475, 2226850, 2227222, 2227586, 2227969, 2228331]","[2219451, 2219851, 2220252, 2220651, 2221051, 2221451, 2221851, 2222252, 2222598, 2222983, 2223383, 2223742, 2224128, 2224504, 2224900, 2225274, 2225665, 2226036, 2226396, 2226789, 2227159, 2227519, 2227891, 2228280]",11,R,ITM,1.1,
3,600,trial,0,88,88,88,trial,"['S', 'S', 'S', 'S', 'S', 'S', 'S', 'C', 'C', 'C', 'C', 'C', 'C', 'C', 'C', 'C', 'C', 'C', 'C', 'C', 'C', 'C', 'C']","[2234385, 2234964, 2235604, 2236203, 2236791, 2237442, 2238035, 2238653, 2239154, 2239643, 2240156, 2240642, 2241133, 2241617, 2242120, 2242610, 2243074, 2243575, 2244062, 2244518, 2244987, 2245481, 2245950]","[2234473, 2235054, 2235686, 2236306, 2236871, 2237534, 2238138, 2238754, 2239241, 2239722, 2240232, 2240740, 2241230, 2241727, 2242208, 2242692, 2243179, 2243652, 2244141, 2244603, 2245082, 2245575, 2246039]","[2234012, 2234612, 2235212, 2235812, 2236412, 2237012, 2237613, 2238213, 2238679, 2239179, 2239669, 2240182, 2240667, 2241159, 2241643, 2242146, 2242635, 2243099, 2243601, 2244087, 2244544, 2245013, 2245507, 2245976]",11,R,ITM,1.1,
4,600,trial,0,89,89,89,trial,"['S', 'S', 'S', 'S', 'S', 'S', 'S', 'S', 'C', 'C', 'C', 'C', 'C', 'C', 'C', 'C', 'C', 'C', 'C', 'C', 'C', 'C', 'C', 'C']","[2251813, 2252217, 2252696, 2253318, 2253854, 2254388, 2255038, 2255702, 2256242, 2256854, 2257361, 2257988, 2258499, 2259036, 2259575, 2260124, 2260645, 2261189, 2261746, 2262264, 2262797, 2263315, 2263830, 2264356]","[2251906, 2252313, 2252782, 2253429, 2253938, 2254476, 2255120, 2255774, 2256324, 2256945, 2257459, 2258075, 2258582, 2259119, 2259665, 2260207, 2260744, 2261265, 2261831, 2262316, 2262846, 2263388, 2263926, 2264446]","[2251629, 2252229, 2252829, 2253429, 2254029, 2254629, 2255229, 2255830, 2256268, 2256880, 2257387, 2258014, 2258525, 2259061, 2259601, 2260150, 2260672, 2261215, 2261772, 2262290, 2262822, 2263341, 2263856, 2264383]",11,R,ITM,1.1,
6,400,trial,0,90,90,90,trial,"['S', 'S', 'S', 'S', 'S', 'S', 'S', 'C', 'C', 'C', 'C', 'C', 'C', 'C', 'C', 'C', 'C', 'C', 'C', 'C', 'C', 'C', 'C']","[2270035, 2270391, 2270779, 2271184, 2271575, 2272018, 2272391, 2272819, 2273236, 2273618, 2274034, 2274419, 2274855, 2275266, 2275653, 2276019, 2276396, 2276807, 2277142, 2277535, 2277898, 2278263, 2278661]","[2270105, 2270469, 2270851, 2271255, 2271664, 2272104, 2272501, 2272919, 2273325, 2273686, 2274110, 2274511, 2274930, 2275358, 2275756, 2276096, 2276471, 2276867, 2277228, 2277586, 2277954, 2278360, 2278750]","[2269692, 2270091, 2270491, 2270892, 2271291, 2271691, 2272092, 2272491, 2272845, 2273262, 2273646, 2274062, 2274446, 2274882, 2275294, 2275680, 2276046, 2276423, 2276834, 2277170, 2277562, 2277925, 2278291, 2278687]",11,R,ITM,1.1,
3,400,trial,0,91,91,91,trial,"['S', 'S', 'S', 'S', 'S', 'S', 'S', 'C', 'C', 'C', 'C', 'C', 'C', 'C', 'C', 'C', 'C', 'C', 'C', 'C', 'C', 'C', 'C']","[2284681, 2285095, 2285532, 2286003, 2286427, 2286844, 2287219, 2287593, 2288009, 2288405, 2288791, 2289174, 2289562, 2289944, 2290323, 2290696, 2291064, 2291483, 2291859, 2292242, 2292622, 2293024, 2293415]","[2284758, 2285162, 2285598, 2286077, 2286519, 2286937, 2287302, 2287660, 2288084, 2288473, 2288865, 2289249, 2289650, 2290036, 2290420, 2290793, 2291156, 2291547, 2291941, 2292349, 2292734, 2293133, 2293510]","[2284452, 2284852, 2285252, 2285652, 2286052, 2286452, 2286853, 2287252, 2287619, 2288034, 2288431, 2288817, 2289200, 2289588, 2289970, 2290349, 2290721, 2291090, 2291509, 2291885, 2292268, 2292647, 2293050, 2293441]",11,R,ITM,1.1,
3,400,trial,0,92,92,92,trial,"['S', 'S', 'S', 'S', 'S', 'S', 'S', 'C', 'C', 'C', 'C', 'C', 'C', 'C', 'C', 'C', 'C', 'C', 'C', 'C', 'C', 'C', 'C']","[2299238, 2299618, 2299981, 2300384, 2300752, 2301210, 2301594, 2301988, 2302379, 2302756, 2303153, 2303526, 2303930, 2304317, 2304701, 2305079, 2305462, 2305843, 2306245, 2306617, 2306987, 2307359, 2307741]","[2299321, 2299700, 2300055, 2300457, 2300840, 2301272, 2301656, 2302064, 2302461, 2302849, 2303249, 2303627, 2304004, 2304404, 2304812, 2305183, 2305529, 2305915, 2306297, 2306720, 2307088, 2307465, 2307837]","[2298900, 2299300, 2299700, 2300100, 2300500, 2300900, 2301300, 2301701, 2302014, 2302404, 2302782, 2303178, 2303552, 2303955, 2304343, 2304727, 2305104, 2305487, 2305868, 2306271, 2306642, 2307012, 2307385, 2307767]",11,R,ITM,1.1,
5,400,trial,0,93,93,93,trial,"['S', 'S', 'S', 'S', 'S', 'S', 'S', 'S', 'C', 'C', 'C', 'C', 'C', 'C', 'C', 'C', 'C', 'C', 'C', 'C', 'C', 'C', 'C', 'C']","[2313590, 2313968, 2314351, 2314714, 2315098, 2315470, 2315839, 2316268, 2316711, 2317084, 2317455, 2317820, 2318185, 2318569, 2318940, 2319323, 2319734, 2320131, 2320509, 2320904, 2321247, 2321605, 2321983, 2322352]","[2313656, 2314019, 2314413, 2314797, 2315179, 2315573, 2315953, 2316365, 2316822, 2317184, 2317536, 2317919, 2318292, 2318665, 2319037, 2319398, 2319801, 2320204, 2320603, 2321007, 2321360, 2321721, 2322109, 2322481]","[2313273, 2313672, 2314073, 2314472, 2314872, 2315272, 2315672, 2316072, 2316737, 2317110, 2317480, 2317847, 2318211, 2318596, 2318966, 2319348, 2319760, 2320157, 2320535, 2320929, 2321272, 2321631, 2322010, 2322377]",11,R,ITM,1.1,
2,600,trial,0,94,94,94,trial,"['S', 'S', 'S', 'S', 'S', 'S', 'S', 'S', 'C', 'C', 'C', 'C', 'C', 'C', 'C', 'C', 'C', 'C', 'C', 'C', 'C', 'C', 'C', 'C']","[2327945, 2328524, 2329037, 2329529, 2330053, 2330625, 2331244, 2331814, 2332411, 2333022, 2333614, 2334200, 2334803, 2335429, 2335971, 2336544, 2337081, 2337634, 2338187, 2338727, 2339257, 2339801, 2340295, 2340848]","[2328043, 2328619, 2329124, 2329620, 2330163, 2330728, 2331341, 2331910, 2332522, 2333125, 2333727, 2334308, 2334931, 2335543, 2336088, 2336647, 2337181, 2337734, 2338287, 2338839, 2339374, 2339910, 2340383, 2340942]","[2327703, 2328303, 2328903, 2329503, 2330103, 2330703, 2331303, 2331904, 2332439, 2333048, 2333641, 2334227, 2334831, 2335457, 2335997, 2336571, 2337108, 2337661, 2338213, 2338754, 2339284, 2339827, 2340322, 2340876]",11,R,ITM,1.1,
7,600,trial,0,95,95,95,trial,"['S', 'S', 'S', 'S', 'S', 'S', 'S', 'S', 'C', 'C', 'C', 'C', 'C', 'C', 'C', 'C', 'C', 'C', 'C', 'C', 'C', 'C', 'C', 'C']","[2346918, 2347437, 2347835, 2348409, 2349020, 2349593, 2350183, 2350779, 2351418, 2352004, 2352584, 2353130, 2353719, 2354277, 2354811, 2355372, 2355878, 2356458, 2356980, 2357490, 2358008, 2358501, 2358996, 2359505]","[2346996, 2347514, 2347920, 2348494, 2349104, 2349679, 2350278, 2350877, 2351520, 2352099, 2352688, 2353242, 2353808, 2354379, 2354914, 2355462, 2355979, 2356550, 2357068, 2357565, 2358106, 2358604, 2359107, 2359603]","[2346665, 2347265, 2347865, 2348465, 2349064, 2349664, 2350264, 2350864, 2351446, 2352030, 2352611, 2353157, 2353746, 2354305, 2354838, 2355398, 2355905, 2356485, 2357008, 2357518, 2358035, 2358529, 2359022, 2359532]",11,R,ITM,1.1,
7,400,trial,0,96,96,96,trial,"['S', 'S', 'S', 'S', 'S', 'S', 'S', 'S', 'C', 'C', 'C', 'C', 'C', 'C', 'C', 'C', 'C', 'C', 'C', 'C', 'C', 'C', 'C', 'C']","[2365374, 2365757, 2366151, 2366548, 2366950, 2367335, 2367702, 2368091, 2368487, 2368842, 2369219, 2369586, 2369980, 2370358, 2370760, 2371142, 2371525, 2371914, 2372283, 2372679, 2373073, 2373474, 2373857, 2374240]","[2365441, 2365828, 2366227, 2366618, 2367005, 2367404, 2367785, 2368180, 2368568, 2368925, 2369299, 2369679, 2370072, 2370453, 2370851, 2371252, 2371629, 2372024, 2372396, 2372759, 2373168, 2373551, 2373944, 2374324]","[2365090, 2365491, 2365891, 2366291, 2366691, 2367091, 2367492, 2367891, 2368515, 2368869, 2369247, 2369612, 2370007, 2370385, 2370787, 2371169, 2371553, 2371941, 2372310, 2372707, 2373100, 2373500, 2373883, 2374267]",11,R,ITM,1.1,
2,600,trial,0,97,97,97,trial,"['S', 'S', 'S', 'S', 'S', 'S', 'S', 'S', 'C', 'C', 'C', 'C', 'C', 'C', 'C', 'C', 'C', 'C', 'C', 'C', 'C', 'C', 'C', 'C']","[2380189, 2380718, 2381245, 2381722, 2382261, 2382789, 2383363, 2383966, 2384567, 2385132, 2385650, 2386186, 2386733, 2387284, 2387834, 2388371, 2388890, 2389466, 2389958, 2390522, 2391026, 2391547, 2392036, 2392578]","[2380262, 2380786, 2381336, 2381810, 2382334, 2382873, 2383464, 2384061, 2384655, 2385220, 2385744, 2386274, 2386816, 2387355, 2387932, 2388451, 2388979, 2389548, 2390055, 2390612, 2391126, 2391626, 2392128, 2392665]","[2379862, 2380462, 2381062, 2381662, 2382261, 2382861, 2383461, 2384060, 2384593, 2385160, 2385678, 2386212, 2386760, 2387311, 2387861, 2388399, 2388918, 2389493, 2389986, 2390549, 2391054, 2391574, 2392062, 2392604]",11,R,ITM,1.1,
6,600,trial,0,98,98,98,trial,"['S', 'S', 'S', 'S', 'S', 'S', 'S', 'S', 'C', 'C', 'C', 'C', 'C', 'C', 'C', 'C', 'C', 'C', 'C', 'C', 'C', 'C', 'C', 'C']","[2398225, 2398644, 2399142, 2399710, 2400303, 2400872, 2401544, 2402137, 2402719, 2403267, 2403811, 2404360, 2404888, 2405411, 2405943, 2406460, 2407000, 2407533, 2408052, 2408582, 2409102, 2409593, 2410092, 2410626]","[2398311, 2398743, 2399240, 2399798, 2400380, 2400943, 2401627, 2402240, 2402805, 2403356, 2403911, 2404445, 2404965, 2405478, 2406021, 2406542, 2407071, 2407608, 2408140, 2408674, 2409201, 2409700, 2410193, 2410728]","[2398041, 2398641, 2399240, 2399840, 2400440, 2401040, 2401640, 2402240, 2402746, 2403294, 2403837, 2404386, 2404916, 2405438, 2405969, 2406487, 2407026, 2407560, 2408079, 2408608, 2409129, 2409620, 2410120, 2410652]",11,R,ITM,1.1,
6,400,trial,0,99,99,99,trial,"['S', 'S', 'S', 'S', 'S', 'S', 'S', 'C', 'C', 'C', 'C', 'C', 'C', 'C', 'C', 'C', 'C', 'C', 'C', 'C', 'C', 'C', 'C']","[2416457, 2416839, 2417224, 2417607, 2417973, 2418356, 2418754, 2419154, 2419517, 2419897, 2420255, 2420662, 2421041, 2421440, 2421804, 2422157, 2422541, 2422932, 2423286, 2423682, 2424049, 2424419, 2424782]","[2416547, 2416926, 2417319, 2417700, 2418066, 2418449, 2418853, 2419258, 2419633, 2419995, 2420360, 2420737, 2421124, 2421520, 2421885, 2422269, 2422641, 2423042, 2423404, 2423797, 2424163, 2424529, 2424897]","[2416036, 2416436, 2416836, 2417236, 2417636, 2418036, 2418437, 2418836, 2419182, 2419544, 2419923, 2420282, 2420689, 2421068, 2421467, 2421831, 2422183, 2422568, 2422959, 2423314, 2423708, 2424076, 2424446, 2424810]",11,R,ITM,1.1,
5,600,trial,0,100,100,100,trial,"['S', 'S', 'S', 'S', 'S', 'S', 'S', 'C', 'C', 'C', 'C', 'C', 'C', 'C', 'C', 'C', 'C', 'C', 'C', 'C', 'C', 'C', 'C']","[2430622, 2431170, 2431736, 2432320, 2432857, 2433455, 2434041, 2434669, 2435205, 2435753, 2436270, 2436797, 2437304, 2437857, 2438367, 2438893, 2439403, 2439954, 2440467, 2441026, 2441527, 2442024, 2442539]","[2430696, 2431247, 2431827, 2432399, 2432942, 2433549, 2434137, 2434735, 2435287, 2435843, 2436355, 2436859, 2437377, 2437937, 2438449, 2438987, 2439475, 2440034, 2440549, 2441089, 2441595, 2442082, 2442628]","[2430203, 2430803, 2431404, 2432004, 2432604, 2433203, 2433803, 2434403, 2434696, 2435230, 2435780, 2436295, 2436823, 2437329, 2437882, 2438392, 2438919, 2439430, 2439980, 2440493, 2441052, 2441552, 2442051, 2442564]",11,R,ITM,1.1,
2,400,trial,0,101,101,101,trial,"['S', 'S', 'S', 'S', 'S', 'S', 'S', 'C', 'C', 'C', 'C', 'C', 'C', 'C', 'C', 'C', 'C', 'C', 'C', 'C', 'C', 'C', 'C']","[2448325, 2448708, 2449095, 2449494, 2449883, 2450298, 2450690, 2451084, 2451492, 2451899, 2452263, 2452665, 2453006, 2453442, 2453847, 2454263, 2454704, 2455106, 2455492, 2455875, 2456264, 2456649, 2457009]","[2448421, 2448811, 2449197, 2449595, 2449984, 2450375, 2450754, 2451143, 2451552, 2451966, 2452345, 2452725, 2453094, 2453507, 2453925, 2454334, 2454787, 2455179, 2455578, 2455970, 2456352, 2456776, 2457109]","[2447925, 2448325, 2448726, 2449125, 2449525, 2449926, 2450325, 2450725, 2451111, 2451520, 2451927, 2452290, 2452692, 2453032, 2453469, 2453874, 2454291, 2454730, 2455134, 2455520, 2455903, 2456292, 2456677, 2457035]",11,R,ITM,1.1,
4,600,trial,0,102,102,102,trial,"['S', 'S', 'S', 'S', 'S', 'S', 'S', 'S', 'C', 'C', 'C', 'C', 'C', 'C', 'C', 'C', 'C', 'C', 'C', 'C', 'C', 'C', 'C', 'C']","[2462961, 2463538, 2464043, 2464583, 2465190, 2465721, 2466280, 2466911, 2467488, 2468075, 2468597, 2469138, 2469671, 2470177, 2470688, 2471224, 2471724, 2472228, 2472706, 2473208, 2473698, 2474200, 2474689, 2475186]","[2463065, 2463617, 2464123, 2464681, 2465285, 2465832, 2466383, 2466996, 2467582, 2468148, 2468695, 2469234, 2469781, 2470274, 2470787, 2471302, 2471802, 2472325, 2472791, 2473297, 2473791, 2474293, 2474776, 2475267]","[2462783, 2463383, 2463983, 2464583, 2465183, 2465783, 2466383, 2466983, 2467514, 2468101, 2468623, 2469164, 2469697, 2470203, 2470714, 2471250, 2471749, 2472254, 2472731, 2473235, 2473723, 2474225, 2474716, 2475211]",11,R,ITM,1.1,
2,600,trial,0,103,103,103,trial,"['S', 'S', 'S', 'S', 'S', 'S', 'S', 'C', 'C', 'C', 'C', 'C', 'C', 'C', 'C', 'C', 'C', 'C', 'C', 'C', 'C', 'C', 'C']","[2480999, 2481544, 2482181, 2482785, 2483439, 2484073, 2484706, 2485338, 2485891, 2486441, 2487072, 2487593, 2488128, 2488672, 2489213, 2489722, 2490294, 2490770, 2491282, 2491796, 2492338, 2492864, 2493391]","[2481083, 2481616, 2482252, 2482860, 2483519, 2484164, 2484796, 2485412, 2485977, 2486505, 2487139, 2487682, 2488220, 2488753, 2489291, 2489775, 2490338, 2490822, 2491341, 2491872, 2492394, 2492922, 2493466]","[2480613, 2481213, 2481813, 2482413, 2483013, 2483612, 2484213, 2484813, 2485365, 2485918, 2486469, 2487099, 2487621, 2488156, 2488698, 2489241, 2489750, 2490320, 2490797, 2491310, 2491824, 2492364, 2492892, 2493418]",11,R,ITM,1.1,
3,600,trial,0,104,104,104,trial,"['S', 'S', 'S', 'S', 'S', 'S', 'S', 'S', 'C', 'C', 'C', 'C', 'C', 'C', 'C', 'C', 'C', 'C', 'C', 'C', 'C', 'C', 'C', 'C']","[2499011, 2499500, 2499936, 2500466, 2501053, 2501653, 2502240, 2502814, 2503454, 2503964, 2504482, 2504998, 2505538, 2506053, 2506586, 2507118, 2507604, 2508089, 2508599, 2509046, 2509536, 2510041, 2510532, 2511086]","[2499072, 2499578, 2500011, 2500536, 2501134, 2501737, 2502320, 2502898, 2503529, 2504026, 2504565, 2505075, 2505589, 2506132, 2506646, 2507188, 2507691, 2508165, 2508697, 2509159, 2509637, 2510131, 2510611, 2511151]","[2498792, 2499392, 2499992, 2500592, 2501192, 2501792, 2502392, 2502992, 2503480, 2503990, 2504508, 2505024, 2505564, 2506079, 2506611, 2507144, 2507630, 2508114, 2508624, 2509072, 2509561, 2510066, 2510558, 2511112]",11,R,ITM,1.1,
3,600,trial,0,105,105,105,trial,"['S', 'S', 'S', 'S', 'S', 'S', 'S', 'S', 'C', 'C', 'C', 'C', 'C', 'C', 'C', 'C', 'C', 'C', 'C', 'C', 'C', 'C', 'C', 'C']","[2517037, 2517442, 2517978, 2518558, 2519196, 2519779, 2520328, 2520989, 2521575, 2522109, 2522683, 2523254, 2523807, 2524367, 2524869, 2525406, 2525911, 2526431, 2526952, 2527477, 2527929, 2528437, 2528962, 2529448]","[2517115, 2517524, 2518062, 2518643, 2519291, 2519858, 2520413, 2521082, 2521672, 2522202, 2522779, 2523352, 2523906, 2524452, 2524959, 2525481, 2525989, 2526512, 2527028, 2527553, 2528010, 2528486, 2529009, 2529530]","[2516873, 2517473, 2518073, 2518673, 2519273, 2519873, 2520473, 2521073, 2521601, 2522135, 2522708, 2523281, 2523833, 2524393, 2524895, 2525431, 2525936, 2526456, 2526978, 2527503, 2527954, 2528462, 2528988, 2529474]",11,R,ITM,1.1,
4,400,trial,0,106,106,106,trial,"['S', 'S', 'S', 'S', 'S', 'S', 'S', 'S', 'C', 'C', 'C', 'C', 'C', 'C', 'C', 'C', 'C', 'C', 'C', 'C', 'C', 'C', 'C', 'C']","[2535085, 2535457, 2535857, 2536261, 2536671, 2537086, 2537516, 2537906, 2538364, 2538750, 2539120, 2539482, 2539832, 2540218, 2540592, 2540966, 2541341, 2541718, 2542070, 2542425, 2542781, 2543126, 2543474, 2543834]","[2535168, 2535537, 2535949, 2536364, 2536786, 2537209, 2537632, 2538039, 2538467, 2538847, 2539222, 2539584, 2539935, 2540304, 2540653, 2541023, 2541408, 2541792, 2542156, 2542524, 2542883, 2543229, 2543570, 2543923]","[2534919, 2535319, 2535719, 2536119, 2536519, 2536920, 2537319, 2537719, 2538390, 2538776, 2539146, 2539507, 2539857, 2540243, 2540618, 2540992, 2541367, 2541744, 2542096, 2542450, 2542807, 2543153, 2543500, 2543859]",11,R,ITM,1.1,
6,600,trial,0,107,107,107,trial,"['S', 'S', 'S', 'S', 'S', 'S', 'S', 'S', 'C', 'C', 'C', 'C', 'C', 'C', 'C', 'C', 'C', 'C', 'C', 'C', 'C', 'C', 'C', 'C']","[2549695, 2550169, 2550582, 2551074, 2551619, 2552212, 2552736, 2553363, 2553967, 2554460, 2554945, 2555445, 2555949, 2556441, 2556925, 2557404, 2557882, 2558359, 2558855, 2559309, 2559768, 2560246, 2560734, 2561207]","[2549754, 2550246, 2550656, 2551153, 2551686, 2552296, 2552830, 2553439, 2554037, 2554545, 2555031, 2555534, 2556045, 2556546, 2557020, 2557507, 2557971, 2558456, 2558944, 2559407, 2559874, 2560324, 2560807, 2561298]","[2549329, 2549928, 2550529, 2551129, 2551729, 2552328, 2552928, 2553528, 2553994, 2554486, 2554972, 2555471, 2555976, 2556469, 2556952, 2557430, 2557908, 2558386, 2558882, 2559336, 2559795, 2560273, 2560760, 2561233]",11,R,ITM,1.1,
5,600,trial,0,108,108,108,trial,"['S', 'S', 'S', 'S', 'S', 'S', 'S', 'S', 'C', 'C', 'C', 'C', 'C', 'C', 'C', 'C', 'C', 'C', 'C', 'C', 'C', 'C', 'C', 'C']","[2566813, 2567220, 2567699, 2568266, 2568876, 2569426, 2570033, 2570620, 2571238, 2571764, 2572295, 2572833, 2573389, 2573908, 2574438, 2574951, 2575504, 2575995, 2576509, 2577016, 2577510, 2578024, 2578526, 2579039]","[2566882, 2567302, 2567799, 2568361, 2568972, 2569529, 2570127, 2570722, 2571327, 2571849, 2572397, 2572949, 2573491, 2574010, 2574535, 2575037, 2575597, 2576084, 2576589, 2577110, 2577607, 2578112, 2578606, 2579124]","[2566599, 2567199, 2567799, 2568399, 2568999, 2569600, 2570200, 2570800, 2571264, 2571791, 2572320, 2572859, 2573416, 2573933, 2574464, 2574978, 2575529, 2576021, 2576536, 2577042, 2577536, 2578051, 2578551, 2579064]",11,R,ITM,1.1,
7,600,trial,0,109,109,109,trial,"['S', 'S', 'S', 'S', 'S', 'S', 'S', 'C', 'C', 'C', 'C', 'C', 'C', 'C', 'C', 'C', 'C', 'C', 'C', 'C', 'C', 'C', 'C']","[2584783, 2585404, 2585990, 2586611, 2587203, 2587859, 2588464, 2589083, 2589660, 2590186, 2590749, 2591291, 2591885, 2592414, 2592999, 2593549, 2594113, 2594653, 2595224, 2595762, 2596299, 2596836, 2597371]","[2584859, 2585484, 2586071, 2586697, 2587295, 2587949, 2588558, 2589160, 2589743, 2590249, 2590808, 2591361, 2591951, 2592493, 2593067, 2593617, 2594192, 2594739, 2595322, 2595857, 2596376, 2596902, 2597452]","[2584386, 2584986, 2585586, 2586186, 2586786, 2587386, 2587986, 2588587, 2589110, 2589686, 2590214, 2590776, 2591319, 2591911, 2592442, 2593026, 2593576, 2594141, 2594679, 2595252, 2595789, 2596327, 2596862, 2597398]",11,R,ITM,1.1,
4,400,trial,0,110,110,110,trial,"['S', 'S', 'S', 'S', 'S', 'S', 'S', 'C', 'C', 'C', 'C', 'C', 'C', 'C', 'C', 'C', 'C', 'C', 'C', 'C', 'C', 'C', 'C']","[2603416, 2603876, 2604292, 2604710, 2605117, 2605506, 2605900, 2606305, 2606686, 2607067, 2607472, 2607861, 2608233, 2608618, 2609000, 2609393, 2609754, 2610146, 2610527, 2610921, 2611290, 2611641, 2612028]","[2603501, 2603947, 2604340, 2604755, 2605176, 2605576, 2605964, 2606362, 2606750, 2607134, 2607538, 2607941, 2608294, 2608689, 2609064, 2609433, 2609821, 2610210, 2610586, 2610984, 2611364, 2611714, 2612078]","[2603177, 2603576, 2603976, 2604377, 2604776, 2605176, 2605576, 2605976, 2606330, 2606712, 2607092, 2607498, 2607888, 2608259, 2608644, 2609026, 2609419, 2609779, 2610171, 2610552, 2610948, 2611315, 2611666, 2612054]",11,R,ITM,1.1,
6,600,trial,0,111,111,111,trial,"['S', 'S', 'S', 'S', 'S', 'S', 'S', 'S', 'C', 'C', 'C', 'C', 'C', 'C', 'C', 'C', 'C', 'C', 'C', 'C', 'C', 'C', 'C', 'C']","[2617942, 2618473, 2618892, 2619421, 2619985, 2620587, 2621197, 2621812, 2622433, 2622978, 2623508, 2624038, 2624558, 2625058, 2625573, 2626078, 2626552, 2627070, 2627531, 2628014, 2628482, 2628957, 2629433, 2629900]","[2618020, 2618536, 2618963, 2619508, 2620059, 2620683, 2621288, 2621916, 2622519, 2623043, 2623588, 2624113, 2624625, 2625126, 2625638, 2626171, 2626654, 2627151, 2627629, 2628124, 2628591, 2629063, 2629532, 2629995]","[2617749, 2618348, 2618948, 2619548, 2620148, 2620748, 2621348, 2621948, 2622459, 2623005, 2623536, 2624065, 2624584, 2625086, 2625601, 2626105, 2626580, 2627097, 2627558, 2628040, 2628509, 2628983, 2629459, 2629926]",11,R,ITM,1.1,
6,400,trial,0,112,112,112,trial,"['S', 'S', 'S', 'S', 'S', 'S', 'S', 'C', 'C', 'C', 'C', 'C', 'C', 'C', 'C', 'C', 'C', 'C', 'C', 'C', 'C', 'C', 'C']","[2635718, 2636085, 2636539, 2636933, 2637337, 2637750, 2638170, 2638547, 2638903, 2639285, 2639646, 2640049, 2640428, 2640852, 2641255, 2641664, 2642108, 2642537, 2642959, 2643368, 2643745, 2644147, 2644556]","[2635784, 2636164, 2636635, 2637028, 2637444, 2637860, 2638284, 2638667, 2638999, 2639356, 2639698, 2640093, 2640493, 2640909, 2641320, 2641726, 2642159, 2642589, 2643037, 2643432, 2643833, 2644247, 2644637]","[2635497, 2635896, 2636296, 2636696, 2637096, 2637496, 2637896, 2638297, 2638574, 2638930, 2639312, 2639673, 2640076, 2640455, 2640880, 2641282, 2641690, 2642136, 2642565, 2642985, 2643396, 2643773, 2644174, 2644583]",11,R,ITM,1.1,
7,400,trial,0,113,113,113,trial,"['S', 'S', 'S', 'S', 'S', 'S', 'S', 'C', 'C', 'C', 'C', 'C', 'C', 'C', 'C', 'C', 'C', 'C', 'C', 'C', 'C', 'C', 'C']","[2650268, 2650658, 2651059, 2651448, 2651841, 2652241, 2652637, 2653049, 2653415, 2653804, 2654186, 2654594, 2654966, 2655356, 2655749, 2656121, 2656483, 2656886, 2657242, 2657656, 2658026, 2658392, 2658751]","[2650332, 2650724, 2651109, 2651503, 2651923, 2652324, 2652712, 2653112, 2653486, 2653878, 2654258, 2654643, 2655065, 2655447, 2655814, 2656203, 2656546, 2656973, 2657330, 2657730, 2658127, 2658475, 2658845]","[2649924, 2650323, 2650723, 2651123, 2651524, 2651923, 2652323, 2652723, 2653076, 2653443, 2653831, 2654214, 2654621, 2654993, 2655384, 2655776, 2656149, 2656510, 2656914, 2657268, 2657683, 2658054, 2658418, 2658778]",11,R,ITM,1.1,
5,400,trial,0,114,114,114,trial,"['S', 'S', 'S', 'S', 'S', 'S', 'S', 'C', 'C', 'C', 'C', 'C', 'C', 'C', 'C', 'C', 'C', 'C', 'C', 'C', 'C', 'C', 'C']","[2664690, 2665103, 2665503, 2665911, 2666320, 2666691, 2667111, 2667517, 2667888, 2668273, 2668679, 2669070, 2669432, 2669849, 2670223, 2670601, 2670995, 2671383, 2671772, 2672151, 2672532, 2672906, 2673290]","[2664759, 2665155, 2665575, 2665997, 2666401, 2666780, 2667172, 2667600, 2667973, 2668348, 2668725, 2669117, 2669493, 2669905, 2670296, 2670690, 2671077, 2671478, 2671872, 2672264, 2672636, 2673014, 2673380]","[2664423, 2664822, 2665223, 2665623, 2666023, 2666423, 2666823, 2667224, 2667543, 2667914, 2668300, 2668704, 2669095, 2669459, 2669875, 2670248, 2670627, 2671021, 2671410, 2671798, 2672177, 2672558, 2672931, 2673315]",11,R,ITM,1.1,
3,400,trial,0,115,115,115,trial,"['S', 'S', 'S', 'S', 'S', 'S', 'S', 'C', 'C', 'C', 'C', 'C', 'C', 'C', 'C', 'C', 'C', 'C', 'C', 'C', 'C', 'C', 'C']","[2679173, 2679552, 2679939, 2680318, 2680723, 2681129, 2681533, 2681933, 2682337, 2682704, 2683102, 2683479, 2683837, 2684218, 2684604, 2684975, 2685367, 2685728, 2686118, 2686501, 2686860, 2687242, 2687609]","[2679246, 2679620, 2680000, 2680396, 2680797, 2681196, 2681600, 2682009, 2682405, 2682786, 2683174, 2683557, 2683919, 2684323, 2684706, 2685089, 2685463, 2685818, 2686189, 2686582, 2686956, 2687322, 2687695]","[2678839, 2679238, 2679639, 2680038, 2680438, 2680839, 2681239, 2681639, 2681959, 2682362, 2682730, 2683127, 2683504, 2683863, 2684243, 2684630, 2685000, 2685392, 2685754, 2686144, 2686527, 2686885, 2687267, 2687635]",11,R,ITM,1.1,
3,400,trial,0,116,116,116,trial,"['S', 'S', 'S', 'S', 'S', 'S', 'S', 'S', 'C', 'C', 'C', 'C', 'C', 'C', 'C', 'C', 'C', 'C', 'C', 'C', 'C', 'C', 'C', 'C']","[2693356, 2693761, 2694161, 2694548, 2694941, 2695360, 2695742, 2696133, 2696560, 2696937, 2697305, 2697693, 2698054, 2698422, 2698771, 2699159, 2699532, 2699921, 2700289, 2700661, 2701057, 2701425, 2701789, 2702177]","[2693437, 2693837, 2694232, 2694616, 2695018, 2695430, 2695830, 2696219, 2696648, 2697026, 2697394, 2697782, 2698140, 2698494, 2698832, 2699234, 2699614, 2700001, 2700358, 2700729, 2701126, 2701514, 2701867, 2702278]","[2693098, 2693497, 2693897, 2694297, 2694697, 2695097, 2695497, 2695898, 2696586, 2696963, 2697331, 2697718, 2698080, 2698447, 2698797, 2699185, 2699557, 2699947, 2700314, 2700687, 2701082, 2701451, 2701814, 2702202]",11,R,ITM,1.1,
4,600,trial,0,117,117,117,trial,"['S', 'S', 'S', 'S', 'S', 'S', 'S', 'S', 'C', 'C', 'C', 'C', 'C', 'C', 'C', 'C', 'C', 'C', 'C', 'C', 'C', 'C', 'C', 'C']","[2707675, 2708102, 2708665, 2709227, 2709820, 2710401, 2710986, 2711607, 2712199, 2712768, 2713322, 2713832, 2714377, 2714907, 2715468, 2716001, 2716537, 2717097, 2717591, 2718124, 2718623, 2719120, 2719594, 2720094]","[2707760, 2708192, 2708739, 2709313, 2709913, 2710501, 2711091, 2711718, 2712298, 2712872, 2713418, 2713940, 2714455, 2715005, 2715544, 2716086, 2716634, 2717191, 2717712, 2718238, 2718717, 2719228, 2719739, 2720211]","[2707503, 2708102, 2708701, 2709301, 2709901, 2710501, 2711101, 2711701, 2712224, 2712795, 2713348, 2713858, 2714402, 2714933, 2715494, 2716026, 2716563, 2717123, 2717617, 2718149, 2718649, 2719147, 2719620, 2720119]",11,R,ITM,1.1,
2,400,trial,0,118,118,118,trial,"['S', 'S', 'S', 'S', 'S', 'S', 'S', 'C', 'C', 'C', 'C', 'C', 'C', 'C', 'C', 'C', 'C', 'C', 'C', 'C', 'C', 'C', 'C']","[2725942, 2726311, 2726685, 2727072, 2727475, 2727872, 2728267, 2728677, 2729021, 2729419, 2729817, 2730228, 2730631, 2731054, 2731427, 2731838, 2732251, 2732641, 2733038, 2733431, 2733827, 2734227, 2734600]","[2726019, 2726368, 2726739, 2727148, 2727552, 2727955, 2728367, 2728776, 2729113, 2729508, 2729868, 2730293, 2730713, 2731122, 2731527, 2731924, 2732347, 2732747, 2733161, 2733513, 2733891, 2734315, 2734703]","[2725583, 2725983, 2726383, 2726784, 2727183, 2727583, 2727984, 2728383, 2728705, 2729048, 2729446, 2729843, 2730255, 2730658, 2731081, 2731455, 2731865, 2732278, 2732668, 2733065, 2733459, 2733854, 2734255, 2734627]",11,R,ITM,1.1,
2,600,trial,0,119,119,119,trial,"['S', 'S', 'S', 'S', 'S', 'S', 'S', 'S', 'C', 'C', 'C', 'C', 'C', 'C', 'C', 'C', 'C', 'C', 'C', 'C', 'C', 'C', 'C', 'C']","[2740116, 2740464, 2741087, 2741694, 2742307, 2742861, 2743487, 2744088, 2744728, 2745330, 2745888, 2746440, 2747024, 2747598, 2748169, 2748735, 2749257, 2749844, 2750398, 2750938, 2751484, 2752036, 2752557, 2753110]","[2740206, 2740570, 2741175, 2741789, 2742393, 2742942, 2743569, 2744169, 2744810, 2745401, 2745969, 2746508, 2747099, 2747677, 2748252, 2748823, 2749356, 2749928, 2750494, 2751037, 2751578, 2752125, 2752666, 2753199]","[2739970, 2740569, 2741170, 2741769, 2742369, 2742968, 2743569, 2744168, 2744756, 2745357, 2745915, 2746467, 2747052, 2747625, 2748196, 2748762, 2749285, 2749871, 2750426, 2750965, 2751511, 2752063, 2752584, 2753137]",11,R,ITM,1.1,
5,600,trial,0,120,120,120,trial,"['S', 'S', 'S', 'S', 'S', 'S', 'S', 'S', 'C', 'C', 'C', 'C', 'C', 'C', 'C', 'C', 'C', 'C', 'C', 'C', 'C', 'C', 'C', 'C']","[2759049, 2759585, 2760049, 2760609, 2761186, 2761805, 2762380, 2762926, 2763511, 2764045, 2764618, 2765167, 2765708, 2766263, 2766816, 2767369, 2767897, 2768415, 2768957, 2769500, 2770016, 2770554, 2771075, 2771600]","[2759136, 2759677, 2760134, 2760692, 2761288, 2761876, 2762484, 2763049, 2763631, 2764163, 2764734, 2765276, 2765839, 2766394, 2766941, 2767493, 2768022, 2768553, 2769064, 2769605, 2770132, 2770662, 2771169, 2771698]","[2758805, 2759405, 2760005, 2760605, 2761205, 2761805, 2762405, 2763005, 2763537, 2764070, 2764644, 2765194, 2765733, 2766288, 2766841, 2767394, 2767923, 2768441, 2768983, 2769526, 2770041, 2770580, 2771100, 2771625]",11,R,ITM,1.1,
6,400,trial,0,121,121,121,trial,"['S', 'S', 'S', 'S', 'S', 'S', 'S', 'C', 'C', 'C', 'C', 'C', 'C', 'C', 'C', 'C', 'C', 'C', 'C', 'C', 'C', 'C', 'C']","[2777348, 2777709, 2778068, 2778474, 2778885, 2779288, 2779708, 2780101, 2780492, 2780854, 2781247, 2781634, 2782025, 2782431, 2782810, 2783188, 2783591, 2783970, 2784347, 2784739, 2785116, 2785509, 2785869]","[2777405, 2777756, 2778137, 2778543, 2778948, 2779362, 2779766, 2780158, 2780551, 2780916, 2781298, 2781680, 2782072, 2782493, 2782877, 2783263, 2783675, 2784048, 2784431, 2784812, 2785195, 2785560, 2785945]","[2776992, 2777392, 2777791, 2778191, 2778591, 2778991, 2779392, 2779791, 2780128, 2780519, 2780880, 2781274, 2781661, 2782052, 2782457, 2782836, 2783215, 2783618, 2783996, 2784374, 2784766, 2785142, 2785537, 2785896]",11,R,ITM,1.1,
2,400,trial,0,122,122,122,trial,"['S', 'S', 'S', 'S', 'S', 'S', 'S', 'S', 'C', 'C', 'C', 'C', 'C', 'C', 'C', 'C', 'C', 'C', 'C', 'C', 'C', 'C', 'C', 'C']","[2791441, 2791774, 2792108, 2792487, 2792852, 2793243, 2793634, 2794009, 2794401, 2794784, 2795165, 2795538, 2795925, 2796296, 2796668, 2797066, 2797412, 2797805, 2798172, 2798556, 2798922, 2799288, 2799656, 2800025]","[2791510, 2791858, 2792186, 2792551, 2792937, 2793315, 2793691, 2794067, 2794482, 2794855, 2795241, 2795622, 2795978, 2796348, 2796734, 2797123, 2797461, 2797854, 2798262, 2798619, 2798992, 2799356, 2799740, 2800113]","[2791287, 2791688, 2792087, 2792487, 2792887, 2793287, 2793688, 2794087, 2794429, 2794812, 2795192, 2795565, 2795953, 2796323, 2796696, 2797093, 2797440, 2797833, 2798199, 2798583, 2798949, 2799314, 2799683, 2800053]",11,R,ITM,1.1,
7,600,trial,0,123,123,123,trial,"['S', 'S', 'S', 'S', 'S', 'S', 'S', 'S', 'C', 'C', 'C', 'C', 'C', 'C', 'C', 'C', 'C', 'C', 'C', 'C', 'C', 'C', 'C', 'C']","[2805583, 2806128, 2806595, 2807070, 2807593, 2808155, 2808778, 2809392, 2809932, 2810454, 2810994, 2811491, 2811999, 2812480, 2812957, 2813468, 2813945, 2814444, 2814892, 2815342, 2815816, 2816318, 2816772, 2817240]","[2805662, 2806189, 2806644, 2807121, 2807667, 2808236, 2808868, 2809474, 2810018, 2810524, 2811066, 2811572, 2812061, 2812545, 2813034, 2813539, 2814017, 2814508, 2814982, 2815430, 2815877, 2816394, 2816856, 2817318]","[2805364, 2805963, 2806563, 2807163, 2807763, 2808364, 2808964, 2809564, 2809960, 2810481, 2811021, 2811517, 2812025, 2812508, 2812984, 2813495, 2813972, 2814472, 2814918, 2815370, 2815843, 2816345, 2816799, 2817266]",11,R,ITM,1.1,
