octave,ioi,event,.thisRepN,.thisTrialN,.thisN,.thisIndex,event,tap_types,tap_times,release_times,tone_times,subject,handedness,experiment,version,
,,SPR,0,-1,-1,0,SPR,"['P', 'P', 'P', 'P', 'P', 'P', 'P', 'P', 'P', 'P', 'P', 'P', 'P', 'P', 'P', 'P', 'P', 'P', 'P', 'P', 'P', 'P', 'P', 'P', 'P', 'P', 'P', 'P', 'P', 'P']","[32069, 32606, 33250, 33867, 34466, 35055, 35629, 36240, 36751, 37307, 37838, 38389, 38963, 39496, 40020, 40584, 41125, 41682, 42235, 42725, 43253, 43808, 44305, 44860, 45371, 45908, 46375, 46949, 47446, 47972]","[32237, 32771, 33378, 33988, 34593, 35171, 35740, 36368, 36881, 37430, 37976, 38516, 39104, 39638, 40170, 40721, 41256, 41809, 42363, 42866, 43395, 43939, 44439, 44998, 45518, 46047, 46530, 47074, 47591, 48106]",,9,R,ITM,1.1,
7,500,practice,0,0,0,0,practice,"['B', 'S', 'S', 'S', 'S', 'S', 'S', 'C', 'C', 'C', 'C', 'C', 'C', 'C', 'C', 'C', 'C', 'C', 'C', 'C', 'C', 'C', 'C', 'C']","[104469, 105099, 105776, 106296, 106809, 107308, 107824, 108353, 108760, 109087, 109361, 109649, 109950, 110211, 111073, 111514, 111962, 112403, 112848, 113306, 113712, 114151, 114621, 115066]","[104529, 105216, 105889, 106404, 106918, 107408, 107931, 108453, 108851, 109179, 109472, 109756, 110049, 110309, 111176, 111651, 112084, 112528, 112976, 113427, 113824, 114262, 114736, 115176]","[104482, 104981, 105481, 105981, 106481, 106981, 107482, 107981, 108380, 108786, 109114, 109388, 109676, 109978, 111099, 111541, 111989, 112430, 112876, 113333, 113738, 114179, 114649, 115094]",9,R,ITM,1.1,
5,500,practice,0,1,1,1,practice,"['S', 'S', 'S', 'S', 'S', 'S', 'S', 'C', 'C', 'C', 'C', 'C', 'C', 'C', 'C', 'C', 'C', 'C', 'C', 'C', 'C', 'C', 'C']","[120757, 121415, 121918, 122421, 122925, 123449, 123955, 124481, 125036, 125498, 125939, 126427, 126927, 127389, 127827, 128299, 128797, 129336, 129780, 130257, 130683, 131167, 131670]","[120893, 121534, 122027, 122541, 123061, 123576, 124090, 124612, 125128, 125619, 126066, 126556, 127038, 127481, 127932, 128415, 128899, 129414, 129898, 130354, 130795, 131270, 131759]","[120522, 121021, 121522, 122022, 122522, 123022, 123523, 124022, 124507, 125062, 125524, 125965, 126453, 126953, 127416, 127854, 128325, 128823, 129362, 129806, 130283, 130709, 131192, 131695]",9,R,ITM,1.1,
2,500,practice,0,2,2,2,practice,"['S', 'S', 'S', 'S', 'S', 'S', 'S', 'C', 'C', 'C', 'C', 'C', 'C', 'C', 'C', 'C', 'C', 'C', 'C', 'C', 'C', 'C', 'C']","[137524, 138286, 138869, 139396, 139942, 140407, 140925, 141410, 141881, 142383, 142894, 143338, 143821, 144289, 144758, 145265, 145754, 146217, 146665, 147141, 147642, 148132, 148559]","[137738, 138388, 138990, 139509, 140069, 140528, 141033, 141547, 142025, 142507, 142984, 143443, 143917, 144399, 144872, 145371, 145855, 146327, 146784, 147275, 147719, 148228, 148662]","[137479, 137978, 138477, 138977, 139479, 139978, 140478, 140978, 141437, 141908, 142410, 142921, 143366, 143849, 144317, 144785, 145292, 145781, 146245, 146692, 147169, 147670, 148160, 148587]",9,R,ITM,1.1,
3,500,practice,0,3,3,3,practice,"['S', 'S', 'S', 'S', 'S', 'S', 'S', 'C', 'C', 'C', 'C', 'C', 'C', 'C', 'C', 'C', 'C', 'C', 'C', 'C', 'C', 'C', 'C']","[154681, 155225, 155706, 156227, 156703, 157229, 157724, 158269, 158724, 159217, 159692, 160164, 160623, 161127, 161572, 162023, 162535, 163024, 163456, 163919, 164456, 164935, 165417]","[154811, 155351, 155816, 156329, 156826, 157317, 157802, 158359, 158814, 159301, 159798, 160268, 160733, 161236, 161687, 162158, 162636, 163111, 163552, 164018, 164559, 165043, 165475]","[154241, 154740, 155240, 155741, 156241, 156741, 157241, 157742, 158295, 158749, 159243, 159718, 160190, 160649, 161153, 161598, 162049, 162562, 163050, 163481, 163945, 164482, 164961, 165443]",9,R,ITM,1.1,
4,500,practice,0,4,4,4,practice,"['S', 'S', 'S', 'S', 'S', 'S', 'C', 'C', 'C', 'C', 'C', 'C', 'C', 'C', 'C', 'C', 'C', 'C', 'C', 'C', 'C', 'C']","[171284, 171964, 172492, 173011, 173547, 174092, 174642, 175093, 175636, 176110, 176579, 177165, 177815, 178300, 178786, 179310, 179820, 180365, 180904, 181414, 181959, 182503]","[171348, 172067, 172600, 173128, 173662, 174190, 174727, 175186, 175725, 176192, 176689, 177298, 177933, 178409, 178902, 179448, 179958, 180505, 181041, 181543, 182112, 182649]","[170749, 171248, 171748, 172249, 172748, 173248, 173748, 174248, 174667, 175120, 175662, 176136, 176605, 177190, 177841, 178326, 178811, 179336, 179846, 180390, 180930, 181440, 181985, 182529]",9,R,ITM,1.1,
6,500,practice,0,5,5,5,practice,"['S', 'S', 'S', 'S', 'S', 'S', 'S', 'C', 'C', 'C', 'C', 'C', 'C', 'C', 'C', 'C', 'C', 'C', 'C', 'C', 'C', 'C', 'C']","[188228, 188772, 189320, 189854, 190341, 190854, 191343, 191855, 192334, 192898, 193533, 194118, 194650, 195211, 195778, 196332, 196924, 197425, 198027, 198595, 199153, 199748, 200302]","[188361, 188901, 189418, 189950, 190435, 190954, 191454, 191964, 192420, 193002, 193652, 194247, 194782, 195349, 195895, 196471, 197047, 197580, 198171, 198753, 199286, 199866, 200448]","[187952, 188450, 188950, 189450, 189950, 190450, 190950, 191451, 191882, 192362, 192924, 193560, 194146, 194676, 195237, 195805, 196359, 196951, 197451, 198053, 198623, 199180, 199776, 200330]",9,R,ITM,1.1,
6,400,trial,0,6,6,6,trial,"['S', 'S', 'S', 'S', 'S', 'S', 'S', 'C', 'C', 'C', 'C', 'C', 'C', 'C', 'C', 'C', 'C', 'C', 'C', 'C', 'C', 'C', 'C']","[254913, 255383, 255879, 256333, 256703, 257180, 257559, 258015, 258362, 258720, 259128, 259514, 259906, 260281, 260674, 261133, 261513, 261940, 262298, 262736, 263121, 263505, 263925]","[255030, 255491, 255972, 256436, 256811, 257275, 257680, 258131, 258487, 258842, 259259, 259642, 260042, 260424, 260813, 261284, 261655, 262068, 262454, 262860, 263283, 263661, 264071]","[254669, 255070, 255470, 255870, 256270, 256670, 257071, 257470, 258042, 258390, 258747, 259155, 259540, 259934, 260307, 260701, 261159, 261539, 261966, 262326, 262763, 263149, 263532, 263952]",9,R,ITM,1.1,
4,600,trial,0,7,7,7,trial,"['S', 'S', 'S', 'S', 'S', 'S', 'S', 'C', 'C', 'C', 'C', 'C', 'C', 'C', 'C', 'C', 'C', 'C', 'C', 'C', 'C', 'C', 'C']","[269613, 270231, 270886, 271511, 272100, 272653, 273304, 273947, 274572, 275284, 275991, 276638, 277303, 277939, 278683, 279391, 280100, 280807, 281423, 281974, 282823, 283423, 284055]","[269702, 270352, 270978, 271625, 272215, 272811, 273427, 274068, 274741, 275450, 276145, 276769, 277426, 278103, 278820, 279519, 280218, 280900, 281537, 282165, 282947, 283568, 284206]","[269448, 270047, 270647, 271247, 271847, 272447, 273047, 273647, 273973, 274597, 275310, 276017, 276664, 277328, 277964, 278710, 279416, 280126, 280834, 281449, 282000, 282850, 283449, 284081]",9,R,ITM,1.1,
3,600,trial,0,8,8,8,trial,"['B', 'S', 'S', 'S', 'S', 'S', 'S', 'S', 'C', 'C', 'C', 'C', 'C', 'C', 'C', 'C', 'C', 'C', 'C', 'C', 'C', 'C', 'C', 'C']","[289844, 290355, 290898, 291451, 292047, 292614, 293216, 293816, 294377, 295093, 295745, 296431, 297067, 297701, 298341, 299072, 299807, 300552, 301127, 301839, 302522, 303108, 303778, 304444]","[289941, 290514, 291030, 291580, 292155, 292716, 293300, 293933, 294500, 295229, 295884, 296565, 297226, 297876, 298532, 299216, 299940, 300680, 301258, 301991, 302637, 303268, 303929, 304594]","[289856, 290455, 291055, 291655, 292255, 292855, 293455, 294055, 294403, 295118, 295771, 296457, 297093, 297726, 298366, 299098, 299833, 300577, 301153, 301864, 302547, 303133, 303804, 304470]",9,R,ITM,1.1,
2,600,trial,0,9,9,9,trial,"['S', 'S', 'S', 'S', 'S', 'S', 'S', 'C', 'C', 'C', 'C', 'C', 'C', 'C', 'C', 'C', 'C', 'C', 'C', 'C', 'C', 'C', 'C']","[310429, 310979, 311599, 312244, 312820, 313460, 314103, 314669, 315435, 316073, 316766, 317400, 318054, 318650, 319331, 319943, 320630, 321263, 321930, 322514, 323127, 323859, 324634]","[310522, 311118, 311743, 312377, 313003, 313620, 314241, 314797, 315573, 316211, 316906, 317533, 318202, 318817, 319470, 320104, 320809, 321432, 322094, 322679, 323311, 324026, 324739]","[310192, 310792, 311390, 311991, 312591, 313191, 313791, 314390, 314695, 315462, 316101, 316793, 317426, 318082, 318678, 319358, 319971, 320658, 321290, 321956, 322541, 323153, 323886, 324662]",9,R,ITM,1.1,
3,400,trial,0,10,10,10,trial,"['S', 'S', 'S', 'S', 'S', 'S', 'S', 'S', 'C', 'C', 'C', 'C', 'C', 'C', 'C', 'C', 'C', 'C', 'C', 'C', 'C', 'C', 'C', 'C']","[330191, 330652, 330959, 331335, 331693, 332084, 332514, 332900, 333303, 333671, 334035, 334429, 334878, 335240, 335643, 336024, 336504, 336840, 337202, 337564, 337920, 338255, 338617, 338979]","[330345, 330752, 331075, 331433, 331819, 332213, 332633, 333017, 333446, 333799, 334169, 334561, 335003, 335374, 335769, 336162, 336626, 336972, 337339, 337702, 338060, 338398, 338744, 339095]","[329967, 330366, 330766, 331166, 331567, 331966, 332366, 332766, 333329, 333697, 334061, 334454, 334904, 335265, 335669, 336050, 336530, 336866, 337227, 337590, 337945, 338281, 338642, 339005]",9,R,ITM,1.1,
2,600,trial,0,11,11,11,trial,"['S', 'S', 'S', 'S', 'S', 'S', 'S', 'C', 'C', 'C', 'C', 'C', 'C', 'C', 'C', 'C', 'C', 'C', 'C', 'C', 'C', 'C', 'C']","[344881, 345559, 346196, 346823, 347416, 348066, 348649, 349266, 350009, 350649, 351278, 351954, 352604, 353209, 353931, 354603, 355211, 355830, 356468, 357141, 357753, 358350, 359002]","[344993, 345698, 346330, 346969, 347558, 348214, 348797, 349385, 350130, 350783, 351423, 352077, 352738, 353361, 354057, 354738, 355374, 356001, 356625, 357289, 357883, 358534, 359169]","[344772, 345372, 345972, 346572, 347171, 347772, 348372, 348973, 349294, 350036, 350675, 351305, 351981, 352630, 353235, 353958, 354630, 355238, 355857, 356495, 357168, 357780, 358377, 359028]",9,R,ITM,1.1,
4,400,trial,0,12,12,12,trial,"['B', 'S', 'S', 'S', 'S', 'S', 'S', 'S', 'S', 'C', 'C', 'C', 'C', 'C', 'C', 'C', 'C', 'C', 'C', 'C', 'C', 'C', 'C', 'C', 'C']","[364429, 364965, 365281, 365687, 366028, 366336, 366681, 367031, 367439, 367830, 368221, 368605, 368984, 369385, 369793, 370221, 370564, 370955, 371315, 371675, 372083, 372485, 372871, 373287, 373629]","[364513, 365099, 365426, 365822, 366133, 366449, 366795, 367181, 367563, 367950, 368340, 368742, 369126, 369541, 369927, 370330, 370693, 371079, 371439, 371817, 372202, 372614, 372998, 373401, 373748]","[364441, 364840, 365240, 365640, 366041, 366440, 366840, 367240, 367855, 368246, 368630, 369009, 369411, 369818, 370246, 370589, 370981, 371341, 371700, 372109, 372510, 372896, 373314, 373655]",9,R,ITM,1.1,
3,400,trial,0,13,13,13,trial,"['B', 'S', 'S', 'S', 'S', 'S', 'S', 'S', 'S', 'C', 'C', 'C', 'C', 'C', 'C', 'C', 'C', 'C', 'C', 'C', 'C', 'C', 'C', 'C', 'C']","[379013, 379476, 379825, 380115, 380479, 380829, 381199, 381582, 381954, 382329, 382669, 383039, 383386, 383795, 384139, 384450, 384794, 385149, 385484, 385825, 386141, 386497, 386859, 387198, 387508]","[379088, 379613, 379937, 380224, 380581, 380944, 381331, 381699, 382062, 382449, 382800, 383166, 383534, 383917, 384260, 384570, 384909, 385246, 385576, 385917, 386239, 386601, 386960, 387293, 387595]","[379025, 379424, 379825, 380224, 380624, 381024, 381424, 381825, 382355, 382695, 383065, 383412, 383820, 384164, 384476, 384820, 385175, 385510, 385851, 386166, 386523, 386884, 387223, 387533]",9,R,ITM,1.1,
4,600,trial,0,14,14,14,trial,"['S', 'S', 'S', 'S', 'S', 'S', 'S', 'S', 'C', 'C', 'C', 'C', 'C', 'C', 'C', 'C', 'C', 'C', 'C', 'C', 'C', 'C', 'C', 'C']","[393362, 394016, 394616, 395226, 395817, 396411, 397023, 397580, 398200, 398825, 399423, 400140, 400781, 401453, 402039, 402658, 403234, 403800, 404442, 405078, 405692, 406270, 406899, 407914]","[393458, 394122, 394728, 395324, 395956, 396550, 397149, 397735, 398366, 398998, 399627, 400299, 400955, 401599, 402190, 402830, 403412, 404006, 404580, 405229, 405826, 406441, 407023, 407992]","[393237, 393836, 394436, 395036, 395636, 396236, 396836, 397436, 398227, 398851, 399449, 400165, 400806, 401478, 402065, 402683, 403260, 403825, 404467, 405103, 405718, 406296, 406925, 407940]",9,R,ITM,1.1,
5,600,trial,0,15,15,15,trial,"['B', 'S', 'S', 'S', 'S', 'S', 'S', 'S', 'C', 'C', 'C', 'C', 'C', 'C', 'C', 'C', 'C', 'C', 'C', 'C', 'C', 'C', 'C', 'C']","[413648, 414064, 414741, 415420, 416075, 416753, 417408, 418037, 418718, 419390, 420002, 420618, 421373, 421960, 422634, 423323, 423918, 424577, 425143, 425758, 426477, 427048, 427653, 428309]","[413731, 414212, 414873, 415561, 416205, 416864, 417506, 418149, 418834, 419535, 420157, 420802, 421505, 422130, 422767, 423463, 424069, 424735, 425309, 425919, 426594, 427161, 427796, 428411]","[413661, 414259, 414859, 415459, 416059, 416659, 417259, 417859, 418744, 419416, 420028, 420644, 421399, 421987, 422660, 423349, 423944, 424602, 425168, 425785, 426504, 427075, 427678, 428335]",9,R,ITM,1.1,
6,400,trial,0,16,16,16,trial,"['B', 'S', 'S', 'S', 'S', 'S', 'S', 'S', 'S', 'C', 'C', 'C', 'C', 'C', 'C', 'C', 'C', 'C', 'C', 'C', 'C', 'C', 'C', 'C', 'C']","[433794, 434189, 434479, 434821, 435185, 435557, 435978, 436344, 436689, 437007, 437410, 437780, 438146, 438507, 438892, 439256, 439656, 439995, 440404, 440704, 441061, 441422, 441756, 442073, 442356]","[433831, 434300, 434595, 434941, 435313, 435686, 436087, 436464, 436820, 437142, 437520, 437892, 438260, 438636, 439007, 439365, 439743, 440098, 440488, 440833, 441187, 441524, 441870, 442172, 442437]","[433807, 434206, 434607, 435006, 435406, 435806, 436206, 436606, 437033, 437437, 437807, 438172, 438534, 438919, 439282, 439683, 440022, 440431, 440731, 441089, 441449, 441784, 442100, 442383]",9,R,ITM,1.1,
2,400,trial,0,17,17,17,trial,"['S', 'S', 'S', 'S', 'S', 'S', 'S', 'S', 'C', 'C', 'C', 'C', 'C', 'C', 'C', 'C', 'C', 'C', 'C', 'C', 'C', 'C', 'C', 'C']","[448529, 448915, 449242, 449613, 449950, 450349, 450713, 451121, 451512, 451881, 452308, 452719, 453082, 453456, 453815, 454137, 454518, 454888, 455216, 455560, 455905, 456240, 456564, 456864]","[448621, 449018, 449377, 449734, 450094, 450473, 450836, 451233, 451631, 452004, 452447, 452834, 453208, 453584, 453936, 454247, 454610, 454987, 455326, 455664, 456004, 456350, 456667, 456966]","[448149, 448549, 448949, 449348, 449750, 450148, 450549, 450949, 451539, 451909, 452335, 452746, 453109, 453484, 453842, 454165, 454545, 454916, 455243, 455587, 455932, 456267, 456592, 456892]",9,R,ITM,1.1,
6,600,trial,0,18,18,18,trial,"['S', 'S', 'S', 'S', 'S', 'S', 'S', 'S', 'C', 'C', 'C', 'C', 'C', 'C', 'C', 'C', 'C', 'C', 'C', 'C', 'C', 'C', 'C', 'C']","[467870, 468372, 468918, 469538, 470215, 470831, 471358, 471926, 472642, 473225, 473821, 474412, 475023, 475613, 476250, 476884, 477413, 477942, 478517, 479091, 479684, 480229, 480813, 481624]","[467955, 468505, 469053, 469685, 470334, 470953, 471505, 472137, 472800, 473393, 473991, 474579, 475218, 475808, 476472, 477025, 477599, 478170, 478729, 479305, 479880, 480419, 480979, 481727]","[467718, 468318, 468918, 469518, 470118, 470718, 471318, 471918, 472669, 473252, 473847, 474439, 475049, 475639, 476276, 476911, 477440, 477969, 478544, 479118, 479711, 480256, 480839, 481650]",9,R,ITM,1.1,
4,400,trial,0,19,19,19,trial,"['S', 'S', 'S', 'S', 'S', 'S', 'S', 'S', 'C', 'C', 'C', 'C', 'C', 'C', 'C', 'C', 'C', 'C', 'C', 'C', 'C', 'C', 'C', 'C']","[487511, 487859, 488193, 488576, 488931, 489284, 489748, 490140, 490528, 490887, 491307, 491678, 492067, 492459, 492817, 493170, 493558, 493927, 494295, 494659, 495032, 495355, 495690, 496016]","[487646, 487991, 488321, 488686, 489078, 489448, 489864, 490267, 490659, 491037, 491452, 491800, 492201, 492588, 492965, 493298, 493697, 494060, 494426, 494790, 495147, 495483, 495812, 496135]","[487175, 487573, 487973, 488373, 488773, 489174, 489573, 489973, 490554, 490912, 491332, 491705, 492093, 492484, 492843, 493196, 493585, 493954, 494320, 494685, 495057, 495381, 495716, 496041]",9,R,ITM,1.1,
7,600,trial,0,20,20,20,trial,"['S', 'S', 'S', 'S', 'S', 'S', 'S', 'C', 'C', 'C', 'C', 'C', 'C', 'C', 'C', 'C', 'C', 'C', 'C', 'C', 'C', 'C', 'C']","[502021, 502749, 503478, 504181, 504773, 505388, 505970, 506609, 507283, 507877, 508530, 509186, 509861, 510514, 511180, 511845, 512525, 513158, 513793, 514417, 515004, 515616, 516265]","[502165, 502930, 503614, 504299, 504880, 505510, 506090, 506741, 507431, 508024, 508695, 509383, 510052, 510697, 511369, 512053, 512715, 513354, 513995, 514626, 515186, 515821, 516420]","[501640, 502238, 502838, 503438, 504038, 504638, 505238, 505838, 506636, 507310, 507904, 508558, 509213, 509888, 510540, 511207, 511872, 512551, 513184, 513820, 514444, 515031, 515644, 516291]",9,R,ITM,1.1,
7,400,trial,0,21,21,21,trial,"['B', 'S', 'S', 'S', 'S', 'S', 'S', 'S', 'S', 'C', 'C', 'C', 'C', 'C', 'C', 'C', 'C', 'C', 'C', 'C', 'C', 'C', 'C', 'C', 'C']","[521584, 522064, 522549, 522845, 523206, 523515, 523852, 524179, 524562, 524848, 525217, 525555, 525912, 526285, 526627, 527000, 527331, 527719, 528053, 528361, 528711, 529089, 529400, 529779, 530089]","[521633, 522222, 522656, 522992, 523317, 523641, 524001, 524320, 524683, 524988, 525349, 525685, 526030, 526405, 526748, 527127, 527469, 527841, 528182, 528502, 528834, 529189, 529534, 529907, 530219]","[521597, 521996, 522396, 522797, 523196, 523596, 523997, 524396, 524875, 525244, 525583, 525938, 526313, 526655, 527028, 527357, 527746, 528079, 528389, 528739, 529116, 529428, 529807, 530116]",9,R,ITM,1.1,
2,400,trial,0,22,22,22,trial,"['S', 'S', 'S', 'S', 'S', 'S', 'S', 'S', 'C', 'C', 'C', 'C', 'C', 'C', 'C', 'C', 'C', 'C', 'C', 'C', 'C', 'C', 'C', 'C']","[535962, 536359, 536771, 537189, 537591, 537997, 538401, 538826, 539290, 539695, 540118, 540511, 540924, 541312, 541731, 542109, 542492, 542902, 543296, 543673, 544061, 544441, 544800, 545167]","[536075, 536476, 536873, 537291, 537726, 538153, 538558, 538964, 539440, 539853, 540280, 540674, 541078, 541462, 541869, 542227, 542626, 543012, 543423, 543792, 544193, 544571, 544923, 545298]","[535791, 536190, 536590, 536991, 537391, 537791, 538190, 538591, 539317, 539721, 540144, 540538, 540952, 541339, 541759, 542137, 542520, 542929, 543323, 543700, 544088, 544467, 544827, 545195]",9,R,ITM,1.1,
5,600,trial,0,23,23,23,trial,"['S', 'S', 'S', 'S', 'S', 'S', 'S', 'S', 'C', 'C', 'C', 'C', 'C', 'C', 'C', 'C', 'C', 'C', 'C', 'C', 'C', 'C', 'C', 'C']","[550882, 551518, 552105, 552697, 553264, 553891, 554489, 555095, 555713, 556378, 556981, 557613, 558264, 558882, 559600, 560211, 560803, 561377, 562018, 562652, 563262, 563849, 564464, 565042]","[551044, 551635, 552260, 552834, 553405, 554049, 554624, 555224, 555869, 556544, 557147, 557771, 558424, 559069, 559742, 560366, 560969, 561619, 562195, 562818, 563470, 564040, 564666, 565178]","[550693, 551292, 551892, 552493, 553093, 553693, 554293, 554893, 555740, 556403, 557006, 557638, 558289, 558908, 559626, 560238, 560829, 561402, 562043, 562677, 563288, 563874, 564491, 565067]",9,R,ITM,1.1,
6,600,trial,0,24,24,24,trial,"['S', 'S', 'S', 'S', 'S', 'S', 'S', 'S', 'C', 'C', 'C', 'C', 'C', 'C', 'C', 'C', 'C', 'C', 'C', 'C', 'C', 'C', 'C', 'C']","[570733, 571420, 571954, 572508, 573078, 573663, 574259, 574875, 575538, 576160, 576864, 577527, 578077, 578657, 579281, 579898, 580468, 581048, 581684, 582236, 582785, 583403, 583938, 584416]","[570880, 571549, 572103, 572663, 573204, 573769, 574377, 575007, 575678, 576354, 577038, 577671, 578231, 578849, 579453, 580044, 580620, 581253, 581870, 582412, 582964, 583556, 584102, 584566]","[570507, 571106, 571706, 572306, 572906, 573506, 574106, 574706, 575565, 576187, 576890, 577554, 578105, 578684, 579308, 579926, 580496, 581075, 581710, 582263, 582812, 583430, 583965, 584442]",9,R,ITM,1.1,
3,600,trial,0,25,25,25,trial,"['S', 'S', 'S', 'S', 'S', 'S', 'S', 'S', 'C', 'C', 'C', 'C', 'C', 'C', 'C', 'C', 'C', 'C', 'C', 'C', 'C', 'C', 'C', 'C']","[590237, 590817, 591439, 592028, 592621, 593203, 593752, 594361, 594935, 595582, 596301, 596932, 597377, 598027, 598564, 599120, 599659, 600169, 600729, 601247, 601784, 602306, 602826, 603358]","[590370, 591012, 591617, 592175, 592784, 593366, 593944, 594532, 595167, 595825, 596502, 597098, 597578, 598184, 598692, 599276, 599805, 600339, 600899, 601438, 601959, 602476, 602997, 603537]","[590072, 590672, 591272, 591873, 592473, 593073, 593672, 594272, 594961, 595608, 596327, 596958, 597402, 598052, 598590, 599146, 599685, 600195, 600755, 601273, 601809, 602332, 602852, 603383]",9,R,ITM,1.1,
5,400,trial,0,26,26,26,trial,"['S', 'S', 'S', 'S', 'S', 'S', 'S', 'S', 'C', 'C', 'C', 'C', 'C', 'C', 'C', 'C', 'C', 'C', 'C', 'C', 'C', 'C', 'C', 'C']","[609263, 609674, 610016, 610388, 610770, 611171, 611527, 611878, 612292, 612677, 613076, 613443, 613787, 614167, 614530, 614882, 615227, 615616, 615987, 616350, 616767, 617125, 617450, 617808]","[609433, 609803, 610151, 610522, 610927, 611312, 611663, 612035, 612428, 612836, 613239, 613600, 613933, 614306, 614667, 615022, 615387, 615747, 616098, 616481, 616868, 617235, 617575, 617921]","[608875, 609274, 609674, 610074, 610475, 610874, 611274, 611675, 612318, 612703, 613102, 613469, 613813, 614193, 614555, 614907, 615252, 615642, 616013, 616376, 616793, 617151, 617477, 617834]",9,R,ITM,1.1,
7,400,trial,0,27,27,27,trial,"['B', 'S', 'S', 'S', 'S', 'S', 'S', 'S', 'S', 'C', 'C', 'C', 'C', 'C', 'C', 'C', 'C', 'C', 'C', 'C', 'C', 'C', 'C', 'C', 'C']","[623378, 623629, 624074, 624446, 624829, 625169, 625528, 625936, 626320, 626644, 627027, 627394, 627730, 628157, 628524, 628890, 629229, 629652, 630003, 630356, 630719, 631091, 631462, 631776, 632131]","[623455, 623804, 624228, 624567, 624934, 625298, 625656, 626063, 626448, 626778, 627169, 627527, 627880, 628291, 628644, 629016, 629348, 629741, 630109, 630486, 630846, 631217, 631568, 631887, 632261]","[623391, 623791, 624190, 624590, 624990, 625390, 625790, 626190, 626672, 627055, 627422, 627758, 628185, 628550, 628918, 629257, 629680, 630030, 630384, 630746, 631118, 631489, 631803, 632159]",9,R,ITM,1.1,
7,600,trial,0,28,28,28,trial,"['B', 'S', 'S', 'S', 'S', 'S', 'S', 'S', 'S', 'C', 'C', 'C', 'C', 'C', 'C', 'C', 'C', 'C', 'C', 'C', 'C', 'C', 'C', 'C', 'C']","[637723, 638030, 638689, 639261, 639843, 640392, 640951, 641550, 642111, 642798, 643419, 644034, 644603, 645164, 645782, 646383, 646915, 647581, 648173, 648729, 649256, 649871, 650506, 651079, 651663]","[637744, 638151, 638788, 639396, 639963, 640506, 641094, 641690, 642266, 642945, 643572, 644186, 644762, 645324, 645949, 646556, 647136, 647777, 648352, 648902, 649447, 650041, 650649, 651259, 651836]","[637736, 638336, 638936, 639536, 640136, 640736, 641336, 641936, 642825, 643445, 644061, 644631, 645191, 645809, 646410, 646941, 647608, 648200, 648756, 649283, 649897, 650532, 651107, 651689]",9,R,ITM,1.1,
5,400,trial,0,29,29,29,trial,"['S', 'S', 'S', 'S', 'S', 'S', 'S', 'S', 'S', 'C', 'C', 'C', 'C', 'C', 'C', 'C', 'C', 'C', 'C', 'C', 'C', 'C', 'C', 'C', 'C']","[656991, 657395, 657742, 658080, 658446, 658814, 659175, 659545, 659972, 660393, 660761, 661161, 661559, 661969, 662372, 662768, 663084, 663503, 663907, 664303, 664669, 665014, 665350, 665743, 666109]","[657111, 657526, 657854, 658210, 658573, 658938, 659322, 659688, 660101, 660504, 660900, 661283, 661697, 662113, 662493, 662888, 663219, 663629, 664035, 664428, 664816, 665151, 665496, 665870, 666233]","[656991, 657391, 657792, 658191, 658591, 658992, 659391, 659791, 660420, 660787, 661188, 661584, 661996, 662397, 662794, 663110, 663529, 663932, 664329, 664695, 665039, 665376, 665768, 666135]",9,R,ITM,1.1,
5,400,trial,0,30,30,30,trial,"['B', 'S', 'S', 'S', 'S', 'S', 'S', 'S', 'C', 'C', 'C', 'C', 'C', 'C', 'C', 'C', 'C', 'C', 'C', 'C', 'C', 'C', 'C', 'C']","[673600, 674069, 674491, 674885, 675259, 675671, 676059, 676425, 676781, 677146, 677519, 677866, 678206, 678587, 678949, 679303, 679681, 680079, 680453, 680775, 681127, 681502, 681841, 682158]","[673729, 674222, 674644, 675021, 675410, 675799, 676202, 676570, 676903, 677275, 677660, 678009, 678348, 678715, 679085, 679435, 679818, 680189, 680576, 680919, 681260, 681623, 681985, 682304]","[673612, 674012, 674411, 674811, 675211, 675611, 676012, 676411, 676806, 677172, 677545, 677892, 678232, 678614, 678975, 679329, 679706, 680104, 680478, 680801, 681154, 681528, 681868, 682184]",9,R,ITM,1.1,
6,600,trial,0,31,31,31,trial,"['B', 'S', 'S', 'S', 'S', 'S', 'S', 'S', 'S', 'C', 'C', 'C', 'C', 'C', 'C', 'C', 'C', 'C', 'C', 'C', 'C', 'C', 'C', 'C', 'C']","[687759, 687995, 688586, 689200, 689779, 690364, 690970, 691561, 692118, 692736, 693399, 694001, 694615, 695255, 695903, 696583, 697172, 697733, 698351, 698929, 699419, 700029, 700624, 701200, 701808]","[687802, 688112, 688740, 689356, 689945, 690515, 691097, 691712, 692283, 692904, 693555, 694171, 694794, 695435, 696111, 696757, 697346, 697952, 698561, 699140, 699610, 700243, 700818, 701415, 701996]","[687772, 688371, 688971, 689571, 690171, 690771, 691372, 691972, 692762, 693427, 694029, 694641, 695281, 695930, 696610, 697200, 697759, 698378, 698955, 699446, 700056, 700652, 701227, 701835]",9,R,ITM,1.1,
3,600,trial,0,32,32,32,trial,"['S', 'S', 'S', 'S', 'S', 'S', 'S', 'S', 'S', 'C', 'C', 'C', 'C', 'C', 'C', 'C', 'C', 'C', 'C', 'C', 'C', 'C', 'C', 'C', 'C']","[707439, 707702, 708316, 708896, 709471, 710048, 710639, 711225, 711804, 712406, 712991, 713613, 714174, 714734, 715369, 715966, 716552, 717132, 717750, 718331, 718916, 719493, 720101, 720666, 721160]","[707533, 707857, 708445, 709046, 709609, 710189, 710770, 711373, 711924, 712568, 713249, 713788, 714351, 714943, 715528, 716155, 716744, 717341, 717936, 718489, 719086, 719731, 720290, 720828, 721300]","[707439, 708038, 708638, 709238, 709838, 710438, 711038, 711639, 712431, 713017, 713638, 714200, 714760, 715395, 715992, 716577, 717158, 717775, 718358, 718942, 719518, 720126, 720692, 721185]",9,R,ITM,1.1,
7,400,trial,0,33,33,33,trial,"['S', 'S', 'S', 'S', 'S', 'S', 'S', 'S', 'C', 'C', 'C', 'C', 'C', 'C', 'C', 'C', 'C', 'C', 'C', 'C', 'C', 'C', 'C', 'C']","[726948, 727361, 727768, 728139, 728493, 728857, 729176, 729548, 729891, 730312, 730641, 730998, 731402, 731765, 732156, 732524, 732875, 733288, 733641, 734034, 734385, 734728, 735075, 735443]","[727090, 727497, 727895, 728284, 728658, 729018, 729319, 729690, 730041, 730401, 730785, 731130, 731542, 731916, 732314, 732676, 733036, 733424, 733805, 734183, 734534, 734868, 735209, 735577]","[726763, 727162, 727562, 727962, 728363, 728762, 729162, 729563, 729919, 730339, 730668, 731025, 731429, 731792, 732183, 732552, 732903, 733315, 733669, 734061, 734412, 734754, 735101, 735471]",9,R,ITM,1.1,
5,400,trial,0,34,34,34,trial,"['S', 'S', 'S', 'S', 'S', 'S', 'S', 'S', 'C', 'C', 'C', 'C', 'C', 'C', 'C', 'C', 'C', 'C', 'C', 'C', 'C', 'C', 'C', 'C']","[741033, 741403, 741822, 742220, 742615, 743004, 743370, 743777, 744261, 744643, 745085, 745492, 745871, 746227, 746634, 746980, 747356, 747718, 748082, 748498, 748894, 749222, 749566, 749924]","[741210, 741581, 741989, 742383, 742779, 743155, 743537, 743947, 744409, 744828, 745251, 745631, 746032, 746396, 746769, 747123, 747500, 747863, 748230, 748624, 749014, 749370, 749720, 750106]","[740767, 741168, 741567, 741967, 742367, 742767, 743168, 743567, 744287, 744669, 745111, 745518, 745896, 746253, 746660, 747005, 747381, 747744, 748108, 748524, 748919, 749249, 749591, 749949]",9,R,ITM,1.1,
7,400,trial,0,35,35,35,trial,"['S', 'S', 'S', 'S', 'S', 'S', 'S', 'S', 'C', 'C', 'C', 'C', 'C', 'C', 'C', 'C', 'C', 'C', 'C', 'C', 'C', 'C', 'C', 'C']","[755866, 756245, 756644, 757018, 757371, 757756, 758153, 758494, 758799, 759126, 759491, 759842, 760239, 760614, 761021, 761357, 761730, 762061, 762401, 762792, 763125, 763464, 763826, 764190]","[756007, 756395, 756780, 757164, 757541, 757938, 758322, 758640, 758951, 759294, 759661, 760024, 760400, 760774, 761165, 761501, 761874, 762211, 762550, 762906, 763239, 763588, 763941, 764312]","[755671, 756069, 756469, 756870, 757269, 757669, 758069, 758469, 758825, 759153, 759518, 759870, 760265, 760642, 761048, 761384, 761757, 762089, 762429, 762819, 763152, 763492, 763853, 764217]",9,R,ITM,1.1,
5,600,trial,0,36,36,36,trial,"['S', 'S', 'S', 'S', 'S', 'S', 'S', 'C', 'C', 'C', 'C', 'C', 'C', 'C', 'C', 'C', 'C', 'C', 'C', 'C', 'C', 'C', 'C']","[769999, 770763, 771394, 772008, 772641, 773212, 773757, 774278, 775041, 775618, 776211, 776825, 777478, 778159, 778719, 779280, 779900, 780496, 781120, 781678, 782216, 782780, 783368]","[770087, 770876, 771536, 772151, 772754, 773328, 773883, 774465, 775172, 775787, 776402, 777004, 777653, 778290, 778868, 779455, 780062, 780665, 781276, 781850, 782409, 782951, 783516]","[769830, 770430, 771031, 771631, 772231, 772831, 773431, 774031, 774304, 775066, 775645, 776237, 776851, 777503, 778184, 778744, 779305, 779926, 780522, 781146, 781705, 782241, 782806, 783393]",9,R,ITM,1.1,
2,600,trial,0,37,37,37,trial,"['S', 'S', 'S', 'S', 'S', 'S', 'S', 'S', 'C', 'C', 'C', 'C', 'C', 'C', 'C', 'C', 'C', 'C', 'C', 'C', 'C', 'C', 'C', 'C']","[789061, 789672, 790283, 790872, 791449, 792031, 792607, 793202, 793745, 794292, 794874, 795478, 796122, 796711, 797307, 797871, 798531, 799110, 799700, 800232, 800855, 801377, 801910, 802479]","[789158, 789788, 790407, 790980, 791526, 792125, 792717, 793306, 793880, 794458, 795056, 795659, 796277, 796869, 797480, 798091, 798690, 799290, 799842, 800409, 801016, 801532, 802063, 802616]","[788878, 789477, 790078, 790677, 791278, 791878, 792478, 793078, 793773, 794319, 794901, 795504, 796148, 796739, 797334, 797898, 798558, 799137, 799728, 800260, 800882, 801403, 801938, 802506]",9,R,ITM,1.1,
5,600,trial,0,38,38,38,trial,"['B', 'S', 'S', 'S', 'S', 'S', 'S', 'S', 'C', 'C', 'C', 'C', 'C', 'C', 'C', 'C', 'C', 'C', 'C', 'C', 'C', 'C', 'C', 'C']","[807990, 808629, 809331, 809917, 810521, 811187, 811745, 812346, 812906, 813510, 814099, 814666, 815350, 815947, 816510, 817149, 817860, 818393, 818952, 819560, 820136, 820672, 821241, 821755]","[808057, 808769, 809463, 810048, 810662, 811289, 811856, 812467, 813096, 813692, 814282, 814872, 815507, 816125, 816700, 817352, 818013, 818579, 819166, 819741, 820315, 820854, 821420, 821908]","[808002, 808602, 809202, 809802, 810402, 811002, 811602, 812203, 812932, 813537, 814125, 814693, 815376, 815973, 816536, 817175, 817887, 818418, 818977, 819586, 820162, 820698, 821267, 821782]",9,R,ITM,1.1,
7,600,trial,0,39,39,39,trial,"['B', 'S', 'S', 'S', 'S', 'S', 'S', 'S', 'C', 'C', 'C', 'C', 'C', 'C', 'C', 'C', 'C', 'C', 'C', 'C', 'C', 'C', 'C', 'C']","[827447, 827945, 828484, 829134, 829742, 830342, 830894, 831428, 831972, 832613, 833170, 833729, 834344, 834959, 835532, 836003, 836662, 837165, 837720, 838270, 838849, 839318, 839803, 840342]","[827574, 828169, 828688, 829332, 829940, 830501, 831049, 831577, 832112, 832765, 833363, 833936, 834546, 835149, 835706, 836175, 836829, 837380, 837929, 838453, 839033, 839515, 840010, 840532]","[827460, 828059, 828659, 829259, 829859, 830459, 831059, 831660, 832000, 832640, 833197, 833756, 834371, 834985, 835560, 836030, 836688, 837191, 837746, 838297, 838876, 839345, 839831, 840369]",9,R,ITM,1.1,
6,600,trial,0,40,40,40,trial,"['B', 'S', 'S', 'S', 'S', 'S', 'S', 'S', 'C', 'C', 'C', 'C', 'C', 'C', 'C', 'C', 'C', 'C', 'C', 'C', 'C', 'C', 'C', 'C']","[845770, 846276, 847055, 847697, 848346, 848950, 849543, 850119, 850740, 851392, 851985, 852639, 853286, 853867, 854460, 855086, 855718, 856251, 856858, 857440, 858011, 858597, 859165, 859842]","[845865, 846512, 847225, 847840, 848450, 849083, 849638, 850226, 850878, 851571, 852187, 852855, 853451, 853975, 854607, 855242, 855875, 856446, 857049, 857633, 858165, 858763, 859342, 859990]","[845783, 846383, 846983, 847582, 848182, 848782, 849382, 849982, 850766, 851419, 852012, 852666, 853313, 853895, 854487, 855112, 855746, 856278, 856885, 857467, 858038, 858625, 859193, 859870]",9,R,ITM,1.1,
2,400,trial,0,41,41,41,trial,"['B', 'S', 'S', 'S', 'S', 'S', 'S', 'S', 'C', 'C', 'C', 'C', 'C', 'C', 'C', 'C', 'C', 'C', 'C', 'C', 'C', 'C', 'C', 'C']","[865320, 865903, 866233, 866627, 866989, 867382, 867798, 868122, 868430, 868792, 869176, 869556, 869936, 870301, 870679, 871052, 871434, 871817, 872173, 872534, 872864, 873195, 873568, 873928]","[865447, 865990, 866349, 866751, 867129, 867532, 867929, 868268, 868581, 868940, 869328, 869690, 870070, 870425, 870835, 871196, 871567, 871953, 872317, 872675, 873014, 873349, 873705, 874055]","[865334, 865733, 866134, 866533, 866934, 867335, 867734, 868133, 868458, 868819, 869203, 869582, 869962, 870328, 870706, 871078, 871461, 871844, 872201, 872561, 872891, 873222, 873595, 873955]",9,R,ITM,1.1,
4,400,trial,0,42,42,42,trial,"['B', 'S', 'S', 'S', 'S', 'S', 'S', 'S', 'S', 'C', 'C', 'C', 'C', 'C', 'C', 'C', 'C', 'C', 'C', 'C', 'C', 'C', 'C', 'C', 'C']","[881600, 881975, 882482, 882855, 883237, 883573, 883941, 884282, 884634, 884993, 885350, 885715, 886097, 886444, 886792, 887141, 887506, 887885, 888254, 888599, 888974, 889277, 889626, 889975, 890298]","[881702, 882192, 882652, 883001, 883383, 883740, 884110, 884447, 884782, 885144, 885518, 885883, 886260, 886615, 886964, 887307, 887673, 888046, 888422, 888755, 889113, 889432, 889771, 890113, 890440]","[881611, 882012, 882411, 882811, 883211, 883611, 884012, 884411, 885018, 885376, 885741, 886123, 886470, 886817, 887166, 887532, 887911, 888280, 888625, 888999, 889303, 889652, 890002, 890323]",9,R,ITM,1.1,
2,400,trial,0,43,43,43,trial,"['S', 'S', 'S', 'S', 'S', 'S', 'S', 'S', 'C', 'C', 'C', 'C', 'C', 'C', 'C', 'C', 'C', 'C', 'C', 'C', 'C', 'C', 'C', 'C']","[895855, 896313, 896650, 897027, 897394, 897807, 898199, 898638, 899019, 899361, 899795, 900207, 900594, 900947, 901367, 901731, 902118, 902504, 902891, 903261, 903626, 903999, 904369, 904718]","[895968, 896418, 896771, 897146, 897525, 897942, 898347, 898755, 899152, 899537, 899935, 900368, 900770, 901111, 901529, 901905, 902283, 902661, 903044, 903416, 903771, 904121, 904514, 904843]","[895677, 896077, 896477, 896877, 897276, 897677, 898076, 898478, 899047, 899389, 899822, 900235, 900621, 900975, 901394, 901758, 902146, 902532, 902919, 903288, 903654, 904027, 904396, 904744]",9,R,ITM,1.1,
4,600,trial,0,44,44,44,trial,"['S', 'S', 'S', 'S', 'S', 'S', 'S', 'S', 'C', 'C', 'C', 'C', 'C', 'C', 'C', 'C', 'C', 'C', 'C', 'C', 'C', 'C', 'C', 'C']","[910344, 910973, 911625, 912177, 912755, 913359, 913955, 914538, 915101, 915701, 916280, 916913, 917558, 918131, 918701, 919251, 919730, 920361, 920891, 921481, 922095, 922656, 923223, 923777]","[910427, 911098, 911738, 912284, 912885, 913503, 914105, 914689, 915257, 915842, 916450, 917092, 917729, 918275, 918817, 919395, 919872, 920504, 921044, 921625, 922238, 922816, 923379, 923908]","[910195, 910795, 911395, 911995, 912595, 913196, 913796, 914396, 915127, 915728, 916306, 916938, 917583, 918157, 918726, 919277, 919755, 920387, 920916, 921506, 922121, 922682, 923248, 923802]",9,R,ITM,1.1,
6,400,trial,0,45,45,45,trial,"['S', 'S', 'S', 'S', 'S', 'S', 'S', 'S', 'C', 'C', 'C', 'C', 'C', 'C', 'C', 'C', 'C', 'C', 'C', 'C', 'C', 'C', 'C', 'C']","[929566, 929842, 930185, 930550, 930934, 931292, 931701, 932148, 932588, 932939, 933424, 933792, 934243, 934610, 935001, 935392, 935809, 936219, 936588, 937029, 937403, 937779, 938176, 938547]","[929664, 929950, 930315, 930675, 931070, 931438, 931827, 932258, 932709, 933091, 933559, 933964, 934402, 934793, 935180, 935561, 935976, 936379, 936771, 937181, 937550, 937944, 938328, 938685]","[929146, 929545, 929945, 930345, 930745, 931145, 931546, 931945, 932616, 932966, 933451, 933819, 934269, 934638, 935027, 935418, 935835, 936246, 936614, 937057, 937430, 937806, 938204, 938573]",9,R,ITM,1.1,
7,600,trial,0,46,46,46,trial,"['B', 'S', 'S', 'S', 'S', 'S', 'S', 'S', 'C', 'C', 'C', 'C', 'C', 'C', 'C', 'C', 'C', 'C', 'C', 'C', 'C', 'C', 'C', 'C']","[944095, 944612, 945409, 946051, 946650, 947216, 947874, 948406, 949062, 949689, 950331, 951018, 951627, 952314, 952940, 953617, 954302, 955030, 955793, 956392, 957031, 957674, 958350, 959022]","[944161, 944740, 945536, 946139, 946742, 947306, 947978, 948533, 949186, 949857, 950462, 951164, 951781, 952442, 953115, 953778, 954455, 955195, 955945, 956548, 957238, 957889, 958542, 959212]","[944108, 944707, 945307, 945907, 946507, 947107, 947707, 948307, 949090, 949716, 950359, 951046, 951655, 952342, 952968, 953644, 954330, 955057, 955821, 956419, 957059, 957702, 958377, 959048]",9,R,ITM,1.1,
4,400,trial,0,47,47,47,trial,"['B', 'S', 'S', 'S', 'S', 'S', 'S', 'S', 'S', 'C', 'C', 'C', 'C', 'C', 'C', 'C', 'C', 'C', 'C', 'C', 'C', 'C', 'C', 'C', 'C']","[964573, 965039, 965352, 965700, 966010, 966362, 966727, 967050, 967411, 967734, 968126, 968498, 968896, 969282, 969667, 970048, 970406, 970769, 971149, 971525, 971901, 972231, 972614, 972955, 973286]","[964625, 965153, 965455, 965821, 966142, 966492, 966881, 967202, 967558, 967876, 968264, 968642, 969054, 969431, 969819, 970196, 970555, 970906, 971301, 971673, 972060, 972405, 972771, 973101, 973417]","[964585, 964984, 965384, 965784, 966184, 966584, 966984, 967385, 967759, 968152, 968523, 968923, 969308, 969693, 970074, 970432, 970795, 971174, 971550, 971927, 972257, 972640, 972981, 973312]",9,R,ITM,1.1,
2,600,trial,0,48,48,48,trial,"['S', 'S', 'S', 'S', 'S', 'S', 'S', 'S', 'C', 'C', 'C', 'C', 'C', 'C', 'C', 'C', 'C', 'C', 'C', 'C', 'C', 'C', 'C', 'C']","[979184, 979865, 980477, 981030, 981642, 982213, 982756, 983362, 983949, 984534, 985162, 985798, 986516, 987020, 987673, 988290, 989040, 989609, 990160, 990742, 991266, 991817, 992351, 992900]","[979303, 979975, 980599, 981170, 981781, 982353, 982894, 983508, 984134, 984728, 985310, 985954, 986649, 987203, 987842, 988480, 989174, 989768, 990370, 990921, 991436, 992009, 992544, 993108]","[978996, 979596, 980196, 980796, 981396, 981996, 982596, 983196, 983975, 984560, 985189, 985826, 986544, 987046, 987700, 988316, 989068, 989637, 990187, 990770, 991293, 991845, 992378, 992926]",9,R,ITM,1.1,
3,400,trial,0,49,49,49,trial,"['S', 'S', 'S', 'S', 'S', 'S', 'S', 'S', 'C', 'C', 'C', 'C', 'C', 'C', 'C', 'C', 'C', 'C', 'C', 'C', 'C', 'C', 'C', 'C']","[998514, 998940, 999386, 999757, 1000180, 1000548, 1000980, 1001328, 1001705, 1002087, 1002484, 1002915, 1003325, 1003705, 1004109, 1004465, 1004839, 1005257, 1005633, 1006052, 1006389, 1006727, 1007107, 1007484]","[998648, 999068, 999486, 999896, 1000296, 1000675, 1001095, 1001462, 1001849, 1002226, 1002657, 1003074, 1003487, 1003844, 1004253, 1004624, 1005002, 1005415, 1005785, 1006189, 1006547, 1006871, 1007254, 1007603]","[998394, 998793, 999193, 999593, 999993, 1000393, 1000794, 1001193, 1001731, 1002113, 1002510, 1002941, 1003351, 1003730, 1004135, 1004490, 1004865, 1005283, 1005659, 1006077, 1006414, 1006752, 1007132, 1007510]",9,R,ITM,1.1,
4,600,trial,0,50,50,50,trial,"['B', 'S', 'S', 'S', 'S', 'S', 'S', 'S', 'S', 'C', 'C', 'C', 'C', 'C', 'C', 'C', 'C', 'C', 'C', 'C', 'C', 'C', 'C', 'C', 'C']","[1013080, 1013452, 1014140, 1014670, 1015244, 1015824, 1016394, 1016938, 1017487, 1018097, 1018676, 1019267, 1019853, 1020471, 1021064, 1021665, 1022311, 1022993, 1023628, 1024131, 1024715, 1025270, 1025884, 1026473, 1026981]","[1013100, 1013598, 1014273, 1014799, 1015354, 1015931, 1016480, 1017065, 1017605, 1018226, 1018857, 1019404, 1019980, 1020630, 1021207, 1021839, 1022467, 1023115, 1023741, 1024310, 1024889, 1025477, 1026034, 1026633, 1027196]","[1013092, 1013691, 1014291, 1014891, 1015491, 1016091, 1016691, 1017291, 1018124, 1018701, 1019292, 1019880, 1020497, 1021090, 1021690, 1022337, 1023019, 1023654, 1024157, 1024741, 1025296, 1025909, 1026500, 1027007]",9,R,ITM,1.1,
3,400,trial,0,51,51,51,trial,"['S', 'S', 'S', 'S', 'S', 'S', 'S', 'S', 'S', 'C', 'C', 'C', 'C', 'C', 'C', 'C', 'C', 'C', 'C', 'C', 'C', 'C', 'C', 'C', 'C']","[1032526, 1032990, 1033318, 1033694, 1034089, 1034384, 1034733, 1035118, 1035431, 1035769, 1036150, 1036520, 1036893, 1037277, 1037646, 1038007, 1038329, 1038693, 1039055, 1039410, 1039778, 1040156, 1040525, 1040883, 1041247]","[1032640, 1033097, 1033426, 1033806, 1034200, 1034539, 1034862, 1035237, 1035564, 1035902, 1036296, 1036656, 1037030, 1037420, 1037777, 1038146, 1038469, 1038812, 1039204, 1039559, 1039909, 1040308, 1040674, 1041045, 1041405]","[1032393, 1032794, 1033193, 1033593, 1033993, 1034393, 1034793, 1035193, 1035795, 1036176, 1036546, 1036918, 1037302, 1037672, 1038032, 1038355, 1038718, 1039081, 1039435, 1039804, 1040182, 1040550, 1040909, 1041272]",9,R,ITM,1.1,
3,600,trial,0,52,52,52,trial,"['S', 'S', 'S', 'S', 'S', 'S', 'S', 'S', 'C', 'C', 'C', 'C', 'C', 'C', 'C', 'C', 'C', 'C', 'C', 'C', 'C', 'C', 'C', 'C']","[1046948, 1047600, 1048170, 1048771, 1049329, 1049920, 1050492, 1051094, 1051649, 1052191, 1052810, 1053480, 1054120, 1054748, 1055457, 1056002, 1056540, 1057233, 1057849, 1058372, 1058935, 1059596, 1060126, 1060584]","[1047101, 1047748, 1048307, 1048908, 1049480, 1050068, 1050647, 1051206, 1051792, 1052371, 1053000, 1053671, 1054298, 1054919, 1055599, 1056156, 1056730, 1057396, 1058017, 1058574, 1059159, 1059738, 1060316, 1060761]","[1046771, 1047371, 1047971, 1048571, 1049171, 1049772, 1050372, 1050972, 1051674, 1052217, 1052835, 1053506, 1054146, 1054774, 1055482, 1056027, 1056566, 1057259, 1057874, 1058399, 1058961, 1059621, 1060152, 1060610]",9,R,ITM,1.1,
6,400,trial,0,53,53,53,trial,"['S', 'S', 'S', 'S', 'S', 'S', 'S', 'S', 'S', 'C', 'C', 'C', 'C', 'C', 'C', 'C', 'C', 'C', 'C', 'C', 'C', 'C', 'C', 'C', 'C']","[1066384, 1066783, 1067083, 1067384, 1067732, 1068042, 1068437, 1068844, 1069229, 1069580, 1069931, 1070376, 1070763, 1071152, 1071552, 1071921, 1072258, 1072645, 1073019, 1073381, 1073729, 1074099, 1074412, 1074744, 1075085]","[1066455, 1066858, 1067179, 1067484, 1067849, 1068200, 1068573, 1068963, 1069357, 1069712, 1070101, 1070518, 1070931, 1071309, 1071703, 1072058, 1072396, 1072772, 1073142, 1073513, 1073859, 1074237, 1074561, 1074883, 1075226]","[1066225, 1066625, 1067024, 1067424, 1067825, 1068224, 1068624, 1069024, 1069606, 1069958, 1070403, 1070789, 1071178, 1071579, 1071947, 1072284, 1072671, 1073046, 1073408, 1073756, 1074125, 1074439, 1074771, 1075111]",9,R,ITM,1.1,
4,600,trial,0,54,54,54,trial,"['B', 'S', 'S', 'S', 'S', 'S', 'S', 'S', 'S', 'C', 'C', 'C', 'C', 'C', 'C', 'C', 'C', 'C', 'C', 'C', 'C', 'C', 'C', 'C', 'C']","[1083416, 1083789, 1084504, 1085097, 1085693, 1086215, 1086748, 1087321, 1087813, 1088380, 1088970, 1089551, 1090172, 1090818, 1091353, 1091896, 1092487, 1093080, 1093731, 1094289, 1094852, 1095416, 1096003, 1096601, 1097199]","[1083487, 1083970, 1084652, 1085203, 1085818, 1086321, 1086873, 1087440, 1087955, 1088529, 1089129, 1089730, 1090336, 1090974, 1091533, 1092109, 1092700, 1093293, 1093900, 1094463, 1095028, 1095603, 1096198, 1096792, 1097415]","[1083428, 1084027, 1084627, 1085228, 1085828, 1086428, 1087027, 1087627, 1088407, 1088996, 1089576, 1090198, 1090843, 1091379, 1091921, 1092512, 1093105, 1093756, 1094315, 1094879, 1095442, 1096029, 1096627, 1097225]",9,R,ITM,1.1,
3,600,trial,0,55,55,55,trial,"['B', 'S', 'S', 'S', 'S', 'S', 'S', 'S', 'C', 'C', 'C', 'C', 'C', 'C', 'C', 'C', 'C', 'C', 'C', 'C', 'C', 'C', 'C', 'C']","[1102623, 1103058, 1103850, 1104523, 1105248, 1105841, 1106407, 1106985, 1107679, 1108271, 1108872, 1109484, 1110118, 1110688, 1111277, 1111866, 1112529, 1113129, 1113797, 1114263, 1114970, 1115501, 1116026, 1116567]","[1102725, 1103273, 1103998, 1104620, 1105321, 1105947, 1106527, 1107091, 1107786, 1108385, 1109005, 1109622, 1110237, 1110834, 1111444, 1112019, 1112755, 1113314, 1113923, 1114487, 1115140, 1115668, 1116246, 1116777]","[1102635, 1103235, 1103835, 1104434, 1105034, 1105634, 1106234, 1106834, 1107704, 1108296, 1108897, 1109510, 1110144, 1110714, 1111303, 1111891, 1112555, 1113155, 1113823, 1114289, 1114995, 1115527, 1116052, 1116593]",9,R,ITM,1.1,
6,400,trial,0,56,56,56,trial,"['S', 'S', 'S', 'S', 'S', 'S', 'S', 'S', 'C', 'C', 'C', 'C', 'C', 'C', 'C', 'C', 'C', 'C', 'C', 'C', 'C', 'C', 'C', 'C']","[1122468, 1122891, 1123309, 1123727, 1124090, 1124492, 1124871, 1125261, 1125613, 1126040, 1126388, 1126750, 1127105, 1127476, 1127839, 1128172, 1128518, 1128879, 1129232, 1129586, 1129929, 1130263, 1130604, 1130952]","[1122618, 1122996, 1123409, 1123834, 1124226, 1124620, 1125003, 1125396, 1125750, 1126181, 1126517, 1126886, 1127235, 1127603, 1127969, 1128315, 1128662, 1129016, 1129358, 1129707, 1130073, 1130401, 1130725, 1131053]","[1122255, 1122655, 1123055, 1123456, 1123855, 1124255, 1124656, 1125055, 1125640, 1126067, 1126416, 1126776, 1127132, 1127502, 1127866, 1128199, 1128545, 1128905, 1129260, 1129613, 1129956, 1130290, 1130631, 1130979]",9,R,ITM,1.1,
3,400,trial,0,57,57,57,trial,"['B', 'S', 'S', 'S', 'S', 'S', 'S', 'S', 'C', 'C', 'C', 'C', 'C', 'C', 'C', 'C', 'C', 'C', 'C', 'C', 'C', 'C', 'C', 'C']","[1136310, 1136862, 1137296, 1137651, 1138041, 1138510, 1138947, 1139309, 1139627, 1140034, 1140386, 1140760, 1141200, 1141530, 1141898, 1142238, 1142620, 1142942, 1143268, 1143605, 1143942, 1144291, 1144613, 1144928]","[1136457, 1136955, 1137386, 1137770, 1138170, 1138613, 1139039, 1139419, 1139766, 1140182, 1140530, 1140895, 1141316, 1141679, 1142034, 1142373, 1142762, 1143069, 1143404, 1143741, 1144082, 1144422, 1144745, 1145062]","[1136321, 1136721, 1137121, 1137521, 1137922, 1138321, 1138721, 1139122, 1139652, 1140060, 1140412, 1140786, 1141226, 1141556, 1141923, 1142263, 1142645, 1142969, 1143293, 1143630, 1143967, 1144316, 1144639, 1144954]",9,R,ITM,1.1,
7,600,trial,0,58,58,58,trial,"['S', 'S', 'S', 'S', 'S', 'S', 'S', 'S', 'C', 'C', 'C', 'C', 'C', 'C', 'C', 'C', 'C', 'C', 'C', 'C', 'C', 'C', 'C', 'C']","[1150754, 1151382, 1151987, 1152561, 1153136, 1153694, 1154225, 1154850, 1155424, 1156055, 1156671, 1157307, 1157926, 1158529, 1159153, 1159708, 1160279, 1160924, 1161528, 1162087, 1162668, 1163177, 1163742, 1164356]","[1150841, 1151486, 1152109, 1152677, 1153256, 1153828, 1154391, 1155015, 1155638, 1156250, 1156868, 1157469, 1158104, 1158692, 1159283, 1159923, 1160491, 1161155, 1161732, 1162280, 1162836, 1163364, 1163962, 1164558]","[1150601, 1151200, 1151800, 1152400, 1153000, 1153600, 1154200, 1154800, 1155451, 1156082, 1156698, 1157334, 1157954, 1158555, 1159180, 1159735, 1160306, 1160950, 1161555, 1162115, 1162695, 1163204, 1163768, 1164383]",9,R,ITM,1.1,
4,400,trial,0,59,59,59,trial,"['S', 'S', 'S', 'S', 'S', 'S', 'S', 'S', 'C', 'C', 'C', 'C', 'C', 'C', 'C', 'C', 'C', 'C', 'C', 'C', 'C', 'C', 'C', 'C']","[1170289, 1170654, 1171019, 1171369, 1171757, 1172106, 1172458, 1172800, 1173150, 1173477, 1173833, 1174202, 1174571, 1174942, 1175322, 1175709, 1176089, 1176508, 1176924, 1177283, 1177690, 1178067, 1178449, 1178790]","[1170415, 1170784, 1171138, 1171497, 1171877, 1172245, 1172573, 1172932, 1173279, 1173616, 1173942, 1174317, 1174717, 1175089, 1175472, 1175840, 1176220, 1176630, 1177039, 1177414, 1177822, 1178222, 1178584, 1178923]","[1170058, 1170458, 1170859, 1171258, 1171658, 1172059, 1172458, 1172858, 1173176, 1173502, 1173860, 1174227, 1174596, 1174968, 1175348, 1175735, 1176115, 1176535, 1176949, 1177309, 1177715, 1178093, 1178475, 1178816]",9,R,ITM,1.1,
6,600,trial,0,60,60,60,trial,"['S', 'S', 'S', 'S', 'S', 'S', 'S', 'S', 'S', 'C', 'C', 'C', 'C', 'C', 'C', 'C', 'C', 'C', 'C', 'C', 'C', 'C', 'C', 'C', 'C']","[1184434, 1184878, 1185303, 1185837, 1186369, 1186896, 1187484, 1188039, 1188582, 1189117, 1189670, 1190215, 1190889, 1191500, 1192111, 1192736, 1193318, 1193943, 1194593, 1195218, 1195619, 1196246, 1196760, 1197313, 1197873]","[1184583, 1185053, 1185488, 1186000, 1186505, 1187010, 1187582, 1188148, 1188708, 1189256, 1189837, 1190408, 1191062, 1191688, 1192290, 1192885, 1193486, 1194134, 1194760, 1195333, 1195822, 1196410, 1196920, 1197472, 1198049]","[1184246, 1184845, 1185445, 1186045, 1186646, 1187246, 1187846, 1188446, 1189145, 1189697, 1190242, 1190916, 1191528, 1192138, 1192763, 1193346, 1193969, 1194619, 1195245, 1195646, 1196272, 1196786, 1197340, 1197899]",9,R,ITM,1.1,
3,400,trial,0,61,61,61,trial,"['S', 'S', 'S', 'S', 'S', 'S', 'S', 'S', 'C', 'C', 'C', 'C', 'C', 'C', 'C', 'C', 'C', 'C', 'C', 'C', 'C', 'C', 'C', 'C']","[1203729, 1204144, 1204521, 1204900, 1205270, 1205625, 1205988, 1206324, 1206658, 1207015, 1207391, 1207754, 1208113, 1208497, 1208863, 1209277, 1209609, 1209975, 1210373, 1210740, 1211105, 1211452, 1211790, 1212133]","[1203855, 1204242, 1204628, 1205024, 1205396, 1205752, 1206126, 1206473, 1206777, 1207161, 1207536, 1207903, 1208267, 1208639, 1209020, 1209397, 1209735, 1210125, 1210515, 1210874, 1211241, 1211588, 1211925, 1212254]","[1203505, 1203904, 1204304, 1204704, 1205104, 1205505, 1205904, 1206304, 1206683, 1207041, 1207417, 1207780, 1208138, 1208522, 1208889, 1209303, 1209634, 1210001, 1210398, 1210766, 1211130, 1211478, 1211815, 1212158]",9,R,ITM,1.1,
6,600,trial,0,62,62,62,trial,"['S', 'S', 'S', 'S', 'S', 'S', 'S', 'S', 'C', 'C', 'C', 'C', 'C', 'C', 'C', 'C', 'C', 'C', 'C', 'C', 'C', 'C', 'C', 'C']","[1217806, 1218299, 1218741, 1219340, 1220039, 1220671, 1221232, 1221777, 1222329, 1222904, 1223552, 1224109, 1224635, 1225220, 1225797, 1226299, 1226908, 1227398, 1227942, 1228448, 1228992, 1229483, 1230018, 1230488]","[1217975, 1218449, 1218938, 1219546, 1220219, 1220844, 1221397, 1221945, 1222522, 1223104, 1223686, 1224250, 1224804, 1225331, 1225944, 1226504, 1227083, 1227611, 1228179, 1228659, 1229201, 1229722, 1230243, 1230686]","[1217608, 1218207, 1218807, 1219407, 1220007, 1220608, 1221208, 1221808, 1222355, 1222931, 1223578, 1224136, 1224662, 1225246, 1225824, 1226326, 1226935, 1227424, 1227969, 1228475, 1229019, 1229509, 1230045, 1230515]",9,R,ITM,1.1,
7,600,trial,0,63,63,63,trial,"['B', 'S', 'S', 'S', 'S', 'S', 'S', 'S', 'C', 'C', 'C', 'C', 'C', 'C', 'C', 'C', 'C', 'C', 'C', 'C', 'C', 'C', 'C', 'C']","[1236003, 1236462, 1237050, 1237697, 1238230, 1238786, 1239368, 1239917, 1240469, 1241109, 1241715, 1242344, 1242962, 1243547, 1244121, 1244728, 1245322, 1245868, 1246503, 1247053, 1247577, 1248124, 1248706, 1249236]","[1236054, 1236671, 1237252, 1237817, 1238353, 1238917, 1239495, 1240081, 1240638, 1241281, 1241925, 1242588, 1243165, 1243768, 1244335, 1244960, 1245519, 1246125, 1246709, 1247237, 1247783, 1248385, 1248940, 1249435]","[1236017, 1236616, 1237216, 1237816, 1238416, 1239016, 1239616, 1240216, 1240496, 1241136, 1241742, 1242371, 1242989, 1243575, 1244147, 1244755, 1245349, 1245894, 1246530, 1247081, 1247603, 1248151, 1248733, 1249263]",9,R,ITM,1.1,
3,600,trial,0,64,64,64,trial,"['S', 'S', 'S', 'S', 'S', 'S', 'S', 'S', 'C', 'C', 'C', 'C', 'C', 'C', 'C', 'C', 'C', 'C', 'C', 'C', 'C', 'C', 'C', 'C']","[1254726, 1255387, 1256024, 1256644, 1257172, 1257876, 1258454, 1259017, 1259624, 1260219, 1260827, 1261503, 1262087, 1262623, 1263204, 1263828, 1264384, 1265000, 1265596, 1266122, 1266618, 1267303, 1267813, 1268276]","[1254880, 1255559, 1256158, 1256773, 1257283, 1257964, 1258565, 1259110, 1259750, 1260407, 1261063, 1261704, 1262260, 1262815, 1263433, 1264051, 1264649, 1265256, 1265814, 1266332, 1266837, 1267453, 1267990, 1268446]","[1254654, 1255255, 1255855, 1256455, 1257055, 1257655, 1258255, 1258855, 1259650, 1260244, 1260853, 1261529, 1262112, 1262649, 1263229, 1263854, 1264409, 1265026, 1265622, 1266148, 1266643, 1267329, 1267838, 1268301]",9,R,ITM,1.1,
2,400,trial,0,65,65,65,trial,"['S', 'S', 'S', 'S', 'S', 'S', 'S', 'S', 'C', 'C', 'C', 'C', 'C', 'C', 'C', 'C', 'C', 'C', 'C', 'C', 'C', 'C', 'C', 'C']","[1274009, 1274523, 1274886, 1275271, 1275718, 1276021, 1276408, 1276809, 1277152, 1277561, 1277932, 1278325, 1278714, 1279097, 1279481, 1279881, 1280228, 1280625, 1281000, 1281398, 1281761, 1282131, 1282492, 1282856]","[1274141, 1274633, 1275021, 1275406, 1275825, 1276171, 1276592, 1276953, 1277286, 1277686, 1278068, 1278470, 1278865, 1279265, 1279639, 1280019, 1280379, 1280766, 1281156, 1281571, 1281909, 1282272, 1282638, 1283010]","[1273981, 1274381, 1274780, 1275182, 1275581, 1275981, 1276382, 1276781, 1277178, 1277589, 1277960, 1278353, 1278741, 1279125, 1279509, 1279907, 1280254, 1280652, 1281028, 1281425, 1281788, 1282159, 1282519, 1282884]",9,R,ITM,1.1,
5,400,trial,0,66,66,66,trial,"['B', 'S', 'S', 'S', 'S', 'S', 'S', 'S', 'C', 'C', 'C', 'C', 'C', 'C', 'C', 'C', 'C', 'C', 'C', 'C', 'C', 'C', 'C', 'C']","[1288631, 1289008, 1289454, 1289830, 1290234, 1290603, 1290990, 1291371, 1291752, 1292168, 1292518, 1292883, 1293290, 1293689, 1294065, 1294437, 1294823, 1295215, 1295580, 1295972, 1296390, 1296766, 1297154, 1297521]","[1288729, 1289183, 1289636, 1290000, 1290376, 1290736, 1291126, 1291502, 1291876, 1292300, 1292660, 1293032, 1293448, 1293836, 1294218, 1294593, 1294962, 1295370, 1295734, 1296138, 1296535, 1296919, 1297331, 1297661]","[1288642, 1289042, 1289442, 1289842, 1290243, 1290642, 1291042, 1291442, 1291779, 1292193, 1292544, 1292909, 1293316, 1293716, 1294091, 1294462, 1294849, 1295241, 1295606, 1295997, 1296415, 1296791, 1297179, 1297547]",9,R,ITM,1.1,
2,400,trial,0,67,67,67,trial,"['S', 'S', 'S', 'S', 'S', 'S', 'S', 'S', 'C', 'C', 'C', 'C', 'C', 'C', 'C', 'C', 'C', 'C', 'C', 'C', 'C', 'C', 'C', 'C']","[1303207, 1303617, 1304010, 1304347, 1304724, 1305106, 1305438, 1305781, 1306143, 1306479, 1306865, 1307235, 1307638, 1308010, 1308418, 1308815, 1309192, 1309591, 1309981, 1310364, 1310767, 1311144, 1311506, 1311819]","[1303359, 1303744, 1304116, 1304481, 1304867, 1305259, 1305546, 1305904, 1306249, 1306602, 1306993, 1307365, 1307779, 1308154, 1308555, 1308971, 1309332, 1309745, 1310117, 1310496, 1310902, 1311292, 1311639, 1311964]","[1303029, 1303430, 1303829, 1304228, 1304628, 1305029, 1305430, 1305829, 1306171, 1306507, 1306893, 1307262, 1307666, 1308037, 1308444, 1308841, 1309218, 1309619, 1310008, 1310391, 1310794, 1311172, 1311533, 1311847]",9,R,ITM,1.1,
7,400,trial,0,68,68,68,trial,"['S', 'S', 'S', 'S', 'S', 'S', 'S', 'S', 'C', 'C', 'C', 'C', 'C', 'C', 'C', 'C', 'C', 'C', 'C', 'C', 'C', 'C', 'C', 'C']","[1317713, 1318115, 1318512, 1318898, 1319328, 1319713, 1320101, 1320414, 1320891, 1321263, 1321664, 1322022, 1322455, 1322819, 1323204, 1323581, 1323929, 1324357, 1324692, 1325072, 1325475, 1325834, 1326204, 1326544]","[1317812, 1318218, 1318615, 1319007, 1319414, 1319797, 1320174, 1320531, 1320989, 1321379, 1321793, 1322191, 1322601, 1322969, 1323339, 1323709, 1324062, 1324461, 1324838, 1325222, 1325627, 1325985, 1326350, 1326691]","[1317532, 1317932, 1318331, 1318731, 1319132, 1319531, 1319931, 1320331, 1320919, 1321289, 1321691, 1322049, 1322481, 1322846, 1323231, 1323609, 1323957, 1324384, 1324719, 1325100, 1325502, 1325860, 1326231, 1326572]",9,R,ITM,1.1,
4,400,trial,0,69,69,69,trial,"['S', 'S', 'S', 'S', 'S', 'S', 'S', 'S', 'S', 'C', 'C', 'C', 'C', 'C', 'C', 'C', 'C', 'C', 'C', 'C', 'C', 'C', 'C', 'C', 'C']","[1332139, 1332685, 1332984, 1333298, 1333651, 1334011, 1334416, 1334764, 1335135, 1335494, 1335846, 1336227, 1336554, 1336974, 1337329, 1337729, 1338060, 1338424, 1338781, 1339166, 1339571, 1339872, 1340255, 1340628, 1340936]","[1332254, 1332767, 1333097, 1333406, 1333761, 1334125, 1334525, 1334873, 1335226, 1335592, 1335955, 1336350, 1336707, 1337091, 1337473, 1337853, 1338183, 1338520, 1338893, 1339282, 1339652, 1340011, 1340362, 1340746, 1341045]","[1332111, 1332510, 1332911, 1333310, 1333710, 1334110, 1334510, 1334910, 1335520, 1335872, 1336253, 1336580, 1337000, 1337356, 1337754, 1338086, 1338449, 1338807, 1339192, 1339596, 1339897, 1340280, 1340655, 1340962]",9,R,ITM,1.1,
2,600,trial,0,70,70,70,trial,"['S', 'S', 'S', 'S', 'S', 'S', 'S', 'S', 'C', 'C', 'C', 'C', 'C', 'C', 'C', 'C', 'C', 'C', 'C', 'C', 'C', 'C', 'C', 'C']","[1346613, 1347100, 1347774, 1348335, 1348956, 1349570, 1350153, 1350722, 1351333, 1351902, 1352525, 1353177, 1353780, 1354361, 1354932, 1355566, 1356228, 1356769, 1357383, 1357928, 1358489, 1359052, 1359595, 1360147]","[1346778, 1347294, 1347903, 1348452, 1349064, 1349683, 1350265, 1350846, 1351471, 1352090, 1352730, 1353368, 1354023, 1354556, 1355140, 1355774, 1356364, 1356956, 1357580, 1358183, 1358749, 1359280, 1359821, 1360388]","[1346430, 1347031, 1347631, 1348231, 1348831, 1349430, 1350031, 1350630, 1351361, 1351928, 1352552, 1353203, 1353806, 1354389, 1354958, 1355592, 1356256, 1356795, 1357411, 1357955, 1358516, 1359080, 1359623, 1360175]",9,R,ITM,1.1,
5,600,trial,0,71,71,71,trial,"['B', 'S', 'S', 'S', 'S', 'S', 'S', 'S', 'S', 'C', 'C', 'C', 'C', 'C', 'C', 'C', 'C', 'C', 'C', 'C', 'C', 'C', 'C', 'C', 'C']","[1365940, 1366350, 1366866, 1367421, 1367977, 1368595, 1369213, 1369787, 1370336, 1370943, 1371533, 1372132, 1372756, 1373430, 1374039, 1374687, 1375313, 1376161, 1376770, 1377301, 1377853, 1378416, 1379027, 1379578, 1380235]","[1365981, 1366473, 1367020, 1367554, 1368086, 1368687, 1369325, 1369886, 1370458, 1371074, 1371700, 1372310, 1372929, 1373585, 1374205, 1374871, 1375553, 1376305, 1376908, 1377490, 1378063, 1378647, 1379254, 1379780, 1380462]","[1365952, 1366551, 1367151, 1367751, 1368351, 1368951, 1369551, 1370151, 1370969, 1371559, 1372157, 1372782, 1373456, 1374065, 1374712, 1375339, 1376187, 1376795, 1377328, 1377879, 1378442, 1379054, 1379605, 1380261]",9,R,ITM,1.1,
7,400,trial,0,72,72,72,trial,"['S', 'S', 'S', 'S', 'S', 'S', 'S', 'S', 'S', 'C', 'C', 'C', 'C', 'C', 'C', 'C', 'C', 'C', 'C', 'C', 'C', 'C', 'C', 'C', 'C']","[1385630, 1386124, 1386458, 1386741, 1387087, 1387433, 1387803, 1388194, 1388550, 1388928, 1389293, 1389684, 1390061, 1390433, 1390788, 1391148, 1391496, 1391882, 1392247, 1392624, 1392992, 1393355, 1393687, 1394055, 1394412]","[1385805, 1386252, 1386591, 1386849, 1387205, 1387559, 1387936, 1388332, 1388704, 1389079, 1389449, 1389817, 1390192, 1390581, 1390946, 1391312, 1391645, 1392022, 1392388, 1392771, 1393138, 1393495, 1393855, 1394205, 1394550]","[1385630, 1386030, 1386429, 1386829, 1387230, 1387630, 1388030, 1388430, 1388955, 1389320, 1389712, 1390089, 1390459, 1390815, 1391175, 1391523, 1391909, 1392274, 1392651, 1393018, 1393382, 1393715, 1394081, 1394440]",9,R,ITM,1.1,
4,600,trial,0,73,73,73,trial,"['S', 'S', 'S', 'S', 'S', 'S', 'S', 'S', 'C', 'C', 'C', 'C', 'C', 'C', 'C', 'C', 'C', 'C', 'C', 'C', 'C', 'C', 'C', 'C']","[1400272, 1400901, 1401511, 1402138, 1402678, 1403255, 1403873, 1404443, 1405075, 1405642, 1406283, 1406860, 1407468, 1408092, 1408748, 1409336, 1409963, 1410579, 1411153, 1411751, 1412362, 1412944, 1413518, 1414044]","[1400378, 1401022, 1401594, 1402231, 1402781, 1403376, 1403991, 1404596, 1405227, 1405843, 1406450, 1407060, 1407660, 1408282, 1408918, 1409492, 1410128, 1410770, 1411351, 1411976, 1412571, 1413154, 1413730, 1414251]","[1400097, 1400696, 1401296, 1401896, 1402497, 1403097, 1403697, 1404296, 1405101, 1405668, 1406309, 1406885, 1407494, 1408117, 1408774, 1409361, 1409988, 1410606, 1411179, 1411777, 1412388, 1412970, 1413543, 1414070]",9,R,ITM,1.1,
2,600,trial,0,74,74,74,trial,"['B', 'S', 'S', 'S', 'S', 'S', 'S', 'S', 'S', 'C', 'C', 'C', 'C', 'C', 'C', 'C', 'C', 'C', 'C', 'C', 'C', 'C', 'C', 'C', 'C']","[1419702, 1420004, 1420513, 1421054, 1421534, 1422103, 1422649, 1423215, 1423734, 1424290, 1424867, 1425381, 1425954, 1426471, 1426990, 1427525, 1428012, 1428603, 1429151, 1429609, 1430092, 1430589, 1431030, 1431556, 1432009]","[1419722, 1420171, 1420678, 1421170, 1421707, 1422270, 1422836, 1423398, 1423968, 1424471, 1425049, 1425581, 1426131, 1426654, 1427177, 1427704, 1428188, 1428752, 1429273, 1429772, 1430250, 1430762, 1431217, 1431695, 1432179]","[1419715, 1420315, 1420914, 1421515, 1422115, 1422714, 1423315, 1423916, 1424317, 1424894, 1425409, 1425982, 1426498, 1427016, 1427552, 1428039, 1428630, 1429179, 1429637, 1430120, 1430616, 1431057, 1431583, 1432037]",9,R,ITM,1.1,
5,600,trial,0,75,75,75,trial,"['S', 'S', 'S', 'S', 'S', 'S', 'S', 'S', 'C', 'C', 'C', 'C', 'C', 'C', 'C', 'C', 'C', 'C', 'C', 'C', 'C', 'C', 'C', 'C']","[1437953, 1438548, 1439151, 1439694, 1440269, 1440850, 1441439, 1442001, 1442622, 1443246, 1443961, 1444553, 1445081, 1445643, 1446231, 1446725, 1447292, 1447817, 1448313, 1448877, 1449376, 1449915, 1450457, 1451022]","[1438125, 1438714, 1439257, 1439818, 1440387, 1440994, 1441582, 1442155, 1442789, 1443446, 1444127, 1444708, 1445266, 1445838, 1446404, 1446950, 1447452, 1448012, 1448535, 1449091, 1449608, 1450107, 1450657, 1451266]","[1437673, 1438272, 1438872, 1439472, 1440072, 1440672, 1441272, 1441872, 1442648, 1443271, 1443987, 1444579, 1445106, 1445668, 1446256, 1446751, 1447318, 1447842, 1448339, 1448902, 1449402, 1449940, 1450482, 1451047]",9,R,ITM,1.1,
6,400,trial,0,76,76,76,trial,"['S', 'S', 'S', 'S', 'S', 'S', 'S', 'S', 'S', 'C', 'C', 'C', 'C', 'C', 'C', 'C', 'C', 'C', 'C', 'C', 'C', 'C', 'C', 'C', 'C']","[1456584, 1457010, 1457284, 1457667, 1458031, 1458377, 1458710, 1459101, 1459449, 1459838, 1460192, 1460632, 1460986, 1461401, 1461781, 1462159, 1462522, 1462872, 1463244, 1463665, 1463989, 1464343, 1464689, 1465040, 1465420]","[1456667, 1457085, 1457395, 1457795, 1458131, 1458487, 1458835, 1459221, 1459577, 1459953, 1460341, 1460773, 1461156, 1461557, 1461910, 1462286, 1462638, 1462996, 1463373, 1463791, 1464137, 1464503, 1464837, 1465193, 1465562]","[1456433, 1456831, 1457231, 1457631, 1458031, 1458432, 1458831, 1459231, 1459864, 1460219, 1460659, 1461013, 1461428, 1461808, 1462187, 1462549, 1462898, 1463271, 1463692, 1464015, 1464370, 1464716, 1465067, 1465448]",9,R,ITM,1.1,
5,400,trial,0,77,77,77,trial,"['S', 'S', 'S', 'S', 'S', 'S', 'S', 'S', 'C', 'C', 'C', 'C', 'C', 'C', 'C', 'C', 'C', 'C', 'C', 'C', 'C', 'C', 'C', 'C']","[1471151, 1471533, 1471945, 1472326, 1472698, 1473125, 1473513, 1473936, 1474344, 1474804, 1475305, 1475660, 1476113, 1476510, 1476904, 1477273, 1477637, 1478110, 1478424, 1478793, 1479188, 1479560, 1479959, 1480354]","[1471272, 1471668, 1472060, 1472459, 1472823, 1473211, 1473603, 1474030, 1474448, 1474905, 1475383, 1475789, 1476240, 1476644, 1477038, 1477423, 1477791, 1478239, 1478599, 1478956, 1479335, 1479709, 1480096, 1480475]","[1470938, 1471337, 1471737, 1472137, 1472537, 1472937, 1473337, 1473737, 1474370, 1474830, 1475331, 1475687, 1476140, 1476537, 1476930, 1477300, 1477662, 1478136, 1478450, 1478819, 1479215, 1479585, 1479985, 1480381]",9,R,ITM,1.1,
6,600,trial,0,78,78,78,trial,"['S', 'S', 'S', 'S', 'S', 'S', 'S', 'S', 'C', 'C', 'C', 'C', 'C', 'C', 'C', 'C', 'C', 'C', 'C', 'C', 'C', 'C', 'C', 'C']","[1485777, 1486198, 1487137, 1487681, 1488314, 1488880, 1489423, 1490050, 1490678, 1491347, 1491951, 1492509, 1493148, 1493666, 1494230, 1494816, 1495647, 1496130, 1496608, 1497060, 1497517, 1498022, 1498473, 1498916]","[1485911, 1486473, 1487225, 1487804, 1488428, 1488997, 1489554, 1490211, 1490845, 1491520, 1492125, 1492704, 1493342, 1493869, 1494455, 1495030, 1495751, 1496239, 1496772, 1497263, 1497742, 1498214, 1498685, 1499089]","[1485770, 1486369, 1486969, 1487569, 1488169, 1488770, 1489370, 1489970, 1490705, 1491374, 1491979, 1492536, 1493175, 1493693, 1494256, 1494843, 1495673, 1496157, 1496635, 1497088, 1497543, 1498049, 1498501, 1498944]",9,R,ITM,1.1,
7,400,trial,0,79,79,79,trial,"['S', 'S', 'S', 'S', 'S', 'S', 'S', 'S', 'C', 'C', 'C', 'C', 'C', 'C', 'C', 'C', 'C', 'C', 'C', 'C', 'C', 'C', 'C', 'C']","[1504756, 1505095, 1505459, 1505823, 1506160, 1506497, 1506868, 1507215, 1507573, 1507968, 1508339, 1508710, 1509089, 1509495, 1509848, 1510201, 1510571, 1510961, 1511334, 1511658, 1511968, 1512348, 1512723, 1513042]","[1504873, 1505205, 1505566, 1505926, 1506286, 1506636, 1507005, 1507368, 1507737, 1508108, 1508469, 1508851, 1509223, 1509622, 1509979, 1510341, 1510712, 1511084, 1511479, 1511814, 1512118, 1512483, 1512850, 1513177]","[1504367, 1504766, 1505166, 1505566, 1505967, 1506366, 1506766, 1507166, 1507600, 1507995, 1508367, 1508738, 1509115, 1509522, 1509875, 1510228, 1510598, 1510988, 1511361, 1511686, 1511996, 1512375, 1512750, 1513069]",9,R,ITM,1.1,
7,600,trial,0,80,80,80,trial,"['S', 'S', 'S', 'S', 'S', 'S', 'S', 'S', 'C', 'C', 'C', 'C', 'C', 'C', 'C', 'C', 'C', 'C', 'C', 'C', 'C', 'C', 'C', 'C']","[1518770, 1519362, 1519967, 1520571, 1521160, 1521754, 1522350, 1522909, 1523480, 1524074, 1524626, 1525211, 1525778, 1526345, 1526962, 1527528, 1528098, 1528719, 1529323, 1529897, 1530482, 1531084, 1531702, 1532211]","[1518828, 1519473, 1520090, 1520675, 1521278, 1521893, 1522460, 1523025, 1523582, 1524222, 1524838, 1525401, 1525939, 1526563, 1527165, 1527718, 1528290, 1528910, 1529504, 1530060, 1530670, 1531240, 1531841, 1532409]","[1518598, 1519197, 1519796, 1520396, 1520996, 1521596, 1522196, 1522796, 1523508, 1524102, 1524654, 1525238, 1525806, 1526373, 1526989, 1527555, 1528125, 1528745, 1529350, 1529924, 1530509, 1531111, 1531728, 1532238]",9,R,ITM,1.1,
5,600,trial,0,81,81,81,trial,"['S', 'S', 'S', 'S', 'S', 'S', 'S', 'S', 'C', 'C', 'C', 'C', 'C', 'C', 'C', 'C', 'C', 'C', 'C', 'C', 'C', 'C', 'C', 'C']","[1538030, 1538642, 1539207, 1539801, 1540390, 1540952, 1541501, 1542087, 1542616, 1543163, 1543773, 1544438, 1544985, 1545567, 1546188, 1546738, 1547282, 1547819, 1548327, 1548866, 1549408, 1549965, 1550502, 1551014]","[1538187, 1538798, 1539351, 1539943, 1540529, 1541102, 1541665, 1542254, 1542818, 1543396, 1543981, 1544619, 1545203, 1545806, 1546413, 1546942, 1547450, 1548013, 1548544, 1549061, 1549628, 1550174, 1550692, 1551200]","[1537813, 1538413, 1539013, 1539613, 1540213, 1540813, 1541413, 1542013, 1542641, 1543189, 1543799, 1544464, 1545011, 1545592, 1546214, 1546764, 1547308, 1547844, 1548353, 1548892, 1549434, 1549990, 1550529, 1551040]",9,R,ITM,1.1,
2,400,trial,0,82,82,82,trial,"['B', 'S', 'S', 'S', 'S', 'S', 'S', 'S', 'S', 'C', 'C', 'C', 'C', 'C', 'C', 'C', 'C', 'C', 'C', 'C', 'C', 'C', 'C', 'C', 'C']","[1556575, 1557025, 1557419, 1557724, 1558098, 1558474, 1558874, 1559242, 1559576, 1559945, 1560338, 1560729, 1561132, 1561529, 1561896, 1562214, 1562551, 1562958, 1563342, 1563757, 1564125, 1564499, 1564868, 1565254, 1565609]","[1556624, 1557193, 1557524, 1557864, 1558224, 1558588, 1558988, 1559364, 1559716, 1560085, 1560494, 1560898, 1561290, 1561675, 1562029, 1562359, 1562684, 1563085, 1563502, 1563892, 1564301, 1564665, 1565047, 1565422, 1565769]","[1556588, 1556988, 1557388, 1557788, 1558189, 1558588, 1558988, 1559388, 1559971, 1560366, 1560757, 1561158, 1561556, 1561923, 1562242, 1562578, 1562985, 1563370, 1563785, 1564152, 1564527, 1564896, 1565282, 1565637]",9,R,ITM,1.1,
7,600,trial,0,83,83,83,trial,"['S', 'S', 'S', 'S', 'S', 'S', 'S', 'S', 'C', 'C', 'C', 'C', 'C', 'C', 'C', 'C', 'C', 'C', 'C', 'C', 'C', 'C', 'C', 'C']","[1571289, 1571968, 1572590, 1573124, 1573701, 1574292, 1574877, 1575442, 1575989, 1576551, 1577185, 1577747, 1578306, 1578822, 1579437, 1580036, 1580677, 1581253, 1581827, 1582382, 1582960, 1583486, 1583975, 1584449]","[1571358, 1572066, 1572684, 1573239, 1573812, 1574439, 1575007, 1575583, 1576164, 1576750, 1577375, 1577907, 1578477, 1579028, 1579632, 1580244, 1580879, 1581421, 1582041, 1582585, 1583145, 1583690, 1584158, 1584607]","[1571131, 1571730, 1572330, 1572930, 1573530, 1574130, 1574730, 1575330, 1576015, 1576578, 1577211, 1577774, 1578334, 1578850, 1579463, 1580063, 1580704, 1581281, 1581854, 1582409, 1582988, 1583513, 1584003, 1584476]",9,R,ITM,1.1,
2,600,trial,0,84,84,84,trial,"['B', 'S', 'S', 'S', 'S', 'S', 'S', 'S', 'S', 'C', 'C', 'C', 'C', 'C', 'C', 'C', 'C', 'C', 'C', 'C', 'C', 'C', 'C', 'C', 'C']","[1589988, 1590417, 1591044, 1591632, 1592151, 1592681, 1593270, 1593824, 1594374, 1594939, 1595554, 1596205, 1596749, 1597440, 1598007, 1598659, 1599269, 1599863, 1600446, 1600980, 1601614, 1602223, 1602841, 1603340, 1603908]","[1590056, 1590649, 1591173, 1591743, 1592267, 1592782, 1593389, 1593929, 1594490, 1595107, 1595753, 1596387, 1596959, 1597613, 1598198, 1598822, 1599443, 1600022, 1600599, 1601141, 1601826, 1602423, 1602968, 1603537, 1604087]","[1590002, 1590601, 1591202, 1591802, 1592402, 1593003, 1593603, 1594202, 1594967, 1595582, 1596232, 1596777, 1597467, 1598034, 1598687, 1599296, 1599891, 1600474, 1601008, 1601642, 1602250, 1602869, 1603367, 1603935]",9,R,ITM,1.1,
3,600,trial,0,85,85,85,trial,"['S', 'S', 'S', 'S', 'S', 'S', 'S', 'S', 'S', 'C', 'C', 'C', 'C', 'C', 'C', 'C', 'C', 'C', 'C', 'C', 'C', 'C', 'C', 'C', 'C']","[1609678, 1610159, 1610579, 1611159, 1611804, 1612227, 1612733, 1613256, 1613843, 1614396, 1614982, 1615593, 1616224, 1616827, 1617432, 1618088, 1618701, 1619335, 1619896, 1620534, 1621100, 1621726, 1622346, 1622854, 1623366]","[1609793, 1610290, 1610757, 1611322, 1611908, 1612385, 1612895, 1613437, 1613986, 1614554, 1615117, 1615754, 1616377, 1616990, 1617624, 1618272, 1618950, 1619529, 1620058, 1620714, 1621296, 1621955, 1622553, 1623033, 1623521]","[1609492, 1610091, 1610691, 1611291, 1611891, 1612491, 1613091, 1613691, 1614422, 1615007, 1615619, 1616249, 1616852, 1617458, 1618114, 1618726, 1619360, 1619921, 1620559, 1621126, 1621751, 1622372, 1622880, 1623392]",9,R,ITM,1.1,
3,600,trial,0,86,86,86,trial,"['B', 'S', 'S', 'S', 'S', 'S', 'S', 'S', 'S', 'C', 'C', 'C', 'C', 'C', 'C', 'C', 'C', 'C', 'C', 'C', 'C', 'C', 'C', 'C', 'C']","[1628939, 1629436, 1629992, 1630484, 1630962, 1631516, 1632065, 1632633, 1633128, 1633601, 1634165, 1634711, 1635234, 1635805, 1636443, 1637015, 1637548, 1638075, 1638665, 1639244, 1639764, 1640310, 1640808, 1641397, 1641890]","[1629071, 1629588, 1630176, 1630636, 1631113, 1631652, 1632211, 1632784, 1633297, 1633792, 1634338, 1634877, 1635440, 1636023, 1636648, 1637176, 1637723, 1638264, 1638858, 1639458, 1639961, 1640500, 1641004, 1641597, 1642072]","[1628951, 1629550, 1630150, 1630750, 1631350, 1631950, 1632550, 1633150, 1633627, 1634191, 1634737, 1635260, 1635830, 1636468, 1637041, 1637573, 1638100, 1638690, 1639270, 1639789, 1640336, 1640834, 1641422, 1641916]",9,R,ITM,1.1,
5,600,trial,0,87,87,87,trial,"['B', 'S', 'S', 'S', 'S', 'S', 'S', 'S', 'C', 'C', 'C', 'C', 'C', 'C', 'C', 'C', 'C', 'C', 'C', 'C', 'C', 'C', 'C', 'C']","[1647329, 1647783, 1648552, 1649261, 1649917, 1650515, 1651093, 1651642, 1652228, 1652878, 1653448, 1654053, 1654630, 1655310, 1655937, 1656515, 1657118, 1657648, 1658283, 1658724, 1659479, 1660034, 1660694, 1661218]","[1647435, 1647940, 1648704, 1649356, 1650009, 1650618, 1651197, 1651763, 1652371, 1653055, 1653620, 1654221, 1654824, 1655489, 1656129, 1656681, 1657299, 1657807, 1658440, 1658927, 1659652, 1660210, 1660849, 1661423]","[1647341, 1647940, 1648540, 1649140, 1649740, 1650340, 1650940, 1651540, 1652254, 1652903, 1653474, 1654079, 1654656, 1655335, 1655963, 1656541, 1657144, 1657673, 1658309, 1658749, 1659504, 1660059, 1660720, 1661244]",9,R,ITM,1.1,
4,600,trial,0,88,88,88,trial,"['S', 'S', 'S', 'S', 'S', 'S', 'S', 'S', 'C', 'C', 'C', 'C', 'C', 'C', 'C', 'C', 'C', 'C', 'C', 'C', 'C', 'C', 'C', 'C']","[1667183, 1667784, 1668324, 1668874, 1669450, 1670011, 1670397, 1670961, 1671479, 1672012, 1672538, 1673123, 1673689, 1674210, 1674816, 1675301, 1675820, 1676382, 1676906, 1677416, 1677961, 1678503, 1679032, 1679504]","[1667273, 1667886, 1668442, 1669010, 1669585, 1670170, 1670615, 1671111, 1671599, 1672169, 1672729, 1673310, 1673865, 1674408, 1674977, 1675469, 1675990, 1676542, 1677069, 1677619, 1678174, 1678674, 1679182, 1679647]","[1667033, 1667633, 1668232, 1668832, 1669432, 1670032, 1670632, 1671232, 1671504, 1672038, 1672563, 1673149, 1673715, 1674235, 1674842, 1675327, 1675845, 1676408, 1676932, 1677442, 1677986, 1678529, 1679057, 1679529]",9,R,ITM,1.1,
5,400,trial,0,89,89,89,trial,"['S', 'S', 'S', 'S', 'S', 'S', 'S', 'S', 'C', 'C', 'C', 'C', 'C', 'C', 'C', 'C', 'C', 'C', 'C', 'C', 'C', 'C', 'C', 'C']","[1685512, 1685921, 1686249, 1686629, 1686989, 1687362, 1687717, 1688057, 1688370, 1688757, 1689133, 1689459, 1689826, 1690220, 1690586, 1690914, 1691760, 1692028, 1692380, 1692733, 1693075, 1693407, 1693721, 1694028]","[1685686, 1686030, 1686378, 1686757, 1687121, 1687489, 1687854, 1688188, 1688525, 1688900, 1689264, 1689605, 1689963, 1690356, 1690722, 1691053, 1691849, 1692148, 1692499, 1692850, 1693199, 1693534, 1693844, 1694137]","[1685158, 1685557, 1685957, 1686358, 1686757, 1687157, 1687558, 1687957, 1688395, 1688783, 1689158, 1689486, 1689851, 1690246, 1690611, 1690940, 1691786, 1692054, 1692405, 1692759, 1693101, 1693433, 1693747, 1694054]",9,R,ITM,1.1,
5,400,trial,0,90,90,90,trial,"['S', 'S', 'S', 'S', 'S', 'S', 'S', 'S', 'C', 'C', 'C', 'C', 'C', 'C', 'C', 'C', 'C', 'C', 'C', 'C', 'C', 'C', 'C', 'C']","[1699824, 1700211, 1700662, 1701017, 1701350, 1701773, 1702153, 1702526, 1702919, 1703280, 1703686, 1704035, 1704385, 1704771, 1705125, 1705457, 1705842, 1706241, 1706602, 1706951, 1707290, 1707644, 1708023, 1708346]","[1699920, 1700326, 1700751, 1701126, 1701483, 1701891, 1702267, 1702649, 1703076, 1703429, 1703819, 1704178, 1704519, 1704894, 1705257, 1705592, 1705965, 1706372, 1706741, 1707087, 1707441, 1707794, 1708151, 1708497]","[1699642, 1700042, 1700443, 1700842, 1701242, 1701642, 1702042, 1702443, 1702945, 1703306, 1703712, 1704060, 1704412, 1704797, 1705152, 1705484, 1705869, 1706266, 1706628, 1706977, 1707316, 1707670, 1708050, 1708371]",9,R,ITM,1.1,
6,400,trial,0,91,91,91,trial,"['B', 'S', 'S', 'S', 'S', 'S', 'S', 'S', 'S', 'C', 'C', 'C', 'C', 'C', 'C', 'C', 'C', 'C', 'C', 'C', 'C', 'C', 'C', 'C', 'C']","[1714059, 1714327, 1714704, 1715102, 1715537, 1715942, 1716323, 1716697, 1717047, 1717438, 1717787, 1718208, 1718628, 1719018, 1719385, 1719789, 1720126, 1720502, 1720914, 1721317, 1721715, 1722068, 1722430, 1722796, 1723156]","[1714126, 1714456, 1714861, 1715243, 1715646, 1716044, 1716458, 1716831, 1717195, 1717586, 1717969, 1718381, 1718767, 1719159, 1719536, 1719933, 1720262, 1720646, 1721072, 1721457, 1721874, 1722230, 1722587, 1722947, 1723314]","[1714072, 1714471, 1714871, 1715271, 1715672, 1716071, 1716471, 1716872, 1717466, 1717815, 1718236, 1718656, 1719045, 1719411, 1719817, 1720154, 1720528, 1720941, 1721344, 1721742, 1722094, 1722457, 1722822, 1723183]",9,R,ITM,1.1,
6,400,trial,0,92,92,92,trial,"['S', 'S', 'S', 'S', 'S', 'S', 'S', 'S', 'C', 'C', 'C', 'C', 'C', 'C', 'C', 'C', 'C', 'C', 'C', 'C', 'C', 'C', 'C', 'C']","[1728568, 1729013, 1729375, 1729656, 1730042, 1730452, 1730872, 1731273, 1731592, 1732027, 1732443, 1732846, 1733242, 1733648, 1734019, 1734413, 1734759, 1735205, 1735615, 1736007, 1736413, 1736798, 1737192, 1737572]","[1728710, 1729152, 1729479, 1729784, 1730181, 1730581, 1730987, 1731382, 1731738, 1732164, 1732573, 1732975, 1733384, 1733781, 1734165, 1734548, 1734915, 1735350, 1735779, 1736152, 1736584, 1736951, 1737337, 1737705]","[1728546, 1728946, 1729345, 1729745, 1730145, 1730545, 1730946, 1731345, 1731619, 1732054, 1732469, 1732874, 1733269, 1733675, 1734046, 1734439, 1734786, 1735232, 1735643, 1736035, 1736439, 1736825, 1737219, 1737600]",9,R,ITM,1.1,
2,600,trial,0,93,93,93,trial,"['S', 'S', 'S', 'S', 'S', 'S', 'S', 'S', 'C', 'C', 'C', 'C', 'C', 'C', 'C', 'C', 'C', 'C', 'C', 'C', 'C', 'C', 'C', 'C']","[1742911, 1743324, 1744182, 1744794, 1745395, 1746004, 1746595, 1747142, 1747806, 1748356, 1749006, 1749649, 1750288, 1750969, 1751608, 1752181, 1752738, 1753358, 1754008, 1754456, 1755130, 1755675, 1756152, 1756704]","[1743029, 1743550, 1744325, 1744952, 1745569, 1746160, 1746746, 1747311, 1747963, 1748539, 1749163, 1749798, 1750494, 1751142, 1751757, 1752368, 1752916, 1753541, 1754140, 1754678, 1755313, 1755852, 1756335, 1756900]","[1742896, 1743496, 1744094, 1744695, 1745295, 1745895, 1746495, 1747095, 1747833, 1748383, 1749033, 1749676, 1750316, 1750995, 1751634, 1752209, 1752765, 1753385, 1754035, 1754483, 1755158, 1755703, 1756179, 1756732]",9,R,ITM,1.1,
6,600,trial,0,94,94,94,trial,"['S', 'S', 'S', 'S', 'S', 'S', 'S', 'S', 'C', 'C', 'C', 'C', 'C', 'C', 'C', 'C', 'C', 'C', 'C', 'C', 'C', 'C', 'C', 'C']","[1762554, 1763052, 1763598, 1764167, 1764758, 1765382, 1765895, 1766516, 1767107, 1767680, 1768233, 1768842, 1769395, 1769979, 1770523, 1771010, 1771588, 1772163, 1772717, 1773223, 1773824, 1774305, 1774840, 1775368]","[1762685, 1763203, 1763759, 1764353, 1764939, 1765541, 1766076, 1766689, 1767267, 1767855, 1768366, 1768954, 1769548, 1770147, 1770668, 1771186, 1771786, 1772310, 1772873, 1773380, 1773992, 1774489, 1774999, 1775533]","[1762408, 1763008, 1763608, 1764208, 1764808, 1765408, 1766008, 1766608, 1767135, 1767706, 1768261, 1768868, 1769421, 1770007, 1770550, 1771036, 1771615, 1772189, 1772744, 1773251, 1773851, 1774332, 1774867, 1775394]",9,R,ITM,1.1,
7,400,trial,0,95,95,95,trial,"['B', 'S', 'S', 'S', 'S', 'S', 'S', 'S', 'S', 'C', 'C', 'C', 'C', 'C', 'C', 'C', 'C', 'C', 'C', 'C', 'C', 'C', 'C', 'C', 'C']","[1780685, 1781203, 1781525, 1781843, 1782212, 1782584, 1782937, 1783296, 1783668, 1784068, 1784402, 1784807, 1785198, 1785618, 1785999, 1786393, 1786733, 1787063, 1787522, 1787890, 1788307, 1788685, 1789084, 1789458, 1789766]","[1780834, 1781341, 1781667, 1781983, 1782350, 1782716, 1783070, 1783433, 1783792, 1784184, 1784549, 1784951, 1785349, 1785754, 1786136, 1786539, 1786878, 1787201, 1787659, 1788039, 1788456, 1788853, 1789235, 1789583, 1789889]","[1780699, 1781097, 1781497, 1781897, 1782297, 1782697, 1783097, 1783497, 1784094, 1784430, 1784835, 1785226, 1785645, 1786025, 1786421, 1786760, 1787090, 1787549, 1787917, 1788334, 1788712, 1789111, 1789485, 1789794]",9,R,ITM,1.1,
3,400,trial,0,96,96,96,trial,"['S', 'S', 'S', 'S', 'S', 'S', 'S', 'S', 'C', 'C', 'C', 'C', 'C', 'C', 'C', 'C', 'C', 'C', 'C', 'C', 'C', 'C', 'C', 'C']","[1795725, 1796096, 1796463, 1796873, 1797277, 1797675, 1798119, 1798465, 1798878, 1799269, 1799629, 1800069, 1800461, 1800859, 1801247, 1801617, 1801972, 1802344, 1802732, 1803087, 1803480, 1803821, 1804164, 1804476]","[1795809, 1796177, 1796548, 1796973, 1797372, 1797761, 1798185, 1798555, 1798964, 1799377, 1799763, 1800211, 1800605, 1800993, 1801362, 1801725, 1802082, 1802481, 1802856, 1803208, 1803594, 1803952, 1804298, 1804598]","[1795508, 1795908, 1796308, 1796708, 1797108, 1797509, 1797908, 1798308, 1798903, 1799294, 1799655, 1800094, 1800486, 1800885, 1801273, 1801643, 1801998, 1802370, 1802758, 1803113, 1803505, 1803846, 1804189, 1804502]",9,R,ITM,1.1,
2,400,trial,0,97,97,97,trial,"['S', 'S', 'S', 'S', 'S', 'S', 'S', 'S', 'S', 'C', 'C', 'C', 'C', 'C', 'C', 'C', 'C', 'C', 'C', 'C', 'C', 'C', 'C', 'C', 'C']","[1810210, 1810568, 1810916, 1811246, 1811588, 1811933, 1812292, 1812672, 1813006, 1813324, 1813743, 1814103, 1814504, 1814875, 1815346, 1815668, 1816036, 1816353, 1816776, 1817154, 1817548, 1817905, 1818259, 1818663, 1819056]","[1810332, 1810714, 1811049, 1811347, 1811699, 1812028, 1812385, 1812744, 1813110, 1813458, 1813865, 1814225, 1814628, 1814995, 1815437, 1815781, 1816145, 1816486, 1816886, 1817281, 1817679, 1818033, 1818403, 1818793, 1819155]","[1810116, 1810516, 1810916, 1811315, 1811717, 1812115, 1812516, 1812915, 1813352, 1813770, 1814130, 1814532, 1814901, 1815373, 1815695, 1816062, 1816381, 1816803, 1817182, 1817576, 1817932, 1818286, 1818690, 1819082]",9,R,ITM,1.1,
3,400,trial,0,98,98,98,trial,"['S', 'S', 'S', 'S', 'S', 'S', 'S', 'S', 'S', 'C', 'C', 'C', 'C', 'C', 'C', 'C', 'C', 'C', 'C', 'C', 'C', 'C', 'C', 'C', 'C']","[1824888, 1825208, 1825537, 1825875, 1826210, 1826587, 1826963, 1827298, 1827697, 1828075, 1828434, 1828868, 1829190, 1829576, 1829959, 1830328, 1830670, 1831044, 1831409, 1831820, 1832185, 1832497, 1832810, 1833156, 1833480]","[1824975, 1825346, 1825657, 1825989, 1826300, 1826673, 1827066, 1827406, 1827809, 1828200, 1828595, 1829012, 1829346, 1829726, 1830114, 1830482, 1830814, 1831213, 1831575, 1831963, 1832310, 1832644, 1832957, 1833289, 1833620]","[1824710, 1825111, 1825510, 1825910, 1826311, 1826711, 1827111, 1827511, 1828101, 1828460, 1828893, 1829216, 1829602, 1829985, 1830353, 1830695, 1831069, 1831435, 1831845, 1832211, 1832522, 1832836, 1833182, 1833505]",9,R,ITM,1.1,
4,400,trial,0,99,99,99,trial,"['B', 'S', 'S', 'S', 'S', 'S', 'S', 'S', 'S', 'C', 'C', 'C', 'C', 'C', 'C', 'C', 'C', 'C', 'C', 'C', 'C', 'C', 'C', 'C', 'C']","[1838948, 1839303, 1839674, 1840027, 1840374, 1840731, 1841062, 1841382, 1841735, 1842115, 1842487, 1842833, 1843250, 1843612, 1843936, 1844274, 1844619, 1845322, 1845605, 1845963, 1846304, 1846654, 1847005, 1847352, 1847690]","[1839067, 1839442, 1839835, 1840203, 1840541, 1840879, 1841222, 1841539, 1841907, 1842288, 1842644, 1843008, 1843396, 1843760, 1844090, 1844438, 1844777, 1845413, 1845750, 1846106, 1846440, 1846812, 1847171, 1847498, 1847842]","[1838960, 1839360, 1839759, 1840159, 1840560, 1840959, 1841359, 1841759, 1842141, 1842512, 1842859, 1843275, 1843639, 1843962, 1844299, 1844644, 1845348, 1845630, 1845989, 1846330, 1846679, 1847030, 1847377, 1847715]",9,R,ITM,1.1,
4,400,trial,0,100,100,100,trial,"['S', 'S', 'S', 'S', 'S', 'S', 'S', 'S', 'C', 'C', 'C', 'C', 'C', 'C', 'C', 'C', 'C', 'C', 'C', 'C', 'C', 'C', 'C', 'C']","[1853370, 1853697, 1854125, 1854536, 1854938, 1855320, 1855694, 1856075, 1856447, 1856831, 1857220, 1857612, 1857989, 1858356, 1858712, 1859069, 1859441, 1859809, 1860188, 1860554, 1860882, 1861225, 1861607, 1861996]","[1853499, 1853886, 1854299, 1854718, 1855119, 1855498, 1855854, 1856239, 1856602, 1856986, 1857401, 1857790, 1858166, 1858539, 1858889, 1859255, 1859620, 1859999, 1860367, 1860697, 1861054, 1861408, 1861812, 1862206]","[1853288, 1853687, 1854087, 1854487, 1854887, 1855287, 1855687, 1856088, 1856473, 1856857, 1857246, 1857638, 1858015, 1858381, 1858738, 1859095, 1859467, 1859834, 1860214, 1860580, 1860908, 1861251, 1861633, 1862022]",9,R,ITM,1.1,
4,600,trial,0,101,101,101,trial,"['B', 'S', 'S', 'S', 'S', 'S', 'S', 'S', 'S', 'C', 'C', 'C', 'C', 'C', 'C', 'C', 'C', 'C', 'C', 'C', 'C', 'C', 'C', 'C', 'C']","[1867650, 1868094, 1868576, 1869169, 1869705, 1870289, 1870827, 1871425, 1871988, 1872570, 1873144, 1873698, 1874245, 1874810, 1875380, 1875972, 1876495, 1877082, 1877658, 1878212, 1878767, 1879347, 1879868, 1880443, 1880931]","[1867709, 1868228, 1868740, 1869323, 1869865, 1870440, 1871005, 1871580, 1872099, 1872744, 1873317, 1873900, 1874461, 1875042, 1875619, 1876176, 1876749, 1877337, 1877877, 1878467, 1878990, 1879549, 1880088, 1880697, 1881160]","[1867662, 1868261, 1868861, 1869461, 1870061, 1870661, 1871261, 1871861, 1872596, 1873170, 1873724, 1874271, 1874836, 1875405, 1875997, 1876520, 1877107, 1877684, 1878238, 1878793, 1879372, 1879894, 1880469, 1880956]",9,R,ITM,1.1,
7,400,trial,0,102,102,102,trial,"['B', 'S', 'S', 'S', 'S', 'S', 'S', 'S', 'S', 'C', 'C', 'C', 'C', 'C', 'C', 'C', 'C', 'C', 'C', 'C', 'C', 'C', 'C', 'C', 'C']","[1886474, 1886776, 1887183, 1887545, 1887947, 1888309, 1888685, 1889063, 1889441, 1889797, 1890205, 1890599, 1890955, 1891345, 1891733, 1892109, 1892456, 1892853, 1893262, 1893658, 1894047, 1894441, 1894780, 1895160, 1895514]","[1886586, 1886948, 1887319, 1887700, 1888088, 1888460, 1888848, 1889224, 1889588, 1889958, 1890381, 1890775, 1891128, 1891513, 1891907, 1892267, 1892609, 1893005, 1893426, 1893810, 1894231, 1894600, 1894951, 1895325, 1895675]","[1886487, 1886886, 1887286, 1887686, 1888087, 1888486, 1888886, 1889287, 1889824, 1890232, 1890626, 1890982, 1891372, 1891760, 1892135, 1892483, 1892880, 1893289, 1893685, 1894075, 1894468, 1894808, 1895188, 1895541]",9,R,ITM,1.1,
6,600,trial,0,103,103,103,trial,"['S', 'S', 'S', 'S', 'S', 'S', 'S', 'S', 'C', 'C', 'C', 'C', 'C', 'C', 'C', 'C', 'C', 'C', 'C', 'C', 'C', 'C', 'C', 'C']","[1901442, 1902155, 1902705, 1903284, 1903876, 1904404, 1905009, 1905603, 1906130, 1906719, 1907289, 1907896, 1908441, 1909017, 1909634, 1910176, 1910763, 1911358, 1911999, 1912565, 1913092, 1913677, 1914271, 1914806]","[1901555, 1902272, 1902865, 1903449, 1904027, 1904564, 1905140, 1905708, 1906279, 1906863, 1907472, 1908056, 1908639, 1909242, 1909854, 1910434, 1910991, 1911614, 1912169, 1912761, 1913311, 1913914, 1914492, 1915045]","[1901220, 1901819, 1902419, 1903020, 1903620, 1904220, 1904819, 1905419, 1906157, 1906746, 1907316, 1907922, 1908467, 1909045, 1909660, 1910203, 1910790, 1911385, 1912027, 1912592, 1913118, 1913704, 1914298, 1914832]",9,R,ITM,1.1,
3,400,trial,0,104,104,104,trial,"['S', 'S', 'S', 'S', 'S', 'S', 'S', 'S', 'C', 'C', 'C', 'C', 'C', 'C', 'C', 'C', 'C', 'C', 'C', 'C', 'C', 'C', 'C', 'C']","[1920570, 1920939, 1921294, 1921700, 1922009, 1922360, 1922679, 1923042, 1923401, 1923769, 1924153, 1924529, 1924900, 1925271, 1925656, 1926026, 1926394, 1926788, 1927196, 1927581, 1927958, 1928343, 1928709, 1929056]","[1920723, 1921036, 1921418, 1921807, 1922146, 1922504, 1922826, 1923184, 1923539, 1923912, 1924287, 1924673, 1925027, 1925413, 1925795, 1926169, 1926550, 1926931, 1927340, 1927732, 1928089, 1928477, 1928848, 1929192]","[1920324, 1920723, 1921123, 1921523, 1921924, 1922323, 1922723, 1923123, 1923427, 1923794, 1924178, 1924554, 1924926, 1925297, 1925682, 1926051, 1926420, 1926813, 1927222, 1927607, 1927984, 1928369, 1928734, 1929081]",9,R,ITM,1.1,
6,400,trial,0,105,105,105,trial,"['S', 'S', 'S', 'S', 'S', 'S', 'S', 'S', 'C', 'C', 'C', 'C', 'C', 'C', 'C', 'C', 'C', 'C', 'C', 'C', 'C', 'C', 'C', 'C']","[1934770, 1935181, 1935525, 1935965, 1936295, 1936711, 1937099, 1937456, 1937874, 1938245, 1938672, 1939048, 1939445, 1939847, 1940222, 1940589, 1940953, 1941377, 1941797, 1942180, 1942561, 1942941, 1943328, 1943675]","[1934909, 1935303, 1935656, 1936071, 1936411, 1936825, 1937236, 1937617, 1938030, 1938410, 1938836, 1939215, 1939610, 1940009, 1940387, 1940751, 1941131, 1941550, 1941936, 1942330, 1942708, 1943086, 1943463, 1943817]","[1934539, 1934939, 1935338, 1935738, 1936138, 1936538, 1936939, 1937338, 1937901, 1938272, 1938700, 1939075, 1939473, 1939874, 1940249, 1940617, 1940979, 1941403, 1941824, 1942207, 1942589, 1942968, 1943355, 1943703]",9,R,ITM,1.1,
6,600,trial,0,106,106,106,trial,"['S', 'S', 'S', 'S', 'S', 'S', 'S', 'S', 'C', 'C', 'C', 'C', 'C', 'C', 'C', 'C', 'C', 'C', 'C', 'C', 'C', 'C', 'C', 'C']","[1949220, 1950073, 1950653, 1951206, 1951766, 1952328, 1952935, 1953507, 1954046, 1954706, 1955251, 1955791, 1956402, 1956965, 1957578, 1958091, 1958721, 1959285, 1959907, 1960508, 1961073, 1961675, 1962240, 1962787]","[1949344, 1950175, 1950781, 1951311, 1951897, 1952462, 1953063, 1953633, 1954219, 1954875, 1955442, 1956040, 1956598, 1957176, 1957738, 1958286, 1958912, 1959526, 1960111, 1960726, 1961317, 1961918, 1962452, 1963032]","[1949171, 1949771, 1950371, 1950971, 1951571, 1952172, 1952772, 1953372, 1954073, 1954734, 1955277, 1955818, 1956428, 1956992, 1957605, 1958119, 1958748, 1959313, 1959933, 1960535, 1961100, 1961703, 1962266, 1962814]",9,R,ITM,1.1,
7,600,trial,0,107,107,107,trial,"['S', 'S', 'S', 'S', 'S', 'S', 'S', 'S', 'C', 'C', 'C', 'C', 'C', 'C', 'C', 'C', 'C', 'C', 'C', 'C', 'C', 'C', 'C', 'C']","[1968451, 1968845, 1969631, 1970342, 1971007, 1971633, 1972218, 1972754, 1973276, 1973889, 1974534, 1975208, 1975852, 1976443, 1976977, 1977606, 1978178, 1978755, 1979389, 1979986, 1980539, 1981123, 1981780, 1982359]","[1968592, 1969017, 1969768, 1970498, 1971127, 1971765, 1972326, 1972855, 1973434, 1974080, 1974725, 1975376, 1976005, 1976610, 1977202, 1977817, 1978411, 1978982, 1979591, 1980183, 1980731, 1981305, 1981984, 1982550]","[1968451, 1969050, 1969650, 1970250, 1970850, 1971450, 1972050, 1972651, 1973303, 1973916, 1974560, 1975236, 1975879, 1976470, 1977005, 1977632, 1978206, 1978782, 1979416, 1980013, 1980567, 1981151, 1981808, 1982386]",9,R,ITM,1.1,
2,400,trial,0,108,108,108,trial,"['S', 'S', 'S', 'S', 'S', 'S', 'S', 'S', 'C', 'C', 'C', 'C', 'C', 'C', 'C', 'C', 'C', 'C', 'C', 'C', 'C', 'C', 'C', 'C']","[1988162, 1988585, 1988962, 1989315, 1989762, 1990140, 1990477, 1990872, 1991214, 1991622, 1992007, 1992408, 1992815, 1993239, 1993616, 1993970, 1994334, 1994762, 1995141, 1995553, 1995988, 1996377, 1996763, 1997140]","[1988320, 1988718, 1989060, 1989443, 1989857, 1990260, 1990632, 1991013, 1991355, 1991769, 1992156, 1992552, 1992968, 1993385, 1993757, 1994115, 1994498, 1994941, 1995304, 1995745, 1996170, 1996566, 1996938, 1997296]","[1987998, 1988399, 1988798, 1989197, 1989599, 1989999, 1990398, 1990798, 1991241, 1991650, 1992035, 1992435, 1992842, 1993266, 1993644, 1993997, 1994360, 1994789, 1995167, 1995581, 1996015, 1996404, 1996790, 1997168]",9,R,ITM,1.1,
3,600,trial,0,109,109,109,trial,"['S', 'S', 'S', 'S', 'S', 'S', 'S', 'S', 'C', 'C', 'C', 'C', 'C', 'C', 'C', 'C', 'C', 'C', 'C', 'C', 'C', 'C', 'C', 'C']","[2002991, 2003420, 2004156, 2004739, 2005396, 2005999, 2006530, 2007081, 2007737, 2008312, 2008945, 2009628, 2010233, 2010786, 2011363, 2011840, 2012556, 2012996, 2013533, 2014084, 2014544, 2015080, 2015536, 2015984]","[2003077, 2003606, 2004298, 2004864, 2005535, 2006134, 2006702, 2007251, 2007886, 2008518, 2009161, 2009801, 2010423, 2010958, 2011545, 2012084, 2012692, 2013197, 2013700, 2014255, 2014748, 2015264, 2015722, 2016212]","[2002816, 2003415, 2004015, 2004615, 2005215, 2005815, 2006415, 2007015, 2007762, 2008339, 2008971, 2009654, 2010259, 2010812, 2011388, 2011866, 2012581, 2013022, 2013558, 2014109, 2014570, 2015106, 2015561, 2016010]",9,R,ITM,1.1,
2,600,trial,0,110,110,110,trial,"['S', 'S', 'S', 'S', 'S', 'S', 'S', 'S', 'C', 'C', 'C', 'C', 'C', 'C', 'C', 'C', 'C', 'C', 'C', 'C', 'C', 'C', 'C', 'C']","[2021379, 2022146, 2022706, 2023236, 2023869, 2024465, 2025037, 2025616, 2026198, 2026773, 2027468, 2028098, 2028703, 2029309, 2029946, 2030533, 2031206, 2031821, 2032452, 2033086, 2033732, 2034184, 2034819, 2035359]","[2021497, 2022268, 2022833, 2023356, 2023965, 2024605, 2025184, 2025749, 2026383, 2027031, 2027676, 2028281, 2028928, 2029542, 2030109, 2030745, 2031390, 2031979, 2032579, 2033207, 2033842, 2034337, 2034974, 2035508]","[2021308, 2021907, 2022508, 2023108, 2023708, 2024307, 2024908, 2025507, 2026225, 2026800, 2027495, 2028125, 2028731, 2029337, 2029974, 2030561, 2031233, 2031849, 2032480, 2033114, 2033760, 2034210, 2034846, 2035386]",9,R,ITM,1.1,
7,600,trial,0,111,111,111,trial,"['S', 'S', 'S', 'S', 'S', 'S', 'S', 'S', 'C', 'C', 'C', 'C', 'C', 'C', 'C', 'C', 'C', 'C', 'C', 'C', 'C', 'C', 'C', 'C']","[2041445, 2042065, 2042648, 2043159, 2043689, 2044270, 2044868, 2045406, 2045970, 2046541, 2047171, 2047775, 2048442, 2049086, 2049742, 2050307, 2050898, 2051567, 2052207, 2052794, 2053402, 2053952, 2054530, 2055085]","[2041563, 2042167, 2042733, 2043262, 2043825, 2044391, 2044981, 2045517, 2046110, 2046725, 2047363, 2047985, 2048635, 2049270, 2049882, 2050469, 2051108, 2051726, 2052328, 2052931, 2053537, 2054097, 2054690, 2055267]","[2041064, 2041663, 2042263, 2042863, 2043463, 2044063, 2044663, 2045263, 2045997, 2046568, 2047198, 2047802, 2048468, 2049114, 2049770, 2050333, 2050925, 2051595, 2052234, 2052820, 2053429, 2053980, 2054556, 2055111]",9,R,ITM,1.1,
4,400,trial,0,112,112,112,trial,"['S', 'S', 'S', 'S', 'S', 'S', 'S', 'S', 'C', 'C', 'C', 'C', 'C', 'C', 'C', 'C', 'C', 'C', 'C', 'C', 'C', 'C', 'C', 'C']","[2060759, 2061299, 2061675, 2062072, 2062475, 2062859, 2063163, 2063503, 2063828, 2064225, 2064616, 2064983, 2065408, 2065774, 2066176, 2066494, 2066831, 2067198, 2067605, 2067959, 2068352, 2068727, 2069096, 2069437]","[2060875, 2061383, 2061753, 2062172, 2062576, 2062969, 2063271, 2063607, 2063942, 2064322, 2064722, 2065098, 2065512, 2065893, 2066266, 2066605, 2066951, 2067312, 2067707, 2068075, 2068475, 2068861, 2069238, 2069545]","[2060746, 2061147, 2061546, 2061946, 2062346, 2062746, 2063147, 2063546, 2063853, 2064250, 2064642, 2065008, 2065433, 2065800, 2066201, 2066520, 2066857, 2067223, 2067631, 2067986, 2068378, 2068753, 2069122, 2069463]",9,R,ITM,1.1,
5,600,trial,0,113,113,113,trial,"['S', 'S', 'S', 'S', 'S', 'S', 'S', 'S', 'C', 'C', 'C', 'C', 'C', 'C', 'C', 'C', 'C', 'C', 'C', 'C', 'C', 'C', 'C', 'C']","[2075236, 2075940, 2076421, 2076986, 2077603, 2078180, 2078742, 2079373, 2079949, 2080540, 2081185, 2081807, 2082429, 2083044, 2083699, 2084192, 2084767, 2085350, 2085857, 2086431, 2087014, 2087548, 2088125, 2088617]","[2075320, 2076027, 2076521, 2077083, 2077691, 2078311, 2078907, 2079491, 2080108, 2080684, 2081340, 2081969, 2082577, 2083208, 2083830, 2084361, 2084927, 2085492, 2086034, 2086590, 2087162, 2087726, 2088276, 2088801]","[2075015, 2075613, 2076213, 2076813, 2077413, 2078013, 2078613, 2079213, 2079975, 2080566, 2081212, 2081832, 2082455, 2083069, 2083725, 2084217, 2084793, 2085376, 2085882, 2086457, 2087040, 2087574, 2088152, 2088643]",9,R,ITM,1.1,
4,600,trial,0,114,114,114,trial,"['S', 'S', 'S', 'S', 'S', 'S', 'S', 'S', 'C', 'C', 'C', 'C', 'C', 'C', 'C', 'C', 'C', 'C', 'C', 'C', 'C', 'C', 'C', 'C']","[2094142, 2094773, 2095299, 2095885, 2096501, 2097058, 2097675, 2098263, 2098865, 2099428, 2100029, 2100643, 2101193, 2101846, 2102376, 2102975, 2103601, 2104276, 2104955, 2105568, 2106196, 2106800, 2107396, 2107947]","[2094195, 2094842, 2095397, 2095981, 2096607, 2097192, 2097782, 2098382, 2098991, 2099587, 2100161, 2100771, 2101370, 2102020, 2102577, 2103161, 2103745, 2104403, 2105083, 2105689, 2106340, 2106952, 2107561, 2108106]","[2093982, 2094582, 2095182, 2095782, 2096382, 2096983, 2097583, 2098183, 2098891, 2099453, 2100055, 2100669, 2101219, 2101871, 2102402, 2103002, 2103627, 2104303, 2104981, 2105593, 2106223, 2106825, 2107421, 2107972]",9,R,ITM,1.1,
6,400,trial,0,115,115,115,trial,"['S', 'S', 'S', 'S', 'S', 'S', 'S', 'S', 'C', 'C', 'C', 'C', 'C', 'C', 'C', 'C', 'C', 'C', 'C', 'C', 'C', 'C', 'C', 'C', 'C', 'C']","[2113669, 2114224, 2114624, 2115033, 2115423, 2115860, 2116195, 2116537, 2116894, 2117301, 2117407, 2117668, 2117776, 2118054, 2118434, 2118792, 2119173, 2119498, 2119835, 2120244, 2120603, 2120948, 2121335, 2121719, 2122089, 2122398]","[2113780, 2114302, 2114697, 2115133, 2115535, 2115949, 2116296, 2116662, 2117023, 2117327, 2117427, 2117696, 2117796, 2118189, 2118568, 2118918, 2119306, 2119640, 2119979, 2120371, 2120742, 2121098, 2121468, 2121870, 2122205, 2122527]","[2113658, 2114057, 2114457, 2114857, 2115257, 2115657, 2116058, 2116457, 2116921, 2117327, 2117695, 2118082, 2118461, 2118819, 2119199, 2119525, 2119862, 2120270, 2120631, 2120975, 2121362, 2121747, 2122116, 2122425]",9,R,ITM,1.1,
5,400,trial,0,116,116,116,trial,"['S', 'S', 'S', 'S', 'S', 'S', 'S', 'S', 'C', 'C', 'C', 'C', 'C', 'C', 'C', 'C', 'C', 'C', 'C', 'C', 'C', 'C', 'C', 'C', 'C', 'C']","[2127915, 2128392, 2128720, 2129184, 2129567, 2129921, 2130306, 2130732, 2131112, 2131494, 2131600, 2131904, 2132316, 2132727, 2133124, 2133515, 2133910, 2134260, 2134681, 2135071, 2135478, 2135583, 2135861, 2136227, 2136577, 2136923]","[2128001, 2128470, 2128814, 2129259, 2129684, 2130069, 2130437, 2130849, 2131245, 2131520, 2131646, 2132083, 2132466, 2132893, 2133298, 2133682, 2134056, 2134424, 2134846, 2135238, 2135503, 2135626, 2136023, 2136382, 2136720, 2137073]","[2127725, 2128125, 2128525, 2128925, 2129326, 2129725, 2130125, 2130525, 2131138, 2131520, 2131930, 2132342, 2132753, 2133150, 2133541, 2133936, 2134286, 2134708, 2135097, 2135503, 2135886, 2136253, 2136602, 2136948]",9,R,ITM,1.1,
2,600,trial,0,117,117,117,trial,"['S', 'S', 'S', 'S', 'S', 'S', 'S', 'S', 'C', 'C', 'C', 'C', 'C', 'C', 'C', 'C', 'C', 'C', 'C', 'C', 'C', 'C', 'C', 'C', 'C', 'C', 'C']","[2142704, 2143457, 2144038, 2144601, 2145187, 2145717, 2146301, 2146882, 2147539, 2148237, 2148792, 2149458, 2150090, 2150198, 2150730, 2151359, 2151981, 2152542, 2152648, 2153190, 2153299, 2153862, 2154485, 2155169, 2155804, 2156440, 2157140]","[2142815, 2143572, 2144131, 2144716, 2145307, 2145853, 2146457, 2147049, 2147714, 2148362, 2148976, 2149647, 2150118, 2150261, 2150921, 2151538, 2152175, 2152568, 2152767, 2153218, 2153432, 2154053, 2154659, 2155379, 2155978, 2156618, 2157300]","[2142518, 2143118, 2143718, 2144318, 2144918, 2145518, 2146118, 2146717, 2147567, 2148263, 2148819, 2149485, 2150118, 2150757, 2151386, 2152007, 2152568, 2153218, 2153889, 2154513, 2155196, 2155831, 2156467, 2157167]",9,R,ITM,1.1,
4,600,trial,0,118,118,118,trial,"['S', 'S', 'S', 'S', 'S', 'S', 'S', 'S', 'C', 'C', 'C', 'C', 'C', 'C', 'C', 'C', 'C', 'C', 'C', 'C', 'C', 'C', 'C', 'C', 'C']","[2163125, 2163851, 2164388, 2164948, 2165497, 2166077, 2166687, 2167310, 2167957, 2168604, 2169323, 2169881, 2170516, 2171174, 2171280, 2171748, 2172386, 2172961, 2173490, 2174007, 2174566, 2175072, 2175636, 2176186, 2176704]","[2163287, 2163998, 2164532, 2165092, 2165650, 2166244, 2166844, 2167449, 2168133, 2168813, 2169518, 2170087, 2170734, 2171200, 2171378, 2171955, 2172589, 2173114, 2173630, 2174187, 2174757, 2175258, 2175825, 2176369, 2176908]","[2162936, 2163535, 2164135, 2164736, 2165336, 2165936, 2166535, 2167135, 2167983, 2168631, 2169349, 2169907, 2170542, 2171200, 2171773, 2172411, 2172988, 2173515, 2174032, 2174592, 2175098, 2175662, 2176211, 2176730]",9,R,ITM,1.1,
7,400,trial,0,119,119,119,trial,"['S', 'S', 'S', 'S', 'S', 'S', 'S', 'C', 'C', 'C', 'C', 'C', 'C', 'C', 'C', 'C', 'C', 'C', 'C', 'C', 'C', 'C', 'C']","[2182724, 2183267, 2183690, 2184075, 2184450, 2184757, 2185099, 2185445, 2185779, 2186228, 2186606, 2187039, 2187445, 2187877, 2188257, 2188669, 2189045, 2189420, 2189848, 2190236, 2190650, 2191068, 2191472]","[2182855, 2183389, 2183806, 2184207, 2184562, 2184882, 2185212, 2185576, 2185911, 2186355, 2186750, 2187160, 2187582, 2188025, 2188417, 2188816, 2189208, 2189588, 2190002, 2190405, 2190817, 2191236, 2191603]","[2182359, 2182757, 2183157, 2183558, 2183957, 2184357, 2184757, 2185157, 2185473, 2185805, 2186256, 2186633, 2187067, 2187472, 2187905, 2188284, 2188696, 2189072, 2189447, 2189875, 2190264, 2190676, 2191095, 2191500]",9,R,ITM,1.1,
2,400,trial,0,120,120,120,trial,"['S', 'S', 'S', 'S', 'S', 'S', 'S', 'S', 'S', 'C', 'C', 'C', 'C', 'C', 'C', 'C', 'C', 'C', 'C', 'C', 'C', 'C', 'C', 'C', 'C']","[2196812, 2197277, 2197644, 2197943, 2198307, 2198659, 2199046, 2199435, 2199798, 2200168, 2200512, 2200922, 2201329, 2201733, 2202065, 2202443, 2202834, 2203213, 2203641, 2204048, 2204456, 2204860, 2205249, 2205622, 2206009]","[2196955, 2197419, 2197758, 2198071, 2198426, 2198780, 2199159, 2199542, 2199919, 2200295, 2200678, 2201096, 2201506, 2201884, 2202251, 2202624, 2203002, 2203387, 2203822, 2204227, 2204647, 2205028, 2205393, 2205797, 2206176]","[2196812, 2197213, 2197612, 2198012, 2198412, 2198812, 2199213, 2199612, 2200195, 2200540, 2200948, 2201356, 2201759, 2202092, 2202471, 2202861, 2203240, 2203668, 2204075, 2204483, 2204888, 2205277, 2205649, 2206035]",9,R,ITM,1.1,
3,400,trial,0,121,121,121,trial,"['S', 'S', 'S', 'S', 'S', 'S', 'S', 'S', 'C', 'C', 'C', 'C', 'C', 'C', 'C', 'C', 'C', 'C', 'C', 'C', 'C', 'C', 'C', 'C', 'C']","[2211904, 2212306, 2212721, 2213056, 2213463, 2213813, 2214213, 2214587, 2214921, 2215286, 2215651, 2216010, 2216385, 2216730, 2217117, 2217493, 2218436, 2218678, 2219070, 2219388, 2219692, 2219981, 2220262, 2220535, 2220827]","[2212014, 2212436, 2212833, 2213187, 2213582, 2213937, 2214289, 2214697, 2215042, 2215422, 2215783, 2216145, 2216514, 2216876, 2217242, 2217601, 2218507, 2218769, 2219190, 2219499, 2219811, 2220104, 2220390, 2220667, 2220956]","[2211742, 2212143, 2212542, 2212942, 2213342, 2213742, 2214142, 2214542, 2214946, 2215312, 2215677, 2216036, 2216411, 2216756, 2217143, 2217519, 2218462, 2219096, 2219414, 2219717, 2220007, 2220288, 2220561, 2220853]",9,R,ITM,1.1,
5,400,trial,0,122,122,122,trial,"['S', 'S', 'S', 'S', 'S', 'S', 'S', 'S', 'C', 'C', 'C', 'C', 'C', 'C', 'C', 'C', 'C', 'C', 'C', 'C', 'C', 'C', 'C', 'C']","[2226514, 2226835, 2227321, 2227717, 2228139, 2228484, 2228927, 2229335, 2229729, 2230107, 2230520, 2230941, 2231304, 2231701, 2232079, 2232411, 2232806, 2233213, 2233611, 2233980, 2234354, 2234720, 2235067, 2235418]","[2226631, 2227006, 2227460, 2227858, 2228256, 2228657, 2229043, 2229430, 2229869, 2230259, 2230678, 2231083, 2231450, 2231840, 2232214, 2232572, 2232953, 2233366, 2233756, 2234127, 2234494, 2234857, 2235194, 2235550]","[2226432, 2226831, 2227231, 2227632, 2228031, 2228431, 2228831, 2229231, 2229754, 2230132, 2230546, 2230967, 2231329, 2231727, 2232104, 2232436, 2232832, 2233240, 2233636, 2234006, 2234381, 2234745, 2235094, 2235444]",9,R,ITM,1.1,
5,600,trial,0,123,123,123,trial,"['B', 'S', 'S', 'S', 'S', 'S', 'S', 'S', 'S', 'C', 'C', 'C', 'C', 'C', 'C', 'C', 'C', 'C', 'C', 'C', 'C', 'C', 'C', 'C', 'C']","[2240811, 2241120, 2241638, 2242199, 2242759, 2243323, 2243826, 2244482, 2245043, 2245626, 2246225, 2246847, 2247437, 2248045, 2248720, 2249284, 2249833, 2250343, 2250989, 2251484, 2252045, 2252628, 2253134, 2253742, 2254339]","[2240894, 2241254, 2241783, 2242358, 2242914, 2243463, 2243998, 2244646, 2245222, 2245818, 2246430, 2247060, 2247641, 2248291, 2248928, 2249508, 2250108, 2250597, 2251138, 2251641, 2252240, 2252851, 2253374, 2253990, 2254546]","[2240823, 2241422, 2242022, 2242622, 2243222, 2243822, 2244422, 2245022, 2245653, 2246251, 2246874, 2247462, 2248071, 2248745, 2249310, 2249859, 2250369, 2251015, 2251509, 2252071, 2252655, 2253160, 2253767, 2254364]",9,R,ITM,1.1,
