octave,ioi,event,.thisRepN,.thisTrialN,.thisN,.thisIndex,event,tap_types,tap_times,release_times,tone_times,subject,handedness,experiment,version,
,,SPR,0,-1,-1,0,SPR,"['P', 'P', 'P', 'P', 'P', 'P', 'P', 'P', 'P', 'P', 'P', 'P', 'P', 'P', 'P', 'P', 'P', 'P', 'P', 'P', 'P', 'P', 'P', 'P', 'P', 'P', 'P', 'P', 'P', 'P']","[32899, 33486, 34191, 34770, 35392, 35998, 36582, 37170, 37734, 38350, 38947, 39524, 39986, 40594, 41123, 41726, 42246, 42760, 43334, 43882, 44445, 45058, 45643, 46214, 46783, 47338, 47893, 48400, 48952, 49569]","[33049, 33646, 34329, 34976, 35550, 36140, 36737, 37314, 37923, 38542, 39109, 39673, 40197, 40731, 41311, 41857, 42456, 42964, 43572, 44105, 44658, 45176, 45773, 46392, 46983, 47523, 48093, 48604, 49150, 49675]",,35,R,ITM,1.1,
7,500,practice,0,0,0,0,practice,"['S', 'S', 'S', 'S', 'S', 'S', 'S', 'C', 'C', 'C', 'C', 'C', 'C', 'C', 'C', 'C', 'C', 'C', 'C', 'C', 'C', 'C', 'C']","[108344, 109025, 109528, 110112, 110630, 111151, 111650, 112165, 112665, 113196, 113693, 114158, 114654, 115158, 115689, 116171, 116619, 117125, 117597, 118114, 118550, 119026, 119504]","[108478, 109163, 109694, 110221, 110736, 111273, 111797, 112301, 112792, 113289, 113818, 114306, 114775, 115282, 115785, 116299, 116775, 117258, 117777, 118206, 118694, 119121, 119639]","[108150, 108649, 109150, 109650, 110150, 110650, 111151, 111650, 112193, 112692, 113223, 113721, 114186, 114681, 115185, 115717, 116199, 116646, 117152, 117623, 118140, 118578, 119053, 119531]",35,R,ITM,1.1,
2,500,practice,0,1,1,1,practice,"['B', 'S', 'S', 'S', 'S', 'S', 'S', 'S', 'S', 'C', 'C', 'C', 'C', 'C', 'C', 'C', 'C', 'C', 'C', 'C', 'C', 'C', 'C', 'C', 'C']","[124903, 125449, 125923, 126377, 126801, 126901, 127323, 127879, 128334, 128849, 129408, 129911, 130413, 130933, 131448, 131963, 132500, 132962, 133415, 133942, 134428, 134907, 135437, 135915, 136418]","[124992, 125550, 126021, 126500, 126821, 126963, 127422, 127981, 128433, 128953, 129499, 129988, 130510, 131013, 131571, 132086, 132616, 133055, 133573, 134032, 134538, 134990, 135524, 135991, 136507]","[124916, 125416, 125917, 126415, 126916, 127416, 127917, 128416, 128876, 129434, 129939, 130440, 130960, 131476, 131991, 132528, 132988, 133443, 133969, 134456, 134934, 135464, 135943, 136444]",35,R,ITM,1.1,
6,500,practice,0,2,2,2,practice,"['S', 'S', 'S', 'S', 'S', 'S', 'C', 'C', 'C', 'C', 'C', 'C', 'C', 'C', 'C', 'C', 'C', 'C', 'C', 'C', 'C', 'C']","[142665, 143508, 144122, 144694, 145326, 145880, 146630, 147149, 147658, 148135, 148665, 149188, 149647, 150207, 150763, 151330, 151787, 152244, 152805, 153461, 154031, 154489]","[142772, 143601, 144247, 144765, 145396, 145933, 146749, 147274, 147844, 148344, 148793, 149288, 149756, 150301, 150867, 151432, 151814, 152338, 152899, 153489, 154085, 154546]","[142210, 142708, 143208, 143709, 144208, 144708, 145208, 145709, 146657, 147176, 147686, 148162, 148691, 149215, 149673, 150234, 150790, 151357, 151814, 152271, 152832, 153489, 154057, 154517]",35,R,ITM,1.1,
3,500,practice,0,3,3,3,practice,"['S', 'S', 'S', 'S', 'S', 'S', 'S', 'C', 'C', 'C', 'C', 'C', 'C', 'C', 'C', 'C', 'C', 'C', 'C', 'C', 'C', 'C', 'C']","[160466, 160909, 161484, 162004, 162493, 162976, 163499, 163957, 164478, 164928, 165515, 166021, 166537, 167061, 167521, 168037, 168555, 169089, 169577, 170116, 170562, 171116, 171612]","[160552, 161033, 161565, 162128, 162616, 163097, 163608, 164070, 164577, 165064, 165629, 166115, 166637, 167155, 167644, 168140, 168657, 169196, 169697, 170212, 170673, 171197, 171703]","[160023, 160523, 161024, 161523, 162023, 162524, 163023, 163523, 163984, 164504, 164954, 165540, 166046, 166562, 167087, 167546, 168062, 168581, 169114, 169603, 170141, 170588, 171142, 171637]",35,R,ITM,1.1,
5,500,practice,0,4,4,4,practice,"['B', 'S', 'S', 'S', 'S', 'S', 'S', 'S', 'C', 'C', 'C', 'C', 'C', 'C', 'C', 'C', 'C', 'C', 'C', 'C', 'C', 'C', 'C', 'C']","[177171, 177684, 178195, 178740, 179227, 179712, 180205, 180687, 181174, 181644, 182193, 182671, 183166, 183648, 184114, 184568, 185056, 185533, 185986, 186479, 187025, 187445, 187915, 188416]","[177278, 177789, 178299, 178825, 179247, 179827, 180332, 180781, 181284, 181762, 182291, 182777, 183267, 183737, 184235, 184677, 185176, 185643, 186087, 186579, 187126, 187555, 188109, 188522]","[177183, 177682, 178183, 178683, 179183, 179683, 180184, 180683, 181199, 181669, 182218, 182696, 183192, 183673, 184140, 184594, 185081, 185559, 186011, 186505, 187051, 187471, 187940, 188442]",35,R,ITM,1.1,
4,500,practice,0,5,5,5,practice,"['S', 'S', 'S', 'S', 'S', 'S', 'S', 'C', 'C', 'C', 'C', 'C', 'C', 'C', 'C', 'C', 'C', 'C', 'C', 'C', 'C', 'C', 'C']","[194551, 195106, 195591, 196108, 196582, 197073, 197540, 198195, 198591, 199077, 199540, 200042, 200517, 200983, 201455, 201993, 202991, 203535, 203985, 204468, 204945, 205371, 205928]","[194707, 195233, 195739, 196241, 196640, 197226, 197664, 198288, 198617, 199164, 199623, 200131, 200627, 201092, 201558, 202092, 203105, 203636, 204102, 204571, 205047, 205511, 206006]","[194200, 194700, 195201, 195700, 196200, 196701, 197201, 197701, 198220, 198617, 199103, 199566, 200068, 200544, 201009, 201481, 202018, 203017, 203560, 204011, 204493, 204971, 205398, 205954]",35,R,ITM,1.1,
5,600,trial,0,6,6,6,trial,"['S', 'S', 'S', 'S', 'S', 'S', 'S', 'S', 'C', 'C', 'C', 'C', 'C', 'C', 'C', 'C', 'C', 'C', 'C', 'C', 'C', 'C', 'C', 'C']","[245486, 246173, 246861, 247561, 248144, 248244, 248727, 249342, 249960, 250520, 251133, 251739, 252379, 252997, 253549, 254132, 254731, 255364, 255929, 256525, 257114, 257667, 258300, 258900]","[245599, 246303, 246966, 247651, 248164, 248264, 248808, 249425, 250011, 250611, 251215, 251798, 252449, 253102, 253651, 254240, 254853, 255439, 256076, 256622, 257221, 257884, 258414, 258989]","[245225, 245824, 246424, 247024, 247624, 248224, 248824, 249424, 249986, 250546, 251159, 251764, 252404, 253023, 253575, 254157, 254757, 255389, 255954, 256551, 257139, 257692, 258326, 258926]",35,R,ITM,1.1,
7,600,trial,0,7,7,7,trial,"['S', 'S', 'S', 'S', 'S', 'S', 'S', 'C', 'C', 'C', 'C', 'C', 'C', 'C', 'C', 'C', 'C', 'C', 'C', 'C', 'C', 'C', 'C', 'C', 'C', 'C', 'C']","[264677, 265420, 266089, 266767, 267382, 267967, 268545, 269120, 269689, 270269, 270804, 270912, 271404, 271954, 272571, 273256, 273786, 273893, 274419, 275103, 275673, 275780, 276287, 276908, 277547, 277654, 278212]","[264839, 265517, 266199, 266844, 267479, 268064, 268674, 269261, 269802, 270381, 270832, 270932, 271540, 272055, 272657, 273285, 273813, 273913, 274505, 275171, 275700, 275808, 276414, 277033, 277574, 277675, 278329]","[264417, 265016, 265616, 266216, 266816, 267416, 268016, 268616, 269147, 269717, 270296, 270831, 271430, 271982, 272599, 273284, 273813, 274447, 275131, 275700, 276314, 276934, 277574, 278239]",35,R,ITM,1.1,
4,400,trial,0,8,8,8,trial,"['S', 'S', 'S', 'S', 'S', 'C', 'C', 'C', 'C', 'C', 'C', 'C', 'C', 'C', 'C', 'C', 'C', 'C', 'C', 'C', 'C']","[284327, 284954, 285588, 286116, 286216, 286796, 287327, 287893, 288466, 288995, 289557, 290219, 290795, 291431, 292060, 292660, 293208, 293778, 294316, 294845, 295340]","[284371, 285050, 285733, 286136, 286301, 286916, 287436, 288015, 288599, 289156, 289658, 290299, 290866, 291507, 292127, 292761, 293332, 293875, 294438, 295034, 295476]","[283683, 284083, 284483, 284883, 285283, 285683, 286084, 286483, 286823, 287352, 287919, 288492, 289020, 289583, 290244, 290821, 291457, 292085, 292685, 293233, 293804, 294342, 294871, 295365]",35,R,ITM,1.1,
2,600,trial,0,9,9,9,trial,"['B', 'S', 'S', 'S', 'S', 'S', 'S', 'S', 'C', 'C', 'C', 'C', 'C', 'C', 'C', 'C', 'C', 'C', 'C', 'C', 'C', 'C', 'C', 'C']","[300715, 301182, 301761, 302382, 302971, 303663, 304254, 304851, 305443, 306025, 306568, 307134, 307667, 308158, 308760, 309297, 310771, 311359, 311958, 312542, 313160, 313758, 314332, 314910]","[300817, 301293, 301890, 302503, 303117, 303775, 304365, 304945, 305542, 306108, 306692, 307221, 307775, 308264, 308855, 309366, 310931, 311484, 312070, 312669, 313251, 313847, 314430, 315009]","[300728, 301327, 301928, 302528, 303128, 303728, 304328, 304927, 305471, 306052, 306595, 307161, 307694, 308186, 308788, 309324, 310798, 311387, 311986, 312569, 313187, 313785, 314359, 314937]",35,R,ITM,1.1,
5,400,trial,0,10,10,10,trial,"['S', 'S', 'S', 'S', 'S', 'S', 'C', 'C', 'C', 'C', 'C', 'C', 'C', 'C', 'C', 'C', 'C', 'C', 'C', 'C', 'C', 'C', 'C', 'C']","[320536, 321034, 321560, 322150, 322735, 322835, 323373, 323936, 324454, 324962, 325427, 325927, 326407, 326925, 327461, 327965, 328456, 329025, 329505, 329611, 330028, 330537, 330643, 331119]","[320669, 321164, 321659, 322301, 322755, 322856, 323477, 324059, 324554, 325056, 325523, 326021, 326432, 326950, 327549, 328087, 328665, 329137, 329531, 329719, 330115, 330563, 330672, 331171]","[320269, 320669, 321070, 321469, 321869, 322269, 322669, 323069, 323398, 323961, 324480, 324987, 325453, 325953, 326432, 326950, 327487, 327991, 328481, 329051, 329531, 330053, 330563, 331145]",35,R,ITM,1.1,
4,600,trial,0,11,11,11,trial,"['S', 'S', 'S', 'S', 'S', 'S', 'S', 'C', 'C', 'C', 'C', 'C', 'C', 'C', 'C', 'C', 'C', 'C', 'C', 'C', 'C', 'C', 'C']","[336838, 337441, 338190, 338813, 339441, 340075, 340640, 341281, 341832, 342430, 342992, 343564, 344174, 344749, 345300, 345858, 346385, 346907, 347458, 347954, 348549, 349019, 349600]","[336948, 337609, 338310, 338969, 339582, 340194, 340810, 341422, 342004, 342562, 343162, 343709, 344258, 344884, 345434, 346007, 346562, 347045, 347637, 348137, 348622, 349138, 349688]","[336634, 337234, 337835, 338435, 339035, 339634, 340234, 340834, 341307, 341858, 342456, 343018, 343589, 344200, 344774, 345326, 345883, 346411, 346933, 347484, 347979, 348574, 349044, 349626]",35,R,ITM,1.1,
5,600,trial,0,12,12,12,trial,"['B', 'S', 'S', 'S', 'S', 'S', 'S', 'S', 'S', 'C', 'C', 'C', 'C', 'C', 'C', 'C', 'C', 'C', 'C', 'C', 'C', 'C', 'C', 'C', 'C']","[355239, 355743, 356282, 356811, 357447, 357999, 358099, 358563, 359199, 359805, 360400, 360962, 361535, 362109, 362685, 363245, 363825, 364358, 364967, 365462, 366004, 366581, 367131, 367657, 368164]","[355331, 355851, 356436, 357005, 357591, 358019, 358188, 358771, 359394, 359934, 360503, 361066, 361681, 362299, 362886, 363426, 364035, 364589, 365076, 365605, 366186, 366793, 367323, 367807, 368349]","[355252, 355851, 356451, 357051, 357651, 358251, 358851, 359451, 359831, 360426, 360987, 361561, 362136, 362711, 363271, 363850, 364384, 364993, 365488, 366030, 366607, 367158, 367682, 368190]",35,R,ITM,1.1,
6,600,trial,0,13,13,13,trial,"['S', 'S', 'S', 'S', 'S', 'S', 'S', 'S', 'C', 'C', 'C', 'C', 'C', 'C', 'C', 'C', 'C', 'C', 'C', 'C', 'C', 'C', 'C', 'C', 'C']","[373732, 374461, 375034, 375681, 376257, 376763, 376863, 377383, 378041, 378710, 379276, 379382, 379825, 380413, 380942, 381489, 381985, 382510, 383067, 383597, 384119, 384684, 385190, 385777, 386366]","[373879, 374562, 375157, 375766, 376375, 376783, 377010, 377604, 378162, 378826, 379302, 379402, 379947, 380521, 381058, 381515, 382085, 382601, 383182, 383754, 384239, 384793, 385308, 385893, 386469]","[373504, 374103, 374703, 375303, 375902, 376502, 377102, 377702, 378067, 378737, 379302, 379852, 380441, 380969, 381515, 382012, 382537, 383094, 383624, 384146, 384711, 385217, 385805, 386393]",35,R,ITM,1.1,
3,600,trial,0,14,14,14,trial,"['S', 'S', 'S', 'S', 'S', 'S', 'S', 'C', 'C', 'C', 'C', 'C', 'C', 'C', 'C', 'C', 'C', 'C', 'C', 'C', 'C', 'C', 'C']","[391928, 392610, 393337, 393861, 394496, 395085, 395739, 396316, 396932, 397524, 398121, 398692, 399246, 399841, 400375, 400952, 401542, 402121, 402703, 403271, 403865, 404438, 404990]","[392089, 392796, 393511, 394147, 394722, 395333, 395908, 396530, 397138, 397802, 398429, 398889, 399595, 400152, 400696, 401290, 401899, 402476, 403097, 403654, 404262, 404723]","[391704, 392303, 392903, 393503, 394103, 394703, 395303, 395904, 396342, 396957, 397550, 398147, 398717, 399271, 399866, 400401, 400977, 401567, 402147, 402728, 403297, 403891, 404463, 405016]",35,R,ITM,1.1,
7,400,trial,0,15,15,15,trial,"['S', 'S', 'S', 'S', 'S', 'C', 'C', 'C', 'C', 'C', 'C', 'C', 'C', 'C', 'C', 'C', 'C', 'C', 'C', 'C', 'C', 'C']","[410787, 411406, 412023, 412611, 413304, 413896, 414564, 415271, 415965, 416584, 417227, 417873, 418508, 418621, 419118, 419736, 420344, 420926, 421552, 422248, 422842, 423412]","[410964, 411527, 412207, 412875, 413522, 414203, 414870, 415579, 416250, 416909, 417547, 418231, 418541, 418731, 419297, 419969, 420641, 421252, 421794, 422480, 423148]","[410531, 410931, 411331, 411731, 412131, 412531, 412932, 413331, 413923, 414590, 415299, 415991, 416611, 417255, 417901, 418536, 419145, 419764, 420371, 420953, 421579, 422275, 422868, 423439]",35,R,ITM,1.1,
3,400,trial,0,16,16,16,trial,"['S', 'S', 'S', 'S', 'S', 'S', 'S', 'S', 'C', 'C', 'C', 'C', 'C', 'C', 'C', 'C', 'C', 'C', 'C', 'C', 'C', 'C', 'C', 'C']","[429347, 429837, 430194, 430600, 431005, 431349, 431812, 432158, 432607, 432977, 433351, 433712, 434086, 434468, 434862, 435237, 435610, 435978, 436372, 436759, 437138, 437472, 437868, 438239]","[429449, 429934, 430295, 430725, 431130, 431514, 431924, 432299, 432716, 433076, 433455, 433825, 434219, 434577, 434958, 435318, 435702, 436103, 436445, 436842, 437245, 437598, 437977, 438346]","[429124, 429524, 429924, 430324, 430725, 431124, 431524, 431924, 432632, 433003, 433377, 433738, 434112, 434494, 434887, 435263, 435636, 436003, 436398, 436785, 437164, 437497, 437894, 438264]",35,R,ITM,1.1,
3,600,trial,0,17,17,17,trial,"['S', 'S', 'S', 'S', 'S', 'S', 'S', 'S', 'C', 'C', 'C', 'C', 'C', 'C', 'C', 'C', 'C', 'C', 'C', 'C', 'C', 'C', 'C', 'C']","[444119, 444748, 445389, 446024, 446655, 446755, 447237, 447899, 448484, 449089, 449640, 450231, 450795, 451356, 451936, 452462, 453018, 453577, 454172, 454696, 455263, 455823, 456378, 456932]","[444200, 444893, 445522, 446208, 446675, 446862, 447414, 448067, 448713, 449232, 449818, 450376, 450921, 451495, 452064, 452599, 453150, 453729, 454298, 454890, 455464, 455969, 456550, 457098]","[443843, 444442, 445042, 445642, 446242, 446842, 447442, 448043, 448509, 449115, 449666, 450256, 450821, 451382, 451961, 452488, 453044, 453603, 454198, 454722, 455288, 455848, 456403, 456957]",35,R,ITM,1.1,
2,600,trial,0,18,18,18,trial,"['S', 'S', 'S', 'S', 'S', 'S', 'S', 'S', 'C', 'C', 'C', 'C', 'C', 'C', 'C', 'C', 'C', 'C', 'C', 'C', 'C', 'C', 'C', 'C']","[466051, 466696, 466796, 467368, 467996, 468590, 469197, 469870, 470474, 471113, 471669, 472210, 472770, 473370, 473907, 474503, 475104, 475667, 476210, 477224, 477727, 478276, 478828, 479308]","[466157, 466716, 466854, 467473, 468149, 468777, 469433, 470055, 470648, 471225, 471822, 472391, 472863, 473459, 474012, 474613, 475267, 475821, 476344, 477322, 477860, 478375, 478935, 479410]","[465777, 466377, 466977, 467576, 468177, 468777, 469377, 469978, 470501, 471141, 471696, 472238, 472798, 473398, 473933, 474529, 475130, 475695, 476237, 477251, 477754, 478304, 478856, 479336]",35,R,ITM,1.1,
7,600,trial,0,19,19,19,trial,"['S', 'S', 'S', 'S', 'S', 'S', 'S', 'S', 'C', 'C', 'C', 'C', 'C', 'C', 'C', 'C', 'C', 'C', 'C', 'C', 'C', 'C', 'C', 'C']","[484802, 485360, 485855, 486459, 487017, 487591, 488155, 488835, 489394, 490006, 490589, 491179, 491778, 492387, 492889, 493484, 494126, 494723, 495269, 495833, 496402, 496935, 497525, 498074]","[484922, 485469, 485993, 486618, 487217, 487802, 488380, 488989, 489621, 490206, 490874, 491498, 492041, 492508, 493099, 493731, 494216, 494856, 495450, 496012, 496515, 497130, 497672, 498203]","[484790, 485389, 485989, 486589, 487189, 487789, 488389, 488989, 489420, 490034, 490616, 491205, 491805, 492414, 492915, 493510, 494152, 494750, 495297, 495860, 496429, 496963, 497552, 498101]",35,R,ITM,1.1,
4,600,trial,0,20,20,20,trial,"['S', 'S', 'S', 'S', 'S', 'S', 'S', 'S', 'S', 'C', 'C', 'C', 'C', 'C', 'C', 'C', 'C', 'C', 'C', 'C', 'C', 'C', 'C', 'C', 'C']","[503909, 504445, 504545, 504914, 505331, 505889, 506454, 507060, 507646, 508248, 508814, 509368, 509978, 510532, 511123, 511655, 512243, 512807, 513336, 513879, 514353, 514912, 515486, 516006, 516514]","[504019, 504465, 504626, 505054, 505588, 506126, 506747, 507198, 507859, 508506, 508987, 509604, 510253, 510887, 511344, 511817, 512391, 512959, 513546, 514103, 514531, 515160, 515713, 516251, 516694]","[503659, 504259, 504859, 505459, 506059, 506659, 507259, 507859, 508273, 508839, 509393, 510004, 510559, 511149, 511681, 512269, 512834, 513361, 513904, 514378, 514937, 515513, 516032, 516540]",35,R,ITM,1.1,
6,400,trial,0,21,21,21,trial,"['S', 'S', 'S', 'S', 'S', 'S', 'S', 'C', 'C', 'C', 'C', 'C', 'C', 'C', 'C', 'C', 'C', 'C', 'C', 'C', 'C', 'C', 'C']","[522272, 522711, 523164, 523568, 524021, 524418, 524830, 525236, 525636, 526035, 526433, 526815, 527254, 527686, 528060, 528470, 528881, 529304, 529727, 530088, 530503, 530935, 531336]","[522409, 522817, 523279, 523726, 524140, 524593, 524969, 525400, 525733, 526145, 526535, 526955, 527334, 527788, 528164, 528600, 528973, 529395, 529814, 530229, 530600, 531043, 531495]","[522047, 522446, 522846, 523246, 523646, 524046, 524446, 524847, 525262, 525663, 526062, 526460, 526841, 527281, 527713, 528087, 528496, 528909, 529331, 529754, 530115, 530530, 530963, 531362]",35,R,ITM,1.1,
5,400,trial,0,22,22,22,trial,"['S', 'S', 'S', 'S', 'S', 'S', 'S', 'C', 'C', 'C', 'C', 'C', 'C', 'C', 'C', 'C', 'C', 'C', 'C', 'C', 'C', 'C', 'C']","[537205, 537610, 537993, 538465, 538852, 539267, 539686, 540087, 540494, 540860, 541250, 541651, 542020, 542391, 542755, 543147, 543490, 543867, 544208, 544617, 544964, 545354, 545713]","[537334, 537758, 538112, 538572, 538977, 539421, 539820, 540213, 540585, 540965, 541330, 541718, 542118, 542491, 542840, 543226, 543571, 543967, 544310, 544706, 545089, 545448, 545785]","[536958, 537358, 537758, 538159, 538558, 538958, 539358, 539758, 540113, 540520, 540886, 541276, 541677, 542046, 542416, 542781, 543172, 543516, 543893, 544234, 544643, 544991, 545380, 545738]",35,R,ITM,1.1,
6,600,trial,0,23,23,23,trial,"['S', 'S', 'S', 'S', 'S', 'S', 'S', 'C', 'C', 'C', 'C', 'C', 'C', 'C', 'C', 'C', 'C', 'C', 'C', 'C', 'C', 'C', 'C']","[551307, 552069, 552732, 553394, 553998, 554637, 555252, 555909, 556452, 557042, 557617, 558175, 558742, 559304, 559859, 560408, 560980, 561459, 561988, 562534, 563081, 563611, 564163]","[551410, 552225, 552857, 553525, 554177, 554756, 555408, 556066, 556691, 557345, 557903, 558533, 559081, 559612, 560159, 560762, 561312, 561765, 562304, 562888, 563417, 563935]","[551105, 551705, 552305, 552905, 553505, 554105, 554705, 555305, 555935, 556479, 557070, 557643, 558201, 558769, 559332, 559887, 560436, 561007, 561485, 562015, 562562, 563107, 563638, 564190]",35,R,ITM,1.1,
7,400,trial,0,24,24,24,trial,"['S', 'S', 'S', 'S', 'S', 'S', 'S', 'S', 'C', 'C', 'C', 'C', 'C', 'C', 'C', 'C', 'C', 'C', 'C', 'C', 'C', 'C', 'C', 'C']","[570170, 570519, 570868, 571177, 571537, 571892, 572304, 572696, 573123, 573509, 573886, 574273, 574647, 575039, 575411, 575769, 576160, 576552, 576931, 577308, 577677, 578060, 578442, 578810]","[570287, 570644, 571048, 571295, 571676, 572077, 572461, 572865, 573217, 573637, 574002, 574397, 574772, 575133, 575502, 575873, 576261, 576640, 577038, 577394, 577789, 578165, 578533, 578915]","[569937, 570336, 570736, 571137, 571536, 571936, 572337, 572736, 573150, 573536, 573913, 574301, 574673, 575066, 575437, 575797, 576188, 576579, 576959, 577335, 577704, 578086, 578469, 578837]",35,R,ITM,1.1,
6,400,trial,0,25,25,25,trial,"['B', 'S', 'S', 'S', 'S', 'S', 'S', 'S', 'S', 'C', 'C', 'C', 'C', 'C', 'C', 'C', 'C', 'C', 'C', 'C', 'C', 'C', 'C', 'C', 'C']","[584564, 584948, 585303, 585694, 586107, 586493, 586593, 586913, 587315, 587701, 588068, 588487, 588855, 589259, 589660, 590019, 590453, 590873, 591219, 591600, 591980, 592343, 592727, 593114, 593471]","[584593, 585047, 585412, 585805, 586198, 586513, 586645, 587002, 587402, 587805, 588140, 588555, 588958, 589377, 589763, 590129, 590536, 590979, 591333, 591736, 592087, 592456, 592860, 593228, 593600]","[584578, 584976, 585376, 585777, 586176, 586576, 586976, 587376, 587728, 588096, 588514, 588882, 589286, 589686, 590046, 590481, 590900, 591247, 591627, 592008, 592369, 592753, 593141, 593498]",35,R,ITM,1.1,
2,400,trial,0,26,26,26,trial,"['S', 'S', 'S', 'S', 'S', 'S', 'S', 'S', 'C', 'C', 'C', 'C', 'C', 'C', 'C', 'C', 'C', 'C', 'C', 'C', 'C', 'C', 'C', 'C']","[599153, 599500, 599780, 600081, 600440, 600849, 601262, 601644, 602056, 602427, 602809, 603190, 603552, 603916, 604295, 604648, 605016, 605401, 605769, 606160, 606515, 606963, 607327, 607711]","[599250, 599555, 599909, 600204, 600569, 600995, 601411, 601809, 602172, 602551, 602884, 603271, 603654, 604019, 604381, 604769, 605090, 605499, 605867, 606264, 606664, 607058, 607426, 607813]","[598919, 599318, 599717, 600117, 600518, 600919, 601318, 601718, 602083, 602454, 602835, 603217, 603579, 603943, 604322, 604675, 605043, 605428, 605796, 606188, 606542, 606990, 607354, 607738]",35,R,ITM,1.1,
3,400,trial,0,27,27,27,trial,"['S', 'S', 'S', 'S', 'S', 'S', 'S', 'C', 'C', 'C', 'C', 'C', 'C', 'C', 'C', 'C', 'C', 'C', 'C', 'C', 'C', 'C', 'C']","[613421, 613760, 614231, 614627, 615055, 615475, 615882, 616224, 616611, 617021, 617364, 617741, 618107, 618501, 618865, 619227, 619598, 619983, 620331, 620694, 621067, 621437, 621765]","[613550, 613871, 614330, 614707, 615149, 615557, 615985, 616330, 616704, 617106, 617478, 617819, 618227, 618594, 618942, 619332, 619696, 620058, 620417, 620768, 621166, 621500, 621886]","[613150, 613550, 613949, 614349, 614749, 615149, 615549, 615949, 616250, 616637, 617047, 617390, 617766, 618133, 618526, 618891, 619252, 619624, 620009, 620356, 620720, 621092, 621463, 621791]",35,R,ITM,1.1,
4,400,trial,0,28,28,28,trial,"['S', 'S', 'S', 'S', 'S', 'S', 'S', 'C', 'C', 'C', 'C', 'C', 'C', 'C', 'C', 'C', 'C', 'C', 'C', 'C', 'C', 'C', 'C']","[627459, 627843, 628242, 628668, 629066, 629491, 629921, 630340, 630710, 631105, 631452, 631838, 632247, 632631, 633020, 633395, 633750, 634156, 634554, 634886, 635254, 635621, 636292]","[627538, 627937, 628361, 628764, 629179, 629611, 630031, 630466, 630811, 631201, 631558, 631964, 632331, 632706, 633113, 633496, 633873, 634223, 634621, 634991, 635339, 635688, 636358]","[627284, 627683, 628083, 628484, 628883, 629283, 629683, 630083, 630366, 630735, 631131, 631478, 631864, 632272, 632657, 633047, 633420, 633777, 634181, 634579, 634911, 635280, 635646, 636317]",35,R,ITM,1.1,
2,400,trial,0,29,29,29,trial,"['S', 'S', 'S', 'S', 'S', 'S', 'S', 'S', 'C', 'C', 'C', 'C', 'C', 'C', 'C', 'C', 'C', 'C', 'C', 'C', 'C', 'C', 'C', 'C']","[642189, 642488, 642818, 643217, 643593, 643993, 644419, 644823, 645235, 645616, 646036, 646404, 646821, 647155, 647601, 648019, 648385, 648764, 649128, 649455, 649867, 650234, 650593, 650977]","[642289, 642589, 642954, 643311, 643694, 644148, 644521, 644916, 645350, 645728, 646145, 646528, 646948, 647292, 647693, 648071, 648477, 648859, 649226, 649594, 649982, 650346, 650706, 651087]","[642072, 642472, 642872, 643272, 643673, 644072, 644472, 644873, 645262, 645643, 646063, 646431, 646849, 647183, 647627, 648046, 648412, 648792, 649155, 649483, 649894, 650262, 650620, 651003]",35,R,ITM,1.1,
3,400,trial,0,30,30,30,trial,"['S', 'S', 'S', 'S', 'S', 'S', 'S', 'S', 'C', 'C', 'C', 'C', 'C', 'C', 'C', 'C', 'C', 'C', 'C', 'C', 'C', 'C', 'C', 'C']","[658174, 658510, 658838, 659182, 659561, 659961, 660327, 660732, 661098, 661502, 661886, 662241, 662647, 663057, 663459, 663839, 664189, 664632, 665021, 665373, 665935, 666260, 666688, 667099]","[658263, 658620, 658981, 659298, 659688, 660060, 660431, 660835, 661208, 661594, 661983, 662342, 662738, 663149, 663537, 663914, 664302, 664728, 665095, 665475, 666012, 666323, 666753, 667156]","[657976, 658375, 658776, 659175, 659575, 659975, 660375, 660775, 661124, 661528, 661912, 662266, 662673, 663083, 663485, 663865, 664215, 664657, 665047, 665399, 665961, 666286, 666714, 667124]",35,R,ITM,1.1,
2,400,trial,0,31,31,31,trial,"['S', 'S', 'S', 'S', 'S', 'S', 'S', 'S', 'C', 'C', 'C', 'C', 'C', 'C', 'C', 'C', 'C', 'C', 'C', 'C', 'C', 'C', 'C', 'C', 'C']","[672954, 673343, 673714, 674149, 674563, 674990, 675368, 675748, 676071, 676486, 676844, 677224, 677585, 678001, 678358, 678721, 679094, 679465, 679858, 680199, 680559, 680935, 681300, 681729, 681950]","[673095, 673476, 673823, 674207, 674647, 675073, 675452, 675852, 676155, 676575, 676947, 677349, 677708, 678099, 678481, 678858, 679231, 679649, 679980, 680315, 680698, 681067, 681393, 681826]","[672736, 673136, 673537, 673936, 674336, 674737, 675136, 675536, 676098, 676513, 676872, 677252, 677612, 678028, 678385, 678749, 679121, 679492, 679884, 680226, 680586, 680962, 681328, 681755]",35,R,ITM,1.1,
5,400,trial,0,32,32,32,trial,"['B', 'S', 'S', 'S', 'S', 'S', 'S', 'S', 'C', 'C', 'C', 'C', 'C', 'C', 'C', 'C', 'C', 'C', 'C', 'C', 'C', 'C', 'C', 'C']","[687082, 687373, 687687, 688180, 688614, 689038, 689468, 689911, 690274, 690646, 691062, 691425, 691828, 692210, 692588, 693003, 693382, 693754, 694147, 694551, 694973, 695352, 695696, 696097]","[687122, 687484, 687834, 688293, 688746, 689130, 689593, 690017, 690381, 690779, 691185, 691561, 691952, 692334, 692767, 693160, 693549, 693894, 694287, 694651, 695063, 695470, 695827, 696209]","[687093, 687494, 687893, 688293, 688693, 689093, 689494, 689893, 690299, 690671, 691088, 691451, 691854, 692236, 692615, 693028, 693407, 693780, 694172, 694577, 695000, 695377, 695723, 696123]",35,R,ITM,1.1,
4,400,trial,0,33,33,33,trial,"['S', 'S', 'S', 'S', 'S', 'S', 'S', 'S', 'C', 'C', 'C', 'C', 'C', 'C', 'C', 'C', 'C', 'C', 'C', 'C', 'C', 'C', 'C', 'C']","[701721, 702092, 702391, 702708, 703054, 703491, 703824, 704204, 704589, 705014, 705372, 705714, 706112, 706500, 706884, 707280, 707654, 708004, 708368, 708751, 709121, 709504, 709846, 710219]","[701829, 702168, 702495, 702799, 703153, 703563, 703922, 704313, 704731, 705106, 705459, 705814, 706202, 706580, 706977, 707378, 707777, 708109, 708496, 708852, 709229, 709576, 709950, 710331]","[701533, 701931, 702331, 702731, 703131, 703532, 703931, 704331, 704615, 705040, 705397, 705739, 706138, 706526, 706910, 707306, 707681, 708030, 708393, 708776, 709146, 709529, 709871, 710245]",35,R,ITM,1.1,
2,600,trial,0,34,34,34,trial,"['S', 'S', 'S', 'S', 'S', 'S', 'S', 'S', 'C', 'C', 'C', 'C', 'C', 'C', 'C', 'C', 'C', 'C', 'C', 'C', 'C', 'C', 'C', 'C']","[715724, 716182, 716613, 717190, 717868, 718495, 719082, 719681, 720270, 720882, 721465, 722062, 722616, 723187, 723743, 724324, 724839, 725420, 725985, 726521, 727083, 727623, 728176, 728733]","[715823, 716273, 716808, 717402, 718176, 718793, 719405, 720009, 720613, 721164, 721755, 722331, 722907, 723481, 724040, 724666, 725175, 725745, 726246, 726820, 727360, 727909, 728469]","[715582, 716182, 716782, 717381, 717982, 718581, 719182, 719782, 720296, 720910, 721491, 722088, 722642, 723215, 723770, 724352, 724867, 725446, 726012, 726549, 727110, 727651, 728204, 728760]",35,R,ITM,1.1,
6,600,trial,0,35,35,35,trial,"['S', 'S', 'S', 'S', 'S', 'S', 'S', 'C', 'C', 'C', 'C', 'C', 'C', 'C', 'C', 'C', 'C', 'C', 'C', 'C', 'C', 'C', 'C']","[734303, 734997, 735719, 736403, 736994, 737654, 738230, 738861, 739489, 740084, 740671, 741263, 741877, 742484, 743070, 743651, 744232, 744791, 745356, 745908, 746508, 747024, 747609]","[734402, 735185, 735907, 736661, 737291, 737944, 738529, 739192, 739818, 740415, 740953, 741557, 742156, 742845, 743424, 743967, 744520, 745113, 745659, 746226, 746856, 747381]","[734104, 734703, 735303, 735903, 736503, 737103, 737703, 738304, 738888, 739516, 740111, 740699, 741291, 741904, 742511, 743097, 743677, 744259, 744818, 745382, 745934, 746534, 747051, 747635]",35,R,ITM,1.1,
7,600,trial,0,36,36,36,trial,"['B', 'S', 'S', 'S', 'S', 'S', 'S', 'S', 'C', 'C', 'C', 'C', 'C', 'C', 'C', 'C', 'C', 'C', 'C', 'C', 'C', 'C', 'C', 'C']","[752937, 753343, 754004, 754665, 755295, 755871, 756436, 757059, 757681, 758258, 758831, 759428, 760019, 760621, 761205, 761780, 762386, 762920, 763495, 764132, 764707, 765284, 765848, 766455]","[753058, 753574, 754279, 754978, 755601, 756168, 756756, 757378, 757943, 758558, 759160, 759720, 760316, 760938, 761463, 762068, 762576, 763230, 763801, 764429, 765028, 765623, 766161]","[752951, 753550, 754150, 754750, 755350, 755950, 756550, 757150, 757707, 758286, 758857, 759454, 760047, 760647, 761232, 761807, 762413, 762947, 763523, 764160, 764734, 765310, 765875, 766483]",35,R,ITM,1.1,
6,600,trial,0,37,37,37,trial,"['S', 'S', 'S', 'S', 'S', 'S', 'S', 'S', 'C', 'C', 'C', 'C', 'C', 'C', 'C', 'C', 'C', 'C', 'C', 'C', 'C', 'C', 'C', 'C']","[772356, 772953, 773325, 773880, 774409, 774984, 775572, 776152, 776766, 777292, 777883, 778481, 779026, 779587, 780183, 780687, 781326, 781900, 782454, 783000, 783529, 784121, 784589, 785175]","[772505, 773055, 773526, 774041, 774584, 775190, 775842, 776474, 776939, 777518, 778124, 778716, 779366, 779895, 780521, 781077, 781582, 782140, 782651, 783268, 783808, 784221, 784763, 785318]","[772168, 772767, 773367, 773967, 774567, 775168, 775768, 776368, 776793, 777319, 777910, 778508, 779053, 779615, 780211, 780715, 781353, 781928, 782482, 783027, 783556, 784148, 784617, 785202]",35,R,ITM,1.1,
2,600,trial,0,38,38,38,trial,"['S', 'S', 'S', 'S', 'S', 'S', 'S', 'C', 'C', 'C', 'C', 'C', 'C', 'C', 'C', 'C', 'C', 'C', 'C', 'C', 'C', 'C', 'C']","[791104, 791818, 792498, 793170, 793707, 794306, 794909, 795564, 796171, 796700, 797231, 797820, 798394, 798949, 799501, 800006, 800606, 801167, 801704, 802252, 802825, 803404, 803959]","[791275, 791964, 792653, 793341, 793957, 794555, 795140, 795742, 796355, 796944, 797485, 798029, 798606, 799179, 799638, 800239, 800823, 801386, 801891, 802541, 803139, 803633, 804173]","[790874, 791474, 792073, 792673, 793273, 793873, 794473, 795073, 795590, 796198, 796728, 797258, 797847, 798420, 798976, 799528, 800032, 800633, 801193, 801731, 802279, 802851, 803431, 803986]",35,R,ITM,1.1,
7,400,trial,0,39,39,39,trial,"['S', 'S', 'S', 'S', 'S', 'S', 'S', 'C', 'C', 'C', 'C', 'C', 'C', 'C', 'C', 'C', 'C', 'C', 'C', 'C', 'C', 'C', 'C']","[809725, 810243, 810618, 811010, 811483, 811852, 812307, 812675, 813080, 813497, 813892, 814313, 814718, 815140, 815540, 815954, 816333, 816752, 817173, 817556, 817940, 818366, 818732]","[809873, 810344, 810712, 811143, 811572, 811998, 812406, 812777, 813152, 813588, 813993, 814410, 814795, 815232, 815643, 816031, 816419, 816845, 817286, 817700, 818081, 818420, 818836]","[809504, 809904, 810303, 810703, 811103, 811503, 811904, 812303, 812701, 813107, 813524, 813919, 814340, 814745, 815168, 815567, 815981, 816361, 816779, 817201, 817583, 817967, 818393, 818759]",35,R,ITM,1.1,
4,400,trial,0,40,40,40,trial,"['S', 'S', 'S', 'S', 'S', 'S', 'S', 'S', 'S', 'S', 'C', 'C', 'C', 'C', 'C', 'C', 'C', 'C', 'C', 'C', 'C', 'C', 'C', 'C', 'C', 'C']","[824468, 824890, 824992, 825312, 825598, 825901, 826219, 826493, 826910, 827248, 827493, 827830, 828235, 828590, 828959, 829347, 829722, 830114, 830479, 830798, 831198, 831555, 831964, 832305, 832663, 833026]","[824570, 824910, 825072, 825411, 825658, 825948, 826310, 826659, 827043, 827381, 827636, 827988, 828335, 828704, 829071, 829437, 829842, 830164, 830560, 830923, 831297, 831664, 832043, 832427, 832756, 833136]","[824300, 824700, 825100, 825500, 825901, 826300, 826700, 827101, 827518, 827855, 828261, 828615, 828985, 829373, 829748, 830140, 830504, 830824, 831223, 831581, 831989, 832330, 832689, 833051]",35,R,ITM,1.1,
6,400,trial,0,41,41,41,trial,"['S', 'S', 'S', 'S', 'S', 'S', 'S', 'C', 'C', 'C', 'C', 'C', 'C', 'C', 'C', 'C', 'C', 'C', 'C', 'C', 'C', 'C', 'C']","[838615, 839119, 839547, 839988, 840350, 840787, 841174, 841570, 841971, 842348, 842757, 843127, 843521, 843896, 844308, 844691, 845068, 845456, 845832, 846175, 846618, 847021, 847381]","[838727, 839235, 839658, 840104, 840501, 840909, 841279, 841656, 842063, 842502, 842863, 843249, 843633, 844011, 844397, 844811, 845153, 845502, 845936, 846284, 846715, 847109, 847488]","[838388, 838788, 839187, 839587, 839987, 840387, 840787, 841187, 841597, 841998, 842375, 842783, 843154, 843547, 843924, 844336, 844719, 845095, 845484, 845859, 846202, 846645, 847048, 847408]",35,R,ITM,1.1,
5,600,trial,0,42,42,42,trial,"['S', 'S', 'S', 'S', 'S', 'S', 'S', 'C', 'C', 'C', 'C', 'C', 'C', 'C', 'C', 'C', 'C', 'C', 'C', 'C', 'C', 'C', 'C']","[855300, 856098, 856736, 857383, 857998, 858611, 859235, 859843, 860386, 860965, 861528, 862105, 862646, 863201, 863775, 864334, 864884, 865455, 866011, 866577, 867045, 867638, 868211]","[855400, 856220, 856850, 857541, 858142, 858851, 859475, 860104, 860687, 861235, 861806, 862391, 862883, 863449, 864062, 864635, 865216, 865743, 866247, 866673, 867218, 867820, 868317]","[855101, 855700, 856300, 856900, 857500, 858100, 858700, 859300, 859870, 860411, 860991, 861553, 862132, 862671, 863226, 863801, 864360, 864910, 865480, 866036, 866603, 867070, 867663, 868237]",35,R,ITM,1.1,
3,600,trial,0,43,43,43,trial,"['S', 'S', 'S', 'S', 'S', 'S', 'S', 'S', 'C', 'C', 'C', 'C', 'C', 'C', 'C', 'C', 'C', 'C', 'C', 'C', 'C', 'C', 'C', 'C']","[873698, 874195, 874696, 875373, 875997, 876624, 877299, 877880, 878449, 879069, 879662, 880208, 880835, 881443, 882031, 882636, 883218, 883775, 884383, 884959, 885460, 886061, 886628, 887160]","[873844, 874336, 874903, 875604, 876278, 876963, 877627, 878156, 878755, 879310, 879955, 880556, 881122, 881756, 882291, 882898, 883526, 884121, 884690, 885213, 885737, 886296, 886884]","[873693, 874291, 874891, 875491, 876091, 876691, 877291, 877891, 878475, 879094, 879687, 880234, 880861, 881469, 882057, 882662, 883244, 883801, 884409, 884984, 885486, 886086, 886653, 887186]",35,R,ITM,1.1,
3,400,trial,0,44,44,44,trial,"['B', 'S', 'S', 'S', 'S', 'S', 'S', 'S', 'C', 'C', 'C', 'C', 'C', 'C', 'C', 'C', 'C', 'C', 'C', 'C', 'C', 'C', 'C', 'C']","[892564, 892950, 893327, 893688, 894106, 894523, 894939, 895322, 895735, 896116, 896487, 896855, 897246, 897653, 897990, 898352, 898775, 899173, 899509, 899907, 900290, 900648, 901024, 901419]","[892653, 893152, 893426, 893819, 894260, 894709, 895124, 895524, 895915, 896268, 896665, 897008, 897377, 897766, 898123, 898486, 898872, 899280, 899677, 900017, 900395, 900811, 901137, 901554]","[892575, 892976, 893375, 893775, 894175, 894575, 894976, 895375, 895761, 896142, 896513, 896880, 897271, 897680, 898016, 898377, 898800, 899198, 899534, 899933, 900316, 900674, 901050, 901444]",35,R,ITM,1.1,
7,600,trial,0,45,45,45,trial,"['B', 'S', 'S', 'S', 'S', 'S', 'S', 'S', 'C', 'C', 'C', 'C', 'C', 'C', 'C', 'C', 'C', 'C', 'C', 'C', 'C', 'C', 'C', 'C']","[907143, 907395, 908069, 908732, 909470, 910063, 910708, 911285, 911908, 912480, 913078, 913665, 914291, 914896, 915489, 916106, 916691, 917301, 917885, 918469, 919057, 919672, 920253, 920866]","[907180, 907498, 908256, 908896, 909635, 910288, 910986, 911581, 912160, 912654, 913355, 913972, 914558, 915133, 915795, 916436, 916958, 917606, 918180, 918777, 919413, 920016, 920614]","[907156, 907755, 908355, 908955, 909555, 910155, 910755, 911355, 911936, 912506, 913104, 913691, 914319, 914923, 915516, 916132, 916718, 917327, 917912, 918497, 919084, 919700, 920281, 920893]",35,R,ITM,1.1,
5,400,trial,0,46,46,46,trial,"['S', 'S', 'S', 'S', 'S', 'S', 'S', 'C', 'C', 'C', 'C', 'C', 'C', 'C', 'C', 'C', 'C', 'C', 'C', 'C', 'C', 'C', 'C']","[926929, 927223, 927553, 928054, 928423, 928867, 929285, 929687, 930054, 930447, 930877, 931240, 931660, 932029, 932397, 932809, 933230, 933606, 934021, 934412, 934807, 935179, 935598]","[927045, 927255, 927656, 928133, 928578, 929000, 929388, 929784, 930126, 930553, 930973, 931331, 931750, 932151, 932532, 932933, 933344, 933765, 934137, 934528, 934924, 935350, 935720]","[926614, 927013, 927413, 927813, 928214, 928613, 929013, 929414, 929713, 930079, 930473, 930903, 931267, 931686, 932055, 932423, 932835, 933257, 933633, 934046, 934437, 934833, 935204, 935623]",35,R,ITM,1.1,
5,600,trial,0,47,47,47,trial,"['S', 'S', 'S', 'S', 'S', 'S', 'S', 'C', 'C', 'C', 'C', 'C', 'C', 'C', 'C', 'C', 'C', 'C', 'C', 'C', 'C', 'C', 'C']","[941472, 942174, 942912, 943549, 944203, 944813, 945394, 946011, 946599, 947195, 947809, 948377, 948938, 949516, 950116, 950705, 951238, 951808, 952360, 952858, 953465, 954021, 954544]","[941609, 942334, 943029, 943707, 944394, 945029, 945639, 946312, 946926, 947550, 948096, 948682, 949280, 949873, 950463, 951053, 951582, 952148, 952577, 953219, 953778, 954286, 954803]","[941306, 941906, 942507, 943107, 943707, 944306, 944906, 945506, 946036, 946625, 947221, 947835, 948403, 948964, 949541, 950141, 950730, 951264, 951834, 952386, 952885, 953492, 954047, 954569]",35,R,ITM,1.1,
3,600,trial,0,48,48,48,trial,"['S', 'S', 'S', 'S', 'S', 'S', 'S', 'S', 'C', 'C', 'C', 'C', 'C', 'C', 'C', 'C', 'C', 'C', 'C', 'C', 'C', 'C', 'C', 'C']","[960320, 960794, 961207, 961766, 962361, 962945, 963515, 964107, 964725, 965316, 965871, 966481, 967058, 967600, 968192, 968757, 969321, 969863, 970380, 970906, 971459, 971983, 972525, 973050]","[960432, 960899, 961372, 961937, 962561, 963116, 963716, 964336, 964929, 965577, 966132, 966714, 967302, 967905, 968462, 969073, 969614, 970036, 970523, 971101, 971661, 972169, 972743, 973293]","[960136, 960735, 961335, 961935, 962535, 963135, 963735, 964335, 964751, 965342, 965897, 966507, 967084, 967625, 968217, 968782, 969347, 969888, 970405, 970932, 971485, 972009, 972551, 973076]",35,R,ITM,1.1,
4,600,trial,0,49,49,49,trial,"['S', 'S', 'S', 'S', 'S', 'S', 'S', 'C', 'C', 'C', 'C', 'C', 'C', 'C', 'C', 'C', 'C', 'C', 'C', 'C', 'C', 'C', 'C']","[978974, 979683, 980280, 980916, 981553, 982169, 982732, 983342, 983955, 984434, 985006, 985547, 986109, 986651, 987155, 987701, 988272, 988795, 989341, 989880, 990454, 990925, 991512]","[979103, 979800, 980446, 981092, 981710, 982319, 982894, 983463, 984051, 984643, 985294, 985885, 986424, 986954, 987508, 988058, 988554, 989083, 989745, 990229, 990794, 991281]","[978810, 979409, 980009, 980610, 981210, 981810, 982410, 983010, 983367, 983981, 984460, 985031, 985573, 986135, 986677, 987181, 987726, 988298, 988821, 989367, 989905, 990480, 990951, 991538]",35,R,ITM,1.1,
4,600,trial,0,50,50,50,trial,"['S', 'S', 'S', 'S', 'S', 'S', 'S', 'S', 'C', 'C', 'C', 'C', 'C', 'C', 'C', 'C', 'C', 'C', 'C', 'C', 'C', 'C', 'C', 'C']","[997113, 997697, 998175, 998650, 999219, 999760, 1000390, 1001032, 1001643, 1002183, 1002798, 1003375, 1003933, 1004528, 1005063, 1005605, 1006149, 1006657, 1007185, 1007713, 1008204, 1008706, 1009165, 1009646]","[997256, 997846, 998316, 998863, 999532, 1000072, 1000736, 1001335, 1001976, 1002565, 1003106, 1003601, 1004169, 1004833, 1005350, 1005851, 1006365, 1006888, 1007394, 1007874, 1008405, 1008857, 1009300, 1009778]","[996951, 997550, 998150, 998749, 999349, 999949, 1000549, 1001149, 1001668, 1002209, 1002824, 1003401, 1003959, 1004555, 1005088, 1005631, 1006176, 1006683, 1007211, 1007738, 1008231, 1008732, 1009190, 1009672]",35,R,ITM,1.1,
2,400,trial,0,51,51,51,trial,"['B', 'S', 'S', 'S', 'S', 'S', 'S', 'S', 'C', 'C', 'C', 'C', 'C', 'C', 'C', 'C', 'C', 'C', 'C', 'C', 'C', 'C', 'C', 'C']","[1015317, 1015736, 1016084, 1016433, 1016855, 1017268, 1017678, 1018081, 1018501, 1018890, 1019278, 1019698, 1020079, 1020486, 1020923, 1021298, 1021672, 1022100, 1022490, 1022860, 1023221, 1023648, 1024024, 1024393]","[1015453, 1015879, 1016205, 1016624, 1017089, 1017469, 1017847, 1018278, 1018653, 1019034, 1019414, 1019814, 1020218, 1020616, 1021026, 1021413, 1021816, 1022202, 1022601, 1023007, 1023408, 1023755, 1024149, 1024557]","[1015330, 1015731, 1016130, 1016530, 1016930, 1017330, 1017731, 1018130, 1018528, 1018916, 1019305, 1019725, 1020106, 1020513, 1020950, 1021326, 1021700, 1022127, 1022517, 1022886, 1023249, 1023676, 1024052, 1024419]",35,R,ITM,1.1,
7,400,trial,0,52,52,52,trial,"['S', 'S', 'S', 'S', 'S', 'S', 'S', 'S', 'C', 'C', 'C', 'C', 'C', 'C', 'C', 'C', 'C', 'C', 'C', 'C', 'C', 'C', 'C', 'C']","[1030312, 1030707, 1030957, 1031308, 1031708, 1032140, 1032527, 1032950, 1033368, 1033779, 1034171, 1034588, 1034980, 1035386, 1035787, 1036199, 1036608, 1036994, 1037387, 1037776, 1038146, 1038555, 1038956, 1039369]","[1030439, 1030791, 1031104, 1031482, 1031886, 1032289, 1032739, 1033140, 1033541, 1033960, 1034356, 1034767, 1035138, 1035533, 1035901, 1036368, 1036743, 1037138, 1037522, 1037906, 1038298, 1038693, 1039074, 1039466]","[1030141, 1030540, 1030940, 1031341, 1031740, 1032140, 1032541, 1032940, 1033395, 1033805, 1034199, 1034614, 1035008, 1035414, 1035813, 1036226, 1036635, 1037022, 1037415, 1037803, 1038173, 1038581, 1038983, 1039395]",35,R,ITM,1.1,
6,400,trial,0,53,53,53,trial,"['B', 'S', 'S', 'S', 'S', 'S', 'S', 'S', 'C', 'C', 'C', 'C', 'C', 'C', 'C', 'C', 'C', 'C', 'C', 'C', 'C', 'C', 'C', 'C']","[1044779, 1045128, 1045523, 1045924, 1046321, 1046755, 1047161, 1047540, 1047979, 1048401, 1048770, 1049174, 1049549, 1049944, 1050351, 1050735, 1051145, 1051538, 1051868, 1052270, 1052676, 1053049, 1053447, 1053778]","[1044880, 1045251, 1045695, 1046081, 1046478, 1046840, 1047284, 1047706, 1048099, 1048465, 1048841, 1049260, 1049682, 1050047, 1050454, 1050857, 1051231, 1051630, 1052079, 1052401, 1052809, 1053177, 1053544, 1053881]","[1044792, 1045191, 1045592, 1045991, 1046391, 1046792, 1047192, 1047592, 1048005, 1048429, 1048797, 1049200, 1049577, 1049971, 1050378, 1050763, 1051171, 1051565, 1051895, 1052298, 1052702, 1053076, 1053474, 1053805]",35,R,ITM,1.1,
4,400,trial,0,54,54,54,trial,"['B', 'S', 'S', 'S', 'S', 'S', 'S', 'S', 'C', 'C', 'C', 'C', 'C', 'C', 'C', 'C', 'C', 'C', 'C', 'C', 'C', 'C', 'C', 'C']","[1063198, 1063447, 1063882, 1064278, 1064678, 1065077, 1065504, 1065916, 1066319, 1066730, 1067131, 1067518, 1067907, 1068316, 1068722, 1069126, 1069494, 1069857, 1070224, 1070613, 1070970, 1071362, 1071712, 1072094]","[1063218, 1063546, 1064015, 1064386, 1064818, 1065191, 1065629, 1066009, 1066450, 1066835, 1067234, 1067626, 1068004, 1068399, 1068830, 1069200, 1069595, 1069961, 1070327, 1070712, 1071071, 1071458, 1071819, 1072193]","[1063211, 1063609, 1064009, 1064410, 1064809, 1065209, 1065609, 1066009, 1066345, 1066756, 1067157, 1067544, 1067932, 1068343, 1068748, 1069152, 1069519, 1069883, 1070249, 1070640, 1070997, 1071387, 1071737, 1072119]",35,R,ITM,1.1,
2,400,trial,0,55,55,55,trial,"['S', 'S', 'S', 'S', 'S', 'S', 'S', 'S', 'C', 'C', 'C', 'C', 'C', 'C', 'C', 'C', 'C', 'C', 'C', 'C', 'C', 'C', 'C', 'C']","[1077801, 1078123, 1078364, 1078690, 1079095, 1079464, 1079887, 1080322, 1080704, 1081058, 1081488, 1081812, 1082217, 1082597, 1082980, 1083373, 1083746, 1084094, 1084486, 1084875, 1085240, 1085616, 1085979, 1086372]","[1077910, 1078198, 1078486, 1078839, 1079240, 1079652, 1080049, 1080441, 1080833, 1081188, 1081601, 1081957, 1082330, 1082721, 1083126, 1083491, 1083873, 1084230, 1084608, 1084968, 1085362, 1085711, 1086068, 1086461]","[1077563, 1077962, 1078364, 1078763, 1079163, 1079563, 1079963, 1080363, 1080731, 1081084, 1081515, 1081840, 1082245, 1082624, 1083008, 1083400, 1083773, 1084122, 1084514, 1084902, 1085267, 1085643, 1086007, 1086399]",35,R,ITM,1.1,
4,600,trial,0,56,56,56,trial,"['B', 'S', 'S', 'S', 'S', 'S', 'S', 'S', 'C', 'C', 'C', 'C', 'C', 'C', 'C', 'C', 'C', 'C', 'C', 'C', 'C', 'C', 'C', 'C']","[1091830, 1092133, 1092836, 1093437, 1094016, 1094634, 1095250, 1095870, 1096462, 1097066, 1097667, 1098277, 1098871, 1099430, 1100034, 1100552, 1101167, 1101751, 1102350, 1102918, 1103515, 1104128, 1104722, 1105291]","[1091853, 1092239, 1093004, 1093603, 1094242, 1094810, 1095426, 1096056, 1096706, 1097264, 1097883, 1098513, 1099130, 1099750, 1100397, 1100994, 1101534, 1102097, 1102690, 1103269, 1103880, 1104458, 1105003]","[1091842, 1092442, 1093042, 1093642, 1094242, 1094842, 1095442, 1096042, 1096487, 1097093, 1097693, 1098303, 1098898, 1099456, 1100059, 1100577, 1101193, 1101776, 1102375, 1102945, 1103541, 1104153, 1104748, 1105316]",35,R,ITM,1.1,
3,400,trial,0,57,57,57,trial,"['S', 'S', 'S', 'S', 'S', 'S', 'S', 'S', 'C', 'C', 'C', 'C', 'C', 'C', 'C', 'C', 'C', 'C', 'C', 'C', 'C', 'C', 'C', 'C']","[1110841, 1111236, 1111534, 1111820, 1112174, 1112561, 1112986, 1113398, 1113822, 1114228, 1114615, 1115002, 1115398, 1115764, 1116150, 1116522, 1116916, 1117306, 1117635, 1118050, 1118420, 1118795, 1119155, 1119482]","[1111027, 1111336, 1111675, 1111975, 1112349, 1112731, 1113118, 1113552, 1113968, 1114360, 1114734, 1115196, 1115551, 1115913, 1116263, 1116646, 1116996, 1117396, 1117749, 1118169, 1118524, 1118919, 1119277, 1119625]","[1110663, 1111063, 1111463, 1111863, 1112263, 1112664, 1113063, 1113463, 1113847, 1114254, 1114641, 1115028, 1115423, 1115791, 1116176, 1116548, 1116942, 1117332, 1117661, 1118075, 1118446, 1118821, 1119180, 1119508]",35,R,ITM,1.1,
6,600,trial,0,58,58,58,trial,"['S', 'S', 'S', 'S', 'S', 'S', 'S', 'S', 'C', 'C', 'C', 'C', 'C', 'C', 'C', 'C', 'C', 'C', 'C', 'C', 'C', 'C', 'C', 'C']","[1125297, 1125646, 1126323, 1126956, 1127621, 1128231, 1128848, 1129461, 1130012, 1130598, 1131166, 1131745, 1132272, 1132824, 1133396, 1133882, 1134448, 1134965, 1135580, 1136090, 1136623, 1137179, 1137736, 1138235]","[1125413, 1126028, 1126778, 1127444, 1128007, 1128557, 1129097, 1129702, 1130341, 1130896, 1131415, 1131999, 1132516, 1133127, 1133600, 1134186, 1134625, 1135228, 1135777, 1136293, 1136829, 1137420, 1137908, 1138413]","[1125261, 1125861, 1126461, 1127061, 1127661, 1128261, 1128861, 1129461, 1130040, 1130626, 1131194, 1131771, 1132300, 1132852, 1133423, 1133908, 1134476, 1134992, 1135607, 1136116, 1136651, 1137206, 1137763, 1138262]",35,R,ITM,1.1,
7,600,trial,0,59,59,59,trial,"['S', 'S', 'S', 'S', 'S', 'S', 'S', 'C', 'C', 'C', 'C', 'C', 'C', 'C', 'C', 'C', 'C', 'C', 'C', 'C', 'C', 'C', 'C']","[1144058, 1144761, 1145430, 1146085, 1146712, 1147333, 1147984, 1148590, 1149191, 1149779, 1150398, 1150983, 1151556, 1152111, 1152730, 1153328, 1153945, 1154543, 1155143, 1155702, 1156302, 1156899, 1157567]","[1144179, 1144927, 1145598, 1146316, 1146991, 1147626, 1148317, 1148905, 1149552, 1150120, 1150706, 1151298, 1151796, 1152431, 1153039, 1153667, 1154259, 1154816, 1155398, 1155851, 1156499, 1157102, 1157788]","[1143828, 1144427, 1145027, 1145627, 1146227, 1146827, 1147427, 1148027, 1148616, 1149217, 1149806, 1150425, 1151009, 1151584, 1152138, 1152756, 1153354, 1153972, 1154570, 1155171, 1155730, 1156329, 1156926, 1157595]",35,R,ITM,1.1,
6,600,trial,0,60,60,60,trial,"['B', 'S', 'S', 'S', 'S', 'S', 'S', 'S', 'C', 'C', 'C', 'C', 'C', 'C', 'C', 'C', 'C', 'C', 'C', 'C', 'C', 'C', 'C', 'C']","[1163264, 1163701, 1164355, 1165005, 1165597, 1166221, 1166801, 1167405, 1167974, 1168544, 1169141, 1169727, 1170275, 1170890, 1171448, 1172031, 1172648, 1173209, 1173765, 1174324, 1174866, 1175388, 1175949, 1176486]","[1163418, 1164066, 1164703, 1165357, 1165957, 1166543, 1167175, 1167770, 1168380, 1168941, 1169504, 1170029, 1170646, 1171232, 1171818, 1172416, 1173021, 1173566, 1174137, 1174635, 1175146, 1175761, 1176263]","[1163277, 1163876, 1164476, 1165076, 1165676, 1166276, 1166876, 1167476, 1168002, 1168571, 1169169, 1169755, 1170301, 1170918, 1171475, 1172058, 1172675, 1173235, 1173791, 1174350, 1174894, 1175415, 1175975, 1176513]",35,R,ITM,1.1,
6,400,trial,0,61,61,61,trial,"['S', 'S', 'S', 'S', 'S', 'S', 'S', 'C', 'C', 'C', 'C', 'C', 'C', 'C', 'C', 'C', 'C', 'C', 'C', 'C', 'C', 'C', 'C']","[1182285, 1182774, 1183174, 1183588, 1183990, 1184372, 1184806, 1185208, 1185582, 1185990, 1186384, 1186779, 1187204, 1187601, 1188013, 1188406, 1188777, 1189148, 1189559, 1189960, 1190335, 1190716, 1191123]","[1182461, 1182893, 1183337, 1183750, 1184181, 1184543, 1184963, 1185383, 1185796, 1186138, 1186524, 1186909, 1187294, 1187725, 1188129, 1188527, 1188913, 1189310, 1189677, 1190096, 1190493, 1190898, 1191262]","[1182090, 1182489, 1182889, 1183289, 1183689, 1184090, 1184489, 1184889, 1185234, 1185609, 1186018, 1186411, 1186806, 1187230, 1187629, 1188039, 1188432, 1188805, 1189175, 1189585, 1189987, 1190363, 1190743, 1191150]",35,R,ITM,1.1,
7,400,trial,0,62,62,62,trial,"['S', 'S', 'S', 'S', 'S', 'S', 'S', 'S', 'C', 'C', 'C', 'C', 'C', 'C', 'C', 'C', 'C', 'C', 'C', 'C', 'C', 'C', 'C', 'C']","[1196659, 1197046, 1197417, 1197833, 1198259, 1198659, 1199037, 1199425, 1199835, 1200237, 1200628, 1201008, 1201410, 1201785, 1202174, 1202582, 1202998, 1203368, 1203761, 1204145, 1204523, 1204905, 1205347, 1205714]","[1196852, 1197212, 1197629, 1198003, 1198411, 1198808, 1199225, 1199590, 1200006, 1200362, 1200780, 1201187, 1201550, 1201976, 1202328, 1202703, 1203130, 1203536, 1203906, 1204297, 1204676, 1205032, 1205469, 1205913]","[1196659, 1197059, 1197458, 1197858, 1198259, 1198659, 1199059, 1199459, 1199861, 1200264, 1200655, 1201036, 1201437, 1201813, 1202202, 1202609, 1203024, 1203396, 1203787, 1204171, 1204550, 1204932, 1205373, 1205742]",35,R,ITM,1.1,
2,600,trial,0,63,63,63,trial,"['B', 'S', 'S', 'S', 'S', 'S', 'S', 'S', 'C', 'C', 'C', 'C', 'C', 'C', 'C', 'C', 'C', 'C', 'C', 'C', 'C', 'C', 'C', 'C']","[1211292, 1211638, 1212286, 1212968, 1213598, 1214195, 1214811, 1215418, 1216055, 1216644, 1217209, 1217753, 1218332, 1218904, 1219416, 1219976, 1220537, 1221071, 1221614, 1222116, 1222700, 1223234, 1223777, 1224285]","[1211394, 1211931, 1212657, 1213316, 1213917, 1214499, 1215087, 1215742, 1216392, 1216949, 1217502, 1218065, 1218689, 1219172, 1219734, 1220312, 1220893, 1221410, 1221870, 1222455, 1223042, 1223555, 1224082]","[1211305, 1211906, 1212506, 1213106, 1213705, 1214304, 1214904, 1215505, 1216082, 1216671, 1217236, 1217780, 1218360, 1218930, 1219442, 1220003, 1220563, 1221099, 1221642, 1222142, 1222727, 1223262, 1223804, 1224311]",35,R,ITM,1.1,
4,400,trial,0,64,64,64,trial,"['B', 'S', 'S', 'S', 'S', 'S', 'S', 'S', 'C', 'C', 'C', 'C', 'C', 'C', 'C', 'C', 'C', 'C', 'C', 'C', 'C', 'C', 'C', 'C']","[1229729, 1230052, 1230477, 1230856, 1231268, 1231687, 1232141, 1232513, 1232890, 1233256, 1233656, 1234063, 1234449, 1234851, 1235224, 1235602, 1235987, 1236381, 1236748, 1237116, 1237540, 1237946, 1238311, 1238717]","[1229824, 1230291, 1230611, 1231023, 1231420, 1231831, 1232273, 1232642, 1233027, 1233408, 1233823, 1234222, 1234616, 1234998, 1235379, 1235822, 1236214, 1236538, 1236891, 1237275, 1237687, 1238071, 1238466, 1238891]","[1229742, 1230140, 1230540, 1230941, 1231341, 1231741, 1232141, 1232541, 1232916, 1233282, 1233683, 1234088, 1234475, 1234877, 1235250, 1235628, 1236013, 1236407, 1236773, 1237142, 1237566, 1237971, 1238337, 1238743]",35,R,ITM,1.1,
3,600,trial,0,65,65,65,trial,"['B', 'S', 'S', 'S', 'S', 'S', 'S', 'S', 'S', 'C', 'C', 'C', 'C', 'C', 'C', 'C', 'C', 'C', 'C', 'C', 'C', 'C', 'C', 'C', 'C']","[1244260, 1244654, 1244875, 1245282, 1245914, 1246501, 1247112, 1247694, 1248297, 1248903, 1249486, 1250104, 1250693, 1251263, 1251830, 1252412, 1252971, 1253526, 1254085, 1254668, 1255216, 1255709, 1256331, 1256840, 1257415]","[1244440, 1244795, 1244896, 1245533, 1246177, 1246785, 1247343, 1248030, 1248687, 1249298, 1249847, 1250437, 1250970, 1251585, 1252182, 1252759, 1253327, 1253895, 1254503, 1254990, 1255414, 1256047, 1256617, 1257184]","[1244271, 1244871, 1245471, 1246071, 1246671, 1247271, 1247872, 1248472, 1248928, 1249512, 1250129, 1250718, 1251289, 1251856, 1252438, 1252997, 1253552, 1254111, 1254693, 1255241, 1255735, 1256356, 1256865, 1257441]",35,R,ITM,1.1,
7,400,trial,0,66,66,66,trial,"['B', 'S', 'S', 'S', 'S', 'S', 'S', 'S', 'C', 'C', 'C', 'C', 'C', 'C', 'C', 'C', 'C', 'C', 'C', 'C', 'C', 'C', 'C', 'C']","[1262928, 1263262, 1263657, 1264018, 1264450, 1264849, 1265308, 1265678, 1266082, 1266460, 1266867, 1267248, 1267642, 1268041, 1268417, 1268812, 1269217, 1269590, 1269995, 1270354, 1270756, 1271170, 1271514, 1271934]","[1262948, 1263441, 1263796, 1264200, 1264576, 1264993, 1265417, 1265814, 1266216, 1266574, 1266983, 1267361, 1267746, 1268141, 1268553, 1268956, 1269364, 1269712, 1270120, 1270502, 1270865, 1271264, 1271617, 1272027]","[1262942, 1263340, 1263740, 1264140, 1264540, 1264941, 1265340, 1265740, 1266110, 1266487, 1266894, 1267274, 1267670, 1268069, 1268445, 1268839, 1269243, 1269617, 1270022, 1270382, 1270784, 1271196, 1271540, 1271961]",35,R,ITM,1.1,
3,400,trial,0,67,67,67,trial,"['B', 'S', 'S', 'S', 'S', 'S', 'S', 'S', 'C', 'C', 'C', 'C', 'C', 'C', 'C', 'C', 'C', 'C', 'C', 'C', 'C', 'C', 'C', 'C']","[1277526, 1277855, 1278195, 1278611, 1279010, 1279454, 1279842, 1280285, 1280699, 1281080, 1281420, 1281819, 1282209, 1282557, 1282967, 1283349, 1283759, 1284177, 1284547, 1284926, 1285274, 1285671, 1286030, 1286385]","[1277589, 1277967, 1278346, 1278759, 1279170, 1279571, 1280020, 1280375, 1280777, 1281183, 1281581, 1281938, 1282342, 1282728, 1283105, 1283527, 1283890, 1284303, 1284676, 1285061, 1285434, 1285795, 1286162, 1286520]","[1277538, 1277937, 1278338, 1278737, 1279137, 1279538, 1279938, 1280338, 1280726, 1281105, 1281445, 1281845, 1282235, 1282583, 1282993, 1283375, 1283784, 1284203, 1284573, 1284952, 1285300, 1285697, 1286055, 1286411]",35,R,ITM,1.1,
5,600,trial,0,68,68,68,trial,"['B', 'S', 'S', 'S', 'S', 'S', 'S', 'S', 'C', 'C', 'C', 'C', 'C', 'C', 'C', 'C', 'C', 'C', 'C', 'C', 'C', 'C', 'C', 'C']","[1291945, 1292316, 1293009, 1293645, 1294283, 1294870, 1295503, 1296083, 1296672, 1297271, 1297839, 1298351, 1298938, 1299504, 1300056, 1300631, 1301183, 1301711, 1302276, 1302839, 1303433, 1303959, 1304468, 1305064]","[1292071, 1292705, 1293445, 1293985, 1294605, 1295254, 1295857, 1296443, 1297036, 1297575, 1298189, 1298741, 1299328, 1299853, 1300397, 1300974, 1301524, 1302053, 1302661, 1303207, 1303787, 1304309, 1304879]","[1291958, 1292557, 1293157, 1293757, 1294357, 1294957, 1295557, 1296157, 1296698, 1297298, 1297864, 1298376, 1298964, 1299529, 1300081, 1300657, 1301209, 1301737, 1302301, 1302864, 1303458, 1303985, 1304494, 1305090]",35,R,ITM,1.1,
2,400,trial,0,69,69,69,trial,"['S', 'S', 'S', 'S', 'S', 'S', 'S', 'S', 'C', 'C', 'C', 'C', 'C', 'C', 'C', 'C', 'C', 'C', 'C', 'C', 'C', 'C', 'C', 'C']","[1311159, 1311528, 1311628, 1311928, 1312303, 1312755, 1313127, 1313516, 1313988, 1314370, 1314760, 1315156, 1315527, 1315905, 1316293, 1316652, 1317030, 1317385, 1317795, 1318199, 1318571, 1318962, 1319327, 1319691]","[1311321, 1311548, 1311691, 1312035, 1312444, 1312872, 1313275, 1313651, 1314119, 1314478, 1314905, 1315257, 1315639, 1316005, 1316407, 1316768, 1317170, 1317550, 1317946, 1318315, 1318709, 1319066, 1319480, 1319835]","[1310868, 1311268, 1311668, 1312068, 1312468, 1312867, 1313268, 1313669, 1314016, 1314398, 1314788, 1315184, 1315555, 1315932, 1316320, 1316678, 1317058, 1317412, 1317822, 1318226, 1318598, 1318989, 1319355, 1319717]",35,R,ITM,1.1,
5,600,trial,0,70,70,70,trial,"['S', 'S', 'S', 'S', 'S', 'S', 'S', 'C', 'C', 'C', 'C', 'C', 'C', 'C', 'C', 'C', 'C', 'C', 'C', 'C', 'C', 'C', 'C']","[1325390, 1326147, 1326771, 1327378, 1327946, 1328579, 1329148, 1329771, 1330357, 1330924, 1331416, 1331988, 1332564, 1333090, 1333593, 1334153, 1334687, 1335192, 1335704, 1336182, 1336705, 1337161, 1337635]","[1325549, 1326377, 1327064, 1327704, 1328328, 1328863, 1329442, 1330022, 1330642, 1331083, 1331724, 1332233, 1332765, 1333319, 1333851, 1334374, 1334865, 1335372, 1335887, 1336397, 1336855, 1337316, 1337887]","[1325157, 1325757, 1326357, 1326957, 1327557, 1328157, 1328757, 1329357, 1329798, 1330382, 1330950, 1331441, 1332014, 1332590, 1333115, 1333618, 1334178, 1334713, 1335218, 1335730, 1336208, 1336730, 1337187, 1337662]",35,R,ITM,1.1,
6,400,trial,0,71,71,71,trial,"['S', 'S', 'S', 'S', 'S', 'S', 'S', 'S', 'C', 'C', 'C', 'C', 'C', 'C', 'C', 'C', 'C', 'C', 'C', 'C', 'C', 'C', 'C', 'C']","[1343505, 1343859, 1344151, 1344495, 1344881, 1345288, 1345709, 1346098, 1346503, 1346907, 1347369, 1347757, 1348147, 1348549, 1348934, 1349327, 1349727, 1350131, 1350507, 1350892, 1351298, 1351685, 1352064, 1352457]","[1343621, 1343949, 1344293, 1344700, 1345115, 1345516, 1345898, 1346315, 1346716, 1347097, 1347486, 1347881, 1348312, 1348689, 1349067, 1349499, 1349908, 1350304, 1350702, 1351071, 1351462, 1351875, 1352261, 1352660]","[1343339, 1343738, 1344138, 1344538, 1344939, 1345338, 1345738, 1346139, 1346530, 1346933, 1347396, 1347784, 1348173, 1348576, 1348961, 1349355, 1349754, 1350158, 1350534, 1350919, 1351324, 1351711, 1352090, 1352483]",35,R,ITM,1.1,
3,600,trial,0,72,72,72,trial,"['B', 'S', 'S', 'S', 'S', 'S', 'S', 'S', 'C', 'C', 'C', 'C', 'C', 'C', 'C', 'C', 'C', 'C', 'C', 'C', 'C', 'C', 'C', 'C', 'C']","[1357964, 1358337, 1359017, 1359660, 1360250, 1360857, 1361444, 1362056, 1362680, 1363252, 1363814, 1364396, 1364926, 1365452, 1366030, 1366526, 1367057, 1367587, 1367909, 1368130, 1368629, 1369120, 1369588, 1370037, 1370499]","[1358128, 1358776, 1359425, 1360033, 1360585, 1361157, 1361751, 1362340, 1362955, 1363474, 1364106, 1364688, 1365245, 1365764, 1366299, 1366823, 1367355, 1367829, 1367934, 1368423, 1368828, 1369367, 1369809, 1370255]","[1357975, 1358575, 1359175, 1359775, 1360375, 1360975, 1361575, 1362176, 1362706, 1363277, 1363840, 1364422, 1364952, 1365478, 1366055, 1366552, 1367083, 1367613, 1367934, 1368654, 1369146, 1369614, 1370062, 1370524]",35,R,ITM,1.1,
5,400,trial,0,73,73,73,trial,"['B', 'S', 'S', 'S', 'S', 'S', 'S', 'S', 'C', 'C', 'C', 'C', 'C', 'C', 'C', 'C', 'C', 'C', 'C', 'C', 'C', 'C', 'C', 'C']","[1375896, 1376249, 1376663, 1377020, 1377443, 1377824, 1378241, 1378637, 1379053, 1379427, 1379829, 1380251, 1380672, 1381088, 1381492, 1381880, 1382278, 1382667, 1383052, 1383441, 1383817, 1384173, 1384587, 1384950]","[1376047, 1376447, 1376825, 1377246, 1377627, 1378003, 1378424, 1378840, 1379225, 1379618, 1380023, 1380444, 1380861, 1381245, 1381637, 1382041, 1382460, 1382870, 1383285, 1383586, 1384014, 1384378, 1384775, 1385163]","[1375908, 1376307, 1376707, 1377107, 1377507, 1377907, 1378308, 1378707, 1379079, 1379452, 1379856, 1380277, 1380698, 1381113, 1381518, 1381906, 1382303, 1382692, 1383077, 1383468, 1383842, 1384199, 1384612, 1384977]",35,R,ITM,1.1,
2,600,trial,0,74,74,74,trial,"['B', 'S', 'S', 'S', 'S', 'S', 'S', 'S', 'C', 'C', 'C', 'C', 'C', 'C', 'C', 'C', 'C', 'C', 'C', 'C', 'C', 'C', 'C', 'C']","[1390454, 1390838, 1391520, 1392163, 1392799, 1393400, 1393957, 1394555, 1395132, 1395706, 1396310, 1396887, 1397466, 1398046, 1398575, 1399174, 1399747, 1400315, 1400886, 1401425, 1401964, 1402548, 1403110, 1403685]","[1390605, 1391247, 1391951, 1392549, 1393185, 1393820, 1394319, 1394866, 1395454, 1396068, 1396626, 1397189, 1397775, 1398323, 1398917, 1399500, 1400062, 1400595, 1401172, 1401681, 1402203, 1402787, 1403330, 1403872]","[1390469, 1391068, 1391667, 1392268, 1392868, 1393468, 1394068, 1394668, 1395159, 1395733, 1396337, 1396914, 1397493, 1398073, 1398601, 1399201, 1399775, 1400342, 1400912, 1401453, 1401991, 1402575, 1403138, 1403713]",35,R,ITM,1.1,
7,600,trial,0,75,75,75,trial,"['S', 'S', 'S', 'S', 'S', 'S', 'S', 'C', 'C', 'C', 'C', 'C', 'C', 'C', 'C', 'C', 'C', 'C', 'C', 'C', 'C', 'C', 'C']","[1409244, 1409958, 1410616, 1411258, 1411867, 1412467, 1413110, 1413724, 1414315, 1414882, 1415462, 1416014, 1416544, 1417138, 1417720, 1418295, 1418861, 1419402, 1419943, 1420489, 1421060, 1421600, 1422118]","[1409389, 1410112, 1410752, 1411411, 1412028, 1412655, 1413304, 1413875, 1414454, 1415065, 1415723, 1416309, 1416878, 1417415, 1418043, 1418558, 1419144, 1419686, 1420290, 1420809, 1421373, 1421887]","[1409055, 1409654, 1410254, 1410854, 1411454, 1412055, 1412655, 1413255, 1413751, 1414341, 1414908, 1415490, 1416041, 1416570, 1417164, 1417747, 1418322, 1418888, 1419428, 1419971, 1420516, 1421086, 1421627, 1422146]",35,R,ITM,1.1,
4,600,trial,0,76,76,76,trial,"['B', 'S', 'S', 'S', 'S', 'S', 'S', 'S', 'C', 'C', 'C', 'C', 'C', 'C', 'C', 'C', 'C', 'C', 'C', 'C', 'C', 'C', 'C', 'C']","[1427856, 1428245, 1428854, 1429423, 1430043, 1430660, 1431282, 1431869, 1432461, 1433030, 1433598, 1434194, 1434717, 1435264, 1435817, 1436347, 1436912, 1437462, 1438015, 1438566, 1439078, 1439632, 1440125, 1440665]","[1428023, 1428499, 1429080, 1429667, 1430286, 1430867, 1431507, 1432153, 1432792, 1433268, 1433864, 1434391, 1434941, 1435476, 1436037, 1436637, 1437185, 1437750, 1438198, 1438744, 1439283, 1439772, 1440317, 1440870]","[1427868, 1428467, 1429067, 1429667, 1430267, 1430867, 1431468, 1432068, 1432486, 1433056, 1433623, 1434220, 1434742, 1435289, 1435843, 1436372, 1436938, 1437488, 1438041, 1438592, 1439104, 1439657, 1440151, 1440691]",35,R,ITM,1.1,
5,400,trial,0,77,77,77,trial,"['S', 'S', 'S', 'S', 'S', 'S', 'S', 'S', 'C', 'C', 'C', 'C', 'C', 'C', 'C', 'C', 'C', 'C', 'C', 'C', 'C', 'C', 'C', 'C']","[1446307, 1446745, 1447069, 1447438, 1447820, 1448215, 1448594, 1449051, 1449444, 1449826, 1450202, 1450585, 1450969, 1451348, 1451741, 1452130, 1452489, 1452856, 1453250, 1453601, 1453950, 1454323, 1454695, 1455080]","[1446502, 1446881, 1447248, 1447583, 1447975, 1448341, 1448768, 1449176, 1449567, 1449959, 1450384, 1450745, 1451142, 1451538, 1451913, 1452274, 1452669, 1453010, 1453370, 1453756, 1454096, 1454494, 1454853, 1455181]","[1446250, 1446650, 1447050, 1447450, 1447851, 1448250, 1448650, 1449051, 1449469, 1449852, 1450227, 1450610, 1450994, 1451374, 1451766, 1452155, 1452516, 1452881, 1453276, 1453627, 1453977, 1454349, 1454722, 1455106]",35,R,ITM,1.1,
6,400,trial,0,78,78,78,trial,"['S', 'S', 'S', 'S', 'S', 'S', 'S', 'S', 'C', 'C', 'C', 'C', 'C', 'C', 'C', 'C', 'C', 'C', 'C', 'C', 'C', 'C', 'C', 'C']","[1460733, 1461109, 1461423, 1461758, 1462152, 1462518, 1462907, 1463299, 1463686, 1464060, 1464466, 1464848, 1465205, 1465582, 1465950, 1466364, 1466711, 1467092, 1467433, 1467789, 1468148, 1468523, 1468859, 1469231]","[1460866, 1461222, 1461585, 1461935, 1462311, 1462681, 1463070, 1463468, 1463871, 1464253, 1464623, 1464997, 1465357, 1465735, 1466092, 1466480, 1466864, 1467237, 1467585, 1467925, 1468302, 1468649, 1469039, 1469366]","[1460552, 1460952, 1461351, 1461751, 1462152, 1462552, 1462952, 1463352, 1463712, 1464088, 1464494, 1464875, 1465233, 1465609, 1465976, 1466391, 1466737, 1467119, 1467460, 1467816, 1468175, 1468551, 1468887, 1469257]",35,R,ITM,1.1,
3,600,trial,0,79,79,79,trial,"['S', 'S', 'S', 'S', 'S', 'S', 'S', 'S', 'C', 'C', 'C', 'C', 'C', 'C', 'C', 'C', 'C', 'C', 'C', 'C', 'C', 'C', 'C', 'C']","[1474965, 1475325, 1475896, 1476542, 1477172, 1477755, 1478347, 1478972, 1479561, 1480177, 1480732, 1481273, 1481834, 1482385, 1482917, 1483436, 1483924, 1484498, 1485034, 1485551, 1486084, 1486626, 1487130, 1487656]","[1475104, 1475411, 1476075, 1476658, 1477372, 1478024, 1478644, 1479279, 1479857, 1480461, 1480978, 1481517, 1482033, 1482632, 1483160, 1483653, 1484161, 1484775, 1485287, 1485787, 1486354, 1486921, 1487426, 1487906]","[1474905, 1475505, 1476104, 1476704, 1477304, 1477904, 1478504, 1479104, 1479586, 1480203, 1480758, 1481298, 1481860, 1482411, 1482943, 1483461, 1483950, 1484524, 1485060, 1485577, 1486109, 1486652, 1487156, 1487682]",35,R,ITM,1.1,
4,600,trial,0,80,80,80,trial,"['B', 'S', 'S', 'S', 'S', 'S', 'S', 'S', 'C', 'C', 'C', 'C', 'C', 'C', 'C', 'C', 'C', 'C', 'C', 'C', 'C', 'C', 'C', 'C']","[1493454, 1493665, 1494257, 1495023, 1495699, 1496305, 1496918, 1497525, 1498139, 1498724, 1499305, 1499875, 1500441, 1501040, 1501592, 1502126, 1502700, 1503256, 1503795, 1504380, 1504876, 1505428, 1505968, 1506462]","[1493474, 1493875, 1494549, 1495177, 1495866, 1496580, 1497217, 1497845, 1498440, 1499039, 1499591, 1500243, 1500772, 1501362, 1501962, 1502538, 1503057, 1503601, 1504117, 1504636, 1505173, 1505736, 1506270]","[1493467, 1494066, 1494666, 1495266, 1495866, 1496466, 1497066, 1497666, 1498165, 1498749, 1499330, 1499900, 1500467, 1501066, 1501618, 1502151, 1502726, 1503282, 1503820, 1504407, 1504902, 1505454, 1505993, 1506489]",35,R,ITM,1.1,
5,400,trial,0,81,81,81,trial,"['S', 'S', 'S', 'S', 'S', 'S', 'S', 'S', 'C', 'C', 'C', 'C', 'C', 'C', 'C', 'C', 'C', 'C', 'C', 'C', 'C', 'C', 'C', 'C']","[1511966, 1512377, 1512737, 1513099, 1513520, 1513891, 1514273, 1514669, 1515107, 1515511, 1515938, 1516319, 1516696, 1517077, 1517479, 1517895, 1518301, 1518670, 1519060, 1519467, 1519860, 1520245, 1520612, 1520986]","[1512147, 1512510, 1512865, 1513296, 1513664, 1514047, 1514424, 1514885, 1515280, 1515659, 1516061, 1516468, 1516827, 1517236, 1517628, 1518027, 1518429, 1518812, 1519209, 1519589, 1520003, 1520435, 1520755, 1521117]","[1511961, 1512360, 1512760, 1513160, 1513561, 1513960, 1514360, 1514760, 1515132, 1515537, 1515964, 1516345, 1516722, 1517103, 1517505, 1517922, 1518326, 1518696, 1519086, 1519493, 1519886, 1520271, 1520637, 1521012]",35,R,ITM,1.1,
4,600,trial,0,82,82,82,trial,"['S', 'S', 'S', 'S', 'S', 'S', 'S', 'S', 'C', 'C', 'C', 'C', 'C', 'C', 'C', 'C', 'C', 'C', 'C', 'C', 'C', 'C', 'C', 'C']","[1526734, 1527315, 1527749, 1528303, 1528868, 1529456, 1530088, 1530661, 1531294, 1531871, 1532435, 1533012, 1533564, 1534109, 1534620, 1535120, 1535705, 1536241, 1536731, 1537261, 1537750, 1538246, 1538746, 1539262]","[1526848, 1527421, 1527916, 1528466, 1529067, 1529728, 1530319, 1530953, 1531604, 1532179, 1532732, 1533217, 1533726, 1534265, 1534833, 1535369, 1536031, 1536526, 1537039, 1537588, 1538076, 1538611, 1539084]","[1526571, 1527170, 1527770, 1528370, 1528970, 1529570, 1530170, 1530770, 1531320, 1531897, 1532461, 1533038, 1533590, 1534135, 1534646, 1535147, 1535730, 1536267, 1536756, 1537287, 1537775, 1538272, 1538771, 1539288]",35,R,ITM,1.1,
3,400,trial,0,83,83,83,trial,"['B', 'S', 'S', 'S', 'S', 'S', 'S', 'S', 'S', 'C', 'C', 'C', 'C', 'C', 'C', 'C', 'C', 'C', 'C', 'C', 'C', 'C', 'C', 'C', 'C']","[1544854, 1545132, 1545535, 1545878, 1546267, 1546669, 1547042, 1547440, 1547751, 1548079, 1548395, 1548770, 1549123, 1549518, 1549889, 1550254, 1550656, 1551033, 1551383, 1551768, 1552136, 1552525, 1552893, 1553257, 1553616]","[1544952, 1545369, 1545656, 1545980, 1546387, 1546807, 1547200, 1547538, 1547887, 1548222, 1548544, 1548913, 1549293, 1549654, 1550044, 1550419, 1550781, 1551175, 1551568, 1551949, 1552362, 1552687, 1553056, 1553371, 1553750]","[1544865, 1545266, 1545666, 1546066, 1546466, 1546866, 1547267, 1547666, 1548104, 1548421, 1548796, 1549149, 1549544, 1549915, 1550279, 1550682, 1551058, 1551409, 1551794, 1552161, 1552550, 1552919, 1553283, 1553642]",35,R,ITM,1.1,
5,400,trial,0,84,84,84,trial,"['S', 'S', 'S', 'S', 'S', 'S', 'S', 'S', 'C', 'C', 'C', 'C', 'C', 'C', 'C', 'C', 'C', 'C', 'C', 'C', 'C', 'C', 'C', 'C']","[1559130, 1559514, 1559822, 1560173, 1560565, 1560939, 1561318, 1561718, 1562136, 1562487, 1562870, 1563245, 1563626, 1563997, 1564387, 1564770, 1565124, 1565509, 1565846, 1566242, 1566622, 1567002, 1567356, 1567718]","[1559256, 1559645, 1559986, 1560354, 1560728, 1561093, 1561486, 1561871, 1562255, 1562621, 1563004, 1563397, 1563759, 1564116, 1564530, 1564902, 1565258, 1565631, 1565998, 1566348, 1566755, 1567141, 1567479, 1567861]","[1558984, 1559384, 1559783, 1560183, 1560583, 1560983, 1561383, 1561783, 1562162, 1562513, 1562896, 1563271, 1563653, 1564023, 1564412, 1564796, 1565150, 1565536, 1565872, 1566269, 1566648, 1567028, 1567382, 1567744]",35,R,ITM,1.1,
4,400,trial,0,85,85,85,trial,"['S', 'S', 'S', 'S', 'S', 'S', 'S', 'S', 'C', 'C', 'C', 'C', 'C', 'C', 'C', 'C', 'C', 'C', 'C', 'C', 'C', 'C', 'C', 'C']","[1573095, 1573427, 1573774, 1574161, 1574567, 1575012, 1575413, 1575771, 1576148, 1576515, 1576891, 1577263, 1577621, 1578005, 1578385, 1578744, 1579140, 1579504, 1579849, 1580230, 1580565, 1580904, 1581309, 1581688]","[1573227, 1573611, 1573909, 1574329, 1574723, 1575119, 1575524, 1575908, 1576293, 1576616, 1577006, 1577389, 1577748, 1578129, 1578508, 1578899, 1579267, 1579673, 1579994, 1580364, 1580696, 1581131, 1581481, 1581836]","[1573095, 1573494, 1573895, 1574295, 1574695, 1575095, 1575495, 1575896, 1576174, 1576541, 1576918, 1577288, 1577647, 1578031, 1578411, 1578770, 1579165, 1579530, 1579875, 1580256, 1580591, 1580930, 1581335, 1581714]",35,R,ITM,1.1,
5,600,trial,0,86,86,86,trial,"['B', 'S', 'S', 'S', 'S', 'S', 'S', 'S', 'C', 'C', 'C', 'C', 'C', 'C', 'C', 'C', 'C', 'C', 'C', 'C', 'C', 'C', 'C', 'C']","[1587395, 1587735, 1588410, 1589069, 1589737, 1590319, 1590939, 1591554, 1592167, 1592732, 1593286, 1593875, 1594442, 1594971, 1595515, 1596069, 1596616, 1597149, 1597696, 1598230, 1598761, 1599253, 1599770, 1600272]","[1587539, 1587842, 1588585, 1589193, 1589848, 1590529, 1591202, 1591782, 1592443, 1593010, 1593614, 1594126, 1594651, 1595240, 1595790, 1596331, 1596864, 1597386, 1597926, 1598497, 1599092, 1599585, 1600092]","[1587406, 1588006, 1588606, 1589207, 1589807, 1590407, 1591007, 1591607, 1592194, 1592758, 1593312, 1593901, 1594468, 1594996, 1595541, 1596095, 1596642, 1597174, 1597721, 1598257, 1598788, 1599279, 1599796, 1600299]",35,R,ITM,1.1,
2,400,trial,0,87,87,87,trial,"['S', 'S', 'S', 'S', 'S', 'S', 'S', 'S', 'C', 'C', 'C', 'C', 'C', 'C', 'C', 'C', 'C', 'C', 'C', 'C', 'C', 'C', 'C', 'C']","[1605878, 1606275, 1606587, 1606939, 1607330, 1607689, 1608133, 1608513, 1608967, 1609350, 1609738, 1610124, 1610517, 1610915, 1611324, 1611714, 1612125, 1612539, 1612949, 1613331, 1613716, 1614119, 1614521, 1614943]","[1606050, 1606377, 1606696, 1607063, 1607459, 1607831, 1608239, 1608632, 1609070, 1609440, 1609851, 1610257, 1610647, 1611057, 1611451, 1611878, 1612291, 1612696, 1613093, 1613501, 1613827, 1614233, 1614660, 1615068]","[1605831, 1606232, 1606631, 1607030, 1607432, 1607831, 1608230, 1608631, 1608993, 1609376, 1609765, 1610151, 1610544, 1610942, 1611351, 1611742, 1612152, 1612567, 1612977, 1613359, 1613744, 1614146, 1614548, 1614970]",35,R,ITM,1.1,
7,600,trial,0,88,88,88,trial,"['S', 'S', 'S', 'S', 'S', 'S', 'S', 'S', 'C', 'C', 'C', 'C', 'C', 'C', 'C', 'C', 'C', 'C', 'C', 'C', 'C', 'C', 'C', 'C']","[1620896, 1621165, 1621711, 1622362, 1622958, 1623553, 1624171, 1624772, 1625419, 1626024, 1626590, 1627163, 1627749, 1628342, 1628840, 1629400, 1629978, 1630541, 1631105, 1631650, 1632201, 1632749, 1633252, 1633807]","[1620984, 1621248, 1621860, 1622483, 1623100, 1623716, 1624382, 1625052, 1625692, 1626356, 1626906, 1627513, 1628032, 1628693, 1629193, 1629712, 1630278, 1630806, 1631422, 1631950, 1632471, 1632905, 1633523, 1634049]","[1620732, 1621331, 1621932, 1622532, 1623132, 1623731, 1624331, 1624931, 1625447, 1626051, 1626616, 1627191, 1627776, 1628368, 1628867, 1629426, 1630005, 1630569, 1631131, 1631677, 1632229, 1632777, 1633280, 1633833]",35,R,ITM,1.1,
2,400,trial,0,89,89,89,trial,"['S', 'S', 'S', 'S', 'S', 'S', 'S', 'S', 'C', 'C', 'C', 'C', 'C', 'C', 'C', 'C', 'C', 'C', 'C', 'C', 'C', 'C', 'C', 'C']","[1639507, 1639815, 1640123, 1640468, 1640897, 1641239, 1641661, 1642064, 1642507, 1642885, 1643259, 1643665, 1644058, 1644441, 1644813, 1645209, 1645592, 1645985, 1646359, 1646756, 1647131, 1647538, 1647901, 1648284]","[1639612, 1639918, 1640245, 1640642, 1641017, 1641418, 1641805, 1642222, 1642651, 1643011, 1643393, 1643782, 1644191, 1644573, 1644955, 1645358, 1645733, 1646092, 1646495, 1646877, 1647260, 1647650, 1648008, 1648399]","[1639380, 1639780, 1640180, 1640581, 1640980, 1641380, 1641780, 1642180, 1642534, 1642912, 1643287, 1643692, 1644086, 1644469, 1644840, 1645237, 1645620, 1646013, 1646387, 1646783, 1647159, 1647564, 1647928, 1648312]",35,R,ITM,1.1,
5,600,trial,0,90,90,90,trial,"['S', 'S', 'S', 'S', 'S', 'S', 'S', 'S', 'C', 'C', 'C', 'C', 'C', 'C', 'C', 'C', 'C', 'C', 'C', 'C', 'C', 'C', 'C', 'C']","[1653969, 1654283, 1654898, 1655529, 1656167, 1656815, 1657398, 1658025, 1658664, 1659273, 1659830, 1660429, 1661018, 1661603, 1662182, 1662746, 1663342, 1663925, 1664500, 1665078, 1665629, 1666224, 1666781, 1667334]","[1654097, 1654371, 1655060, 1655655, 1656287, 1656906, 1657563, 1658175, 1658812, 1659385, 1659980, 1660564, 1661164, 1661864, 1662472, 1663038, 1663621, 1664211, 1664793, 1665386, 1665921, 1666405, 1666963, 1667540]","[1653963, 1654562, 1655162, 1655762, 1656363, 1656963, 1657563, 1658162, 1658690, 1659298, 1659855, 1660454, 1661044, 1661629, 1662208, 1662772, 1663368, 1663951, 1664526, 1665103, 1665655, 1666249, 1666806, 1667360]",35,R,ITM,1.1,
7,400,trial,0,91,91,91,trial,"['S', 'S', 'S', 'S', 'S', 'S', 'S', 'S', 'C', 'C', 'C', 'C', 'C', 'C', 'C', 'C', 'C', 'C', 'C', 'C', 'C', 'C', 'C', 'C']","[1672810, 1673109, 1673433, 1673820, 1674223, 1674618, 1675029, 1675451, 1675890, 1676253, 1676610, 1677020, 1677385, 1677791, 1678169, 1678550, 1678931, 1679331, 1679709, 1680069, 1680442, 1680850, 1681185, 1681589]","[1672932, 1673220, 1673574, 1673964, 1674374, 1674753, 1675184, 1675584, 1676006, 1676374, 1676739, 1677117, 1677497, 1677883, 1678263, 1678637, 1679058, 1679420, 1679792, 1680186, 1680543, 1680948, 1681318, 1681703]","[1672711, 1673109, 1673509, 1673909, 1674309, 1674710, 1675109, 1675509, 1675917, 1676279, 1676637, 1677046, 1677413, 1677818, 1678195, 1678576, 1678958, 1679357, 1679735, 1680096, 1680468, 1680877, 1681212, 1681616]",35,R,ITM,1.1,
3,400,trial,0,92,92,92,trial,"['B', 'S', 'S', 'S', 'S', 'S', 'S', 'S', 'C', 'C', 'C', 'C', 'C', 'C', 'C', 'C', 'C', 'C', 'C', 'C', 'C', 'C', 'C', 'C']","[1687256, 1687549, 1687910, 1688307, 1688730, 1689158, 1689572, 1689989, 1690411, 1690795, 1691175, 1691537, 1691965, 1692346, 1692708, 1693087, 1693457, 1693835, 1694194, 1694590, 1694956, 1695323, 1695722, 1696118]","[1687337, 1687640, 1688029, 1688412, 1688817, 1689257, 1689656, 1690095, 1690511, 1690895, 1691267, 1691658, 1692072, 1692453, 1692828, 1693212, 1693603, 1693950, 1694348, 1694699, 1695084, 1695442, 1695821, 1696246]","[1687267, 1687667, 1688068, 1688467, 1688867, 1689267, 1689667, 1690067, 1690436, 1690820, 1691201, 1691563, 1691991, 1692371, 1692734, 1693113, 1693483, 1693860, 1694220, 1694616, 1694982, 1695348, 1695748, 1696144]",35,R,ITM,1.1,
7,400,trial,0,93,93,93,trial,"['S', 'S', 'S', 'S', 'S', 'S', 'S', 'S', 'C', 'C', 'C', 'C', 'C', 'C', 'C', 'C', 'C', 'C', 'C', 'C', 'C', 'C', 'C', 'C']","[1701831, 1702214, 1702541, 1702857, 1703203, 1703579, 1703965, 1704341, 1704727, 1705136, 1705528, 1705865, 1706270, 1706639, 1707034, 1707435, 1707803, 1708197, 1708558, 1708946, 1709323, 1709761, 1710115, 1710485]","[1701943, 1702298, 1702643, 1702952, 1703337, 1703702, 1704085, 1704467, 1704848, 1705248, 1705626, 1706036, 1706399, 1706766, 1707159, 1707546, 1707932, 1708303, 1708675, 1709045, 1709450, 1709844, 1710219, 1710582]","[1701650, 1702049, 1702450, 1702849, 1703249, 1703649, 1704049, 1704450, 1704754, 1705162, 1705554, 1705892, 1706298, 1706667, 1707062, 1707462, 1707830, 1708224, 1708584, 1708973, 1709349, 1709788, 1710143, 1710512]",35,R,ITM,1.1,
2,600,trial,0,94,94,94,trial,"['S', 'S', 'S', 'S', 'S', 'S', 'S', 'S', 'C', 'C', 'C', 'C', 'C', 'C', 'C', 'C', 'C', 'C', 'C', 'C', 'C', 'C', 'C', 'C']","[1716291, 1716647, 1717002, 1717561, 1718161, 1718781, 1719419, 1720003, 1720636, 1721174, 1721732, 1722260, 1722804, 1723317, 1723843, 1724339, 1724847, 1725351, 1725848, 1726359, 1726862, 1727357, 1727866, 1728397]","[1716387, 1716759, 1717285, 1717919, 1718454, 1719138, 1719746, 1720393, 1720923, 1721476, 1722009, 1722542, 1723011, 1723547, 1724033, 1724606, 1725099, 1725555, 1726066, 1726603, 1727078, 1727570, 1728080, 1728629]","[1715983, 1716583, 1717183, 1717782, 1718383, 1718982, 1719582, 1720183, 1720664, 1721200, 1721758, 1722288, 1722831, 1723344, 1723871, 1724365, 1724874, 1725378, 1725876, 1726387, 1726888, 1727384, 1727893, 1728423]",35,R,ITM,1.1,
6,600,trial,0,95,95,95,trial,"['S', 'S', 'S', 'S', 'S', 'S', 'S', 'C', 'C', 'C', 'C', 'C', 'C', 'C', 'C', 'C', 'C', 'C', 'C', 'C', 'C', 'C', 'C']","[1734349, 1735017, 1735753, 1736378, 1736986, 1737598, 1738266, 1738913, 1739529, 1740110, 1740669, 1741224, 1741839, 1742431, 1742955, 1743539, 1744155, 1744714, 1745262, 1745785, 1746371, 1746921, 1747476]","[1734480, 1735224, 1735921, 1736522, 1737164, 1737840, 1738473, 1739123, 1739819, 1740360, 1740906, 1741500, 1742098, 1742702, 1743278, 1743923, 1744491, 1745003, 1745506, 1746054, 1746630, 1747185]","[1734192, 1734791, 1735390, 1735990, 1736590, 1737190, 1737790, 1738390, 1738941, 1739555, 1740138, 1740696, 1741251, 1741865, 1742457, 1742982, 1743565, 1744182, 1744741, 1745289, 1745812, 1746398, 1746948, 1747503]",35,R,ITM,1.1,
6,600,trial,0,96,96,96,trial,"['S', 'S', 'S', 'S', 'S', 'S', 'S', 'C', 'C', 'C', 'C', 'C', 'C', 'C', 'C', 'C', 'C', 'C', 'C', 'C', 'C', 'C', 'C']","[1753030, 1753745, 1754340, 1754969, 1755599, 1756197, 1756831, 1757436, 1758057, 1758627, 1759215, 1759761, 1760318, 1760904, 1761448, 1761975, 1762525, 1763097, 1763644, 1764196, 1764759, 1765309, 1765866]","[1753255, 1753930, 1754537, 1755193, 1755847, 1756482, 1757125, 1757794, 1758355, 1758888, 1759450, 1760054, 1760619, 1761171, 1761702, 1762307, 1762852, 1763425, 1763976, 1764536, 1765096, 1765622]","[1752795, 1753394, 1753993, 1754593, 1755193, 1755793, 1756393, 1756993, 1757464, 1758084, 1758654, 1759242, 1759788, 1760346, 1760931, 1761475, 1762001, 1762551, 1763124, 1763672, 1764222, 1764786, 1765337, 1765893]",35,R,ITM,1.1,
7,600,trial,0,97,97,97,trial,"['S', 'S', 'S', 'S', 'S', 'S', 'S', 'S', 'C', 'C', 'C', 'C', 'C', 'C', 'C', 'C', 'C', 'C', 'C', 'C', 'C', 'C', 'C', 'C']","[1771360, 1771743, 1772307, 1772961, 1773609, 1774249, 1774831, 1775431, 1776056, 1776637, 1777212, 1777789, 1778364, 1778962, 1779539, 1780128, 1780675, 1781261, 1781849, 1782403, 1782975, 1783525, 1784039, 1784594]","[1771501, 1772033, 1772700, 1773361, 1773959, 1774525, 1775098, 1775750, 1776329, 1776918, 1777495, 1778107, 1778700, 1779259, 1779865, 1780422, 1780997, 1781606, 1782147, 1782691, 1783279, 1783820, 1784342]","[1771320, 1771919, 1772519, 1773119, 1773719, 1774319, 1774919, 1775519, 1776082, 1776664, 1777239, 1777816, 1778392, 1778989, 1779566, 1780156, 1780703, 1781288, 1781876, 1782429, 1783002, 1783553, 1784067, 1784621]",35,R,ITM,1.1,
6,400,trial,0,98,98,98,trial,"['S', 'S', 'S', 'S', 'S', 'S', 'S', 'S', 'C', 'C', 'C', 'C', 'C', 'C', 'C', 'C', 'C', 'C', 'C', 'C', 'C', 'C', 'C', 'C']","[1790571, 1790961, 1791350, 1791667, 1792002, 1792347, 1792710, 1793104, 1793528, 1793908, 1794301, 1794695, 1795089, 1795483, 1795861, 1796240, 1796635, 1797004, 1797364, 1797702, 1798082, 1798456, 1798838, 1799202]","[1790744, 1791097, 1791476, 1791771, 1792160, 1792497, 1792907, 1793277, 1793682, 1794069, 1794450, 1794809, 1795231, 1795612, 1796015, 1796410, 1796802, 1797118, 1797496, 1797854, 1798199, 1798561, 1798981, 1799331]","[1790367, 1790767, 1791166, 1791566, 1791966, 1792366, 1792766, 1793166, 1793555, 1793935, 1794328, 1794721, 1795117, 1795510, 1795888, 1796268, 1796662, 1797030, 1797391, 1797730, 1798109, 1798482, 1798864, 1799229]",35,R,ITM,1.1,
2,600,trial,0,99,99,99,trial,"['B', 'S', 'S', 'S', 'S', 'S', 'S', 'S', 'C', 'C', 'C', 'C', 'C', 'C', 'C', 'C', 'C', 'C', 'C', 'C', 'C', 'C', 'C', 'C']","[1804865, 1805145, 1805798, 1806503, 1807157, 1807805, 1808409, 1809038, 1809612, 1810137, 1810778, 1811365, 1811963, 1812555, 1813122, 1813708, 1814295, 1814844, 1815438, 1815964, 1816566, 1817139, 1817715, 1818279]","[1804996, 1805333, 1806031, 1806652, 1807257, 1807987, 1808579, 1809159, 1809868, 1810439, 1811077, 1811676, 1812283, 1812885, 1813421, 1814020, 1814569, 1815163, 1815724, 1816281, 1816867, 1817379, 1818021]","[1804878, 1805478, 1806078, 1806679, 1807279, 1807879, 1808478, 1809079, 1809639, 1810163, 1810804, 1811392, 1811991, 1812582, 1813149, 1813735, 1814323, 1814872, 1815465, 1815992, 1816593, 1817165, 1817743, 1818306]",35,R,ITM,1.1,
3,600,trial,0,100,100,100,trial,"['B', 'S', 'S', 'S', 'S', 'S', 'S', 'S', 'S', 'C', 'C', 'C', 'C', 'C', 'C', 'C', 'C', 'C', 'C', 'C', 'C', 'C', 'C', 'C', 'C']","[1823619, 1823864, 1824306, 1824702, 1825275, 1825893, 1826498, 1827095, 1827667, 1828250, 1828811, 1829352, 1829893, 1830446, 1830973, 1831503, 1832001, 1832560, 1833064, 1833580, 1834113, 1834656, 1835150, 1835722, 1836216]","[1823690, 1824031, 1824443, 1824954, 1825572, 1826224, 1826829, 1827378, 1827959, 1828524, 1829070, 1829642, 1830191, 1830712, 1831236, 1831736, 1832226, 1832847, 1833360, 1833924, 1834372, 1835030, 1835517, 1835995]","[1823631, 1824230, 1824830, 1825430, 1826030, 1826630, 1827230, 1827830, 1828276, 1828837, 1829378, 1829918, 1830471, 1830999, 1831529, 1832027, 1832586, 1833090, 1833606, 1834138, 1834682, 1835175, 1835748, 1836242]",35,R,ITM,1.1,
4,400,trial,0,101,101,101,trial,"['B', 'S', 'S', 'S', 'S', 'S', 'S', 'S', 'C', 'C', 'C', 'C', 'C', 'C', 'C', 'C', 'C', 'C', 'C', 'C', 'C', 'C', 'C', 'C']","[1841882, 1842298, 1842651, 1843041, 1843463, 1843858, 1844264, 1844666, 1845045, 1845446, 1845850, 1846255, 1846657, 1847075, 1847443, 1847851, 1848251, 1848633, 1849024, 1849377, 1849786, 1850195, 1850579, 1850985]","[1842105, 1842445, 1842826, 1843248, 1843636, 1844022, 1844407, 1844760, 1845212, 1845604, 1846021, 1846447, 1846872, 1847202, 1847571, 1847962, 1848387, 1848744, 1849176, 1849539, 1849961, 1850359, 1850728, 1851105]","[1841894, 1842293, 1842694, 1843093, 1843493, 1843893, 1844293, 1844694, 1845070, 1845472, 1845875, 1846282, 1846682, 1847101, 1847470, 1847876, 1848276, 1848658, 1849050, 1849403, 1849811, 1850221, 1850605, 1851011]",35,R,ITM,1.1,
4,600,trial,0,102,102,102,trial,"['S', 'S', 'S', 'S', 'S', 'S', 'S', 'S', 'C', 'C', 'C', 'C', 'C', 'C', 'C', 'C', 'C', 'C', 'C', 'C', 'C', 'C', 'C', 'C']","[1856758, 1857102, 1857612, 1858197, 1858820, 1859441, 1860025, 1860702, 1861308, 1861901, 1862475, 1863030, 1863589, 1864163, 1864699, 1865241, 1865811, 1866356, 1866899, 1867414, 1867940, 1868510, 1869050, 1869608]","[1856877, 1857360, 1857949, 1858583, 1859207, 1859778, 1860368, 1861031, 1861686, 1862227, 1862784, 1863341, 1863880, 1864443, 1865014, 1865597, 1866178, 1866697, 1867255, 1867759, 1868295, 1868821, 1869385]","[1856577, 1857177, 1857777, 1858377, 1858977, 1859577, 1860177, 1860777, 1861335, 1861926, 1862501, 1863056, 1863615, 1864188, 1864726, 1865267, 1865838, 1866383, 1866925, 1867440, 1867967, 1868535, 1869076, 1869634]",35,R,ITM,1.1,
3,400,trial,0,103,103,103,trial,"['B', 'S', 'S', 'S', 'S', 'S', 'S', 'S', 'C', 'C', 'C', 'C', 'C', 'C', 'C', 'C', 'C', 'C', 'C', 'C', 'C', 'C', 'C', 'C']","[1875164, 1875564, 1875927, 1876303, 1876700, 1877088, 1877508, 1877911, 1878360, 1878749, 1879149, 1879541, 1879951, 1880356, 1880755, 1881131, 1881510, 1881928, 1882299, 1882696, 1883077, 1883470, 1883858, 1884238]","[1875380, 1875769, 1876087, 1876496, 1876910, 1877304, 1877735, 1878149, 1878522, 1878920, 1879343, 1879725, 1880132, 1880487, 1880889, 1881314, 1881692, 1882061, 1882469, 1882867, 1883260, 1883624, 1884015, 1884389]","[1875175, 1875575, 1875975, 1876375, 1876775, 1877175, 1877575, 1877976, 1878385, 1878774, 1879175, 1879567, 1879976, 1880382, 1880780, 1881156, 1881536, 1881954, 1882324, 1882722, 1883103, 1883496, 1883884, 1884264]",35,R,ITM,1.1,
4,400,trial,0,104,104,104,trial,"['B', 'S', 'S', 'S', 'S', 'S', 'S', 'S', 'C', 'C', 'C', 'C', 'C', 'C', 'C', 'C', 'C', 'C', 'C', 'C', 'C', 'C', 'C', 'C']","[1889880, 1890119, 1890485, 1890870, 1891344, 1891775, 1892175, 1892581, 1892984, 1893405, 1893797, 1894200, 1894594, 1894966, 1895374, 1895736, 1896135, 1896544, 1896915, 1897298, 1897695, 1898048, 1898437, 1898826]","[1889947, 1890264, 1890583, 1891007, 1891449, 1891880, 1892318, 1892710, 1893152, 1893533, 1893926, 1894344, 1894725, 1895110, 1895496, 1895920, 1896309, 1896734, 1897098, 1897499, 1897838, 1898245, 1898607, 1898988]","[1889892, 1890291, 1890692, 1891091, 1891491, 1891891, 1892291, 1892691, 1893010, 1893431, 1893824, 1894225, 1894620, 1894991, 1895400, 1895761, 1896161, 1896569, 1896941, 1897324, 1897720, 1898074, 1898464, 1898852]",35,R,ITM,1.1,
2,600,trial,0,105,105,105,trial,"['B', 'S', 'S', 'S', 'S', 'S', 'S', 'S', 'C', 'C', 'C', 'C', 'C', 'C', 'C', 'C', 'C', 'C', 'C', 'C', 'C', 'C', 'C', 'C']","[1904180, 1904472, 1905231, 1905875, 1906512, 1907156, 1907779, 1908352, 1908937, 1909542, 1910159, 1910742, 1911319, 1911919, 1912482, 1913040, 1913635, 1914214, 1914792, 1915371, 1915906, 1916485, 1917103, 1917648]","[1904311, 1904956, 1905608, 1906241, 1906883, 1907476, 1908141, 1908678, 1909298, 1909870, 1910507, 1911057, 1911603, 1912137, 1912742, 1913339, 1913934, 1914506, 1915027, 1915621, 1916185, 1916776, 1917367]","[1904193, 1904793, 1905393, 1905993, 1906593, 1907193, 1907793, 1908393, 1908964, 1909570, 1910187, 1910769, 1911346, 1911947, 1912510, 1913067, 1913663, 1914242, 1914819, 1915398, 1915933, 1916513, 1917130, 1917676]",35,R,ITM,1.1,
5,600,trial,0,106,106,106,trial,"['B', 'S', 'S', 'S', 'S', 'S', 'S', 'S', 'C', 'C', 'C', 'C', 'C', 'C', 'C', 'C', 'C', 'C', 'C', 'C', 'C', 'C', 'C', 'C']","[1923094, 1923309, 1923920, 1924629, 1925319, 1925960, 1926589, 1927200, 1927845, 1928441, 1929034, 1929614, 1930230, 1930779, 1931386, 1931958, 1932560, 1933147, 1933752, 1934318, 1934911, 1935478, 1936057, 1936642]","[1923128, 1923522, 1924126, 1924810, 1925600, 1926227, 1926862, 1927504, 1928144, 1928793, 1929329, 1929928, 1930526, 1931090, 1931637, 1932266, 1932906, 1933466, 1934041, 1934643, 1935235, 1935784, 1936359]","[1923106, 1923705, 1924305, 1924905, 1925506, 1926106, 1926706, 1927306, 1927872, 1928468, 1929060, 1929639, 1930256, 1930806, 1931412, 1931983, 1932585, 1933173, 1933777, 1934344, 1934937, 1935504, 1936083, 1936667]",35,R,ITM,1.1,
7,600,trial,0,107,107,107,trial,"['S', 'S', 'S', 'S', 'S', 'S', 'S', 'S', 'C', 'C', 'C', 'C', 'C', 'C', 'C', 'C', 'C', 'C', 'C', 'C', 'C', 'C', 'C', 'C']","[1942599, 1942936, 1943307, 1943928, 1944537, 1945113, 1945707, 1946283, 1946923, 1947513, 1948096, 1948639, 1949249, 1949804, 1950347, 1950937, 1951483, 1952031, 1952565, 1953149, 1953717, 1954255, 1954784, 1955356]","[1942730, 1943060, 1943578, 1944265, 1944810, 1945361, 1945958, 1946580, 1947209, 1947787, 1948417, 1949009, 1949562, 1950094, 1950640, 1951238, 1951766, 1952304, 1952907, 1953435, 1954002, 1954539, 1955083, 1955590]","[1942308, 1942907, 1943507, 1944108, 1944708, 1945308, 1945907, 1946507, 1946950, 1947540, 1948124, 1948665, 1949276, 1949832, 1950373, 1950963, 1951510, 1952058, 1952592, 1953176, 1953744, 1954282, 1954810, 1955384]",35,R,ITM,1.1,
2,400,trial,0,108,108,108,trial,"['S', 'S', 'S', 'S', 'S', 'S', 'S', 'S', 'C', 'C', 'C', 'C', 'C', 'C', 'C', 'C', 'C', 'C', 'C', 'C', 'C', 'C', 'C', 'C']","[1960953, 1961331, 1961593, 1961931, 1962329, 1962761, 1963150, 1963525, 1963940, 1964337, 1964727, 1965107, 1965519, 1965869, 1966299, 1966690, 1967098, 1967478, 1967836, 1968240, 1968591, 1968975, 1969396, 1969815]","[1961121, 1961447, 1961700, 1962036, 1962435, 1962865, 1963274, 1963637, 1964066, 1964447, 1964853, 1965222, 1965628, 1966002, 1966417, 1966814, 1967216, 1967589, 1967977, 1968352, 1968708, 1969099, 1969506, 1969901]","[1960786, 1961186, 1961586, 1961987, 1962386, 1962786, 1963186, 1963585, 1963968, 1964364, 1964753, 1965133, 1965546, 1965896, 1966326, 1966717, 1967126, 1967505, 1967862, 1968267, 1968619, 1969002, 1969424, 1969843]",35,R,ITM,1.1,
5,400,trial,0,109,109,109,trial,"['B', 'S', 'S', 'S', 'S', 'S', 'S', 'S', 'C', 'C', 'C', 'C', 'C', 'C', 'C', 'C', 'C', 'C', 'C', 'C', 'C', 'C', 'C', 'C']","[1975236, 1975507, 1975888, 1976311, 1976742, 1977147, 1977552, 1977936, 1978375, 1978754, 1979144, 1979512, 1979909, 1980270, 1980662, 1981048, 1981432, 1981812, 1982168, 1982531, 1982878, 1983257, 1983604, 1983953]","[1975269, 1975635, 1976011, 1976431, 1976859, 1977269, 1977658, 1978052, 1978498, 1978864, 1979272, 1979621, 1980003, 1980376, 1980795, 1981171, 1981556, 1981926, 1982285, 1982618, 1983014, 1983345, 1983709, 1984079]","[1975248, 1975647, 1976047, 1976448, 1976847, 1977247, 1977648, 1978047, 1978400, 1978779, 1979169, 1979538, 1979935, 1980296, 1980689, 1981074, 1981459, 1981839, 1982193, 1982557, 1982905, 1983283, 1983631, 1983979]",35,R,ITM,1.1,
3,400,trial,0,110,110,110,trial,"['S', 'S', 'S', 'S', 'S', 'S', 'S', 'S', 'S', 'C', 'C', 'C', 'C', 'C', 'C', 'C', 'C', 'C', 'C', 'C', 'C', 'C', 'C', 'C', 'C']","[1989561, 1989861, 1990153, 1990402, 1990711, 1991103, 1991518, 1991937, 1992280, 1992730, 1993104, 1993476, 1993853, 1994232, 1994582, 1994957, 1995318, 1995719, 1996097, 1996460, 1996826, 1997210, 1997560, 1997952, 1998304]","[1989690, 1989962, 1990244, 1990522, 1990843, 1991235, 1991651, 1992043, 1992403, 1992816, 1993191, 1993585, 1993958, 1994336, 1994688, 1995068, 1995443, 1995853, 1996233, 1996615, 1996971, 1997393, 1997758, 1998102, 1998485]","[1989561, 1989961, 1990362, 1990761, 1991161, 1991561, 1991961, 1992361, 1992756, 1993129, 1993501, 1993879, 1994258, 1994607, 1994983, 1995343, 1995745, 1996123, 1996485, 1996852, 1997237, 1997586, 1997977, 1998329]",35,R,ITM,1.1,
7,400,trial,0,111,111,111,trial,"['B', 'S', 'S', 'S', 'S', 'S', 'S', 'S', 'S', 'C', 'C', 'C', 'C', 'C', 'C', 'C', 'C', 'C', 'C', 'C', 'C', 'C', 'C', 'C', 'C']","[2003771, 2004024, 2004378, 2004741, 2005172, 2005617, 2006008, 2006413, 2006744, 2007109, 2007472, 2007849, 2008229, 2008621, 2009036, 2009462, 2009849, 2010249, 2010573, 2010944, 2011295, 2011701, 2012026, 2012419, 2012793]","[2003818, 2004130, 2004467, 2004829, 2005280, 2005721, 2006149, 2006548, 2006909, 2007234, 2007648, 2008007, 2008381, 2008779, 2009159, 2009592, 2009977, 2010338, 2010687, 2011027, 2011413, 2011814, 2012173, 2012558, 2012938]","[2003784, 2004184, 2004583, 2004983, 2005384, 2005784, 2006184, 2006584, 2007136, 2007499, 2007877, 2008256, 2008647, 2009063, 2009490, 2009876, 2010275, 2010601, 2010971, 2011322, 2011728, 2012053, 2012446, 2012821]",35,R,ITM,1.1,
6,600,trial,0,112,112,112,trial,"['B', 'S', 'S', 'S', 'S', 'S', 'S', 'S', 'C', 'C', 'C', 'C', 'C', 'C', 'C', 'C', 'C', 'C', 'C', 'C', 'C', 'C', 'C', 'C']","[2018333, 2018562, 2019170, 2019860, 2020541, 2021201, 2021835, 2022426, 2023037, 2023683, 2024308, 2024920, 2025508, 2026101, 2026682, 2027238, 2027805, 2028393, 2028998, 2029559, 2030143, 2030686, 2031250, 2031814]","[2018353, 2018667, 2019379, 2020023, 2020673, 2021350, 2022016, 2022694, 2023353, 2024009, 2024636, 2025233, 2025791, 2026365, 2026989, 2027540, 2028152, 2028715, 2029304, 2029876, 2030376, 2030898, 2031555]","[2018347, 2018946, 2019546, 2020146, 2020745, 2021345, 2021945, 2022545, 2023064, 2023709, 2024335, 2024946, 2025535, 2026128, 2026708, 2027265, 2027833, 2028420, 2029026, 2029586, 2030170, 2030713, 2031277, 2031841]",35,R,ITM,1.1,
2,600,trial,0,113,113,113,trial,"['S', 'S', 'S', 'S', 'S', 'S', 'S', 'S', 'C', 'C', 'C', 'C', 'C', 'C', 'C', 'C', 'C', 'C', 'C', 'C', 'C', 'C', 'C', 'C']","[2037581, 2037931, 2038460, 2039146, 2039714, 2040329, 2040981, 2041605, 2042222, 2042803, 2043404, 2043976, 2044516, 2045149, 2045714, 2046299, 2046882, 2047474, 2048072, 2048655, 2049236, 2049826, 2050414, 2050932]","[2037701, 2038052, 2038610, 2039233, 2039863, 2040460, 2041118, 2041863, 2042528, 2043108, 2043571, 2044215, 2044829, 2045312, 2045967, 2046620, 2047195, 2047750, 2048394, 2048963, 2049520, 2050046, 2050619, 2051154]","[2037476, 2038076, 2038676, 2039276, 2039876, 2040476, 2041076, 2041676, 2042249, 2042830, 2043430, 2044004, 2044542, 2045176, 2045741, 2046325, 2046910, 2047501, 2048100, 2048683, 2049264, 2049854, 2050441, 2050959]",35,R,ITM,1.1,
7,400,trial,0,114,114,114,trial,"['B', 'S', 'S', 'S', 'S', 'S', 'S', 'S', 'C', 'C', 'C', 'C', 'C', 'C', 'C', 'C', 'C', 'C', 'C', 'C', 'C', 'C', 'C', 'C']","[2056291, 2056595, 2056996, 2057371, 2057810, 2058216, 2058643, 2059063, 2059453, 2059845, 2060238, 2060641, 2061035, 2061406, 2061818, 2062215, 2062612, 2063026, 2063437, 2063784, 2064214, 2064646, 2065053, 2065461]","[2056408, 2056752, 2057118, 2057528, 2057979, 2058363, 2058774, 2059186, 2059589, 2059978, 2060359, 2060740, 2061118, 2061543, 2061887, 2062310, 2062727, 2063132, 2063536, 2063935, 2064360, 2064779, 2065180, 2065589]","[2056304, 2056704, 2057103, 2057503, 2057904, 2058303, 2058703, 2059103, 2059481, 2059873, 2060266, 2060668, 2061062, 2061433, 2061845, 2062241, 2062640, 2063052, 2063464, 2063811, 2064240, 2064673, 2065080, 2065488]",35,R,ITM,1.1,
7,600,trial,0,115,115,115,trial,"['B', 'S', 'S', 'S', 'S', 'S', 'S', 'S', 'C', 'C', 'C', 'C', 'C', 'C', 'C', 'C', 'C', 'C', 'C', 'C', 'C', 'C', 'C', 'C']","[2070831, 2071177, 2071796, 2072551, 2073158, 2073762, 2074382, 2075023, 2075616, 2076198, 2076793, 2077371, 2077946, 2078543, 2079090, 2079601, 2080262, 2080812, 2081405, 2081993, 2082595, 2083168, 2083723, 2084326]","[2070984, 2071292, 2071958, 2072652, 2073275, 2073853, 2074466, 2075108, 2075706, 2076296, 2076916, 2077499, 2078089, 2078681, 2079237, 2079797, 2080387, 2080985, 2081574, 2082161, 2082832, 2083428, 2084039]","[2070844, 2071443, 2072043, 2072643, 2073243, 2073843, 2074443, 2075043, 2075643, 2076225, 2076820, 2077398, 2077974, 2078571, 2079118, 2079629, 2080289, 2080838, 2081432, 2082021, 2082622, 2083195, 2083750, 2084354]",35,R,ITM,1.1,
6,400,trial,0,116,116,116,trial,"['S', 'S', 'S', 'S', 'S', 'S', 'S', 'S', 'C', 'C', 'C', 'C', 'C', 'C', 'C', 'C', 'C', 'C', 'C', 'C', 'C', 'C', 'C', 'C']","[2089793, 2090118, 2090448, 2090812, 2091208, 2091606, 2091970, 2092386, 2092818, 2093181, 2093575, 2093952, 2094322, 2094693, 2095083, 2095482, 2095890, 2096268, 2096636, 2097006, 2097422, 2097796, 2098161, 2098533]","[2089925, 2090213, 2090567, 2090952, 2091324, 2091719, 2092092, 2092529, 2092940, 2093319, 2093696, 2094053, 2094439, 2094824, 2095177, 2095608, 2096004, 2096386, 2096747, 2097169, 2097556, 2097932, 2098274, 2098662]","[2089681, 2090081, 2090481, 2090882, 2091281, 2091681, 2092082, 2092481, 2092846, 2093208, 2093601, 2093978, 2094349, 2094721, 2095111, 2095510, 2095918, 2096295, 2096663, 2097033, 2097448, 2097822, 2098189, 2098560]",35,R,ITM,1.1,
6,600,trial,0,117,117,117,trial,"['S', 'S', 'S', 'S', 'S', 'S', 'S', 'S', 'C', 'C', 'C', 'C', 'C', 'C', 'C', 'C', 'C', 'C', 'C', 'C', 'C', 'C', 'C', 'C']","[2104497, 2104816, 2105433, 2106066, 2106704, 2107336, 2107953, 2108540, 2109148, 2109785, 2110409, 2111014, 2111625, 2112224, 2112823, 2113426, 2114023, 2114591, 2115229, 2115813, 2116358, 2116951, 2117513, 2118116]","[2104600, 2105063, 2105804, 2106555, 2107113, 2107682, 2108351, 2108910, 2109555, 2110158, 2110796, 2111367, 2111937, 2112556, 2113164, 2113766, 2114399, 2114950, 2115542, 2116121, 2116743, 2117285, 2117877]","[2104337, 2104936, 2105536, 2106136, 2106736, 2107336, 2107936, 2108536, 2109174, 2109811, 2110437, 2111041, 2111652, 2112251, 2112849, 2113453, 2114050, 2114618, 2115256, 2115841, 2116384, 2116977, 2117539, 2118142]",35,R,ITM,1.1,
2,400,trial,0,118,118,118,trial,"['S', 'S', 'S', 'S', 'S', 'S', 'S', 'S', 'C', 'C', 'C', 'C', 'C', 'C', 'C', 'C', 'C', 'C', 'C', 'C', 'C', 'C', 'C', 'C']","[2123573, 2123916, 2124220, 2124599, 2124985, 2125381, 2125813, 2126218, 2126656, 2127062, 2127458, 2127865, 2128285, 2128675, 2129061, 2129455, 2129851, 2130251, 2130637, 2131054, 2131470, 2131856, 2132250, 2132633]","[2123703, 2124007, 2124334, 2124721, 2125119, 2125514, 2125933, 2126338, 2126766, 2127176, 2127587, 2128001, 2128418, 2128814, 2129201, 2129599, 2129995, 2130373, 2130796, 2131175, 2131600, 2131979, 2132362, 2132757]","[2123467, 2123868, 2124267, 2124666, 2125067, 2125466, 2125868, 2126267, 2126683, 2127089, 2127484, 2127893, 2128313, 2128702, 2129088, 2129481, 2129878, 2130279, 2130664, 2131082, 2131496, 2131883, 2132278, 2132661]",35,R,ITM,1.1,
3,600,trial,0,119,119,119,trial,"['B', 'S', 'S', 'S', 'S', 'S', 'S', 'S', 'S', 'C', 'C', 'C', 'C', 'C', 'C', 'C', 'C', 'C', 'C', 'C', 'C', 'C', 'C', 'C', 'C']","[2138168, 2138443, 2138945, 2139389, 2139930, 2140541, 2141137, 2141748, 2142338, 2142944, 2143493, 2144071, 2144630, 2145195, 2145770, 2146301, 2146840, 2147392, 2147995, 2148558, 2149114, 2149650, 2150214, 2150735, 2151309]","[2138293, 2138549, 2139077, 2139685, 2140275, 2140888, 2141480, 2142136, 2142702, 2143258, 2143812, 2144355, 2144971, 2145562, 2146052, 2146640, 2147200, 2147791, 2148253, 2148869, 2149422, 2149958, 2150454, 2150983, 2151557]","[2138179, 2138779, 2139379, 2139979, 2140579, 2141179, 2141779, 2142380, 2142969, 2143518, 2144097, 2144656, 2145220, 2145796, 2146327, 2146866, 2147418, 2148021, 2148584, 2149140, 2149676, 2150240, 2150761, 2151334]",35,R,ITM,1.1,
5,400,trial,0,120,120,120,trial,"['B', 'S', 'S', 'S', 'S', 'S', 'S', 'S', 'C', 'C', 'C', 'C', 'C', 'C', 'C', 'C', 'C', 'C', 'C', 'C', 'C', 'C', 'C', 'C']","[2156751, 2157145, 2157509, 2157905, 2158281, 2158717, 2159117, 2159499, 2159896, 2160311, 2160709, 2161090, 2161504, 2161931, 2162282, 2162684, 2163066, 2163433, 2163849, 2164217, 2164603, 2164994, 2165376, 2165792]","[2156932, 2157251, 2157643, 2158040, 2158443, 2158839, 2159241, 2159669, 2160039, 2160446, 2160826, 2161236, 2161619, 2162035, 2162422, 2162817, 2163239, 2163558, 2163984, 2164365, 2164743, 2165132, 2165518, 2165896]","[2156763, 2157162, 2157562, 2157962, 2158362, 2158763, 2159162, 2159562, 2159922, 2160336, 2160736, 2161116, 2161529, 2161957, 2162308, 2162711, 2163093, 2163460, 2163874, 2164243, 2164629, 2165019, 2165401, 2165818]",35,R,ITM,1.1,
5,600,trial,0,121,121,121,trial,"['S', 'S', 'S', 'S', 'S', 'S', 'S', 'S', 'C', 'C', 'C', 'C', 'C', 'C', 'C', 'C', 'C', 'C', 'C', 'C', 'C', 'C', 'C', 'C']","[2171307, 2171677, 2172193, 2172818, 2173412, 2174028, 2174661, 2175293, 2175893, 2176475, 2177087, 2177675, 2178267, 2178859, 2179463, 2180018, 2180598, 2181182, 2181751, 2182320, 2182932, 2183511, 2184083, 2184650]","[2171424, 2171918, 2172539, 2173147, 2173746, 2174380, 2175113, 2175633, 2176094, 2176804, 2177414, 2178006, 2178551, 2179152, 2179879, 2180408, 2180941, 2181588, 2182120, 2182715, 2183291, 2183890, 2184458]","[2171142, 2171741, 2172341, 2172941, 2173541, 2174141, 2174741, 2175341, 2175919, 2176501, 2177113, 2177700, 2178292, 2178885, 2179489, 2180044, 2180624, 2181208, 2181777, 2182345, 2182958, 2183536, 2184110, 2184676]",35,R,ITM,1.1,
6,400,trial,0,122,122,122,trial,"['S', 'S', 'S', 'S', 'S', 'S', 'S', 'S', 'C', 'C', 'C', 'C', 'C', 'C', 'C', 'C', 'C', 'C', 'C', 'C', 'C', 'C', 'C', 'C']","[2190505, 2190894, 2191205, 2191532, 2191900, 2192310, 2192670, 2193156, 2193539, 2193921, 2194307, 2194696, 2195096, 2195488, 2195861, 2196254, 2196656, 2197046, 2197414, 2197803, 2198191, 2198574, 2198932, 2199274]","[2190697, 2191006, 2191319, 2191657, 2192032, 2192415, 2192787, 2193266, 2193666, 2194052, 2194435, 2194825, 2195191, 2195601, 2195985, 2196377, 2196776, 2197172, 2197516, 2197923, 2198284, 2198674, 2199061, 2199409]","[2190399, 2190798, 2191198, 2191598, 2191998, 2192398, 2192798, 2193199, 2193566, 2193948, 2194334, 2194722, 2195123, 2195515, 2195888, 2196282, 2196682, 2197072, 2197441, 2197829, 2198217, 2198601, 2198959, 2199301]",35,R,ITM,1.1,
4,400,trial,0,123,123,123,trial,"['S', 'S', 'S', 'S', 'S', 'S', 'S', 'S', 'C', 'C', 'C', 'C', 'C', 'C', 'C', 'C', 'C', 'C', 'C', 'C', 'C', 'C', 'C', 'C']","[2205217, 2205505, 2205809, 2206179, 2206582, 2206952, 2207365, 2207754, 2208178, 2208549, 2208946, 2209297, 2209695, 2210049, 2210418, 2210796, 2211176, 2211559, 2211893, 2212298, 2212674, 2213032, 2213435, 2213833]","[2205312, 2205604, 2205943, 2206324, 2206709, 2207060, 2207460, 2207858, 2208274, 2208631, 2209034, 2209399, 2209794, 2210181, 2210547, 2210918, 2211281, 2211670, 2212015, 2212413, 2212780, 2213155, 2213505, 2213925]","[2205053, 2205452, 2205852, 2206253, 2206652, 2207052, 2207453, 2207853, 2208203, 2208575, 2208971, 2209324, 2209721, 2210074, 2210444, 2210823, 2211202, 2211585, 2211918, 2212325, 2212700, 2213058, 2213460, 2213860]",35,R,ITM,1.1,
3,600,trial,0,124,124,124,trial,"['S', 'S', 'S', 'S', 'S', 'S', 'S', 'C', 'C', 'C', 'C', 'C', 'C', 'C', 'C', 'C', 'C', 'C', 'C', 'C', 'C', 'C', 'C']","[2219440, 2220025, 2220692, 2221398, 2222026, 2222662, 2223342, 2223917, 2224499, 2225091, 2225680, 2226274, 2226876, 2227462, 2228007, 2228596, 2229152, 2229706, 2230259, 2230800, 2231288, 2231855, 2232324]","[2219538, 2220203, 2220835, 2221515, 2222153, 2222815, 2223447, 2224106, 2224626, 2225217, 2225809, 2226381, 2227010, 2227636, 2228214, 2228762, 2229293, 2229907, 2230453, 2231001, 2231501, 2232102]","[2219215, 2219814, 2220414, 2221015, 2221615, 2222215, 2222815, 2223415, 2223942, 2224525, 2225117, 2225705, 2226299, 2226902, 2227487, 2228033, 2228622, 2229178, 2229732, 2230285, 2230825, 2231314, 2231880, 2232349]",35,R,ITM,1.1,
