octave,ioi,event,.thisRepN,.thisTrialN,.thisN,.thisIndex,event,tap_types,tap_times,release_times,tone_times,subject,handedness,experiment,version,
,,SPR,0,-1,-1,0,SPR,"['P', 'P', 'P', 'P', 'P', 'P', 'P', 'P', 'P', 'P', 'P', 'P', 'P', 'P', 'P', 'P', 'P', 'P', 'P', 'P', 'P', 'P', 'P', 'P', 'P', 'P', 'P', 'P', 'P', 'P']","[39062, 39549, 40060, 40601, 41178, 41722, 42252, 42795, 43347, 43862, 44398, 44890, 45417, 45989, 46464, 46990, 47501, 48057, 48622, 49158, 49708, 50210, 50759, 51254, 51779, 52330, 52880, 53385, 53910, 54414]","[39194, 39689, 40186, 40729, 41291, 41838, 42374, 42909, 43480, 43977, 44505, 45001, 45536, 46106, 46580, 47108, 47625, 48180, 48744, 49273, 49828, 50330, 50867, 51373, 51890, 52447, 52995, 53510, 54026, 54542]",,42,R,ITM,1.1,
2,500,practice,0,0,0,0,practice,"['S', 'S', 'S', 'S', 'S', 'S', 'S', 'C', 'C', 'C', 'C', 'C', 'C', 'C', 'C', 'C', 'C', 'C', 'C', 'C', 'C', 'C', 'C', 'C']","[109897, 110193, 110631, 111110, 111601, 112103, 112601, 113099, 113539, 113923, 114284, 114611, 114931, 115226, 115495, 115779, 116028, 138904, 139369, 140281, 140859, 141432, 141944, 142458]","[110001, 110329, 110727, 111218, 111705, 112219, 112718, 113213, 113644, 114036, 114371, 114698, 115015, 115298, 115566, 115850, 116104, 139018, 139494, 140406, 140975, 141513, 142033, 142559]","[109218, 109718, 110217, 110718, 111218, 111718, 112219, 112718, 113127, 113565, 113949, 114312, 114638, 114959, 115254, 115522, 115807, 138932, 139397, 140308, 140887, 141459, 141972, 142485]",42,R,ITM,1.1,
4,500,practice,0,1,1,1,practice,"['S', 'S', 'S', 'S', 'S', 'S', 'S', 'C', 'C', 'C', 'C', 'C', 'C', 'C', 'C', 'C', 'C', 'C', 'C', 'C', 'C', 'C', 'C', 'C']","[148854, 149137, 149558, 150011, 150515, 151000, 151475, 152009, 152351, 152646, 152919, 153187, 153446, 155542, 156060, 156505, 156883, 157313, 157680, 158093, 158532, 158875, 159318, 159740]","[148935, 149249, 149661, 150116, 150612, 151099, 151596, 152114, 152445, 152723, 152988, 153262, 153519, 155628, 156156, 156594, 156954, 157398, 157779, 158134, 158609, 158922, 159361, 159821]","[148154, 148654, 149153, 149653, 150153, 150653, 151153, 151653, 152035, 152377, 152673, 152944, 153212, 155568, 156086, 156530, 156909, 157338, 157706, 158118, 158558, 158902, 159343, 159766]",42,R,ITM,1.1,
6,500,practice,0,2,2,2,practice,"['S', 'S', 'S', 'S', 'S', 'S', 'S', 'S', 'C', 'C', 'C', 'C', 'C', 'C', 'C', 'C', 'C', 'C', 'C', 'C', 'C', 'C', 'C', 'C']","[165663, 165996, 166291, 166704, 167194, 167699, 168183, 168685, 169199, 169665, 170229, 170681, 171024, 171406, 171798, 172169, 172504, 172801, 173129, 173462, 173791, 174126, 174435, 174769]","[165753, 166082, 166393, 166821, 167311, 167810, 168280, 168783, 169311, 169748, 170320, 170806, 171140, 171502, 171898, 172266, 172590, 172893, 173218, 173554, 173886, 174215, 174530, 174845]","[165309, 165809, 166308, 166808, 167308, 167809, 168308, 168808, 169227, 169692, 170256, 170707, 171052, 171433, 171826, 172195, 172530, 172828, 173156, 173489, 173817, 174152, 174461, 174795]",42,R,ITM,1.1,
7,500,practice,0,3,3,3,practice,"['S', 'S', 'S', 'S', 'S', 'S', 'S', 'C', 'C', 'C', 'C', 'C', 'C', 'C', 'C', 'C', 'C', 'C', 'C', 'C', 'C', 'C', 'C', 'C', 'C']","[180801, 181249, 181766, 182259, 182744, 183269, 183730, 184244, 184621, 184958, 185273, 185574, 185853, 186126, 186375, 187156, 187480, 187791, 188082, 188428, 188735, 189042, 189332, 189683, 189944]","[180968, 181358, 181862, 182364, 182844, 183365, 183828, 184335, 184721, 185050, 185359, 185656, 185945, 186195, 186448, 187249, 187574, 187881, 188184, 188512, 188813, 189126, 189442, 189765]","[180375, 180874, 181374, 181874, 182374, 182875, 183374, 183874, 184270, 184648, 184986, 185299, 185602, 185880, 186153, 187183, 187507, 187817, 188108, 188454, 188762, 189069, 189360, 189710]",42,R,ITM,1.1,
3,500,practice,0,4,4,4,practice,"['S', 'S', 'S', 'S', 'S', 'S', 'S', 'S', 'C', 'C', 'C', 'C', 'C', 'C', 'C', 'C', 'C', 'C', 'C', 'C', 'C', 'C', 'C', 'C', 'C', 'C']","[195318, 195766, 196082, 196507, 196965, 197450, 197938, 198416, 198916, 199250, 199556, 199815, 200155, 200492, 200770, 201073, 201355, 201668, 201943, 202206, 202503, 202796, 203097, 203379, 203664, 203934]","[195438, 195851, 196189, 196599, 197071, 197549, 198039, 198528, 199023, 199337, 199635, 199894, 200262, 200565, 200851, 201154, 201442, 201733, 202022, 202292, 202576, 202894, 203182, 203473, 203752, 204023]","[195097, 195597, 196098, 196597, 197097, 197597, 198097, 198597, 198941, 199276, 199581, 200180, 200517, 200796, 201099, 201380, 201694, 201968, 202528, 202821, 203122, 203405, 203689, 203960]",42,R,ITM,1.1,
5,500,practice,0,5,5,5,practice,"['S', 'S', 'S', 'S', 'S', 'S', 'S', 'C', 'C', 'C', 'C', 'C', 'C', 'C', 'C', 'C', 'C', 'C', 'C', 'C', 'C', 'C', 'C', 'C']","[210075, 210470, 210995, 211563, 212037, 212519, 212988, 213457, 213863, 214193, 214488, 214774, 215089, 215351, 215669, 216003, 216323, 216626, 216930, 217229, 217501, 217812, 218101, 218372]","[210179, 210587, 211109, 211670, 212148, 212626, 213101, 213567, 213938, 214284, 214571, 214856, 215170, 215445, 215768, 216085, 216411, 216715, 217009, 217317, 217592, 217881, 218166, 218470]","[209688, 210187, 210688, 211187, 211687, 212188, 212687, 213187, 213483, 213889, 214219, 214514, 214800, 215114, 215696, 216029, 216348, 216651, 216956, 217255, 217528, 217839, 218127, 218397]",42,R,ITM,1.1,
2,400,trial,0,6,6,6,trial,"['S', 'S', 'S', 'S', 'S', 'S', 'S', 'S', 'C', 'C', 'C', 'C', 'C', 'C', 'C', 'C', 'C', 'C', 'C', 'C', 'C', 'C', 'C', 'C', 'C', 'C', 'C', 'C', 'C', 'C', 'C']","[286751, 287121, 287404, 287731, 288101, 288481, 288851, 289255, 289624, 289896, 290151, 290467, 290790, 291082, 291354, 291647, 291910, 292213, 292482, 292753, 293010, 293321, 293593, 293841, 294528, 294764, 295040, 295285, 295554, 295852, 296112]","[286863, 287214, 287500, 287832, 288188, 288566, 288950, 289351, 289739, 289985, 290234, 290569, 290879, 291173, 291445, 291734, 291999, 292305, 292566, 292839, 293100, 293435, 293675, 293931, 294625, 294843, 295143, 295374, 295654, 295962]","[286566, 286966, 287367, 287766, 288166, 288566, 288966, 289367, 289651, 289924, 290495, 290818, 291109, 291382, 291675, 292240, 292508, 292780, 293349, 293620, 294554, 295067, 295581, 295878]",42,R,ITM,1.1,
2,600,trial,0,7,7,7,trial,"['S', 'S', 'S', 'S', 'S', 'S', 'S', 'S', 'C', 'C', 'C', 'C', 'C', 'C', 'C', 'C', 'C', 'C', 'C', 'C', 'C', 'C', 'C', 'C', 'C']","[301940, 302256, 302590, 303139, 303734, 304299, 304907, 305496, 306095, 306355, 306812, 307372, 307950, 308490, 308978, 309451, 309899, 310341, 310784, 311226, 311662, 312097, 312542, 312972, 313421]","[302024, 302349, 302740, 303266, 303847, 304415, 305018, 305605, 306211, 306430, 306941, 307512, 308052, 308594, 309088, 309547, 310007, 310454, 310889, 311326, 311762, 312207, 312625, 313069, 313526]","[301493, 302093, 302693, 303293, 303893, 304493, 305093, 305693, 306122, 306840, 307399, 307977, 308517, 309006, 309478, 309925, 310368, 310810, 311254, 311689, 312124, 312568, 312998, 313448]",42,R,ITM,1.1,
6,400,trial,0,8,8,8,trial,"['S', 'S', 'S', 'S', 'S', 'S', 'S', 'C', 'C', 'C', 'C', 'C', 'C', 'C', 'C', 'C', 'C', 'C', 'C', 'C', 'C', 'C', 'C']","[319571, 319905, 320259, 320645, 321004, 321400, 321771, 322194, 322549, 322899, 323247, 323585, 323895, 324236, 324576, 324920, 325253, 325575, 325925, 326278, 326632, 326991, 327325]","[319674, 320002, 320360, 320741, 321102, 321499, 321865, 322293, 322653, 322988, 323333, 323667, 323981, 324327, 324666, 325000, 325335, 325662, 326008, 326370, 326720, 327077, 327412]","[319059, 319458, 319858, 320259, 320658, 321058, 321459, 321859, 322222, 322576, 322926, 323273, 323612, 323922, 324262, 324602, 324947, 325280, 325603, 325952, 326305, 326659, 327018, 327353]",42,R,ITM,1.1,
5,600,trial,0,9,9,9,trial,"['S', 'S', 'S', 'S', 'S', 'S', 'S', 'C', 'C', 'C', 'C', 'C', 'C', 'C', 'C', 'C', 'C', 'C', 'C', 'C', 'C', 'C', 'C']","[333313, 333819, 334461, 335076, 335672, 336294, 336898, 337503, 338019, 338542, 339079, 339635, 340179, 340760, 341287, 341794, 342317, 342854, 343356, 343879, 344421, 344962, 345476]","[333508, 333992, 334588, 335188, 335794, 336404, 337013, 337623, 338132, 338668, 339201, 339746, 340283, 340861, 341391, 341915, 342443, 342998, 343496, 344010, 344541, 345075, 345594]","[332789, 333388, 333988, 334588, 335188, 335789, 336389, 336989, 337528, 338044, 338568, 339105, 339660, 340205, 340787, 341313, 341820, 342342, 342880, 343382, 343905, 344446, 344988, 345501]",42,R,ITM,1.1,
4,600,trial,0,10,10,10,trial,"['S', 'S', 'S', 'S', 'S', 'S', 'S', 'C', 'C', 'C', 'C', 'C', 'C', 'C', 'C', 'C', 'C', 'C', 'C', 'C', 'C', 'C', 'C']","[351513, 352081, 352671, 353239, 353884, 354495, 355086, 355690, 356259, 356802, 357354, 357931, 358481, 359067, 359647, 360192, 360774, 361375, 361913, 362462, 363023, 363604, 364143]","[351741, 352227, 352783, 353358, 354003, 354630, 355220, 355828, 356392, 356929, 357491, 358055, 358604, 359193, 359760, 360315, 360905, 361502, 362040, 362601, 363131, 363721, 364298]","[351014, 351614, 352215, 352815, 353415, 354015, 354615, 355215, 355716, 356286, 356828, 357380, 357956, 358507, 359093, 359672, 360218, 360800, 361401, 361938, 362488, 363048, 363630, 364169]",42,R,ITM,1.1,
4,600,trial,0,11,11,11,trial,"['S', 'S', 'S', 'S', 'S', 'S', 'S', 'C', 'C', 'C', 'C', 'C', 'C', 'C', 'C', 'C', 'C', 'C', 'C', 'C', 'C', 'C', 'C']","[370149, 370708, 371318, 371922, 372531, 373120, 373777, 374394, 374980, 375564, 376136, 376719, 377272, 377852, 378449, 379041, 379628, 380210, 380784, 381385, 381958, 382521, 383083]","[370267, 370865, 371449, 372067, 372653, 373257, 373909, 374514, 375118, 375703, 376269, 376841, 377400, 377992, 378583, 379167, 379753, 380342, 380901, 381508, 382076, 382645, 383221]","[369695, 370295, 370895, 371495, 372096, 372696, 373296, 373895, 374420, 375006, 375589, 376162, 376744, 377297, 377878, 378475, 379067, 379654, 380235, 380810, 381412, 381983, 382546, 383110]",42,R,ITM,1.1,
3,400,trial,0,12,12,12,trial,"['S', 'S', 'S', 'S', 'S', 'S', 'S', 'C', 'C', 'C', 'C', 'C', 'C', 'C', 'C', 'C', 'C', 'C', 'C', 'C', 'C', 'C', 'C']","[388936, 389292, 389873, 390331, 390685, 391053, 391428, 391836, 392230, 392628, 393001, 393384, 393774, 394129, 394526, 394931, 395343, 395729, 396150, 396553, 396949, 397339, 397751]","[389031, 389402, 389985, 390410, 390797, 391170, 391549, 391955, 392334, 392740, 393124, 393485, 393873, 394243, 394634, 395045, 395455, 395852, 396256, 396673, 397074, 397466, 397878]","[388718, 389118, 389518, 389918, 390319, 390718, 391118, 391518, 391862, 392256, 392653, 393027, 393410, 393799, 394155, 394552, 394956, 395369, 395755, 396176, 396578, 396976, 397365, 397776]",42,R,ITM,1.1,
6,600,trial,0,13,13,13,trial,"['S', 'S', 'S', 'S', 'S', 'S', 'S', 'C', 'C', 'C', 'C', 'C', 'C', 'C', 'C', 'C', 'C', 'C', 'C', 'C', 'C', 'C', 'C']","[403788, 404317, 404922, 405553, 406156, 406737, 407326, 407931, 408543, 409127, 409734, 410295, 410839, 411401, 411955, 412470, 413063, 413606, 414174, 414772, 415273, 415831, 416440]","[403928, 404477, 405072, 405693, 406282, 406861, 407472, 408087, 408696, 409287, 409902, 410424, 410976, 411551, 412093, 412625, 413200, 413751, 414310, 414904, 415443, 415982, 416569]","[403257, 403857, 404457, 405057, 405657, 406257, 406857, 407457, 407958, 408569, 409155, 409760, 410321, 410865, 411428, 411982, 412496, 413089, 413633, 414201, 414798, 415300, 415857, 416466]",42,R,ITM,1.1,
4,400,trial,0,14,14,14,trial,"['S', 'S', 'S', 'S', 'S', 'S', 'S', 'C', 'C', 'C', 'C', 'C', 'C', 'C', 'C', 'C', 'C', 'C', 'C', 'C', 'C', 'C', 'C']","[422480, 422804, 423145, 423510, 423858, 424252, 424665, 425073, 425476, 425880, 426293, 426669, 427049, 427458, 427885, 428269, 428649, 429079, 429461, 429841, 430248, 430652, 431087]","[422584, 422915, 423263, 423611, 423975, 424367, 424762, 425190, 425585, 425996, 426401, 426784, 427167, 427581, 427987, 428376, 428771, 429179, 429576, 429959, 430347, 430760, 431192]","[421975, 422374, 422774, 423175, 423575, 423975, 424375, 424775, 425099, 425501, 425906, 426318, 426694, 427075, 427484, 427911, 428295, 428676, 429105, 429487, 429867, 430274, 430678, 431113]",42,R,ITM,1.1,
6,400,trial,0,15,15,15,trial,"['S', 'S', 'S', 'S', 'S', 'S', 'S', 'C', 'C', 'C', 'C', 'C', 'C', 'C', 'C', 'C', 'C', 'C', 'C', 'C', 'C', 'C', 'C']","[437028, 437389, 437765, 438145, 438554, 438961, 439418, 439825, 440244, 440683, 441091, 441519, 441933, 442374, 442796, 443216, 443633, 444073, 444494, 444896, 445302, 445742, 446152]","[437138, 437502, 437870, 438264, 438661, 439067, 439525, 439940, 440348, 440780, 441213, 441631, 442065, 442501, 442909, 443326, 443746, 444174, 444605, 445014, 445423, 445855, 446265]","[436639, 437040, 437439, 437839, 438239, 438639, 439040, 439439, 439852, 440270, 440710, 441117, 441546, 441960, 442400, 442822, 443244, 443660, 444100, 444522, 444922, 445330, 445768, 446180]",42,R,ITM,1.1,
4,400,trial,0,16,16,16,trial,"['S', 'S', 'S', 'S', 'S', 'S', 'S', 'C', 'C', 'C', 'C', 'C', 'C', 'C', 'C', 'C', 'C', 'C', 'C', 'C', 'C', 'C', 'C']","[452264, 452574, 452996, 453327, 453714, 454110, 454491, 454884, 455271, 455688, 456078, 456476, 456881, 457289, 457637, 458052, 458489, 458931, 459337, 459753, 460188, 460583, 460986]","[452361, 452674, 453093, 453446, 453828, 454197, 454597, 454987, 455385, 455795, 456185, 456586, 456988, 457380, 457758, 458156, 458602, 459035, 459468, 459865, 460275, 460691, 461107]","[451745, 452145, 452544, 452944, 453344, 453744, 454145, 454544, 454909, 455297, 455713, 456103, 456502, 456906, 457315, 457663, 458078, 458515, 458957, 459363, 459779, 460214, 460609, 461012]",42,R,ITM,1.1,
5,400,trial,0,17,17,17,trial,"['S', 'S', 'S', 'S', 'S', 'S', 'S', 'C', 'C', 'C', 'C', 'C', 'C', 'C', 'C', 'C', 'C', 'C', 'C', 'C', 'C', 'C', 'C']","[467017, 467425, 467799, 468200, 468576, 469014, 469403, 469832, 470239, 470658, 471052, 471459, 471854, 472287, 472670, 473072, 473493, 473913, 474289, 474718, 475115, 475540, 475951]","[467140, 467544, 467895, 468312, 468701, 469125, 469527, 469946, 470354, 470768, 471153, 471557, 471948, 472368, 472733, 473192, 473592, 474023, 474412, 474838, 475224, 475637, 476044]","[466688, 467087, 467487, 467888, 468287, 468687, 469087, 469487, 469858, 470264, 470684, 471077, 471485, 471879, 472312, 472696, 473098, 473520, 473938, 474314, 474743, 475141, 475567, 475976]",42,R,ITM,1.1,
7,400,trial,0,18,18,18,trial,"['S', 'S', 'S', 'S', 'S', 'S', 'S', 'C', 'C', 'C', 'C', 'C', 'C', 'C', 'C', 'C', 'C', 'C', 'C', 'C', 'C', 'C', 'C']","[486674, 487072, 487460, 487880, 488259, 488689, 489106, 489513, 489875, 490272, 490692, 491075, 491463, 491849, 492232, 492659, 493027, 493418, 493813, 494221, 494636, 495033, 495411]","[486786, 487196, 487568, 487969, 488369, 488793, 489217, 489623, 489996, 490383, 490796, 491194, 491561, 491955, 492338, 492769, 493137, 493535, 493928, 494332, 494736, 495141, 495523]","[486369, 486768, 487169, 487568, 487968, 488369, 488768, 489168, 489541, 489902, 490300, 490719, 491103, 491490, 491876, 492259, 492687, 493054, 493446, 493840, 494248, 494662, 495059, 495437]",42,R,ITM,1.1,
3,600,trial,0,19,19,19,trial,"['S', 'S', 'S', 'S', 'S', 'S', 'S', 'S', 'C', 'C', 'C', 'C', 'C', 'C', 'C', 'C', 'C', 'C', 'C', 'C', 'C', 'C', 'C', 'C']","[501539, 501997, 502520, 502860, 503445, 504036, 504592, 505208, 505823, 506373, 506950, 507494, 508051, 508593, 509142, 509684, 510235, 510785, 511303, 511844, 512325, 512845, 513397, 513930]","[501645, 502131, 502628, 502991, 503556, 504154, 504717, 505347, 505962, 506511, 507072, 507633, 508188, 508720, 509266, 509833, 510362, 510917, 511460, 511969, 512480, 512995, 513548, 514057]","[501212, 501811, 502411, 503011, 503611, 504211, 504811, 505411, 505848, 506398, 506976, 507520, 508077, 508618, 509167, 509710, 510261, 510811, 511329, 511869, 512351, 512871, 513423, 513955]",42,R,ITM,1.1,
7,600,trial,0,20,20,20,trial,"['S', 'S', 'S', 'S', 'S', 'S', 'C', 'C', 'C', 'C', 'C', 'C', 'C', 'C', 'C', 'C', 'C', 'C', 'C', 'C', 'C', 'C']","[520643, 521253, 521915, 522543, 523117, 523726, 524331, 524930, 525537, 526121, 526701, 527278, 527843, 528431, 529049, 529589, 530156, 530769, 531318, 531865, 532402, 532984]","[520814, 521427, 522042, 522688, 523276, 523882, 524467, 525065, 525676, 526260, 526838, 527410, 527968, 528582, 529170, 529735, 530291, 530887, 531442, 531987, 532530, 533108]","[519556, 520155, 520755, 521355, 521955, 522555, 523155, 523755, 524358, 524957, 525564, 526149, 526728, 527304, 527869, 528458, 529077, 529615, 530184, 530796, 531345, 531892, 532429, 533011]",42,R,ITM,1.1,
5,600,trial,0,21,21,21,trial,"['S', 'S', 'S', 'S', 'S', 'S', 'S', 'C', 'C', 'C', 'C', 'C', 'C', 'C', 'C', 'C', 'C', 'C', 'C', 'C', 'C', 'C', 'C']","[539060, 539752, 540355, 540955, 541580, 542183, 542791, 543389, 543987, 544565, 545165, 545714, 546304, 546923, 547495, 548116, 548695, 549302, 549893, 550477, 551026, 551614, 552160]","[539206, 539916, 540516, 541106, 541712, 542314, 542906, 543525, 544121, 544712, 545312, 545846, 546453, 547052, 547620, 548271, 548866, 549456, 550012, 550611, 551161, 551742, 552308]","[538639, 539238, 539838, 540438, 541038, 541638, 542238, 542838, 543415, 544013, 544591, 545190, 545740, 546329, 546949, 547521, 548142, 548720, 549328, 549918, 550503, 551052, 551640, 552185]",42,R,ITM,1.1,
3,600,trial,0,22,22,22,trial,"['S', 'S', 'S', 'S', 'S', 'S', 'S', 'S', 'C', 'C', 'C', 'C', 'C', 'C', 'C', 'C', 'C', 'C', 'C', 'C', 'C', 'C', 'C', 'C']","[558040, 558346, 558886, 559486, 560126, 560737, 561318, 561921, 562499, 563098, 563666, 564216, 564786, 565372, 565943, 566482, 567028, 567598, 568161, 568700, 569298, 569826, 570374, 570929]","[558136, 558577, 559042, 559702, 560303, 560893, 561480, 562093, 562688, 563241, 563813, 564341, 564945, 565499, 566068, 566611, 567142, 567706, 568297, 568843, 569433, 569949, 570523, 571069]","[557813, 558413, 559013, 559613, 560214, 560814, 561414, 562013, 562525, 563124, 563692, 564242, 564811, 565398, 565968, 566508, 567054, 567623, 568186, 568726, 569324, 569851, 570399, 570954]",42,R,ITM,1.1,
7,400,trial,0,23,23,23,trial,"['S', 'S', 'S', 'S', 'S', 'S', 'C', 'C', 'C', 'C', 'C', 'C', 'C', 'C', 'C', 'C', 'C', 'C', 'C', 'C', 'C', 'C']","[576528, 576890, 577797, 578256, 578639, 579033, 579463, 579881, 580268, 580689, 581107, 581492, 581911, 582335, 582735, 583154, 583577, 583996, 584421, 584828, 585268, 585666]","[576611, 577047, 577901, 578359, 578746, 579145, 579599, 579995, 580393, 580808, 581227, 581615, 582033, 582475, 582872, 583284, 583700, 584128, 584556, 584951, 585380, 585780]","[576316, 576716, 577117, 577516, 577916, 578316, 578716, 579117, 579489, 579908, 580294, 580716, 581135, 581520, 581938, 582362, 582763, 583182, 583605, 584023, 584449, 584856, 585295, 585693]",42,R,ITM,1.1,
3,400,trial,0,24,24,24,trial,"['S', 'S', 'S', 'S', 'S', 'S', 'S', 'S', 'C', 'C', 'C', 'C', 'C', 'C', 'C', 'C', 'C', 'C', 'C', 'C', 'C', 'C', 'C', 'C']","[591486, 591791, 592128, 592526, 592901, 593250, 593595, 594018, 594404, 594797, 595185, 595587, 595966, 596387, 596805, 597212, 597600, 597989, 598391, 598809, 599234, 599654, 600044, 600455]","[591575, 591892, 592222, 592615, 592998, 593356, 593700, 594132, 594531, 594914, 595303, 595701, 596093, 596514, 596920, 597322, 597720, 598103, 598515, 598915, 599351, 599772, 600176, 600565]","[591285, 591685, 592086, 592485, 592885, 593286, 593685, 594085, 594429, 594823, 595211, 595612, 595992, 596413, 596831, 597237, 597625, 598014, 598417, 598835, 599260, 599680, 600070, 600480]",42,R,ITM,1.1,
2,400,trial,0,25,25,25,trial,"['S', 'S', 'S', 'S', 'S', 'S', 'C', 'C', 'C', 'C', 'C', 'C', 'C', 'C', 'C', 'C', 'C', 'C', 'C', 'C', 'C', 'C']","[606665, 607119, 607546, 607952, 608335, 608751, 609121, 609520, 609946, 610373, 610801, 611231, 611648, 612072, 612496, 612942, 613391, 613818, 614242, 614662, 615083, 615510]","[606791, 607225, 607663, 608047, 608425, 608833, 609188, 609593, 610021, 610439, 610873, 611305, 611712, 612131, 612569, 613006, 613457, 613893, 614322, 614731, 615160, 615587]","[605928, 606327, 606729, 607129, 607529, 607929, 608329, 608729, 609147, 609548, 609974, 610401, 610829, 611258, 611676, 612100, 612524, 612970, 613419, 613846, 614269, 614688, 615110, 615536]",42,R,ITM,1.1,
7,600,trial,0,26,26,26,trial,"['S', 'S', 'S', 'S', 'S', 'S', 'S', 'C', 'C', 'C', 'C', 'C', 'C', 'C', 'C', 'C', 'C', 'C', 'C', 'C', 'C', 'C', 'C']","[621343, 622043, 622596, 623209, 623858, 624464, 625064, 625658, 626257, 626852, 627450, 628050, 628649, 629242, 629843, 630454, 631024, 631634, 632283, 632888, 633482, 634102, 634698]","[621392, 622121, 622701, 623313, 623962, 624594, 625177, 625773, 626394, 626967, 627594, 628186, 628776, 629355, 629988, 630567, 631156, 631783, 632409, 632998, 633601, 634201, 634809]","[620914, 621513, 622113, 622713, 623313, 623913, 624514, 625114, 625686, 626284, 626879, 627477, 628078, 628677, 629270, 629870, 630481, 631052, 631661, 632309, 632915, 633508, 634129, 634726]",42,R,ITM,1.1,
5,400,trial,0,27,27,27,trial,"['S', 'S', 'S', 'S', 'C', 'C', 'C', 'C', 'C', 'C', 'C', 'C', 'C', 'C', 'C', 'C', 'C', 'C', 'C', 'C']","[641794, 642168, 642560, 642989, 643391, 643780, 644173, 644570, 644954, 645313, 645706, 646138, 646508, 646902, 647302, 647689, 648089, 648460, 648824, 649200]","[641904, 642282, 642692, 643107, 643513, 643890, 644284, 644673, 645057, 645420, 645817, 646232, 646629, 647007, 647408, 647806, 648185, 648564, 648927, 649306]","[640283, 640683, 641082, 641482, 641883, 642282, 642682, 643082, 643418, 643806, 644199, 644595, 644979, 645340, 645732, 646164, 646534, 646928, 647327, 647714, 648115, 648485, 648850, 649226]",42,R,ITM,1.1,
2,600,trial,0,28,28,28,trial,"['S', 'S', 'S', 'S', 'S', 'S', 'S', 'S', 'C', 'C', 'C', 'C', 'C', 'C', 'C', 'C', 'C', 'C', 'C', 'C', 'C', 'C', 'C', 'C']","[655123, 655417, 656007, 656654, 657337, 657914, 658498, 659106, 659688, 660255, 660835, 661389, 661934, 662494, 663042, 663587, 664099, 664641, 665184, 665700, 666244, 666787, 667254, 667743]","[655208, 655528, 656122, 656772, 657439, 657985, 658562, 659156, 659749, 660335, 660923, 661486, 662021, 662582, 663123, 663668, 664181, 664722, 665277, 665802, 666353, 666881, 667346, 667859]","[654948, 655547, 656148, 656748, 657348, 657948, 658548, 659148, 659716, 660282, 660861, 661415, 661960, 662521, 663069, 663614, 664127, 664668, 665211, 665728, 666270, 666815, 667281, 667770]",42,R,ITM,1.1,
6,600,trial,0,29,29,29,trial,"['S', 'S', 'S', 'S', 'S', 'S', 'S', 'S', 'C', 'C', 'C', 'C', 'C', 'C', 'C', 'C', 'C', 'C', 'C', 'C', 'C', 'C', 'C', 'C']","[673692, 674172, 674697, 675218, 675785, 676377, 676989, 677623, 678245, 678751, 679302, 679891, 680461, 681040, 681608, 682191, 682754, 683282, 683828, 684364, 684946, 685531, 686094, 686654]","[673775, 674306, 674790, 675283, 675838, 676443, 677053, 677679, 678296, 678837, 679411, 679989, 680559, 681127, 681677, 682256, 682836, 683385, 683925, 684462, 685052, 685639, 686203, 686766]","[673508, 674107, 674707, 675307, 675907, 676507, 677107, 677707, 678273, 678778, 679328, 679918, 680488, 681067, 681634, 682218, 682781, 683309, 683854, 684391, 684973, 685557, 686120, 686682]",42,R,ITM,1.1,
3,400,trial,0,30,30,30,trial,"['S', 'S', 'S', 'S', 'S', 'C', 'C', 'C', 'C', 'C', 'C', 'C', 'C', 'C', 'C', 'C', 'C', 'C', 'C', 'C', 'C']","[696144, 696522, 696936, 697345, 697739, 698151, 698544, 698937, 699312, 699728, 700112, 700498, 700903, 701345, 701758, 702172, 702572, 702981, 703395, 703834, 704236]","[696241, 696608, 697027, 697434, 697837, 698248, 698640, 699033, 699425, 699830, 700218, 700610, 701010, 701453, 701862, 702268, 702671, 703081, 703492, 703935, 704340]","[694961, 695359, 695759, 696159, 696559, 696960, 697359, 697759, 698177, 698569, 698962, 699337, 699754, 700138, 700524, 700929, 701371, 701784, 702197, 702598, 703006, 703421, 703859, 704262]",42,R,ITM,1.1,
5,400,trial,0,31,31,31,trial,"['S', 'S', 'S', 'S', 'S', 'S', 'S', 'C', 'C', 'C', 'C', 'C', 'C', 'C', 'C', 'C', 'C', 'C', 'C', 'C', 'C', 'C', 'C']","[710124, 710602, 711035, 711433, 711821, 712239, 712656, 713063, 713463, 713875, 714280, 714664, 715064, 715465, 715863, 716261, 716662, 717073, 717518, 717888, 718339, 718751, 719142]","[710227, 710714, 711145, 711532, 711936, 712337, 712761, 713159, 713553, 713954, 714358, 714764, 715163, 715574, 715955, 716360, 716756, 717189, 717616, 718004, 718447, 718857, 719260]","[709891, 710289, 710689, 711090, 711490, 711890, 712290, 712690, 713089, 713489, 713902, 714306, 714690, 715090, 715492, 715888, 716286, 716688, 717100, 717545, 717914, 718365, 718777, 719168]",42,R,ITM,1.1,
4,600,trial,0,32,32,32,trial,"['S', 'S', 'S', 'S', 'S', 'S', 'S', 'S', 'C', 'C', 'C', 'C', 'C', 'C', 'C', 'C', 'C', 'C', 'C', 'C', 'C', 'C', 'C', 'C']","[725104, 725569, 725945, 726481, 727118, 727728, 728350, 728944, 729522, 730100, 730618, 731179, 731747, 732299, 732878, 733404, 733965, 734510, 735048, 735587, 736111, 736623, 737141, 737713]","[725212, 725673, 726073, 726594, 727215, 727840, 728450, 729056, 729644, 730223, 730753, 731320, 731886, 732437, 733009, 733520, 734093, 734641, 735184, 735722, 736239, 736752, 737288, 737841]","[724841, 725440, 726040, 726640, 727240, 727840, 728440, 729040, 729548, 730126, 730644, 731204, 731772, 732324, 732904, 733429, 733990, 734535, 735074, 735612, 736137, 736649, 737167, 737739]",42,R,ITM,1.1,
2,400,trial,0,33,33,33,trial,"['S', 'S', 'S', 'S', 'S', 'S', 'S', 'C', 'C', 'C', 'C', 'C', 'C', 'C', 'C', 'C', 'C', 'C', 'C', 'C', 'C', 'C', 'C']","[743766, 744121, 744516, 744859, 745250, 745658, 746072, 746482, 746885, 747280, 747678, 748070, 748478, 748871, 749257, 749682, 750099, 750490, 750897, 751353, 751722, 752152, 752571]","[743891, 744228, 744586, 744951, 745341, 745753, 746181, 746571, 746994, 747393, 747797, 748192, 748599, 748995, 749380, 749811, 750227, 750616, 751030, 751460, 751846, 752280, 752681]","[743316, 743716, 744115, 744516, 744916, 745316, 745716, 746116, 746509, 746911, 747308, 747706, 748098, 748506, 748898, 749284, 749710, 750127, 750517, 750923, 751380, 751750, 752180, 752598]",42,R,ITM,1.1,
6,600,trial,0,34,34,34,trial,"['S', 'S', 'S', 'S', 'S', 'S', 'C', 'C', 'C', 'C', 'C', 'C', 'C', 'C', 'C', 'C', 'C', 'C', 'C', 'C', 'C', 'C']","[759229, 759853, 760496, 761107, 761650, 762238, 762833, 763399, 763967, 764522, 765107, 765677, 766254, 766818, 767396, 768012, 768576, 769121, 769710, 770256, 770776, 771305]","[759339, 759939, 760585, 761183, 761743, 762334, 762926, 763504, 764061, 764628, 765199, 765774, 766331, 766912, 767499, 768100, 768686, 769234, 769798, 770343, 770878, 771409]","[758108, 758707, 759307, 759907, 760507, 761107, 761707, 762307, 762860, 763425, 763995, 764549, 765133, 765704, 766280, 766844, 767423, 768038, 768604, 769148, 769736, 770283, 770802, 771332]",42,R,ITM,1.1,
5,600,trial,0,35,35,35,trial,"['S', 'S', 'S', 'S', 'S', 'S', 'S', 'S', 'C', 'C', 'C', 'C', 'C', 'C', 'C', 'C', 'C', 'C', 'C', 'C', 'C', 'C', 'C', 'C']","[777224, 777537, 778065, 778674, 779205, 779750, 780357, 780951, 781558, 782164, 782750, 783348, 783933, 784517, 785121, 785725, 786309, 786914, 787500, 788101, 788732, 789310, 789877, 790448]","[777253, 777658, 778166, 778788, 779319, 779884, 780505, 781107, 781700, 782306, 782906, 783480, 784055, 784653, 785259, 785888, 786467, 787058, 787647, 788247, 788864, 789465, 790037, 790585]","[776894, 777494, 778094, 778694, 779294, 779894, 780494, 781094, 781584, 782190, 782776, 783374, 783959, 784542, 785146, 785751, 786334, 786939, 787525, 788126, 788758, 789336, 789903, 790474]",42,R,ITM,1.1,
7,400,trial,0,36,36,36,trial,"['S', 'S', 'S', 'S', 'S', 'S', 'S', 'C', 'C', 'C', 'C', 'C', 'C', 'C', 'C', 'C', 'C', 'C', 'C', 'C', 'C', 'C', 'C']","[796204, 796579, 797113, 797560, 797937, 798392, 798787, 799188, 799581, 799954, 800350, 800758, 801130, 801542, 801940, 802325, 802727, 803126, 803543, 803976, 804354, 804742, 805136]","[796315, 796684, 797237, 797655, 798052, 798514, 798903, 799304, 799698, 800053, 800471, 800877, 801268, 801674, 802058, 802459, 802848, 803252, 803680, 804092, 804481, 804862, 805244]","[796005, 796404, 796805, 797204, 797604, 798004, 798404, 798804, 799216, 799607, 799982, 800377, 800786, 801157, 801568, 801967, 802352, 802754, 803153, 803569, 804002, 804380, 804769, 805163]",42,R,ITM,1.1,
7,600,trial,0,37,37,37,trial,"['S', 'S', 'S', 'S', 'S', 'S', 'S', 'S', 'C', 'C', 'C', 'C', 'C', 'C', 'C', 'C', 'C', 'C', 'C', 'C', 'C', 'C', 'C', 'C']","[811077, 811617, 812040, 812616, 813206, 813836, 814475, 815076, 815585, 816140, 816718, 817286, 817849, 818401, 818874, 819472, 820025, 820591, 821148, 821706, 822298, 822879, 823422, 824009]","[811192, 811731, 812157, 812736, 813328, 813958, 814595, 815166, 815718, 816280, 816857, 817406, 817986, 818511, 819038, 819637, 820189, 820747, 821301, 821857, 822440, 823009, 823570, 824148]","[810875, 811474, 812075, 812675, 813275, 813875, 814475, 815075, 815611, 816166, 816746, 817312, 817875, 818427, 818902, 819499, 820052, 820618, 821176, 821733, 822326, 822905, 823448, 824037]",42,R,ITM,1.1,
2,600,trial,0,38,38,38,trial,"['S', 'S', 'S', 'S', 'S', 'S', 'S', 'S', 'C', 'C', 'C', 'C', 'C', 'C', 'C', 'C', 'C', 'C', 'C', 'C', 'C', 'C', 'C', 'C']","[829878, 830254, 830691, 831252, 831827, 832456, 833046, 833623, 834224, 834826, 835376, 835963, 836523, 837090, 837685, 838253, 838815, 839394, 839989, 840569, 841114, 841675, 842220, 842775]","[830005, 830356, 830815, 831361, 831947, 832576, 833171, 833733, 834354, 834948, 835509, 836074, 836653, 837214, 837816, 838382, 838967, 839543, 840122, 840707, 841253, 841828, 842345, 842923]","[829534, 830133, 830732, 831333, 831932, 832533, 833133, 833733, 834250, 834852, 835402, 835991, 836550, 837116, 837712, 838281, 838842, 839420, 840016, 840596, 841141, 841703, 842248, 842802]",42,R,ITM,1.1,
2,400,trial,0,39,39,39,trial,"['S', 'S', 'S', 'S', 'S', 'S', 'S', 'C', 'C', 'C', 'C', 'C', 'C', 'C', 'C', 'C', 'C', 'C', 'C', 'C', 'C', 'C', 'C']","[848443, 849044, 849380, 849757, 850130, 850508, 850940, 851346, 851726, 852127, 852513, 852887, 853282, 853664, 854042, 854452, 854833, 855215, 855596, 855962, 856400, 856797, 857174]","[848509, 849147, 849485, 849856, 850236, 850638, 851039, 851461, 851830, 852221, 852615, 853006, 853404, 853796, 854168, 854561, 854942, 855331, 855696, 856090, 856514, 856915, 857271]","[848180, 848579, 848980, 849380, 849779, 850181, 850580, 850980, 851374, 851752, 852155, 852540, 852915, 853309, 853691, 854070, 854479, 854859, 855242, 855622, 855989, 856427, 856823, 857200]",42,R,ITM,1.1,
6,600,trial,0,40,40,40,trial,"['S', 'S', 'S', 'S', 'S', 'S', 'S', 'S', 'C', 'C', 'C', 'C', 'C', 'C', 'C', 'C', 'C', 'C', 'C', 'C', 'C', 'C', 'C', 'C']","[863090, 863430, 864000, 864662, 865236, 865829, 866421, 867058, 867683, 868265, 868777, 869338, 869843, 870415, 871007, 871521, 872034, 872512, 873102, 873651, 874175, 874670, 875212, 875740]","[863166, 863590, 864149, 864787, 865377, 865970, 866575, 867214, 867818, 868402, 868956, 869510, 870025, 870578, 871155, 871680, 872156, 872651, 873272, 873810, 874334, 874819, 875376, 875874]","[862914, 863513, 864113, 864713, 865313, 865913, 866513, 867113, 867709, 868292, 868803, 869364, 869871, 870441, 871033, 871547, 872061, 872539, 873128, 873678, 874203, 874697, 875239, 875766]",42,R,ITM,1.1,
4,400,trial,0,41,41,41,trial,"['S', 'S', 'S', 'S', 'S', 'S', 'C', 'C', 'C', 'C', 'C', 'C', 'C', 'C', 'C', 'C', 'C', 'C', 'C', 'C', 'C', 'C']","[882201, 882578, 882971, 883350, 883729, 884123, 884525, 884912, 885293, 885669, 886065, 886431, 886805, 887207, 887607, 887976, 888365, 888757, 889178, 889559, 889961, 890335]","[882321, 882683, 883086, 883464, 883830, 884240, 884646, 885038, 885413, 885779, 886175, 886556, 886926, 887312, 887697, 888061, 888454, 888855, 889265, 889675, 890063, 890436]","[881402, 881801, 882201, 882601, 883001, 883401, 883802, 884201, 884550, 884937, 885318, 885695, 886090, 886457, 886832, 887233, 887632, 888002, 888390, 888783, 889204, 889584, 889987, 890360]",42,R,ITM,1.1,
3,600,trial,0,42,42,42,trial,"['S', 'S', 'S', 'S', 'S', 'S', 'S', 'S', 'C', 'C', 'C', 'C', 'C', 'C', 'C', 'C', 'C', 'C', 'C', 'C', 'C', 'C', 'C', 'C']","[898279, 898737, 899158, 899715, 900279, 900900, 901567, 902155, 902742, 903297, 903904, 904484, 905018, 905602, 906180, 906760, 907331, 907871, 908422, 909005, 909552, 910124, 910696, 911241]","[898390, 898824, 899244, 899817, 900391, 901025, 901673, 902251, 902833, 903389, 903984, 904566, 905116, 905709, 906274, 906871, 907419, 907967, 908530, 909084, 909655, 910214, 910791, 911349]","[898001, 898601, 899202, 899802, 900402, 901002, 901602, 902202, 902767, 903322, 903929, 904510, 905043, 905627, 906206, 906785, 907357, 907896, 908447, 909031, 909578, 910149, 910722, 911266]",42,R,ITM,1.1,
6,400,trial,0,43,43,43,trial,"['S', 'S', 'S', 'S', 'S', 'C', 'C', 'C', 'C', 'C', 'C', 'C', 'C', 'C', 'C', 'C', 'C', 'C', 'C', 'C', 'C']","[917860, 918259, 918623, 919019, 919414, 919800, 920203, 920584, 920967, 921367, 921740, 922126, 922546, 922933, 923322, 923724, 924109, 924493, 924903, 925317, 925688]","[917946, 918337, 918736, 919129, 919518, 919916, 920315, 920696, 921075, 921458, 921844, 922226, 922646, 923033, 923405, 923825, 924205, 924597, 924977, 925404, 925794]","[916686, 917086, 917486, 917886, 918286, 918686, 919087, 919486, 919827, 920229, 920610, 920993, 921394, 921766, 922152, 922573, 922959, 923350, 923752, 924136, 924520, 924930, 925344, 925715]",42,R,ITM,1.1,
3,400,trial,0,44,44,44,trial,"['S', 'S', 'S', 'S', 'S', 'S', 'C', 'C', 'C', 'C', 'C', 'C', 'C', 'C', 'C', 'C', 'C', 'C', 'C', 'C', 'C', 'C']","[931953, 932388, 932789, 933148, 933522, 933977, 934369, 934735, 935121, 935506, 935879, 936258, 936640, 937000, 937393, 937755, 938105, 938441, 938825, 939189, 939601, 939979]","[932063, 932488, 932872, 933239, 933635, 934076, 934472, 934865, 935255, 935634, 935996, 936374, 936739, 937104, 937507, 937847, 938214, 938565, 938937, 939303, 939703, 940078]","[931235, 931634, 932034, 932434, 932834, 933234, 933635, 934034, 934394, 934761, 935147, 935532, 935905, 936284, 936666, 937026, 937418, 937781, 938131, 938467, 938851, 939214, 939627, 940005]",42,R,ITM,1.1,
3,600,trial,0,45,45,45,trial,"['S', 'S', 'S', 'S', 'S', 'S', 'C', 'C', 'C', 'C', 'C', 'C', 'C', 'C', 'C', 'C', 'C', 'C', 'C', 'C', 'C', 'C']","[946765, 947417, 948014, 948624, 949193, 949764, 950377, 950934, 951541, 952119, 952716, 953269, 953834, 954426, 955020, 955549, 956140, 956715, 957272, 957827, 958424, 958988]","[946885, 947530, 948109, 948723, 949298, 949892, 950488, 951059, 951659, 952231, 952836, 953397, 953966, 954541, 955133, 955673, 956276, 956839, 957394, 957959, 958550, 959102]","[945659, 946259, 946860, 947460, 948060, 948659, 949259, 949859, 950403, 950960, 951567, 952144, 952741, 953294, 953860, 954451, 955045, 955575, 956166, 956740, 957297, 957852, 958449, 959014]",42,R,ITM,1.1,
5,400,trial,0,46,46,46,trial,"['S', 'S', 'S', 'S', 'S', 'S', 'S', 'C', 'C', 'C', 'C', 'C', 'C', 'C', 'C', 'C', 'C', 'C', 'C', 'C', 'C', 'C', 'C']","[964662, 965030, 965512, 965958, 966398, 966779, 967182, 967572, 967963, 968349, 968747, 969140, 969524, 969919, 970290, 970705, 971078, 971463, 971868, 972255, 972663, 973044, 973410]","[964749, 965134, 965608, 966061, 966496, 966879, 967263, 967682, 968065, 968465, 968852, 969250, 969625, 970019, 970397, 970808, 971195, 971568, 971967, 972340, 972744, 973121, 973515]","[964448, 964848, 965249, 965648, 966048, 966449, 966848, 967248, 967599, 967989, 968375, 968772, 969165, 969549, 969945, 970315, 970731, 971104, 971489, 971893, 972280, 972689, 973070, 973435]",42,R,ITM,1.1,
4,400,trial,0,47,47,47,trial,"['S', 'S', 'S', 'S', 'S', 'S', 'S', 'C', 'C', 'C', 'C', 'C', 'C', 'C', 'C', 'C', 'C', 'C', 'C', 'C', 'C', 'C', 'C']","[979255, 979699, 980141, 980538, 980926, 981341, 981719, 982136, 982533, 982908, 983281, 983702, 984080, 984496, 984894, 985323, 985699, 986097, 986523, 986926, 987315, 987735, 988100]","[979335, 979815, 980247, 980664, 981050, 981456, 981835, 982277, 982656, 983029, 983416, 983812, 984203, 984619, 985025, 985421, 985835, 986238, 986657, 987084, 987454, 987857, 988243]","[978997, 979396, 979796, 980196, 980596, 980997, 981396, 981796, 982162, 982558, 982934, 983307, 983729, 984105, 984522, 984920, 985349, 985725, 986124, 986549, 986952, 987340, 987760, 988126]",42,R,ITM,1.1,
5,600,trial,0,48,48,48,trial,"['S', 'S', 'S', 'S', 'S', 'S', 'S', 'S', 'C', 'C', 'C', 'C', 'C', 'C', 'C', 'C', 'C', 'C', 'C', 'C', 'C', 'C', 'C', 'C']","[994123, 994538, 995024, 995577, 996150, 996807, 997395, 997938, 998538, 999081, 999601, 1000100, 1000602, 1001162, 1001734, 1002267, 1002815, 1003381, 1003909, 1004459, 1005009, 1005543, 1006065, 1006633]","[994257, 994676, 995153, 995700, 996304, 996948, 997526, 998085, 998692, 999271, 999767, 1000243, 1000757, 1001297, 1001881, 1002431, 1002976, 1003536, 1004082, 1004621, 1005168, 1005694, 1006237, 1006812]","[993898, 994497, 995097, 995697, 996297, 996897, 997497, 998097, 998563, 999107, 999626, 1000126, 1000628, 1001189, 1001759, 1002293, 1002841, 1003407, 1003934, 1004484, 1005036, 1005569, 1006091, 1006660]",42,R,ITM,1.1,
2,600,trial,0,49,49,49,trial,"['S', 'S', 'S', 'S', 'S', 'S', 'S', 'C', 'C', 'C', 'C', 'C', 'C', 'C', 'C', 'C', 'C', 'C', 'C', 'C', 'C', 'C', 'C']","[1012583, 1013288, 1013867, 1014486, 1015097, 1015664, 1016250, 1016884, 1017428, 1018005, 1018566, 1019143, 1019695, 1020273, 1020823, 1021403, 1021939, 1022472, 1023039, 1023623, 1024196, 1024736, 1025302]","[1012705, 1013468, 1014024, 1014633, 1015257, 1015830, 1016424, 1017034, 1017608, 1018178, 1018708, 1019283, 1019847, 1020444, 1020958, 1021540, 1022101, 1022629, 1023194, 1023763, 1024333, 1024908, 1025472]","[1012176, 1012776, 1013377, 1013977, 1014577, 1015177, 1015777, 1016376, 1016911, 1017456, 1018033, 1018594, 1019170, 1019722, 1020301, 1020850, 1021429, 1021967, 1022499, 1023067, 1023649, 1024224, 1024763, 1025329]",42,R,ITM,1.1,
7,600,trial,0,50,50,50,trial,"['B', 'S', 'S', 'S', 'S', 'S', 'S', 'S', 'C', 'C', 'C', 'C', 'C', 'C', 'C', 'C', 'C', 'C', 'C', 'C', 'C', 'C', 'C', 'C']","[1031080, 1031525, 1032150, 1032765, 1033362, 1033943, 1034548, 1035129, 1035737, 1036338, 1036924, 1037466, 1038038, 1038640, 1039174, 1039747, 1040321, 1040878, 1041464, 1042044, 1042616, 1043178, 1043774, 1044414]","[1031214, 1031825, 1032370, 1032953, 1033535, 1034143, 1034712, 1035314, 1035943, 1036539, 1037116, 1037647, 1038216, 1038799, 1039353, 1039926, 1040482, 1041041, 1041616, 1042229, 1042813, 1043395, 1043960, 1044591]","[1031094, 1031693, 1032293, 1032893, 1033493, 1034093, 1034693, 1035293, 1035763, 1036364, 1036951, 1037493, 1038064, 1038666, 1039201, 1039773, 1040349, 1040905, 1041490, 1042072, 1042642, 1043206, 1043802, 1044442]",42,R,ITM,1.1,
4,600,trial,0,51,51,51,trial,"['S', 'S', 'S', 'S', 'S', 'S', 'C', 'C', 'C', 'C', 'C', 'C', 'C', 'C', 'C', 'C', 'C', 'C', 'C', 'C', 'C', 'C']","[1051272, 1051943, 1052544, 1053129, 1053666, 1054274, 1054858, 1055455, 1056049, 1056600, 1057166, 1057730, 1058276, 1058856, 1059401, 1059950, 1060520, 1061043, 1061606, 1062211, 1062739, 1063291]","[1051454, 1052093, 1052693, 1053258, 1053824, 1054433, 1055011, 1055614, 1056174, 1056753, 1057332, 1057874, 1058449, 1059015, 1059563, 1060130, 1060710, 1061218, 1061803, 1062373, 1062919, 1063478]","[1050199, 1050799, 1051399, 1051999, 1052599, 1053199, 1053799, 1054399, 1054883, 1055480, 1056074, 1056625, 1057191, 1057756, 1058301, 1058882, 1059427, 1059976, 1060546, 1061068, 1061632, 1062238, 1062765, 1063317]",42,R,ITM,1.1,
6,400,trial,0,52,52,52,trial,"['S', 'S', 'S', 'S', 'S', 'S', 'S', 'C', 'C', 'C', 'C', 'C', 'C', 'C', 'C', 'C', 'C', 'C', 'C', 'C', 'C', 'C', 'C']","[1069303, 1069715, 1070120, 1070484, 1070857, 1071230, 1071662, 1072069, 1072451, 1072862, 1073264, 1073675, 1074081, 1074470, 1074903, 1075324, 1075705, 1076114, 1076577, 1077008, 1077415, 1077810, 1078252]","[1069422, 1069822, 1070200, 1070568, 1070978, 1071367, 1071789, 1072159, 1072568, 1072980, 1073389, 1073802, 1074194, 1074588, 1075012, 1075428, 1075831, 1076225, 1076683, 1077125, 1077539, 1077954, 1078380]","[1068916, 1069316, 1069715, 1070115, 1070515, 1070915, 1071315, 1071715, 1072097, 1072478, 1072889, 1073292, 1073702, 1074109, 1074497, 1074929, 1075351, 1075732, 1076141, 1076603, 1077035, 1077442, 1077837, 1078280]",42,R,ITM,1.1,
7,400,trial,0,53,53,53,trial,"['S', 'S', 'S', 'S', 'S', 'S', 'S', 'S', 'C', 'C', 'C', 'C', 'C', 'C', 'C', 'C', 'C', 'C', 'C', 'C', 'C', 'C', 'C', 'C']","[1083872, 1084232, 1084537, 1084898, 1085294, 1085727, 1086124, 1086511, 1086896, 1087261, 1087665, 1088057, 1088450, 1088804, 1089181, 1089585, 1089981, 1090405, 1090810, 1091191, 1091568, 1091962, 1092333, 1092734]","[1083980, 1084348, 1084651, 1085016, 1085405, 1085850, 1086242, 1086640, 1087000, 1087384, 1087795, 1088181, 1088575, 1088918, 1089302, 1089702, 1090097, 1090495, 1090912, 1091307, 1091689, 1092068, 1092458, 1092845]","[1083710, 1084109, 1084510, 1084910, 1085310, 1085710, 1086110, 1086511, 1086923, 1087289, 1087691, 1088084, 1088478, 1088831, 1089208, 1089612, 1090008, 1090433, 1090837, 1091219, 1091595, 1091990, 1092360, 1092761]",42,R,ITM,1.1,
5,400,trial,0,54,54,54,trial,"['S', 'S', 'S', 'S', 'C', 'C', 'C', 'C', 'C', 'C', 'C', 'C', 'C', 'C', 'C', 'C', 'C', 'C', 'C', 'C']","[1104509, 1104902, 1105330, 1105729, 1106131, 1106522, 1106920, 1107303, 1107660, 1108036, 1108405, 1108785, 1109182, 1109559, 1109939, 1110312, 1110761, 1111138, 1111475, 1111820]","[1104613, 1105032, 1105456, 1105858, 1106288, 1106643, 1107035, 1107407, 1107766, 1108146, 1108513, 1108897, 1109298, 1109671, 1110062, 1110433, 1110898, 1111266, 1111602, 1111956]","[1103013, 1103413, 1103813, 1104214, 1104613, 1105013, 1105414, 1105813, 1106157, 1106547, 1106946, 1107329, 1107687, 1108063, 1108431, 1108810, 1109209, 1109585, 1109964, 1110338, 1110788, 1111164, 1111500, 1111845]",42,R,ITM,1.1,
2,600,trial,0,55,55,55,trial,"['S', 'S', 'S', 'S', 'S', 'S', 'S', 'S', 'C', 'C', 'C', 'C', 'C', 'C', 'C', 'C', 'C', 'C', 'C', 'C', 'C', 'C', 'C', 'C']","[1117618, 1117970, 1118423, 1119020, 1119607, 1120167, 1120753, 1121352, 1121917, 1122456, 1123038, 1123606, 1124187, 1124741, 1125307, 1125865, 1126420, 1127040, 1127600, 1128134, 1128688, 1129259, 1129833, 1130398]","[1117731, 1118080, 1118500, 1119121, 1119704, 1120284, 1120881, 1121474, 1122043, 1122591, 1123162, 1123743, 1124320, 1124880, 1125448, 1125998, 1126574, 1127180, 1127757, 1128279, 1128835, 1129389, 1129954, 1130550]","[1117239, 1117839, 1118439, 1119039, 1119639, 1120239, 1120838, 1121439, 1121944, 1122483, 1123065, 1123634, 1124214, 1124767, 1125335, 1125892, 1126447, 1127067, 1127627, 1128161, 1128715, 1129286, 1129860, 1130425]",42,R,ITM,1.1,
7,400,trial,0,56,56,56,trial,"['B', 'S', 'S', 'S', 'S', 'S', 'S', 'S', 'C', 'C', 'C', 'C', 'C', 'C', 'C', 'C', 'C', 'C', 'C', 'C', 'C', 'C', 'C', 'C']","[1136089, 1136458, 1136890, 1137280, 1137669, 1138080, 1138485, 1138891, 1139283, 1139690, 1140071, 1140467, 1140858, 1141267, 1141643, 1142024, 1142437, 1142832, 1143227, 1143628, 1144044, 1144433, 1144813, 1145199]","[1136124, 1136620, 1137019, 1137384, 1137754, 1138199, 1138584, 1138978, 1139393, 1139800, 1140205, 1140592, 1140976, 1141371, 1141757, 1142146, 1142566, 1142965, 1143357, 1143754, 1144154, 1144554, 1144946, 1145339]","[1136102, 1136501, 1136902, 1137301, 1137701, 1138101, 1138501, 1138902, 1139310, 1139718, 1140098, 1140494, 1140886, 1141294, 1141669, 1142051, 1142465, 1142858, 1143254, 1143656, 1144071, 1144461, 1144840, 1145227]",42,R,ITM,1.1,
7,600,trial,0,57,57,57,trial,"['S', 'S', 'S', 'S', 'S', 'S', 'S', 'S', 'C', 'C', 'C', 'C', 'C', 'C', 'C', 'C', 'C', 'C', 'C', 'C', 'C', 'C', 'C', 'C']","[1150720, 1151058, 1151648, 1152232, 1152803, 1153444, 1154051, 1154653, 1155223, 1155751, 1156330, 1156894, 1157446, 1157980, 1158523, 1159046, 1159578, 1160107, 1160656, 1161159, 1161669, 1162188, 1162746, 1163269]","[1150824, 1151187, 1151789, 1152399, 1152990, 1153592, 1154204, 1154782, 1155374, 1155913, 1156478, 1157048, 1157613, 1158148, 1158681, 1159184, 1159744, 1160268, 1160823, 1161320, 1161832, 1162354, 1162869, 1163386]","[1150575, 1151174, 1151774, 1152374, 1152974, 1153574, 1154174, 1154775, 1155250, 1155779, 1156358, 1156921, 1157473, 1158006, 1158551, 1159072, 1159606, 1160134, 1160683, 1161186, 1161697, 1162216, 1162774, 1163295]",42,R,ITM,1.1,
3,400,trial,0,58,58,58,trial,"['S', 'S', 'S', 'S', 'S', 'S', 'S', 'S', 'C', 'C', 'C', 'C', 'C', 'C', 'C', 'C', 'C', 'C', 'C', 'C', 'C', 'C', 'C', 'C']","[1168875, 1169238, 1169589, 1169959, 1170284, 1170618, 1171030, 1171407, 1171836, 1172224, 1172570, 1172946, 1173335, 1173737, 1174115, 1174475, 1174841, 1175258, 1175651, 1176042, 1176430, 1176827, 1177202, 1177572]","[1168989, 1169367, 1169668, 1170020, 1170385, 1170740, 1171154, 1171544, 1171947, 1172314, 1172680, 1173052, 1173450, 1173855, 1174238, 1174597, 1174950, 1175374, 1175776, 1176159, 1176532, 1176924, 1177323, 1177693]","[1168728, 1169127, 1169527, 1169927, 1170327, 1170727, 1171127, 1171527, 1171862, 1172249, 1172595, 1172972, 1173360, 1173763, 1174140, 1174501, 1174866, 1175283, 1175676, 1176068, 1176456, 1176853, 1177228, 1177597]",42,R,ITM,1.1,
4,600,trial,0,59,59,59,trial,"['S', 'S', 'S', 'S', 'S', 'S', 'S', 'S', 'C', 'C', 'C', 'C', 'C', 'C', 'C', 'C', 'C', 'C', 'C', 'C', 'C', 'C', 'C', 'C']","[1183238, 1183603, 1184152, 1184713, 1185310, 1185887, 1186465, 1187076, 1187661, 1188275, 1188812, 1189365, 1189911, 1190464, 1191026, 1191539, 1192049, 1192630, 1193177, 1193663, 1194229, 1194735, 1195208, 1195697]","[1183329, 1183835, 1184294, 1184858, 1185438, 1186028, 1186647, 1187234, 1187831, 1188435, 1188976, 1189527, 1190070, 1190597, 1191138, 1191638, 1192164, 1192757, 1193342, 1193806, 1194379, 1194884, 1195363, 1195840]","[1183077, 1183676, 1184276, 1184876, 1185476, 1186076, 1186676, 1187276, 1187687, 1188300, 1188838, 1189391, 1189937, 1190490, 1191052, 1191565, 1192075, 1192655, 1193202, 1193689, 1194255, 1194761, 1195234, 1195722]",42,R,ITM,1.1,
6,600,trial,0,60,60,60,trial,"['S', 'S', 'S', 'S', 'S', 'S', 'S', 'S', 'C', 'C', 'C', 'C', 'C', 'C', 'C', 'C', 'C', 'C', 'C', 'C', 'C', 'C', 'C', 'C']","[1201356, 1201959, 1202504, 1202955, 1203519, 1204156, 1204761, 1205358, 1205926, 1206508, 1207093, 1207628, 1208153, 1208706, 1209270, 1209798, 1210350, 1210958, 1211466, 1211998, 1212572, 1213127, 1213685, 1214225]","[1201470, 1202014, 1202553, 1203048, 1203602, 1204220, 1204792, 1205405, 1205990, 1206576, 1207187, 1207724, 1208263, 1208807, 1209355, 1209896, 1210449, 1211053, 1211578, 1212109, 1212678, 1213225, 1213788, 1214339]","[1201185, 1201784, 1202384, 1202984, 1203585, 1204185, 1204785, 1205384, 1205953, 1206535, 1207119, 1207655, 1208179, 1208732, 1209296, 1209826, 1210378, 1210985, 1211493, 1212025, 1212600, 1213154, 1213713, 1214252]",42,R,ITM,1.1,
3,600,trial,0,61,61,61,trial,"['S', 'S', 'S', 'S', 'S', 'S', 'S', 'S', 'C', 'C', 'C', 'C', 'C', 'C', 'C', 'C', 'C', 'C', 'C', 'C', 'C', 'C', 'C', 'C']","[1220005, 1220492, 1220945, 1221483, 1222060, 1222657, 1223202, 1223784, 1224398, 1224962, 1225532, 1226084, 1226657, 1227238, 1227830, 1228402, 1228966, 1229537, 1230085, 1230582, 1231191, 1231747, 1232272, 1232847]","[1220078, 1220572, 1221054, 1221588, 1222171, 1222739, 1223308, 1223910, 1224524, 1225102, 1225649, 1226210, 1226789, 1227374, 1227957, 1228528, 1229088, 1229669, 1230204, 1230731, 1231345, 1231869, 1232421, 1232986]","[1219736, 1220335, 1220935, 1221535, 1222135, 1222735, 1223335, 1223936, 1224424, 1224987, 1225558, 1226109, 1226683, 1227264, 1227855, 1228428, 1228992, 1229562, 1230111, 1230608, 1231216, 1231772, 1232297, 1232873]",42,R,ITM,1.1,
6,600,trial,0,62,62,62,trial,"['S', 'S', 'S', 'S', 'S', 'S', 'S', 'S', 'C', 'C', 'C', 'C', 'C', 'C', 'C', 'C', 'C', 'C', 'C', 'C', 'C', 'C', 'C', 'C']","[1238673, 1239108, 1239622, 1240265, 1240800, 1241320, 1241892, 1242490, 1243101, 1243638, 1244190, 1244722, 1245271, 1245814, 1246334, 1246892, 1247397, 1247932, 1248505, 1249019, 1249550, 1250099, 1250633, 1251223]","[1238770, 1239226, 1239736, 1240363, 1240918, 1241441, 1242018, 1242609, 1243248, 1243773, 1244315, 1244852, 1245392, 1245939, 1246479, 1247000, 1247514, 1248053, 1248641, 1249167, 1249720, 1250242, 1250782, 1251339]","[1238508, 1239107, 1239707, 1240307, 1240907, 1241507, 1242107, 1242707, 1243128, 1243666, 1244217, 1244748, 1245297, 1245841, 1246362, 1246918, 1247424, 1247959, 1248533, 1249047, 1249576, 1250125, 1250660, 1251250]",42,R,ITM,1.1,
3,400,trial,0,63,63,63,trial,"['S', 'S', 'S', 'S', 'S', 'S', 'S', 'S', 'C', 'C', 'C', 'C', 'C', 'C', 'C', 'C', 'C', 'C', 'C', 'C', 'C', 'C', 'C', 'C']","[1256765, 1257178, 1257435, 1257810, 1258167, 1258562, 1258924, 1259313, 1259692, 1260049, 1260430, 1260796, 1261175, 1261546, 1261912, 1262294, 1262656, 1263038, 1263417, 1263787, 1264172, 1264528, 1264886, 1265270]","[1256869, 1257274, 1257528, 1257910, 1258285, 1258679, 1259066, 1259436, 1259820, 1260170, 1260550, 1260920, 1261285, 1261658, 1262026, 1262409, 1262783, 1263159, 1263533, 1263908, 1264272, 1264640, 1265009, 1265389]","[1256587, 1256987, 1257388, 1257787, 1258187, 1258588, 1258987, 1259387, 1259717, 1260075, 1260455, 1260822, 1261201, 1261572, 1261937, 1262319, 1262682, 1263064, 1263442, 1263812, 1264197, 1264553, 1264912, 1265296]",42,R,ITM,1.1,
7,400,trial,0,64,64,64,trial,"['S', 'S', 'S', 'S', 'S', 'S', 'S', 'C', 'C', 'C', 'C', 'C', 'C', 'C', 'C', 'C', 'C', 'C', 'C', 'C', 'C', 'C', 'C']","[1271270, 1271732, 1272146, 1272590, 1272978, 1273393, 1273819, 1274212, 1274624, 1275047, 1275426, 1275829, 1276237, 1276657, 1277029, 1277419, 1277822, 1278243, 1278624, 1279003, 1279417, 1279816, 1280193]","[1271364, 1271842, 1272261, 1272705, 1273097, 1273507, 1273928, 1274315, 1274744, 1275163, 1275551, 1275954, 1276359, 1276743, 1277137, 1277526, 1277944, 1278357, 1278735, 1279131, 1279528, 1279921, 1280297]","[1271004, 1271402, 1271802, 1272202, 1272602, 1273003, 1273402, 1273802, 1274238, 1274650, 1275074, 1275453, 1275855, 1276264, 1276684, 1277056, 1277446, 1277849, 1278270, 1278652, 1279031, 1279443, 1279844, 1280220]",42,R,ITM,1.1,
2,400,trial,0,65,65,65,trial,"['S', 'S', 'S', 'S', 'S', 'S', 'S', 'C', 'C', 'C', 'C', 'C', 'C', 'C', 'C', 'C', 'C', 'C', 'C', 'C', 'C', 'C', 'C']","[1286174, 1286525, 1287050, 1287490, 1287890, 1288309, 1288735, 1289117, 1289511, 1289916, 1290306, 1290723, 1291131, 1291510, 1291923, 1292356, 1292741, 1293144, 1293573, 1293984, 1294389, 1294814, 1295196]","[1286280, 1286682, 1287168, 1287602, 1287994, 1288420, 1288834, 1289225, 1289635, 1290010, 1290424, 1290827, 1291252, 1291642, 1292041, 1292466, 1292882, 1293271, 1293696, 1294133, 1294535, 1294939, 1295333]","[1285935, 1286335, 1286734, 1287135, 1287535, 1287936, 1288335, 1288734, 1289145, 1289539, 1289943, 1290334, 1290749, 1291158, 1291537, 1291950, 1292383, 1292768, 1293170, 1293600, 1294011, 1294416, 1294841, 1295223]",42,R,ITM,1.1,
7,600,trial,0,66,66,66,trial,"['S', 'S', 'S', 'S', 'S', 'S', 'S', 'S', 'C', 'C', 'C', 'C', 'C', 'C', 'C', 'C', 'C', 'C', 'C', 'C', 'C', 'C', 'C', 'C']","[1301082, 1301465, 1301860, 1302423, 1303008, 1303586, 1304223, 1304814, 1305443, 1306004, 1306542, 1307064, 1307600, 1308153, 1308712, 1309241, 1309805, 1310369, 1310910, 1311439, 1311985, 1312513, 1313039, 1313639]","[1301181, 1301567, 1301969, 1302547, 1303121, 1303706, 1304338, 1304951, 1305587, 1306152, 1306677, 1307189, 1307714, 1308267, 1308826, 1309355, 1309924, 1310480, 1311054, 1311576, 1312106, 1312654, 1313180, 1313767]","[1300722, 1301321, 1301921, 1302521, 1303121, 1303721, 1304322, 1304922, 1305469, 1306031, 1306568, 1307091, 1307627, 1308180, 1308739, 1309267, 1309832, 1310397, 1310937, 1311466, 1312013, 1312539, 1313067, 1313667]",42,R,ITM,1.1,
5,600,trial,0,67,67,67,trial,"['S', 'S', 'S', 'S', 'S', 'S', 'S', 'S', 'C', 'C', 'C', 'C', 'C', 'C', 'C', 'C', 'C', 'C', 'C', 'C', 'C', 'C', 'C', 'C']","[1319316, 1319740, 1320271, 1320906, 1321549, 1322119, 1322704, 1323294, 1323870, 1324505, 1325084, 1325637, 1326216, 1326820, 1327382, 1327998, 1328565, 1329155, 1329714, 1330260, 1330869, 1331427, 1331992, 1332555]","[1319427, 1319914, 1320398, 1321019, 1321648, 1322233, 1322817, 1323396, 1323968, 1324615, 1325210, 1325752, 1326332, 1326921, 1327517, 1328125, 1328684, 1329270, 1329833, 1330384, 1330990, 1331546, 1332123, 1332675]","[1319186, 1319785, 1320385, 1320985, 1321585, 1322185, 1322785, 1323385, 1323896, 1324530, 1325110, 1325663, 1326241, 1326845, 1327408, 1328025, 1328590, 1329180, 1329739, 1330286, 1330895, 1331452, 1332018, 1332581]",42,R,ITM,1.1,
4,400,trial,0,68,68,68,trial,"['S', 'S', 'S', 'S', 'S', 'S', 'C', 'C', 'C', 'C', 'C', 'C', 'C', 'C', 'C', 'C', 'C', 'C', 'C', 'C', 'C', 'C']","[1338764, 1339209, 1339589, 1339940, 1340348, 1340748, 1341163, 1341572, 1341958, 1342342, 1342735, 1343120, 1343514, 1343907, 1344288, 1344680, 1345097, 1345478, 1345903, 1346295, 1346689, 1347073]","[1338857, 1339293, 1339687, 1340055, 1340454, 1340867, 1341285, 1341676, 1342076, 1342458, 1342836, 1343229, 1343630, 1344015, 1344385, 1344781, 1345205, 1345590, 1346008, 1346424, 1346821, 1347194]","[1338043, 1338442, 1338843, 1339242, 1339642, 1340042, 1340442, 1340843, 1341189, 1341597, 1341983, 1342367, 1342760, 1343145, 1343540, 1343933, 1344314, 1344706, 1345123, 1345504, 1345929, 1346321, 1346714, 1347098]",42,R,ITM,1.1,
3,600,trial,0,69,69,69,trial,"['S', 'S', 'S', 'S', 'S', 'S', 'S', 'S', 'C', 'C', 'C', 'C', 'C', 'C', 'C', 'C', 'C', 'C', 'C', 'C', 'C', 'C', 'C', 'C']","[1352701, 1353136, 1353676, 1354258, 1354851, 1355446, 1356062, 1356604, 1357162, 1357727, 1358282, 1358830, 1359378, 1359930, 1360487, 1361056, 1361591, 1362118, 1362673, 1363222, 1363759, 1364330, 1364875, 1365420]","[1352785, 1353274, 1353800, 1354371, 1354977, 1355563, 1356167, 1356717, 1357286, 1357868, 1358422, 1358950, 1359494, 1360063, 1360632, 1361165, 1361710, 1362227, 1362816, 1363349, 1363898, 1364481, 1365009, 1365549]","[1352536, 1353136, 1353735, 1354335, 1354935, 1355535, 1356135, 1356735, 1357188, 1357753, 1358308, 1358856, 1359404, 1359955, 1360513, 1361082, 1361616, 1362144, 1362699, 1363248, 1363784, 1364356, 1364900, 1365445]",42,R,ITM,1.1,
6,400,trial,0,70,70,70,trial,"['S', 'S', 'S', 'S', 'S', 'S', 'S', 'C', 'C', 'C', 'C', 'C', 'C', 'C', 'C', 'C', 'C', 'C', 'C', 'C', 'C', 'C', 'C']","[1371231, 1371679, 1372085, 1372478, 1372837, 1373234, 1373609, 1374020, 1374425, 1374794, 1375157, 1375550, 1375916, 1376289, 1376666, 1377060, 1377422, 1377824, 1378160, 1378596, 1378942, 1379340, 1379737]","[1371360, 1371799, 1372205, 1372584, 1372960, 1373365, 1373747, 1374139, 1374531, 1374911, 1375275, 1375668, 1376034, 1376410, 1376798, 1377182, 1377543, 1377917, 1378298, 1378710, 1379069, 1379466, 1379861]","[1370960, 1371360, 1371760, 1372161, 1372560, 1372960, 1373361, 1373760, 1374048, 1374451, 1374821, 1375183, 1375578, 1375943, 1376316, 1376693, 1377087, 1377448, 1377852, 1378187, 1378623, 1378969, 1379366, 1379764]",42,R,ITM,1.1,
6,400,trial,0,71,71,71,trial,"['S', 'S', 'S', 'S', 'S', 'S', 'S', 'C', 'C', 'C', 'C', 'C', 'C', 'C', 'C', 'C', 'C', 'C', 'C', 'C', 'C', 'C', 'C']","[1385673, 1386141, 1386577, 1387038, 1387422, 1387814, 1388203, 1388602, 1389001, 1389409, 1389825, 1390241, 1390643, 1391072, 1391479, 1391892, 1392323, 1392734, 1393150, 1393544, 1393937, 1394318, 1394714]","[1385771, 1386218, 1386685, 1387130, 1387520, 1387914, 1388302, 1388705, 1389112, 1389530, 1389931, 1390352, 1390759, 1391197, 1391608, 1392020, 1392451, 1392875, 1393284, 1393688, 1394071, 1394463, 1394847]","[1385396, 1385796, 1386196, 1386596, 1386996, 1387397, 1387796, 1388196, 1388628, 1389028, 1389435, 1389851, 1390269, 1390669, 1391099, 1391506, 1391920, 1392350, 1392761, 1393177, 1393570, 1393965, 1394345, 1394741]",42,R,ITM,1.1,
5,400,trial,0,72,72,72,trial,"['S', 'S', 'S', 'S', 'S', 'S', 'C', 'C', 'C', 'C', 'C', 'C', 'C', 'C', 'C', 'C', 'C', 'C', 'C', 'C', 'C', 'C']","[1401218, 1401641, 1402081, 1402505, 1402848, 1403239, 1403634, 1404036, 1404456, 1404833, 1405246, 1405656, 1406048, 1406449, 1406831, 1407232, 1407653, 1408045, 1408427, 1408802, 1409214, 1409580]","[1401313, 1401751, 1402189, 1402608, 1402957, 1403369, 1403746, 1404156, 1404572, 1404953, 1405378, 1405784, 1406181, 1406555, 1406963, 1407372, 1407784, 1408178, 1408563, 1408937, 1409339, 1409721]","[1400460, 1400860, 1401261, 1401660, 1402060, 1402461, 1402861, 1403261, 1403660, 1404061, 1404482, 1404859, 1405272, 1405681, 1406073, 1406475, 1406858, 1407257, 1407679, 1408070, 1408452, 1408828, 1409241, 1409606]",42,R,ITM,1.1,
2,600,trial,0,73,73,73,trial,"['S', 'S', 'S', 'S', 'S', 'S', 'S', 'C', 'C', 'C', 'C', 'C', 'C', 'C', 'C', 'C', 'C', 'C', 'C', 'C', 'C', 'C', 'C']","[1415369, 1416118, 1416758, 1417337, 1417876, 1418474, 1419096, 1419714, 1420320, 1420952, 1421517, 1422089, 1422689, 1423267, 1423849, 1424433, 1425035, 1425598, 1426190, 1426768, 1427353, 1427951, 1428512]","[1415511, 1416223, 1416836, 1417427, 1417963, 1418549, 1419154, 1419813, 1420406, 1421058, 1421633, 1422199, 1422798, 1423373, 1423970, 1424553, 1425140, 1425731, 1426323, 1426907, 1427485, 1428084, 1428647]","[1414910, 1415510, 1416111, 1416711, 1417311, 1417911, 1418511, 1419111, 1419742, 1420348, 1420979, 1421545, 1422115, 1422715, 1423295, 1423876, 1424460, 1425061, 1425625, 1426217, 1426796, 1427380, 1427979, 1428540]",42,R,ITM,1.1,
4,600,trial,0,74,74,74,trial,"['S', 'S', 'S', 'S', 'S', 'S', 'C', 'C', 'C', 'C', 'C', 'C', 'C', 'C', 'C', 'C', 'C', 'C', 'C', 'C', 'C', 'C']","[1435058, 1435794, 1436366, 1436929, 1437503, 1438088, 1438695, 1439266, 1439854, 1440461, 1440982, 1441527, 1442155, 1442692, 1443237, 1443794, 1444355, 1444917, 1445471, 1446008, 1446544, 1447046]","[1435175, 1435899, 1436486, 1437046, 1437630, 1438195, 1438810, 1439393, 1439974, 1440568, 1441113, 1441650, 1442263, 1442834, 1443381, 1443918, 1444464, 1445068, 1445576, 1446125, 1446669, 1447177]","[1433975, 1434575, 1435175, 1435776, 1436376, 1436976, 1437575, 1438175, 1438721, 1439292, 1439881, 1440487, 1441007, 1441553, 1442181, 1442717, 1443263, 1443820, 1444380, 1444942, 1445496, 1446034, 1446569, 1447071]",42,R,ITM,1.1,
5,600,trial,0,75,75,75,trial,"['S', 'S', 'S', 'S', 'S', 'S', 'C', 'C', 'C', 'C', 'C', 'C', 'C', 'C', 'C', 'C', 'C', 'C', 'C', 'C', 'C', 'C']","[1453521, 1454197, 1454782, 1455372, 1455975, 1456528, 1457116, 1457721, 1458291, 1458833, 1459407, 1460017, 1460579, 1461150, 1461739, 1462317, 1462866, 1463431, 1464005, 1464544, 1465152, 1465704]","[1453619, 1454307, 1454897, 1455492, 1456115, 1456640, 1457232, 1457824, 1458391, 1458941, 1459505, 1460089, 1460677, 1461229, 1461841, 1462423, 1462986, 1463536, 1464113, 1464673, 1465261, 1465791]","[1452433, 1453032, 1453632, 1454232, 1454832, 1455432, 1456032, 1456632, 1457142, 1457746, 1458317, 1458859, 1459433, 1460042, 1460604, 1461177, 1461765, 1462342, 1462892, 1463457, 1464031, 1464569, 1465178, 1465730]",42,R,ITM,1.1,
4,400,trial,0,76,76,76,trial,"['S', 'S', 'S', 'S', 'S', 'S', 'S', 'S', 'C', 'C', 'C', 'C', 'C', 'C', 'C', 'C', 'C', 'C', 'C', 'C', 'C', 'C', 'C', 'C']","[1471603, 1471983, 1472326, 1472691, 1473084, 1473444, 1473806, 1474204, 1474556, 1474929, 1475320, 1475703, 1476081, 1476463, 1476858, 1477244, 1477637, 1478006, 1478411, 1478786, 1479183, 1479561, 1479946, 1480367]","[1471708, 1472108, 1472434, 1472780, 1473169, 1473529, 1473881, 1474294, 1474654, 1475033, 1475434, 1475829, 1476198, 1476581, 1476968, 1477353, 1477755, 1478128, 1478522, 1478921, 1479307, 1479678, 1480077, 1480485]","[1471435, 1471836, 1472235, 1472635, 1473035, 1473435, 1473836, 1474235, 1474582, 1474955, 1475346, 1475729, 1476107, 1476489, 1476885, 1477270, 1477662, 1478032, 1478436, 1478812, 1479208, 1479586, 1479971, 1480392]",42,R,ITM,1.1,
2,400,trial,0,77,77,77,trial,"['S', 'S', 'S', 'S', 'S', 'S', 'S', 'C', 'C', 'C', 'C', 'C', 'C', 'C', 'C', 'C', 'C', 'C', 'C', 'C', 'C', 'C', 'C']","[1486106, 1486346, 1487123, 1487588, 1488003, 1488444, 1488849, 1489254, 1489667, 1490082, 1490476, 1490869, 1491290, 1491698, 1492128, 1492527, 1492916, 1493321, 1493754, 1494127, 1494564, 1494964, 1495396]","[1486185, 1486465, 1487234, 1487695, 1488107, 1488527, 1488951, 1489347, 1489781, 1490184, 1490594, 1490974, 1491403, 1491816, 1492222, 1492641, 1493008, 1493432, 1493867, 1494246, 1494672, 1495079, 1495512]","[1486003, 1486402, 1486802, 1487202, 1487602, 1488003, 1488401, 1488802, 1489282, 1489693, 1490110, 1490502, 1490896, 1491316, 1491726, 1492156, 1492553, 1492943, 1493349, 1493782, 1494155, 1494591, 1494991, 1495422]",42,R,ITM,1.1,
6,400,trial,0,78,78,78,trial,"['S', 'S', 'S', 'S', 'S', 'S', 'S', 'C', 'C', 'C', 'C', 'C', 'C', 'C', 'C', 'C', 'C', 'C', 'C', 'C', 'C', 'C', 'C']","[1501083, 1501534, 1501950, 1502338, 1502776, 1503161, 1503561, 1503921, 1504303, 1504703, 1505095, 1505486, 1505899, 1506293, 1506679, 1507082, 1507516, 1507896, 1508308, 1508700, 1509116, 1509494, 1509882]","[1501181, 1501621, 1502038, 1502433, 1502856, 1503247, 1503656, 1504037, 1504425, 1504819, 1505210, 1505615, 1506015, 1506404, 1506798, 1507211, 1507642, 1508029, 1508429, 1508826, 1509233, 1509623, 1510019]","[1500750, 1501150, 1501550, 1501950, 1502350, 1502750, 1503151, 1503550, 1503947, 1504329, 1504730, 1505123, 1505514, 1505926, 1506320, 1506706, 1507108, 1507544, 1507923, 1508335, 1508726, 1509144, 1509522, 1509909]",42,R,ITM,1.1,
2,400,trial,0,79,79,79,trial,"['S', 'S', 'S', 'S', 'S', 'S', 'S', 'S', 'C', 'C', 'C', 'C', 'C', 'C', 'C', 'C', 'C', 'C', 'C', 'C', 'C', 'C', 'C', 'C']","[1515728, 1516069, 1516390, 1516736, 1517152, 1517552, 1517925, 1518352, 1518713, 1519074, 1519466, 1519855, 1520258, 1520621, 1520995, 1521420, 1521801, 1522179, 1522583, 1522993, 1523357, 1523730, 1524152, 1524562]","[1515832, 1516174, 1516480, 1516852, 1517246, 1517627, 1518043, 1518443, 1518824, 1519174, 1519579, 1519964, 1520358, 1520751, 1521120, 1521539, 1521929, 1522306, 1522707, 1523093, 1523460, 1523841, 1524274, 1524679]","[1515552, 1515953, 1516352, 1516752, 1517152, 1517552, 1517953, 1518351, 1518741, 1519101, 1519493, 1519882, 1520285, 1520649, 1521022, 1521447, 1521827, 1522206, 1522611, 1523020, 1523385, 1523758, 1524178, 1524589]",42,R,ITM,1.1,
4,400,trial,0,80,80,80,trial,"['S', 'S', 'S', 'S', 'S', 'S', 'S', 'C', 'C', 'C', 'C', 'C', 'C', 'C', 'C', 'C', 'C', 'C', 'C', 'C', 'C', 'C', 'C']","[1530224, 1530668, 1531066, 1531447, 1531846, 1532253, 1532655, 1533058, 1533455, 1533842, 1534224, 1534603, 1535008, 1535394, 1535758, 1536143, 1536518, 1536927, 1537337, 1537708, 1538098, 1538490, 1538855]","[1530352, 1530767, 1531156, 1531563, 1531942, 1532363, 1532753, 1533151, 1533560, 1533949, 1534328, 1534692, 1535107, 1535511, 1535879, 1536252, 1536619, 1537017, 1537417, 1537810, 1538182, 1538561, 1538937]","[1529927, 1530328, 1530727, 1531127, 1531527, 1531927, 1532327, 1532727, 1533083, 1533480, 1533868, 1534249, 1534628, 1535034, 1535421, 1535783, 1536168, 1536543, 1536953, 1537362, 1537733, 1538123, 1538515, 1538881]",42,R,ITM,1.1,
4,600,trial,0,81,81,81,trial,"['S', 'S', 'S', 'S', 'S', 'S', 'C', 'C', 'C', 'C', 'C', 'C', 'C', 'C', 'C', 'C', 'C', 'C', 'C', 'C', 'C', 'C']","[1545312, 1545990, 1546586, 1547143, 1547734, 1548319, 1548929, 1549517, 1550117, 1550699, 1551305, 1551900, 1552510, 1553113, 1553677, 1554258, 1554864, 1555436, 1556051, 1556628, 1557210, 1557775]","[1545416, 1546071, 1546677, 1547245, 1547816, 1548429, 1549018, 1549635, 1550223, 1550813, 1551425, 1552020, 1552628, 1553220, 1553788, 1554380, 1554961, 1555534, 1556122, 1556730, 1557324, 1557886]","[1544215, 1544815, 1545415, 1546015, 1546615, 1547215, 1547815, 1548416, 1548954, 1549543, 1550143, 1550725, 1551331, 1551926, 1552536, 1553138, 1553703, 1554284, 1554889, 1555462, 1556077, 1556654, 1557236, 1557800]",42,R,ITM,1.1,
3,600,trial,0,82,82,82,trial,"['S', 'S', 'S', 'S', 'S', 'C', 'C', 'C', 'C', 'C', 'C', 'C', 'C', 'C', 'C', 'C', 'C', 'C', 'C', 'C', 'C']","[1565156, 1565803, 1566406, 1567002, 1567607, 1568181, 1568829, 1569422, 1570017, 1570620, 1571237, 1571860, 1572436, 1573048, 1573667, 1574263, 1574850, 1575463, 1576050, 1576644, 1577227]","[1565258, 1565922, 1566530, 1567119, 1567730, 1568324, 1568963, 1569567, 1570165, 1570755, 1571366, 1571987, 1572563, 1573161, 1573758, 1574387, 1574979, 1575589, 1576197, 1576796, 1577365]","[1563454, 1564054, 1564654, 1565254, 1565854, 1566454, 1567054, 1567654, 1568206, 1568855, 1569447, 1570042, 1570646, 1571263, 1571886, 1572462, 1573073, 1573693, 1574289, 1574876, 1575489, 1576076, 1576670, 1577252]",42,R,ITM,1.1,
6,600,trial,0,83,83,83,trial,"['S', 'S', 'S', 'S', 'S', 'S', 'S', 'S', 'C', 'C', 'C', 'C', 'C', 'C', 'C', 'C', 'C', 'C', 'C', 'C', 'C', 'C', 'C', 'C']","[1583205, 1583624, 1584165, 1584736, 1585313, 1585890, 1586481, 1587076, 1587630, 1588205, 1588753, 1589317, 1589881, 1590456, 1591016, 1591578, 1592195, 1592804, 1593357, 1593906, 1594502, 1595062, 1595649, 1596226]","[1583336, 1583720, 1584254, 1584840, 1585438, 1586026, 1586613, 1587183, 1587762, 1588334, 1588875, 1589452, 1590019, 1590586, 1591149, 1591709, 1592305, 1592941, 1593537, 1594086, 1594667, 1595243, 1595828, 1596433]","[1582907, 1583506, 1584106, 1584706, 1585306, 1585906, 1586506, 1587106, 1587656, 1588232, 1588781, 1589344, 1589909, 1590483, 1591044, 1591606, 1592221, 1592830, 1593384, 1593932, 1594529, 1595088, 1595676, 1596254]",42,R,ITM,1.1,
7,400,trial,0,84,84,84,trial,"['S', 'S', 'S', 'C', 'C', 'C', 'C', 'C', 'C', 'C', 'C', 'C', 'C', 'C', 'C', 'C', 'C', 'C', 'C']","[1603984, 1604406, 1604798, 1605185, 1605570, 1605971, 1606367, 1606750, 1607129, 1607520, 1607938, 1608330, 1608723, 1609090, 1609486, 1609886, 1610264, 1610618, 1610991]","[1604092, 1604518, 1604920, 1605291, 1605687, 1606093, 1606495, 1606874, 1607249, 1607645, 1608052, 1608441, 1608835, 1609218, 1609605, 1610012, 1610391, 1610746, 1611134]","[1601985, 1602384, 1602784, 1603184, 1603585, 1603984, 1604384, 1604785, 1605212, 1605597, 1605998, 1606394, 1606777, 1607156, 1607547, 1607965, 1608356, 1608750, 1609117, 1609512, 1609913, 1610292, 1610646, 1611018]",42,R,ITM,1.1,
5,400,trial,0,85,85,85,trial,"['S', 'S', 'S', 'S', 'S', 'S', 'C', 'C', 'C', 'C', 'C', 'C', 'C', 'C', 'C', 'C', 'C', 'C', 'C', 'C', 'C', 'C']","[1617323, 1617748, 1618181, 1618585, 1618977, 1619394, 1619764, 1620142, 1620536, 1620945, 1621342, 1621736, 1622114, 1622508, 1622906, 1623273, 1623647, 1624047, 1624452, 1624824, 1625189, 1625575]","[1617430, 1617865, 1618316, 1618711, 1619085, 1619494, 1619872, 1620224, 1620637, 1621053, 1621443, 1621843, 1622223, 1622611, 1623004, 1623379, 1623762, 1624152, 1624539, 1624924, 1625293, 1625695]","[1616594, 1616993, 1617393, 1617794, 1618193, 1618593, 1618994, 1619394, 1619789, 1620167, 1620561, 1620971, 1621367, 1621762, 1622140, 1622534, 1622932, 1623300, 1623672, 1624073, 1624477, 1624850, 1625216, 1625601]",42,R,ITM,1.1,
3,600,trial,0,86,86,86,trial,"['S', 'S', 'S', 'S', 'S', 'S', 'S', 'S', 'C', 'C', 'C', 'C', 'C', 'C', 'C', 'C', 'C', 'C', 'C', 'C', 'C', 'C', 'C', 'C']","[1631179, 1631521, 1632224, 1632823, 1633431, 1633995, 1634603, 1635219, 1635791, 1636355, 1636907, 1637488, 1638069, 1638677, 1639247, 1639805, 1640384, 1640980, 1641548, 1642140, 1642683, 1643220, 1643781, 1644339]","[1631314, 1631789, 1632371, 1632964, 1633553, 1634125, 1634715, 1635317, 1635948, 1636473, 1637043, 1637659, 1638255, 1638817, 1639404, 1639956, 1640548, 1641122, 1641693, 1642268, 1642814, 1643362, 1643926, 1644505]","[1631021, 1631620, 1632220, 1632819, 1633419, 1634019, 1634619, 1635219, 1635817, 1636380, 1636932, 1637514, 1638094, 1638703, 1639273, 1639831, 1640410, 1641006, 1641574, 1642166, 1642708, 1643245, 1643806, 1644364]",42,R,ITM,1.1,
5,600,trial,0,87,87,87,trial,"['S', 'S', 'S', 'S', 'S', 'S', 'C', 'C', 'C', 'C', 'C', 'C', 'C', 'C', 'C', 'C', 'C', 'C', 'C', 'C', 'C', 'C']","[1650756, 1651376, 1651993, 1652587, 1653164, 1653742, 1654351, 1654905, 1655480, 1656013, 1656581, 1657136, 1657665, 1658244, 1658769, 1659255, 1659783, 1660331, 1660851, 1661392, 1661918, 1662426]","[1650889, 1651517, 1652148, 1652748, 1653324, 1653894, 1654491, 1655046, 1655616, 1656169, 1656706, 1657242, 1657784, 1658345, 1658889, 1659368, 1659912, 1660457, 1660988, 1661512, 1662026, 1662565]","[1649662, 1650262, 1650862, 1651462, 1652061, 1652661, 1653261, 1653861, 1654377, 1654931, 1655506, 1656039, 1656606, 1657162, 1657691, 1658270, 1658795, 1659281, 1659808, 1660356, 1660876, 1661419, 1661944, 1662451]",42,R,ITM,1.1,
2,600,trial,0,88,88,88,trial,"['S', 'S', 'S', 'S', 'S', 'S', 'S', 'S', 'C', 'C', 'C', 'C', 'C', 'C', 'C', 'C', 'C', 'C', 'C', 'C', 'C', 'C', 'C', 'C']","[1668253, 1668672, 1669411, 1670042, 1670687, 1671232, 1671794, 1672394, 1673003, 1673566, 1674143, 1674723, 1675320, 1675918, 1676472, 1677066, 1677654, 1678243, 1678799, 1679371, 1679954, 1680513, 1681100, 1681655]","[1668354, 1668866, 1669548, 1670150, 1670772, 1671324, 1671869, 1672462, 1673112, 1673680, 1674221, 1674807, 1675424, 1676013, 1676563, 1677161, 1677746, 1678320, 1678888, 1679457, 1680022, 1680608, 1681202, 1681759]","[1668225, 1668824, 1669425, 1670024, 1670624, 1671225, 1671825, 1672425, 1673029, 1673592, 1674170, 1674750, 1675347, 1675945, 1676498, 1677093, 1677680, 1678271, 1678827, 1679397, 1679982, 1680539, 1681128, 1681682]",42,R,ITM,1.1,
7,600,trial,0,89,89,89,trial,"['S', 'S', 'S', 'S', 'S', 'S', 'S', 'S', 'C', 'C', 'C', 'C', 'C', 'C', 'C', 'C', 'C', 'C', 'C', 'C', 'C', 'C', 'C', 'C']","[1687599, 1687860, 1688413, 1689080, 1689625, 1690214, 1690800, 1691407, 1691987, 1692538, 1693088, 1693644, 1694172, 1694696, 1695238, 1695810, 1696327, 1696836, 1697337, 1697884, 1698342, 1698868, 1699389, 1699936]","[1687712, 1687951, 1688519, 1689152, 1689690, 1690278, 1690863, 1691466, 1692057, 1692614, 1693151, 1693684, 1694242, 1694780, 1695318, 1695892, 1696416, 1696946, 1697460, 1697993, 1698459, 1698985, 1699505, 1700040]","[1687257, 1687856, 1688456, 1689056, 1689656, 1690256, 1690856, 1691456, 1692014, 1692565, 1693116, 1693671, 1694199, 1694724, 1695265, 1695837, 1696354, 1696863, 1697364, 1697910, 1698370, 1698895, 1699416, 1699963]",42,R,ITM,1.1,
2,600,trial,0,90,90,90,trial,"['S', 'S', 'S', 'S', 'S', 'C', 'C', 'C', 'C', 'C', 'C', 'C', 'C', 'C', 'C', 'C', 'C', 'C', 'C', 'C', 'C']","[1707237, 1707855, 1708407, 1708965, 1709592, 1710171, 1710747, 1711319, 1711942, 1712496, 1713030, 1713595, 1714148, 1714703, 1715252, 1715832, 1716396, 1716915, 1717470, 1717981, 1718490]","[1707323, 1707939, 1708503, 1709079, 1709698, 1710259, 1710853, 1711439, 1712069, 1712586, 1713131, 1713703, 1714252, 1714797, 1715355, 1715926, 1716514, 1717019, 1717568, 1718092, 1718615]","[1705453, 1706052, 1706653, 1707253, 1707853, 1708452, 1709053, 1709654, 1710197, 1710775, 1711346, 1711970, 1712523, 1713056, 1713622, 1714174, 1714729, 1715278, 1715859, 1716423, 1716942, 1717497, 1718007, 1718517]",42,R,ITM,1.1,
5,400,trial,0,91,91,91,trial,"['S', 'S', 'S', 'S', 'S', 'S', 'S', 'C', 'C', 'C', 'C', 'C', 'C', 'C', 'C', 'C', 'C', 'C', 'C', 'C', 'C', 'C', 'C']","[1724404, 1724882, 1725319, 1725719, 1726092, 1726493, 1726901, 1727323, 1727710, 1728084, 1728471, 1728868, 1729236, 1729606, 1729976, 1730356, 1730741, 1731099, 1731454, 1731830, 1732228, 1732584, 1732918]","[1724498, 1724997, 1725419, 1725809, 1726184, 1726607, 1727004, 1727433, 1727827, 1728224, 1728600, 1728994, 1729368, 1729731, 1730105, 1730492, 1730872, 1731224, 1731590, 1731966, 1732357, 1732706, 1733072]","[1724158, 1724557, 1724957, 1725358, 1725757, 1726157, 1726557, 1726957, 1727348, 1727736, 1728110, 1728496, 1728893, 1729263, 1729632, 1730001, 1730382, 1730766, 1731126, 1731479, 1731856, 1732253, 1732610, 1732944]",42,R,ITM,1.1,
2,400,trial,0,92,92,92,trial,"['S', 'S', 'S', 'S', 'S', 'S', 'C', 'C', 'C', 'C', 'C', 'C', 'C', 'C', 'C', 'C', 'C', 'C', 'C', 'C', 'C', 'C']","[1739231, 1739653, 1740082, 1740461, 1740860, 1741215, 1741603, 1742017, 1742412, 1742794, 1743208, 1743599, 1743995, 1744392, 1744802, 1745217, 1745601, 1745997, 1746405, 1746808, 1747229, 1747613]","[1739293, 1739737, 1740163, 1740560, 1740946, 1741319, 1741712, 1742075, 1742510, 1742895, 1743295, 1743697, 1744103, 1744500, 1744907, 1745316, 1745707, 1746118, 1746511, 1746920, 1747342, 1747732]","[1738431, 1738830, 1739231, 1739630, 1740032, 1740431, 1740830, 1741232, 1741630, 1742045, 1742439, 1742821, 1743235, 1743627, 1744023, 1744418, 1744829, 1745245, 1745629, 1746025, 1746432, 1746835, 1747257, 1747641]",42,R,ITM,1.1,
6,600,trial,0,93,93,93,trial,"['S', 'S', 'S', 'S', 'S', 'S', 'S', 'S', 'C', 'C', 'C', 'C', 'C', 'C', 'C', 'C', 'C', 'C', 'C', 'C', 'C', 'C', 'C', 'C']","[1753447, 1753870, 1754342, 1754958, 1755575, 1756168, 1756703, 1757252, 1757880, 1758416, 1758946, 1759508, 1760036, 1760584, 1761123, 1761649, 1762188, 1762719, 1763274, 1763849, 1764396, 1764928, 1765472, 1766009]","[1753550, 1753964, 1754424, 1755057, 1755681, 1756271, 1756819, 1757376, 1758009, 1758537, 1759097, 1759659, 1760175, 1760729, 1761245, 1761797, 1762329, 1762872, 1763408, 1763994, 1764543, 1765074, 1765628, 1766167]","[1753158, 1753758, 1754358, 1754958, 1755558, 1756158, 1756759, 1757359, 1757906, 1758443, 1758972, 1759535, 1760063, 1760611, 1761149, 1761677, 1762215, 1762746, 1763301, 1763875, 1764422, 1764956, 1765498, 1766037]",42,R,ITM,1.1,
5,600,trial,0,94,94,94,trial,"['S', 'S', 'S', 'S', 'S', 'S', 'S', 'S', 'C', 'C', 'C', 'C', 'C', 'C', 'C', 'C', 'C', 'C', 'C', 'C', 'C', 'C', 'C', 'C']","[1771889, 1772276, 1772785, 1773420, 1774103, 1774683, 1775264, 1775845, 1776487, 1777096, 1777675, 1778219, 1778751, 1779284, 1779852, 1780393, 1780940, 1781480, 1782069, 1782656, 1783156, 1783713, 1784270, 1784816]","[1771983, 1772418, 1772921, 1773553, 1774215, 1774809, 1775405, 1775997, 1776634, 1777244, 1777843, 1778394, 1778926, 1779451, 1780018, 1780553, 1781120, 1781672, 1782235, 1782803, 1783312, 1783879, 1784441, 1784995]","[1771753, 1772353, 1772953, 1773553, 1774153, 1774753, 1775353, 1775953, 1776514, 1777122, 1777700, 1778245, 1778778, 1779309, 1779877, 1780420, 1780966, 1781506, 1782094, 1782681, 1783183, 1783739, 1784297, 1784842]",42,R,ITM,1.1,
3,400,trial,0,95,95,95,trial,"['S', 'S', 'S', 'S', 'S', 'S', 'C', 'C', 'C', 'C', 'C', 'C', 'C', 'C', 'C', 'C', 'C', 'C', 'C', 'C', 'C', 'C']","[1791334, 1791731, 1792121, 1792488, 1792873, 1793273, 1793689, 1794082, 1794473, 1794861, 1795258, 1795664, 1796070, 1796481, 1796872, 1797286, 1797692, 1798120, 1798509, 1798906, 1799334, 1799743]","[1791440, 1791841, 1792237, 1792604, 1792969, 1793391, 1793805, 1794210, 1794596, 1794979, 1795392, 1795789, 1796195, 1796596, 1797001, 1797413, 1797827, 1798228, 1798629, 1799051, 1799474, 1799888]","[1790532, 1790931, 1791331, 1791731, 1792132, 1792531, 1792931, 1793331, 1793715, 1794108, 1794499, 1794886, 1795283, 1795690, 1796096, 1796506, 1796897, 1797312, 1797718, 1798146, 1798536, 1798932, 1799360, 1799769]",42,R,ITM,1.1,
4,600,trial,0,96,96,96,trial,"['S', 'S', 'S', 'S', 'S', 'S', 'S', 'C', 'C', 'C', 'C', 'C', 'C', 'C', 'C', 'C', 'C', 'C', 'C', 'C', 'C', 'C', 'C']","[1805681, 1806272, 1806968, 1807512, 1808121, 1808726, 1809371, 1809949, 1810550, 1811134, 1811758, 1812324, 1812895, 1813499, 1814068, 1814663, 1815230, 1815788, 1816381, 1816937, 1817497, 1818042, 1818632]","[1805756, 1806479, 1807149, 1807719, 1808264, 1808833, 1809528, 1810077, 1810665, 1811269, 1811908, 1812509, 1813050, 1813700, 1814245, 1814910, 1815494, 1816079, 1816651, 1817271, 1817812, 1818391]","[1805209, 1805808, 1806408, 1807008, 1807608, 1808208, 1808808, 1809409, 1809975, 1810576, 1811160, 1811783, 1812349, 1812921, 1813525, 1814093, 1814688, 1815256, 1815814, 1816408, 1816963, 1817523, 1818067, 1818657]",42,R,ITM,1.1,
7,600,trial,0,97,97,97,trial,"['S', 'S', 'S', 'S', 'S', 'S', 'S', 'S', 'C', 'C', 'C', 'C', 'C', 'C', 'C', 'C', 'C', 'C', 'C', 'C', 'C', 'C', 'C', 'C']","[1824627, 1825184, 1825656, 1826217, 1826803, 1827355, 1827935, 1828530, 1829142, 1829727, 1830256, 1830782, 1831353, 1831894, 1832448, 1833037, 1833568, 1834105, 1834689, 1835212, 1835761, 1836284, 1836858, 1837408]","[1824732, 1825282, 1825785, 1826307, 1826929, 1827517, 1828103, 1828685, 1829300, 1829885, 1830413, 1830935, 1831518, 1832072, 1832636, 1833198, 1833726, 1834296, 1834845, 1835377, 1835936, 1836461, 1837045, 1837606]","[1824444, 1825043, 1825643, 1826243, 1826843, 1827443, 1828043, 1828643, 1829169, 1829754, 1830283, 1830808, 1831380, 1831920, 1832474, 1833065, 1833595, 1834133, 1834716, 1835240, 1835789, 1836312, 1836886, 1837434]",42,R,ITM,1.1,
3,400,trial,0,98,98,98,trial,"['S', 'S', 'S', 'S', 'S', 'S', 'S', 'C', 'C', 'C', 'C', 'C', 'C', 'C', 'C', 'C', 'C', 'C', 'C', 'C', 'C', 'C', 'C']","[1843484, 1843826, 1844174, 1844605, 1844970, 1845361, 1845806, 1846206, 1846588, 1846985, 1847393, 1847817, 1848210, 1848598, 1849040, 1849449, 1849870, 1850299, 1850701, 1851103, 1851511, 1851901, 1852312]","[1843603, 1843935, 1844289, 1844706, 1845078, 1845476, 1845906, 1846310, 1846691, 1847095, 1847508, 1847937, 1848345, 1848745, 1849192, 1849600, 1850013, 1850413, 1850823, 1851242, 1851656, 1852044, 1852447]","[1843004, 1843404, 1843805, 1844205, 1844605, 1845005, 1845405, 1845806, 1846232, 1846614, 1847011, 1847418, 1847842, 1848236, 1848624, 1849066, 1849475, 1849895, 1850324, 1850727, 1851128, 1851537, 1851927, 1852338]",42,R,ITM,1.1,
6,400,trial,0,99,99,99,trial,"['S', 'S', 'S', 'S', 'S', 'S', 'S', 'S', 'S', 'C', 'C', 'C', 'C', 'C', 'C', 'C', 'C', 'C', 'C', 'C', 'C', 'C', 'C', 'C', 'C']","[1858196, 1858564, 1858885, 1859268, 1859594, 1859983, 1860341, 1860714, 1861096, 1861559, 1861934, 1862277, 1862641, 1863020, 1863389, 1863743, 1864107, 1864480, 1864827, 1865205, 1865553, 1865929, 1866288, 1866611, 1866956]","[1858293, 1858685, 1859011, 1859343, 1859700, 1860090, 1860445, 1860800, 1861203, 1861673, 1862048, 1862407, 1862774, 1863147, 1863503, 1863875, 1864246, 1864602, 1864963, 1865329, 1865687, 1866073, 1866416, 1866757, 1867084]","[1858056, 1858456, 1858856, 1859256, 1859656, 1860057, 1860456, 1860856, 1861585, 1861961, 1862303, 1862668, 1863048, 1863416, 1863770, 1864133, 1864507, 1864855, 1865232, 1865580, 1865956, 1866315, 1866639, 1866983]",42,R,ITM,1.1,
7,400,trial,0,100,100,100,trial,"['S', 'S', 'S', 'S', 'S', 'S', 'S', 'C', 'C', 'C', 'C', 'C', 'C', 'C', 'C', 'C', 'C', 'C', 'C', 'C', 'C', 'C', 'C']","[1873022, 1873383, 1873810, 1874173, 1874538, 1874929, 1875336, 1875748, 1876118, 1876526, 1876897, 1877287, 1877650, 1878039, 1878430, 1878803, 1879141, 1879534, 1879923, 1880291, 1880648, 1881034, 1881407]","[1873111, 1873494, 1873913, 1874289, 1874657, 1875069, 1875473, 1875873, 1876257, 1876652, 1877030, 1877432, 1877803, 1878190, 1878556, 1878925, 1879259, 1879652, 1880037, 1880401, 1880776, 1881163, 1881534]","[1872622, 1873021, 1873421, 1873821, 1874222, 1874621, 1875021, 1875422, 1875776, 1876145, 1876552, 1876924, 1877314, 1877678, 1878066, 1878458, 1878831, 1879169, 1879561, 1879951, 1880318, 1880675, 1881062, 1881434]",42,R,ITM,1.1,
4,400,trial,0,101,101,101,trial,"['S', 'S', 'S', 'S', 'S', 'S', 'S', 'C', 'C', 'C', 'C', 'C', 'C', 'C', 'C', 'C', 'C', 'C', 'C', 'C', 'C', 'C', 'C']","[1887307, 1887760, 1888159, 1888556, 1888940, 1889341, 1889760, 1890205, 1890617, 1891015, 1891388, 1891775, 1892182, 1892594, 1892979, 1893374, 1893809, 1894248, 1894624, 1895019, 1895418, 1895800, 1896163]","[1887409, 1887880, 1888283, 1888693, 1889070, 1889457, 1889880, 1890332, 1890757, 1891150, 1891522, 1891917, 1892328, 1892742, 1893113, 1893500, 1893940, 1894371, 1894764, 1895148, 1895547, 1895941, 1896317]","[1887032, 1887432, 1887833, 1888232, 1888632, 1889032, 1889432, 1889832, 1890231, 1890643, 1891041, 1891414, 1891801, 1892207, 1892620, 1893005, 1893400, 1893834, 1894274, 1894649, 1895045, 1895444, 1895826, 1896188]",42,R,ITM,1.1,
3,600,trial,0,102,102,102,trial,"['S', 'S', 'S', 'S', 'S', 'S', 'S', 'C', 'C', 'C', 'C', 'C', 'C', 'C', 'C', 'C', 'C', 'C', 'C', 'C', 'C', 'C', 'C']","[1901946, 1902642, 1903241, 1903864, 1904474, 1905047, 1905677, 1906259, 1906860, 1907427, 1908003, 1908564, 1909149, 1909725, 1910276, 1910852, 1911446, 1912020, 1912566, 1913137, 1913699, 1914267, 1914842]","[1902045, 1902771, 1903377, 1904018, 1904608, 1905192, 1905821, 1906418, 1907028, 1907585, 1908172, 1908749, 1909317, 1909891, 1910462, 1911046, 1911618, 1912168, 1912735, 1913302, 1913856, 1914390, 1914968]","[1901545, 1902145, 1902745, 1903345, 1903945, 1904545, 1905145, 1905745, 1906285, 1906885, 1907452, 1908029, 1908589, 1909175, 1909750, 1910301, 1910878, 1911472, 1912046, 1912592, 1913162, 1913724, 1914293, 1914867]",42,R,ITM,1.1,
7,600,trial,0,103,103,103,trial,"['S', 'S', 'S', 'S', 'S', 'S', 'C', 'C', 'C', 'C', 'C', 'C', 'C', 'C', 'C', 'C', 'C', 'C', 'C', 'C', 'C', 'C']","[1921258, 1921968, 1922577, 1923122, 1923686, 1924240, 1924800, 1925381, 1925969, 1926554, 1927103, 1927663, 1928255, 1928822, 1929384, 1929951, 1930541, 1931106, 1931693, 1932240, 1932781, 1933332]","[1921364, 1922082, 1922696, 1923248, 1923843, 1924404, 1924990, 1925560, 1926141, 1926687, 1927242, 1927822, 1928407, 1928990, 1929554, 1930109, 1930694, 1931256, 1931853, 1932410, 1932921, 1933555]","[1920179, 1920777, 1921377, 1921977, 1922577, 1923177, 1923777, 1924377, 1924827, 1925408, 1925997, 1926581, 1927131, 1927691, 1928283, 1928850, 1929412, 1929977, 1930568, 1931133, 1931720, 1932268, 1932809, 1933359]",42,R,ITM,1.1,
7,600,trial,0,104,104,104,trial,"['S', 'S', 'S', 'S', 'S', 'S', 'S', 'S', 'C', 'C', 'C', 'C', 'C', 'C', 'C', 'C', 'C', 'C', 'C', 'C', 'C', 'C', 'C', 'C']","[1939171, 1939664, 1940225, 1940775, 1941359, 1941975, 1942557, 1943123, 1943734, 1944287, 1944865, 1945421, 1945958, 1946537, 1947106, 1947648, 1948212, 1948758, 1949334, 1949883, 1950441, 1951032, 1951601, 1952176]","[1939272, 1939816, 1940334, 1940892, 1941476, 1942091, 1942683, 1943248, 1943843, 1944421, 1945014, 1945562, 1946095, 1946687, 1947223, 1947793, 1948360, 1948918, 1949499, 1950058, 1950606, 1951181, 1951770, 1952329]","[1939017, 1939616, 1940216, 1940816, 1941416, 1942017, 1942617, 1943217, 1943760, 1944313, 1944892, 1945448, 1945985, 1946565, 1947132, 1947675, 1948239, 1948785, 1949362, 1949910, 1950468, 1951058, 1951628, 1952202]",42,R,ITM,1.1,
4,400,trial,0,105,105,105,trial,"['S', 'S', 'S', 'S', 'S', 'S', 'S', 'S', 'C', 'C', 'C', 'C', 'C', 'C', 'C', 'C', 'C', 'C', 'C', 'C', 'C', 'C', 'C', 'C']","[1957995, 1958403, 1958696, 1959067, 1959447, 1959806, 1960196, 1960571, 1960984, 1961339, 1961743, 1962129, 1962509, 1962901, 1963307, 1963706, 1964080, 1964476, 1964871, 1965256, 1965634, 1966020, 1966391, 1966760]","[1958103, 1958516, 1958794, 1959187, 1959550, 1959932, 1960335, 1960709, 1961100, 1961479, 1961881, 1962257, 1962638, 1963035, 1963427, 1963857, 1964209, 1964621, 1965009, 1965406, 1965789, 1966145, 1966517, 1966903]","[1957847, 1958246, 1958646, 1959047, 1959447, 1959847, 1960247, 1960647, 1961010, 1961365, 1961768, 1962155, 1962534, 1962928, 1963332, 1963731, 1964105, 1964503, 1964897, 1965282, 1965660, 1966046, 1966416, 1966786]",42,R,ITM,1.1,
2,400,trial,0,106,106,106,trial,"['S', 'S', 'S', 'S', 'S', 'S', 'C', 'C', 'C', 'C', 'C', 'C', 'C', 'C', 'C', 'C', 'C', 'C', 'C', 'C', 'C', 'C']","[1972835, 1973280, 1973732, 1974105, 1974515, 1974899, 1975309, 1975729, 1976116, 1976449, 1976827, 1977235, 1977616, 1977991, 1978360, 1978749, 1979153, 1979556, 1979935, 1980304, 1980670, 1981071]","[1972956, 1973384, 1973822, 1974228, 1974644, 1975040, 1975436, 1975852, 1976231, 1976576, 1976956, 1977353, 1977737, 1978113, 1978480, 1978875, 1979261, 1979661, 1980049, 1980401, 1980785, 1981198]","[1972132, 1972532, 1972932, 1973332, 1973731, 1974132, 1974533, 1974932, 1975336, 1975756, 1976142, 1976476, 1976855, 1977263, 1977643, 1978018, 1978388, 1978777, 1979180, 1979584, 1979962, 1980331, 1980698, 1981097]",42,R,ITM,1.1,
5,600,trial,0,107,107,107,trial,"['S', 'S', 'S', 'S', 'S', 'S', 'C', 'C', 'C', 'C', 'C', 'C', 'C', 'C', 'C', 'C', 'C', 'C', 'C', 'C', 'C', 'C']","[1987584, 1988233, 1988815, 1989347, 1989911, 1990395, 1991059, 1991658, 1992197, 1992736, 1993302, 1993841, 1994424, 1994980, 1995534, 1996112, 1996695, 1997266, 1997809, 1998367, 1998937, 1999468]","[1987674, 1988361, 1988959, 1989468, 1990044, 1990535, 1991219, 1991816, 1992366, 1992902, 1993482, 1994013, 1994567, 1995140, 1995688, 1996249, 1996838, 1997432, 1998000, 1998550, 1999058, 1999657]","[1986459, 1987059, 1987659, 1988259, 1988859, 1989459, 1990060, 1990660, 1991085, 1991684, 1992222, 1992762, 1993327, 1993867, 1994449, 1995005, 1995559, 1996138, 1996721, 1997292, 1997835, 1998393, 1998963, 1999494]",42,R,ITM,1.1,
6,600,trial,0,108,108,108,trial,"['S', 'S', 'S', 'S', 'S', 'C', 'C', 'C', 'C', 'C', 'C', 'C', 'C', 'C', 'C', 'C', 'C', 'C', 'C', 'C', 'C']","[2006512, 2007201, 2007822, 2008339, 2008942, 2009572, 2010178, 2010727, 2011300, 2011882, 2012451, 2012992, 2013548, 2014087, 2014664, 2015225, 2015791, 2016347, 2016888, 2017472, 2018017]","[2006642, 2007344, 2007952, 2008497, 2009095, 2009705, 2010312, 2010888, 2011429, 2012047, 2012585, 2013116, 2013704, 2014257, 2014820, 2015422, 2015946, 2016541, 2017061, 2017672, 2018230]","[2004843, 2005442, 2006042, 2006642, 2007242, 2007842, 2008442, 2009042, 2009598, 2010206, 2010754, 2011328, 2011909, 2012479, 2013019, 2013575, 2014113, 2014692, 2015252, 2015817, 2016374, 2016916, 2017499, 2018043]",42,R,ITM,1.1,
5,400,trial,0,109,109,109,trial,"['S', 'S', 'S', 'S', 'S', 'S', 'S', 'C', 'C', 'C', 'C', 'C', 'C', 'C', 'C', 'C', 'C', 'C', 'C', 'C', 'C', 'C', 'C']","[2023959, 2024440, 2024823, 2025276, 2025676, 2026082, 2026487, 2026870, 2027273, 2027691, 2028068, 2028466, 2028883, 2029250, 2029656, 2030076, 2030480, 2030908, 2031287, 2031734, 2032119, 2032520, 2032949]","[2024100, 2024556, 2024940, 2025406, 2025800, 2026210, 2026598, 2026997, 2027407, 2027799, 2028209, 2028620, 2028996, 2029391, 2029775, 2030216, 2030617, 2031025, 2031427, 2031842, 2032250, 2032648, 2033073]","[2023677, 2024076, 2024476, 2024877, 2025276, 2025676, 2026077, 2026477, 2026896, 2027298, 2027716, 2028095, 2028491, 2028909, 2029276, 2029681, 2030103, 2030507, 2030935, 2031312, 2031760, 2032145, 2032545, 2032974]",42,R,ITM,1.1,
2,600,trial,0,110,110,110,trial,"['S', 'S', 'S', 'S', 'S', 'S', 'S', 'S', 'C', 'C', 'C', 'C', 'C', 'C', 'C', 'C', 'C', 'C', 'C', 'C', 'C', 'C', 'C', 'C']","[2038604, 2039031, 2039517, 2040074, 2040674, 2041259, 2041836, 2042432, 2043022, 2043597, 2044139, 2044690, 2045270, 2045796, 2046350, 2046924, 2047469, 2048026, 2048560, 2049127, 2049696, 2050241, 2050833, 2051419]","[2038714, 2039129, 2039621, 2040180, 2040764, 2041372, 2041940, 2042537, 2043143, 2043695, 2044250, 2044835, 2045416, 2045942, 2046505, 2047075, 2047644, 2048188, 2048693, 2049278, 2049852, 2050426, 2051019, 2051589]","[2038275, 2038875, 2039475, 2040074, 2040674, 2041274, 2041874, 2042474, 2043048, 2043624, 2044167, 2044717, 2045297, 2045824, 2046377, 2046952, 2047496, 2048053, 2048586, 2049155, 2049723, 2050269, 2050861, 2051445]",42,R,ITM,1.1,
4,600,trial,0,111,111,111,trial,"['S', 'S', 'S', 'S', 'S', 'S', 'S', 'S', 'C', 'C', 'C', 'C', 'C', 'C', 'C', 'C', 'C', 'C', 'C', 'C', 'C', 'C', 'C', 'C']","[2057100, 2057594, 2058074, 2058665, 2059227, 2059816, 2060406, 2061026, 2061612, 2062215, 2062801, 2063371, 2063948, 2064563, 2065161, 2065790, 2066396, 2066921, 2067506, 2068088, 2068720, 2069342, 2069928, 2070528]","[2057190, 2057700, 2058208, 2058773, 2059365, 2059927, 2060523, 2061149, 2061736, 2062343, 2062922, 2063493, 2064099, 2064673, 2065272, 2065907, 2066522, 2067067, 2067668, 2068260, 2068840, 2069440, 2070060, 2070653]","[2056866, 2057465, 2058065, 2058665, 2059266, 2059866, 2060466, 2061066, 2061637, 2062240, 2062827, 2063396, 2063975, 2064588, 2065187, 2065817, 2066421, 2066947, 2067532, 2068114, 2068746, 2069368, 2069954, 2070553]",42,R,ITM,1.1,
4,600,trial,0,112,112,112,trial,"['S', 'S', 'S', 'S', 'S', 'S', 'S', 'C', 'C', 'C', 'C', 'C', 'C', 'C', 'C', 'C', 'C', 'C', 'C', 'C', 'C', 'C', 'C']","[2076660, 2077239, 2077829, 2078465, 2079083, 2079643, 2080250, 2080850, 2081396, 2081843, 2082435, 2083008, 2083662, 2084300, 2084919, 2085469, 2086001, 2086513, 2087216, 2087858, 2088369, 2088902, 2089264]","[2076784, 2077349, 2077899, 2078582, 2079223, 2079759, 2080371, 2080967, 2081507, 2081975, 2082545, 2083136, 2083785, 2084423, 2085024, 2085583, 2086129, 2086636, 2087330, 2087984, 2088476, 2089012, 2089377]","[2076118, 2076718, 2077318, 2077917, 2078517, 2079117, 2079717, 2080317, 2080877, 2081422, 2081868, 2082460, 2083034, 2083688, 2084326, 2084944, 2085495, 2086027, 2086539, 2087241, 2087883, 2088394, 2088928, 2089289]",42,R,ITM,1.1,
7,400,trial,0,113,113,113,trial,"['S', 'S', 'S', 'S', 'S', 'S', 'S', 'C', 'C', 'C', 'C', 'C', 'C', 'C', 'C', 'C', 'C', 'C', 'C', 'C', 'C', 'C', 'C']","[2095203, 2095686, 2096095, 2096498, 2096889, 2097284, 2097676, 2098075, 2098496, 2098892, 2099283, 2099667, 2100055, 2100489, 2100876, 2101297, 2101710, 2102089, 2102467, 2102888, 2103264, 2103643, 2104064]","[2095333, 2095781, 2096219, 2096629, 2097013, 2097405, 2097793, 2098189, 2098617, 2099008, 2099402, 2099789, 2100170, 2100579, 2101015, 2101420, 2101819, 2102216, 2102597, 2103005, 2103399, 2103784, 2104177]","[2094934, 2095332, 2095732, 2096133, 2096532, 2096932, 2097332, 2097732, 2098102, 2098523, 2098919, 2099310, 2099694, 2100082, 2100515, 2100902, 2101324, 2101737, 2102116, 2102495, 2102916, 2103291, 2103669, 2104090]",42,R,ITM,1.1,
3,600,trial,0,114,114,114,trial,"['S', 'S', 'S', 'S', 'S', 'S', 'S', 'C', 'C', 'C', 'C', 'C', 'C', 'C', 'C', 'C', 'C', 'C', 'C', 'C', 'C', 'C', 'C']","[2110256, 2110996, 2111636, 2112252, 2112830, 2113465, 2114080, 2114666, 2115253, 2115840, 2116448, 2117072, 2117673, 2118307, 2118930, 2119530, 2120117, 2120715, 2121338, 2121992, 2122570, 2123169, 2123807]","[2110393, 2111114, 2111729, 2112372, 2112951, 2113563, 2114187, 2114766, 2115374, 2115974, 2116579, 2117187, 2117795, 2118425, 2119056, 2119647, 2120246, 2120842, 2121450, 2122116, 2122695, 2123289, 2123909]","[2109851, 2110451, 2111051, 2111651, 2112251, 2112851, 2113452, 2114052, 2114692, 2115278, 2115865, 2116473, 2117098, 2117699, 2118333, 2118956, 2119556, 2120142, 2120740, 2121364, 2122017, 2122597, 2123195, 2123833]",42,R,ITM,1.1,
2,400,trial,0,115,115,115,trial,"['S', 'S', 'S', 'S', 'S', 'S', 'C', 'C', 'C', 'C', 'C', 'C', 'C', 'C', 'C', 'C', 'C', 'C', 'C', 'C', 'C', 'C']","[2130169, 2130590, 2130973, 2131367, 2131758, 2132141, 2132547, 2132939, 2133329, 2133707, 2134112, 2134486, 2134900, 2135278, 2135678, 2136067, 2136460, 2136829, 2137247, 2137667, 2138039, 2138469]","[2130278, 2130709, 2131099, 2131497, 2131885, 2132258, 2132639, 2133057, 2133446, 2133820, 2134219, 2134579, 2135017, 2135403, 2135806, 2136193, 2136569, 2136943, 2137381, 2137777, 2138166, 2138580]","[2129425, 2129825, 2130225, 2130625, 2131025, 2131424, 2131825, 2132225, 2132574, 2132966, 2133357, 2133735, 2134139, 2134512, 2134927, 2135306, 2135706, 2136094, 2136487, 2136856, 2137275, 2137695, 2138065, 2138496]",42,R,ITM,1.1,
2,600,trial,0,116,116,116,trial,"['S', 'S', 'S', 'S', 'S', 'S', 'S', 'S', 'C', 'C', 'C', 'C', 'C', 'C', 'C', 'C', 'C', 'C', 'C', 'C', 'C', 'C', 'C', 'C']","[2143984, 2144295, 2145110, 2145632, 2146268, 2146813, 2147362, 2147897, 2148486, 2149070, 2149651, 2150179, 2150753, 2151264, 2151797, 2152348, 2152882, 2153441, 2153979, 2154488, 2155030, 2155498, 2156011, 2156526]","[2144098, 2144535, 2145233, 2145769, 2146404, 2146963, 2147499, 2148026, 2148643, 2149221, 2149772, 2150318, 2150866, 2151386, 2151940, 2152477, 2153023, 2153566, 2154100, 2154609, 2155162, 2155615, 2156174, 2156684]","[2143794, 2144393, 2144993, 2145593, 2146192, 2146792, 2147393, 2147992, 2148512, 2149097, 2149679, 2150207, 2150780, 2151291, 2151825, 2152376, 2152908, 2153467, 2154006, 2154516, 2155057, 2155526, 2156038, 2156554]",42,R,ITM,1.1,
6,400,trial,0,117,117,117,trial,"['S', 'S', 'S', 'S', 'S', 'S', 'C', 'C', 'C', 'C', 'C', 'C', 'C', 'C', 'C', 'C', 'C', 'C', 'C', 'C', 'C', 'C']","[2162987, 2163543, 2163874, 2164097, 2164476, 2164920, 2165379, 2165824, 2166263, 2166673, 2167085, 2167510, 2167921, 2168351, 2168735, 2169146, 2169612, 2170014, 2170449, 2170903, 2171305, 2171713]","[2163069, 2163640, 2163954, 2164230, 2164577, 2165035, 2165476, 2165911, 2166362, 2166782, 2167203, 2167612, 2168029, 2168451, 2168847, 2169265, 2169696, 2170123, 2170555, 2171026, 2171417, 2171797]","[2162187, 2162586, 2162987, 2163386, 2163786, 2164187, 2164586, 2164986, 2165405, 2165852, 2166291, 2166700, 2167111, 2167536, 2167949, 2168378, 2168763, 2169174, 2169639, 2170041, 2170476, 2170931, 2171333, 2171740]",42,R,ITM,1.1,
4,400,trial,0,118,118,118,trial,"['S', 'S', 'S', 'S', 'S', 'S', 'S', 'C', 'C', 'C', 'C', 'C', 'C', 'C', 'C', 'C', 'C', 'C', 'C', 'C', 'C', 'C', 'C']","[2177449, 2177811, 2178248, 2178630, 2179026, 2179430, 2179815, 2180212, 2180621, 2181000, 2181400, 2181803, 2182199, 2182589, 2182982, 2183410, 2183792, 2184180, 2184579, 2184977, 2185374, 2185765, 2186166]","[2177565, 2177916, 2178343, 2178743, 2179162, 2179540, 2179932, 2180350, 2180745, 2181131, 2181533, 2181947, 2182346, 2182744, 2183137, 2183547, 2183930, 2184315, 2184729, 2185082, 2185518, 2185903, 2186266]","[2177049, 2177448, 2177848, 2178248, 2178649, 2179048, 2179448, 2179848, 2180238, 2180646, 2181025, 2181426, 2181828, 2182224, 2182615, 2183008, 2183436, 2183818, 2184206, 2184604, 2185003, 2185400, 2185791, 2186191]",42,R,ITM,1.1,
6,600,trial,0,119,119,119,trial,"['S', 'S', 'S', 'S', 'S', 'S', 'S', 'S', 'C', 'C', 'C', 'C', 'C', 'C', 'C', 'C', 'C', 'C', 'C', 'C', 'C', 'C', 'C', 'C']","[2192086, 2192381, 2192852, 2193420, 2194203, 2194841, 2195513, 2196080, 2196666, 2197261, 2197869, 2198479, 2199059, 2199635, 2200217, 2200823, 2201410, 2202020, 2202633, 2203216, 2203812, 2204385, 2204985, 2205555]","[2192188, 2192506, 2192988, 2193574, 2194329, 2194999, 2195628, 2196203, 2196815, 2197389, 2198018, 2198616, 2199201, 2199802, 2200415, 2201009, 2201585, 2202182, 2202765, 2203361, 2203974, 2204559, 2205181, 2205757]","[2191905, 2192504, 2193104, 2193704, 2194305, 2194905, 2195505, 2196104, 2196692, 2197287, 2197896, 2198507, 2199086, 2199662, 2200244, 2200851, 2201437, 2202047, 2202659, 2203243, 2203839, 2204411, 2205011, 2205582]",42,R,ITM,1.1,
6,400,trial,0,120,120,120,trial,"['S', 'S', 'S', 'S', 'S', 'S', 'S', 'S', 'C', 'C', 'C', 'C', 'C', 'C', 'C', 'C', 'C', 'C', 'C', 'C', 'C', 'C', 'C', 'C']","[2211064, 2211456, 2211766, 2212072, 2212418, 2212783, 2213196, 2213615, 2214046, 2214449, 2214832, 2215224, 2215634, 2216008, 2216413, 2216783, 2217172, 2217545, 2217920, 2218328, 2218697, 2219077, 2219441, 2219801]","[2211177, 2211573, 2211864, 2212180, 2212539, 2212904, 2213334, 2213740, 2214160, 2214558, 2214952, 2215353, 2215753, 2216140, 2216511, 2216895, 2217293, 2217686, 2218064, 2218460, 2218825, 2219203, 2219556, 2219918]","[2210896, 2211295, 2211695, 2212096, 2212495, 2212895, 2213296, 2213695, 2214073, 2214475, 2214859, 2215250, 2215661, 2216035, 2216439, 2216810, 2217199, 2217572, 2217948, 2218354, 2218724, 2219105, 2219468, 2219828]",42,R,ITM,1.1,
3,400,trial,0,121,121,121,trial,"['S', 'S', 'S', 'S', 'S', 'S', 'C', 'C', 'C', 'C', 'C', 'C', 'C', 'C', 'C', 'C', 'C', 'C', 'C', 'C', 'C', 'C']","[2226129, 2226580, 2227027, 2227380, 2227758, 2228158, 2228506, 2228885, 2229272, 2229647, 2230017, 2230383, 2230749, 2231106, 2231457, 2231823, 2232190, 2232565, 2232915, 2233282, 2233654, 2234018]","[2226236, 2226701, 2227141, 2227508, 2227876, 2228245, 2228600, 2229013, 2229403, 2229754, 2230136, 2230484, 2230868, 2231220, 2231580, 2231950, 2232308, 2232671, 2233031, 2233401, 2233750, 2234131]","[2225408, 2225806, 2226206, 2226607, 2227006, 2227406, 2227806, 2228206, 2228532, 2228911, 2229298, 2229672, 2230042, 2230409, 2230774, 2231132, 2231483, 2231848, 2232216, 2232591, 2232941, 2233308, 2233679, 2234044]",42,R,ITM,1.1,
3,400,trial,0,122,122,122,trial,"['S', 'S', 'S', 'S', 'S', 'S', 'S', 'C', 'C', 'C', 'C', 'C', 'C', 'C', 'C', 'C', 'C', 'C', 'C', 'C', 'C', 'C', 'C']","[2239747, 2240161, 2240528, 2240923, 2241321, 2241720, 2242114, 2242512, 2242894, 2243274, 2243674, 2244040, 2244405, 2244782, 2245190, 2245562, 2245959, 2246318, 2246688, 2247076, 2247450, 2247809, 2248164]","[2239859, 2240273, 2240666, 2241074, 2241465, 2241872, 2242233, 2242655, 2243037, 2243417, 2243779, 2244164, 2244548, 2244924, 2245306, 2245699, 2246082, 2246462, 2246816, 2247185, 2247572, 2247944, 2248298]","[2239394, 2239794, 2240194, 2240594, 2240994, 2241394, 2241795, 2242194, 2242538, 2242920, 2243300, 2243699, 2244066, 2244430, 2244807, 2245216, 2245587, 2245985, 2246343, 2246714, 2247102, 2247476, 2247834, 2248189]",42,R,ITM,1.1,
5,400,trial,0,123,123,123,trial,"['B', 'S', 'S', 'S', 'S', 'S', 'S', 'S', 'C', 'C', 'C', 'C', 'C', 'C', 'C', 'C', 'C', 'C', 'C', 'C', 'C', 'C', 'C', 'C']","[2253691, 2254117, 2254507, 2254874, 2255243, 2255582, 2256021, 2256412, 2256815, 2257191, 2257589, 2257970, 2258350, 2258717, 2259082, 2259445, 2259805, 2260180, 2260577, 2260926, 2261284, 2261656, 2262001, 2262351]","[2253837, 2254258, 2254652, 2255014, 2255355, 2255725, 2256169, 2256556, 2256956, 2257333, 2257713, 2258100, 2258487, 2258837, 2259219, 2259591, 2259944, 2260307, 2260686, 2261057, 2261413, 2261765, 2262122, 2262478]","[2253703, 2254103, 2254503, 2254903, 2255303, 2255704, 2256103, 2256503, 2256841, 2257218, 2257614, 2257996, 2258375, 2258743, 2259107, 2259471, 2259830, 2260207, 2260603, 2260952, 2261310, 2261683, 2262027, 2262377]",42,R,ITM,1.1,
5,600,trial,0,124,124,124,trial,"['S', 'S', 'S', 'S', 'S', 'S', 'C', 'C', 'C', 'C', 'C', 'C', 'C', 'C', 'C', 'C', 'C', 'C', 'C', 'C', 'C', 'C']","[2269146, 2269763, 2270411, 2271020, 2271637, 2272196, 2272776, 2273353, 2273912, 2274468, 2275047, 2275579, 2276141, 2276725, 2277276, 2277857, 2278413, 2278952, 2279532, 2280115, 2280711, 2281309]","[2269246, 2269834, 2270492, 2271098, 2271758, 2272342, 2272928, 2273496, 2274071, 2274632, 2275192, 2275730, 2276319, 2276864, 2277416, 2278016, 2278556, 2279087, 2279667, 2280251, 2280854, 2281458]","[2268092, 2268692, 2269292, 2269892, 2270492, 2271092, 2271692, 2272292, 2272802, 2273379, 2273939, 2274494, 2275073, 2275605, 2276166, 2276752, 2277302, 2277882, 2278438, 2278978, 2279558, 2280140, 2280737, 2281334]",42,R,ITM,1.1,
7,400,trial,0,125,125,125,trial,"['S', 'S', 'S', 'S', 'S', 'S', 'C', 'C', 'C', 'C', 'C', 'C', 'C', 'C', 'C', 'C', 'C', 'C', 'C', 'C', 'C', 'C']","[2287412, 2287842, 2288250, 2288659, 2289031, 2289428, 2289806, 2290191, 2290578, 2290947, 2291354, 2291740, 2292130, 2292513, 2292874, 2293250, 2293659, 2294052, 2294456, 2294835, 2295198, 2295628]","[2287488, 2287946, 2288346, 2288747, 2289123, 2289517, 2289908, 2290306, 2290680, 2291060, 2291463, 2291856, 2292247, 2292635, 2293000, 2293371, 2293775, 2294173, 2294573, 2294953, 2295324, 2295749]","[2286629, 2287028, 2287428, 2287828, 2288228, 2288628, 2289029, 2289428, 2289833, 2290219, 2290605, 2290973, 2291381, 2291767, 2292158, 2292540, 2292901, 2293277, 2293686, 2294080, 2294483, 2294862, 2295226, 2295655]",42,R,ITM,1.1,
