octave,ioi,event,.thisRepN,.thisTrialN,.thisN,.thisIndex,event,tap_types,tap_times,release_times,tone_times,subject,handedness,experiment,version,
,,SPR,0,-1,-1,0,SPR,"['P', 'P', 'P', 'P', 'P', 'P', 'P', 'P', 'P', 'P', 'P', 'P', 'P', 'P', 'P', 'P', 'P', 'P', 'P', 'P', 'P', 'P', 'P', 'P', 'P', 'P', 'P', 'P', 'P', 'P']","[50298, 50886, 51480, 52219, 52822, 53433, 54032, 54761, 55498, 56176, 56862, 57590, 58279, 58906, 59592, 60412, 61283, 62042, 62823, 63643, 64540, 65376, 66049, 66855, 67659, 68441, 69195, 69919, 70712, 71512]","[50418, 50999, 51622, 52327, 52955, 53558, 54165, 54904, 55613, 56304, 56989, 57690, 58407, 59057, 59738, 60530, 61417, 62215, 63026, 63886, 64709, 65551, 66241, 67047, 67795, 68588, 69325, 70106, 70856, 71662]",,15,R,ITM,1.1,
6,500,practice,0,0,0,0,practice,"['S', 'S', 'S', 'S', 'S', 'S', 'S', 'C', 'C', 'C', 'C', 'C', 'C', 'C', 'C', 'C', 'C', 'C', 'C', 'C', 'C', 'C', 'C']","[158371, 158824, 159356, 159859, 160367, 160888, 161376, 161851, 162314, 162838, 163321, 163775, 164296, 164796, 165281, 165833, 166331, 166832, 167375, 167868, 168353, 168866, 169378]","[158480, 158941, 159464, 159972, 160499, 161000, 161488, 161955, 162422, 162964, 163437, 163909, 164441, 164917, 165417, 165963, 166449, 166949, 167490, 167970, 168466, 168982, 169488]","[157933, 158433, 158934, 159433, 159933, 160434, 160933, 161433, 161878, 162340, 162865, 163349, 163802, 164324, 164823, 165308, 165860, 166358, 166858, 167402, 167895, 168381, 168893, 169406]",15,R,ITM,1.1,
2,500,practice,0,1,1,1,practice,"['S', 'S', 'S', 'S', 'S', 'S', 'S', 'C', 'C', 'C', 'C', 'C', 'C', 'C', 'C', 'C', 'C', 'C', 'C', 'C', 'C', 'C', 'C']","[175435, 175823, 176241, 176752, 177253, 177725, 178213, 178708, 179208, 179755, 180201, 180701, 181176, 181722, 182192, 182699, 183215, 183682, 184219, 184714, 185189, 185711, 186171]","[175484, 175902, 176326, 176850, 177350, 177821, 178306, 178800, 179323, 179826, 180300, 180787, 181289, 181813, 182296, 182811, 183289, 183777, 184305, 184813, 185298, 185790, 186269]","[174726, 175225, 175725, 176225, 176726, 177224, 177725, 178226, 178735, 179235, 179781, 180228, 180728, 181203, 181749, 182218, 182725, 183242, 183708, 184246, 184741, 185217, 185738, 186198]",15,R,ITM,1.1,
4,500,practice,0,2,2,2,practice,"['S', 'S', 'S', 'S', 'S', 'S', 'S', 'C', 'C', 'C', 'C', 'C', 'C', 'C', 'C', 'C', 'C', 'C', 'C', 'C', 'C', 'C', 'C']","[192102, 192564, 193087, 193613, 194113, 194589, 195066, 195565, 196114, 196572, 197089, 197567, 198069, 198548, 199040, 199538, 200005, 200538, 201022, 201493, 201984, 202502, 202969]","[192183, 192652, 193161, 193708, 194207, 194670, 195172, 195674, 196195, 196689, 197189, 197691, 198172, 198665, 199159, 199638, 200122, 200631, 201125, 201593, 202085, 202604, 203073]","[191626, 192125, 192625, 193125, 193626, 194125, 194625, 195125, 195591, 196140, 196598, 197115, 197593, 198094, 198574, 199065, 199564, 200031, 200563, 201048, 201519, 202009, 202527, 202994]",15,R,ITM,1.1,
5,500,practice,0,3,3,3,practice,"['S', 'S', 'S', 'S', 'S', 'S', 'S', 'S', 'C', 'C', 'C', 'C', 'C', 'C', 'C', 'C', 'C', 'C', 'C', 'C', 'C', 'C', 'C', 'C']","[208635, 209017, 209399, 209833, 210347, 210861, 211371, 211840, 212314, 212814, 213289, 213815, 214319, 214816, 215303, 215790, 216284, 216737, 217268, 217749, 218259, 218758, 219257, 219759]","[208716, 209098, 209494, 209944, 210444, 210970, 211462, 211944, 212434, 212896, 213409, 213922, 214439, 214944, 215428, 215907, 216398, 216868, 217366, 217866, 218379, 218859, 219352, 219850]","[208400, 208900, 209399, 209899, 210399, 210899, 211399, 211899, 212340, 212840, 213315, 213840, 214345, 214842, 215329, 215816, 216310, 216763, 217293, 217775, 218285, 218783, 219283, 219785]",15,R,ITM,1.1,
7,500,practice,0,4,4,4,practice,"['S', 'S', 'S', 'S', 'S', 'S', 'S', 'S', 'C', 'C', 'C', 'C', 'C', 'C', 'C', 'C', 'C', 'C', 'C', 'C', 'C', 'C', 'C', 'C']","[225767, 226051, 226492, 226984, 227499, 227984, 228487, 229007, 229479, 229968, 230495, 230976, 231472, 231989, 232459, 232966, 233461, 233978, 234480, 234954, 235466, 235938, 236500, 236997]","[225853, 226140, 226607, 227088, 227609, 228089, 228603, 229111, 229582, 230100, 230604, 231083, 231592, 232091, 232576, 233081, 233572, 234076, 234579, 235081, 235579, 236083, 236605, 237107]","[225485, 225984, 226484, 226984, 227484, 227984, 228485, 228984, 229506, 229995, 230521, 231003, 231498, 232016, 232486, 232993, 233488, 234005, 234507, 234981, 235493, 235965, 236528, 237024]",15,R,ITM,1.1,
3,500,practice,0,5,5,5,practice,"['S', 'S', 'S', 'S', 'S', 'S', 'S', 'C', 'C', 'C', 'C', 'C', 'C', 'C', 'C', 'C', 'C', 'C', 'C', 'C', 'C', 'C', 'C']","[242775, 243338, 243834, 244374, 244838, 245368, 245873, 246358, 246848, 247336, 247844, 248313, 248802, 249311, 249755, 250294, 250799, 251260, 251758, 252294, 252744, 253251, 253732]","[242857, 243437, 243946, 244485, 244959, 245471, 245974, 246497, 246949, 247468, 247957, 248441, 248929, 249415, 249904, 250401, 250908, 251377, 251878, 252387, 252850, 253353, 253841]","[242439, 242937, 243437, 243937, 244438, 244937, 245437, 245938, 246383, 246874, 247362, 247870, 248339, 248827, 249336, 249781, 250319, 250824, 251286, 251784, 252319, 252770, 253277, 253758]",15,R,ITM,1.1,
7,400,trial,0,6,6,6,trial,"['S', 'S', 'S', 'S', 'S', 'S', 'S', 'C', 'C', 'C', 'C', 'C', 'C', 'C', 'C', 'C', 'C', 'C', 'C', 'C', 'C', 'C', 'C']","[317604, 318061, 318486, 318846, 319245, 319678, 320044, 320466, 320832, 321241, 321611, 321984, 322370, 322761, 323118, 323514, 323891, 324260, 324667, 325027, 325406, 325786, 326185]","[317684, 318141, 318554, 318928, 319320, 319749, 320129, 320540, 320915, 321309, 321698, 322067, 322450, 322841, 323207, 323592, 323969, 324346, 324730, 325104, 325470, 325846, 326245]","[317300, 317700, 318099, 318499, 318899, 319299, 319699, 320099, 320493, 320859, 321268, 321639, 322011, 322398, 322788, 323145, 323540, 323917, 324287, 324694, 325055, 325433, 325813, 326213]",15,R,ITM,1.1,
6,600,trial,0,7,7,7,trial,"['S', 'S', 'S', 'S', 'S', 'S', 'S', 'S', 'C', 'C', 'C', 'C', 'C', 'C', 'C', 'C', 'C', 'C', 'C', 'C', 'C', 'C', 'C', 'C']","[332027, 332456, 332865, 333503, 334124, 334685, 335293, 335884, 336480, 337139, 337770, 338407, 339050, 339650, 340280, 340914, 341530, 342087, 342723, 343317, 343924, 344569, 345214, 345809]","[332102, 332554, 333077, 333623, 334216, 334799, 335390, 335904, 336589, 337236, 337867, 338501, 339154, 339753, 340393, 341020, 341646, 342220, 342837, 343434, 344051, 344687, 345317, 345914]","[331685, 332284, 332884, 333485, 334085, 334685, 335284, 335884, 336506, 337166, 337797, 338434, 339077, 339678, 340307, 340940, 341558, 342115, 342751, 343344, 343951, 344596, 345241, 345836]",15,R,ITM,1.1,
3,600,trial,0,8,8,8,trial,"['S', 'S', 'S', 'S', 'S', 'S', 'S', 'S', 'C', 'C', 'C', 'C', 'C', 'C', 'C', 'C', 'C', 'C', 'C', 'C', 'C', 'C', 'C', 'C']","[351971, 352410, 352792, 353378, 353931, 354580, 355140, 355748, 356348, 356966, 357504, 358057, 358595, 359138, 359712, 360311, 360840, 361419, 361951, 362482, 363051, 363618, 364187, 364741]","[352055, 352485, 352900, 353461, 354028, 354676, 355254, 355865, 356453, 357063, 357638, 358173, 358716, 359256, 359825, 360415, 360953, 361527, 362056, 362597, 363167, 363721, 364295, 364856]","[351579, 352178, 352778, 353378, 353978, 354578, 355178, 355778, 356374, 356992, 357529, 358083, 358621, 359163, 359738, 360337, 360865, 361445, 361976, 362508, 363076, 363643, 364213, 364767]",15,R,ITM,1.1,
5,600,trial,0,9,9,9,trial,"['S', 'S', 'S', 'S', 'S', 'S', 'S', 'S', 'C', 'C', 'C', 'C', 'C', 'C', 'C', 'C', 'C', 'C', 'C', 'C', 'C', 'C', 'C', 'C']","[370685, 371026, 371530, 372187, 372755, 373376, 374025, 374581, 375182, 375744, 376272, 376830, 377443, 378041, 378565, 379171, 379752, 380358, 380945, 381532, 382080, 382669, 383237, 383797]","[370789, 371127, 371654, 372282, 372855, 373476, 374124, 374695, 375296, 375847, 376393, 376950, 377555, 378163, 378711, 379309, 379885, 380475, 381058, 381655, 382208, 382695, 383345, 383904]","[370464, 371063, 371663, 372263, 372864, 373464, 374064, 374663, 375208, 375770, 376298, 376856, 377469, 378067, 378591, 379198, 379778, 380384, 380971, 381558, 382105, 382695, 383262, 383822]",15,R,ITM,1.1,
2,400,trial,0,10,10,10,trial,"['S', 'S', 'S', 'S', 'S', 'S', 'S', 'C', 'C', 'C', 'C', 'C', 'C', 'C', 'C', 'C', 'C', 'C', 'C', 'C', 'C', 'C', 'C']","[389678, 390002, 390405, 390790, 391171, 391588, 391997, 392371, 392770, 393165, 393537, 393924, 394337, 394728, 395139, 395511, 395890, 396280, 396691, 397052, 397450, 397845, 398262]","[389767, 390094, 390486, 390885, 391248, 391670, 392087, 392477, 392852, 393255, 393629, 394008, 394430, 394832, 395222, 395601, 395982, 396376, 396781, 397152, 397544, 397955, 398339]","[389242, 389641, 390042, 390441, 390841, 391241, 391643, 392042, 392398, 392798, 393193, 393564, 393951, 394363, 394756, 395165, 395538, 395918, 396307, 396719, 397079, 397476, 397872, 398288]",15,R,ITM,1.1,
6,400,trial,0,11,11,11,trial,"['S', 'S', 'S', 'S', 'S', 'S', 'S', 'C', 'C', 'C', 'C', 'C', 'C', 'C', 'C', 'C', 'C', 'C', 'C', 'C', 'C', 'C', 'C']","[404182, 404544, 404973, 405394, 405848, 406226, 406648, 407019, 407413, 407799, 408155, 408511, 408911, 409280, 409629, 409994, 410392, 410743, 411113, 411456, 411858, 412201, 412599]","[404250, 404631, 405067, 405488, 405926, 406326, 406724, 407122, 407499, 407881, 408238, 408622, 408994, 409367, 409720, 410094, 410476, 410832, 411200, 411570, 411940, 412313, 412683]","[403942, 404342, 404743, 405142, 405542, 405942, 406342, 406743, 407046, 407440, 407826, 408181, 408538, 408938, 409308, 409656, 410020, 410420, 410771, 411140, 411484, 411885, 412229, 412625]",15,R,ITM,1.1,
2,400,trial,0,12,12,12,trial,"['S', 'S', 'S', 'S', 'S', 'S', 'S', 'S', 'C', 'C', 'C', 'C', 'C', 'C', 'C', 'C', 'C', 'C', 'C', 'C', 'C', 'C', 'C', 'C']","[418537, 418860, 419226, 419527, 419928, 420302, 420680, 421057, 421505, 421862, 422285, 422679, 423076, 423473, 423875, 424242, 424634, 425042, 425458, 425850, 426274, 426702, 427066, 427442]","[418614, 418949, 419305, 419625, 420004, 420381, 420783, 421154, 421586, 421974, 422375, 422771, 423168, 423566, 423963, 424331, 424717, 425138, 425561, 425945, 426377, 426806, 427148, 427541]","[418318, 418717, 419119, 419518, 419917, 420319, 420718, 421120, 421532, 421890, 422312, 422706, 423104, 423499, 423903, 424269, 424662, 425069, 425485, 425878, 426301, 426730, 427094, 427469]",15,R,ITM,1.1,
5,400,trial,0,13,13,13,trial,"['S', 'S', 'S', 'S', 'S', 'S', 'S', 'C', 'C', 'C', 'C', 'C', 'C', 'C', 'C', 'C', 'C', 'C', 'C', 'C', 'C', 'C', 'C']","[433701, 434006, 434382, 434748, 435121, 435511, 435905, 436291, 436611, 436994, 437365, 437733, 438112, 438482, 438896, 439255, 439631, 440025, 440404, 440771, 441168, 441538, 441948]","[433780, 434099, 434473, 434844, 435208, 435613, 435994, 436383, 436695, 437068, 437439, 437820, 438197, 438590, 438981, 439351, 439737, 440107, 440497, 440848, 441253, 441636, 442028]","[433227, 433628, 434027, 434427, 434827, 435227, 435628, 436027, 436317, 436636, 437020, 437392, 437760, 438138, 438508, 438923, 439280, 439658, 440050, 440430, 440798, 441194, 441564, 441973]",15,R,ITM,1.1,
2,600,trial,0,14,14,14,trial,"['S', 'S', 'S', 'S', 'S', 'S', 'S', 'C', 'C', 'C', 'C', 'C', 'C', 'C', 'C', 'C', 'C', 'C', 'C', 'C', 'C', 'C', 'C', 'C']","[447924, 448650, 449283, 449897, 450468, 451090, 451714, 452293, 452908, 453450, 454020, 454606, 454713, 455197, 455735, 456301, 456899, 457436, 458020, 458604, 459187, 459810, 460357, 460926]","[448040, 448781, 449384, 449993, 450587, 451204, 451807, 452409, 453005, 453563, 454150, 454633, 454748, 455330, 455848, 456430, 457011, 457570, 458142, 458736, 459284, 459911, 460483, 461038]","[447513, 448113, 448713, 449313, 449913, 450513, 451113, 451713, 452320, 452934, 453477, 454046, 454633, 455224, 455762, 456328, 456926, 457463, 458048, 458631, 459213, 459837, 460385, 460953]",15,R,ITM,1.1,
7,600,trial,0,15,15,15,trial,"['S', 'S', 'S', 'S', 'S', 'S', 'C', 'C', 'C', 'C', 'C', 'C', 'C', 'C', 'C', 'C', 'C', 'C', 'C', 'C', 'C', 'C']","[467768, 468362, 469023, 469653, 470213, 470789, 471439, 472062, 472647, 473248, 473864, 474455, 475037, 475679, 476249, 476870, 477443, 478090, 478722, 479320, 479917, 480531]","[467889, 468492, 469139, 469765, 470300, 470882, 471507, 472168, 472784, 473372, 473973, 474585, 475182, 475817, 476417, 477008, 477589, 478214, 478836, 479420, 480030, 480653]","[466640, 467239, 467840, 468440, 469040, 469640, 470240, 470840, 471465, 472090, 472675, 473276, 473890, 474482, 475065, 475706, 476275, 476897, 477470, 478117, 478749, 479346, 479944, 480559]",15,R,ITM,1.1,
4,600,trial,0,16,16,16,trial,"['S', 'S', 'S', 'S', 'S', 'S', 'S', 'S', 'C', 'C', 'C', 'C', 'C', 'C', 'C', 'C', 'C', 'C', 'C', 'C', 'C', 'C', 'C', 'C']","[486603, 486917, 487309, 487834, 488520, 489160, 489709, 490292, 490899, 491495, 492092, 492669, 493251, 493891, 494504, 495120, 495728, 496408, 497001, 497608, 498179, 498760, 499331, 499959]","[486707, 487003, 487432, 487949, 488611, 489244, 489798, 490383, 491012, 491592, 492230, 492801, 493386, 494016, 494637, 495252, 495859, 496513, 497127, 497730, 498315, 498888, 499475, 500086]","[486161, 486760, 487360, 487960, 488560, 489160, 489760, 490360, 490925, 491521, 492118, 492695, 493277, 493917, 494530, 495147, 495754, 496434, 497027, 497635, 498204, 498786, 499356, 499986]",15,R,ITM,1.1,
3,400,trial,0,17,17,17,trial,"['S', 'S', 'S', 'S', 'S', 'S', 'S', 'S', 'C', 'C', 'C', 'C', 'C', 'C', 'C', 'C', 'C', 'C', 'C', 'C', 'C', 'C', 'C', 'C']","[505957, 506216, 506591, 506884, 507234, 507617, 508021, 508377, 508803, 509152, 509565, 509947, 510331, 510715, 511097, 511472, 511850, 512234, 512602, 512957, 513315, 513674, 514000, 514356]","[506044, 506280, 506665, 506982, 507338, 507710, 508121, 508476, 508896, 509265, 509650, 510047, 510418, 510794, 511165, 511549, 511946, 512323, 512693, 513044, 513421, 513762, 514103, 514446]","[505663, 506062, 506462, 506862, 507262, 507662, 508062, 508463, 508828, 509177, 509591, 509973, 510358, 510741, 511123, 511498, 511876, 512260, 512627, 512983, 513341, 513699, 514026, 514381]",15,R,ITM,1.1,
5,600,trial,0,18,18,18,trial,"['S', 'S', 'S', 'S', 'S', 'S', 'S', 'S', 'C', 'C', 'C', 'C', 'C', 'C', 'C', 'C', 'C', 'C', 'C', 'C', 'C', 'C', 'C', 'C']","[521980, 522292, 522856, 523439, 524057, 524588, 525264, 525802, 526436, 527001, 527547, 528169, 528752, 529389, 529953, 530498, 531079, 531685, 532305, 532932, 533425, 533962, 534548, 535081]","[522070, 522469, 523029, 523597, 524184, 524733, 525412, 525947, 526593, 527137, 527680, 528340, 528858, 529521, 530079, 530641, 531211, 531829, 532405, 533035, 533560, 534096, 534664, 535201]","[521747, 522347, 522947, 523547, 524147, 524747, 525347, 525947, 526461, 527028, 527572, 528195, 528778, 529415, 529979, 530524, 531104, 531712, 532331, 532958, 533451, 533989, 534574, 535108]",15,R,ITM,1.1,
4,400,trial,0,19,19,19,trial,"['B', 'S', 'S', 'S', 'S', 'S', 'S', 'S', 'C', 'C', 'C', 'C', 'C', 'C', 'C', 'C', 'C', 'C', 'C', 'C', 'C', 'C', 'C', 'C']","[540776, 541288, 541607, 541957, 542312, 542732, 543093, 543514, 543889, 544295, 544677, 545020, 545388, 545783, 546155, 546561, 546929, 547359, 547750, 548142, 548505, 548871, 549281, 549681]","[540924, 541419, 541704, 542063, 542426, 542826, 543205, 543612, 543989, 544395, 544768, 545114, 545499, 545882, 546274, 546657, 547033, 547451, 547856, 548244, 548603, 548978, 549400, 549774]","[540788, 541188, 541587, 541987, 542387, 542787, 543187, 543587, 543915, 544322, 544703, 545046, 545414, 545809, 546181, 546586, 546955, 547385, 547777, 548167, 548531, 548896, 549307, 549706]",15,R,ITM,1.1,
3,400,trial,0,20,20,20,trial,"['S', 'S', 'S', 'S', 'S', 'S', 'S', 'C', 'C', 'C', 'C', 'C', 'C', 'C', 'C', 'C', 'C', 'C', 'C', 'C', 'C', 'C', 'C']","[555710, 556012, 556348, 556789, 557219, 557622, 558074, 558448, 558848, 559215, 559619, 559990, 560399, 560798, 561161, 561534, 561909, 562293, 562660, 563062, 563464, 563835, 564218]","[555790, 556107, 556454, 556898, 557317, 557719, 558155, 558563, 558945, 559352, 559717, 560134, 560507, 560877, 561231, 561637, 562010, 562395, 562769, 563170, 563549, 563947, 564329]","[555298, 555698, 556098, 556498, 556898, 557298, 557699, 558098, 558474, 558873, 559241, 559644, 560016, 560424, 560824, 561186, 561560, 561935, 562319, 562685, 563088, 563489, 563861, 564244]",15,R,ITM,1.1,
3,600,trial,0,21,21,21,trial,"['B', 'S', 'S', 'S', 'S', 'S', 'S', 'S', 'C', 'C', 'C', 'C', 'C', 'C', 'C', 'C', 'C', 'C', 'C', 'C', 'C', 'C', 'C', 'C']","[569997, 570515, 571291, 571727, 572284, 572915, 573541, 574128, 574722, 575280, 575857, 576445, 577045, 577632, 578178, 578714, 579312, 579897, 580461, 581058, 581669, 582234, 582809, 583336]","[570017, 570723, 571388, 571868, 572414, 573044, 573668, 574253, 574837, 575415, 576006, 576571, 577175, 577746, 578299, 578857, 579451, 580027, 580627, 581184, 581782, 582334, 582925, 583447]","[570009, 570608, 571208, 571808, 572408, 573008, 573608, 574209, 574747, 575305, 575883, 576471, 577071, 577657, 578203, 578740, 579338, 579922, 580487, 581084, 581695, 582259, 582835, 583362]",15,R,ITM,1.1,
4,600,trial,0,22,22,22,trial,"['S', 'S', 'S', 'S', 'S', 'S', 'S', 'S', 'C', 'C', 'C', 'C', 'C', 'C', 'C', 'C', 'C', 'C', 'C', 'C', 'C', 'C', 'C', 'C']","[589068, 589456, 589904, 590543, 591130, 591697, 592319, 592906, 593509, 594095, 594658, 595281, 595809, 596379, 596961, 597535, 598087, 598683, 599286, 599864, 600439, 601022, 601588, 602205]","[589170, 589543, 590011, 590664, 591211, 591830, 592419, 593016, 593653, 594228, 594828, 595421, 595982, 596526, 597072, 597661, 598232, 598800, 599396, 599995, 600570, 601129, 601686, 602307]","[588773, 589373, 589973, 590573, 591173, 591773, 592373, 592973, 593534, 594120, 594684, 595307, 595834, 596405, 596986, 597561, 598113, 598710, 599312, 599889, 600465, 601048, 601614, 602230]",15,R,ITM,1.1,
4,400,trial,0,23,23,23,trial,"['S', 'S', 'S', 'S', 'S', 'S', 'S', 'C', 'C', 'C', 'C', 'C', 'C', 'C', 'C', 'C', 'C', 'C', 'C', 'C', 'C', 'C', 'C']","[608273, 608575, 608965, 609338, 609745, 610167, 610555, 610971, 611365, 611778, 612161, 612535, 612929, 613289, 613738, 614134, 614515, 614894, 615252, 615625, 616024, 616408, 616757]","[608367, 608655, 609037, 609447, 609861, 610275, 610655, 611067, 611473, 611875, 612251, 612622, 613019, 613406, 613831, 614246, 614623, 614994, 615346, 615733, 616131, 616511, 616885]","[607799, 608198, 608599, 608998, 609398, 609799, 610199, 610599, 610997, 611391, 611804, 612187, 612560, 612955, 613315, 613764, 614160, 614541, 614921, 615278, 615651, 616049, 616433, 616782]",15,R,ITM,1.1,
6,600,trial,0,24,24,24,trial,"['S', 'S', 'S', 'S', 'S', 'S', 'S', 'S', 'C', 'C', 'C', 'C', 'C', 'C', 'C', 'C', 'C', 'C', 'C', 'C', 'C', 'C', 'C', 'C']","[622707, 623055, 623628, 624185, 624790, 625354, 625910, 626545, 627153, 627733, 628341, 628925, 629539, 630114, 630683, 631231, 631812, 632428, 633006, 633570, 634157, 634723, 635309, 635907]","[622785, 623266, 623762, 624346, 624926, 625516, 626116, 626705, 627298, 627857, 628495, 629084, 629692, 630269, 630835, 631385, 631945, 632550, 633124, 633717, 634280, 634849, 635433, 636040]","[622456, 623055, 623655, 624256, 624856, 625456, 626056, 626656, 627181, 627760, 628368, 628952, 629566, 630140, 630711, 631259, 631838, 632456, 633033, 633596, 634183, 634749, 635335, 635934]",15,R,ITM,1.1,
7,600,trial,0,25,25,25,trial,"['S', 'S', 'S', 'S', 'S', 'S', 'S', 'S', 'S', 'C', 'C', 'C', 'C', 'C', 'C', 'C', 'C', 'C', 'C', 'C', 'C', 'C', 'C', 'C', 'C']","[641826, 642158, 642696, 643314, 643898, 643998, 644493, 645046, 645646, 646187, 646746, 647329, 647898, 648446, 649038, 649588, 650220, 650777, 651376, 651928, 652596, 653196, 653785, 654352, 654886]","[641891, 642331, 642830, 643409, 643918, 644018, 644598, 645166, 645729, 646328, 646863, 647464, 648032, 648595, 649191, 649728, 650329, 650930, 651502, 652040, 652696, 653294, 653872, 654440, 654989]","[641557, 642156, 642756, 643356, 643956, 644556, 645156, 645756, 646213, 646773, 647356, 647924, 648474, 649065, 649616, 650247, 650804, 651403, 651955, 652623, 653223, 653812, 654380, 654913]",15,R,ITM,1.1,
2,600,trial,0,26,26,26,trial,"['S', 'S', 'S', 'S', 'S', 'S', 'S', 'S', 'C', 'C', 'C', 'C', 'C', 'C', 'C', 'C', 'C', 'C', 'C', 'C', 'C', 'C', 'C', 'C']","[660533, 660839, 661416, 662008, 662597, 663222, 663800, 664379, 664975, 665579, 666155, 666732, 667292, 667866, 668461, 669086, 669657, 670252, 670823, 671358, 671955, 672556, 673138, 673702]","[660553, 660917, 661539, 662128, 662729, 663368, 663943, 664540, 665150, 665705, 666304, 666854, 667437, 668052, 668621, 669209, 669785, 670387, 670958, 671528, 672100, 672694, 673274, 673831]","[660273, 660873, 661473, 662073, 662673, 663273, 663873, 664472, 665001, 665607, 666182, 666760, 667319, 667893, 668487, 669114, 669684, 670279, 670851, 671385, 671983, 672583, 673165, 673730]",15,R,ITM,1.1,
7,400,trial,0,27,27,27,trial,"['B', 'S', 'S', 'S', 'S', 'S', 'S', 'S', 'C', 'C', 'C', 'C', 'C', 'C', 'C', 'C', 'C', 'C', 'C', 'C', 'C', 'C', 'C', 'C']","[679273, 679723, 680060, 680417, 680786, 681185, 681577, 681994, 682419, 682814, 683227, 683614, 684040, 684435, 684876, 685240, 685681, 686088, 686493, 686866, 687300, 687739, 688162, 688564]","[679459, 679840, 680137, 680502, 680870, 681267, 681673, 682085, 682516, 682920, 683321, 683700, 684127, 684524, 684957, 685339, 685774, 686197, 686593, 686992, 687410, 687815, 688254, 688655]","[679286, 679686, 680085, 680485, 680885, 681285, 681686, 682085, 682445, 682841, 683254, 683641, 684067, 684463, 684904, 685266, 685709, 686115, 686521, 686893, 687327, 687767, 688189, 688591]",15,R,ITM,1.1,
6,400,trial,0,28,28,28,trial,"['S', 'S', 'S', 'S', 'S', 'S', 'S', 'S', 'C', 'C', 'C', 'C', 'C', 'C', 'C', 'C', 'C', 'C', 'C', 'C', 'C', 'C', 'C', 'C']","[694313, 694614, 694896, 695247, 695619, 695998, 696409, 696795, 697204, 697577, 697984, 698366, 698760, 699149, 699547, 699917, 700303, 700709, 701090, 701488, 701879, 702286, 702639, 703037]","[694388, 694687, 694994, 695333, 695692, 696109, 696494, 696898, 697311, 697699, 698075, 698487, 698866, 699238, 699627, 700015, 700424, 700812, 701206, 701578, 701976, 702367, 702759, 703129]","[694076, 694476, 694877, 695276, 695676, 696076, 696476, 696877, 697232, 697604, 698010, 698394, 698787, 699175, 699574, 699944, 700329, 700736, 701118, 701514, 701905, 702314, 702665, 703065]",15,R,ITM,1.1,
5,400,trial,0,29,29,29,trial,"['S', 'S', 'S', 'S', 'S', 'S', 'S', 'S', 'C', 'C', 'C', 'C', 'C', 'C', 'C', 'C', 'C', 'C', 'C', 'C', 'C', 'C', 'C', 'C']","[709046, 709310, 709601, 709952, 710322, 710706, 711115, 711472, 711870, 712269, 712668, 713035, 713413, 713784, 714164, 714542, 714933, 715307, 715643, 716029, 716435, 716822, 717193, 717568]","[709126, 709393, 709700, 710031, 710443, 710811, 711217, 711578, 711972, 712364, 712752, 713127, 713507, 713880, 714272, 714654, 715033, 715392, 715751, 716110, 716531, 716913, 717279, 717645]","[708792, 709192, 709593, 709992, 710392, 710792, 711192, 711592, 711896, 712296, 712693, 713062, 713439, 713809, 714189, 714568, 714958, 715332, 715669, 716056, 716462, 716848, 717218, 717593]",15,R,ITM,1.1,
7,600,trial,0,30,30,30,trial,"['S', 'S', 'S', 'S', 'S', 'S', 'S', 'S', 'C', 'C', 'C', 'C', 'C', 'C', 'C', 'C', 'C', 'C', 'C', 'C', 'C', 'C', 'C', 'C']","[724868, 725217, 725615, 726235, 726845, 727452, 728012, 728607, 729223, 729823, 730425, 730991, 731507, 732100, 732695, 733332, 733938, 734538, 735098, 735656, 736253, 736860, 737451, 738035]","[724953, 725315, 725781, 726372, 726955, 727541, 728129, 728730, 729348, 729958, 730554, 731123, 731636, 732233, 732868, 733484, 734080, 734652, 735220, 735796, 736377, 736968, 737554, 738152]","[724483, 725082, 725682, 726281, 726881, 727481, 728081, 728681, 729250, 729850, 730451, 731018, 731535, 732128, 732722, 733360, 733965, 734565, 735125, 735683, 736280, 736886, 737477, 738062]",15,R,ITM,1.1,
6,600,trial,0,31,31,31,trial,"['S', 'S', 'S', 'S', 'S', 'S', 'S', 'S', 'C', 'C', 'C', 'C', 'C', 'C', 'C', 'C', 'C', 'C', 'C', 'C', 'C', 'C', 'C', 'C']","[744054, 744363, 744781, 745351, 745958, 746590, 747125, 747711, 748291, 748855, 749456, 750047, 750606, 751217, 751794, 752362, 752937, 753537, 754118, 754721, 755289, 755901, 756537, 757141]","[744160, 744443, 744931, 745455, 746065, 746700, 747257, 747841, 748404, 749005, 749601, 750198, 750786, 751347, 751933, 752518, 753107, 753697, 754265, 754867, 755449, 756058, 756667, 757264]","[743614, 744213, 744813, 745413, 746013, 746613, 747213, 747813, 748318, 748881, 749483, 750073, 750632, 751244, 751821, 752390, 752964, 753563, 754145, 754749, 755315, 755928, 756563, 757168]",15,R,ITM,1.1,
2,600,trial,0,32,32,32,trial,"['S', 'S', 'S', 'S', 'S', 'S', 'S', 'S', 'C', 'C', 'C', 'C', 'C', 'C', 'C', 'C', 'C', 'C', 'C', 'C', 'C', 'C', 'C', 'C']","[762868, 763199, 763830, 764402, 765002, 765602, 766258, 766854, 767458, 768044, 768652, 769233, 769876, 770468, 771134, 771742, 772310, 772997, 773555, 774068, 774622, 775242, 775788, 776376]","[762946, 763363, 763957, 764523, 765129, 765721, 766352, 766963, 767593, 768199, 768837, 769416, 770041, 770655, 771259, 771866, 772461, 773097, 773688, 774241, 774789, 775376, 775956, 776507]","[762710, 763310, 763909, 764510, 765109, 765708, 766309, 766908, 767485, 768070, 768678, 769260, 769904, 770495, 771161, 771770, 772337, 773024, 773581, 774094, 774648, 775269, 775815, 776403]",15,R,ITM,1.1,
4,600,trial,0,33,33,33,trial,"['S', 'S', 'S', 'S', 'S', 'S', 'S', 'S', 'C', 'C', 'C', 'C', 'C', 'C', 'C', 'C', 'C', 'C', 'C', 'C', 'C', 'C', 'C', 'C']","[782529, 782810, 783243, 783849, 784423, 785034, 785605, 786234, 786809, 787301, 787851, 788429, 789011, 789550, 790127, 790712, 791285, 791864, 792436, 793005, 793534, 794108, 794702, 795281]","[782618, 782928, 783412, 783981, 784553, 785143, 785745, 786362, 786929, 787456, 788023, 788581, 789112, 789697, 790282, 790844, 791407, 791966, 792538, 793129, 793689, 794280, 794854, 795430]","[782179, 782779, 783379, 783979, 784579, 785179, 785779, 786379, 786835, 787328, 787876, 788455, 789037, 789575, 790153, 790737, 791311, 791889, 792462, 793030, 793561, 794134, 794728, 795307]",15,R,ITM,1.1,
7,400,trial,0,34,34,34,trial,"['S', 'S', 'S', 'S', 'S', 'S', 'S', 'S', 'C', 'C', 'C', 'C', 'C', 'C', 'C', 'C', 'C', 'C', 'C', 'C', 'C', 'C', 'C', 'C']","[800945, 801181, 801438, 801773, 802123, 802568, 802953, 803357, 803731, 804115, 804528, 804908, 805268, 805659, 806067, 806439, 806811, 807195, 807573, 807956, 808340, 808689, 809067, 809466]","[801038, 801264, 801527, 801892, 802250, 802683, 803070, 803477, 803861, 804231, 804630, 805001, 805393, 805766, 806171, 806542, 806921, 807309, 807697, 808068, 808434, 808798, 809183, 809585]","[800604, 801002, 801402, 801802, 802202, 802603, 803002, 803402, 803759, 804142, 804554, 804934, 805295, 805686, 806094, 806466, 806838, 807223, 807601, 807983, 808367, 808716, 809094, 809493]",15,R,ITM,1.1,
6,400,trial,0,35,35,35,trial,"['S', 'S', 'S', 'S', 'S', 'S', 'S', 'S', 'C', 'C', 'C', 'C', 'C', 'C', 'C', 'C', 'C', 'C', 'C', 'C', 'C', 'C', 'C', 'C']","[815258, 815596, 815902, 816223, 816599, 816966, 817382, 817793, 818173, 818600, 819013, 819411, 819801, 820159, 820549, 820934, 821339, 821708, 822130, 822506, 822902, 823285, 823642, 824034]","[815346, 815684, 816006, 816320, 816691, 817083, 817495, 817904, 818291, 818689, 819134, 819521, 819909, 820269, 820663, 821044, 821453, 821818, 822210, 822623, 823006, 823392, 823755, 824131]","[815059, 815458, 815858, 816259, 816658, 817058, 817459, 817859, 818201, 818627, 819040, 819438, 819827, 820187, 820576, 820962, 821365, 821735, 822158, 822533, 822929, 823313, 823668, 824060]",15,R,ITM,1.1,
3,600,trial,0,36,36,36,trial,"['S', 'S', 'S', 'S', 'S', 'S', 'S', 'S', 'C', 'C', 'C', 'C', 'C', 'C', 'C', 'C', 'C', 'C', 'C', 'C', 'C', 'C', 'C', 'C']","[830028, 830286, 830877, 831497, 832109, 832719, 833298, 833879, 834472, 834995, 835522, 836054, 836606, 837187, 837766, 838203, 838734, 839265, 839787, 840344, 840856, 841388, 841881, 842368]","[830115, 830407, 830989, 831592, 832203, 832825, 833408, 833954, 834577, 835121, 835659, 836200, 836761, 837342, 837889, 838395, 838892, 839413, 839922, 840446, 840995, 841519, 842028, 842521]","[829762, 830362, 830962, 831562, 832162, 832762, 833362, 833963, 834498, 835020, 835548, 836079, 836632, 837213, 837791, 838228, 838760, 839290, 839813, 840370, 840882, 841413, 841907, 842393]",15,R,ITM,1.1,
3,400,trial,0,37,37,37,trial,"['S', 'S', 'S', 'S', 'S', 'S', 'S', 'C', 'C', 'C', 'C', 'C', 'C', 'C', 'C', 'C', 'C', 'C', 'C', 'C', 'C', 'C', 'C']","[848200, 848512, 848845, 849262, 849670, 850086, 850476, 850898, 851277, 851683, 852090, 852490, 852877, 853267, 853650, 854043, 854464, 854856, 855215, 855597, 855996, 856383, 856739]","[848293, 848603, 848967, 849347, 849763, 850192, 850603, 851004, 851385, 851815, 852211, 852617, 852982, 853360, 853766, 854163, 854574, 854958, 855326, 855699, 856110, 856482, 856845]","[847729, 848130, 848529, 848929, 849330, 849730, 850130, 850530, 850924, 851303, 851708, 852116, 852515, 852902, 853293, 853676, 854069, 854490, 854882, 855240, 855622, 856022, 856409, 856765]",15,R,ITM,1.1,
2,400,trial,0,38,38,38,trial,"['S', 'S', 'S', 'S', 'S', 'S', 'S', 'C', 'C', 'C', 'C', 'C', 'C', 'C', 'C', 'C', 'C', 'C', 'C', 'C', 'C', 'C', 'C']","[862896, 863293, 863632, 864049, 864455, 864814, 865216, 865603, 866028, 866413, 866798, 867180, 867575, 867978, 868369, 868731, 869147, 869549, 869950, 870345, 870742, 871063, 871462]","[862998, 863373, 863725, 864110, 864529, 864880, 865293, 865697, 866115, 866516, 866888, 867279, 867659, 868078, 868459, 868855, 869230, 869636, 870044, 870435, 870823, 871196, 871547]","[862493, 862894, 863293, 863692, 864094, 864493, 864893, 865292, 865630, 866056, 866441, 866825, 867208, 867603, 868004, 868396, 868758, 869175, 869576, 869978, 870373, 870768, 871091, 871490]",15,R,ITM,1.1,
6,400,trial,0,39,39,39,trial,"['S', 'S', 'S', 'S', 'S', 'S', 'S', 'C', 'C', 'C', 'C', 'C', 'C', 'C', 'C', 'C', 'C', 'C', 'C', 'C', 'C', 'C', 'C']","[877370, 877755, 878152, 878532, 878915, 879331, 879768, 880142, 880524, 880879, 881253, 881640, 882019, 882381, 882757, 883141, 883556, 883949, 884340, 884738, 885137, 885505, 885892]","[877479, 877859, 878265, 878616, 878999, 879416, 879837, 880224, 880603, 880967, 881343, 881738, 882100, 882485, 882867, 883273, 883663, 884058, 884442, 884833, 885239, 885602, 885984]","[876985, 877384, 877785, 878184, 878584, 878984, 879384, 879784, 880168, 880551, 880906, 881280, 881667, 882045, 882408, 882784, 883168, 883582, 883976, 884367, 884765, 885164, 885532, 885918]",15,R,ITM,1.1,
7,400,trial,0,40,40,40,trial,"['S', 'S', 'S', 'S', 'S', 'S', 'S', 'S', 'C', 'C', 'C', 'C', 'C', 'C', 'C', 'C', 'C', 'C', 'C', 'C', 'C', 'C', 'C', 'C']","[891686, 891950, 892315, 892691, 893074, 893435, 893833, 894243, 894631, 895036, 895428, 895831, 896221, 896606, 896997, 897392, 897780, 898164, 898558, 898940, 899352, 899745, 900115, 900540]","[891753, 892057, 892425, 892800, 893177, 893545, 893939, 894348, 894747, 895130, 895531, 895925, 896308, 896721, 897102, 897496, 897878, 898263, 898659, 899061, 899449, 899844, 900213, 900639]","[891515, 891914, 892314, 892715, 893114, 893514, 893915, 894314, 894658, 895064, 895455, 895858, 896248, 896633, 897025, 897419, 897807, 898191, 898585, 898967, 899379, 899773, 900142, 900568]",15,R,ITM,1.1,
6,600,trial,0,41,41,41,trial,"['S', 'S', 'S', 'S', 'S', 'S', 'S', 'S', 'C', 'C', 'C', 'C', 'C', 'C', 'C', 'C', 'C', 'C', 'C', 'C', 'C', 'C', 'C', 'C']","[906594, 906877, 907322, 907928, 908509, 909077, 909637, 910297, 910924, 911476, 912013, 912609, 913161, 913758, 914320, 914902, 915434, 916045, 916659, 917223, 917810, 918447, 919093, 919697]","[906674, 906991, 907526, 908115, 908741, 909316, 909824, 910443, 911062, 911643, 912207, 912754, 913319, 913903, 914460, 915023, 915587, 916177, 916783, 917347, 918007, 918599, 919196, 919827]","[906184, 906783, 907383, 907983, 908583, 909184, 909784, 910384, 910951, 911503, 912040, 912635, 913187, 913784, 914347, 914928, 915462, 916072, 916685, 917251, 917837, 918473, 919120, 919725]",15,R,ITM,1.1,
5,600,trial,0,42,42,42,trial,"['S', 'S', 'S', 'S', 'S', 'S', 'S', 'S', 'S', 'S', 'C', 'C', 'C', 'C', 'C', 'C', 'C', 'C', 'C', 'C', 'C', 'C', 'C', 'C', 'C', 'C', 'C', 'C']","[927014, 927321, 927861, 928476, 929079, 929684, 930325, 930425, 930883, 930983, 931440, 931546, 932021, 932626, 932733, 933233, 933824, 934343, 934921, 935510, 936091, 936706, 937289, 937875, 938454, 939065, 939658, 940227]","[927112, 927425, 928012, 928637, 929344, 929899, 930345, 930499, 930903, 931046, 931466, 931586, 932160, 932652, 932753, 933325, 933960, 934510, 935098, 935734, 936292, 936900, 937499, 938078, 938647, 939249, 939847, 940433]","[926765, 927364, 927964, 928563, 929163, 929763, 930363, 930963, 931466, 932046, 932652, 933259, 933850, 934370, 934946, 935535, 936117, 936731, 937315, 937901, 938479, 939091, 939683, 940253]",15,R,ITM,1.1,
4,400,trial,0,43,43,43,trial,"['C', 'C', 'C', 'C', 'C', 'C', 'C', 'C', 'C', 'C', 'C', 'C', 'C', 'C', 'C', 'C']","[948942, 949316, 949709, 950080, 950460, 950860, 951225, 951588, 951967, 952357, 952743, 953092, 953451, 953839, 954230, 954600]","[949018, 949392, 949791, 950154, 950556, 950958, 951347, 951689, 952075, 952456, 952842, 953183, 953554, 953938, 954343, 954703]","[945875, 946275, 946675, 947076, 947475, 947875, 948275, 948675, 948968, 949342, 949735, 950106, 950486, 950886, 951250, 951614, 951993, 952384, 952769, 953117, 953477, 953866, 954256, 954627]",15,R,ITM,1.1,
4,400,trial,0,44,44,44,trial,"['S', 'S', 'S', 'S', 'S', 'S', 'S', 'S', 'C', 'C', 'C', 'C', 'C', 'C', 'C', 'C', 'C', 'C', 'C', 'C', 'C', 'C', 'C', 'C']","[960144, 960510, 960873, 961290, 961640, 962048, 962432, 962855, 963234, 963612, 963978, 964343, 964779, 965209, 965625, 965990, 966393, 966805, 967215, 967632, 968043, 968432, 968832, 969180]","[960250, 960624, 961004, 961385, 961770, 962150, 962561, 962972, 963355, 963720, 964101, 964491, 964926, 965318, 965726, 966121, 966519, 966915, 967314, 967737, 968134, 968536, 968930, 969288]","[960132, 960530, 960930, 961330, 961730, 962130, 962530, 962930, 963260, 963638, 964003, 964369, 964804, 965234, 965651, 966016, 966419, 966831, 967241, 967658, 968069, 968458, 968858, 969205]",15,R,ITM,1.1,
3,400,trial,0,45,45,45,trial,"['S', 'S', 'S', 'S', 'S', 'S', 'S', 'S', 'C', 'C', 'C', 'C', 'C', 'C', 'C', 'C', 'C', 'C', 'C', 'C', 'C', 'C', 'C', 'C']","[974976, 975315, 975697, 976078, 976535, 976891, 977266, 977659, 978040, 978435, 978795, 979170, 979575, 979969, 980352, 980733, 981149, 981573, 981960, 982352, 982720, 983112, 983523, 983895]","[975088, 975413, 975795, 976159, 976619, 977006, 977377, 977764, 978166, 978553, 978927, 979314, 979716, 980091, 980454, 980868, 981280, 981676, 982086, 982466, 982848, 983241, 983631, 984010]","[974937, 975335, 975735, 976135, 976535, 976935, 977335, 977735, 978066, 978460, 978821, 979195, 979601, 979994, 980377, 980759, 981175, 981599, 981986, 982378, 982746, 983138, 983548, 983920]",15,R,ITM,1.1,
5,400,trial,0,46,46,46,trial,"['S', 'S', 'S', 'S', 'S', 'S', 'S', 'C', 'C', 'C', 'C', 'C', 'C', 'C', 'C', 'C', 'C', 'C', 'C', 'C', 'C', 'C', 'C']","[989699, 990056, 990440, 990830, 991278, 991665, 992077, 992485, 992898, 993273, 993678, 994092, 994452, 994803, 995241, 995654, 996016, 996399, 996758, 997165, 997573, 997924, 998290]","[989787, 990168, 990526, 990947, 991370, 991769, 992171, 992599, 992978, 993397, 993762, 994180, 994534, 994893, 995315, 995745, 996120, 996489, 996873, 997268, 997665, 998048, 998369]","[989359, 989757, 990157, 990557, 990957, 991357, 991757, 992157, 992510, 992923, 993299, 993703, 994117, 994479, 994829, 995267, 995680, 996041, 996424, 996784, 997190, 997600, 997951, 998317]",15,R,ITM,1.1,
5,600,trial,0,47,47,47,trial,"['S', 'S', 'S', 'S', 'S', 'S', 'S', 'S', 'C', 'C', 'C', 'C', 'C', 'C', 'C', 'C', 'C', 'C', 'C', 'C', 'C', 'C', 'C', 'C']","[1004469, 1004813, 1005208, 1005770, 1006366, 1006960, 1007538, 1008108, 1008730, 1009258, 1009798, 1010350, 1010935, 1011505, 1012050, 1012622, 1013191, 1013742, 1014308, 1014827, 1015361, 1015916, 1016434, 1016972]","[1004552, 1004912, 1005332, 1005913, 1006527, 1007126, 1007707, 1008323, 1008935, 1009444, 1009987, 1010524, 1011096, 1011658, 1012208, 1012733, 1013330, 1013889, 1014454, 1014979, 1015527, 1016082, 1016619, 1017125]","[1004071, 1004670, 1005271, 1005871, 1006471, 1007071, 1007671, 1008271, 1008755, 1009285, 1009824, 1010375, 1010961, 1011530, 1012076, 1012647, 1013217, 1013768, 1014334, 1014852, 1015387, 1015942, 1016460, 1016997]",15,R,ITM,1.1,
5,400,trial,0,48,48,48,trial,"['S', 'S', 'S', 'S', 'S', 'S', 'S', 'C', 'C', 'C', 'C', 'C', 'C', 'C', 'C', 'C', 'C', 'C', 'C', 'C', 'C', 'C', 'C']","[1023023, 1023340, 1023689, 1024083, 1024455, 1024807, 1025269, 1025704, 1026094, 1026493, 1026902, 1027321, 1027665, 1028096, 1028494, 1028851, 1029253, 1029676, 1030088, 1030437, 1030831, 1031230, 1031624]","[1023112, 1023444, 1023785, 1024179, 1024648, 1024932, 1025439, 1025845, 1026191, 1026612, 1026991, 1027424, 1027771, 1028204, 1028583, 1028968, 1029349, 1029781, 1030190, 1030553, 1030959, 1031344, 1031733]","[1022568, 1022968, 1023368, 1023768, 1024168, 1024568, 1024968, 1025369, 1025730, 1026119, 1026519, 1026927, 1027348, 1027691, 1028121, 1028519, 1028878, 1029278, 1029702, 1030114, 1030463, 1030856, 1031256, 1031651]",15,R,ITM,1.1,
7,600,trial,0,49,49,49,trial,"['S', 'S', 'S', 'S', 'S', 'S', 'S', 'S', 'C', 'C', 'C', 'C', 'C', 'C', 'C', 'C', 'C', 'C', 'C', 'C', 'C', 'C', 'C', 'C']","[1037368, 1037680, 1038200, 1038880, 1039448, 1040013, 1040608, 1041244, 1041843, 1042435, 1043010, 1043546, 1044097, 1044698, 1045194, 1045791, 1046371, 1046945, 1047515, 1048133, 1048685, 1049264, 1049836, 1050421]","[1037455, 1037784, 1038343, 1038994, 1039577, 1040163, 1040773, 1041371, 1041958, 1042548, 1043146, 1043704, 1044225, 1044822, 1045370, 1045959, 1046509, 1047075, 1047668, 1048293, 1048826, 1049412, 1049954, 1050537]","[1037081, 1037680, 1038280, 1038880, 1039480, 1040080, 1040680, 1041281, 1041869, 1042461, 1043037, 1043572, 1044123, 1044725, 1045222, 1045818, 1046397, 1046972, 1047541, 1048160, 1048712, 1049291, 1049863, 1050447]",15,R,ITM,1.1,
2,600,trial,0,50,50,50,trial,"['B', 'S', 'S', 'S', 'S', 'S', 'S', 'S', 'C', 'C', 'C', 'C', 'C', 'C', 'C', 'C', 'C', 'C', 'C', 'C', 'C', 'C', 'C', 'C']","[1055978, 1056391, 1057104, 1057821, 1058296, 1058881, 1059483, 1060080, 1060665, 1061207, 1061810, 1062413, 1063012, 1063621, 1064253, 1064877, 1065490, 1066116, 1066714, 1067329, 1067913, 1068576, 1069177, 1069760]","[1055998, 1056525, 1057221, 1057933, 1058461, 1059030, 1059692, 1060269, 1060865, 1061388, 1061990, 1062608, 1063218, 1063812, 1064467, 1065110, 1065674, 1066273, 1066921, 1067560, 1068143, 1068786, 1069363, 1069952]","[1055991, 1056591, 1057191, 1057790, 1058392, 1058992, 1059592, 1060191, 1060691, 1061233, 1061837, 1062439, 1063038, 1063649, 1064281, 1064903, 1065518, 1066143, 1066740, 1067356, 1067939, 1068603, 1069204, 1069788]",15,R,ITM,1.1,
2,400,trial,0,51,51,51,trial,"['S', 'S', 'S', 'S', 'S', 'S', 'S', 'S', 'C', 'C', 'C', 'C', 'C', 'C', 'C', 'C', 'C', 'C', 'C', 'C', 'C', 'C', 'C', 'C']","[1075751, 1076037, 1076317, 1076640, 1077053, 1077441, 1077828, 1078211, 1078629, 1079002, 1079418, 1079802, 1080200, 1080588, 1081015, 1081383, 1081763, 1082171, 1082552, 1082937, 1083319, 1083734, 1084095, 1084480]","[1075820, 1076108, 1076412, 1076749, 1077149, 1077532, 1077939, 1078328, 1078733, 1079131, 1079520, 1079915, 1080298, 1080686, 1081106, 1081475, 1081857, 1082258, 1082647, 1083064, 1083429, 1083831, 1084228, 1084623]","[1075484, 1075884, 1076283, 1076684, 1077085, 1077483, 1077884, 1078284, 1078656, 1079029, 1079446, 1079830, 1080226, 1080614, 1081042, 1081411, 1081790, 1082199, 1082578, 1082963, 1083346, 1083760, 1084122, 1084507]",15,R,ITM,1.1,
3,600,trial,0,52,52,52,trial,"['S', 'S', 'S', 'S', 'S', 'S', 'S', 'S', 'C', 'C', 'C', 'C', 'C', 'C', 'C', 'C', 'C', 'C', 'C', 'C', 'C', 'C', 'C', 'C']","[1090189, 1090551, 1091119, 1091744, 1092348, 1092933, 1093548, 1094117, 1094724, 1095328, 1095960, 1096544, 1097101, 1097676, 1098232, 1098825, 1099398, 1100002, 1100578, 1101108, 1101652, 1102255, 1102838, 1103450]","[1090333, 1090686, 1091260, 1091899, 1092518, 1093098, 1093715, 1094324, 1094922, 1095547, 1096154, 1096760, 1097374, 1097894, 1098479, 1099070, 1099633, 1100226, 1100786, 1101366, 1101905, 1102471, 1103083, 1103634]","[1089996, 1090596, 1091196, 1091796, 1092397, 1092997, 1093597, 1094197, 1094750, 1095354, 1095986, 1096569, 1097126, 1097702, 1098258, 1098851, 1099423, 1100027, 1100604, 1101133, 1101678, 1102281, 1102864, 1103475]",15,R,ITM,1.1,
4,600,trial,0,53,53,53,trial,"['S', 'S', 'S', 'S', 'S', 'S', 'S', 'S', 'C', 'C', 'C', 'C', 'C', 'C', 'C', 'C', 'C', 'C', 'C', 'C', 'C', 'C', 'C', 'C']","[1109315, 1109616, 1110089, 1110630, 1111229, 1111836, 1112475, 1113067, 1113648, 1114163, 1114839, 1115416, 1115983, 1116563, 1117133, 1117703, 1118362, 1118974, 1119554, 1120110, 1120650, 1121198, 1121764, 1122339]","[1109440, 1109731, 1110238, 1110859, 1111454, 1112058, 1112691, 1113271, 1113828, 1114403, 1115021, 1115635, 1116227, 1116780, 1117382, 1117980, 1118620, 1119241, 1119788, 1120267, 1120851, 1121399, 1121980, 1122557]","[1108962, 1109562, 1110162, 1110762, 1111362, 1111962, 1112562, 1113162, 1113673, 1114188, 1114864, 1115442, 1116009, 1116589, 1117159, 1117728, 1118388, 1119000, 1119581, 1120136, 1120675, 1121223, 1121789, 1122365]",15,R,ITM,1.1,
4,400,trial,0,54,54,54,trial,"['S', 'S', 'S', 'S', 'S', 'S', 'S', 'C', 'C', 'C', 'C', 'C', 'C', 'C', 'C', 'C', 'C', 'C', 'C', 'C', 'C', 'C', 'C']","[1129709, 1130066, 1130381, 1130766, 1131136, 1131554, 1131939, 1132376, 1132754, 1133131, 1133517, 1133886, 1134274, 1134641, 1135038, 1135435, 1135828, 1136199, 1136617, 1137003, 1137376, 1137740, 1138150]","[1129817, 1130139, 1130487, 1130878, 1131270, 1131680, 1132082, 1132492, 1132859, 1133252, 1133632, 1134005, 1134383, 1134752, 1135147, 1135543, 1135922, 1136335, 1136722, 1137141, 1137497, 1137854, 1138265]","[1129235, 1129634, 1130034, 1130434, 1130834, 1131234, 1131634, 1132035, 1132402, 1132780, 1133158, 1133543, 1133912, 1134300, 1134666, 1135065, 1135461, 1135853, 1136225, 1136643, 1137030, 1137401, 1137766, 1138176]",15,R,ITM,1.1,
4,600,trial,0,55,55,55,trial,"['S', 'S', 'S', 'S', 'S', 'S', 'S', 'S', 'C', 'C', 'C', 'C', 'C', 'C', 'C', 'C', 'C', 'C', 'C', 'C', 'C', 'C', 'C', 'C']","[1143834, 1144179, 1144836, 1145473, 1146112, 1146685, 1147235, 1147846, 1148485, 1149061, 1149693, 1150306, 1150915, 1151502, 1152111, 1152727, 1153328, 1153950, 1154563, 1155166, 1155771, 1156349, 1156973, 1157574]","[1143933, 1144291, 1145000, 1145635, 1146253, 1146833, 1147400, 1147990, 1148635, 1149215, 1149885, 1150492, 1151118, 1151720, 1152340, 1152942, 1153576, 1154160, 1154732, 1155269, 1155891, 1156485, 1157121, 1157708]","[1143763, 1144364, 1144964, 1145564, 1146163, 1146763, 1147363, 1147963, 1148511, 1149086, 1149719, 1150331, 1150941, 1151527, 1152138, 1152753, 1153353, 1153976, 1154588, 1155191, 1155796, 1156376, 1156999, 1157600]",15,R,ITM,1.1,
3,600,trial,0,56,56,56,trial,"['S', 'S', 'S', 'S', 'S', 'S', 'S', 'S', 'C', 'C', 'C', 'C', 'C', 'C', 'C', 'C', 'C', 'C', 'C', 'C', 'C', 'C', 'C', 'C']","[1163521, 1163842, 1164339, 1164934, 1165524, 1166136, 1166717, 1167300, 1167923, 1168473, 1169110, 1169760, 1170332, 1170897, 1171482, 1172058, 1172641, 1173225, 1173809, 1174409, 1175040, 1175628, 1176176, 1176753]","[1163610, 1163970, 1164499, 1165091, 1165674, 1166307, 1166877, 1167461, 1168081, 1168676, 1169293, 1169912, 1170529, 1171089, 1171679, 1172237, 1172847, 1173421, 1174000, 1174542, 1175199, 1175812, 1176354, 1176938]","[1163235, 1163834, 1164434, 1165034, 1165634, 1166234, 1166834, 1167434, 1167948, 1168498, 1169135, 1169785, 1170358, 1170923, 1171508, 1172083, 1172667, 1173251, 1173834, 1174434, 1175065, 1175654, 1176202, 1176778]",15,R,ITM,1.1,
3,400,trial,0,57,57,57,trial,"['S', 'S', 'S', 'S', 'S', 'S', 'S', 'S', 'C', 'C', 'C', 'C', 'C', 'C', 'C', 'C', 'C', 'C', 'C', 'C', 'C', 'C', 'C', 'C']","[1182535, 1182884, 1183179, 1183496, 1183894, 1184263, 1184685, 1185041, 1185437, 1185835, 1186236, 1186620, 1186995, 1187375, 1187757, 1188124, 1188492, 1188875, 1189258, 1189609, 1190008, 1190384, 1190760, 1191119]","[1182650, 1182983, 1183251, 1183601, 1183981, 1184366, 1184778, 1185144, 1185541, 1185929, 1186343, 1186727, 1187115, 1187474, 1187865, 1188251, 1188616, 1188982, 1189384, 1189735, 1190131, 1190515, 1190889, 1191241]","[1182318, 1182717, 1183117, 1183517, 1183918, 1184317, 1184717, 1185117, 1185463, 1185860, 1186262, 1186646, 1187020, 1187400, 1187782, 1188150, 1188517, 1188900, 1189283, 1189635, 1190034, 1190410, 1190786, 1191145]",15,R,ITM,1.1,
4,600,trial,0,58,58,58,trial,"['S', 'S', 'S', 'S', 'S', 'S', 'S', 'S', 'S', 'C', 'C', 'C', 'C', 'C', 'C', 'C', 'C', 'C', 'C', 'C', 'C', 'C', 'C', 'C', 'C']","[1196483, 1196823, 1197176, 1197573, 1198150, 1198780, 1199379, 1199978, 1200572, 1201150, 1201754, 1202367, 1202968, 1203585, 1204195, 1204769, 1205356, 1205867, 1206491, 1207113, 1207774, 1208391, 1208970, 1209512, 1210094]","[1196592, 1196938, 1197278, 1197731, 1198296, 1198981, 1199608, 1200212, 1200799, 1201443, 1202035, 1202604, 1203208, 1203813, 1204421, 1204948, 1205530, 1206071, 1206695, 1207308, 1207901, 1208534, 1209145, 1209687, 1210274]","[1196461, 1197060, 1197660, 1198259, 1198859, 1199459, 1200059, 1200659, 1201176, 1201779, 1202393, 1202994, 1203610, 1204220, 1204795, 1205382, 1205893, 1206516, 1207140, 1207799, 1208417, 1208995, 1209538, 1210120]",15,R,ITM,1.1,
7,400,trial,0,59,59,59,trial,"['S', 'S', 'S', 'S', 'S', 'S', 'S', 'S', 'C', 'C', 'C', 'C', 'C', 'C', 'C', 'C', 'C', 'C', 'C', 'C', 'C', 'C', 'C', 'C']","[1216035, 1216326, 1216687, 1217065, 1217458, 1217838, 1218286, 1218664, 1219067, 1219468, 1219850, 1220239, 1220636, 1221023, 1221421, 1221784, 1222212, 1222608, 1222998, 1223379, 1223755, 1224142, 1224559, 1224960]","[1216113, 1216460, 1216811, 1217178, 1217541, 1217951, 1218388, 1218748, 1219153, 1219569, 1219981, 1220357, 1220757, 1221137, 1221551, 1221957, 1222344, 1222711, 1223131, 1223498, 1223874, 1224289, 1224686, 1225109]","[1215901, 1216301, 1216700, 1217100, 1217501, 1217900, 1218300, 1218700, 1219095, 1219494, 1219876, 1220267, 1220664, 1221050, 1221447, 1221812, 1222239, 1222636, 1223024, 1223407, 1223782, 1224170, 1224587, 1224987]",15,R,ITM,1.1,
7,600,trial,0,60,60,60,trial,"['S', 'S', 'S', 'S', 'S', 'S', 'S', 'S', 'C', 'C', 'C', 'C', 'C', 'C', 'C', 'C', 'C', 'C', 'C', 'C', 'C', 'C', 'C', 'C']","[1230681, 1231002, 1231522, 1232175, 1232713, 1233305, 1233885, 1234505, 1235134, 1235738, 1236303, 1236856, 1237451, 1238068, 1238625, 1239222, 1239771, 1240393, 1240960, 1241496, 1242087, 1242675, 1243198, 1243770]","[1230766, 1231126, 1231635, 1232285, 1232865, 1233462, 1234015, 1234642, 1235256, 1235876, 1236414, 1237027, 1237653, 1238251, 1238807, 1239388, 1239982, 1240544, 1241107, 1241660, 1242271, 1242843, 1243363, 1243943]","[1230367, 1230966, 1231566, 1232166, 1232766, 1233367, 1233967, 1234567, 1235162, 1235765, 1236331, 1236884, 1237479, 1238095, 1238652, 1239249, 1239797, 1240420, 1240986, 1241523, 1242114, 1242702, 1243226, 1243798]",15,R,ITM,1.1,
2,400,trial,0,61,61,61,trial,"['S', 'S', 'S', 'S', 'S', 'S', 'S', 'S', 'C', 'C', 'C', 'C', 'C', 'C', 'C', 'C', 'C', 'C', 'C', 'C', 'C', 'C', 'C', 'C']","[1249479, 1249883, 1250236, 1250625, 1251004, 1251431, 1251834, 1252220, 1252614, 1253007, 1253374, 1253799, 1254199, 1254577, 1254951, 1255349, 1255740, 1256150, 1256536, 1256912, 1257300, 1257705, 1258072, 1258483]","[1249598, 1250011, 1250341, 1250735, 1251117, 1251544, 1251951, 1252325, 1252728, 1253122, 1253516, 1253931, 1254318, 1254717, 1255093, 1255482, 1255874, 1256275, 1256662, 1257049, 1257468, 1257844, 1258229, 1258606]","[1249465, 1249864, 1250266, 1250665, 1251065, 1251465, 1251865, 1252265, 1252641, 1253033, 1253401, 1253827, 1254225, 1254604, 1254978, 1255376, 1255767, 1256177, 1256563, 1256940, 1257328, 1257732, 1258098, 1258510]",15,R,ITM,1.1,
5,400,trial,0,62,62,62,trial,"['S', 'S', 'S', 'S', 'S', 'S', 'S', 'S', 'C', 'C', 'C', 'C', 'C', 'C', 'C', 'C', 'C', 'C', 'C', 'C', 'C', 'C', 'C', 'C']","[1264355, 1264681, 1264964, 1265287, 1265657, 1266071, 1266452, 1266842, 1267245, 1267601, 1268020, 1268425, 1268819, 1269209, 1269592, 1269990, 1270355, 1270754, 1271150, 1271526, 1271916, 1272294, 1272655, 1273046]","[1264463, 1264771, 1265086, 1265415, 1265778, 1266208, 1266577, 1266972, 1267377, 1267759, 1268146, 1268534, 1268947, 1269335, 1269713, 1270114, 1270507, 1270877, 1271273, 1271654, 1272035, 1272430, 1272775, 1273147]","[1264126, 1264525, 1264925, 1265326, 1265725, 1266125, 1266525, 1266925, 1267271, 1267627, 1268046, 1268452, 1268845, 1269234, 1269617, 1270016, 1270381, 1270779, 1271176, 1271553, 1271942, 1272320, 1272681, 1273071]",15,R,ITM,1.1,
3,400,trial,0,63,63,63,trial,"['S', 'S', 'S', 'S', 'S', 'S', 'S', 'S', 'C', 'C', 'C', 'C', 'C', 'C', 'C', 'C', 'C', 'C', 'C', 'C', 'C', 'C', 'C', 'C']","[1278952, 1279328, 1279596, 1279928, 1280296, 1280679, 1281048, 1281435, 1281846, 1282216, 1282613, 1283009, 1283398, 1283779, 1284167, 1284586, 1284963, 1285348, 1285724, 1286132, 1286521, 1286899, 1287264, 1287642]","[1279085, 1279410, 1279698, 1280049, 1280413, 1280786, 1281163, 1281560, 1281951, 1282341, 1282749, 1283153, 1283538, 1283905, 1284331, 1284715, 1285081, 1285482, 1285886, 1286275, 1286671, 1287031, 1287400, 1287780]","[1278720, 1279118, 1279518, 1279919, 1280318, 1280718, 1281118, 1281518, 1281871, 1282242, 1282638, 1283035, 1283424, 1283805, 1284193, 1284612, 1284988, 1285373, 1285749, 1286158, 1286547, 1286925, 1287289, 1287667]",15,R,ITM,1.1,
2,600,trial,0,64,64,64,trial,"['S', 'S', 'S', 'S', 'S', 'S', 'S', 'S', 'S', 'C', 'C', 'C', 'C', 'C', 'C', 'C', 'C', 'C', 'C', 'C', 'C', 'C', 'C', 'C', 'C']","[1293375, 1293631, 1293921, 1294294, 1294846, 1295404, 1295996, 1296645, 1297197, 1297805, 1298400, 1298992, 1299563, 1300152, 1300799, 1301429, 1302044, 1302562, 1303176, 1303781, 1304335, 1304906, 1305504, 1306081, 1306634]","[1293471, 1293746, 1294016, 1294569, 1295144, 1295727, 1296328, 1296905, 1297518, 1298080, 1298695, 1299287, 1299865, 1300458, 1301085, 1301693, 1302275, 1302806, 1303410, 1303988, 1304558, 1305133, 1305711, 1306303]","[1293107, 1293706, 1294306, 1294905, 1295506, 1296106, 1296706, 1297306, 1297831, 1298427, 1299019, 1299591, 1300179, 1300827, 1301456, 1302071, 1302590, 1303203, 1303809, 1304363, 1304934, 1305532, 1306108, 1306661]",15,R,ITM,1.1,
5,600,trial,0,65,65,65,trial,"['S', 'S', 'S', 'S', 'S', 'S', 'S', 'S', 'C', 'C', 'C', 'C', 'C', 'C', 'C', 'C', 'C', 'C', 'C', 'C', 'C', 'C', 'C', 'C']","[1312422, 1312738, 1313271, 1313880, 1314528, 1315132, 1315724, 1316334, 1316904, 1317466, 1318032, 1318614, 1319169, 1319777, 1320335, 1320905, 1321456, 1322076, 1322665, 1323190, 1323762, 1324379, 1324946, 1325501]","[1312532, 1312864, 1313417, 1314043, 1314676, 1315316, 1315932, 1316463, 1317079, 1317638, 1318218, 1318780, 1319382, 1319962, 1320553, 1321127, 1321702, 1322283, 1322842, 1323388, 1324000, 1324570, 1325114, 1325641]","[1312212, 1312812, 1313412, 1314012, 1314611, 1315211, 1315811, 1316411, 1316930, 1317491, 1318057, 1318640, 1319195, 1319802, 1320360, 1320931, 1321482, 1322101, 1322690, 1323215, 1323788, 1324404, 1324972, 1325528]",15,R,ITM,1.1,
6,600,trial,0,66,66,66,trial,"['S', 'S', 'S', 'S', 'S', 'S', 'S', 'S', 'C', 'C', 'C', 'C', 'C', 'C', 'C', 'C', 'C', 'C', 'C', 'C', 'C', 'C', 'C', 'C']","[1331419, 1331729, 1332196, 1332782, 1333359, 1333957, 1334525, 1335132, 1335718, 1336293, 1336873, 1337402, 1338002, 1338628, 1339219, 1339793, 1340349, 1340976, 1341587, 1342162, 1342777, 1343350, 1343931, 1344487]","[1331561, 1331857, 1332407, 1333005, 1333596, 1334177, 1334751, 1335352, 1335961, 1336504, 1337086, 1337648, 1338231, 1338859, 1339428, 1340021, 1340581, 1341244, 1341802, 1342360, 1343003, 1343588, 1344145, 1344677]","[1331080, 1331678, 1332278, 1332878, 1333478, 1334078, 1334678, 1335278, 1335746, 1336320, 1336900, 1337428, 1338029, 1338654, 1339246, 1339821, 1340377, 1341003, 1341614, 1342189, 1342803, 1343377, 1343959, 1344514]",15,R,ITM,1.1,
3,600,trial,0,67,67,67,trial,"['S', 'S', 'S', 'S', 'S', 'S', 'S', 'S', 'C', 'C', 'C', 'C', 'C', 'C', 'C', 'C', 'C', 'C', 'C', 'C', 'C', 'C', 'C', 'C']","[1350174, 1350499, 1351081, 1351662, 1352245, 1352820, 1353405, 1353947, 1354584, 1355131, 1355730, 1356319, 1356943, 1357568, 1358158, 1358738, 1359357, 1359971, 1360553, 1361178, 1361794, 1362392, 1362987, 1363572]","[1350268, 1350679, 1351192, 1351840, 1352449, 1352986, 1353592, 1354128, 1354753, 1355302, 1355901, 1356513, 1357137, 1357722, 1358339, 1358942, 1359540, 1360165, 1360789, 1361403, 1362035, 1362661, 1363223, 1363780]","[1349962, 1350561, 1351161, 1351761, 1352361, 1352962, 1353562, 1354162, 1354609, 1355157, 1355756, 1356345, 1356968, 1357593, 1358184, 1358764, 1359383, 1359996, 1360579, 1361204, 1361819, 1362417, 1363012, 1363598]",15,R,ITM,1.1,
6,400,trial,0,68,68,68,trial,"['S', 'S', 'S', 'S', 'S', 'S', 'S', 'S', 'C', 'C', 'C', 'C', 'C', 'C', 'C', 'C', 'C', 'C', 'C', 'C', 'C', 'C', 'C', 'C']","[1369671, 1369962, 1370267, 1370605, 1371002, 1371377, 1371742, 1372141, 1372521, 1372904, 1373307, 1373701, 1374106, 1374545, 1374946, 1375343, 1375721, 1376103, 1376491, 1376881, 1377235, 1377645, 1378073, 1378428]","[1369824, 1370094, 1370388, 1370749, 1371145, 1371511, 1371887, 1372288, 1372653, 1373065, 1373468, 1373856, 1374241, 1374686, 1375088, 1375475, 1375865, 1376246, 1376628, 1377010, 1377406, 1377793, 1378189, 1378577]","[1369393, 1369792, 1370192, 1370592, 1370992, 1371393, 1371792, 1372192, 1372548, 1372931, 1373334, 1373727, 1374134, 1374573, 1374973, 1375370, 1375748, 1376130, 1376519, 1376909, 1377262, 1377672, 1378100, 1378455]",15,R,ITM,1.1,
6,400,trial,0,69,69,69,trial,"['S', 'S', 'S', 'S', 'S', 'S', 'S', 'C', 'C', 'C', 'C', 'C', 'C', 'C', 'C', 'C', 'C', 'C', 'C', 'C', 'C', 'C', 'C']","[1384365, 1384816, 1385214, 1385638, 1386037, 1386432, 1386795, 1387211, 1387622, 1388055, 1388408, 1388781, 1389197, 1389596, 1389983, 1390360, 1390748, 1391100, 1391492, 1391843, 1392259, 1392671, 1393047]","[1384519, 1384960, 1385359, 1385769, 1386171, 1386584, 1386947, 1387351, 1387762, 1388158, 1388542, 1388916, 1389330, 1389741, 1390101, 1390486, 1390871, 1391233, 1391613, 1391998, 1392392, 1392805, 1393185]","[1384095, 1384495, 1384894, 1385294, 1385694, 1386094, 1386494, 1386894, 1387238, 1387649, 1388082, 1388435, 1388808, 1389224, 1389624, 1390010, 1390387, 1390775, 1391127, 1391519, 1391870, 1392286, 1392699, 1393075]",15,R,ITM,1.1,
4,400,trial,0,70,70,70,trial,"['B', 'S', 'S', 'S', 'S', 'S', 'S', 'S', 'C', 'C', 'C', 'C', 'C', 'C', 'C', 'C', 'C', 'C', 'C', 'C', 'C', 'C', 'C', 'C']","[1398821, 1399232, 1399559, 1399941, 1400363, 1400745, 1401167, 1401623, 1401975, 1402346, 1402754, 1403154, 1403573, 1403947, 1404311, 1404735, 1405161, 1405558, 1405945, 1406344, 1406766, 1407152, 1407588, 1407971]","[1399015, 1399321, 1399683, 1400041, 1400445, 1400846, 1401244, 1401705, 1402098, 1402457, 1402882, 1403309, 1403704, 1404076, 1404454, 1404874, 1405305, 1405713, 1406080, 1406498, 1406911, 1407310, 1407721, 1408091]","[1398833, 1399232, 1399632, 1400032, 1400432, 1400833, 1401232, 1401632, 1402001, 1402372, 1402779, 1403180, 1403598, 1403972, 1404337, 1404761, 1405187, 1405584, 1405971, 1406369, 1406791, 1407178, 1407613, 1407996]",15,R,ITM,1.1,
2,400,trial,0,71,71,71,trial,"['B', 'S', 'S', 'S', 'S', 'S', 'S', 'S', 'C', 'C', 'C', 'C', 'C', 'C', 'C', 'C', 'C', 'C', 'C', 'C', 'C', 'C', 'C', 'C']","[1413560, 1413812, 1414215, 1414686, 1415088, 1415510, 1415911, 1416296, 1416720, 1417116, 1417531, 1417936, 1418303, 1418683, 1419088, 1419464, 1419884, 1420290, 1420655, 1421020, 1421419, 1421806, 1422171, 1422526]","[1413580, 1413978, 1414402, 1414825, 1415224, 1415658, 1416033, 1416403, 1416829, 1417260, 1417654, 1418055, 1418447, 1418825, 1419213, 1419611, 1420009, 1420402, 1420802, 1421159, 1421537, 1421941, 1422305, 1422675]","[1413573, 1413974, 1414373, 1414772, 1415174, 1415573, 1415973, 1416373, 1416747, 1417143, 1417558, 1417964, 1418331, 1418711, 1419116, 1419491, 1419912, 1420317, 1420682, 1421046, 1421446, 1421834, 1422198, 1422553]",15,R,ITM,1.1,
2,600,trial,0,72,72,72,trial,"['S', 'S', 'S', 'S', 'S', 'S', 'S', 'S', 'S', 'C', 'C', 'C', 'C', 'C', 'C', 'C', 'C', 'C', 'C', 'C', 'C', 'C', 'C', 'C', 'C']","[1428280, 1428549, 1428872, 1429261, 1429757, 1430347, 1430981, 1431565, 1432146, 1432724, 1433261, 1433849, 1434450, 1435077, 1435655, 1436250, 1436832, 1437445, 1438043, 1438629, 1439152, 1439737, 1440350, 1440954, 1441511]","[1428336, 1428675, 1428966, 1429416, 1430040, 1430651, 1431302, 1431867, 1432451, 1433000, 1433546, 1434148, 1434773, 1435329, 1435943, 1436506, 1437120, 1437775, 1438370, 1438895, 1439482, 1440040, 1440621, 1441211]","[1428057, 1428657, 1429257, 1429857, 1430457, 1431057, 1431657, 1432256, 1432751, 1433287, 1433877, 1434478, 1435105, 1435681, 1436276, 1436859, 1437472, 1438069, 1438657, 1439178, 1439764, 1440377, 1440982, 1441538]",15,R,ITM,1.1,
7,400,trial,0,73,73,73,trial,"['S', 'S', 'S', 'S', 'S', 'S', 'S', 'S', 'C', 'C', 'C', 'C', 'C', 'C', 'C', 'C', 'C', 'C', 'C', 'C', 'C', 'C', 'C', 'C']","[1447063, 1447383, 1447716, 1448081, 1448439, 1448828, 1449261, 1449610, 1450031, 1450421, 1450818, 1451205, 1451577, 1451978, 1452361, 1452751, 1453126, 1453502, 1453900, 1454264, 1454676, 1455049, 1455435, 1455839]","[1447171, 1447488, 1447823, 1448192, 1448564, 1448946, 1449356, 1449745, 1450149, 1450540, 1450962, 1451346, 1451713, 1452123, 1452498, 1452888, 1453264, 1453640, 1454036, 1454409, 1454807, 1455170, 1455552, 1455952]","[1446897, 1447297, 1447696, 1448096, 1448497, 1448896, 1449296, 1449696, 1450058, 1450447, 1450845, 1451233, 1451604, 1452005, 1452388, 1452779, 1453154, 1453530, 1453928, 1454290, 1454704, 1455077, 1455463, 1455865]",15,R,ITM,1.1,
5,400,trial,0,74,74,74,trial,"['S', 'S', 'S', 'S', 'S', 'S', 'S', 'C', 'C', 'C', 'C', 'C', 'C', 'C', 'C', 'C', 'C', 'C', 'C', 'C', 'C', 'C', 'C']","[1461935, 1462311, 1462689, 1463081, 1463483, 1463867, 1464243, 1464623, 1465013, 1465402, 1465797, 1466151, 1466526, 1466946, 1467342, 1467721, 1468088, 1468477, 1468860, 1469214, 1469585, 1469992, 1470366]","[1462036, 1462403, 1462788, 1463178, 1463585, 1463967, 1464356, 1464742, 1465126, 1465526, 1465913, 1466264, 1466654, 1467089, 1467459, 1467830, 1468194, 1468595, 1468966, 1469338, 1469699, 1470105, 1470486]","[1461507, 1461905, 1462305, 1462706, 1463106, 1463506, 1463906, 1464306, 1464648, 1465038, 1465427, 1465823, 1466177, 1466552, 1466973, 1467368, 1467747, 1468113, 1468504, 1468887, 1469240, 1469612, 1470019, 1470392]",15,R,ITM,1.1,
5,600,trial,0,75,75,75,trial,"['B', 'S', 'S', 'S', 'S', 'S', 'S', 'S', 'S', 'C', 'C', 'C', 'C', 'C', 'C', 'C', 'C', 'C', 'C', 'C', 'C', 'C', 'C', 'C', 'C']","[1476140, 1476468, 1476870, 1477319, 1477908, 1478448, 1479065, 1479683, 1480240, 1480896, 1481509, 1482103, 1482672, 1483246, 1483907, 1484533, 1485130, 1485741, 1486373, 1486998, 1487604, 1488236, 1488888, 1489451, 1490052]","[1476185, 1476585, 1477008, 1477515, 1478095, 1478729, 1479307, 1479867, 1480425, 1481079, 1481664, 1482267, 1482815, 1483422, 1484088, 1484708, 1485292, 1485893, 1486536, 1487191, 1487782, 1488420, 1489044, 1489646, 1490245]","[1476152, 1476751, 1477351, 1477951, 1478551, 1479151, 1479751, 1480351, 1480923, 1481535, 1482129, 1482697, 1483273, 1483932, 1484559, 1485156, 1485767, 1486400, 1487024, 1487631, 1488262, 1488915, 1489477, 1490077]",15,R,ITM,1.1,
6,600,trial,0,76,76,76,trial,"['S', 'S', 'S', 'S', 'S', 'S', 'S', 'S', 'C', 'C', 'C', 'C', 'C', 'C', 'C', 'C', 'C', 'C', 'C', 'C', 'C', 'C', 'C', 'C']","[1496070, 1496411, 1496834, 1497399, 1498046, 1498671, 1499234, 1499798, 1500418, 1501001, 1501578, 1502178, 1502816, 1503349, 1503963, 1504561, 1505146, 1505742, 1506363, 1506935, 1507495, 1508186, 1508696, 1509270]","[1496161, 1496524, 1496984, 1497538, 1498174, 1498797, 1499424, 1499923, 1500518, 1501140, 1501735, 1502318, 1502983, 1503537, 1504110, 1504676, 1505232, 1505870, 1506473, 1507075, 1507617, 1508291, 1508844, 1509405]","[1495725, 1496324, 1496924, 1497523, 1498123, 1498723, 1499323, 1499923, 1500445, 1501029, 1501604, 1502204, 1502842, 1503376, 1503990, 1504588, 1505173, 1505769, 1506390, 1506962, 1507523, 1508212, 1508722, 1509298]",15,R,ITM,1.1,
7,600,trial,0,77,77,77,trial,"['S', 'S', 'S', 'S', 'S', 'S', 'S', 'S', 'C', 'C', 'C', 'C', 'C', 'C', 'C', 'C', 'C', 'C', 'C', 'C', 'C', 'C', 'C', 'C']","[1515321, 1515732, 1516196, 1516736, 1517331, 1517895, 1518486, 1519086, 1519707, 1520250, 1520806, 1521367, 1521939, 1522541, 1523118, 1523709, 1524261, 1524819, 1525380, 1525984, 1526548, 1527098, 1527666, 1528226]","[1515426, 1515837, 1516311, 1516866, 1517445, 1518038, 1518622, 1519217, 1519844, 1520397, 1520951, 1521503, 1522083, 1522689, 1523262, 1523844, 1524395, 1524964, 1525512, 1526098, 1526636, 1527219, 1527791, 1528344]","[1514996, 1515595, 1516195, 1516795, 1517395, 1517996, 1518596, 1519196, 1519734, 1520278, 1520833, 1521394, 1521966, 1522569, 1523145, 1523736, 1524289, 1524847, 1525406, 1526010, 1526576, 1527126, 1527694, 1528253]",15,R,ITM,1.1,
5,400,trial,0,78,78,78,trial,"['S', 'S', 'S', 'S', 'S', 'S', 'S', 'C', 'C', 'C', 'C', 'C', 'C', 'C', 'C', 'C', 'C', 'C', 'C', 'C', 'C', 'C', 'C']","[1534301, 1534682, 1535064, 1535457, 1535865, 1536224, 1536637, 1537065, 1537491, 1537897, 1538283, 1538680, 1539116, 1539484, 1539880, 1540242, 1540642, 1541016, 1541400, 1541799, 1542212, 1542614, 1542995]","[1534437, 1534788, 1535181, 1535576, 1535969, 1536342, 1536771, 1537200, 1537603, 1538004, 1538384, 1538788, 1539225, 1539592, 1539985, 1540370, 1540741, 1541124, 1541494, 1541905, 1542328, 1542718, 1543100]","[1533923, 1534322, 1534723, 1535122, 1535522, 1535922, 1536322, 1536722, 1537091, 1537517, 1537923, 1538309, 1538706, 1539141, 1539510, 1539906, 1540269, 1540668, 1541042, 1541427, 1541825, 1542238, 1542639, 1543022]",15,R,ITM,1.1,
7,400,trial,0,79,79,79,trial,"['S', 'S', 'S', 'S', 'S', 'S', 'S', 'C', 'C', 'C', 'C', 'C', 'C', 'C', 'C', 'C', 'C', 'C', 'C', 'C', 'C', 'C', 'C']","[1548996, 1549334, 1549734, 1550144, 1550550, 1550963, 1551375, 1551777, 1552164, 1552557, 1552958, 1553319, 1553713, 1554130, 1554520, 1554914, 1555306, 1555708, 1556105, 1556514, 1556911, 1557303, 1557697]","[1549120, 1549461, 1549839, 1550261, 1550667, 1551045, 1551479, 1551890, 1552271, 1552671, 1553070, 1553464, 1553836, 1554253, 1554638, 1555040, 1555419, 1555810, 1556200, 1556628, 1557023, 1557421, 1557804]","[1548622, 1549022, 1549422, 1549822, 1550222, 1550622, 1551023, 1551422, 1551804, 1552191, 1552583, 1552985, 1553346, 1553740, 1554158, 1554547, 1554940, 1555334, 1555735, 1556131, 1556542, 1556938, 1557329, 1557724]",15,R,ITM,1.1,
4,400,trial,0,80,80,80,trial,"['S', 'S', 'S', 'S', 'S', 'S', 'S', 'S', 'C', 'C', 'C', 'C', 'C', 'C', 'C', 'C', 'C', 'C', 'C', 'C', 'C', 'C', 'C', 'C']","[1563355, 1563715, 1564100, 1564504, 1564886, 1565266, 1565675, 1566058, 1566474, 1566899, 1567296, 1567684, 1568069, 1568481, 1568878, 1569265, 1569654, 1570055, 1570437, 1570848, 1571266, 1571638, 1572019, 1572403]","[1563446, 1563835, 1564225, 1564609, 1564985, 1565401, 1565796, 1566193, 1566613, 1567022, 1567431, 1567815, 1568191, 1568588, 1568990, 1569364, 1569773, 1570174, 1570562, 1570957, 1571383, 1571750, 1572133, 1572513]","[1563334, 1563734, 1564133, 1564533, 1564934, 1565333, 1565733, 1566133, 1566500, 1566924, 1567322, 1567710, 1568095, 1568506, 1568905, 1569291, 1569680, 1570080, 1570462, 1570874, 1571292, 1571663, 1572044, 1572429]",15,R,ITM,1.1,
4,400,trial,0,81,81,81,trial,"['S', 'S', 'S', 'S', 'S', 'S', 'S', 'C', 'C', 'C', 'C', 'C', 'C', 'C', 'C', 'C', 'C', 'C', 'C', 'C', 'C', 'C', 'C']","[1578207, 1578515, 1578947, 1579389, 1579820, 1580204, 1580594, 1580987, 1581395, 1581772, 1582160, 1582545, 1582946, 1583339, 1583717, 1584119, 1584517, 1584916, 1585274, 1585647, 1586072, 1586464, 1586874]","[1578305, 1578644, 1579061, 1579516, 1579927, 1580315, 1580735, 1581130, 1581504, 1581891, 1582272, 1582679, 1583062, 1583467, 1583820, 1584232, 1584630, 1585015, 1585399, 1585764, 1586178, 1586575, 1586998]","[1577880, 1578279, 1578679, 1579079, 1579480, 1579879, 1580279, 1580679, 1581012, 1581422, 1581798, 1582186, 1582571, 1582971, 1583365, 1583742, 1584145, 1584542, 1584942, 1585300, 1585673, 1586099, 1586490, 1586899]",15,R,ITM,1.1,
7,600,trial,0,82,82,82,trial,"['S', 'S', 'S', 'S', 'S', 'S', 'S', 'S', 'C', 'C', 'C', 'C', 'C', 'C', 'C', 'C', 'C', 'C', 'C', 'C', 'C', 'C', 'C', 'C']","[1592715, 1593000, 1593522, 1594099, 1594720, 1595288, 1595906, 1596449, 1597012, 1597533, 1598105, 1598635, 1599192, 1599793, 1600373, 1600990, 1601551, 1602156, 1602717, 1603288, 1603852, 1604439, 1605040, 1605606]","[1592809, 1593123, 1593693, 1594275, 1594865, 1595433, 1596022, 1596583, 1597149, 1597674, 1598245, 1598770, 1599327, 1599937, 1600527, 1601123, 1601675, 1602280, 1602845, 1603414, 1603963, 1604559, 1605146, 1605722]","[1592363, 1592963, 1593563, 1594163, 1594763, 1595363, 1595963, 1596563, 1597038, 1597559, 1598133, 1598662, 1599218, 1599820, 1600400, 1601016, 1601579, 1602183, 1602745, 1603314, 1603878, 1604465, 1605067, 1605634]",15,R,ITM,1.1,
6,400,trial,0,83,83,83,trial,"['S', 'S', 'S', 'S', 'S', 'S', 'S', 'S', 'C', 'C', 'C', 'C', 'C', 'C', 'C', 'C', 'C', 'C', 'C', 'C', 'C', 'C', 'C', 'C']","[1611182, 1611554, 1611947, 1612313, 1612694, 1613069, 1613448, 1613825, 1614235, 1614628, 1615017, 1615410, 1615781, 1616182, 1616568, 1616953, 1617344, 1617720, 1618087, 1618473, 1618904, 1619307, 1619700, 1620073]","[1611291, 1611672, 1612054, 1612426, 1612804, 1613178, 1613570, 1613947, 1614370, 1614749, 1615162, 1615535, 1615911, 1616310, 1616684, 1617067, 1617439, 1617836, 1618198, 1618604, 1619018, 1619406, 1619802, 1620183]","[1611096, 1611494, 1611894, 1612295, 1612694, 1613094, 1613494, 1613894, 1614263, 1614656, 1615044, 1615436, 1615809, 1616208, 1616594, 1616980, 1617371, 1617747, 1618115, 1618501, 1618931, 1619334, 1619728, 1620100]",15,R,ITM,1.1,
2,600,trial,0,84,84,84,trial,"['S', 'S', 'S', 'S', 'S', 'S', 'S', 'S', 'C', 'C', 'C', 'C', 'C', 'C', 'C', 'C', 'C', 'C', 'C', 'C', 'C', 'C', 'C', 'C']","[1625609, 1625865, 1626488, 1627098, 1627723, 1628308, 1628881, 1629493, 1630111, 1630636, 1631221, 1631826, 1632450, 1633099, 1633737, 1634342, 1634902, 1635477, 1636117, 1636701, 1637272, 1637860, 1638439, 1639078]","[1625704, 1625994, 1626653, 1627322, 1627905, 1628498, 1629067, 1629676, 1630276, 1630843, 1631428, 1632018, 1632670, 1633295, 1633912, 1634495, 1635098, 1635671, 1636289, 1636865, 1637448, 1638045, 1638602, 1639215]","[1625395, 1625994, 1626593, 1627194, 1627793, 1628394, 1628994, 1629593, 1630138, 1630663, 1631248, 1631854, 1632478, 1633126, 1633764, 1634370, 1634929, 1635504, 1636144, 1636727, 1637300, 1637888, 1638467, 1639105]",15,R,ITM,1.1,
3,600,trial,0,85,85,85,trial,"['S', 'S', 'S', 'S', 'S', 'S', 'S', 'S', 'C', 'C', 'C', 'C', 'C', 'C', 'C', 'C', 'C', 'C', 'C', 'C', 'C', 'C', 'C', 'C']","[1645001, 1645262, 1645691, 1646283, 1646893, 1647475, 1648055, 1648642, 1649282, 1649874, 1650505, 1651093, 1651698, 1652281, 1652865, 1653452, 1654081, 1654723, 1655270, 1655875, 1656457, 1657076, 1657680, 1658275]","[1645086, 1645377, 1645843, 1646427, 1647034, 1647610, 1648204, 1648796, 1649417, 1650012, 1650620, 1651218, 1651795, 1652387, 1652999, 1653596, 1654210, 1654832, 1655408, 1655989, 1656579, 1657201, 1657786, 1658369]","[1644571, 1645170, 1645770, 1646370, 1646970, 1647570, 1648171, 1648771, 1649307, 1649900, 1650531, 1651120, 1651724, 1652306, 1652890, 1653478, 1654107, 1654749, 1655296, 1655901, 1656482, 1657102, 1657706, 1658301]",15,R,ITM,1.1,
5,600,trial,0,86,86,86,trial,"['S', 'S', 'S', 'S', 'S', 'S', 'S', 'S', 'C', 'C', 'C', 'C', 'C', 'C', 'C', 'C', 'C', 'C', 'C', 'C', 'C', 'C', 'C', 'C']","[1663814, 1664100, 1664729, 1665360, 1665965, 1666578, 1667149, 1667765, 1668438, 1669013, 1669620, 1670216, 1670775, 1671357, 1671951, 1672537, 1673149, 1673714, 1674295, 1674871, 1675452, 1676050, 1676655, 1677208]","[1663899, 1664199, 1664856, 1665484, 1666068, 1666686, 1667300, 1667865, 1668552, 1669151, 1669746, 1670327, 1670891, 1671465, 1672064, 1672656, 1673257, 1673823, 1674427, 1674994, 1675576, 1676150, 1676748, 1677298]","[1663628, 1664227, 1664827, 1665427, 1666027, 1666627, 1667227, 1667827, 1668463, 1669039, 1669646, 1670242, 1670802, 1671383, 1671976, 1672562, 1673175, 1673740, 1674320, 1674898, 1675479, 1676076, 1676681, 1677234]",15,R,ITM,1.1,
3,400,trial,0,87,87,87,trial,"['S', 'S', 'S', 'S', 'S', 'S', 'S', 'S', 'C', 'C', 'C', 'C', 'C', 'C', 'C', 'C', 'C', 'C', 'C', 'C', 'C', 'C', 'C', 'C']","[1682837, 1683215, 1683507, 1683875, 1684272, 1684657, 1685039, 1685451, 1685848, 1686267, 1686652, 1687045, 1687457, 1687824, 1688199, 1688598, 1688977, 1689374, 1689751, 1690137, 1690512, 1690916, 1691289, 1691663]","[1682936, 1683301, 1683608, 1683958, 1684358, 1684728, 1685134, 1685541, 1685937, 1686356, 1686753, 1687135, 1687545, 1687906, 1688278, 1688680, 1689056, 1689455, 1689837, 1690228, 1690620, 1691015, 1691371, 1691754]","[1682697, 1683097, 1683497, 1683897, 1684297, 1684698, 1685097, 1685497, 1685873, 1686293, 1686678, 1687070, 1687483, 1687849, 1688224, 1688624, 1689003, 1689400, 1689777, 1690163, 1690537, 1690942, 1691315, 1691688]",15,R,ITM,1.1,
6,600,trial,0,88,88,88,trial,"['S', 'S', 'S', 'S', 'S', 'S', 'S', 'S', 'C', 'C', 'C', 'C', 'C', 'C', 'C', 'C', 'C', 'C', 'C', 'C', 'C', 'C', 'C', 'C']","[1697592, 1697867, 1698440, 1699075, 1699670, 1700251, 1700848, 1701439, 1702021, 1702586, 1703130, 1703663, 1704236, 1704841, 1705427, 1705976, 1706520, 1707117, 1707699, 1708230, 1708801, 1709380, 1709990, 1710516]","[1697696, 1697988, 1698580, 1699196, 1699777, 1700370, 1700964, 1701555, 1702147, 1702710, 1703265, 1703788, 1704366, 1704954, 1705539, 1706086, 1706629, 1707229, 1707829, 1708347, 1708926, 1709480, 1710093, 1710632]","[1697345, 1697944, 1698544, 1699144, 1699744, 1700344, 1700944, 1701544, 1702047, 1702614, 1703157, 1703691, 1704263, 1704867, 1705454, 1706003, 1706547, 1707144, 1707725, 1708257, 1708827, 1709407, 1710017, 1710543]",15,R,ITM,1.1,
4,600,trial,0,89,89,89,trial,"['S', 'S', 'S', 'S', 'S', 'S', 'S', 'S', 'S', 'C', 'C', 'C', 'C', 'C', 'C', 'C', 'C', 'C', 'C', 'C', 'C', 'C', 'C', 'C', 'C']","[1716420, 1716695, 1716979, 1717383, 1717920, 1718500, 1719107, 1719734, 1720304, 1720916, 1721453, 1721996, 1722558, 1723125, 1723684, 1724239, 1724847, 1725392, 1725957, 1726534, 1727085, 1727664, 1728194, 1728758, 1729323]","[1716507, 1716809, 1717059, 1717499, 1718045, 1718622, 1719201, 1719818, 1720438, 1721029, 1721584, 1722118, 1722677, 1723233, 1723809, 1724358, 1724947, 1725502, 1726071, 1726639, 1727185, 1727760, 1728317, 1728889, 1729439]","[1716210, 1716809, 1717409, 1718009, 1718609, 1719209, 1719810, 1720410, 1720941, 1721479, 1722021, 1722584, 1723151, 1723711, 1724265, 1724872, 1725418, 1725982, 1726560, 1727111, 1727689, 1728221, 1728784, 1729348]",15,R,ITM,1.1,
6,600,trial,0,90,90,90,trial,"['S', 'S', 'S', 'S', 'S', 'S', 'S', 'S', 'C', 'C', 'C', 'C', 'C', 'C', 'C', 'C', 'C', 'C', 'C', 'C', 'C', 'C', 'C', 'C']","[1735300, 1735725, 1736059, 1736625, 1737248, 1737841, 1738439, 1739001, 1739621, 1740173, 1740724, 1741278, 1741901, 1742456, 1742992, 1743542, 1744084, 1744722, 1745316, 1745832, 1746368, 1747001, 1747625, 1748177]","[1735399, 1735813, 1736173, 1736720, 1737340, 1737956, 1738552, 1739115, 1739754, 1740305, 1740867, 1741416, 1742022, 1742589, 1743120, 1743667, 1744237, 1744847, 1745445, 1745961, 1746526, 1747112, 1747747, 1748311]","[1734907, 1735506, 1736107, 1736707, 1737307, 1737907, 1738507, 1739107, 1739649, 1740199, 1740750, 1741304, 1741928, 1742484, 1743019, 1743568, 1744111, 1744749, 1745343, 1745859, 1746396, 1747027, 1747652, 1748205]",15,R,ITM,1.1,
4,600,trial,0,91,91,91,trial,"['S', 'S', 'S', 'S', 'S', 'S', 'S', 'C', 'C', 'C', 'C', 'C', 'C', 'C', 'C', 'C', 'C', 'C', 'C', 'C', 'C', 'C', 'C']","[1754594, 1754939, 1755414, 1755940, 1756573, 1757205, 1757804, 1758385, 1758925, 1759502, 1760076, 1760696, 1761294, 1761841, 1762418, 1762956, 1763596, 1764206, 1764820, 1765382, 1765963, 1766551, 1767113]","[1754711, 1755039, 1755578, 1756092, 1756685, 1757307, 1757920, 1758493, 1759047, 1759612, 1760186, 1760802, 1761393, 1761960, 1762533, 1763095, 1763708, 1764313, 1764921, 1765502, 1766078, 1766663, 1767236]","[1753707, 1754307, 1754907, 1755507, 1756107, 1756707, 1757307, 1757907, 1758410, 1758951, 1759528, 1760102, 1760721, 1761319, 1761866, 1762445, 1762981, 1763621, 1764232, 1764846, 1765408, 1765990, 1766577, 1767139]",15,R,ITM,1.1,
2,400,trial,0,92,92,92,trial,"['S', 'S', 'S', 'S', 'S', 'S', 'S', 'C', 'C', 'C', 'C', 'C', 'C', 'C', 'C', 'C', 'C', 'C', 'C', 'C', 'C', 'C', 'C']","[1773339, 1773681, 1774059, 1774469, 1774901, 1775282, 1775678, 1776074, 1776457, 1776852, 1777250, 1777630, 1778061, 1778459, 1778857, 1779297, 1779681, 1780079, 1780443, 1780826, 1781196, 1781560, 1781975]","[1773457, 1773777, 1774142, 1774573, 1774991, 1775388, 1775778, 1776174, 1776576, 1776950, 1777354, 1777743, 1778167, 1778574, 1778944, 1779382, 1779799, 1780173, 1780547, 1780929, 1781295, 1781669, 1782091]","[1772913, 1773313, 1773713, 1774113, 1774513, 1774913, 1775312, 1775712, 1776102, 1776484, 1776879, 1777276, 1777657, 1778088, 1778486, 1778885, 1779324, 1779707, 1780107, 1780470, 1780853, 1781224, 1781587, 1782002]",15,R,ITM,1.1,
3,400,trial,0,93,93,93,trial,"['S', 'S', 'S', 'S', 'S', 'S', 'S', 'C', 'C', 'C', 'C', 'C', 'C', 'C', 'C', 'C', 'C', 'C', 'C', 'C', 'C', 'C', 'C']","[1787875, 1788181, 1788548, 1788965, 1789370, 1789776, 1790167, 1790550, 1790953, 1791361, 1791759, 1792124, 1792527, 1792912, 1793288, 1793668, 1794083, 1794461, 1794850, 1795216, 1795597, 1795988, 1796371]","[1787964, 1788296, 1788649, 1789071, 1789487, 1789884, 1790276, 1790681, 1791073, 1791483, 1791867, 1792252, 1792635, 1793024, 1793399, 1793779, 1794195, 1794582, 1794959, 1795310, 1795697, 1796096, 1796480]","[1787436, 1787835, 1788235, 1788636, 1789035, 1789435, 1789835, 1790235, 1790575, 1790979, 1791386, 1791784, 1792150, 1792552, 1792937, 1793313, 1793693, 1794109, 1794487, 1794877, 1795241, 1795622, 1796014, 1796397]",15,R,ITM,1.1,
6,400,trial,0,94,94,94,trial,"['S', 'S', 'S', 'S', 'S', 'S', 'S', 'S', 'C', 'C', 'C', 'C', 'C', 'C', 'C', 'C', 'C', 'C', 'C', 'C', 'C', 'C', 'C', 'C']","[1802031, 1802284, 1802600, 1802954, 1803360, 1803715, 1804093, 1804465, 1804875, 1805270, 1805649, 1806038, 1806431, 1806823, 1807214, 1807604, 1808009, 1808412, 1808802, 1809217, 1809606, 1809994, 1810392, 1810764]","[1802107, 1802377, 1802694, 1803056, 1803467, 1803837, 1804192, 1804588, 1804994, 1805386, 1805784, 1806152, 1806560, 1806941, 1807332, 1807725, 1808109, 1808525, 1808916, 1809334, 1809716, 1810084, 1810501, 1810870]","[1801754, 1802155, 1802554, 1802954, 1803355, 1803754, 1804154, 1804554, 1804903, 1805296, 1805677, 1806064, 1806457, 1806850, 1807241, 1807631, 1808036, 1808439, 1808829, 1809244, 1809634, 1810022, 1810418, 1810792]",15,R,ITM,1.1,
2,600,trial,0,95,95,95,trial,"['S', 'S', 'S', 'S', 'S', 'S', 'S', 'S', 'C', 'C', 'C', 'C', 'C', 'C', 'C', 'C', 'C', 'C', 'C', 'C', 'C', 'C', 'C', 'C']","[1816346, 1816605, 1817222, 1817841, 1818455, 1819020, 1819634, 1820196, 1820837, 1821363, 1821926, 1822498, 1823085, 1823686, 1824295, 1824815, 1825354, 1825964, 1826569, 1827140, 1827722, 1828281, 1828817, 1829453]","[1816424, 1816714, 1817329, 1817961, 1818585, 1819152, 1819762, 1820333, 1820961, 1821506, 1822085, 1822647, 1823254, 1823839, 1824434, 1824962, 1825537, 1826137, 1826745, 1827273, 1827870, 1828425, 1828989, 1829591]","[1816115, 1816714, 1817314, 1817914, 1818514, 1819114, 1819714, 1820313, 1820864, 1821389, 1821953, 1822525, 1823113, 1823714, 1824323, 1824841, 1825381, 1825991, 1826596, 1827168, 1827748, 1828307, 1828844, 1829481]",15,R,ITM,1.1,
2,400,trial,0,96,96,96,trial,"['S', 'S', 'S', 'S', 'S', 'S', 'S', 'C', 'C', 'C', 'C', 'C', 'C', 'C', 'C', 'C', 'C', 'C', 'C', 'C', 'C', 'C', 'C']","[1835627, 1835966, 1836366, 1836783, 1837171, 1837584, 1837971, 1838381, 1838809, 1839236, 1839611, 1840022, 1840442, 1840835, 1841223, 1841622, 1842028, 1842430, 1842822, 1843220, 1843605, 1843970, 1844386]","[1835739, 1836066, 1836464, 1836875, 1837254, 1837674, 1838065, 1838478, 1838892, 1839319, 1839730, 1840122, 1840543, 1840957, 1841340, 1841739, 1842137, 1842550, 1842931, 1843328, 1843698, 1844072, 1844486]","[1835219, 1835619, 1836019, 1836419, 1836819, 1837219, 1837619, 1838020, 1838408, 1838836, 1839263, 1839638, 1840049, 1840470, 1840862, 1841251, 1841649, 1842055, 1842456, 1842849, 1843248, 1843632, 1843996, 1844413]",15,R,ITM,1.1,
7,400,trial,0,97,97,97,trial,"['S', 'S', 'S', 'S', 'S', 'S', 'S', 'S', 'C', 'C', 'C', 'C', 'C', 'C', 'C', 'C', 'C', 'C', 'C', 'C', 'C', 'C', 'C', 'C']","[1850354, 1850566, 1850852, 1851251, 1851614, 1852004, 1852414, 1852781, 1853176, 1853570, 1853959, 1854347, 1854739, 1855126, 1855566, 1855908, 1856334, 1856752, 1857124, 1857530, 1857905, 1858322, 1858673, 1859058]","[1850414, 1850642, 1850945, 1851315, 1851707, 1852107, 1852498, 1852852, 1853284, 1853671, 1854047, 1854445, 1854820, 1855217, 1855653, 1856001, 1856418, 1856832, 1857193, 1857612, 1857988, 1858412, 1858763, 1859156]","[1850024, 1850423, 1850823, 1851224, 1851623, 1852023, 1852424, 1852824, 1853204, 1853596, 1853986, 1854374, 1854766, 1855154, 1855593, 1855936, 1856362, 1856779, 1857150, 1857557, 1857933, 1858349, 1858700, 1859086]",15,R,ITM,1.1,
7,600,trial,0,98,98,98,trial,"['S', 'S', 'S', 'S', 'S', 'S', 'S', 'S', 'S', 'C', 'C', 'C', 'C', 'C', 'C', 'C', 'C', 'C', 'C', 'C', 'C', 'C', 'C', 'C', 'C']","[1864856, 1865080, 1865318, 1865732, 1866390, 1866976, 1867577, 1868167, 1868747, 1869326, 1869981, 1870598, 1871207, 1871776, 1872379, 1872986, 1873567, 1874193, 1874802, 1875415, 1876043, 1876662, 1877268, 1877838, 1878466]","[1864890, 1865145, 1865422, 1865982, 1866411, 1867101, 1867712, 1868294, 1868886, 1869456, 1870109, 1870718, 1871328, 1871936, 1872526, 1873139, 1873717, 1874327, 1874830, 1875516, 1876139, 1876779, 1877389, 1878002, 1878584]","[1864588, 1865188, 1865788, 1866388, 1866988, 1867588, 1868188, 1868788, 1869352, 1870009, 1870625, 1871234, 1871803, 1872407, 1873012, 1873594, 1874220, 1874830, 1875441, 1876070, 1876689, 1877296, 1877865, 1878493]",15,R,ITM,1.1,
3,600,trial,0,99,99,99,trial,"['S', 'S', 'S', 'S', 'S', 'S', 'S', 'S', 'C', 'C', 'C', 'C', 'C', 'C', 'C', 'C', 'C', 'C', 'C', 'C', 'C', 'C', 'C', 'C']","[1884467, 1884763, 1885157, 1885649, 1886304, 1886928, 1887503, 1888147, 1888814, 1889402, 1889946, 1890456, 1891051, 1891655, 1892237, 1892803, 1893399, 1893992, 1894568, 1895142, 1895723, 1896340, 1896936, 1897482]","[1884554, 1884863, 1885290, 1885780, 1886451, 1887069, 1887639, 1888293, 1888961, 1889527, 1890080, 1890618, 1891197, 1891786, 1892391, 1892938, 1893523, 1894115, 1894694, 1895269, 1895859, 1896452, 1897067, 1897620]","[1883993, 1884592, 1885191, 1885791, 1886391, 1886991, 1887591, 1888191, 1888839, 1889428, 1889972, 1890482, 1891077, 1891681, 1892262, 1892829, 1893425, 1894018, 1894594, 1895168, 1895748, 1896366, 1896962, 1897507]",15,R,ITM,1.1,
5,400,trial,0,100,100,100,trial,"['B', 'S', 'S', 'S', 'S', 'S', 'S', 'S', 'C', 'C', 'C', 'C', 'C', 'C', 'C', 'C', 'C', 'C', 'C', 'C', 'C', 'C', 'C', 'C']","[1903123, 1903735, 1904009, 1904309, 1904695, 1905092, 1905481, 1905875, 1906281, 1906681, 1907076, 1907462, 1907849, 1908241, 1908627, 1908998, 1909424, 1909805, 1910213, 1910598, 1910980, 1911377, 1911748, 1912163]","[1903572, 1903822, 1904099, 1904411, 1904804, 1905205, 1905588, 1905978, 1906384, 1906789, 1907185, 1907564, 1907960, 1908356, 1908719, 1909106, 1909527, 1909917, 1910325, 1910707, 1911090, 1911485, 1911878, 1912265]","[1903135, 1903535, 1903934, 1904334, 1904734, 1905134, 1905534, 1905934, 1906308, 1906707, 1907102, 1907487, 1907874, 1908267, 1908654, 1909023, 1909449, 1909831, 1910239, 1910624, 1911006, 1911403, 1911775, 1912188]",15,R,ITM,1.1,
5,600,trial,0,101,101,101,trial,"['S', 'S', 'S', 'S', 'S', 'S', 'S', 'S', 'C', 'C', 'C', 'C', 'C', 'C', 'C', 'C', 'C', 'C', 'C', 'C', 'C', 'C', 'C', 'C']","[1917975, 1918281, 1918770, 1919284, 1919911, 1920529, 1921105, 1921707, 1922322, 1922899, 1923481, 1924066, 1924653, 1925217, 1925847, 1926455, 1927009, 1927593, 1928190, 1928770, 1929375, 1929929, 1930517, 1931079]","[1918070, 1918395, 1918969, 1919434, 1920043, 1920666, 1921255, 1921853, 1922465, 1923035, 1923613, 1924176, 1924805, 1925362, 1925943, 1926577, 1927143, 1927719, 1928345, 1928908, 1929504, 1930053, 1930634, 1931211]","[1917603, 1918202, 1918802, 1919403, 1920003, 1920603, 1921202, 1921802, 1922348, 1922925, 1923508, 1924091, 1924678, 1925242, 1925872, 1926481, 1927034, 1927619, 1928216, 1928797, 1929402, 1929955, 1930543, 1931106]",15,R,ITM,1.1,
7,600,trial,0,102,102,102,trial,"['B', 'S', 'S', 'S', 'S', 'S', 'S', 'S', 'S', 'C', 'C', 'C', 'C', 'C', 'C', 'C', 'C', 'C', 'C', 'C', 'C', 'C', 'C', 'C', 'C']","[1936508, 1936866, 1937141, 1937601, 1938225, 1938850, 1939430, 1940043, 1940626, 1941261, 1941821, 1942374, 1942974, 1943608, 1944217, 1944792, 1945401, 1946001, 1946640, 1947230, 1947812, 1948401, 1948997, 1949563, 1950149]","[1936536, 1936961, 1937233, 1937741, 1938359, 1938987, 1939564, 1940184, 1940773, 1941402, 1941978, 1942559, 1943116, 1943729, 1944389, 1944937, 1945558, 1946129, 1946749, 1947380, 1947940, 1948523, 1949125, 1949715, 1950279]","[1936522, 1937121, 1937721, 1938321, 1938921, 1939521, 1940121, 1940721, 1941287, 1941848, 1942401, 1943002, 1943634, 1944244, 1944818, 1945427, 1946028, 1946667, 1947256, 1947839, 1948428, 1949025, 1949590, 1950176]",15,R,ITM,1.1,
6,400,trial,0,103,103,103,trial,"['S', 'S', 'S', 'S', 'S', 'S', 'S', 'S', 'C', 'C', 'C', 'C', 'C', 'C', 'C', 'C', 'C', 'C', 'C', 'C', 'C', 'C', 'C', 'C']","[1955891, 1956217, 1956559, 1956887, 1957269, 1957668, 1958057, 1958460, 1958878, 1959289, 1959685, 1960069, 1960451, 1960837, 1961231, 1961632, 1962034, 1962438, 1962836, 1963214, 1963603, 1963971, 1964347, 1964797]","[1955989, 1956312, 1956658, 1957000, 1957373, 1957781, 1958158, 1958538, 1958979, 1959377, 1959792, 1960187, 1960569, 1960962, 1961345, 1961744, 1962160, 1962549, 1962952, 1963321, 1963718, 1964101, 1964472, 1964903]","[1955712, 1956110, 1956510, 1956911, 1957310, 1957710, 1958110, 1958510, 1958905, 1959316, 1959711, 1960095, 1960477, 1960864, 1961259, 1961659, 1962061, 1962466, 1962863, 1963241, 1963630, 1963998, 1964374, 1964824]",15,R,ITM,1.1,
4,600,trial,0,104,104,104,trial,"['S', 'S', 'S', 'S', 'S', 'S', 'S', 'S', 'C', 'C', 'C', 'C', 'C', 'C', 'C', 'C', 'C', 'C', 'C', 'C', 'C', 'C', 'C', 'C']","[1970747, 1971033, 1971519, 1972116, 1972705, 1973320, 1973940, 1974540, 1975151, 1975706, 1976307, 1976884, 1977466, 1978093, 1978662, 1979209, 1979752, 1980341, 1980917, 1981555, 1982195, 1982824, 1983412, 1984017]","[1970836, 1971147, 1971678, 1972269, 1972846, 1973464, 1974087, 1974688, 1975304, 1975871, 1976468, 1977038, 1977625, 1978230, 1978808, 1979369, 1979912, 1980495, 1981061, 1981698, 1982340, 1982956, 1983544, 1984130]","[1970434, 1971033, 1971633, 1972232, 1972832, 1973432, 1974032, 1974632, 1975178, 1975733, 1976333, 1976909, 1977492, 1978119, 1978688, 1979235, 1979779, 1980366, 1980943, 1981581, 1982221, 1982850, 1983437, 1984043]",15,R,ITM,1.1,
3,400,trial,0,105,105,105,trial,"['S', 'S', 'S', 'S', 'S', 'S', 'S', 'C', 'C', 'C', 'C', 'C', 'C', 'C', 'C', 'C', 'C', 'C', 'C', 'C', 'C', 'C', 'C']","[1989947, 1990238, 1990605, 1991005, 1991360, 1991747, 1992147, 1992567, 1992958, 1993351, 1993730, 1994108, 1994462, 1994820, 1995217, 1995633, 1996012, 1996380, 1996788, 1997169, 1997552, 1997927, 1998332]","[1990050, 1990347, 1990709, 1991106, 1991473, 1991872, 1992272, 1992691, 1993068, 1993478, 1993839, 1994208, 1994586, 1994941, 1995334, 1995730, 1996103, 1996472, 1996870, 1997268, 1997637, 1998032, 1998456]","[1989472, 1989872, 1990273, 1990672, 1991072, 1991473, 1991872, 1992272, 1992593, 1992984, 1993376, 1993755, 1994134, 1994487, 1994846, 1995243, 1995659, 1996038, 1996406, 1996814, 1997195, 1997578, 1997953, 1998358]",15,R,ITM,1.1,
5,600,trial,0,106,106,106,trial,"['S', 'S', 'S', 'S', 'S', 'S', 'S', 'S', 'C', 'C', 'C', 'C', 'C', 'C', 'C', 'C', 'C', 'C', 'C', 'C', 'C', 'C', 'C', 'C']","[2004197, 2004446, 2005066, 2005697, 2006291, 2006878, 2007478, 2008040, 2008625, 2009200, 2009789, 2010316, 2010880, 2011508, 2012114, 2012688, 2013294, 2013879, 2014430, 2015011, 2015636, 2016219, 2016785, 2017369]","[2004267, 2004548, 2005212, 2005782, 2006421, 2006987, 2007613, 2008195, 2008793, 2009357, 2009911, 2010461, 2011062, 2011640, 2012242, 2012819, 2013431, 2014004, 2014562, 2015158, 2015763, 2016368, 2016927, 2017477]","[2003972, 2004571, 2005170, 2005770, 2006370, 2006970, 2007570, 2008170, 2008651, 2009226, 2009815, 2010342, 2010906, 2011535, 2012140, 2012713, 2013320, 2013904, 2014455, 2015037, 2015662, 2016244, 2016811, 2017394]",15,R,ITM,1.1,
7,400,trial,0,107,107,107,trial,"['S', 'S', 'S', 'S', 'S', 'S', 'S', 'S', 'C', 'C', 'C', 'C', 'C', 'C', 'C', 'C', 'C', 'C', 'C', 'C', 'C', 'C', 'C', 'C']","[2023411, 2023675, 2024019, 2024370, 2024764, 2025151, 2025508, 2025914, 2026279, 2026695, 2027157, 2027551, 2027974, 2028398, 2028820, 2029212, 2029625, 2030036, 2030480, 2030908, 2031313, 2031729, 2032168, 2032563]","[2023502, 2023788, 2024127, 2024491, 2024877, 2025260, 2025629, 2026042, 2026433, 2026831, 2027388, 2027644, 2028079, 2028521, 2028931, 2029317, 2029741, 2030163, 2030602, 2031019, 2031422, 2031835, 2032269, 2032667]","[2023150, 2023549, 2023949, 2024349, 2024750, 2025149, 2025549, 2025950, 2026306, 2026723, 2027185, 2027578, 2028002, 2028426, 2028847, 2029239, 2029652, 2030064, 2030507, 2030935, 2031340, 2031757, 2032196, 2032589]",15,R,ITM,1.1,
4,400,trial,0,108,108,108,trial,"['S', 'S', 'S', 'S', 'S', 'S', 'S', 'S', 'C', 'C', 'C', 'C', 'C', 'C', 'C', 'C', 'C', 'C', 'C', 'C', 'C', 'C', 'C', 'C']","[2038254, 2038538, 2038814, 2039153, 2039537, 2039900, 2040294, 2040692, 2041089, 2041479, 2041876, 2042275, 2042685, 2043035, 2043428, 2043813, 2044205, 2044645, 2045046, 2045430, 2045820, 2046244, 2046656, 2047055]","[2038350, 2038634, 2038912, 2039279, 2039638, 2040009, 2040419, 2040800, 2041206, 2041587, 2041999, 2042376, 2042778, 2043147, 2043536, 2043936, 2044308, 2044741, 2045148, 2045521, 2045929, 2046337, 2046745, 2047173]","[2037963, 2038363, 2038762, 2039162, 2039562, 2039962, 2040363, 2040762, 2041114, 2041504, 2041902, 2042301, 2042711, 2043061, 2043454, 2043839, 2044230, 2044670, 2045072, 2045456, 2045847, 2046270, 2046683, 2047081]",15,R,ITM,1.1,
2,400,trial,0,109,109,109,trial,"['S', 'S', 'S', 'S', 'S', 'S', 'S', 'S', 'C', 'C', 'C', 'C', 'C', 'C', 'C', 'C', 'C', 'C', 'C', 'C', 'C', 'C', 'C', 'C']","[2052626, 2052923, 2053277, 2053662, 2054064, 2054492, 2054883, 2055286, 2055673, 2056075, 2056483, 2056884, 2057290, 2057706, 2058083, 2058483, 2058864, 2059265, 2059675, 2060062, 2060472, 2060853, 2061255, 2061645]","[2052671, 2053023, 2053389, 2053754, 2054150, 2054586, 2054960, 2055371, 2055769, 2056174, 2056587, 2057005, 2057415, 2057820, 2058207, 2058606, 2058962, 2059387, 2059788, 2060185, 2060571, 2060957, 2061366, 2061755]","[2052547, 2052946, 2053347, 2053747, 2054148, 2054547, 2054946, 2055348, 2055700, 2056101, 2056511, 2056910, 2057318, 2057733, 2058110, 2058511, 2058892, 2059292, 2059702, 2060090, 2060498, 2060879, 2061282, 2061673]",15,R,ITM,1.1,
5,600,trial,0,110,110,110,trial,"['S', 'S', 'S', 'S', 'S', 'S', 'S', 'S', 'C', 'C', 'C', 'C', 'C', 'C', 'C', 'C', 'C', 'C', 'C', 'C', 'C', 'C', 'C', 'C']","[2067553, 2067835, 2068282, 2068920, 2069522, 2070144, 2070753, 2071317, 2071916, 2072481, 2073106, 2073701, 2074311, 2074866, 2075446, 2076067, 2076699, 2077285, 2077874, 2078516, 2079099, 2079684, 2080357, 2080906]","[2067634, 2067951, 2068445, 2069039, 2069659, 2070257, 2070870, 2071449, 2072036, 2072602, 2073209, 2073802, 2074419, 2074987, 2075600, 2076200, 2076817, 2077420, 2078010, 2078628, 2079219, 2079804, 2080461, 2081045]","[2067208, 2067807, 2068407, 2069007, 2069607, 2070207, 2070807, 2071407, 2071943, 2072508, 2073132, 2073726, 2074337, 2074892, 2075471, 2076094, 2076725, 2077310, 2077899, 2078541, 2079125, 2079710, 2080382, 2080931]",15,R,ITM,1.1,
2,600,trial,0,111,111,111,trial,"['B', 'S', 'S', 'S', 'S', 'S', 'S', 'S', 'C', 'C', 'C', 'C', 'C', 'C', 'C', 'C', 'C', 'C', 'C', 'C', 'C', 'C', 'C', 'C']","[2086699, 2087110, 2087800, 2088473, 2089119, 2089653, 2090252, 2090880, 2091472, 2092091, 2092677, 2093246, 2093833, 2094425, 2095026, 2095635, 2096207, 2096839, 2097422, 2097969, 2098544, 2099186, 2099808, 2100353]","[2086786, 2087207, 2087895, 2088555, 2089205, 2089765, 2090372, 2090983, 2091598, 2092190, 2092800, 2093393, 2093971, 2094561, 2095170, 2095770, 2096343, 2096960, 2097525, 2098125, 2098681, 2099297, 2099916, 2100463]","[2086712, 2087312, 2087912, 2088512, 2089111, 2089712, 2090312, 2090911, 2091499, 2092119, 2092704, 2093274, 2093860, 2094451, 2095053, 2095663, 2096234, 2096867, 2097448, 2097995, 2098571, 2099213, 2099834, 2100380]",15,R,ITM,1.1,
4,400,trial,0,112,112,112,trial,"['S', 'S', 'S', 'S', 'S', 'S', 'S', 'C', 'C', 'C', 'C', 'C', 'C', 'C', 'C', 'C', 'C', 'C', 'C', 'C', 'C', 'C', 'C']","[2106360, 2106727, 2107110, 2107506, 2107897, 2108310, 2108705, 2109133, 2109539, 2109935, 2110329, 2110716, 2111140, 2111542, 2111918, 2112292, 2112700, 2113120, 2113526, 2113930, 2114312, 2114703, 2115116]","[2106469, 2106831, 2107218, 2107616, 2108007, 2108424, 2108797, 2109227, 2109635, 2110040, 2110426, 2110838, 2111244, 2111642, 2112014, 2112402, 2112792, 2113240, 2113643, 2114050, 2114424, 2114825, 2115217]","[2105953, 2106352, 2106753, 2107152, 2107552, 2107953, 2108352, 2108752, 2109160, 2109564, 2109961, 2110356, 2110742, 2111166, 2111567, 2111943, 2112318, 2112726, 2113146, 2113552, 2113955, 2114337, 2114728, 2115142]",15,R,ITM,1.1,
3,600,trial,0,113,113,113,trial,"['S', 'S', 'S', 'S', 'S', 'S', 'S', 'S', 'S', 'C', 'C', 'C', 'C', 'C', 'C', 'C', 'C', 'C', 'C', 'C', 'C', 'C', 'C', 'C', 'C']","[2120600, 2120853, 2121147, 2121680, 2122236, 2122838, 2123510, 2124104, 2124645, 2125227, 2125719, 2126285, 2126852, 2127436, 2128086, 2128720, 2129344, 2129928, 2130558, 2131149, 2131757, 2132368, 2132973, 2133552, 2134139]","[2120620, 2120947, 2121262, 2121794, 2122372, 2122958, 2123619, 2124221, 2124761, 2125349, 2125858, 2126429, 2127024, 2127604, 2128243, 2128832, 2129370, 2130098, 2130684, 2131305, 2131888, 2132517, 2133116, 2133694, 2134277]","[2120590, 2121189, 2121789, 2122389, 2122989, 2123589, 2124189, 2124789, 2125252, 2125745, 2126311, 2126877, 2127462, 2128111, 2128746, 2129370, 2129953, 2130583, 2131175, 2131782, 2132393, 2132999, 2133577, 2134165]",15,R,ITM,1.1,
3,600,trial,0,114,114,114,trial,"['S', 'S', 'S', 'S', 'S', 'S', 'S', 'S', 'C', 'C', 'C', 'C', 'C', 'C', 'C', 'C', 'C', 'C', 'C', 'C', 'C', 'C', 'C', 'C']","[2140042, 2140339, 2140836, 2141427, 2142022, 2142644, 2143266, 2143874, 2144458, 2145054, 2145636, 2146220, 2146791, 2147453, 2148071, 2148644, 2149184, 2149830, 2150421, 2151019, 2151606, 2152185, 2152816, 2153418]","[2140155, 2140442, 2140960, 2141535, 2142147, 2142764, 2143386, 2143990, 2144567, 2145210, 2145811, 2146387, 2146955, 2147604, 2148209, 2148782, 2149336, 2149985, 2150555, 2151165, 2151824, 2152332, 2152989, 2153579]","[2139736, 2140336, 2140935, 2141535, 2142135, 2142735, 2143335, 2143935, 2144484, 2145080, 2145661, 2146245, 2146817, 2147479, 2148097, 2148670, 2149210, 2149856, 2150447, 2151045, 2151631, 2152211, 2152842, 2153444]",15,R,ITM,1.1,
5,400,trial,0,115,115,115,trial,"['S', 'S', 'S', 'S', 'S', 'S', 'S', 'C', 'C', 'C', 'C', 'C', 'C', 'C', 'C', 'C', 'C', 'C', 'C', 'C', 'C', 'C', 'C']","[2159121, 2159483, 2159918, 2160314, 2160728, 2161134, 2161522, 2161929, 2162312, 2162740, 2163128, 2163521, 2163913, 2164332, 2164722, 2165108, 2165508, 2165889, 2166285, 2166678, 2167087, 2167463, 2167857]","[2159249, 2159616, 2160035, 2160437, 2160852, 2161236, 2161624, 2162042, 2162423, 2162864, 2163238, 2163650, 2164035, 2164443, 2164840, 2165221, 2165615, 2166011, 2166410, 2166804, 2167201, 2167601, 2167968]","[2158759, 2159158, 2159558, 2159959, 2160358, 2160758, 2161159, 2161559, 2161955, 2162337, 2162765, 2163153, 2163547, 2163940, 2164358, 2164748, 2165135, 2165533, 2165915, 2166310, 2166704, 2167113, 2167490, 2167882]",15,R,ITM,1.1,
3,400,trial,0,116,116,116,trial,"['B', 'S', 'S', 'S', 'S', 'S', 'S', 'S', 'C', 'C', 'C', 'C', 'C', 'C', 'C', 'C', 'C', 'C', 'C', 'C', 'C', 'C', 'C', 'C']","[2173334, 2173843, 2174146, 2174503, 2174878, 2175277, 2175656, 2176043, 2176456, 2176832, 2177199, 2177587, 2177967, 2178356, 2178744, 2179125, 2179499, 2179895, 2180279, 2180659, 2181041, 2181424, 2181808, 2182194]","[2173664, 2173936, 2174254, 2174595, 2174965, 2175386, 2175754, 2176147, 2176564, 2176941, 2177318, 2177683, 2178080, 2178463, 2178859, 2179229, 2179594, 2179989, 2180375, 2180766, 2181138, 2181516, 2181913, 2182290]","[2173345, 2173746, 2174146, 2174546, 2174946, 2175346, 2175747, 2176146, 2176482, 2176858, 2177224, 2177612, 2177992, 2178381, 2178769, 2179150, 2179524, 2179920, 2180304, 2180684, 2181066, 2181449, 2181833, 2182219]",15,R,ITM,1.1,
7,600,trial,0,117,117,117,trial,"['S', 'S', 'S', 'S', 'S', 'S', 'S', 'S', 'C', 'C', 'C', 'C', 'C', 'C', 'C', 'C', 'C', 'C', 'C', 'C', 'C', 'C', 'C', 'C']","[2188112, 2188374, 2188883, 2189480, 2190094, 2190700, 2191280, 2191876, 2192488, 2193126, 2193780, 2194403, 2194999, 2195606, 2196192, 2196773, 2197426, 2198001, 2198597, 2199150, 2199700, 2200308, 2200850, 2201424]","[2188192, 2188480, 2189009, 2189602, 2190205, 2190821, 2191400, 2191988, 2192620, 2193250, 2193878, 2194497, 2195120, 2195716, 2196310, 2196903, 2197523, 2198114, 2198703, 2199250, 2199835, 2200442, 2200987, 2201556]","[2187758, 2188357, 2188957, 2189557, 2190157, 2190757, 2191357, 2191958, 2192515, 2193153, 2193807, 2194429, 2195026, 2195634, 2196219, 2196801, 2197453, 2198028, 2198625, 2199178, 2199727, 2200335, 2200877, 2201451]",15,R,ITM,1.1,
2,400,trial,0,118,118,118,trial,"['S', 'S', 'S', 'S', 'S', 'S', 'S', 'S', 'C', 'C', 'C', 'C', 'C', 'C', 'C', 'C', 'C', 'C', 'C', 'C', 'C', 'C', 'C', 'C']","[2207099, 2207436, 2207826, 2208191, 2208609, 2209008, 2209396, 2209776, 2210173, 2210570, 2210967, 2211352, 2211717, 2212105, 2212499, 2212887, 2213283, 2213677, 2214098, 2214475, 2214851, 2215250, 2215643, 2216034]","[2207173, 2207562, 2207928, 2208300, 2208724, 2209123, 2209495, 2209894, 2210294, 2210673, 2211064, 2211457, 2211826, 2212206, 2212612, 2212999, 2213401, 2213791, 2214204, 2214575, 2214957, 2215344, 2215742, 2216143]","[2207051, 2207452, 2207850, 2208251, 2208651, 2209051, 2209452, 2209851, 2210200, 2210596, 2210994, 2211380, 2211744, 2212132, 2212526, 2212914, 2213310, 2213704, 2214126, 2214502, 2214878, 2215278, 2215669, 2216060]",15,R,ITM,1.1,
6,400,trial,0,119,119,119,trial,"['B', 'S', 'S', 'S', 'S', 'S', 'S', 'S', 'C', 'C', 'C', 'C', 'C', 'C', 'C', 'C', 'C', 'C', 'C', 'C', 'C', 'C', 'C', 'C']","[2221381, 2221957, 2222214, 2222536, 2222943, 2223297, 2223713, 2224098, 2224515, 2224913, 2225334, 2225719, 2226109, 2226471, 2226832, 2227250, 2227629, 2228042, 2228463, 2228827, 2229240, 2229636, 2230033, 2230404]","[2221748, 2222022, 2222308, 2222624, 2223021, 2223374, 2223806, 2224194, 2224613, 2225016, 2225423, 2225837, 2226197, 2226570, 2226945, 2227358, 2227729, 2228130, 2228558, 2228913, 2229334, 2229722, 2230123, 2230508]","[2221394, 2221793, 2222193, 2222594, 2222993, 2223393, 2223794, 2224193, 2224541, 2224940, 2225360, 2225745, 2226136, 2226498, 2226860, 2227276, 2227655, 2228069, 2228491, 2228853, 2229268, 2229662, 2230060, 2230430]",15,R,ITM,1.1,
7,400,trial,0,120,120,120,trial,"['B', 'S', 'S', 'S', 'S', 'S', 'S', 'S', 'C', 'C', 'C', 'C', 'C', 'C', 'C', 'C', 'C', 'C', 'C', 'C', 'C', 'C', 'C', 'C']","[2236141, 2236652, 2236960, 2237364, 2237731, 2238176, 2238531, 2238929, 2239295, 2239711, 2240132, 2240532, 2240915, 2241312, 2241726, 2242123, 2242509, 2242894, 2243303, 2243638, 2244046, 2244487, 2244864, 2245259]","[2236471, 2236740, 2237073, 2237478, 2237850, 2238288, 2238657, 2239045, 2239401, 2239832, 2240270, 2240646, 2241022, 2241438, 2241845, 2242228, 2242621, 2242999, 2243405, 2243787, 2244158, 2244586, 2244981, 2245368]","[2236154, 2236553, 2236953, 2237353, 2237753, 2238153, 2238554, 2238953, 2239322, 2239738, 2240158, 2240559, 2240942, 2241339, 2241753, 2242151, 2242537, 2242922, 2243330, 2243665, 2244073, 2244513, 2244890, 2245285]",15,R,ITM,1.1,
2,600,trial,0,121,121,121,trial,"['S', 'S', 'S', 'S', 'S', 'S', 'S', 'S', 'C', 'C', 'C', 'C', 'C', 'C', 'C', 'C', 'C', 'C', 'C', 'C', 'C', 'C', 'C', 'C']","[2251008, 2251269, 2251940, 2252581, 2253174, 2253739, 2254296, 2254878, 2255516, 2256099, 2256693, 2257325, 2257983, 2258622, 2259204, 2259806, 2260388, 2261051, 2261632, 2262217, 2262793, 2263389, 2264020, 2264590]","[2251107, 2251358, 2252059, 2252680, 2253279, 2253870, 2254444, 2255058, 2255688, 2256245, 2256872, 2257481, 2258155, 2258766, 2259348, 2259952, 2260541, 2261181, 2261776, 2262339, 2262934, 2263535, 2264165, 2264708]","[2250820, 2251419, 2252020, 2252620, 2253220, 2253820, 2254420, 2255021, 2255543, 2256125, 2256720, 2257352, 2258010, 2258650, 2259231, 2259833, 2260415, 2261079, 2261659, 2262245, 2262820, 2263416, 2264048, 2264617]",15,R,ITM,1.1,
6,600,trial,0,122,122,122,trial,"['B', 'S', 'S', 'S', 'S', 'S', 'S', 'S', 'S', 'C', 'C', 'C', 'C', 'C', 'C', 'C', 'C', 'C', 'C', 'C', 'C', 'C', 'C', 'C', 'C']","[2270294, 2270638, 2270906, 2271391, 2271981, 2272624, 2273224, 2273827, 2274453, 2275016, 2275575, 2276157, 2276758, 2277359, 2277949, 2278560, 2279109, 2279762, 2280354, 2280897, 2281500, 2282096, 2282725, 2283330, 2283901]","[2270459, 2270735, 2271038, 2271580, 2272149, 2272773, 2273374, 2273990, 2274600, 2275168, 2275723, 2276296, 2276903, 2277489, 2278094, 2278693, 2279266, 2279896, 2280489, 2281046, 2281641, 2282233, 2282828, 2283443, 2284013]","[2270307, 2270906, 2271506, 2272106, 2272706, 2273306, 2273906, 2274506, 2275043, 2275602, 2276184, 2276786, 2277386, 2277977, 2278588, 2279136, 2279790, 2280382, 2280925, 2281527, 2282124, 2282752, 2283358, 2283929]",15,R,ITM,1.1,
4,600,trial,0,123,123,123,trial,"['S', 'S', 'S', 'S', 'S', 'S', 'S', 'S', 'C', 'C', 'C', 'C', 'C', 'C', 'C', 'C', 'C', 'C', 'C', 'C', 'C', 'C', 'C', 'C']","[2289795, 2290066, 2290579, 2291192, 2291800, 2292412, 2292970, 2293582, 2294175, 2294768, 2295371, 2295964, 2296594, 2297189, 2297768, 2298358, 2299002, 2299585, 2300142, 2300773, 2301382, 2301974, 2302556, 2303135]","[2289903, 2290191, 2290743, 2291347, 2291923, 2292571, 2293111, 2293731, 2294335, 2294946, 2295565, 2296169, 2296764, 2297383, 2297955, 2298516, 2299112, 2299747, 2300324, 2300929, 2301533, 2302167, 2302777, 2303329]","[2289484, 2290083, 2290683, 2291283, 2291884, 2292484, 2293084, 2293683, 2294201, 2294794, 2295398, 2295990, 2296621, 2297214, 2297794, 2298384, 2299028, 2299611, 2300168, 2300798, 2301408, 2302000, 2302581, 2303161]",15,R,ITM,1.1,
5,400,trial,0,124,124,124,trial,"['S', 'S', 'S', 'S', 'S', 'S', 'S', 'S', 'C', 'C', 'C', 'C', 'C', 'C', 'C', 'C', 'C', 'C', 'C', 'C', 'C', 'C', 'C', 'C']","[2309011, 2309265, 2309534, 2309926, 2310310, 2310704, 2311095, 2311455, 2311863, 2312257, 2312657, 2313090, 2313501, 2313902, 2314318, 2314723, 2315122, 2315512, 2315877, 2316298, 2316728, 2317130, 2317534, 2317950]","[2309115, 2309366, 2309641, 2310048, 2310441, 2310819, 2311192, 2311574, 2311971, 2312357, 2312785, 2313202, 2313632, 2314015, 2314450, 2314847, 2315234, 2315630, 2316008, 2316414, 2316848, 2317255, 2317646, 2318070]","[2308683, 2309083, 2309482, 2309882, 2310282, 2310682, 2311083, 2311482, 2311888, 2312284, 2312683, 2313115, 2313527, 2313927, 2314344, 2314749, 2315148, 2315538, 2315902, 2316323, 2316753, 2317157, 2317559, 2317976]",15,R,ITM,1.1,
