octave,ioi,event,.thisRepN,.thisTrialN,.thisN,.thisIndex,event,tap_types,tap_times,release_times,tone_times,subject,handedness,experiment,version,
,,SPR,0,-1,-1,0,SPR,"['P', 'P', 'P', 'P', 'P', 'P', 'P', 'P', 'P', 'P', 'P', 'P', 'P', 'P', 'P', 'P', 'P', 'P', 'P', 'P', 'P', 'P', 'P', 'P', 'P', 'P', 'P', 'P', 'P', 'P']","[40411, 41014, 41609, 42153, 42697, 43217, 43761, 44309, 44811, 45327, 45844, 46343, 46881, 47403, 47921, 48443, 48988, 49478, 50000, 50543, 51050, 51557, 52049, 52554, 53059, 53531, 54018, 54525, 55010, 55516]","[40516, 41151, 41718, 42276, 42818, 43348, 43899, 44410, 44944, 45440, 45941, 46457, 46986, 47535, 48047, 48580, 49094, 49600, 50134, 50617, 51160, 51684, 52170, 52658, 53170, 53622, 54096, 54670, 55112, 55653]",,23,R,ITM,1.1,
2,500,practice,0,0,0,0,practice,"['S', 'S', 'S', 'S', 'S', 'S', 'S', 'C', 'C', 'C', 'C', 'C', 'C', 'C', 'C', 'C', 'C', 'C', 'C', 'C', 'C', 'C', 'C', 'C', 'C', 'C']","[140747, 141056, 141499, 141941, 142448, 142936, 143424, 143905, 144359, 144797, 145188, 145529, 145848, 146136, 146411, 146652, 166723, 167009, 167273, 167923, 168176, 168392, 168757, 169095, 169426, 169756]","[140837, 141176, 141630, 142088, 142577, 143068, 143554, 144023, 144478, 144885, 145270, 145610, 145907, 146197, 146470, 146715, 166782, 167059, 167322, 167989, 168225, 168452, 168828, 169150, 169487, 169822]","[139977, 140477, 140978, 141477, 141977, 142477, 142978, 143477, 143932, 144387, 144824, 145216, 145556, 145875, 146163, 146439, 166750, 167036, 167951, 168419, 168784, 169121, 169453, 169783]",23,R,ITM,1.1,
4,500,practice,0,1,1,1,practice,"['S', 'S', 'S', 'S', 'S', 'S', 'C', 'C', 'C', 'C', 'C', 'C', 'C', 'C', 'C', 'C', 'C', 'C', 'C', 'C', 'C', 'C']","[176496, 176988, 177472, 177950, 178479, 178936, 179434, 179899, 180328, 180797, 181245, 181730, 182179, 182694, 183155, 183614, 184124, 184607, 185110, 185592, 186064, 186560]","[176575, 177076, 177556, 178034, 178551, 179032, 179530, 179963, 180415, 180868, 181338, 181798, 182246, 182720, 183181, 183681, 184185, 184665, 185167, 185667, 186150, 186641]","[175527, 176027, 176527, 177028, 177527, 178027, 178527, 179027, 179460, 179924, 180354, 180823, 181271, 181755, 182205, 182720, 183181, 183640, 184150, 184633, 185136, 185618, 186090, 186586]",23,R,ITM,1.1,
6,500,practice,0,2,2,2,practice,"['S', 'S', 'S', 'S', 'S', 'S', 'S', 'C', 'C', 'C', 'C', 'C', 'C', 'C', 'C', 'C', 'C', 'C', 'C', 'C', 'C', 'C', 'C']","[192841, 193312, 193803, 194278, 194785, 195297, 195779, 196268, 196774, 197244, 197792, 198237, 198700, 199196, 199684, 200137, 200591, 201073, 201531, 201938, 202401, 202896, 203361]","[192959, 193435, 193918, 194427, 194874, 195377, 195868, 196365, 196851, 197328, 197869, 198346, 198805, 199306, 199770, 200221, 200675, 201159, 201624, 202035, 202484, 202980, 203447]","[192368, 192868, 193369, 193868, 194368, 194868, 195368, 195868, 196294, 196802, 197271, 197819, 198263, 198726, 199224, 199710, 200164, 200619, 201100, 201558, 201966, 202429, 202923, 203387]",23,R,ITM,1.1,
7,500,practice,0,3,3,3,practice,"['S', 'S', 'S', 'S', 'S', 'S', 'S', 'C', 'C', 'C', 'C', 'C', 'C', 'C', 'C', 'C', 'C', 'C', 'C', 'C', 'C', 'C', 'C']","[209433, 209903, 210398, 210907, 211380, 211873, 212361, 212890, 213400, 213878, 214366, 214834, 215316, 215793, 216276, 216754, 217221, 217680, 218156, 218642, 219123, 219593, 220057]","[209538, 210006, 210492, 211005, 211512, 212000, 212471, 212983, 213468, 213954, 214459, 214917, 215400, 215880, 216358, 216822, 217316, 217774, 218245, 218739, 219228, 219688, 220150]","[208955, 209455, 209954, 210454, 210954, 211454, 211954, 212454, 212917, 213428, 213905, 214392, 214860, 215344, 215820, 216303, 216781, 217248, 217707, 218183, 218669, 219150, 219621, 220085]",23,R,ITM,1.1,
3,500,practice,0,4,4,4,practice,"['S', 'S', 'S', 'S', 'S', 'S', 'S', 'C', 'C', 'C', 'C', 'C', 'C', 'C', 'C', 'C', 'C', 'C', 'C', 'C', 'C', 'C', 'C']","[226096, 226572, 227064, 227563, 228039, 228545, 229045, 229540, 230054, 230564, 231085, 231545, 232036, 232525, 233032, 233531, 234010, 234565, 235053, 235544, 236014, 236504, 236979]","[226185, 226677, 227172, 227676, 228149, 228666, 229130, 229656, 230166, 230637, 231183, 231670, 232125, 232628, 233127, 233632, 234127, 234668, 235171, 235637, 236120, 236587, 237088]","[225630, 226130, 226630, 227130, 227631, 228130, 228630, 229130, 229566, 230080, 230590, 231110, 231571, 232061, 232551, 233058, 233556, 234037, 234591, 235078, 235570, 236040, 236530, 237004]",23,R,ITM,1.1,
5,500,practice,0,5,5,5,practice,"['S', 'S', 'S', 'S', 'S', 'S', 'S', 'C', 'C', 'C', 'C', 'C', 'C', 'C', 'C', 'C', 'C', 'C', 'C', 'C', 'C', 'C', 'C']","[243145, 243618, 244097, 244608, 245076, 245562, 246052, 246579, 247049, 247577, 248040, 248489, 248981, 249465, 249926, 250396, 250910, 251363, 251799, 252296, 252769, 253244, 253724]","[243264, 243741, 244213, 244707, 245191, 245689, 246147, 246666, 247130, 247657, 248123, 248578, 249067, 249543, 250000, 250475, 250966, 251438, 251914, 252381, 252854, 253347, 253790]","[242647, 243145, 243645, 244146, 244646, 245146, 245646, 246147, 246604, 247075, 247603, 248066, 248514, 249007, 249491, 249952, 250422, 250936, 251389, 251825, 252321, 252794, 253271, 253750]",23,R,ITM,1.1,
6,400,trial,0,6,6,6,trial,"['S', 'S', 'S', 'S', 'S', 'S', 'S', 'C', 'C', 'C', 'C', 'C', 'C', 'C', 'C', 'C', 'C', 'C', 'C', 'C', 'C', 'C', 'C']","[298402, 298801, 299148, 299542, 299906, 300299, 300724, 301108, 301461, 301827, 302214, 302611, 303393, 303776, 304136, 304506, 304893, 305283, 305647, 306015, 306386, 306781, 307143]","[298483, 298870, 299240, 299640, 300024, 300407, 300828, 301194, 301553, 301921, 302307, 302693, 303477, 303853, 304225, 304588, 304967, 305371, 305729, 306115, 306497, 306894, 307248]","[297996, 298395, 298796, 299195, 299595, 299996, 300395, 300795, 301134, 301488, 301854, 302240, 302638, 303420, 303804, 304163, 304534, 304920, 305309, 305674, 306041, 306414, 306807, 307170]",23,R,ITM,1.1,
4,600,trial,0,7,7,7,trial,"['S', 'S', 'S', 'S', 'S', 'S', 'S', 'C', 'C', 'C', 'C', 'C', 'C', 'C', 'C', 'C', 'C', 'C', 'C', 'C', 'C', 'C', 'C']","[313109, 313799, 314405, 315049, 315656, 316265, 316855, 317464, 318033, 318614, 319181, 319767, 320326, 320877, 321420, 321969, 322523, 323076, 323585, 324091, 324669, 325245, 325784]","[313199, 313917, 314539, 315166, 315770, 316355, 316949, 317558, 318133, 318726, 319272, 319855, 320413, 320986, 321517, 322070, 322628, 323176, 323686, 324214, 324769, 325363, 325905]","[312750, 313349, 313949, 314549, 315149, 315749, 316349, 316949, 317490, 318059, 318640, 319207, 319793, 320352, 320903, 321445, 321995, 322548, 323102, 323610, 324117, 324695, 325271, 325811]",23,R,ITM,1.1,
3,600,trial,0,8,8,8,trial,"['S', 'S', 'S', 'S', 'S', 'S', 'S', 'C', 'C', 'C', 'C', 'C', 'C', 'C', 'C', 'C', 'C', 'C', 'C', 'C', 'C', 'C', 'C']","[331777, 332422, 333056, 333679, 334290, 334877, 335470, 336070, 336667, 337270, 337836, 338395, 338959, 339538, 340141, 340698, 341230, 341797, 342402, 342988, 343529, 344072, 344616]","[331884, 332550, 333174, 333792, 334372, 334951, 335547, 336146, 336753, 337363, 337967, 338513, 339075, 339667, 340244, 340776, 341322, 341904, 342475, 343090, 343643, 344186, 344699]","[331324, 331923, 332523, 333123, 333723, 334323, 334923, 335523, 336096, 336693, 337296, 337861, 338420, 338984, 339564, 340166, 340723, 341256, 341823, 342427, 343014, 343555, 344097, 344642]",23,R,ITM,1.1,
5,600,trial,0,9,9,9,trial,"['S', 'S', 'S', 'S', 'S', 'S', 'S', 'C', 'C', 'C', 'C', 'C', 'C', 'C', 'C', 'C', 'C', 'C', 'C', 'C', 'C', 'C', 'C']","[350710, 351372, 351967, 352557, 353175, 353779, 354371, 354961, 355554, 356152, 356699, 357309, 357852, 358422, 359004, 359575, 360110, 360669, 361260, 361831, 362390, 362956, 363523]","[350830, 351504, 352118, 352708, 353330, 353909, 354491, 355129, 355677, 356274, 356835, 357425, 357983, 358533, 359123, 359688, 360232, 360793, 361338, 361939, 362491, 363057, 363643]","[350224, 350824, 351424, 352024, 352624, 353224, 353824, 354424, 354987, 355579, 356178, 356724, 357335, 357877, 358448, 359029, 359601, 360135, 360695, 361285, 361858, 362416, 362983, 363548]",23,R,ITM,1.1,
4,400,trial,0,10,10,10,trial,"['S', 'S', 'S', 'S', 'S', 'S', 'S', 'C', 'C', 'C', 'C', 'C', 'C', 'C', 'C', 'C', 'C', 'C', 'C', 'C', 'C', 'C', 'C']","[369739, 370061, 370401, 370781, 371160, 371561, 371943, 372352, 372754, 373125, 373511, 373936, 374331, 374715, 375092, 375484, 375873, 376268, 376650, 377032, 377411, 377801, 378182]","[369824, 370165, 370498, 370891, 371271, 371643, 372026, 372431, 372842, 373216, 373604, 373961, 374435, 374797, 375182, 375588, 375964, 376335, 376729, 377108, 377483, 377886, 378287]","[369272, 369671, 370071, 370471, 370871, 371271, 371672, 372071, 372377, 372780, 373150, 373537, 373961, 374356, 374742, 375117, 375510, 375899, 376294, 376676, 377058, 377438, 377827, 378208]",23,R,ITM,1.1,
7,400,trial,0,11,11,11,trial,"['S', 'S', 'S', 'S', 'S', 'S', 'S', 'C', 'C', 'C', 'C', 'C', 'C', 'C', 'C', 'C', 'C', 'C', 'C', 'C', 'C', 'C', 'C']","[384293, 384640, 385025, 385403, 385780, 386182, 386604, 386994, 387394, 387816, 388214, 388600, 388983, 389344, 389716, 390087, 390463, 390866, 391275, 391636, 392007, 392384, 392754]","[384386, 384705, 385117, 385501, 385903, 386255, 386691, 387078, 387477, 387860, 388269, 388682, 389051, 389437, 389790, 390165, 390546, 390920, 391348, 391708, 392074, 392471, 392848]","[383856, 384256, 384655, 385055, 385456, 385855, 386255, 386655, 387021, 387421, 387843, 388241, 388628, 389011, 389371, 389743, 390114, 390491, 390893, 391303, 391663, 392034, 392412, 392780]",23,R,ITM,1.1,
3,600,trial,0,12,12,12,trial,"['S', 'S', 'S', 'S', 'S', 'S', 'S', 'C', 'C', 'C', 'C', 'C', 'C', 'C', 'C', 'C', 'C', 'C', 'C', 'C', 'C', 'C', 'C']","[398785, 399448, 400092, 400678, 401298, 401889, 402498, 403077, 403661, 404240, 404807, 405380, 405935, 406495, 407051, 407600, 408156, 408713, 409225, 409800, 410326, 410880, 411410]","[398882, 399555, 400177, 400783, 401403, 402001, 402576, 403149, 403723, 404330, 404892, 405458, 406000, 406587, 407136, 407670, 408226, 408804, 409316, 409882, 410419, 410973, 411486]","[398376, 398977, 399577, 400177, 400776, 401376, 401976, 402576, 403102, 403687, 404265, 404833, 405405, 405960, 406520, 407076, 407625, 408181, 408738, 409250, 409826, 410351, 410905, 411436]",23,R,ITM,1.1,
3,400,trial,0,13,13,13,trial,"['S', 'S', 'S', 'S', 'S', 'S', 'S', 'C', 'C', 'C', 'C', 'C', 'C', 'C', 'C', 'C', 'C', 'C', 'C', 'C', 'C', 'C', 'C']","[417712, 418013, 418375, 418725, 419097, 419488, 419878, 420270, 420676, 421072, 421457, 421840, 422237, 422659, 423036, 423392, 423806, 424204, 424607, 424990, 425383, 425753, 426142]","[417772, 418089, 418426, 418776, 419150, 419543, 419954, 420337, 420741, 421148, 421542, 421908, 422262, 422717, 423090, 423473, 423894, 424257, 424672, 425064, 425451, 425815, 426231]","[417214, 417613, 418013, 418413, 418813, 419213, 419613, 420014, 420295, 420702, 421098, 421483, 421866, 422262, 422684, 423062, 423417, 423832, 424229, 424633, 425016, 425409, 425779, 426168]",23,R,ITM,1.1,
2,600,trial,0,14,14,14,trial,"['S', 'S', 'S', 'S', 'S', 'S', 'S', 'C', 'C', 'C', 'C', 'C', 'C', 'C', 'C', 'C', 'C', 'C', 'C', 'C', 'C', 'C', 'C']","[431960, 432614, 433217, 433856, 434453, 435057, 435622, 436200, 436777, 437361, 437911, 438447, 439009, 439552, 440108, 440664, 441198, 441780, 442324, 442882, 443453, 443985, 444516]","[432048, 432695, 433314, 433956, 434570, 435175, 435695, 436313, 436865, 437459, 438021, 438523, 439072, 439638, 440183, 440771, 441288, 441878, 442424, 442985, 443540, 444102, 444616]","[431514, 432114, 432714, 433314, 433914, 434514, 435113, 435715, 436227, 436804, 437389, 437938, 438474, 439036, 439578, 440135, 440691, 441226, 441806, 442351, 442909, 443480, 444013, 444542]",23,R,ITM,1.1,
2,400,trial,0,15,15,15,trial,"['S', 'S', 'S', 'S', 'S', 'S', 'S', 'C', 'C', 'C', 'C', 'C', 'C', 'C', 'C', 'C', 'C', 'C', 'C', 'C', 'C', 'C', 'C']","[450638, 450979, 451341, 451739, 452117, 452520, 452954, 453364, 453758, 454127, 454539, 454913, 455300, 455682, 456047, 456468, 456977, 457395, 457777, 458144, 458518, 458898, 459264]","[450731, 451065, 451420, 451806, 452179, 452599, 453037, 453435, 453812, 454208, 454622, 455003, 455351, 455746, 456131, 456548, 457077, 457474, 457804, 458195, 458546, 458926, 459309]","[450236, 450636, 451036, 451436, 451836, 452235, 452635, 453037, 453392, 453785, 454155, 454565, 454939, 455326, 455709, 456074, 456496, 457004, 457421, 457804, 458172, 458546, 458926, 459291]",23,R,ITM,1.1,
6,600,trial,0,16,16,16,trial,"['S', 'S', 'S', 'S', 'S', 'S', 'S', 'C', 'C', 'C', 'C', 'C', 'C', 'C', 'C', 'C', 'C', 'C', 'C', 'C', 'C', 'C', 'C']","[465359, 466039, 466661, 467263, 467877, 468453, 469039, 469671, 470241, 470819, 471356, 471914, 472485, 473071, 473603, 474144, 474693, 475240, 475802, 476363, 476888, 477431, 477960]","[465379, 466110, 466725, 467329, 467945, 468504, 469102, 469726, 470308, 470883, 471429, 471996, 472550, 473122, 473629, 474212, 474767, 475315, 475867, 476418, 476953, 477514, 478047]","[464942, 465542, 466142, 466742, 467342, 467942, 468542, 469142, 469698, 470268, 470847, 471384, 471941, 472512, 473098, 473629, 474171, 474720, 475268, 475830, 476390, 476915, 477458, 477986]",23,R,ITM,1.1,
7,600,trial,0,17,17,17,trial,"['S', 'S', 'S', 'S', 'S', 'S', 'S', 'C', 'C', 'C', 'C', 'C', 'C', 'C', 'C', 'C', 'C', 'C', 'C', 'C', 'C', 'C', 'C']","[484159, 484854, 485495, 486102, 486699, 487296, 487905, 488497, 489080, 489698, 490277, 490840, 491400, 491937, 492510, 493060, 493614, 494186, 494732, 495305, 495843, 496359, 496897]","[484243, 484945, 485606, 486215, 486808, 487404, 487998, 488585, 489168, 489779, 490375, 490945, 491470, 492018, 492577, 493136, 493690, 494252, 494822, 495387, 495931, 496438, 496984]","[483758, 484357, 484957, 485556, 486156, 486756, 487356, 487956, 488524, 489107, 489725, 490305, 490866, 491427, 491964, 492536, 493087, 493640, 494214, 494759, 495333, 495870, 496387, 496923]",23,R,ITM,1.1,
7,600,trial,0,18,18,18,trial,"['S', 'S', 'S', 'S', 'S', 'S', 'S', 'C', 'C', 'C', 'C', 'C', 'C', 'C', 'C', 'C', 'C', 'C', 'C', 'C', 'C', 'C', 'C']","[520706, 521322, 521917, 522520, 523129, 523749, 524351, 524929, 525481, 526038, 526613, 527162, 527713, 528299, 528843, 529395, 529933, 530492, 531023, 531544, 532056, 532633, 533202]","[520800, 521413, 522018, 522610, 523219, 523841, 524432, 525027, 525574, 526131, 526685, 527236, 527788, 528365, 528931, 529487, 530021, 530569, 531104, 531605, 532144, 532719, 533304]","[520232, 520832, 521432, 522032, 522632, 523232, 523832, 524432, 524956, 525508, 526065, 526641, 527188, 527740, 528325, 528870, 529422, 529960, 530519, 531050, 531571, 532083, 532661, 533229]",23,R,ITM,1.1,
2,400,trial,0,19,19,19,trial,"['S', 'S', 'S', 'S', 'S', 'S', 'S', 'C', 'C', 'C', 'C', 'C', 'C', 'C', 'C', 'C', 'C', 'C', 'C', 'C', 'C', 'C', 'C']","[539267, 539563, 539921, 540288, 540679, 541091, 541503, 541933, 542340, 542724, 543095, 543535, 543964, 544381, 544780, 545155, 545541, 545953, 546332, 546723, 547116, 547490, 547864]","[539336, 539632, 539975, 540362, 540744, 541136, 541562, 542008, 542391, 542787, 543161, 543572, 544009, 544408, 544806, 545204, 545594, 545981, 546372, 546780, 547168, 547546, 547940]","[538762, 539161, 539561, 539961, 540362, 540763, 541162, 541562, 541960, 542367, 542750, 543122, 543561, 543990, 544408, 544806, 545181, 545568, 545981, 546359, 546751, 547142, 547518, 547892]",23,R,ITM,1.1,
5,600,trial,0,20,20,20,trial,"['S', 'S', 'S', 'S', 'S', 'S', 'S', 'C', 'C', 'C', 'C', 'C', 'C', 'C', 'C', 'C', 'C', 'C', 'C', 'C', 'C', 'C', 'C']","[553887, 554470, 555085, 555701, 556337, 556964, 557562, 558154, 558688, 559238, 559796, 560352, 560871, 561394, 561939, 562444, 562951, 563500, 564017, 564530, 565039, 565512, 566011]","[553938, 554573, 555175, 555802, 556439, 557040, 557643, 558214, 558768, 559319, 559881, 560434, 560954, 561470, 561986, 562499, 563005, 563609, 564104, 564615, 565107, 565598, 566105]","[553479, 554077, 554677, 555277, 555877, 556477, 557077, 557677, 558180, 558713, 559263, 559821, 560377, 560898, 561420, 561965, 562470, 562977, 563525, 564042, 564556, 565064, 565537, 566037]",23,R,ITM,1.1,
3,400,trial,0,21,21,21,trial,"['S', 'S', 'S', 'S', 'S', 'S', 'S', 'S', 'C', 'C', 'C', 'C', 'C', 'C', 'C', 'C', 'C', 'C', 'C', 'C', 'C', 'C', 'C', 'C']","[571769, 572126, 572604, 573073, 573453, 573858, 574237, 574624, 575035, 575372, 575679, 576025, 576379, 576732, 577091, 577440, 577835, 578197, 578547, 578867, 579197, 579540, 579901, 580224]","[571857, 572207, 572655, 573140, 573524, 573902, 574261, 574644, 575100, 575451, 575748, 576083, 576457, 576804, 577141, 577504, 577889, 578250, 578598, 578928, 579270, 579606, 579954, 580286]","[571585, 571985, 572385, 572785, 573186, 573585, 573985, 574386, 575060, 575397, 575705, 576051, 576405, 576757, 577117, 577466, 577860, 578223, 578573, 578892, 579223, 579566, 579927, 580249]",23,R,ITM,1.1,
5,400,trial,0,22,22,22,trial,"['S', 'S', 'S', 'S', 'S', 'S', 'S', 'C', 'C', 'C', 'C', 'C', 'C', 'C', 'C', 'C', 'C', 'C', 'C', 'C', 'C', 'C', 'C']","[585902, 586302, 586687, 587074, 587490, 587894, 588278, 588682, 589049, 589395, 589777, 590141, 590479, 590853, 591223, 591603, 591984, 592348, 592708, 593062, 593438, 593814, 594155]","[586010, 586393, 586774, 587160, 587567, 587955, 588341, 588734, 589115, 589455, 589839, 590219, 590573, 590926, 591320, 591682, 592055, 592436, 592790, 593161, 593527, 593873, 594212]","[585609, 586009, 586409, 586809, 587209, 587610, 588009, 588409, 588707, 589075, 589421, 589803, 590167, 590504, 590879, 591249, 591629, 592011, 592373, 592734, 593089, 593464, 593840, 594181]",23,R,ITM,1.1,
2,600,trial,0,23,23,23,trial,"['S', 'S', 'S', 'S', 'C', 'C', 'C', 'C', 'C', 'C', 'C', 'C', 'C', 'C', 'C', 'C', 'C', 'C', 'C', 'C']","[601805, 602351, 602939, 603516, 604118, 604649, 605210, 605769, 606306, 606836, 607366, 607867, 608366, 608893, 609423, 609944, 610463, 610990, 611511, 612028]","[601891, 602445, 603033, 603612, 604216, 604755, 605308, 605875, 606395, 606919, 607457, 607980, 608467, 608993, 609523, 610041, 610578, 611070, 611582, 612105]","[599477, 600077, 600676, 601277, 601877, 602477, 603077, 603676, 604145, 604677, 605238, 605797, 606333, 606864, 607393, 607894, 608394, 608921, 609449, 609972, 610491, 611016, 611538, 612056]",23,R,ITM,1.1,
4,400,trial,0,24,24,24,trial,"['C', 'C', 'C', 'C', 'C', 'C', 'C', 'C', 'C', 'C', 'C', 'C', 'C', 'C', 'C', 'C']","[620728, 621125, 621508, 621874, 622243, 622631, 623019, 623411, 623817, 624228, 624601, 624969, 625346, 625705, 626064, 626459]","[620806, 621195, 621587, 621941, 622324, 622705, 623083, 623464, 623869, 624268, 624653, 625021, 625398, 625773, 626146, 626533]","[617609, 618008, 618408, 618808, 619208, 619609, 620008, 620408, 620753, 621151, 621534, 621899, 622269, 622657, 623044, 623436, 623843, 624253, 624626, 624995, 625372, 625731, 626089, 626485]",23,R,ITM,1.1,
7,400,trial,0,25,25,25,trial,"['C', 'C', 'C', 'C', 'C', 'C', 'C', 'C', 'C', 'C', 'C', 'C', 'C', 'C', 'C', 'C']","[635072, 635471, 635865, 636247, 636636, 637052, 637446, 637829, 638220, 638606, 639000, 639391, 639797, 640176, 640545, 640924]","[635139, 635539, 635925, 636306, 636717, 637127, 637524, 637875, 638273, 638666, 639046, 639428, 639846, 640228, 640602, 640985]","[631903, 632303, 632704, 633103, 633503, 633904, 634303, 634703, 635100, 635498, 635892, 636274, 636662, 637080, 637473, 637855, 638247, 638632, 639027, 639418, 639823, 640202, 640573, 640952]",23,R,ITM,1.1,
5,400,trial,0,26,26,26,trial,"['C', 'C', 'C', 'C', 'C', 'C', 'C', 'C', 'C', 'C', 'C', 'C', 'C', 'C', 'C', 'C']","[649481, 649860, 650258, 650641, 651012, 651399, 651800, 652187, 652585, 652950, 653350, 653744, 654145, 654538, 654929, 655312]","[649549, 649944, 650329, 650714, 651088, 651473, 651872, 652258, 652665, 653036, 653443, 653818, 654246, 654635, 655007, 655389]","[646311, 646710, 647110, 647511, 647910, 648310, 648711, 649111, 649507, 649885, 650284, 650667, 651037, 651424, 651826, 652213, 652611, 652976, 653377, 653770, 654171, 654564, 654955, 655338]",23,R,ITM,1.1,
4,600,trial,0,27,27,27,trial,"['C', 'C', 'C', 'C', 'C', 'C', 'C', 'C', 'C', 'C', 'C', 'C', 'C', 'C', 'C', 'C']","[665405, 665984, 666551, 667092, 667665, 668249, 668802, 669363, 669905, 670462, 671052, 671619, 672153, 672695, 673242, 673766]","[665504, 666073, 666629, 667171, 667758, 668328, 668890, 669442, 670017, 670552, 671130, 671688, 672246, 672776, 673319, 673837]","[660676, 661275, 661875, 662475, 663075, 663675, 664275, 664876, 665431, 666010, 666576, 667118, 667691, 668275, 668828, 669388, 669932, 670489, 671078, 671644, 672179, 672720, 673267, 673792]",23,R,ITM,1.1,
6,400,trial,0,28,28,28,trial,"['C', 'C', 'C', 'C', 'C', 'C', 'C', 'C', 'C', 'C', 'C', 'C', 'C', 'C', 'C', 'C']","[682544, 682947, 683331, 683718, 684086, 684469, 684859, 685231, 685603, 686003, 686393, 686780, 687134, 687544, 687950, 688316]","[682618, 683031, 683406, 683786, 684172, 684542, 684932, 685310, 685675, 686070, 686468, 686856, 687214, 687623, 688032, 688393]","[679378, 679777, 680177, 680578, 680977, 681377, 681778, 682177, 682570, 682974, 683358, 683745, 684112, 684495, 684887, 685257, 685630, 686030, 686419, 686808, 687161, 687570, 687978, 688344]",23,R,ITM,1.1,
6,600,trial,0,29,29,29,trial,"['S', 'S', 'S', 'S', 'S', 'C', 'C', 'C', 'C', 'C', 'C', 'C', 'C', 'C', 'C', 'C', 'C', 'C', 'C', 'C', 'C']","[695599, 696101, 696693, 697302, 697879, 698475, 699068, 699666, 700255, 700823, 701363, 701884, 702460, 703032, 703603, 704152, 704715, 705284, 705841, 706410, 706938]","[695628, 696186, 696766, 697374, 697940, 698535, 699140, 699723, 700310, 700898, 701437, 701959, 702532, 703109, 703686, 704232, 704805, 705362, 705920, 706487, 707017]","[693757, 694358, 694958, 695558, 696158, 696758, 697358, 697958, 698502, 699095, 699693, 700282, 700850, 701389, 701912, 702488, 703059, 703630, 704179, 704742, 705311, 705867, 706437, 706966]",23,R,ITM,1.1,
3,600,trial,0,30,30,30,trial,"['S', 'S', 'S', 'S', 'S', 'S', 'S', 'C', 'C', 'C', 'C', 'C', 'C', 'C', 'C', 'C', 'C', 'C', 'C', 'C', 'C', 'C', 'C']","[725860, 726447, 727066, 727687, 728286, 728865, 729438, 730043, 730597, 731133, 731684, 732243, 732795, 733349, 733876, 734432, 734988, 735525, 736068, 736600, 737120, 737657, 738190]","[726006, 726582, 727176, 727778, 728352, 728924, 729500, 730143, 730739, 731272, 731840, 732389, 732950, 733473, 733995, 734565, 735109, 735659, 736184, 736728, 737274, 737809, 738350]","[725300, 725900, 726500, 727100, 727700, 728300, 728900, 729500, 730068, 730622, 731159, 731710, 732269, 732821, 733375, 733901, 734457, 735013, 735551, 736094, 736625, 737145, 737683, 738215]",23,R,ITM,1.1,
3,400,trial,0,31,31,31,trial,"['C', 'C', 'C', 'C', 'C', 'C', 'C', 'C', 'C', 'C', 'C', 'C', 'C', 'C', 'C', 'C']","[747097, 747504, 747901, 748308, 748693, 749069, 749449, 749827, 750215, 750589, 750968, 751346, 751694, 752080, 752460, 752833]","[747195, 747585, 747978, 748387, 748760, 749126, 749537, 749917, 750299, 750680, 751057, 751452, 751809, 752156, 752566, 752945]","[743955, 744355, 744755, 745155, 745555, 745955, 746355, 746756, 747122, 747530, 747927, 748334, 748719, 749094, 749474, 749852, 750240, 750615, 750994, 751372, 751720, 752106, 752486, 752859]",23,R,ITM,1.1,
7,400,trial,0,32,32,32,trial,"['C', 'C', 'C', 'C', 'C', 'C', 'C', 'C', 'C', 'C', 'C', 'C', 'C', 'C', 'C', 'C']","[761728, 762130, 762523, 762921, 763313, 763707, 764102, 764484, 764872, 765255, 765657, 766044, 766434, 766843, 767223, 767606]","[761814, 762205, 762604, 763010, 763425, 763809, 764205, 764600, 764982, 765341, 765763, 766126, 766528, 766920, 767341, 767727]","[758545, 758944, 759345, 759744, 760144, 760544, 760944, 761345, 761754, 762158, 762550, 762948, 763339, 763734, 764129, 764512, 764899, 765283, 765683, 766071, 766460, 766870, 767250, 767633]",23,R,ITM,1.1,
5,600,trial,0,33,33,33,trial,"['C', 'C', 'C', 'C', 'C', 'C', 'C', 'C', 'C', 'C', 'C', 'C', 'C', 'C', 'C', 'C']","[777684, 778258, 778865, 779413, 779959, 780515, 781056, 781585, 782132, 782684, 783259, 783789, 784307, 784836, 785356, 785883]","[777826, 778395, 779044, 779614, 780143, 780672, 781213, 781731, 782292, 782841, 783412, 783951, 784507, 785019, 785530, 786072]","[772951, 773550, 774150, 774749, 775349, 775949, 776549, 777149, 777709, 778284, 778892, 779439, 779984, 780540, 781082, 781611, 782157, 782710, 783286, 783815, 784332, 784862, 785382, 785908]",23,R,ITM,1.1,
3,400,trial,0,34,34,34,trial,"['C', 'C', 'C', 'C', 'C', 'C', 'C', 'C', 'C', 'C', 'C', 'C', 'C', 'C', 'C', 'C']","[794370, 794759, 795141, 795546, 795923, 796315, 796684, 797062, 797421, 797824, 798203, 798574, 798948, 799316, 799681, 800066]","[794466, 794851, 795241, 795661, 796054, 796461, 796844, 797210, 797593, 797934, 798341, 798714, 799084, 799476, 799828, 800197]","[791203, 791603, 792003, 792403, 792803, 793203, 793604, 794003, 794395, 794784, 795166, 795572, 795949, 796341, 796709, 797087, 797447, 797849, 798229, 798600, 798973, 799342, 799707, 800092]",23,R,ITM,1.1,
6,400,trial,0,35,35,35,trial,"['C', 'C', 'C', 'C', 'C', 'C', 'C', 'C', 'C', 'C', 'C', 'C', 'C', 'C', 'C', 'C']","[809038, 809431, 809821, 810226, 810664, 811001, 811409, 811809, 812186, 812590, 812965, 813357, 813747, 814108, 814477, 814861]","[809128, 809538, 809932, 810374, 810816, 811184, 811554, 811945, 812344, 812758, 813135, 813573, 813944, 814266, 814642, 815043]","[805839, 806239, 806639, 807040, 807439, 807839, 808240, 808639, 809065, 809458, 809847, 810253, 810692, 811029, 811437, 811837, 812213, 812616, 812993, 813383, 813773, 814135, 814503, 814888]",23,R,ITM,1.1,
3,600,trial,0,36,36,36,trial,"['S', 'S', 'S', 'S', 'S', 'S', 'S', 'C', 'C', 'C', 'C', 'C', 'C', 'C', 'C', 'C', 'C', 'C', 'C', 'C', 'C', 'C', 'C']","[820971, 821519, 822069, 822662, 823237, 823877, 824426, 825042, 825630, 826224, 826754, 827325, 827895, 828423, 828948, 829483, 830016, 830551, 831088, 831605, 832123, 832630, 833139]","[821139, 821698, 822269, 822862, 823447, 824052, 824592, 825229, 825798, 826379, 826909, 827487, 828039, 828585, 829090, 829644, 830201, 830718, 831263, 831802, 832285, 832833, 833319]","[820333, 820932, 821532, 822132, 822732, 823332, 823932, 824532, 825068, 825656, 826250, 826779, 827351, 827921, 828448, 828974, 829508, 830042, 830576, 831114, 831631, 832149, 832657, 833165]",23,R,ITM,1.1,
5,400,trial,0,37,37,37,trial,"['C', 'C', 'C', 'C', 'C', 'C', 'C', 'C', 'C', 'C', 'C', 'C', 'C', 'C', 'C', 'C']","[841910, 842295, 842716, 843103, 843499, 843870, 844267, 844641, 845009, 845392, 845772, 846147, 846507, 846883, 847262, 847633]","[842007, 842402, 842824, 843220, 843608, 843985, 844384, 844767, 845144, 845519, 845913, 846271, 846636, 846960, 847355, 847756]","[838757, 839156, 839557, 839956, 840356, 840756, 841156, 841556, 841935, 842320, 842742, 843129, 843525, 843896, 844293, 844666, 845035, 845418, 845798, 846174, 846532, 846909, 847288, 847660]",23,R,ITM,1.1,
4,600,trial,0,38,38,38,trial,"['C', 'C', 'C', 'C', 'C', 'C', 'C', 'C', 'C', 'C', 'C', 'C', 'C', 'C', 'C', 'C']","[857882, 858449, 859018, 859578, 860147, 860684, 861225, 861731, 862261, 862801, 863347, 863883, 864382, 864871, 865384, 865868]","[858068, 858622, 859201, 859755, 860293, 860857, 861422, 861913, 862454, 862998, 863537, 864074, 864578, 865084, 865581, 866046]","[853180, 853780, 854380, 854980, 855580, 856180, 856780, 857380, 857908, 858475, 859043, 859603, 860173, 860709, 861251, 861757, 862286, 862827, 863373, 863908, 864408, 864897, 865410, 865894]",23,R,ITM,1.1,
6,400,trial,0,39,39,39,trial,"['C', 'C', 'C', 'C', 'C', 'C', 'C', 'C', 'C', 'C', 'C', 'C', 'C', 'C', 'C', 'C']","[874456, 874856, 875246, 875655, 876028, 876443, 876845, 877211, 877579, 877965, 878353, 878736, 879102, 879471, 879828, 880193]","[874584, 874985, 875402, 875798, 876179, 876593, 877030, 877398, 877760, 878140, 878527, 878907, 879265, 879632, 879986, 880351]","[871286, 871687, 872086, 872486, 872886, 873286, 873687, 874086, 874483, 874883, 875274, 875681, 876055, 876470, 876871, 877238, 877606, 877992, 878381, 878763, 879130, 879498, 879855, 880221]",23,R,ITM,1.1,
5,400,trial,0,40,40,40,trial,"['C', 'C', 'C', 'C', 'C', 'C', 'C', 'C', 'C', 'C', 'C', 'C', 'C', 'C', 'C', 'C']","[888814, 889218, 889600, 889960, 890310, 890714, 891100, 891510, 891891, 892288, 892658, 893042, 893446, 893827, 894208, 894594]","[888942, 889353, 889731, 890124, 890478, 890848, 891256, 891644, 892024, 892408, 892825, 893194, 893602, 893971, 894365, 894741]","[885633, 886032, 886432, 886833, 887232, 887632, 888032, 888432, 888840, 889243, 889625, 889986, 890336, 890740, 891125, 891536, 891917, 892313, 892685, 893069, 893471, 893852, 894233, 894620]",23,R,ITM,1.1,
2,400,trial,0,41,41,41,trial,"['C', 'C', 'C', 'C', 'C', 'C', 'C', 'C', 'C', 'C', 'C', 'C', 'C', 'C', 'C', 'C']","[903510, 903888, 904268, 904678, 905054, 905423, 905805, 906196, 906589, 906990, 907382, 907785, 908172, 908627, 908990, 909355]","[903631, 904016, 904420, 904846, 905226, 905579, 905954, 906360, 906775, 907165, 907552, 907984, 908359, 908827, 909158, 909512]","[900327, 900727, 901127, 901527, 901926, 902327, 902727, 903128, 903537, 903915, 904295, 904706, 905081, 905451, 905832, 906222, 906616, 907017, 907409, 907812, 908198, 908655, 909017, 909382]",23,R,ITM,1.1,
7,600,trial,0,42,42,42,trial,"['C', 'C', 'C', 'C', 'C', 'C', 'C', 'C', 'C', 'C', 'C', 'C', 'C', 'C', 'C', 'C']","[933270, 933812, 934373, 934915, 935453, 935979, 936486, 937030, 937542, 938035, 938536, 939062, 939593, 940092, 940576, 941051]","[933417, 933977, 934517, 935068, 935603, 936124, 936694, 937203, 937702, 938188, 938664, 939219, 939757, 940255, 940775, 941253]","[928562, 929160, 929760, 930360, 930960, 931560, 932160, 932760, 933297, 933838, 934400, 934941, 935481, 936006, 936514, 937058, 937570, 938062, 938563, 939089, 939621, 940120, 940604, 941078]",23,R,ITM,1.1,
4,600,trial,0,43,43,43,trial,"['C', 'C', 'C', 'C', 'C', 'C', 'C', 'C', 'C', 'C', 'C', 'C', 'C', 'C', 'C', 'C']","[951425, 951965, 952499, 953062, 953617, 954137, 954641, 955160, 955682, 956220, 956746, 957258, 957788, 958271, 958782, 959293]","[951632, 952167, 952722, 953251, 953778, 954289, 954810, 955319, 955835, 956389, 956912, 957451, 957965, 958481, 959022, 959513]","[946734, 947333, 947933, 948533, 949133, 949733, 950333, 950933, 951450, 951992, 952524, 953088, 953643, 954163, 954667, 955186, 955708, 956246, 956772, 957285, 957813, 958297, 958808, 959319]",23,R,ITM,1.1,
2,400,trial,0,44,44,44,trial,"['S', 'C', 'C', 'C', 'C', 'C', 'C', 'C', 'C', 'C', 'C', 'C', 'C', 'C', 'C', 'C', 'C']","[965154, 968110, 968508, 968902, 969325, 969679, 970058, 970409, 970760, 971124, 971496, 971869, 972234, 972589, 972961, 973341, 973705]","[965267, 968223, 968589, 968988, 969416, 969769, 970136, 970475, 970836, 971210, 971579, 971962, 972329, 972696, 973050, 973425, 973770]","[964956, 965355, 965755, 966155, 966555, 966956, 967355, 967755, 968136, 968536, 968929, 969352, 969707, 970086, 970437, 970786, 971152, 971523, 971895, 972262, 972616, 972989, 973368, 973732]",23,R,ITM,1.1,
2,600,trial,0,45,45,45,trial,"['C', 'C', 'C', 'C', 'C', 'C', 'C', 'C', 'C', 'C', 'C', 'C', 'C', 'C', 'C', 'C']","[983855, 984374, 984919, 985432, 985957, 986489, 986997, 987490, 987984, 988488, 989004, 989540, 990027, 990481, 990965, 991467]","[983946, 984458, 985016, 985510, 986044, 986582, 987092, 987566, 988047, 988549, 989085, 989674, 990119, 990590, 991076, 991550]","[979160, 979760, 980359, 980959, 981558, 982159, 982759, 983359, 983882, 984401, 984945, 985459, 985985, 986516, 987025, 987517, 988011, 988515, 989032, 989568, 990054, 990509, 990992, 991495]",23,R,ITM,1.1,
5,600,trial,0,46,46,46,trial,"['C', 'C', 'C', 'C', 'C', 'C', 'C', 'C', 'C', 'C', 'C', 'C', 'C', 'C', 'C', 'C']","[1001521, 1002049, 1002608, 1003156, 1003675, 1004216, 1004756, 1005251, 1005779, 1006301, 1006803, 1007335, 1007878, 1008353, 1008854, 1009351]","[1001640, 1002187, 1002787, 1003285, 1003831, 1004356, 1004915, 1005403, 1005873, 1006462, 1006923, 1007469, 1007992, 1008505, 1009004, 1009502]","[996792, 997391, 997991, 998591, 999191, 999791, 1000391, 1000991, 1001546, 1002076, 1002634, 1003183, 1003701, 1004242, 1004781, 1005277, 1005805, 1006326, 1006829, 1007361, 1007903, 1008378, 1008879, 1009377]",23,R,ITM,1.1,
7,600,trial,0,47,47,47,trial,"['C', 'C', 'C', 'C', 'C', 'C', 'C', 'C', 'C', 'C', 'C', 'C', 'C', 'C', 'C', 'C']","[1019766, 1020349, 1020955, 1021508, 1022062, 1022622, 1023160, 1023693, 1024261, 1024793, 1025311, 1025832, 1026351, 1026861, 1027377, 1027893]","[1019911, 1020493, 1021084, 1021683, 1022246, 1022792, 1023339, 1023873, 1024423, 1024984, 1025484, 1026016, 1026536, 1027035, 1027556, 1028062]","[1015015, 1015614, 1016214, 1016814, 1017414, 1018014, 1018614, 1019214, 1019793, 1020377, 1020982, 1021536, 1022089, 1022650, 1023186, 1023720, 1024288, 1024820, 1025338, 1025859, 1026377, 1026888, 1027403, 1027920]",23,R,ITM,1.1,
6,600,trial,0,48,48,48,trial,"['C', 'C', 'C', 'C', 'C', 'C', 'C', 'C', 'C', 'C', 'C', 'C', 'C', 'C', 'C', 'C']","[1038230, 1038801, 1039374, 1039930, 1040475, 1040997, 1041524, 1042069, 1042608, 1043129, 1043668, 1044197, 1044726, 1045265, 1045791, 1046317]","[1038389, 1038970, 1039550, 1040098, 1040646, 1041153, 1041704, 1042238, 1042779, 1043319, 1043843, 1044368, 1044930, 1045459, 1045996, 1046501]","[1033512, 1034112, 1034712, 1035312, 1035912, 1036512, 1037112, 1037712, 1038258, 1038828, 1039400, 1039958, 1040501, 1041024, 1041552, 1042096, 1042635, 1043155, 1043696, 1044224, 1044754, 1045292, 1045819, 1046344]",23,R,ITM,1.1,
7,400,trial,0,49,49,49,trial,"['C', 'C', 'C', 'C', 'C', 'C', 'C', 'C', 'C', 'C', 'C', 'C', 'C', 'C', 'C', 'C']","[1054836, 1055218, 1055584, 1056001, 1056388, 1056759, 1057141, 1057541, 1057935, 1058330, 1058713, 1059073, 1059431, 1059803, 1060185, 1060573]","[1054955, 1055339, 1055732, 1056116, 1056522, 1056915, 1057251, 1057661, 1058073, 1058486, 1058872, 1059235, 1059584, 1059923, 1060318, 1060679]","[1051683, 1052083, 1052483, 1052883, 1053283, 1053683, 1054084, 1054483, 1054863, 1055245, 1055611, 1056027, 1056415, 1056787, 1057168, 1057567, 1057961, 1058357, 1058741, 1059100, 1059458, 1059830, 1060211, 1060599]",23,R,ITM,1.1,
4,400,trial,0,50,50,50,trial,"['C', 'C', 'C', 'C', 'C', 'C', 'C', 'C', 'C', 'C', 'C', 'C', 'C', 'C', 'C', 'C']","[1069240, 1069632, 1069999, 1070389, 1070782, 1071173, 1071553, 1071955, 1072354, 1072720, 1073122, 1073514, 1073911, 1074290, 1074658, 1075048]","[1069371, 1069752, 1070120, 1070510, 1070905, 1071300, 1071685, 1072082, 1072475, 1072854, 1073218, 1073642, 1074084, 1074439, 1074796, 1075185]","[1066077, 1066477, 1066877, 1067277, 1067677, 1068078, 1068477, 1068877, 1069265, 1069658, 1070025, 1070414, 1070808, 1071199, 1071579, 1071981, 1072379, 1072747, 1073147, 1073540, 1073937, 1074316, 1074683, 1075074]",23,R,ITM,1.1,
2,600,trial,0,51,51,51,trial,"['C', 'C', 'C', 'C', 'C', 'C', 'C', 'C', 'C', 'C', 'C', 'C', 'C', 'C', 'C', 'C']","[1085373, 1085942, 1086530, 1087053, 1087609, 1088130, 1088673, 1089204, 1089714, 1090234, 1090770, 1091286, 1091782, 1092276, 1092756, 1093265]","[1085532, 1086090, 1086693, 1087195, 1087738, 1088265, 1088803, 1089331, 1089843, 1090366, 1090916, 1091433, 1091939, 1092406, 1092915, 1093382]","[1080636, 1081236, 1081836, 1082436, 1083036, 1083636, 1084235, 1084835, 1085401, 1085970, 1086558, 1087081, 1087637, 1088157, 1088700, 1089230, 1089741, 1090260, 1090798, 1091313, 1091809, 1092303, 1092784, 1093292]",23,R,ITM,1.1,
6,600,trial,0,52,52,52,trial,"['C', 'C', 'C', 'C', 'C', 'C', 'C', 'C', 'C', 'C', 'C', 'C', 'C', 'C', 'C', 'C']","[1103514, 1104089, 1104650, 1105186, 1105742, 1106292, 1106832, 1107330, 1107871, 1108410, 1108972, 1109483, 1110000, 1110525, 1111041, 1111533]","[1103696, 1104256, 1104817, 1105366, 1105887, 1106448, 1107022, 1107496, 1108012, 1108551, 1109082, 1109639, 1110139, 1110665, 1111185, 1111683]","[1098768, 1099367, 1099967, 1100567, 1101167, 1101767, 1102367, 1102967, 1103541, 1104115, 1104676, 1105214, 1105769, 1106320, 1106859, 1107356, 1107898, 1108436, 1108999, 1109510, 1110028, 1110553, 1111068, 1111560]",23,R,ITM,1.1,
4,400,trial,0,53,53,53,trial,"['C', 'C', 'C', 'C', 'C', 'C', 'C', 'C', 'C', 'C', 'C', 'C', 'C', 'C', 'C', 'C']","[1120279, 1120668, 1121053, 1121419, 1121804, 1122163, 1122532, 1122891, 1123272, 1123649, 1124029, 1124412, 1124795, 1125184, 1125567, 1125935]","[1120416, 1120789, 1121184, 1121573, 1121958, 1122349, 1122675, 1123025, 1123377, 1123770, 1124151, 1124538, 1124930, 1125325, 1125679, 1126047]","[1117135, 1117535, 1117935, 1118336, 1118735, 1119135, 1119536, 1119935, 1120305, 1120694, 1121079, 1121444, 1121829, 1122190, 1122558, 1122917, 1123298, 1123676, 1124055, 1124438, 1124822, 1125210, 1125593, 1125960]",23,R,ITM,1.1,
6,400,trial,0,54,54,54,trial,"['C', 'C', 'C', 'C', 'C', 'C', 'C', 'C', 'C', 'C', 'C', 'C', 'C', 'C', 'C', 'C']","[1144818, 1145218, 1145602, 1145989, 1146382, 1146763, 1147139, 1147550, 1147939, 1148324, 1148693, 1149066, 1149467, 1149840, 1150221, 1150604]","[1144921, 1145310, 1145711, 1146117, 1146529, 1146914, 1147291, 1147656, 1148064, 1148437, 1148825, 1149210, 1149577, 1149932, 1150330, 1150704]","[1141636, 1142034, 1142434, 1142835, 1143235, 1143635, 1144035, 1144435, 1144846, 1145244, 1145628, 1146015, 1146408, 1146789, 1147165, 1147577, 1147966, 1148351, 1148720, 1149093, 1149494, 1149867, 1150248, 1150630]",23,R,ITM,1.1,
6,400,trial,0,55,55,55,trial,"['C', 'C', 'C', 'C', 'C', 'C', 'C', 'C', 'C', 'C', 'C', 'C', 'C', 'C', 'C', 'C']","[1159245, 1159635, 1160027, 1160404, 1160792, 1161177, 1161555, 1161939, 1162331, 1162715, 1163113, 1163518, 1163909, 1164295, 1164685, 1165037]","[1159329, 1159748, 1160141, 1160518, 1160898, 1161270, 1161660, 1162039, 1162429, 1162827, 1163226, 1163645, 1164033, 1164400, 1164791, 1165136]","[1156091, 1156490, 1156890, 1157291, 1157690, 1158090, 1158491, 1158890, 1159272, 1159662, 1160054, 1160431, 1160818, 1161204, 1161583, 1161967, 1162357, 1162742, 1163140, 1163546, 1163935, 1164321, 1164711, 1165064]",23,R,ITM,1.1,
7,400,trial,0,56,56,56,trial,"['C', 'C', 'C', 'C', 'C', 'C', 'C', 'C', 'C', 'C', 'C', 'C', 'C', 'C', 'C', 'C']","[1173872, 1174278, 1174649, 1175042, 1175440, 1175827, 1176202, 1176597, 1177005, 1177394, 1177782, 1178161, 1178559, 1178944, 1179317, 1179664]","[1173965, 1174389, 1174767, 1175141, 1175528, 1175925, 1176313, 1176694, 1177096, 1177487, 1177887, 1178270, 1178645, 1179032, 1179415, 1179796]","[1170692, 1171090, 1171490, 1171891, 1172291, 1172691, 1173091, 1173491, 1173900, 1174305, 1174676, 1175068, 1175467, 1175855, 1176229, 1176624, 1177032, 1177421, 1177809, 1178188, 1178587, 1178972, 1179343, 1179691]",23,R,ITM,1.1,
5,600,trial,0,57,57,57,trial,"['C', 'C', 'C', 'C', 'C', 'C', 'C', 'C', 'C', 'C', 'C', 'C', 'C', 'C', 'C', 'C']","[1189886, 1190455, 1191037, 1191568, 1192120, 1192659, 1193207, 1193740, 1194292, 1194842, 1195369, 1195907, 1196451, 1196993, 1197520, 1198031]","[1190057, 1190622, 1191183, 1191706, 1192271, 1192796, 1193349, 1193864, 1194425, 1194996, 1195510, 1196062, 1196596, 1197122, 1197658, 1198180]","[1185173, 1185773, 1186373, 1186973, 1187573, 1188173, 1188773, 1189373, 1189911, 1190481, 1191063, 1191593, 1192145, 1192685, 1193233, 1193765, 1194317, 1194867, 1195395, 1195932, 1196478, 1197019, 1197546, 1198058]",23,R,ITM,1.1,
2,600,trial,0,58,58,58,trial,"['C', 'C', 'C', 'C', 'C', 'C', 'C', 'C', 'C', 'C', 'C', 'C', 'C', 'C', 'C', 'C']","[1208150, 1208735, 1209313, 1209894, 1210486, 1211030, 1211558, 1212089, 1212633, 1213190, 1213753, 1214273, 1214772, 1215299, 1215870, 1216369]","[1208347, 1208892, 1209490, 1210043, 1210632, 1211171, 1211661, 1212229, 1212751, 1213329, 1213893, 1214384, 1214919, 1215432, 1215986, 1216505]","[1203436, 1204035, 1204635, 1205236, 1205836, 1206435, 1207036, 1207636, 1208177, 1208763, 1209340, 1209922, 1210513, 1211057, 1211586, 1212115, 1212660, 1213217, 1213780, 1214301, 1214799, 1215327, 1215897, 1216396]",23,R,ITM,1.1,
7,600,trial,0,59,59,59,trial,"['C', 'C', 'C', 'C', 'C', 'C', 'C', 'C', 'C', 'C', 'C', 'C', 'C', 'C', 'C', 'C']","[1226737, 1227347, 1227930, 1228522, 1229100, 1229674, 1230264, 1230832, 1231363, 1231885, 1232450, 1233012, 1233568, 1234102, 1234649, 1235172]","[1226801, 1227416, 1228027, 1228649, 1229217, 1229779, 1230392, 1231005, 1231513, 1231996, 1232581, 1233142, 1233682, 1234238, 1234799, 1235331]","[1221971, 1222571, 1223171, 1223771, 1224371, 1224971, 1225571, 1226171, 1226764, 1227375, 1227957, 1228550, 1229126, 1229701, 1230290, 1230860, 1231390, 1231912, 1232478, 1233040, 1233595, 1234128, 1234676, 1235198]",23,R,ITM,1.1,
4,400,trial,0,60,60,60,trial,"['C', 'C', 'C', 'C', 'C', 'C', 'C', 'C', 'C', 'C', 'C', 'C', 'C', 'C', 'C', 'C']","[1243736, 1244140, 1244513, 1244911, 1245293, 1245706, 1246082, 1246479, 1246836, 1247227, 1247639, 1248022, 1248411, 1248791, 1249181, 1249582]","[1243843, 1244244, 1244636, 1245039, 1245421, 1245799, 1246201, 1246583, 1246984, 1247340, 1247763, 1248128, 1248540, 1248907, 1249284, 1249703]","[1240529, 1240928, 1241328, 1241729, 1242128, 1242528, 1242929, 1243328, 1243761, 1244166, 1244538, 1244938, 1245319, 1245731, 1246107, 1246504, 1246862, 1247253, 1247666, 1248048, 1248437, 1248817, 1249208, 1249607]",23,R,ITM,1.1,
2,400,trial,0,61,61,61,trial,"['C', 'C', 'C', 'C', 'C', 'C', 'C', 'C', 'C', 'C', 'C', 'C', 'C', 'C', 'C', 'C']","[1258059, 1258445, 1258840, 1259215, 1259587, 1259957, 1260331, 1260715, 1261100, 1261490, 1261869, 1262253, 1262627, 1263012, 1263376, 1263749]","[1258178, 1258569, 1258945, 1259318, 1259670, 1260041, 1260435, 1260830, 1261231, 1261606, 1261989, 1262390, 1262739, 1263135, 1263494, 1263851]","[1254895, 1255296, 1255695, 1256095, 1256496, 1256895, 1257295, 1257695, 1258087, 1258473, 1258867, 1259243, 1259614, 1259984, 1260358, 1260742, 1261127, 1261516, 1261896, 1262279, 1262654, 1263039, 1263403, 1263776]",23,R,ITM,1.1,
4,400,trial,0,62,62,62,trial,"['C', 'C', 'C', 'C', 'C', 'C', 'C', 'C', 'C', 'C', 'C', 'C', 'C', 'C', 'C', 'C']","[1272311, 1272680, 1273040, 1273421, 1273807, 1274184, 1274562, 1274944, 1275331, 1275704, 1276064, 1276431, 1276816, 1277214, 1277603, 1277992]","[1272400, 1272765, 1273128, 1273520, 1273906, 1274287, 1274651, 1275033, 1275413, 1275785, 1276135, 1276510, 1276901, 1277280, 1277690, 1278061]","[1269153, 1269553, 1269952, 1270352, 1270752, 1271152, 1271553, 1271952, 1272337, 1272706, 1273066, 1273447, 1273833, 1274210, 1274588, 1274970, 1275357, 1275729, 1276090, 1276456, 1276841, 1277240, 1277629, 1278018]",23,R,ITM,1.1,
7,600,trial,0,63,63,63,trial,"['C', 'C', 'C', 'C', 'C', 'C', 'C', 'C', 'C', 'C', 'C', 'C', 'C', 'C', 'C', 'C']","[1288131, 1288685, 1289270, 1289836, 1290395, 1290912, 1291470, 1292008, 1292535, 1293078, 1293608, 1294130, 1294690, 1295253, 1295789, 1296269]","[1288252, 1288803, 1289392, 1289935, 1290502, 1291033, 1291564, 1292120, 1292613, 1293187, 1293737, 1294240, 1294815, 1295383, 1295887, 1296368]","[1283416, 1284015, 1284615, 1285214, 1285814, 1286414, 1287014, 1287614, 1288159, 1288712, 1289296, 1289863, 1290423, 1290939, 1291498, 1292035, 1292563, 1293105, 1293635, 1294157, 1294716, 1295281, 1295815, 1296295]",23,R,ITM,1.1,
6,600,trial,0,64,64,64,trial,"['S', 'S', 'S', 'S', 'S', 'S', 'S', 'C', 'C', 'C', 'C', 'C', 'C', 'C', 'C', 'C', 'C', 'C', 'C', 'C', 'C', 'C', 'C']","[1302275, 1302812, 1303429, 1304018, 1304611, 1305221, 1305811, 1306433, 1307018, 1307609, 1308128, 1308688, 1309236, 1309803, 1310330, 1310878, 1311443, 1311974, 1312522, 1313119, 1313653, 1314254, 1314821]","[1302402, 1302883, 1303522, 1304104, 1304708, 1305307, 1305905, 1306517, 1307122, 1307703, 1308239, 1308793, 1309336, 1309872, 1310416, 1310956, 1311526, 1312084, 1312641, 1313201, 1313780, 1314386, 1314935]","[1301693, 1302292, 1302892, 1303492, 1304092, 1304692, 1305292, 1305892, 1306460, 1307045, 1307635, 1308154, 1308715, 1309262, 1309830, 1310358, 1310906, 1311470, 1312001, 1312548, 1313146, 1313680, 1314282, 1314848]",23,R,ITM,1.1,
3,400,trial,0,65,65,65,trial,"['C', 'C', 'C', 'C', 'C', 'C', 'C', 'C', 'C', 'C', 'C', 'C', 'C', 'C', 'C', 'C']","[1323364, 1323754, 1324137, 1324506, 1324892, 1325280, 1325656, 1326056, 1326437, 1326814, 1327165, 1327551, 1327932, 1328301, 1328694, 1329076]","[1323442, 1323816, 1324212, 1324589, 1324980, 1325376, 1325749, 1326135, 1326516, 1326888, 1327254, 1327627, 1327989, 1328364, 1328747, 1329131]","[1320211, 1320610, 1321010, 1321410, 1321810, 1322210, 1322610, 1323011, 1323389, 1323780, 1324163, 1324531, 1324917, 1325305, 1325681, 1326082, 1326462, 1326839, 1327191, 1327577, 1327958, 1328326, 1328719, 1329101]",23,R,ITM,1.1,
3,600,trial,0,66,66,66,trial,"['S', 'S', 'C', 'C', 'C', 'C', 'C', 'C', 'C', 'C', 'C', 'C', 'C', 'C', 'C', 'C', 'C', 'C']","[1336511, 1336858, 1339327, 1339879, 1340429, 1340989, 1341556, 1342103, 1342648, 1343202, 1343777, 1344314, 1344860, 1345408, 1345984, 1346523, 1347088, 1347629]","[1336708, 1337605, 1339429, 1339999, 1340538, 1341096, 1341668, 1342206, 1342770, 1343330, 1343888, 1344449, 1344976, 1345523, 1346102, 1346630, 1347193, 1347745]","[1334595, 1335194, 1335794, 1336394, 1336994, 1337594, 1338194, 1338795, 1339353, 1339905, 1340454, 1341015, 1341582, 1342129, 1342673, 1343227, 1343803, 1344339, 1344885, 1345433, 1346010, 1346548, 1347113, 1347654]",23,R,ITM,1.1,
4,600,trial,0,67,67,67,trial,"['C', 'C', 'C', 'C', 'C', 'C', 'C', 'C', 'C', 'C', 'C', 'C', 'C', 'C', 'C', 'C']","[1357650, 1358217, 1358798, 1359371, 1359929, 1360453, 1360996, 1361551, 1362084, 1362618, 1363130, 1363690, 1364219, 1364757, 1365286, 1365790]","[1357798, 1358352, 1358918, 1359491, 1360062, 1360584, 1361105, 1361658, 1362217, 1362721, 1363239, 1363803, 1364332, 1364834, 1365387, 1365907]","[1352971, 1353570, 1354170, 1354770, 1355370, 1355970, 1356570, 1357170, 1357676, 1358242, 1358824, 1359396, 1359954, 1360479, 1361021, 1361576, 1362110, 1362643, 1363155, 1363716, 1364245, 1364783, 1365312, 1365816]",23,R,ITM,1.1,
2,600,trial,0,68,68,68,trial,"['C', 'C', 'C', 'C', 'C', 'C', 'C', 'C', 'C', 'C', 'C', 'C', 'C', 'C', 'C', 'C']","[1376358, 1376963, 1377574, 1378136, 1378666, 1379240, 1379800, 1380317, 1380874, 1381409, 1381970, 1382550, 1383103, 1383648, 1384177, 1384735]","[1376510, 1377104, 1377713, 1378273, 1378817, 1379332, 1379891, 1380428, 1380969, 1381512, 1382087, 1382653, 1383200, 1383773, 1384289, 1384854]","[1371615, 1372215, 1372815, 1373415, 1374015, 1374615, 1375214, 1375814, 1376385, 1376991, 1377601, 1378163, 1378693, 1379267, 1379827, 1380344, 1380901, 1381437, 1381998, 1382577, 1383131, 1383675, 1384205, 1384763]",23,R,ITM,1.1,
5,400,trial,0,69,69,69,trial,"['C', 'C', 'C', 'C', 'C', 'C', 'C', 'C', 'C', 'C', 'C', 'C', 'C', 'C', 'C', 'C']","[1393707, 1394089, 1394480, 1394859, 1395251, 1395632, 1396026, 1396419, 1396808, 1397199, 1397575, 1397947, 1398344, 1398723, 1399106, 1399491]","[1393794, 1394178, 1394558, 1394944, 1395345, 1395734, 1396129, 1396516, 1396877, 1397286, 1397630, 1398025, 1398413, 1398808, 1399199, 1399597]","[1390541, 1390941, 1391341, 1391741, 1392141, 1392541, 1392942, 1393341, 1393732, 1394115, 1394505, 1394884, 1395276, 1395657, 1396051, 1396445, 1396834, 1397225, 1397602, 1397972, 1398370, 1398750, 1399132, 1399518]",23,R,ITM,1.1,
5,600,trial,0,70,70,70,trial,"['C', 'C', 'C', 'C', 'C', 'C', 'C', 'C', 'C', 'C', 'C', 'C', 'C', 'C', 'C', 'C']","[1410006, 1410596, 1411179, 1411733, 1412316, 1412830, 1413392, 1413944, 1414470, 1415014, 1415549, 1416086, 1416614, 1417159, 1417693, 1418196]","[1410151, 1410720, 1411299, 1411867, 1412418, 1412969, 1413493, 1414047, 1414601, 1415105, 1415661, 1416189, 1416706, 1417248, 1417801, 1418287]","[1405293, 1405892, 1406492, 1407092, 1407692, 1408292, 1408892, 1409492, 1410031, 1410622, 1411205, 1411759, 1412341, 1412855, 1413417, 1413969, 1414496, 1415040, 1415576, 1416112, 1416640, 1417185, 1417719, 1418222]",23,R,ITM,1.1,
6,600,trial,0,71,71,71,trial,"['C', 'C', 'C', 'C', 'C', 'C', 'C', 'C', 'C', 'C', 'C', 'C', 'C', 'C', 'C', 'C']","[1428543, 1429090, 1429649, 1430207, 1430767, 1431304, 1431835, 1432341, 1432867, 1433408, 1433948, 1434436, 1434983, 1435532, 1436060, 1436559]","[1428660, 1429183, 1429743, 1430306, 1430850, 1431384, 1431945, 1432417, 1432981, 1433509, 1434039, 1434560, 1435104, 1435670, 1436185, 1436669]","[1423825, 1424424, 1425025, 1425625, 1426225, 1426824, 1427424, 1428024, 1428570, 1429116, 1429676, 1430234, 1430795, 1431330, 1431863, 1432368, 1432894, 1433436, 1433974, 1434464, 1435010, 1435558, 1436088, 1436585]",23,R,ITM,1.1,
3,600,trial,0,72,72,72,trial,"['C', 'C', 'C', 'C', 'C', 'C', 'C', 'C', 'C', 'C', 'C', 'C', 'C', 'C', 'C', 'C']","[1446761, 1447344, 1447889, 1448452, 1449010, 1449546, 1450133, 1450682, 1451236, 1451786, 1452324, 1452866, 1453436, 1453980, 1454499, 1455012]","[1446930, 1447483, 1448009, 1448580, 1449120, 1449665, 1450226, 1450789, 1451329, 1451876, 1452401, 1452942, 1453529, 1454062, 1454601, 1455122]","[1442017, 1442617, 1443217, 1443817, 1444417, 1445017, 1445617, 1446217, 1446787, 1447369, 1447915, 1448477, 1449035, 1449572, 1450160, 1450707, 1451261, 1451811, 1452350, 1452892, 1453462, 1454006, 1454525, 1455038]",23,R,ITM,1.1,
3,400,trial,0,73,73,73,trial,"['C', 'C', 'C', 'C', 'C', 'C', 'C', 'C', 'C', 'C', 'C', 'C', 'C', 'C', 'C', 'C']","[1463658, 1464051, 1464424, 1464820, 1465188, 1465578, 1465940, 1466353, 1466744, 1467126, 1467513, 1467913, 1468284, 1468663, 1469035, 1469410]","[1463731, 1464129, 1464514, 1464913, 1465286, 1465686, 1466057, 1466452, 1466833, 1467216, 1467588, 1467967, 1468346, 1468732, 1469115, 1469491]","[1460486, 1460884, 1461284, 1461684, 1462084, 1462484, 1462884, 1463284, 1463684, 1464077, 1464450, 1464846, 1465213, 1465604, 1465966, 1466379, 1466770, 1467153, 1467539, 1467938, 1468310, 1468689, 1469061, 1469435]",23,R,ITM,1.1,
5,400,trial,0,74,74,74,trial,"['C', 'C', 'C', 'C', 'C', 'C', 'C', 'C', 'C', 'C', 'C', 'C', 'C', 'C', 'C', 'C']","[1478097, 1478474, 1478865, 1479243, 1479626, 1480013, 1480406, 1480813, 1481170, 1481551, 1481958, 1482313, 1482702, 1483067, 1483441, 1483823]","[1478160, 1478556, 1478938, 1479331, 1479727, 1480083, 1480491, 1480901, 1481280, 1481648, 1482029, 1482415, 1482792, 1483170, 1483509, 1483930]","[1474902, 1475301, 1475701, 1476102, 1476501, 1476901, 1477301, 1477701, 1478123, 1478500, 1478891, 1479269, 1479652, 1480039, 1480431, 1480839, 1481196, 1481577, 1481984, 1482339, 1482728, 1483094, 1483466, 1483848]",23,R,ITM,1.1,
4,600,trial,0,75,75,75,trial,"['S', 'C', 'C', 'C', 'C', 'C', 'C', 'C', 'C', 'C', 'C', 'C', 'C', 'C', 'C', 'C', 'C']","[1492245, 1494026, 1494609, 1495174, 1495704, 1496231, 1496773, 1497347, 1497885, 1498418, 1498946, 1499503, 1500018, 1500516, 1501032, 1501570, 1502060]","[1492265, 1494126, 1494708, 1495246, 1495783, 1496321, 1496860, 1497416, 1497952, 1498488, 1499035, 1499563, 1500091, 1500588, 1501119, 1501659, 1502138]","[1489325, 1489924, 1490524, 1491123, 1491723, 1492323, 1492923, 1493523, 1494052, 1494636, 1495199, 1495730, 1496257, 1496799, 1497372, 1497911, 1498443, 1498972, 1499530, 1500044, 1500542, 1501058, 1501595, 1502087]",23,R,ITM,1.1,
7,400,trial,0,76,76,76,trial,"['C', 'C', 'C', 'C', 'C', 'C', 'C', 'C', 'C', 'C', 'C', 'C', 'C', 'C', 'C', 'C']","[1510968, 1511366, 1511750, 1512118, 1512523, 1512952, 1513355, 1513742, 1514092, 1514482, 1514872, 1515258, 1515634, 1516003, 1516397, 1516761]","[1511050, 1511453, 1511826, 1512223, 1512632, 1513039, 1513445, 1513817, 1514183, 1514541, 1514956, 1515357, 1515731, 1516092, 1516516, 1516852]","[1507799, 1508197, 1508597, 1508998, 1509397, 1509797, 1510197, 1510597, 1510995, 1511393, 1511777, 1512145, 1512550, 1512979, 1513382, 1513768, 1514120, 1514509, 1514899, 1515286, 1515661, 1516029, 1516425, 1516787]",23,R,ITM,1.1,
2,400,trial,0,77,77,77,trial,"['C', 'C', 'C', 'C', 'C', 'C', 'C', 'C', 'C', 'C', 'C', 'C', 'C', 'C', 'C', 'C']","[1525749, 1526141, 1526504, 1526904, 1527281, 1527672, 1528033, 1528406, 1528768, 1529154, 1529527, 1529902, 1530273, 1530648, 1531025, 1531395]","[1525871, 1526244, 1526604, 1526998, 1527379, 1527791, 1528142, 1528473, 1528868, 1529248, 1529625, 1529973, 1530364, 1530761, 1531109, 1531476]","[1522578, 1522978, 1523378, 1523778, 1524177, 1524578, 1524978, 1525378, 1525777, 1526169, 1526532, 1526932, 1527309, 1527700, 1528059, 1528433, 1528796, 1529181, 1529554, 1529929, 1530301, 1530675, 1531052, 1531421]",23,R,ITM,1.1,
7,600,trial,0,78,78,78,trial,"['C', 'C', 'C', 'C', 'C', 'C', 'C', 'C', 'C', 'C', 'C', 'C', 'C', 'C', 'C', 'C']","[1541609, 1542157, 1542701, 1543247, 1543774, 1544315, 1544860, 1545409, 1545909, 1546411, 1546944, 1547460, 1548005, 1548544, 1549024, 1549536]","[1541731, 1542283, 1542833, 1543342, 1543877, 1544425, 1544977, 1545522, 1546025, 1546524, 1547048, 1547584, 1548116, 1548653, 1549162, 1549657]","[1536886, 1537485, 1538085, 1538685, 1539286, 1539886, 1540486, 1541086, 1541636, 1542183, 1542727, 1543275, 1543800, 1544343, 1544888, 1545436, 1545935, 1546437, 1546971, 1547487, 1548033, 1548570, 1549050, 1549563]",23,R,ITM,1.1,
4,400,trial,0,79,79,79,trial,"['C', 'C', 'C', 'C', 'C', 'C', 'C', 'C', 'C', 'C', 'C', 'C', 'C', 'C', 'C', 'C']","[1558446, 1558844, 1559225, 1559599, 1559979, 1560343, 1560719, 1561126, 1561502, 1561862, 1562212, 1562589, 1562973, 1563348, 1563741, 1564121]","[1558532, 1558929, 1559330, 1559703, 1560069, 1560456, 1560838, 1561230, 1561603, 1561973, 1562324, 1562692, 1563071, 1563465, 1563860, 1564235]","[1555290, 1555688, 1556088, 1556488, 1556888, 1557288, 1557688, 1558088, 1558471, 1558870, 1559250, 1559624, 1560005, 1560369, 1560744, 1561152, 1561528, 1561887, 1562237, 1562614, 1562998, 1563374, 1563767, 1564146]",23,R,ITM,1.1,
3,600,trial,0,80,80,80,trial,"['C', 'C', 'C', 'C', 'C', 'C', 'C', 'C', 'C', 'C', 'C', 'C', 'C', 'C', 'C', 'C']","[1574304, 1574852, 1575412, 1575943, 1576494, 1577028, 1577548, 1578061, 1578567, 1579085, 1579582, 1580109, 1580626, 1581105, 1581626, 1582149]","[1574432, 1574942, 1575502, 1576054, 1576590, 1577148, 1577671, 1578179, 1578711, 1579154, 1579721, 1580229, 1580760, 1581223, 1581748, 1582236]","[1569589, 1570188, 1570788, 1571388, 1571988, 1572588, 1573188, 1573788, 1574330, 1574878, 1575438, 1575968, 1576519, 1577054, 1577575, 1578087, 1578593, 1579111, 1579608, 1580135, 1580652, 1581130, 1581651, 1582175]",23,R,ITM,1.1,
2,400,trial,0,81,81,81,trial,"['C', 'C', 'C', 'C', 'C', 'C', 'C', 'C', 'C', 'C', 'C', 'C', 'C', 'C', 'C', 'C']","[1590989, 1591389, 1591758, 1592146, 1592524, 1592898, 1593263, 1593636, 1594029, 1594419, 1594793, 1595187, 1595573, 1595948, 1596331, 1596724]","[1591096, 1591483, 1591857, 1592236, 1592634, 1593003, 1593350, 1593737, 1594130, 1594525, 1594884, 1595243, 1595631, 1596011, 1596407, 1596786]","[1587808, 1588208, 1588608, 1589007, 1589408, 1589809, 1590208, 1590607, 1591016, 1591416, 1591786, 1592173, 1592552, 1592925, 1593290, 1593663, 1594056, 1594446, 1594819, 1595213, 1595599, 1595975, 1596358, 1596750]",23,R,ITM,1.1,
4,600,trial,0,82,82,82,trial,"['C', 'C', 'C', 'C', 'C', 'C', 'C', 'C', 'C', 'C', 'C', 'C', 'C', 'C', 'C', 'C']","[1607184, 1607717, 1608262, 1608856, 1609391, 1609907, 1610426, 1610943, 1611463, 1611979, 1612496, 1613011, 1613538, 1614042, 1614543, 1615034]","[1607266, 1607827, 1608385, 1608962, 1609491, 1610012, 1610551, 1611052, 1611520, 1612061, 1612599, 1613114, 1613644, 1614155, 1614617, 1615148]","[1602424, 1603024, 1603624, 1604225, 1604825, 1605425, 1606024, 1606624, 1607209, 1607743, 1608288, 1608883, 1609417, 1609932, 1610452, 1610970, 1611489, 1612005, 1612522, 1613037, 1613564, 1614067, 1614569, 1615059]",23,R,ITM,1.1,
5,400,trial,0,83,83,83,trial,"['C', 'C', 'C', 'C', 'C', 'C', 'C', 'C', 'C', 'C', 'C', 'C', 'C', 'C', 'C', 'C']","[1623857, 1624252, 1624662, 1625053, 1625428, 1625829, 1626207, 1626616, 1627009, 1627382, 1627749, 1628136, 1628523, 1628930, 1629326, 1629691]","[1623930, 1624348, 1624756, 1625138, 1625529, 1625922, 1626332, 1626696, 1627082, 1627453, 1627820, 1628213, 1628645, 1629048, 1629428, 1629794]","[1620678, 1621078, 1621477, 1621877, 1622278, 1622677, 1623077, 1623477, 1623883, 1624278, 1624687, 1625079, 1625453, 1625856, 1626232, 1626642, 1627034, 1627408, 1627774, 1628162, 1628550, 1628955, 1629351, 1629717]",23,R,ITM,1.1,
3,400,trial,0,84,84,84,trial,"['C', 'C', 'C', 'C', 'C', 'C', 'C', 'C', 'C', 'C', 'C', 'C', 'C', 'C', 'C', 'C']","[1638563, 1638973, 1639339, 1639743, 1640126, 1640502, 1640871, 1641277, 1641662, 1642019, 1642401, 1642797, 1643184, 1643575, 1643930, 1644299]","[1638671, 1639074, 1639425, 1639839, 1640196, 1640569, 1640939, 1641362, 1641755, 1642113, 1642496, 1642882, 1643260, 1643640, 1644001, 1644351]","[1635390, 1635789, 1636189, 1636589, 1636989, 1637389, 1637789, 1638190, 1638589, 1638999, 1639364, 1639769, 1640152, 1640527, 1640897, 1641303, 1641688, 1642045, 1642427, 1642822, 1643209, 1643600, 1643956, 1644324]",23,R,ITM,1.1,
7,400,trial,0,85,85,85,trial,"['C', 'C', 'C', 'C', 'C', 'C', 'C', 'C', 'C', 'C', 'C', 'C', 'C', 'C', 'C', 'C']","[1652970, 1653379, 1653769, 1654164, 1654546, 1654924, 1655319, 1655675, 1656046, 1656452, 1656853, 1657217, 1657607, 1657996, 1658405, 1658786]","[1653071, 1653474, 1653870, 1654245, 1654647, 1655037, 1655436, 1655788, 1656143, 1656550, 1656948, 1657316, 1657703, 1658098, 1658493, 1658885]","[1649796, 1650194, 1650594, 1650995, 1651395, 1651795, 1652195, 1652595, 1652998, 1653405, 1653796, 1654191, 1654573, 1654950, 1655346, 1655702, 1656073, 1656479, 1656880, 1657243, 1657633, 1658022, 1658432, 1658814]",23,R,ITM,1.1,
5,600,trial,0,86,86,86,trial,"['C', 'C', 'C', 'C', 'C', 'C', 'C', 'C', 'C', 'C', 'C', 'C', 'C', 'C', 'C', 'C']","[1668997, 1669526, 1670054, 1670568, 1671102, 1671584, 1672101, 1672585, 1673086, 1673613, 1674140, 1674650, 1675204, 1675696, 1676182, 1676650]","[1669148, 1669639, 1670147, 1670673, 1671192, 1671676, 1672181, 1672682, 1673179, 1673690, 1674225, 1674729, 1675262, 1675771, 1676255, 1676713]","[1664266, 1664865, 1665465, 1666065, 1666665, 1667265, 1667865, 1668465, 1669022, 1669552, 1670080, 1670594, 1671128, 1671611, 1672127, 1672610, 1673112, 1673638, 1674166, 1674676, 1675230, 1675722, 1676208, 1676676]",23,R,ITM,1.1,
2,400,trial,0,87,87,87,trial,"['C', 'C', 'C', 'C', 'C', 'C', 'C', 'C', 'C', 'C', 'C', 'C', 'C', 'C', 'C', 'C']","[1685568, 1685965, 1686361, 1686746, 1687107, 1687510, 1687910, 1688264, 1688647, 1689041, 1689440, 1689829, 1690195, 1690565, 1690969, 1691315]","[1685672, 1686049, 1686434, 1686812, 1687170, 1687576, 1687969, 1688332, 1688733, 1689116, 1689509, 1689916, 1690319, 1690654, 1691032, 1691406]","[1682415, 1682814, 1683215, 1683615, 1684015, 1684414, 1684815, 1685215, 1685595, 1685992, 1686387, 1686773, 1687134, 1687536, 1687938, 1688291, 1688675, 1689069, 1689466, 1689857, 1690223, 1690592, 1690996, 1691342]",23,R,ITM,1.1,
3,600,trial,0,88,88,88,trial,"['C', 'C', 'C', 'C', 'C', 'C', 'C', 'C', 'C', 'C', 'C', 'C', 'C', 'C', 'C', 'C']","[1701574, 1702140, 1702722, 1703259, 1703783, 1704318, 1704906, 1705433, 1705947, 1706473, 1707003, 1707510, 1708026, 1708545, 1709068, 1709600]","[1701751, 1702288, 1702880, 1703391, 1703941, 1704509, 1705113, 1705569, 1706129, 1706613, 1707188, 1707665, 1708187, 1708716, 1709219, 1709763]","[1696865, 1697465, 1698065, 1698665, 1699265, 1699865, 1700465, 1701065, 1701600, 1702166, 1702748, 1703284, 1703809, 1704344, 1704932, 1705458, 1705972, 1706499, 1707029, 1707536, 1708052, 1708570, 1709093, 1709626]",23,R,ITM,1.1,
4,600,trial,0,89,89,89,trial,"['C', 'C', 'C', 'C', 'C', 'C', 'C', 'C', 'C', 'C', 'C', 'C', 'C', 'C', 'C', 'C']","[1720192, 1720763, 1721336, 1721914, 1722492, 1723037, 1723603, 1724157, 1724719, 1725265, 1725829, 1726392, 1726955, 1727490, 1728029, 1728569]","[1720276, 1720900, 1721423, 1722016, 1722617, 1723180, 1723710, 1724286, 1724873, 1725402, 1725965, 1726558, 1727063, 1727597, 1728125, 1728693]","[1715398, 1715997, 1716597, 1717197, 1717797, 1718397, 1718998, 1719598, 1720217, 1720788, 1721362, 1721939, 1722518, 1723063, 1723629, 1724183, 1724744, 1725291, 1725854, 1726417, 1726981, 1727515, 1728055, 1728594]",23,R,ITM,1.1,
4,400,trial,0,90,90,90,trial,"['C', 'C', 'C', 'C', 'C', 'C', 'C', 'C', 'C', 'C', 'C', 'C', 'C', 'C', 'C', 'C']","[1737319, 1737703, 1738081, 1738469, 1738876, 1739254, 1739633, 1740024, 1740417, 1740791, 1741171, 1741554, 1741964, 1742340, 1742724, 1743143]","[1737404, 1737788, 1738163, 1738548, 1738970, 1739342, 1739730, 1740124, 1740518, 1740886, 1741260, 1741650, 1742044, 1742414, 1742806, 1743224]","[1734146, 1734545, 1734945, 1735346, 1735746, 1736146, 1736546, 1736946, 1737345, 1737729, 1738107, 1738494, 1738902, 1739280, 1739659, 1740050, 1740443, 1740817, 1741198, 1741580, 1741989, 1742365, 1742750, 1743169]",23,R,ITM,1.1,
2,600,trial,0,91,91,91,trial,"['C', 'C', 'C', 'C', 'C', 'C', 'C', 'C', 'C', 'C', 'C', 'C', 'C', 'C', 'C', 'C']","[1753451, 1754008, 1754549, 1755106, 1755662, 1756223, 1756780, 1757325, 1757885, 1758385, 1758907, 1759444, 1759966, 1760485, 1761026, 1761544]","[1753575, 1754103, 1754641, 1755196, 1755748, 1756266, 1756866, 1757398, 1757939, 1758491, 1759012, 1759543, 1760056, 1760582, 1761104, 1761630]","[1748668, 1749268, 1749868, 1750468, 1751067, 1751667, 1752267, 1752867, 1753479, 1754035, 1754576, 1755132, 1755688, 1756250, 1756808, 1757352, 1757912, 1758412, 1758935, 1759472, 1759993, 1760513, 1761053, 1761570]",23,R,ITM,1.1,
6,600,trial,0,92,92,92,trial,"['S', 'C', 'C', 'C', 'C', 'C', 'C', 'C', 'C', 'C', 'C', 'C', 'C', 'C', 'C', 'C', 'C']","[1771588, 1772333, 1772879, 1773430, 1773973, 1774500, 1775009, 1775545, 1776070, 1776572, 1777062, 1777601, 1778097, 1779123, 1779608, 1780092, 1780560]","[1771620, 1772504, 1773006, 1773523, 1774083, 1774599, 1775104, 1775631, 1776141, 1776599, 1777165, 1777679, 1778196, 1779278, 1779740, 1780173, 1780676]","[1767158, 1767757, 1768357, 1768957, 1769558, 1770158, 1770758, 1771358, 1772360, 1772906, 1773457, 1774000, 1774528, 1775036, 1775571, 1776097, 1776599, 1777089, 1777628, 1778124, 1779150, 1779635, 1780119, 1780587]",23,R,ITM,1.1,
3,400,trial,0,93,93,93,trial,"['C', 'C', 'C', 'C', 'C', 'C', 'C', 'C', 'C', 'C', 'C', 'C', 'C', 'C', 'C', 'C']","[1789316, 1789689, 1790071, 1790416, 1790807, 1791177, 1791555, 1791930, 1792299, 1792657, 1793037, 1793418, 1793777, 1794138, 1794485, 1794864]","[1789405, 1789783, 1790152, 1790486, 1790877, 1791253, 1791640, 1792021, 1792395, 1792748, 1793149, 1793518, 1793898, 1794250, 1794598, 1794971]","[1786153, 1786553, 1786953, 1787354, 1787753, 1788153, 1788553, 1788953, 1789341, 1789715, 1790097, 1790442, 1790832, 1791203, 1791581, 1791955, 1792324, 1792683, 1793062, 1793443, 1793803, 1794163, 1794510, 1794889]",23,R,ITM,1.1,
7,400,trial,0,94,94,94,trial,"['C', 'C', 'C', 'C', 'C', 'C', 'C', 'C', 'C', 'C', 'C', 'C', 'C', 'C', 'C', 'C']","[1803734, 1804122, 1804518, 1804907, 1805285, 1805686, 1806040, 1806426, 1806813, 1807190, 1807558, 1807936, 1808287, 1808678, 1809067, 1809445]","[1803843, 1804238, 1804610, 1804979, 1805373, 1805760, 1806138, 1806534, 1806906, 1807299, 1807680, 1808053, 1808397, 1808762, 1809154, 1809531]","[1800557, 1800956, 1801356, 1801756, 1802157, 1802556, 1802956, 1803357, 1803760, 1804149, 1804546, 1804934, 1805312, 1805713, 1806066, 1806452, 1806840, 1807217, 1807586, 1807964, 1808314, 1808705, 1809093, 1809472]",23,R,ITM,1.1,
6,400,trial,0,95,95,95,trial,"['C', 'C', 'C', 'C', 'C', 'C', 'C', 'C', 'C', 'C', 'C', 'C', 'C', 'C', 'C', 'C']","[1818080, 1818474, 1818845, 1819211, 1819574, 1819942, 1820338, 1820734, 1821076, 1821429, 1821812, 1822180, 1822566, 1822926, 1823294, 1823646]","[1818189, 1818584, 1818954, 1819312, 1819683, 1820046, 1820440, 1820826, 1821165, 1821505, 1821895, 1822268, 1822635, 1823008, 1823372, 1823748]","[1814934, 1815334, 1815734, 1816134, 1816535, 1816934, 1817334, 1817735, 1818106, 1818501, 1818871, 1819239, 1819601, 1819969, 1820364, 1820761, 1821104, 1821456, 1821840, 1822206, 1822593, 1822953, 1823322, 1823674]",23,R,ITM,1.1,
6,400,trial,0,96,96,96,trial,"['C', 'C', 'C', 'C', 'C', 'C', 'C', 'C', 'C', 'C', 'C', 'C', 'C', 'C', 'C', 'C']","[1832515, 1832927, 1833332, 1833744, 1834153, 1834519, 1834936, 1835330, 1835716, 1836106, 1836510, 1836901, 1837291, 1837683, 1838045, 1838443]","[1832603, 1833041, 1833448, 1833831, 1834232, 1834609, 1835024, 1835387, 1835786, 1836192, 1836602, 1836992, 1837381, 1837771, 1838121, 1838505]","[1829345, 1829744, 1830145, 1830544, 1830944, 1831345, 1831744, 1832144, 1832542, 1832954, 1833360, 1833771, 1834181, 1834547, 1834962, 1835358, 1835743, 1836134, 1836536, 1836928, 1837318, 1837710, 1838071, 1838470]",23,R,ITM,1.1,
5,400,trial,0,97,97,97,trial,"['C', 'C', 'C', 'C', 'C', 'C', 'C', 'C', 'C', 'C', 'C', 'C', 'C', 'C', 'C', 'C']","[1847165, 1847537, 1847942, 1848321, 1848719, 1849081, 1849461, 1849850, 1850231, 1850605, 1850982, 1851351, 1851720, 1852129, 1852493, 1852886]","[1847244, 1847630, 1848015, 1848403, 1848798, 1849181, 1849541, 1849925, 1850313, 1850727, 1851107, 1851487, 1851840, 1852237, 1852615, 1852958]","[1843968, 1844367, 1844767, 1845168, 1845567, 1845967, 1846367, 1846767, 1847191, 1847564, 1847967, 1848346, 1848744, 1849107, 1849487, 1849876, 1850257, 1850631, 1851008, 1851377, 1851746, 1852154, 1852519, 1852911]",23,R,ITM,1.1,
6,600,trial,0,98,98,98,trial,"['C', 'C', 'C', 'C', 'C', 'C', 'C', 'C', 'C', 'C', 'C', 'C', 'C', 'C', 'C', 'C']","[1863345, 1863884, 1864427, 1864967, 1865506, 1866067, 1866611, 1867152, 1867672, 1868206, 1868751, 1869260, 1869771, 1870271, 1870802, 1871309]","[1863428, 1863972, 1864516, 1865070, 1865604, 1866180, 1866749, 1867275, 1867811, 1868321, 1868858, 1869379, 1869881, 1870404, 1870920, 1871433]","[1858597, 1859197, 1859798, 1860398, 1860998, 1861598, 1862198, 1862798, 1863371, 1863911, 1864454, 1864993, 1865533, 1866094, 1866639, 1867179, 1867699, 1868233, 1868778, 1869287, 1869798, 1870298, 1870830, 1871336]",23,R,ITM,1.1,
5,600,trial,0,99,99,99,trial,"['C', 'C', 'C', 'C', 'C', 'C', 'C', 'C', 'C', 'C', 'C', 'C', 'C', 'C', 'C', 'C']","[1881618, 1882192, 1882754, 1883328, 1883888, 1884418, 1884964, 1885506, 1886008, 1886548, 1887092, 1887599, 1888112, 1888648, 1889184, 1889708]","[1881787, 1882317, 1882871, 1883436, 1883980, 1884519, 1885070, 1885600, 1886125, 1886665, 1887222, 1887724, 1888250, 1888769, 1889310, 1889805]","[1876860, 1877459, 1878060, 1878660, 1879260, 1879859, 1880459, 1881059, 1881645, 1882218, 1882779, 1883354, 1883914, 1884443, 1884990, 1885532, 1886033, 1886575, 1887119, 1887625, 1888138, 1888673, 1889210, 1889734]",23,R,ITM,1.1,
7,600,trial,0,100,100,100,trial,"['C', 'C', 'C', 'C', 'C', 'C', 'C', 'C', 'C', 'C', 'C', 'C', 'C', 'C', 'C', 'C']","[1900128, 1900723, 1901280, 1901838, 1902412, 1902952, 1903519, 1904073, 1904598, 1905148, 1905738, 1906263, 1906776, 1907305, 1907838, 1908359]","[1900276, 1900856, 1901401, 1901971, 1902517, 1903031, 1903622, 1904159, 1904688, 1905246, 1905824, 1906336, 1906876, 1907395, 1907918, 1908440]","[1895397, 1895996, 1896596, 1897196, 1897796, 1898396, 1898996, 1899596, 1900155, 1900749, 1901306, 1901864, 1902439, 1902980, 1903547, 1904100, 1904624, 1905176, 1905765, 1906289, 1906802, 1907333, 1907865, 1908386]",23,R,ITM,1.1,
2,600,trial,0,101,101,101,trial,"['C', 'C', 'C', 'C', 'C', 'C', 'C', 'C', 'C', 'C', 'C', 'C', 'C', 'C', 'C', 'C']","[1918473, 1919066, 1919649, 1920208, 1920719, 1921246, 1921779, 1922309, 1922854, 1923393, 1923926, 1924448, 1924985, 1925519, 1926031, 1926557]","[1918614, 1919186, 1919740, 1920311, 1920788, 1921308, 1921859, 1922365, 1922926, 1923441, 1924018, 1924514, 1925095, 1925596, 1926140, 1926662]","[1913787, 1914387, 1914987, 1915586, 1916187, 1916787, 1917387, 1917987, 1918500, 1919093, 1919677, 1920235, 1920747, 1921272, 1921806, 1922336, 1922882, 1923421, 1923953, 1924475, 1925012, 1925547, 1926057, 1926584]",23,R,ITM,1.1,
2,600,trial,0,102,102,102,trial,"['C', 'C', 'C', 'C', 'C', 'C', 'C', 'C', 'C', 'C', 'C', 'C', 'C', 'C', 'C', 'C']","[1936709, 1937295, 1937867, 1938424, 1938960, 1939516, 1940076, 1940621, 1941145, 1941682, 1942213, 1942763, 1943313, 1943842, 1944346, 1944834]","[1936836, 1937397, 1937929, 1938490, 1939047, 1939574, 1940141, 1940678, 1941226, 1941754, 1942290, 1942856, 1943401, 1943886, 1944401, 1944888]","[1931960, 1932560, 1933159, 1933760, 1934359, 1934959, 1935559, 1936160, 1936737, 1937323, 1937895, 1938451, 1938988, 1939543, 1940104, 1940648, 1941173, 1941709, 1942240, 1942791, 1943341, 1943869, 1944373, 1944861]",23,R,ITM,1.1,
4,600,trial,0,103,103,103,trial,"['C', 'C', 'C', 'C', 'C', 'C', 'C', 'C', 'C', 'C', 'C', 'C', 'C', 'C', 'C', 'C']","[1955055, 1955623, 1956170, 1956690, 1957233, 1957778, 1958315, 1958859, 1959387, 1959920, 1960448, 1960961, 1961481, 1962008, 1962536, 1963072]","[1955161, 1955727, 1956255, 1956775, 1957318, 1957847, 1958382, 1958956, 1959470, 1960026, 1960544, 1961052, 1961548, 1962108, 1962634, 1963155]","[1950299, 1950898, 1951498, 1952098, 1952698, 1953298, 1953898, 1954498, 1955081, 1955649, 1956196, 1956716, 1957259, 1957804, 1958340, 1958885, 1959413, 1959946, 1960473, 1960986, 1961506, 1962034, 1962562, 1963098]",23,R,ITM,1.1,
3,400,trial,0,104,104,104,trial,"['C', 'C', 'C', 'C', 'C', 'C', 'C', 'C', 'C', 'C', 'C', 'C', 'C', 'C', 'C', 'C']","[1971820, 1972206, 1972581, 1972955, 1973344, 1973704, 1974067, 1974435, 1974821, 1975194, 1975537, 1975878, 1976260, 1976629, 1976978, 1977341]","[1971905, 1972288, 1972660, 1973020, 1973412, 1973773, 1974142, 1974499, 1974889, 1975254, 1975629, 1975970, 1976316, 1976736, 1977109, 1977442]","[1968679, 1969079, 1969479, 1969880, 1970279, 1970679, 1971079, 1971479, 1971846, 1972232, 1972606, 1972981, 1973369, 1973730, 1974092, 1974461, 1974847, 1975220, 1975563, 1975904, 1976286, 1976654, 1977004, 1977367]",23,R,ITM,1.1,
4,400,trial,0,105,105,105,trial,"['C', 'C', 'C', 'C', 'C', 'C', 'C', 'C', 'C', 'C', 'C', 'C', 'C', 'C', 'C', 'C']","[1985943, 1986345, 1986706, 1987080, 1987473, 1987859, 1988234, 1988633, 1989016, 1989404, 1989786, 1990164, 1990518, 1990892, 1991267, 1991616]","[1986029, 1986445, 1986802, 1987152, 1987556, 1987938, 1988299, 1988711, 1989095, 1989468, 1989855, 1990234, 1990594, 1990957, 1991328, 1991694]","[1982770, 1983168, 1983568, 1983968, 1984368, 1984769, 1985168, 1985568, 1985969, 1986370, 1986733, 1987105, 1987500, 1987885, 1988259, 1988659, 1989042, 1989430, 1989812, 1990190, 1990544, 1990918, 1991292, 1991642]",23,R,ITM,1.1,
5,600,trial,0,106,106,106,trial,"['C', 'C', 'C', 'C', 'C', 'C', 'C', 'C', 'C', 'C', 'C', 'C', 'C', 'C', 'C', 'C']","[2002041, 2002604, 2003179, 2003753, 2004318, 2004850, 2005385, 2005939, 2006474, 2007031, 2007564, 2008098, 2008636, 2009174, 2009667, 2010188]","[2002168, 2002727, 2003292, 2003853, 2004392, 2004926, 2005448, 2006007, 2006543, 2007091, 2007634, 2008211, 2008719, 2009250, 2009743, 2010261]","[1997298, 1997898, 1998498, 1999098, 1999698, 2000299, 2000899, 2001499, 2002067, 2002629, 2003205, 2003779, 2004343, 2004876, 2005410, 2005964, 2006500, 2007058, 2007589, 2008124, 2008663, 2009199, 2009694, 2010214]",23,R,ITM,1.1,
3,400,trial,0,107,107,107,trial,"['C', 'C', 'C', 'C', 'C', 'C', 'C', 'C', 'C', 'C', 'C', 'C', 'C', 'C', 'C', 'C']","[2018955, 2019368, 2019762, 2020158, 2020546, 2020907, 2021292, 2021691, 2022078, 2022438, 2022839, 2023243, 2023642, 2024018, 2024390, 2024762]","[2019033, 2019442, 2019828, 2020209, 2020609, 2020984, 2021364, 2021780, 2022157, 2022516, 2022912, 2023296, 2023703, 2024069, 2024450, 2024814]","[2015774, 2016174, 2016573, 2016973, 2017373, 2017773, 2018173, 2018573, 2018980, 2019394, 2019787, 2020184, 2020572, 2020932, 2021317, 2021716, 2022104, 2022464, 2022864, 2023269, 2023667, 2024044, 2024416, 2024787]",23,R,ITM,1.1,
7,400,trial,0,108,108,108,trial,"['C', 'C', 'C', 'C', 'C', 'C', 'C', 'C', 'C', 'C', 'C', 'C', 'C', 'C', 'C', 'C']","[2033313, 2033721, 2034130, 2034520, 2034897, 2035263, 2035633, 2036035, 2036458, 2036839, 2037191, 2037567, 2037959, 2038323, 2038702, 2039087]","[2033413, 2033842, 2034247, 2034653, 2035014, 2035369, 2035740, 2036133, 2036545, 2036920, 2037268, 2037645, 2038052, 2038426, 2038796, 2039186]","[2030130, 2030528, 2030928, 2031328, 2031728, 2032129, 2032528, 2032928, 2033341, 2033748, 2034157, 2034546, 2034924, 2035291, 2035659, 2036063, 2036485, 2036866, 2037218, 2037595, 2037987, 2038349, 2038728, 2039114]",23,R,ITM,1.1,
5,400,trial,0,109,109,109,trial,"['C', 'C', 'C', 'C', 'C', 'C', 'C', 'C', 'C', 'C', 'C', 'C', 'C', 'C', 'C', 'C']","[2047923, 2048295, 2048671, 2049061, 2049452, 2049846, 2050198, 2050604, 2050972, 2051350, 2051717, 2052118, 2052504, 2052870, 2053217, 2053625]","[2048035, 2048401, 2048770, 2049145, 2049515, 2049910, 2050294, 2050678, 2051060, 2051453, 2051841, 2052233, 2052601, 2052978, 2053321, 2053712]","[2044765, 2045163, 2045563, 2045963, 2046363, 2046764, 2047163, 2047563, 2047948, 2048321, 2048697, 2049087, 2049477, 2049871, 2050224, 2050629, 2050998, 2051376, 2051743, 2052144, 2052531, 2052895, 2053242, 2053652]",23,R,ITM,1.1,
2,600,trial,0,110,110,110,trial,"['C', 'C', 'C', 'C', 'C', 'C', 'C', 'C', 'C', 'C', 'C', 'C', 'C', 'C', 'C', 'C']","[2063899, 2064427, 2064992, 2065565, 2066108, 2066642, 2067164, 2067699, 2068229, 2068731, 2069316, 2069856, 2070371, 2070864, 2071382, 2071919]","[2064016, 2064544, 2065085, 2065662, 2066241, 2066703, 2067253, 2067800, 2068342, 2068831, 2069393, 2069935, 2070469, 2070963, 2071503, 2072036]","[2059150, 2059750, 2060350, 2060949, 2061550, 2062150, 2062750, 2063350, 2063927, 2064454, 2065018, 2065593, 2066136, 2066669, 2067191, 2067727, 2068255, 2068759, 2069344, 2069883, 2070398, 2070891, 2071408, 2071947]",23,R,ITM,1.1,
7,600,trial,0,111,111,111,trial,"['C', 'C', 'C', 'C', 'C', 'C', 'C', 'C', 'C', 'C', 'C', 'C', 'C', 'C', 'C', 'C']","[2082025, 2082586, 2083154, 2083708, 2084254, 2084789, 2085334, 2086623, 2087176, 2087711, 2088253, 2088760, 2089268, 2089798, 2090306, 2090808]","[2082092, 2082654, 2083215, 2083760, 2084320, 2084835, 2085388, 2086709, 2087281, 2087838, 2088342, 2088872, 2089370, 2089900, 2090411, 2090897]","[2077260, 2077859, 2078459, 2079059, 2079660, 2080260, 2080860, 2081459, 2082052, 2082614, 2083181, 2083735, 2084282, 2084815, 2085360, 2086649, 2087202, 2087738, 2088280, 2088787, 2089294, 2089826, 2090333, 2090834]",23,R,ITM,1.1,
6,600,trial,0,112,112,112,trial,"['C', 'C', 'C', 'C', 'C', 'C', 'C', 'C', 'C', 'C', 'C', 'C', 'C', 'C', 'C', 'C']","[2101190, 2101765, 2102349, 2102944, 2103521, 2104075, 2104641, 2105204, 2105732, 2106260, 2106805, 2107356, 2107870, 2108364, 2108875, 2109390]","[2101287, 2101869, 2102471, 2103028, 2103598, 2104142, 2104722, 2105267, 2105814, 2106347, 2106913, 2107433, 2107954, 2108474, 2109008, 2109513]","[2096403, 2097003, 2097603, 2098203, 2098803, 2099403, 2100003, 2100603, 2101218, 2101791, 2102376, 2102971, 2103547, 2104102, 2104669, 2105231, 2105758, 2106287, 2106831, 2107382, 2107896, 2108392, 2108903, 2109417]",23,R,ITM,1.1,
3,600,trial,0,113,113,113,trial,"['C', 'C', 'C', 'C', 'C', 'C', 'C', 'C', 'C', 'C', 'C', 'C', 'C', 'C', 'C', 'C']","[2119493, 2120055, 2120637, 2121196, 2121771, 2122317, 2122882, 2123438, 2123981, 2124485, 2125029, 2125589, 2126138, 2126679, 2127149, 2127689]","[2119607, 2120186, 2120739, 2121303, 2121858, 2122428, 2122980, 2123558, 2124094, 2124609, 2125127, 2125712, 2126249, 2126822, 2127294, 2127841]","[2114712, 2115312, 2115912, 2116512, 2117112, 2117712, 2118312, 2118913, 2119519, 2120081, 2120663, 2121222, 2121796, 2122343, 2122907, 2123463, 2124007, 2124511, 2125054, 2125615, 2126163, 2126704, 2127174, 2127715]",23,R,ITM,1.1,
6,400,trial,0,114,114,114,trial,"['C', 'C', 'C', 'C', 'C', 'C', 'C', 'C', 'C', 'C', 'C', 'C', 'C', 'C', 'C', 'C']","[2136417, 2136858, 2137278, 2137665, 2138030, 2138407, 2138777, 2139163, 2139536, 2139904, 2140268, 2140656, 2141034, 2141411, 2141784, 2142168]","[2136508, 2136938, 2137356, 2137741, 2138110, 2138508, 2138860, 2139249, 2139619, 2139996, 2140367, 2140748, 2141126, 2141490, 2141865, 2142255]","[2133246, 2133645, 2134045, 2134446, 2134845, 2135245, 2135646, 2136046, 2136443, 2136885, 2137305, 2137693, 2138057, 2138435, 2138804, 2139190, 2139563, 2139930, 2140296, 2140683, 2141061, 2141437, 2141811, 2142194]",23,R,ITM,1.1,
5,400,trial,0,115,115,115,trial,"['C', 'C', 'C', 'C', 'C', 'C', 'C', 'C', 'C', 'C', 'C', 'C', 'C', 'C', 'C', 'C']","[2151081, 2151496, 2151891, 2152286, 2152641, 2153016, 2153378, 2153784, 2154173, 2154553, 2154945, 2155344, 2155708, 2156079, 2156434, 2156792]","[2151166, 2151584, 2151984, 2152365, 2152716, 2153071, 2153425, 2153837, 2154200, 2154636, 2155016, 2155412, 2155785, 2156144, 2156500, 2156857]","[2147894, 2148293, 2148694, 2149093, 2149493, 2149894, 2150293, 2150693, 2151107, 2151523, 2151918, 2152311, 2152667, 2153041, 2153404, 2153809, 2154200, 2154578, 2154971, 2155370, 2155734, 2156104, 2156461, 2156818]",23,R,ITM,1.1,
3,600,trial,0,116,116,116,trial,"['C', 'C', 'C', 'C', 'C', 'C', 'C', 'C', 'C', 'C', 'C', 'C', 'C', 'C', 'C', 'C']","[2166943, 2167495, 2168052, 2168616, 2169167, 2169677, 2170186, 2170702, 2171217, 2171749, 2172250, 2172770, 2173300, 2173825, 2174325, 2174801]","[2167047, 2167570, 2168125, 2168684, 2169262, 2169741, 2170259, 2170764, 2171319, 2171813, 2172315, 2172831, 2173381, 2173898, 2174425, 2174897]","[2162196, 2162795, 2163395, 2163995, 2164595, 2165195, 2165795, 2166395, 2166969, 2167521, 2168078, 2168642, 2169193, 2169703, 2170212, 2170728, 2171243, 2171774, 2172275, 2172795, 2173326, 2173850, 2174351, 2174827]",23,R,ITM,1.1,
4,400,trial,0,117,117,117,trial,"['C', 'C', 'C', 'C', 'C', 'C', 'C', 'C', 'C', 'C', 'C', 'C', 'C', 'C', 'C', 'C']","[2183624, 2184060, 2184450, 2184827, 2185218, 2185604, 2185995, 2186381, 2186778, 2187158, 2187560, 2187938, 2188319, 2188700, 2189065, 2189432]","[2183696, 2184123, 2184513, 2184901, 2185285, 2185673, 2186065, 2186447, 2186859, 2187233, 2187645, 2188012, 2188397, 2188785, 2189181, 2189520]","[2180449, 2180849, 2181250, 2181649, 2182049, 2182450, 2182850, 2183250, 2183651, 2184086, 2184475, 2184853, 2185243, 2185629, 2186020, 2186406, 2186804, 2187185, 2187586, 2187964, 2188345, 2188726, 2189090, 2189459]",23,R,ITM,1.1,
2,400,trial,0,118,118,118,trial,"['C', 'C', 'C', 'C', 'C', 'C', 'C', 'C', 'C', 'C', 'C', 'C', 'C', 'C', 'C', 'C']","[2198141, 2198547, 2198923, 2199312, 2199682, 2200065, 2200442, 2200813, 2201195, 2201600, 2201990, 2202352, 2202716, 2203070, 2203442, 2203812]","[2198219, 2198635, 2199001, 2199382, 2199751, 2200141, 2200528, 2200895, 2201284, 2201663, 2202057, 2202440, 2202817, 2203168, 2203540, 2203904]","[2194939, 2195339, 2195739, 2196139, 2196539, 2196938, 2197340, 2197739, 2198168, 2198574, 2198950, 2199340, 2199708, 2200092, 2200470, 2200840, 2201222, 2201627, 2202016, 2202380, 2202743, 2203098, 2203469, 2203840]",23,R,ITM,1.1,
6,400,trial,0,119,119,119,trial,"['C', 'C', 'C', 'C', 'C', 'C', 'C', 'C', 'C', 'C', 'C', 'C', 'C', 'C', 'C', 'C']","[2212484, 2212897, 2213280, 2213676, 2214031, 2214418, 2214816, 2215187, 2215562, 2215939, 2216348, 2216744, 2217111, 2217474, 2217825, 2218213]","[2212560, 2212976, 2213360, 2213763, 2214117, 2214493, 2214891, 2215263, 2215648, 2216030, 2216434, 2216833, 2217186, 2217549, 2217918, 2218300]","[2209353, 2209753, 2210152, 2210552, 2210952, 2211352, 2211752, 2212152, 2212511, 2212925, 2213308, 2213702, 2214059, 2214446, 2214844, 2215214, 2215588, 2215965, 2216375, 2216771, 2217139, 2217500, 2217851, 2218241]",23,R,ITM,1.1,
2,400,trial,0,120,120,120,trial,"['C', 'C', 'C', 'C', 'C', 'C', 'C', 'C', 'C', 'C', 'C', 'C', 'C', 'C', 'C', 'C']","[2226775, 2227189, 2227584, 2227982, 2228374, 2228731, 2229138, 2229560, 2229950, 2230345, 2230746, 2231098, 2231485, 2231895, 2232290, 2232651]","[2226869, 2227284, 2227680, 2228054, 2228451, 2228800, 2229227, 2229628, 2230020, 2230406, 2230818, 2231160, 2231556, 2231961, 2232370, 2232726]","[2223606, 2224006, 2224406, 2224805, 2225206, 2225605, 2226006, 2226406, 2226802, 2227217, 2227611, 2228009, 2228401, 2228759, 2229166, 2229587, 2229977, 2230373, 2230773, 2231124, 2231512, 2231922, 2232316, 2232678]",23,R,ITM,1.1,
5,600,trial,0,121,121,121,trial,"['C', 'C', 'C', 'C', 'C', 'C', 'C', 'C', 'C', 'C', 'C', 'C', 'C', 'C', 'C', 'C']","[2242808, 2243384, 2243950, 2244533, 2245076, 2245584, 2246103, 2246608, 2247146, 2247683, 2248212, 2248693, 2249193, 2249716, 2250214, 2250698]","[2242885, 2243451, 2244016, 2244597, 2245153, 2245652, 2246169, 2246668, 2247230, 2247780, 2248286, 2248779, 2249273, 2249799, 2250293, 2250774]","[2238080, 2238679, 2239279, 2239879, 2240479, 2241079, 2241679, 2242279, 2242834, 2243409, 2243976, 2244558, 2245103, 2245611, 2246128, 2246634, 2247172, 2247708, 2248238, 2248720, 2249219, 2249742, 2250241, 2250724]",23,R,ITM,1.1,
4,600,trial,0,122,122,122,trial,"['C', 'C', 'C', 'C', 'C', 'C', 'C', 'C', 'C', 'C', 'C', 'C', 'C', 'C', 'C', 'C']","[2260897, 2261453, 2262004, 2262562, 2263090, 2263600, 2264137, 2264681, 2265194, 2265730, 2266256, 2266790, 2267303, 2267808, 2268312, 2268835]","[2260982, 2261538, 2262092, 2262668, 2263183, 2263694, 2264194, 2264747, 2265279, 2265820, 2266337, 2266876, 2267367, 2267885, 2268367, 2268915]","[2256154, 2256753, 2257353, 2257953, 2258553, 2259153, 2259753, 2260354, 2260923, 2261479, 2262030, 2262588, 2263115, 2263625, 2264164, 2264707, 2265220, 2265755, 2266281, 2266816, 2267330, 2267834, 2268338, 2268861]",23,R,ITM,1.1,
7,600,trial,0,123,123,123,trial,"['C', 'C', 'C', 'C', 'C', 'C', 'C', 'C', 'C', 'C', 'C', 'C', 'C', 'C', 'C', 'C']","[2279240, 2279789, 2280357, 2280949, 2281504, 2282045, 2282583, 2283114, 2283655, 2284191, 2284717, 2285240, 2285778, 2286305, 2286840, 2287350]","[2279368, 2279911, 2280459, 2281053, 2281602, 2282129, 2282662, 2283187, 2283737, 2284283, 2284808, 2285343, 2285877, 2286406, 2286923, 2287439]","[2274462, 2275062, 2275662, 2276262, 2276862, 2277463, 2278063, 2278663, 2279268, 2279817, 2280384, 2280976, 2281531, 2282073, 2282610, 2283142, 2283682, 2284218, 2284743, 2285266, 2285806, 2286332, 2286867, 2287377]",23,R,ITM,1.1,
7,400,trial,0,124,124,124,trial,"['C', 'C', 'C', 'C', 'C', 'C', 'C', 'C', 'C', 'C', 'C', 'C', 'C', 'C', 'C', 'C']","[2296156, 2296556, 2296955, 2297366, 2297774, 2298177, 2298559, 2298945, 2299321, 2299700, 2300080, 2300482, 2300878, 2301261, 2301638, 2302014]","[2296225, 2296631, 2297031, 2297450, 2297854, 2298259, 2298639, 2299031, 2299421, 2299811, 2300204, 2300542, 2300955, 2301352, 2301734, 2302107]","[2292995, 2293393, 2293793, 2294194, 2294593, 2294993, 2295393, 2295793, 2296182, 2296583, 2296982, 2297394, 2297801, 2298204, 2298586, 2298972, 2299348, 2299727, 2300106, 2300510, 2300905, 2301289, 2301666, 2302041]",23,R,ITM,1.1,
6,600,trial,0,125,125,125,trial,"['C', 'C', 'C', 'C', 'C', 'C', 'C', 'C', 'C', 'C', 'C', 'C', 'C', 'C', 'C', 'C']","[2312146, 2312704, 2313261, 2313817, 2314379, 2314884, 2315441, 2315968, 2316477, 2317010, 2317587, 2318098, 2318601, 2319112, 2319635, 2320153]","[2312269, 2312794, 2313338, 2313895, 2314445, 2314955, 2315513, 2316061, 2316547, 2317103, 2317659, 2318167, 2318680, 2319198, 2319712, 2320239]","[2307404, 2308004, 2308604, 2309204, 2309805, 2310405, 2311005, 2311604, 2312173, 2312731, 2313287, 2313843, 2314405, 2314910, 2315467, 2315995, 2316504, 2317037, 2317614, 2318126, 2318627, 2319138, 2319663, 2320180]",23,R,ITM,1.1,
