octave,ioi,event,.thisRepN,.thisTrialN,.thisN,.thisIndex,event,tap_types,tap_times,release_times,tone_times,subject,handedness,experiment,version,
,,SPR,0,-1,-1,0,SPR,"['P', 'P', 'P', 'P', 'P', 'P', 'P', 'P', 'P', 'P', 'P', 'P', 'P', 'P', 'P', 'P', 'P', 'P', 'P', 'P', 'P', 'P', 'P', 'P', 'P', 'P', 'P', 'P', 'P', 'P']","[35800, 36638, 37338, 38184, 39069, 40002, 40984, 41892, 42878, 43923, 44795, 45785, 46733, 47687, 48688, 49666, 50599, 51682, 52731, 53681, 54745, 55665, 56696, 57656, 58571, 59518, 60859, 62146, 63361, 64567]","[35900, 36895, 37658, 38558, 39416, 40391, 41274, 42128, 42972, 44086, 44972, 46029, 46947, 47956, 49055, 49911, 50993, 51945, 53041, 54102, 55005, 55953, 57063, 57955, 58906, 60025, 61124, 62535, 63885, 65236]",,10,L,ITM,1.1,
4,500,practice,0,0,0,0,practice,"['S', 'S', 'S', 'S', 'S', 'S', 'S', 'C', 'C', 'C', 'C', 'C', 'C', 'C', 'C', 'C', 'C', 'C', 'C', 'C', 'C', 'C', 'C']","[124925, 125556, 126021, 126550, 127034, 127537, 128035, 128533, 129018, 129530, 130010, 130510, 130987, 131509, 131985, 132458, 132897, 133387, 133892, 134347, 134796, 135273, 135744]","[125146, 125716, 126224, 126718, 127192, 127723, 128231, 128664, 129208, 129675, 130177, 130635, 131175, 131693, 132116, 132630, 133134, 133568, 134016, 134548, 135011, 135452, 135938]","[124575, 125075, 125575, 126075, 126575, 127075, 127576, 128075, 128559, 129044, 129557, 130035, 130536, 131012, 131534, 132011, 132484, 132923, 133413, 133917, 134373, 134821, 135299, 135770]",10,L,ITM,1.1,
3,500,practice,0,1,1,1,practice,"['S', 'S', 'S', 'S', 'S', 'S', 'S', 'C', 'C', 'C', 'C', 'C', 'C', 'C', 'C', 'C', 'C', 'C', 'C', 'C', 'C', 'C', 'C', 'C']","[141686, 142125, 142638, 143179, 143660, 144161, 144668, 145179, 145647, 146062, 146414, 146695, 146975, 147223, 184082, 184494, 184902, 185298, 185700, 186071, 186514, 186886, 187271, 187692]","[141905, 142290, 142855, 143315, 143845, 144382, 144903, 145359, 145861, 146232, 146562, 146814, 147062, 147312, 184252, 184663, 185090, 185435, 185831, 186225, 186625, 187032, 187396, 187810]","[141216, 141716, 142216, 142716, 143216, 143716, 144217, 144716, 145205, 145673, 146087, 146440, 146720, 147001, 184108, 184519, 184928, 185324, 185725, 186096, 186540, 186911, 187296, 187717]",10,L,ITM,1.1,
2,500,practice,0,2,2,2,practice,"['S', 'S', 'S', 'S', 'S', 'S', 'S', 'C', 'C', 'C', 'C', 'C', 'C', 'C', 'C', 'C', 'C', 'C', 'C', 'C', 'C', 'C', 'C']","[193508, 194012, 194494, 194998, 195492, 196011, 196493, 197019, 197500, 197994, 198484, 198970, 199434, 199913, 200339, 200754, 201155, 201565, 201977, 202342, 202692, 203055, 203389]","[193650, 194139, 194631, 195169, 195677, 196169, 196683, 197177, 197654, 198156, 198632, 199146, 199617, 200066, 200482, 200887, 201271, 201721, 202095, 202506, 202806, 203179, 203545]","[193056, 193556, 194057, 194556, 195056, 195557, 196057, 196557, 197047, 197528, 198021, 198512, 198996, 199461, 199941, 200366, 200781, 201182, 201591, 202005, 202370, 202720, 203081, 203417]",10,L,ITM,1.1,
5,500,practice,0,3,3,3,practice,"['S', 'S', 'S', 'S', 'S', 'S', 'S', 'S', 'C', 'C', 'C', 'C', 'C', 'C', 'C', 'C', 'C', 'C', 'C', 'C', 'C', 'C', 'C', 'C', 'C', 'C', 'C', 'C', 'C']","[209167, 209545, 209859, 210321, 210835, 211294, 211798, 212346, 212837, 213296, 213683, 214043, 214339, 214637, 214912, 215180, 215472, 215728, 216098, 216394, 216659, 216888, 217148, 217469, 217697, 217911, 218141, 218668, 219010]","[209272, 209650, 210013, 210492, 211003, 211511, 212022, 212485, 212986, 213424, 213829, 214155, 214474, 214718, 214996, 215258, 215549, 215813, 216172, 216488, 216732, 216964, 217235, 217532, 217743, 217985, 218263, 218777, 219175]","[208890, 209389, 209889, 210390, 210889, 211389, 211890, 212390, 212864, 213322, 213708, 214069, 214365, 214664, 214937, 215205, 215497, 216124, 216420, 216914, 217495, 217936, 218694, 219035]",10,L,ITM,1.1,
6,500,practice,0,4,4,4,practice,"['S', 'S', 'S', 'S', 'S', 'S', 'S', 'C', 'C', 'C', 'C', 'C', 'C', 'C', 'C', 'C', 'C', 'C', 'C', 'C', 'C', 'C', 'C']","[225055, 225580, 226072, 226583, 227125, 227619, 228121, 228606, 229124, 229622, 230116, 230612, 231121, 231603, 232124, 232569, 233038, 233546, 234030, 234520, 235021, 235506, 236006]","[225256, 225764, 226269, 226833, 227303, 227814, 228299, 228795, 229314, 229817, 230286, 230806, 231288, 231774, 232291, 232767, 233207, 233674, 234180, 234716, 235196, 235678, 236192]","[224635, 225134, 225634, 226135, 226634, 227134, 227635, 228135, 228634, 229150, 229649, 230142, 230640, 231148, 231629, 232151, 232596, 233065, 233573, 234056, 234548, 235047, 235534, 236034]",10,L,ITM,1.1,
7,500,practice,0,5,5,5,practice,"['S', 'S', 'S', 'S', 'S', 'S', 'S', 'C', 'C', 'C', 'C', 'C', 'C', 'C', 'C', 'C', 'C', 'C', 'C', 'C', 'C', 'C', 'C']","[241796, 242302, 242813, 243341, 243860, 244393, 244872, 245381, 245880, 246375, 246858, 247376, 247887, 248334, 248873, 249376, 249872, 250365, 250853, 251421, 251878, 252383, 252889]","[241942, 242430, 242984, 243555, 244040, 244552, 245032, 245516, 246037, 246521, 247055, 247532, 248013, 248528, 249007, 249522, 250010, 250507, 250996, 251531, 252054, 252536, 253045]","[241416, 241914, 242414, 242914, 243415, 243914, 244414, 244915, 245407, 245907, 246402, 246886, 247404, 247915, 248360, 248901, 249403, 249900, 250393, 250880, 251448, 251906, 252410, 252915]",10,L,ITM,1.1,
2,600,trial,0,6,6,6,trial,"['S', 'S', 'S', 'S', 'S', 'S', 'S', 'C', 'C', 'C', 'C', 'C', 'C', 'C', 'C', 'C', 'C', 'C', 'C', 'C', 'C', 'C', 'C']","[308523, 309149, 309783, 310400, 311052, 311652, 312262, 312898, 313472, 314092, 314694, 315332, 315877, 316464, 317078, 317710, 318312, 318883, 319505, 320138, 320806, 321394, 322016]","[308699, 309365, 309990, 310643, 311284, 311878, 312485, 313138, 313728, 314331, 314880, 315492, 316067, 316651, 317319, 317908, 318507, 319106, 319745, 320280, 320936, 321628, 322246]","[308115, 308715, 309314, 309915, 310514, 311115, 311715, 312314, 312926, 313499, 314120, 314722, 315359, 315905, 316491, 317106, 317736, 318339, 318911, 319533, 320165, 320833, 321422, 322042]",10,L,ITM,1.1,
7,600,trial,0,7,7,7,trial,"['S', 'S', 'S', 'S', 'S', 'S', 'S', 'C', 'C', 'C', 'C', 'C', 'C', 'C', 'C', 'C', 'C', 'C', 'C', 'C', 'C', 'C', 'C']","[328252, 328867, 329483, 330158, 330746, 331397, 331981, 332607, 333150, 333714, 334301, 334849, 335442, 336040, 336576, 337179, 337769, 338354, 338954, 339539, 340098, 340695, 341270]","[328410, 329081, 329752, 330383, 330995, 331641, 332240, 332823, 333392, 333952, 334515, 335078, 335703, 336231, 336846, 337421, 338007, 338609, 339205, 339723, 340312, 340954, 341507]","[327796, 328395, 328995, 329595, 330195, 330796, 331396, 331996, 332634, 333176, 333742, 334327, 334875, 335470, 336067, 336603, 337207, 337797, 338380, 338981, 339566, 340124, 340721, 341297]",10,L,ITM,1.1,
3,600,trial,0,8,8,8,trial,"['S', 'S', 'S', 'S', 'S', 'S', 'S', 'C', 'C', 'C', 'C', 'C', 'C', 'C', 'C', 'C', 'C', 'C', 'C', 'C', 'C', 'C', 'C']","[347458, 348017, 348649, 349352, 349918, 350537, 351121, 351699, 352342, 352912, 353539, 354127, 354775, 355349, 355940, 356526, 357127, 357689, 358294, 358894, 359477, 360128, 360744]","[347611, 348238, 348935, 349595, 350187, 350741, 351332, 352023, 352559, 353157, 353733, 354356, 354963, 355557, 356125, 356754, 357310, 357936, 358530, 359134, 359793, 360369, 360961]","[346952, 347551, 348151, 348751, 349351, 349952, 350552, 351152, 351725, 352367, 352937, 353564, 354153, 354800, 355375, 355965, 356551, 357152, 357714, 358320, 358920, 359502, 360154, 360770]",10,L,ITM,1.1,
5,400,trial,0,9,9,9,trial,"['S', 'S', 'S', 'S', 'S', 'S', 'C', 'C', 'C', 'C', 'C', 'C', 'C', 'C', 'C', 'C', 'C', 'C', 'C', 'C', 'C', 'C']","[366888, 367433, 367843, 368260, 368718, 369076, 369496, 369828, 370237, 370592, 371017, 371378, 371810, 372163, 372529, 373026, 373388, 373795, 374193, 374591, 374949, 375356]","[367045, 367545, 367993, 368380, 368852, 369207, 369635, 369943, 370368, 370728, 371145, 371507, 371922, 372333, 372711, 373140, 373554, 373918, 374308, 374728, 375132, 375502]","[366394, 366793, 367194, 367593, 367993, 368393, 368793, 369193, 369521, 369854, 370263, 370619, 371043, 371403, 371835, 372189, 372554, 373052, 373413, 373822, 374219, 374617, 374975, 375382]",10,L,ITM,1.1,
2,400,trial,0,10,10,10,trial,"['S', 'S', 'S', 'S', 'S', 'S', 'C', 'C', 'C', 'C', 'C', 'C', 'C', 'C', 'C', 'C', 'C', 'C', 'C', 'C', 'C', 'C']","[381422, 381856, 382225, 382651, 383021, 383455, 383843, 384273, 384663, 385054, 385459, 385835, 386309, 386681, 387049, 387424, 387904, 388235, 388656, 389042, 389392, 389816]","[381591, 381997, 382380, 382815, 383193, 383612, 383988, 384410, 384793, 385206, 385622, 385995, 386413, 386831, 387205, 387595, 387995, 388361, 388765, 389160, 389525, 389925]","[380720, 381119, 381519, 381919, 382319, 382718, 383119, 383519, 383869, 384301, 384690, 385081, 385485, 385862, 386335, 386708, 387076, 387450, 387931, 388262, 388682, 389069, 389419, 389842]",10,L,ITM,1.1,
6,600,trial,0,11,11,11,trial,"['S', 'S', 'S', 'S', 'S', 'S', 'S', 'C', 'C', 'C', 'C', 'C', 'C', 'C', 'C', 'C', 'C', 'C', 'C', 'C', 'C', 'C', 'C']","[395924, 396471, 397088, 397782, 398366, 399038, 399608, 400264, 400796, 401382, 401986, 402535, 403101, 403698, 404255, 404836, 405398, 405974, 406554, 407090, 407705, 408301, 408903]","[396067, 396660, 397298, 397973, 398560, 399232, 399753, 400372, 400971, 401519, 402120, 402712, 403310, 403906, 404489, 405101, 405669, 406201, 406785, 407396, 407996, 408558, 409103]","[395498, 396098, 396698, 397298, 397898, 398498, 399098, 399698, 400290, 400823, 401409, 402014, 402562, 403128, 403725, 404283, 404862, 405426, 406000, 406581, 407117, 407732, 408328, 408931]",10,L,ITM,1.1,
6,400,trial,0,12,12,12,trial,"['S', 'S', 'S', 'S', 'S', 'S', 'S', 'C', 'C', 'C', 'C', 'C', 'C', 'C', 'C', 'C', 'C', 'C', 'C', 'C', 'C', 'C', 'C']","[414865, 415236, 415640, 416006, 416399, 416763, 417209, 417644, 418050, 418480, 418933, 419320, 419702, 420168, 420626, 421037, 421491, 421904, 422328, 422768, 423166, 423593, 423993]","[415042, 415406, 415767, 416164, 416534, 416902, 417367, 417776, 418194, 418606, 419035, 419482, 419865, 420270, 420759, 421195, 421594, 422071, 422498, 422900, 423311, 423782, 424166]","[414449, 414850, 415249, 415649, 416050, 416449, 416849, 417249, 417671, 418076, 418506, 418960, 419347, 419729, 420195, 420653, 421063, 421519, 421931, 422354, 422795, 423193, 423620, 424020]",10,L,ITM,1.1,
6,400,trial,0,13,13,13,trial,"['S', 'S', 'S', 'S', 'S', 'S', 'S', 'C', 'C', 'C', 'C', 'C', 'C', 'C', 'C', 'C', 'C', 'C', 'C', 'C', 'C', 'C', 'C']","[429719, 430115, 430512, 430962, 431453, 431809, 432143, 432594, 432957, 433414, 433843, 434259, 434636, 435055, 435415, 435858, 436331, 436783, 437157, 437560, 437990, 438371, 438740]","[429862, 430275, 430687, 431129, 431591, 431927, 432318, 432690, 433124, 433586, 433973, 434392, 434757, 435181, 435574, 436024, 436477, 436910, 437344, 437729, 438119, 438545, 438943]","[429402, 429800, 430200, 430600, 431000, 431400, 431800, 432200, 432621, 432985, 433441, 433869, 434286, 434664, 435082, 435441, 435886, 436359, 436810, 437184, 437587, 438017, 438397, 438766]",10,L,ITM,1.1,
5,600,trial,0,14,14,14,trial,"['S', 'S', 'S', 'S', 'S', 'S', 'S', 'C', 'C', 'C', 'C', 'C', 'C', 'C', 'C', 'C', 'C', 'C', 'C', 'C', 'C', 'C', 'C']","[444841, 445522, 446098, 446676, 447314, 447944, 448566, 449207, 449782, 450382, 450979, 451574, 452132, 452703, 453292, 453835, 454513, 455112, 455645, 456188, 456803, 457418, 457975]","[445001, 445703, 446304, 446919, 447559, 448214, 448788, 449448, 450068, 450626, 451201, 451788, 452372, 452917, 453527, 454131, 454727, 455324, 455842, 456426, 456992, 457574, 458213]","[444520, 445119, 445719, 446319, 446919, 447519, 448119, 448719, 449233, 449808, 450409, 451006, 451600, 452158, 452728, 453317, 453861, 454539, 455138, 455671, 456214, 456828, 457445, 458001]",10,L,ITM,1.1,
3,400,trial,0,15,15,15,trial,"['S', 'S', 'S', 'S', 'S', 'S', 'C', 'C', 'C', 'C', 'C', 'C', 'C', 'C', 'C', 'C', 'C', 'C', 'C', 'C', 'C', 'C']","[464174, 464742, 465172, 465591, 465980, 466404, 466822, 467271, 467687, 468059, 468508, 468980, 469371, 469744, 470142, 470539, 470971, 471364, 471740, 472162, 472566, 472993]","[464333, 464890, 465312, 465745, 466153, 466522, 466949, 467358, 467795, 468186, 468628, 469083, 469484, 469858, 470266, 470683, 471128, 471490, 471889, 472304, 472677, 473117]","[463722, 464121, 464521, 464921, 465321, 465721, 466121, 466522, 466847, 467297, 467713, 468084, 468534, 469006, 469397, 469770, 470168, 470564, 470996, 471390, 471766, 472187, 472592, 473019]",10,L,ITM,1.1,
3,400,trial,0,16,16,16,trial,"['S', 'S', 'S', 'S', 'S', 'S', 'S', 'C', 'C', 'C', 'C', 'C', 'C', 'C', 'C', 'C', 'C', 'C', 'C', 'C', 'C', 'C', 'C']","[478979, 479410, 479775, 480222, 480615, 481035, 481437, 481855, 482235, 482631, 483032, 483420, 483873, 484249, 484710, 485092, 485515, 485925, 486348, 486719, 487150, 487591, 487946]","[479091, 479533, 479912, 480328, 480776, 481187, 481562, 481999, 482399, 482779, 483176, 483594, 484001, 484424, 484845, 485261, 485662, 486073, 486451, 486888, 487351, 487758]","[478647, 479046, 479447, 479846, 480246, 480647, 481047, 481447, 481881, 482260, 482657, 483057, 483445, 483899, 484275, 484736, 485117, 485540, 485951, 486374, 486745, 487176, 487617, 487971]",10,L,ITM,1.1,
4,400,trial,0,17,17,17,trial,"['S', 'S', 'S', 'S', 'S', 'S', 'S', 'C', 'C', 'C', 'C', 'C', 'C', 'C', 'C', 'C', 'C', 'C', 'C', 'C', 'C', 'C', 'C']","[493884, 494276, 494685, 495105, 495497, 495869, 496263, 496646, 497051, 497468, 497857, 498259, 498686, 499073, 499537, 499915, 500293, 500676, 501117, 501539, 501955, 502349, 502809]","[494057, 494398, 494778, 495241, 495620, 496026, 496407, 496753, 497207, 497612, 498006, 498417, 498798, 499216, 499640, 500035, 500429, 500846, 501309, 501699, 502086, 502490, 502970]","[493539, 493938, 494339, 494738, 495138, 495538, 495938, 496338, 496671, 497078, 497494, 497883, 498285, 498712, 499098, 499564, 499942, 500319, 500702, 501143, 501565, 501981, 502376, 502836]",10,L,ITM,1.1,
7,400,trial,0,18,18,18,trial,"['S', 'S', 'S', 'S', 'S', 'S', 'S', 'C', 'C', 'C', 'C', 'C', 'C', 'C', 'C', 'C', 'C', 'C', 'C', 'C', 'C', 'C', 'C']","[513687, 514039, 514397, 514779, 515181, 515615, 516050, 516482, 516861, 517300, 517669, 518086, 518456, 518851, 519270, 519680, 520088, 520498, 520890, 521300, 521703, 522102, 522522]","[513815, 514163, 514528, 514915, 515338, 515749, 516184, 516600, 517019, 517426, 517820, 518234, 518582, 518981, 519357, 519849, 520181, 520606, 520980, 521414, 521812, 522231, 522676]","[513285, 513683, 514083, 514483, 514883, 515283, 515683, 516083, 516509, 516889, 517326, 517696, 518113, 518482, 518878, 519297, 519706, 520115, 520524, 520918, 521327, 521731, 522130, 522549]",10,L,ITM,1.1,
5,400,trial,0,19,19,19,trial,"['S', 'S', 'S', 'S', 'S', 'S', 'S', 'C', 'C', 'C', 'C', 'C', 'C', 'C', 'C', 'C', 'C', 'C', 'C', 'C', 'C', 'C', 'C']","[528501, 528884, 529287, 529665, 530102, 530539, 530982, 531411, 531819, 532200, 532602, 533007, 533416, 533807, 534220, 534654, 535040, 535465, 535885, 536285, 536662, 537076, 537484]","[528633, 528995, 529403, 529824, 530256, 530670, 531115, 531531, 531951, 532335, 532715, 533123, 533545, 533910, 534345, 534763, 535159, 535571, 535993, 536433, 536799, 537184, 537612]","[528163, 528562, 528962, 529362, 529762, 530162, 530563, 530962, 531437, 531845, 532227, 532628, 533032, 533442, 533832, 534246, 534680, 535066, 535491, 535911, 536311, 536687, 537102, 537509]",10,L,ITM,1.1,
5,600,trial,0,20,20,20,trial,"['S', 'S', 'S', 'S', 'S', 'S', 'S', 'C', 'C', 'C', 'C', 'C', 'C', 'C', 'C', 'C', 'C', 'C', 'C', 'C', 'C', 'C', 'C']","[543217, 543953, 544555, 545189, 545775, 546418, 547049, 547641, 548200, 548817, 549388, 549996, 550579, 551161, 551753, 552359, 552951, 553522, 554095, 554688, 555287, 555825, 556496]","[543344, 544067, 544719, 545421, 546060, 546678, 547265, 547866, 548370, 549016, 549655, 550236, 550827, 551400, 551955, 552572, 553183, 553765, 554345, 554901, 555512, 556145, 556735]","[542892, 543491, 544091, 544690, 545290, 545890, 546490, 547090, 547666, 548226, 548844, 549414, 550023, 550604, 551187, 551779, 552385, 552977, 553547, 554121, 554714, 555314, 555850, 556523]",10,L,ITM,1.1,
2,600,trial,0,21,21,21,trial,"['S', 'S', 'S', 'S', 'S', 'S', 'S', 'C', 'C', 'C', 'C', 'C', 'C', 'C', 'C', 'C', 'C', 'C', 'C', 'C', 'C', 'C', 'C']","[562710, 563301, 563956, 564608, 565186, 565762, 566467, 566998, 567562, 568103, 568712, 569267, 569856, 570427, 570939, 571545, 572081, 572650, 573170, 573704, 574284, 574834, 575410]","[562879, 563565, 564197, 564835, 565391, 566019, 566585, 567216, 567802, 568384, 568922, 569522, 570007, 570563, 571046, 571646, 572188, 572752, 573340, 573929, 574503, 575041, 575639]","[562279, 562878, 563479, 564079, 564679, 565279, 565878, 566479, 567024, 567588, 568131, 568738, 569293, 569882, 570455, 570967, 571572, 572108, 572677, 573198, 573731, 574311, 574861, 575437]",10,L,ITM,1.1,
4,600,trial,0,22,22,22,trial,"['S', 'S', 'S', 'S', 'S', 'S', 'S', 'C', 'C', 'C', 'C', 'C', 'C', 'C', 'C', 'C', 'C', 'C', 'C', 'C', 'C', 'C', 'C']","[581604, 582263, 582818, 583481, 584107, 584639, 585259, 585875, 586479, 587005, 587596, 588153, 588794, 589359, 589936, 590485, 591053, 591620, 592244, 592841, 593404, 594032, 594561]","[581790, 582410, 583047, 583648, 584244, 584806, 585417, 586015, 586587, 587201, 587755, 588384, 588974, 589543, 590088, 590660, 591179, 591837, 592400, 593002, 593566, 594149, 594828]","[581164, 581763, 582363, 582962, 583562, 584162, 584762, 585362, 585901, 586505, 587031, 587622, 588179, 588820, 589384, 589962, 590511, 591079, 591645, 592270, 592867, 593430, 594059, 594586]",10,L,ITM,1.1,
3,600,trial,0,23,23,23,trial,"['S', 'S', 'S', 'S', 'S', 'S', 'S', 'C', 'C', 'C', 'C', 'C', 'C', 'C', 'C', 'C', 'C', 'C', 'C', 'C', 'C', 'C', 'C']","[600427, 600969, 601530, 602065, 602680, 603225, 603928, 604539, 605300, 606160, 606674, 607178, 607666, 608197, 608766, 609301, 609838, 610365, 610956, 611483, 612052, 612630, 613120]","[600605, 601113, 601667, 602294, 602872, 603418, 604111, 604711, 605471, 606271, 606892, 607352, 607864, 608359, 608933, 609479, 610020, 610578, 611115, 611689, 612213, 612785, 613381]","[599969, 600569, 601169, 601769, 602370, 602970, 603570, 604170, 604565, 605326, 606186, 606700, 607204, 607691, 608223, 608791, 609327, 609863, 610391, 610981, 611509, 612078, 612656, 613145]",10,L,ITM,1.1,
7,600,trial,0,24,24,24,trial,"['S', 'S', 'S', 'S', 'S', 'S', 'S', 'C', 'C', 'C', 'C', 'C', 'C', 'C', 'C', 'C', 'C', 'C', 'C', 'C', 'C', 'C', 'C']","[618971, 619789, 620395, 621065, 621666, 622226, 622850, 623485, 624132, 624784, 625471, 626091, 626644, 627236, 627868, 628460, 629082, 629701, 630341, 630968, 631596, 632219, 632837]","[619158, 619970, 620597, 621262, 621826, 622435, 623038, 623676, 624294, 624922, 625522, 626211, 626766, 627407, 628044, 628662, 629339, 629942, 630557, 631190, 631812, 632424, 633047]","[618692, 619291, 619891, 620491, 621091, 621691, 622291, 622892, 623512, 624159, 624811, 625498, 626118, 626672, 627263, 627895, 628487, 629109, 629729, 630368, 630994, 631623, 632247, 632864]",10,L,ITM,1.1,
7,400,trial,0,25,25,25,trial,"['S', 'S', 'S', 'S', 'S', 'S', 'C', 'C', 'C', 'C', 'C', 'C', 'C', 'C', 'C', 'C', 'C', 'C', 'C', 'C', 'C', 'C']","[638803, 639339, 639785, 640183, 640616, 641022, 641444, 641872, 642240, 642637, 643022, 643462, 643836, 644222, 644627, 644993, 645397, 645807, 646208, 646585, 646999, 647391]","[638924, 639448, 639883, 640303, 640716, 641132, 641584, 641956, 642338, 642732, 643119, 643516, 643972, 644353, 644719, 645114, 645498, 645900, 646306, 646694, 647098, 647486]","[638298, 638696, 639096, 639496, 639896, 640296, 640696, 641096, 641472, 641900, 642267, 642664, 643050, 643488, 643864, 644249, 644654, 645020, 645424, 645834, 646235, 646611, 647025, 647417]",10,L,ITM,1.1,
4,600,trial,0,26,26,26,trial,"['S', 'S', 'S', 'S', 'S', 'S', 'S', 'C', 'C', 'C', 'C', 'C', 'C', 'C', 'C', 'C', 'C', 'C', 'C', 'C', 'C', 'C', 'C']","[653357, 653995, 654618, 655226, 655894, 656553, 657152, 657768, 658407, 659024, 659613, 660187, 660771, 661358, 661919, 662507, 663084, 663676, 664227, 664765, 665344, 665949, 666553]","[653483, 654155, 654824, 655426, 656078, 656730, 657353, 657966, 658677, 659254, 659823, 660399, 660985, 661522, 662069, 662716, 663273, 663865, 664359, 664982, 665494, 666064, 666754]","[653025, 653624, 654224, 654824, 655424, 656024, 656624, 657224, 657794, 658433, 659050, 659639, 660212, 660797, 661384, 661945, 662533, 663110, 663702, 664253, 664791, 665369, 665974, 666578]",10,L,ITM,1.1,
2,400,trial,0,27,27,27,trial,"['S', 'S', 'S', 'S', 'S', 'S', 'S', 'C', 'C', 'C', 'C', 'C', 'C', 'C', 'C', 'C', 'C', 'C', 'C', 'C', 'C', 'C', 'C']","[672709, 673133, 673451, 673872, 674285, 674688, 675092, 675496, 675891, 676290, 676690, 677083, 677515, 677901, 678296, 678709, 679063, 679527, 679910, 680300, 680701, 681106, 681493]","[672846, 673250, 673572, 673993, 674379, 674822, 675214, 675578, 676015, 676411, 676832, 677210, 677645, 678028, 678371, 678827, 679211, 679616, 680024, 680435, 680815, 681217, 681623]","[672285, 672686, 673085, 673485, 673885, 674285, 674684, 675085, 675523, 675918, 676318, 676717, 677110, 677542, 677928, 678324, 678736, 679091, 679554, 679938, 680327, 680728, 681133, 681521]",10,L,ITM,1.1,
4,400,trial,0,28,28,28,trial,"['S', 'S', 'S', 'S', 'S', 'S', 'S', 'C', 'C', 'C', 'C', 'C', 'C', 'C', 'C', 'C', 'C', 'C', 'C', 'C', 'C', 'C', 'C']","[687656, 687981, 688367, 688812, 689240, 689630, 690015, 690402, 690793, 691191, 691580, 691993, 692363, 692758, 693140, 693541, 693934, 694305, 694740, 695115, 695521, 695905, 696306]","[687765, 688093, 688538, 688970, 689374, 689755, 690130, 690534, 690896, 691374, 691723, 692129, 692517, 692920, 693274, 693700, 694053, 694432, 694892, 695214, 695634, 696048, 696421]","[687252, 687652, 688052, 688452, 688852, 689252, 689652, 690053, 690427, 690819, 691217, 691606, 692020, 692388, 692785, 693166, 693567, 693959, 694331, 694766, 695141, 695546, 695930, 696333]",10,L,ITM,1.1,
6,600,trial,0,29,29,29,trial,"['S', 'S', 'S', 'S', 'S', 'S', 'S', 'C', 'C', 'C', 'C', 'C', 'C', 'C', 'C', 'C', 'C', 'C', 'C', 'C', 'C', 'C', 'C']","[702000, 702705, 703321, 703985, 704634, 705198, 705807, 706405, 707038, 707619, 708284, 708899, 709603, 710180, 710718, 711314, 711883, 712446, 713060, 713608, 714263, 714892, 715504]","[702106, 702854, 703595, 704185, 704823, 705400, 706012, 706683, 707290, 707870, 708513, 709057, 709716, 710361, 710953, 711612, 712201, 712721, 713371, 714019, 714654, 715262]","[701655, 702254, 702854, 703454, 704054, 704654, 705254, 705854, 706432, 707064, 707646, 708311, 708926, 709629, 710207, 710746, 711342, 711911, 712474, 713086, 713634, 714290, 714919, 715532]",10,L,ITM,1.1,
6,400,trial,0,30,30,30,trial,"['S', 'S', 'S', 'S', 'S', 'S', 'S', 'C', 'C', 'C', 'C', 'C', 'C', 'C', 'C', 'C', 'C', 'C', 'C', 'C', 'C', 'C', 'C']","[731980, 732320, 732716, 733133, 733490, 733896, 734264, 734683, 735021, 735439, 735802, 736229, 736574, 736950, 737354, 737753, 738159, 738506, 738883, 739329, 739656, 740086, 740462]","[732127, 732472, 732841, 733257, 733602, 734030, 734410, 734848, 735202, 735590, 735936, 736339, 736700, 737130, 737497, 737897, 738294, 738705, 739085, 739476, 739870, 740227, 740614]","[731551, 731951, 732350, 732750, 733150, 733550, 733950, 734350, 734710, 735047, 735466, 735830, 736256, 736602, 736977, 737381, 737779, 738187, 738534, 738910, 739355, 739683, 740113, 740489]",10,L,ITM,1.1,
3,400,trial,0,31,31,31,trial,"['S', 'S', 'S', 'S', 'S', 'S', 'S', 'C', 'C', 'C', 'C', 'C', 'C', 'C', 'C', 'C', 'C', 'C', 'C', 'C', 'C', 'C', 'C']","[746260, 746584, 746980, 747390, 747772, 748169, 748590, 748993, 749400, 749836, 750248, 750606, 750982, 751341, 751848, 752391, 752749, 753391, 754143, 754655, 755124, 755631, 756018]","[746358, 746689, 747072, 747508, 747885, 748310, 748736, 749150, 749528, 749964, 750368, 750720, 751125, 751527, 752045, 752565, 753013, 753568, 754300, 754830, 755271, 755756, 756209]","[745861, 746260, 746660, 747060, 747460, 747860, 748260, 748660, 749019, 749425, 749861, 750274, 750631, 751007, 751367, 751874, 752416, 752775, 753417, 754168, 754680, 755149, 755656, 756043]",10,L,ITM,1.1,
2,600,trial,0,32,32,32,trial,"['S', 'S', 'S', 'S', 'S', 'S', 'S', 'C', 'C', 'C', 'C', 'C', 'C', 'C', 'C', 'C', 'C', 'C', 'C', 'C', 'C', 'C', 'C']","[761561, 762121, 763014, 763655, 764236, 764946, 765446, 766069, 766570, 767128, 767712, 768252, 768859, 769390, 769945, 770497, 771054, 771684, 772208, 772811, 773364, 773875, 774435]","[761659, 762546, 763241, 763910, 764546, 765078, 765724, 766253, 766826, 767361, 767870, 768480, 768972, 769598, 770137, 770694, 771297, 771901, 772425, 772943, 773478, 774062, 774642]","[761356, 761955, 762556, 763156, 763755, 764356, 764956, 765556, 766097, 766597, 767156, 767738, 768280, 768885, 769418, 769973, 770525, 771082, 771710, 772236, 772839, 773391, 773902, 774463]",10,L,ITM,1.1,
4,600,trial,0,33,33,33,trial,"['S', 'S', 'S', 'S', 'S', 'S', 'S', 'C', 'C', 'C', 'C', 'C', 'C', 'C', 'C', 'C', 'C', 'C', 'C', 'C', 'C', 'C', 'C']","[780551, 781112, 781706, 782355, 782983, 783687, 784279, 784964, 785587, 786157, 786849, 787434, 787992, 788582, 789131, 789724, 790317, 790910, 791496, 792047, 792596, 793212, 793795]","[780631, 781292, 781893, 782511, 783162, 783896, 784438, 785146, 785750, 786425, 787015, 787599, 788199, 788741, 789368, 790072, 790643, 791157, 791759, 792386, 793024, 793606]","[780128, 780728, 781328, 781928, 782528, 783128, 783728, 784328, 784990, 785612, 786183, 786875, 787461, 788018, 788608, 789157, 789750, 790342, 790936, 791523, 792073, 792622, 793238, 793821]",10,L,ITM,1.1,
3,600,trial,0,34,34,34,trial,"['S', 'S', 'S', 'S', 'S', 'S', 'S', 'C', 'C', 'C', 'C', 'C', 'C', 'C', 'C', 'C', 'C', 'C', 'C', 'C', 'C', 'C', 'C']","[799789, 800337, 800952, 801553, 802129, 802625, 803336, 804047, 804566, 805195, 805751, 806327, 806880, 807535, 808013, 808637, 809224, 809833, 810508, 811112, 811728, 812379, 812949]","[799927, 800540, 801140, 801717, 802370, 802828, 803483, 804184, 804786, 805355, 805959, 806504, 807111, 807731, 808318, 808911, 809535, 810059, 810750, 811360, 811999, 812605]","[799303, 799902, 800502, 801102, 801702, 802302, 802903, 803503, 804073, 804591, 805221, 805777, 806352, 806905, 807561, 808039, 808663, 809249, 809859, 810533, 811138, 811754, 812404, 812975]",10,L,ITM,1.1,
4,400,trial,0,35,35,35,trial,"['S', 'S', 'S', 'S', 'S', 'C', 'C', 'C', 'C', 'C', 'C', 'C', 'C', 'C', 'C', 'C', 'C', 'C', 'C', 'C', 'C']","[819053, 820129, 820537, 820938, 821359, 821842, 822206, 822540, 822972, 823367, 823739, 824147, 824534, 824924, 825296, 825726, 826112, 826550, 826967, 827326, 827723]","[819195, 820279, 820662, 821113, 821521, 821943, 822354, 822709, 823121, 823534, 823905, 824264, 824657, 825091, 825479, 825878, 826271, 826681, 827086, 827483, 827892]","[818631, 819032, 819431, 819831, 820231, 820631, 821031, 821431, 821868, 822232, 822565, 822998, 823393, 823764, 824173, 824559, 824950, 825322, 825752, 826137, 826575, 826992, 827352, 827749]",10,L,ITM,1.1,
5,400,trial,0,36,36,36,trial,"['S', 'S', 'S', 'S', 'S', 'S', 'S', 'C', 'C', 'C', 'C', 'C', 'C', 'C', 'C', 'C', 'C', 'C', 'C', 'C', 'C', 'C', 'C']","[833692, 834126, 834546, 834923, 835335, 835734, 836085, 836541, 836880, 837337, 837701, 838128, 838493, 838872, 839302, 839682, 840090, 840471, 840845, 841244, 841635, 842032, 842385]","[833851, 834265, 834654, 835085, 835477, 835886, 836283, 836713, 837005, 837464, 837867, 838259, 838666, 839042, 839459, 839882, 840208, 840602, 840985, 841401, 841750, 842161, 842546]","[833390, 833789, 834189, 834589, 834990, 835389, 835789, 836189, 836567, 836905, 837362, 837727, 838154, 838518, 838897, 839327, 839707, 840117, 840497, 840870, 841271, 841661, 842057, 842411]",10,L,ITM,1.1,
5,600,trial,0,37,37,37,trial,"['S', 'S', 'S', 'S', 'S', 'S', 'S', 'C', 'C', 'C', 'C', 'C', 'C', 'C', 'C', 'C', 'C', 'C', 'C', 'C', 'C', 'C', 'C']","[848189, 848760, 849367, 849961, 850614, 851196, 851742, 852398, 852972, 853584, 854196, 854833, 855438, 856052, 856689, 857321, 857955, 858563, 859195, 859791, 860390, 861030, 861628]","[848286, 849009, 849688, 850304, 850949, 851484, 852001, 852699, 853344, 853899, 854556, 855202, 855775, 856435, 857031, 857699, 858323, 858897, 859548, 860224, 860808, 861410]","[847714, 848313, 848913, 849513, 850113, 850713, 851313, 851913, 852423, 852999, 853610, 854222, 854858, 855463, 856078, 856716, 857348, 857980, 858590, 859222, 859817, 860416, 861056, 861654]",10,L,ITM,1.1,
3,400,trial,0,38,38,38,trial,"['S', 'S', 'S', 'S', 'S', 'S', 'S', 'C', 'C', 'C', 'C', 'C', 'C', 'C', 'C', 'C', 'C', 'C', 'C', 'C', 'C', 'C', 'C']","[867444, 867799, 868190, 868620, 869063, 869426, 869806, 870220, 870595, 870993, 871375, 871808, 872194, 872557, 872961, 873405, 873767, 874162, 874578, 875004, 875357, 875737, 876143]","[867597, 867934, 868307, 868776, 869178, 869551, 869916, 870397, 870732, 871175, 871529, 871916, 872321, 872660, 873073, 873536, 873928, 874326, 874703, 875097, 875511, 875879, 876303]","[867063, 867463, 867863, 868263, 868663, 869063, 869464, 869863, 870246, 870621, 871019, 871401, 871833, 872219, 872583, 872986, 873431, 873793, 874187, 874604, 875030, 875382, 875762, 876169]",10,L,ITM,1.1,
6,400,trial,0,39,39,39,trial,"['S', 'S', 'S', 'S', 'S', 'S', 'S', 'C', 'C', 'C', 'C', 'C', 'C', 'C', 'C', 'C', 'C', 'C', 'C', 'C', 'C', 'C', 'C']","[882121, 882514, 882891, 883329, 883730, 884131, 884569, 884963, 885294, 885666, 886111, 886500, 886873, 887289, 887720, 888127, 888502, 888863, 889299, 889686, 890107, 890513, 890898]","[882275, 882633, 883075, 883508, 883877, 884346, 884683, 885047, 885383, 885815, 886214, 886657, 887047, 887440, 887800, 888258, 888646, 889051, 889455, 889876, 890233, 890657, 891026]","[881805, 882204, 882605, 883004, 883404, 883805, 884204, 884604, 884990, 885320, 885693, 886138, 886528, 886900, 887316, 887747, 888155, 888528, 888890, 889326, 889712, 890134, 890540, 890925]",10,L,ITM,1.1,
5,600,trial,0,40,40,40,trial,"['S', 'S', 'S', 'S', 'S', 'S', 'S', 'S', 'C', 'C', 'C', 'C', 'C', 'C', 'C', 'C', 'C', 'C', 'C', 'C', 'C', 'C', 'C', 'C']","[896527, 896824, 897432, 898038, 898618, 899218, 899834, 900448, 901080, 901726, 902306, 902846, 903427, 904034, 904623, 905241, 905826, 906422, 906986, 907554, 908134, 908751, 909264, 909892]","[896643, 897000, 897761, 898305, 898845, 899490, 900151, 900736, 901321, 901996, 902543, 903133, 903766, 904250, 904884, 905448, 905988, 906541, 907283, 907855, 908370, 909001, 909684]","[896349, 896947, 897547, 898147, 898747, 899347, 899947, 900547, 901105, 901752, 902333, 902872, 903452, 904059, 904648, 905267, 905851, 906447, 907012, 907580, 908160, 908778, 909290, 909918]",10,L,ITM,1.1,
7,600,trial,0,41,41,41,trial,"['S', 'S', 'S', 'S', 'S', 'S', 'S', 'C', 'C', 'C', 'C', 'C', 'C', 'C', 'C', 'C', 'C', 'C', 'C', 'C', 'C', 'C', 'C']","[915633, 916292, 916922, 917548, 918175, 918749, 919339, 919989, 920541, 921038, 921598, 922150, 922737, 923316, 923826, 924348, 924950, 925497, 926009, 926688, 927262, 927725, 928277]","[915752, 916432, 917044, 917664, 918275, 918963, 919615, 920129, 920751, 921300, 921823, 922376, 922956, 923456, 924037, 924552, 925113, 925680, 926287, 926840, 927453, 928029, 928496]","[915245, 915844, 916444, 917043, 917643, 918243, 918843, 919443, 920015, 920568, 921066, 921624, 922177, 922764, 923343, 923853, 924375, 924977, 925524, 926036, 926714, 927289, 927753, 928305]",10,L,ITM,1.1,
7,400,trial,0,42,42,42,trial,"['S', 'S', 'S', 'S', 'S', 'S', 'S', 'C', 'C', 'C', 'C', 'C', 'C', 'C', 'C', 'C', 'C', 'C', 'C', 'C', 'C', 'C', 'C']","[937124, 937541, 937946, 938323, 938740, 939133, 939579, 939972, 940369, 940776, 941184, 941576, 941972, 942361, 942760, 943159, 943548, 943918, 944337, 944746, 945127, 945484, 945951]","[937299, 937692, 938056, 938513, 938907, 939319, 939740, 940179, 940530, 940925, 941315, 941739, 942155, 942545, 942909, 943306, 943673, 944128, 944541, 944936, 945319, 945655, 946066]","[936820, 937220, 937619, 938019, 938419, 938819, 939219, 939619, 939999, 940396, 940804, 941211, 941603, 942000, 942388, 942787, 943186, 943575, 943944, 944365, 944773, 945155, 945511, 945978]",10,L,ITM,1.1,
6,600,trial,0,43,43,43,trial,"['S', 'S', 'S', 'S', 'S', 'S', 'C', 'C', 'C', 'C', 'C', 'C', 'C', 'C', 'C', 'C', 'C', 'C', 'C', 'C', 'C', 'C']","[952384, 952989, 953649, 954223, 954853, 955438, 956049, 956636, 957227, 957807, 958412, 959127, 959693, 960268, 960833, 961435, 962025, 962551, 963168, 963730, 964376, 965014]","[952654, 953346, 953953, 954540, 955080, 955697, 956305, 956934, 957488, 958068, 958666, 959226, 959815, 960470, 961138, 961767, 962311, 962778, 963486, 964090, 964748]","[951303, 951902, 952502, 953102, 953702, 954302, 954902, 955502, 956076, 956662, 957253, 957835, 958439, 959155, 959720, 960294, 960860, 961463, 962052, 962579, 963195, 963757, 964403, 965042]",10,L,ITM,1.1,
6,600,trial,0,44,44,44,trial,"['S', 'S', 'S', 'S', 'S', 'S', 'S', 'C', 'C', 'C', 'C', 'C', 'C', 'C', 'C', 'C', 'C', 'C', 'C', 'C', 'C', 'C', 'C']","[971181, 971891, 972452, 973061, 973672, 974316, 974859, 975473, 976052, 976643, 977198, 977757, 978342, 978967, 979537, 980125, 980751, 981393, 981902, 982495, 983086, 983668, 984242]","[971332, 972157, 972702, 973318, 973907, 974512, 975208, 975785, 976385, 976914, 977458, 978060, 978614, 979253, 979838, 980424, 981014, 981607, 982203, 982825, 983344, 983959]","[970806, 971405, 972005, 972605, 973205, 973805, 974405, 975005, 975500, 976078, 976670, 977224, 977783, 978370, 978994, 979564, 980152, 980777, 981420, 981929, 982522, 983113, 983695, 984268]",10,L,ITM,1.1,
4,600,trial,0,45,45,45,trial,"['S', 'S', 'S', 'S', 'S', 'S', 'S', 'C', 'C', 'C', 'C', 'C', 'C', 'C', 'C', 'C', 'C', 'C', 'C', 'C', 'C', 'C', 'C']","[990482, 991058, 991588, 992221, 992828, 993424, 994058, 994674, 995279, 995826, 996401, 996960, 997518, 998076, 998606, 999189, 999742, 1000342, 1000879, 1001434, 1001994, 1002574, 1003130]","[990628, 991193, 992010, 992555, 993138, 993731, 994301, 994907, 995558, 996104, 996653, 997218, 997763, 998291, 998855, 999535, 999955, 1000582, 1001075, 1001719, 1002378, 1002834, 1003355]","[990049, 990649, 991249, 991849, 992449, 993049, 993649, 994249, 994700, 995306, 995852, 996426, 996985, 997543, 998102, 998632, 999215, 999768, 1000368, 1000904, 1001459, 1002019, 1002600, 1003156]",10,L,ITM,1.1,
3,600,trial,0,46,46,46,trial,"['S', 'S', 'S', 'S', 'S', 'S', 'S', 'C', 'C', 'C', 'C', 'C', 'C', 'C', 'C', 'C', 'C', 'C', 'C', 'C', 'C', 'C', 'C']","[1009150, 1009861, 1010505, 1011179, 1011857, 1012362, 1012958, 1013637, 1014117, 1014646, 1015227, 1015779, 1016435, 1016996, 1017576, 1018113, 1018642, 1019258, 1019807, 1020393, 1020926, 1021458, 1022035]","[1009281, 1010173, 1010865, 1011523, 1012063, 1012668, 1013305, 1013883, 1014422, 1015005, 1015436, 1016043, 1016578, 1017280, 1017788, 1018326, 1018979, 1019482, 1020051, 1020622, 1021121, 1021752, 1022283]","[1008898, 1009498, 1010098, 1010698, 1011298, 1011898, 1012498, 1013098, 1013662, 1014142, 1014672, 1015252, 1015804, 1016461, 1017022, 1017602, 1018138, 1018668, 1019284, 1019833, 1020419, 1020952, 1021484, 1022061]",10,L,ITM,1.1,
2,400,trial,0,47,47,47,trial,"['S', 'S', 'S', 'S', 'S', 'S', 'S', 'C', 'C', 'C', 'C', 'C', 'C', 'C', 'C', 'C', 'C', 'C', 'C', 'C', 'C', 'C', 'C']","[1028076, 1028492, 1028911, 1029273, 1029701, 1030084, 1030501, 1030892, 1031291, 1031675, 1032070, 1032492, 1032903, 1033305, 1033673, 1034093, 1034489, 1034851, 1035244, 1035668, 1036063, 1036439, 1036836]","[1028289, 1028623, 1029026, 1029484, 1029876, 1030317, 1030658, 1031091, 1031436, 1031841, 1032222, 1032649, 1033033, 1033415, 1033808, 1034265, 1034636, 1034984, 1035350, 1035748, 1036143, 1036561, 1036940]","[1027741, 1028142, 1028541, 1028941, 1029341, 1029741, 1030140, 1030541, 1030919, 1031319, 1031703, 1032097, 1032518, 1032930, 1033332, 1033700, 1034120, 1034517, 1034878, 1035272, 1035696, 1036091, 1036467, 1036863]",10,L,ITM,1.1,
2,400,trial,0,48,48,48,trial,"['S', 'S', 'S', 'S', 'S', 'S', 'S', 'C', 'C', 'C', 'C', 'C', 'C', 'C', 'C', 'C', 'C', 'C', 'C', 'C', 'C', 'C', 'C']","[1042655, 1043081, 1043469, 1043874, 1044338, 1044740, 1045159, 1045551, 1045962, 1046355, 1046713, 1047294, 1047707, 1048089, 1048439, 1048802, 1049227, 1049571, 1050123, 1050554, 1051133, 1051622, 1052151]","[1042783, 1043191, 1043648, 1044065, 1044518, 1044935, 1045349, 1045777, 1046156, 1046514, 1046923, 1047434, 1047840, 1048230, 1048610, 1048999, 1049353, 1049747, 1050318, 1050815, 1051321, 1051782, 1052335]","[1042417, 1042818, 1043217, 1043617, 1044018, 1044417, 1044817, 1045217, 1045578, 1045989, 1046382, 1046740, 1047322, 1047735, 1048117, 1048466, 1048829, 1049254, 1049597, 1050150, 1050580, 1051161, 1051650, 1052179]",10,L,ITM,1.1,
7,600,trial,0,49,49,49,trial,"['S', 'S', 'S', 'S', 'S', 'S', 'S', 'C', 'C', 'C', 'C', 'C', 'C', 'C', 'C', 'C', 'C', 'C', 'C', 'C', 'C', 'C', 'C']","[1057872, 1058604, 1059190, 1059877, 1060527, 1061145, 1061721, 1062311, 1062827, 1063404, 1063951, 1064547, 1065124, 1065723, 1066317, 1066901, 1067491, 1068227, 1068787, 1069389, 1069960, 1070628, 1071199]","[1058035, 1058837, 1059522, 1060177, 1060810, 1061358, 1061947, 1062444, 1063152, 1063651, 1064143, 1064773, 1065336, 1065927, 1066577, 1067173, 1067787, 1068297, 1069041, 1069613, 1070285, 1070923]","[1057600, 1058199, 1058799, 1059399, 1059999, 1060599, 1061199, 1061799, 1062339, 1062853, 1063431, 1063977, 1064573, 1065151, 1065750, 1066344, 1066928, 1067517, 1068255, 1068814, 1069416, 1069986, 1070655, 1071226]",10,L,ITM,1.1,
7,400,trial,0,50,50,50,trial,"['S', 'S', 'S', 'S', 'S', 'S', 'S', 'C', 'C', 'C', 'C', 'C', 'C', 'C', 'C', 'C', 'C', 'C', 'C', 'C', 'C', 'C', 'C']","[1077223, 1077713, 1078111, 1078472, 1078898, 1079325, 1079677, 1080100, 1080442, 1080747, 1081209, 1081602, 1081988, 1082373, 1082748, 1083196, 1083558, 1083955, 1084369, 1084768, 1085161, 1085556, 1085938]","[1077453, 1077912, 1078235, 1078625, 1079031, 1079478, 1079825, 1080210, 1080526, 1080849, 1081335, 1081722, 1082087, 1082504, 1082904, 1083301, 1083717, 1084106, 1084479, 1084869, 1085248, 1085646, 1086059]","[1076925, 1077324, 1077725, 1078124, 1078524, 1078924, 1079324, 1079725, 1080127, 1080469, 1080773, 1081236, 1081629, 1082014, 1082400, 1082775, 1083224, 1083586, 1083982, 1084397, 1084794, 1085189, 1085584, 1085965]",10,L,ITM,1.1,
5,400,trial,0,51,51,51,trial,"['S', 'S', 'S', 'S', 'S', 'S', 'C', 'C', 'C', 'C', 'C', 'C', 'C', 'C', 'C', 'C', 'C', 'C', 'C', 'C', 'C', 'C']","[1092174, 1092582, 1092990, 1093348, 1093767, 1094168, 1094620, 1094928, 1095425, 1095939, 1096370, 1096847, 1097247, 1097819, 1098178, 1098630, 1099048, 1099493, 1099897, 1100340, 1100745, 1101144]","[1092337, 1092679, 1093056, 1093507, 1093908, 1094322, 1094777, 1095094, 1095577, 1096077, 1096540, 1097037, 1097446, 1097947, 1098386, 1098866, 1099226, 1099588, 1100028, 1100514, 1100903, 1101301]","[1091470, 1091869, 1092270, 1092669, 1093069, 1093469, 1093869, 1094269, 1094646, 1094955, 1095451, 1095964, 1096395, 1096872, 1097274, 1097844, 1098204, 1098655, 1099074, 1099520, 1099923, 1100366, 1100771, 1101169]",10,L,ITM,1.1,
4,400,trial,0,52,52,52,trial,"['S', 'S', 'S', 'S', 'S', 'S', 'S', 'C', 'C', 'C', 'C', 'C', 'C', 'C', 'C', 'C', 'C', 'C', 'C', 'C', 'C', 'C', 'C']","[1106964, 1107342, 1107746, 1108162, 1108570, 1108983, 1109522, 1109914, 1110317, 1110689, 1111056, 1111482, 1111846, 1112201, 1112552, 1112922, 1113333, 1113692, 1114045, 1114416, 1114805, 1115195, 1115546]","[1107116, 1107447, 1107908, 1108332, 1108711, 1109144, 1109697, 1110063, 1110489, 1110850, 1111200, 1111627, 1112006, 1112349, 1112695, 1113096, 1113448, 1113871, 1114231, 1114596, 1114966, 1115376, 1115686]","[1106611, 1107010, 1107410, 1107810, 1108210, 1108611, 1109010, 1109410, 1109940, 1110342, 1110715, 1111081, 1111507, 1111873, 1112226, 1112578, 1112947, 1113359, 1113717, 1114071, 1114442, 1114831, 1115220, 1115572]",10,L,ITM,1.1,
2,600,trial,0,53,53,53,trial,"['S', 'S', 'S', 'S', 'C', 'C', 'C', 'C', 'C', 'C', 'C', 'C', 'C', 'C', 'C', 'C', 'C', 'C', 'C', 'C']","[1123314, 1123794, 1124337, 1125009, 1125596, 1126081, 1126744, 1127292, 1127862, 1128426, 1128986, 1129525, 1130032, 1130543, 1130996, 1131469, 1132179, 1132747, 1133313, 1133840]","[1123417, 1124057, 1124714, 1125267, 1125842, 1126539, 1127012, 1127544, 1128077, 1128574, 1129068, 1129640, 1130115, 1130628, 1131188, 1131695, 1132372, 1132979, 1133545, 1133941]","[1120914, 1121514, 1122113, 1122714, 1123313, 1123914, 1124514, 1125114, 1125623, 1126109, 1126771, 1127320, 1127889, 1128454, 1129014, 1129552, 1130059, 1130570, 1131024, 1131496, 1132206, 1132774, 1133340, 1133868]",10,L,ITM,1.1,
7,600,trial,0,54,54,54,trial,"['S', 'S', 'S', 'S', 'S', 'S', 'S', 'C', 'C', 'C', 'C', 'C', 'C', 'C', 'C', 'C', 'C', 'C', 'C', 'C', 'C', 'C', 'C']","[1143470, 1143923, 1144780, 1145413, 1145996, 1146649, 1147282, 1147972, 1148590, 1149201, 1149827, 1150444, 1151114, 1151676, 1152273, 1152821, 1153422, 1154004, 1154631, 1155236, 1155877, 1156471, 1157048]","[1143603, 1144425, 1145081, 1145585, 1146263, 1146733, 1147375, 1148026, 1148632, 1149233, 1149861, 1150484, 1151159, 1151746, 1152327, 1152913, 1153484, 1154070, 1154713, 1155302, 1155964, 1156518, 1157142]","[1143175, 1143774, 1144374, 1144974, 1145574, 1146174, 1146774, 1147374, 1147999, 1148616, 1149229, 1149854, 1150471, 1151140, 1151704, 1152301, 1152848, 1153448, 1154031, 1154658, 1155264, 1155905, 1156498, 1157074]",10,L,ITM,1.1,
7,400,trial,0,55,55,55,trial,"['S', 'S', 'S', 'S', 'S', 'S', 'C', 'C', 'C', 'C', 'C', 'C', 'C', 'C', 'C', 'C', 'C', 'C', 'C', 'C', 'C', 'C']","[1163113, 1163638, 1164088, 1164506, 1164912, 1165308, 1165694, 1166062, 1166437, 1166803, 1167187, 1167584, 1167947, 1168294, 1168665, 1169042, 1169422, 1169793, 1170185, 1170551, 1170936, 1171314]","[1163214, 1163770, 1164204, 1164620, 1165049, 1165432, 1165810, 1166183, 1166571, 1166922, 1167299, 1167695, 1168050, 1168406, 1168758, 1169163, 1169545, 1169896, 1170293, 1170689, 1171055, 1171465]","[1162601, 1163000, 1163400, 1163800, 1164200, 1164600, 1165000, 1165401, 1165721, 1166089, 1166464, 1166830, 1167214, 1167610, 1167974, 1168321, 1168693, 1169070, 1169449, 1169819, 1170211, 1170578, 1170964, 1171342]",10,L,ITM,1.1,
4,400,trial,0,56,56,56,trial,"['S', 'S', 'S', 'S', 'S', 'S', 'S', 'C', 'C', 'C', 'C', 'C', 'C', 'C', 'C', 'C', 'C', 'C', 'C', 'C', 'C', 'C', 'C']","[1177097, 1177442, 1177818, 1178224, 1178563, 1178992, 1179390, 1179751, 1180140, 1180477, 1180880, 1181333, 1181720, 1182179, 1182545, 1182939, 1183314, 1183654, 1184006, 1184402, 1184879, 1185219, 1185601]","[1177213, 1177544, 1177899, 1178345, 1178737, 1179180, 1179568, 1179933, 1180315, 1180687, 1181177, 1181581, 1181932, 1182360, 1182694, 1183133, 1183500, 1183845, 1184197, 1184634, 1185051, 1185446, 1185813]","[1176697, 1177097, 1177497, 1177897, 1178297, 1178697, 1179098, 1179497, 1179778, 1180166, 1180503, 1180906, 1181360, 1181746, 1182204, 1182572, 1182964, 1183340, 1183680, 1184031, 1184428, 1184905, 1185245, 1185627]",10,L,ITM,1.1,
6,600,trial,0,57,57,57,trial,"['S', 'S', 'S', 'S', 'S', 'S', 'S', 'C', 'C', 'C', 'C', 'C', 'C', 'C', 'C', 'C', 'C', 'C', 'C', 'C', 'C', 'C', 'C']","[1191508, 1192113, 1192718, 1193342, 1193964, 1194542, 1195157, 1195716, 1196137, 1196820, 1197366, 1197900, 1198417, 1198913, 1199414, 1199995, 1200661, 1201176, 1201804, 1202365, 1202951, 1203530, 1204057]","[1191639, 1192227, 1192830, 1193467, 1194109, 1194691, 1195284, 1195845, 1196362, 1196952, 1197638, 1198025, 1198569, 1199046, 1199664, 1200322, 1200913, 1201470, 1202120, 1202594, 1203173, 1203753]","[1191086, 1191685, 1192285, 1192884, 1193484, 1194084, 1194684, 1195284, 1195744, 1196164, 1196847, 1197392, 1197927, 1198445, 1198941, 1199441, 1200022, 1200688, 1201203, 1201830, 1202392, 1202978, 1203558, 1204083]",10,L,ITM,1.1,
6,400,trial,0,58,58,58,trial,"['S', 'S', 'S', 'S', 'S', 'S', 'C', 'C', 'C', 'C', 'C', 'C', 'C', 'C', 'C', 'C', 'C', 'C', 'C', 'C', 'C', 'C']","[1210155, 1210557, 1210975, 1211378, 1211766, 1212165, 1212607, 1212924, 1213459, 1213855, 1214236, 1214629, 1214999, 1215332, 1215789, 1216206, 1216728, 1217153, 1217543, 1217918, 1218354, 1218718]","[1210296, 1210654, 1211077, 1211495, 1211859, 1212278, 1212734, 1213129, 1213587, 1214014, 1214381, 1214803, 1215131, 1215478, 1216010, 1216381, 1216900, 1217316, 1217638, 1218048, 1218437, 1218857]","[1209490, 1209889, 1210290, 1210689, 1211089, 1211489, 1211889, 1212290, 1212635, 1212951, 1213486, 1213882, 1214264, 1214657, 1215026, 1215360, 1215815, 1216233, 1216754, 1217179, 1217569, 1217945, 1218380, 1218746]",10,L,ITM,1.1,
2,600,trial,0,59,59,59,trial,"['S', 'S', 'S', 'S', 'S', 'S', 'S', 'C', 'C', 'C', 'C', 'C', 'C', 'C', 'C', 'C', 'C', 'C', 'C', 'C', 'C', 'C', 'C']","[1224594, 1225239, 1225845, 1226427, 1227084, 1227623, 1228252, 1228893, 1229371, 1230212, 1230763, 1231310, 1231764, 1232243, 1232775, 1233226, 1233716, 1234179, 1234675, 1235144, 1235619, 1236109, 1236570]","[1224706, 1225392, 1225921, 1226544, 1227203, 1227759, 1228401, 1229023, 1229587, 1230330, 1230981, 1231453, 1231927, 1232373, 1232879, 1233347, 1233772, 1234254, 1234754, 1235237, 1235720, 1236192, 1236672]","[1224192, 1224792, 1225391, 1225992, 1226591, 1227190, 1227791, 1228391, 1228919, 1229398, 1230239, 1230789, 1231338, 1231792, 1232270, 1232801, 1233253, 1233742, 1234206, 1234703, 1235172, 1235647, 1236136, 1236597]",10,L,ITM,1.1,
5,400,trial,0,60,60,60,trial,"['S', 'S', 'S', 'S', 'S', 'S', 'S', 'C', 'C', 'C', 'C', 'C', 'C', 'C', 'C', 'C', 'C', 'C', 'C', 'C', 'C', 'C', 'C']","[1242356, 1242760, 1243107, 1243556, 1243918, 1244318, 1244723, 1245137, 1245621, 1245962, 1246311, 1246692, 1247149, 1247512, 1247869, 1248246, 1248645, 1249014, 1249489, 1249852, 1250221, 1250580, 1250949]","[1242459, 1242850, 1243259, 1243668, 1244072, 1244491, 1244867, 1245285, 1245714, 1246084, 1246444, 1246842, 1247286, 1247624, 1248005, 1248357, 1248753, 1249145, 1249540, 1249960, 1250328, 1250691, 1251046]","[1242027, 1242425, 1242825, 1243226, 1243625, 1244025, 1244425, 1244825, 1245163, 1245646, 1245987, 1246337, 1246717, 1247174, 1247539, 1247896, 1248272, 1248671, 1249040, 1249515, 1249878, 1250246, 1250607, 1250974]",10,L,ITM,1.1,
5,400,trial,0,61,61,61,trial,"['S', 'S', 'S', 'S', 'S', 'S', 'S', 'C', 'C', 'C', 'C', 'C', 'C', 'C', 'C', 'C', 'C', 'C', 'C', 'C', 'C', 'C', 'C']","[1256820, 1257196, 1257608, 1258036, 1258411, 1258849, 1259203, 1259633, 1260042, 1260387, 1260803, 1261174, 1261552, 1261950, 1262279, 1262716, 1263046, 1263418, 1263788, 1264234, 1264599, 1265047, 1265421]","[1256915, 1257380, 1257782, 1258194, 1258586, 1258988, 1259413, 1259781, 1260122, 1260494, 1260915, 1261253, 1261688, 1262036, 1262375, 1262833, 1263072, 1263520, 1263971, 1264394, 1264814, 1265198, 1265617]","[1256557, 1256956, 1257356, 1257756, 1258157, 1258556, 1258956, 1259357, 1259659, 1260068, 1260412, 1260828, 1261201, 1261579, 1261976, 1262305, 1262743, 1263072, 1263444, 1263813, 1264261, 1264624, 1265073, 1265446]",10,L,ITM,1.1,
4,600,trial,0,62,62,62,trial,"['S', 'S', 'S', 'S', 'S', 'S', 'S', 'C', 'C', 'C', 'C', 'C', 'C', 'C', 'C', 'C', 'C', 'C', 'C', 'C', 'C', 'C', 'C']","[1271654, 1272166, 1272749, 1273335, 1273940, 1274518, 1275057, 1275609, 1276151, 1276730, 1277174, 1277689, 1278194, 1278733, 1279191, 1279698, 1280262, 1280742, 1281252, 1281732, 1282285, 1282796, 1283325]","[1271880, 1272394, 1273014, 1273603, 1274209, 1274685, 1275172, 1275749, 1276318, 1276875, 1277325, 1277837, 1278349, 1278905, 1279455, 1279845, 1280437, 1280908, 1281436, 1281951, 1282437, 1282931, 1283576]","[1271037, 1271638, 1272238, 1272838, 1273437, 1274037, 1274637, 1275237, 1275634, 1276177, 1276755, 1277200, 1277715, 1278220, 1278758, 1279216, 1279724, 1280287, 1280768, 1281277, 1281758, 1282312, 1282822, 1283351]",10,L,ITM,1.1,
2,400,trial,0,63,63,63,trial,"['S', 'S', 'S', 'S', 'S', 'S', 'C', 'C', 'C', 'C', 'C', 'C', 'C', 'C', 'C', 'C', 'C', 'C', 'C', 'C', 'C', 'C']","[1289402, 1289914, 1290332, 1290725, 1291146, 1291533, 1291937, 1292344, 1292688, 1293121, 1293528, 1293894, 1294320, 1294675, 1295063, 1295478, 1295944, 1296299, 1296685, 1297059, 1297386, 1297767]","[1289500, 1290029, 1290411, 1290832, 1291218, 1291640, 1292048, 1292524, 1292829, 1293250, 1293668, 1294078, 1294465, 1294857, 1295236, 1295561, 1295972, 1296412, 1296862, 1297167, 1297525, 1297812]","[1288880, 1289279, 1289679, 1290078, 1290479, 1290880, 1291279, 1291679, 1291965, 1292370, 1292716, 1293149, 1293555, 1293921, 1294348, 1294703, 1295089, 1295506, 1295972, 1296326, 1296712, 1297087, 1297414, 1297794]",10,L,ITM,1.1,
5,600,trial,0,64,64,64,trial,"['S', 'S', 'S', 'S', 'S', 'S', 'C', 'C', 'C', 'C', 'C', 'C', 'C', 'C', 'C', 'C', 'C', 'C', 'C', 'C', 'C', 'C']","[1304160, 1304741, 1305349, 1305972, 1306627, 1307194, 1307804, 1308360, 1308926, 1309534, 1310142, 1310750, 1311363, 1311942, 1312586, 1313160, 1313764, 1314366, 1315004, 1315627, 1316198, 1316819]","[1304308, 1304950, 1305566, 1306169, 1306891, 1307481, 1308054, 1308645, 1309203, 1309828, 1310419, 1310994, 1311612, 1312254, 1312842, 1313470, 1314082, 1314693, 1315322, 1315930, 1316525]","[1303088, 1303687, 1304287, 1304887, 1305487, 1306087, 1306687, 1307287, 1307831, 1308386, 1308952, 1309559, 1310168, 1310777, 1311388, 1311969, 1312612, 1313185, 1313789, 1314392, 1315030, 1315652, 1316225, 1316845]",10,L,ITM,1.1,
6,600,trial,0,65,65,65,trial,"['S', 'S', 'S', 'S', 'S', 'S', 'S', 'C', 'C', 'C', 'C', 'C', 'C', 'C', 'C', 'C', 'C', 'C', 'C', 'C', 'C', 'C', 'C']","[1322990, 1323596, 1324209, 1324761, 1325357, 1326004, 1326592, 1327219, 1327753, 1328582, 1329145, 1329669, 1330221, 1330796, 1331282, 1331810, 1332328, 1332879, 1333412, 1333990, 1334481, 1335031, 1335562]","[1323188, 1323805, 1324437, 1325020, 1325568, 1326224, 1326825, 1327392, 1328001, 1328742, 1329400, 1330013, 1330509, 1330957, 1331469, 1331972, 1332456, 1333000, 1333522, 1334093, 1334646, 1335141, 1335825]","[1322586, 1323185, 1323784, 1324384, 1324984, 1325584, 1326184, 1326784, 1327247, 1327779, 1328609, 1329172, 1329695, 1330248, 1330823, 1331309, 1331837, 1332356, 1332907, 1333439, 1334017, 1334508, 1335058, 1335588]",10,L,ITM,1.1,
4,400,trial,0,66,66,66,trial,"['S', 'S', 'S', 'S', 'S', 'S', 'S', 'C', 'C', 'C', 'C', 'C', 'C', 'C', 'C', 'C', 'C', 'C', 'C', 'C', 'C', 'C', 'C']","[1341174, 1341474, 1342009, 1342404, 1342857, 1343267, 1343650, 1344056, 1344444, 1344813, 1345301, 1345714, 1346091, 1346441, 1346800, 1347146, 1347536, 1347956, 1348337, 1348788, 1349181, 1349547, 1349892]","[1341286, 1341593, 1342117, 1342546, 1342987, 1343453, 1343803, 1344188, 1344634, 1344978, 1345451, 1345835, 1346223, 1346573, 1346923, 1347272, 1347679, 1348097, 1348446, 1348923, 1349306, 1349721, 1350093]","[1340967, 1341366, 1341766, 1342167, 1342566, 1342966, 1343367, 1343767, 1344081, 1344471, 1344838, 1345327, 1345739, 1346116, 1346466, 1346826, 1347172, 1347562, 1347982, 1348363, 1348814, 1349207, 1349572, 1349917]",10,L,ITM,1.1,
2,600,trial,0,67,67,67,trial,"['S', 'S', 'S', 'S', 'S', 'S', 'S', 'C', 'C', 'C', 'C', 'C', 'C', 'C', 'C', 'C', 'C', 'C', 'C', 'C', 'C', 'C', 'C']","[1355872, 1356545, 1357171, 1357821, 1358484, 1359140, 1359687, 1360314, 1360893, 1361528, 1362152, 1362758, 1363346, 1363973, 1364536, 1365155, 1365771, 1366391, 1366970, 1367605, 1368226, 1368826, 1369481]","[1356062, 1356740, 1357340, 1357948, 1358660, 1359281, 1359953, 1360530, 1361149, 1361835, 1362395, 1362981, 1363631, 1364238, 1364802, 1365445, 1366077, 1366665, 1367271, 1367898, 1368485, 1369093, 1369747]","[1355540, 1356139, 1356740, 1357340, 1357940, 1358540, 1359140, 1359739, 1360342, 1360921, 1361555, 1362179, 1362786, 1363373, 1364000, 1364562, 1365183, 1365797, 1366418, 1366996, 1367632, 1368253, 1368853, 1369507]",10,L,ITM,1.1,
3,600,trial,0,68,68,68,trial,"['S', 'S', 'S', 'S', 'S', 'S', 'S', 'C', 'C', 'C', 'C', 'C', 'C', 'C', 'C', 'C', 'C', 'C', 'C', 'C', 'C', 'C', 'C']","[1375392, 1375920, 1376522, 1377071, 1377716, 1378307, 1378945, 1379563, 1380032, 1380825, 1381335, 1382114, 1382614, 1383056, 1383514, 1383980, 1384470, 1384912, 1385394, 1385909, 1386389, 1386870, 1387386]","[1375579, 1376196, 1376783, 1377471, 1377967, 1378583, 1379274, 1379803, 1380256, 1380968, 1381520, 1382305, 1382799, 1383246, 1383692, 1384161, 1384605, 1385096, 1385607, 1386105, 1386598, 1387095, 1387618]","[1374931, 1375532, 1376132, 1376732, 1377331, 1377931, 1378531, 1379131, 1379589, 1380058, 1380850, 1381360, 1382139, 1382639, 1383081, 1383539, 1384005, 1384496, 1384938, 1385419, 1385934, 1386415, 1386896, 1387412]",10,L,ITM,1.1,
3,400,trial,0,69,69,69,trial,"['S', 'S', 'S', 'S', 'S', 'S', 'S', 'C', 'C', 'C', 'C', 'C', 'C', 'C', 'C', 'C', 'C', 'C', 'C', 'C', 'C', 'C', 'C']","[1393368, 1393703, 1394054, 1394416, 1394829, 1395197, 1395627, 1396019, 1396402, 1396750, 1397151, 1397516, 1397888, 1398279, 1398610, 1398953, 1399348, 1399683, 1400073, 1400438, 1400779, 1401135, 1401485]","[1393497, 1393811, 1394163, 1394576, 1394976, 1395323, 1395783, 1396141, 1396538, 1396907, 1397296, 1397683, 1398039, 1398446, 1398726, 1399053, 1399445, 1399758, 1400166, 1400500, 1400852, 1401246, 1401582]","[1392952, 1393351, 1393752, 1394151, 1394551, 1394951, 1395351, 1395751, 1396044, 1396427, 1396775, 1397177, 1397541, 1397913, 1398304, 1398636, 1398979, 1399373, 1399708, 1400099, 1400464, 1400805, 1401160, 1401510]",10,L,ITM,1.1,
7,600,trial,0,70,70,70,trial,"['S', 'S', 'S', 'S', 'S', 'S', 'S', 'C', 'C', 'C', 'C', 'C', 'C', 'C', 'C', 'C', 'C', 'C', 'C', 'C', 'C', 'C', 'C']","[1407457, 1408135, 1408748, 1409327, 1409899, 1410515, 1411138, 1411696, 1412139, 1412613, 1413049, 1413487, 1413901, 1414333, 1414730, 1415145, 1415552, 1415986, 1416473, 1417384, 1417838, 1418268, 1418660]","[1407577, 1408388, 1408977, 1409537, 1410138, 1410759, 1411352, 1411935, 1412318, 1412761, 1413165, 1413580, 1414018, 1414384, 1414841, 1415206, 1415677, 1416073, 1416559, 1417528, 1417980, 1418403, 1418813]","[1407121, 1407721, 1408321, 1408921, 1409521, 1410121, 1410721, 1411321, 1411724, 1412165, 1412639, 1413076, 1413515, 1413927, 1414360, 1414757, 1415173, 1415579, 1416012, 1416500, 1417411, 1417866, 1418295, 1418687]",10,L,ITM,1.1,
2,400,trial,0,71,71,71,trial,"['S', 'S', 'S', 'S', 'S', 'S', 'S', 'C', 'C', 'C', 'C', 'C', 'C', 'C', 'C', 'C', 'C', 'C', 'C', 'C', 'C', 'C', 'C']","[1424416, 1424863, 1425274, 1425652, 1426074, 1426476, 1426878, 1427292, 1427662, 1428054, 1428444, 1428835, 1429151, 1429542, 1429929, 1430277, 1430679, 1431051, 1431419, 1431864, 1432290, 1432668, 1433078]","[1424545, 1424971, 1425432, 1425799, 1426248, 1426637, 1427030, 1427473, 1427819, 1428233, 1428548, 1428915, 1429244, 1429656, 1430024, 1430341, 1430770, 1431160, 1431518, 1431956, 1432399, 1432774, 1433166]","[1424155, 1424556, 1424955, 1425354, 1425756, 1426155, 1426555, 1426954, 1427318, 1427690, 1428081, 1428470, 1428861, 1429179, 1429570, 1429955, 1430304, 1430707, 1431078, 1431447, 1431891, 1432316, 1432695, 1433105]",10,L,ITM,1.1,
6,400,trial,0,72,72,72,trial,"['S', 'S', 'S', 'S', 'S', 'S', 'S', 'C', 'C', 'C', 'C', 'C', 'C', 'C', 'C', 'C', 'C', 'C', 'C', 'C', 'C', 'C', 'C']","[1438899, 1439247, 1439595, 1440103, 1440436, 1440835, 1441196, 1441606, 1441985, 1442332, 1442763, 1443171, 1443525, 1443954, 1444381, 1444766, 1445148, 1445570, 1445917, 1446277, 1446684, 1447044, 1447465]","[1439011, 1439337, 1439733, 1440173, 1440560, 1440920, 1441299, 1441712, 1442095, 1442460, 1442891, 1443280, 1443660, 1444063, 1444491, 1444892, 1445270, 1445702, 1446078, 1446458, 1446814, 1447188, 1447572]","[1438499, 1438899, 1439299, 1439699, 1440099, 1440499, 1440900, 1441299, 1441633, 1442012, 1442359, 1442790, 1443198, 1443553, 1443981, 1444408, 1444793, 1445175, 1445597, 1445944, 1446303, 1446711, 1447071, 1447492]",10,L,ITM,1.1,
5,600,trial,0,73,73,73,trial,"['S', 'S', 'S', 'S', 'S', 'S', 'S', 'S', 'C', 'C', 'C', 'C', 'C', 'C', 'C', 'C', 'C', 'C', 'C', 'C', 'C', 'C', 'C', 'C']","[1453631, 1454243, 1454923, 1455454, 1455980, 1456548, 1457135, 1457689, 1458429, 1458907, 1459351, 1459778, 1460234, 1460658, 1461087, 1461490, 1461920, 1462300, 1462742, 1463154, 1463579, 1464017, 1464476, 1464934]","[1453752, 1454430, 1455048, 1455588, 1456099, 1456749, 1457428, 1457935, 1458623, 1459057, 1459494, 1459919, 1460383, 1460825, 1461214, 1461627, 1462052, 1462455, 1462921, 1463325, 1463712, 1464180, 1464604, 1465106]","[1453272, 1453871, 1454471, 1455071, 1455671, 1456271, 1456871, 1457471, 1458456, 1458932, 1459378, 1459804, 1460260, 1460684, 1461112, 1461516, 1461946, 1462326, 1462767, 1463180, 1463606, 1464043, 1464502, 1464960]",10,L,ITM,1.1,
4,600,trial,0,74,74,74,trial,"['B', 'S', 'S', 'S', 'S', 'S', 'S', 'S', 'C', 'C', 'C', 'C', 'C', 'C', 'C', 'C', 'C', 'C', 'C', 'C', 'C', 'C', 'C', 'C']","[1470664, 1471046, 1471705, 1472371, 1472925, 1473479, 1474107, 1474670, 1475323, 1475755, 1476286, 1476878, 1477423, 1477976, 1478499, 1479106, 1479661, 1480211, 1480735, 1481349, 1481915, 1482486, 1483063, 1483668]","[1470898, 1471390, 1472148, 1472695, 1473290, 1473921, 1474496, 1475076, 1475602, 1476122, 1476685, 1477153, 1477700, 1478306, 1478797, 1479427, 1479973, 1480602, 1481161, 1481707, 1482240, 1482869, 1483433]","[1470675, 1471276, 1471876, 1472476, 1473075, 1473675, 1474275, 1474875, 1475349, 1475780, 1476312, 1476904, 1477448, 1478001, 1478524, 1479132, 1479687, 1480237, 1480761, 1481374, 1481940, 1482513, 1483088, 1483694]",10,L,ITM,1.1,
7,400,trial,0,75,75,75,trial,"['S', 'S', 'S', 'S', 'S', 'S', 'S', 'C', 'C', 'C', 'C', 'C', 'C', 'C', 'C', 'C', 'C', 'C', 'C', 'C', 'C', 'C', 'C']","[1489724, 1490182, 1490612, 1491045, 1491377, 1491724, 1492174, 1492597, 1492909, 1493311, 1493663, 1494026, 1494482, 1494846, 1495238, 1495802, 1496123, 1496505, 1496836, 1497250, 1497637, 1498033, 1498437]","[1489932, 1490301, 1490776, 1491147, 1491526, 1491870, 1492350, 1492825, 1493058, 1493489, 1493860, 1494231, 1494607, 1495046, 1495384, 1495940, 1496333, 1496641, 1497042, 1497404, 1497830, 1498195, 1498596]","[1489479, 1489880, 1490279, 1490679, 1491080, 1491480, 1491880, 1492280, 1492624, 1492935, 1493338, 1493691, 1494052, 1494509, 1494873, 1495266, 1495829, 1496151, 1496531, 1496863, 1497277, 1497665, 1498059, 1498465]",10,L,ITM,1.1,
3,400,trial,0,76,76,76,trial,"['S', 'S', 'S', 'S', 'S', 'S', 'C', 'C', 'C', 'C', 'C', 'C', 'C', 'C', 'C', 'C', 'C', 'C', 'C', 'C', 'C', 'C']","[1504891, 1505292, 1505735, 1506137, 1506511, 1506914, 1507326, 1507725, 1508149, 1508514, 1508909, 1509296, 1509681, 1510066, 1510488, 1510901, 1511284, 1511667, 1512032, 1512437, 1512787, 1513160]","[1504973, 1505392, 1505816, 1506220, 1506609, 1507027, 1507426, 1507826, 1508238, 1508601, 1509005, 1509380, 1509796, 1510195, 1510614, 1511008, 1511406, 1511777, 1512159, 1512538, 1512901, 1513289]","[1504156, 1504557, 1504956, 1505356, 1505757, 1506157, 1506557, 1506957, 1507351, 1507750, 1508174, 1508540, 1508934, 1509321, 1509706, 1510091, 1510513, 1510928, 1511310, 1511693, 1512057, 1512463, 1512813, 1513186]",10,L,ITM,1.1,
3,600,trial,0,77,77,77,trial,"['S', 'S', 'S', 'S', 'S', 'S', 'S', 'C', 'C', 'C', 'C', 'C', 'C', 'C', 'C', 'C', 'C', 'C', 'C', 'C', 'C', 'C', 'C']","[1519304, 1519987, 1520568, 1521196, 1521854, 1522430, 1523041, 1523642, 1524213, 1524858, 1525453, 1526072, 1526739, 1527331, 1527909, 1528479, 1529071, 1529638, 1530237, 1530803, 1531415, 1532004, 1532605]","[1519406, 1520163, 1520799, 1521565, 1522115, 1522721, 1523290, 1523912, 1524542, 1525057, 1525693, 1526264, 1526833, 1527593, 1528168, 1528776, 1529379, 1529945, 1530551, 1531192, 1531771, 1532343]","[1518956, 1519555, 1520155, 1520755, 1521355, 1521955, 1522555, 1523155, 1523667, 1524239, 1524884, 1525479, 1526097, 1526765, 1527357, 1527934, 1528505, 1529097, 1529664, 1530263, 1530828, 1531442, 1532029, 1532631]",10,L,ITM,1.1,
2,600,trial,0,78,78,78,trial,"['S', 'S', 'S', 'S', 'S', 'S', 'S', 'C', 'C', 'C', 'C', 'C', 'C', 'C', 'C', 'C', 'C', 'C', 'C', 'C', 'C', 'C', 'C']","[1538504, 1539091, 1539680, 1540333, 1540936, 1541526, 1542153, 1542762, 1543228, 1543640, 1544129, 1544590, 1545054, 1545521, 1545940, 1546468, 1546867, 1547371, 1547801, 1548348, 1548729, 1549277, 1549787]","[1538703, 1539289, 1539827, 1540530, 1541136, 1541782, 1542330, 1542934, 1543374, 1543858, 1544241, 1544727, 1545201, 1545712, 1546120, 1546659, 1547075, 1547590, 1548091, 1548565, 1548997, 1549625, 1550001]","[1538076, 1538676, 1539275, 1539875, 1540476, 1541075, 1541677, 1542277, 1542789, 1543256, 1543666, 1544156, 1544617, 1545081, 1545548, 1545967, 1546496, 1546894, 1547399, 1547828, 1548376, 1548756, 1549303, 1549814]",10,L,ITM,1.1,
6,600,trial,0,79,79,79,trial,"['S', 'S', 'S', 'S', 'S', 'S', 'S', 'C', 'C', 'C', 'C', 'C', 'C', 'C', 'C', 'C', 'C', 'C', 'C', 'C', 'C', 'C', 'C']","[1555932, 1556576, 1557180, 1557811, 1558359, 1558895, 1559497, 1560076, 1560522, 1560970, 1561462, 1561906, 1562336, 1562777, 1563247, 1563674, 1564155, 1564657, 1565146, 1565625, 1566050, 1566486, 1566927]","[1556057, 1556879, 1557355, 1557995, 1558597, 1559071, 1559682, 1560302, 1560705, 1561161, 1561612, 1562097, 1562494, 1562898, 1563371, 1563850, 1564346, 1564790, 1565299, 1565771, 1566220, 1566630, 1567074]","[1555534, 1556133, 1556733, 1557334, 1557934, 1558534, 1559134, 1559734, 1560102, 1560549, 1560996, 1561489, 1561933, 1562362, 1562805, 1563275, 1563701, 1564182, 1564684, 1565172, 1565651, 1566077, 1566513, 1566954]",10,L,ITM,1.1,
4,400,trial,0,80,80,80,trial,"['S', 'S', 'S', 'S', 'S', 'S', 'S', 'C', 'C', 'C', 'C', 'C', 'C', 'C', 'C', 'C', 'C', 'C', 'C', 'C', 'C', 'C', 'C']","[1572759, 1573152, 1573703, 1574126, 1574520, 1574943, 1575334, 1575767, 1576124, 1576563, 1576932, 1577333, 1577651, 1578057, 1578366, 1578737, 1579099, 1579526, 1579897, 1580248, 1580612, 1581025, 1581398]","[1572890, 1573284, 1573833, 1574275, 1574681, 1575100, 1575510, 1575884, 1576273, 1576768, 1577078, 1577459, 1577765, 1578162, 1578483, 1578821, 1579237, 1579642, 1580009, 1580384, 1580804, 1581179, 1581576]","[1572633, 1573033, 1573433, 1573833, 1574234, 1574633, 1575033, 1575433, 1575792, 1576150, 1576590, 1576957, 1577359, 1577676, 1578083, 1578392, 1578763, 1579124, 1579551, 1579923, 1580273, 1580639, 1581050, 1581423]",10,L,ITM,1.1,
3,600,trial,0,81,81,81,trial,"['S', 'S', 'S', 'S', 'S', 'S', 'S', 'C', 'C', 'C', 'C', 'C', 'C', 'C', 'C', 'C', 'C', 'C', 'C', 'C', 'C', 'C', 'C']","[1587212, 1588018, 1588585, 1589360, 1590004, 1590450, 1590992, 1591550, 1592017, 1592559, 1593054, 1593551, 1594059, 1594607, 1595121, 1595635, 1596199, 1596762, 1597276, 1597807, 1598327, 1598831, 1599347]","[1587360, 1588130, 1588750, 1589504, 1590133, 1590556, 1591161, 1591714, 1592218, 1592684, 1593227, 1593715, 1594245, 1594784, 1595285, 1595781, 1596387, 1596916, 1597499, 1597995, 1598516, 1599051, 1599597]","[1587004, 1587604, 1588204, 1588804, 1589404, 1590004, 1590604, 1591204, 1591576, 1592043, 1592585, 1593079, 1593577, 1594085, 1594633, 1595147, 1595661, 1596225, 1596787, 1597301, 1597833, 1598353, 1598857, 1599373]",10,L,ITM,1.1,
5,600,trial,0,82,82,82,trial,"['S', 'S', 'S', 'S', 'S', 'S', 'S', 'C', 'C', 'C', 'C', 'C', 'C', 'C', 'C', 'C', 'C', 'C', 'C', 'C', 'C', 'C', 'C']","[1605024, 1605822, 1606513, 1607064, 1607674, 1608310, 1609007, 1609570, 1610135, 1610712, 1611311, 1611889, 1612462, 1613059, 1613634, 1614249, 1614873, 1615392, 1616016, 1616646, 1617201, 1617852, 1618412]","[1605147, 1606039, 1606735, 1607230, 1607883, 1608473, 1609136, 1609709, 1610273, 1610832, 1611486, 1612015, 1612672, 1613307, 1613926, 1614534, 1615117, 1615728, 1616282, 1616937, 1617557, 1618181]","[1604831, 1605430, 1606030, 1606630, 1607230, 1607830, 1608430, 1609030, 1609595, 1610161, 1610737, 1611337, 1611915, 1612487, 1613084, 1613660, 1614276, 1614899, 1615419, 1616041, 1616671, 1617227, 1617878, 1618438]",10,L,ITM,1.1,
2,400,trial,0,83,83,83,trial,"['S', 'S', 'S', 'S', 'S', 'S', 'S', 'C', 'C', 'C', 'C', 'C', 'C', 'C', 'C', 'C', 'C', 'C', 'C', 'C', 'C', 'C', 'C']","[1624143, 1624637, 1625028, 1625448, 1625844, 1626274, 1626641, 1627055, 1627427, 1627807, 1628153, 1628533, 1628926, 1629266, 1629646, 1630049, 1630406, 1630807, 1631187, 1631554, 1631915, 1632296, 1632701]","[1624329, 1624776, 1625137, 1625578, 1625972, 1626388, 1626757, 1627219, 1627526, 1627965, 1628254, 1628666, 1629033, 1629438, 1629794, 1630189, 1630566, 1630976, 1631332, 1631698, 1632049, 1632458, 1632872]","[1623929, 1624329, 1624728, 1625129, 1625529, 1625929, 1626329, 1626729, 1627082, 1627455, 1627834, 1628180, 1628561, 1628953, 1629293, 1629673, 1630075, 1630433, 1630833, 1631215, 1631581, 1631941, 1632323, 1632728]",10,L,ITM,1.1,
7,600,trial,0,84,84,84,trial,"['S', 'S', 'S', 'S', 'S', 'S', 'S', 'C', 'C', 'C', 'C', 'C', 'C', 'C', 'C', 'C', 'C', 'C', 'C', 'C', 'C', 'C', 'C']","[1638316, 1639081, 1639769, 1640293, 1640905, 1641548, 1642175, 1642813, 1643266, 1643729, 1644154, 1644720, 1645224, 1645748, 1646243, 1646776, 1647252, 1647723, 1648266, 1648738, 1649215, 1649679, 1650158]","[1638463, 1639310, 1639956, 1640563, 1641210, 1641800, 1642419, 1643045, 1643463, 1643944, 1644356, 1644877, 1645396, 1645947, 1646485, 1646936, 1647472, 1647917, 1648405, 1648901, 1649383, 1649825, 1650315]","[1638100, 1638701, 1639301, 1639901, 1640500, 1641100, 1641700, 1642300, 1642841, 1643293, 1643756, 1644181, 1644746, 1645252, 1645774, 1646271, 1646803, 1647279, 1647751, 1648292, 1648764, 1649242, 1649705, 1650186]",10,L,ITM,1.1,
2,600,trial,0,85,85,85,trial,"['S', 'S', 'S', 'S', 'S', 'S', 'S', 'C', 'C', 'C', 'C', 'C', 'C', 'C', 'C', 'C', 'C', 'C', 'C', 'C', 'C', 'C', 'C']","[1656383, 1656974, 1657536, 1658128, 1658728, 1659340, 1659931, 1660576, 1661135, 1661685, 1662299, 1662835, 1663424, 1663959, 1664536, 1665166, 1665739, 1666273, 1666824, 1667375, 1667957, 1668490, 1669065]","[1656535, 1657167, 1657802, 1658469, 1659033, 1659620, 1660266, 1660769, 1661333, 1661858, 1662458, 1663026, 1663621, 1664154, 1664777, 1665272, 1665912, 1666442, 1667011, 1667543, 1668154, 1668687, 1669264]","[1655845, 1656444, 1657046, 1657646, 1658245, 1658846, 1659445, 1660045, 1660604, 1661163, 1661713, 1662325, 1662862, 1663451, 1663985, 1664564, 1665192, 1665767, 1666300, 1666851, 1667402, 1667984, 1668516, 1669093]",10,L,ITM,1.1,
7,600,trial,0,86,86,86,trial,"['S', 'S', 'S', 'S', 'S', 'S', 'S', 'C', 'C', 'C', 'C', 'C', 'C', 'C', 'C', 'C', 'C', 'C', 'C', 'C', 'C', 'C', 'C']","[1674961, 1675759, 1676332, 1676908, 1677503, 1678078, 1678707, 1679305, 1679931, 1680479, 1681083, 1681623, 1682198, 1682736, 1683275, 1683854, 1684436, 1685031, 1685683, 1686293, 1686862, 1687403, 1687964]","[1675089, 1675838, 1676554, 1677202, 1677788, 1678329, 1679001, 1679579, 1680108, 1680673, 1681233, 1681815, 1682397, 1682975, 1683544, 1684137, 1684727, 1685281, 1685901, 1686499, 1687098, 1687619, 1688175]","[1674560, 1675159, 1675759, 1676359, 1676959, 1677559, 1678159, 1678759, 1679332, 1679958, 1680505, 1681110, 1681649, 1682225, 1682763, 1683303, 1683881, 1684463, 1685058, 1685709, 1686321, 1686890, 1687430, 1687991]",10,L,ITM,1.1,
4,400,trial,0,87,87,87,trial,"['S', 'S', 'S', 'S', 'S', 'S', 'C', 'C', 'C', 'C', 'C', 'C', 'C', 'C', 'C', 'C', 'C', 'C', 'C', 'C', 'C', 'C']","[1694126, 1694713, 1695138, 1695557, 1695968, 1696347, 1696776, 1697167, 1697552, 1697925, 1698349, 1698747, 1699136, 1699553, 1699884, 1700311, 1700657, 1701085, 1701486, 1701876, 1702282, 1702690]","[1694234, 1694797, 1695213, 1695712, 1696139, 1696462, 1696851, 1697239, 1697665, 1698053, 1698451, 1698867, 1699273, 1699662, 1700017, 1700449, 1700776, 1701195, 1701555, 1701946, 1702396, 1702728]","[1693614, 1694013, 1694413, 1694813, 1695213, 1695613, 1696013, 1696413, 1696801, 1697192, 1697577, 1697950, 1698374, 1698772, 1699162, 1699578, 1699909, 1700336, 1700683, 1701110, 1701512, 1701902, 1702307, 1702716]",10,L,ITM,1.1,
6,400,trial,0,88,88,88,trial,"['S', 'S', 'S', 'S', 'S', 'S', 'C', 'C', 'C', 'C', 'C', 'C', 'C', 'C', 'C', 'C', 'C', 'C', 'C', 'C', 'C', 'C']","[1708851, 1709382, 1709828, 1710276, 1710679, 1711089, 1711486, 1711879, 1712271, 1712699, 1713046, 1713434, 1713833, 1714226, 1714625, 1715000, 1715401, 1715802, 1716200, 1716596, 1716959, 1717372]","[1708905, 1709467, 1709976, 1710468, 1710858, 1711224, 1711660, 1712014, 1712459, 1712794, 1713226, 1713559, 1713969, 1714317, 1714739, 1715166, 1715476, 1715928, 1716297, 1716726, 1717084, 1717511]","[1708291, 1708689, 1709089, 1709490, 1709889, 1710289, 1710689, 1711089, 1711513, 1711906, 1712299, 1712726, 1713073, 1713461, 1713861, 1714252, 1714652, 1715027, 1715428, 1715828, 1716228, 1716624, 1716985, 1717399]",10,L,ITM,1.1,
4,600,trial,0,89,89,89,trial,"['S', 'S', 'S', 'S', 'S', 'S', 'S', 'C', 'C', 'C', 'C', 'C', 'C', 'C', 'C', 'C', 'C', 'C', 'C', 'C', 'C', 'C', 'C']","[1723229, 1723824, 1724522, 1725096, 1725963, 1726396, 1726900, 1727520, 1728075, 1728670, 1729271, 1729858, 1730437, 1731041, 1731645, 1732263, 1732851, 1733437, 1734001, 1734612, 1735224, 1735844, 1736441]","[1723345, 1724056, 1724727, 1725330, 1726077, 1726553, 1727201, 1727735, 1728371, 1728947, 1729577, 1730105, 1730710, 1731352, 1731976, 1732464, 1733087, 1733724, 1734325, 1734935, 1735580, 1736184]","[1722808, 1723407, 1724007, 1724607, 1725207, 1725807, 1726407, 1727007, 1727546, 1728101, 1728696, 1729297, 1729884, 1730463, 1731067, 1731671, 1732289, 1732877, 1733463, 1734027, 1734638, 1735249, 1735870, 1736467]",10,L,ITM,1.1,
4,600,trial,0,90,90,90,trial,"['S', 'S', 'S', 'S', 'S', 'S', 'S', 'S', 'C', 'C', 'C', 'C', 'C', 'C', 'C', 'C', 'C', 'C', 'C', 'C', 'C', 'C', 'C', 'C', 'C', 'C']","[1742516, 1742849, 1743355, 1743949, 1744580, 1745166, 1745803, 1746395, 1747044, 1747653, 1748299, 1748878, 1749566, 1750145, 1750838, 1751470, 1752085, 1752684, 1753292, 1753825, 1754097, 1754357, 1754782, 1754889, 1755418, 1755966]","[1742683, 1742987, 1743616, 1744236, 1744793, 1745480, 1746057, 1746771, 1747363, 1747998, 1748590, 1749254, 1749876, 1750594, 1751234, 1751868, 1752483, 1753016, 1753508, 1753933, 1754224, 1754489, 1754809, 1754981, 1755767]","[1742233, 1742832, 1743432, 1744032, 1744632, 1745232, 1745832, 1746433, 1747069, 1747679, 1748325, 1748903, 1749592, 1750170, 1750864, 1751495, 1752112, 1752710, 1753319, 1753850, 1754123, 1754808, 1755445, 1755992]",10,L,ITM,1.1,
7,400,trial,0,91,91,91,trial,"['S', 'S', 'S', 'S', 'S', 'S', 'S', 'C', 'C', 'C', 'C', 'C', 'C', 'C', 'C', 'C', 'C', 'C', 'C', 'C', 'C', 'C', 'C']","[1762219, 1762550, 1762867, 1763279, 1763664, 1764076, 1764482, 1764888, 1765262, 1765659, 1766000, 1766430, 1766837, 1767195, 1767574, 1767966, 1768340, 1768791, 1769186, 1769541, 1769960, 1770360, 1770726]","[1762381, 1762661, 1762970, 1763427, 1763820, 1764213, 1764597, 1765001, 1765429, 1765815, 1766210, 1766601, 1766960, 1767325, 1767710, 1768108, 1768547, 1768897, 1769331, 1769714, 1770159, 1770567, 1770853]","[1761748, 1762148, 1762548, 1762949, 1763348, 1763748, 1764148, 1764548, 1764916, 1765288, 1765687, 1766027, 1766457, 1766864, 1767223, 1767601, 1767993, 1768368, 1768818, 1769213, 1769568, 1769987, 1770387, 1770753]",10,L,ITM,1.1,
2,400,trial,0,92,92,92,trial,"['S', 'S', 'S', 'S', 'S', 'S', 'S', 'C', 'C', 'C', 'C', 'C', 'C', 'C', 'C', 'C', 'C', 'C', 'C', 'C', 'C', 'C', 'C']","[1776721, 1777063, 1777428, 1777793, 1778229, 1778669, 1779002, 1779439, 1779825, 1780207, 1780547, 1780942, 1781359, 1781787, 1782146, 1782558, 1782939, 1783308, 1783733, 1784137, 1784518, 1784910, 1785264]","[1776846, 1777172, 1777532, 1777909, 1778381, 1778795, 1779176, 1779602, 1779926, 1780328, 1780686, 1781089, 1781520, 1781893, 1782328, 1782695, 1783084, 1783461, 1783912, 1784268, 1784649, 1785073, 1785435]","[1776302, 1776701, 1777101, 1777502, 1777901, 1778301, 1778701, 1779101, 1779467, 1779853, 1780234, 1780575, 1780969, 1781387, 1781815, 1782173, 1782586, 1782967, 1783335, 1783760, 1784165, 1784546, 1784937, 1785290]",10,L,ITM,1.1,
6,600,trial,0,93,93,93,trial,"['S', 'S', 'S', 'S', 'S', 'S', 'S', 'C', 'C', 'C', 'C', 'C', 'C', 'C', 'C', 'C', 'C', 'C', 'C', 'C', 'C', 'C', 'C']","[1791446, 1792134, 1792816, 1793515, 1794079, 1794608, 1795149, 1795833, 1796415, 1796953, 1797518, 1797972, 1798501, 1799043, 1799580, 1800158, 1800715, 1801309, 1801882, 1802454, 1803055, 1803621, 1804254]","[1791587, 1792447, 1793046, 1793672, 1794240, 1794762, 1795449, 1796242, 1796528, 1797114, 1797581, 1798191, 1798692, 1799222, 1799748, 1800426, 1800944, 1801602, 1802207, 1802809, 1803398, 1803959]","[1791077, 1791676, 1792276, 1792876, 1793476, 1794076, 1794676, 1795276, 1795860, 1796442, 1796980, 1797544, 1798000, 1798528, 1799070, 1799608, 1800185, 1800742, 1801335, 1801909, 1802480, 1803082, 1803648, 1804280]",10,L,ITM,1.1,
7,400,trial,0,94,94,94,trial,"['S', 'S', 'S', 'S', 'S', 'S', 'S', 'C', 'C', 'C', 'C', 'C', 'C', 'C', 'C', 'C', 'C', 'C', 'C', 'C', 'C', 'C', 'C']","[1810143, 1810475, 1810821, 1811240, 1811630, 1812006, 1812398, 1812815, 1813208, 1813558, 1813905, 1814331, 1814707, 1815073, 1815464, 1815877, 1816243, 1816685, 1817083, 1817511, 1817897, 1818272, 1818669]","[1810280, 1810588, 1810963, 1811367, 1811745, 1812144, 1812551, 1812972, 1813336, 1813705, 1814018, 1814475, 1814871, 1815201, 1815625, 1816004, 1816361, 1816807, 1817246, 1817634, 1818035, 1818413, 1818859]","[1809742, 1810142, 1810542, 1810942, 1811342, 1811742, 1812143, 1812542, 1812842, 1813234, 1813584, 1813932, 1814358, 1814734, 1815100, 1815491, 1815905, 1816270, 1816713, 1817110, 1817538, 1817925, 1818299, 1818695]",10,L,ITM,1.1,
3,600,trial,0,95,95,95,trial,"['S', 'S', 'S', 'S', 'S', 'S', 'S', 'C', 'C', 'C', 'C', 'C', 'C', 'C', 'C', 'C', 'C', 'C', 'C', 'C', 'C', 'C', 'C']","[1824300, 1825076, 1825737, 1826348, 1826967, 1827594, 1828244, 1828795, 1829354, 1829880, 1830455, 1830989, 1831593, 1832176, 1832738, 1833344, 1833931, 1834395, 1834940, 1835491, 1836035, 1836683, 1837259]","[1824431, 1825293, 1826042, 1826679, 1827265, 1827842, 1828470, 1829082, 1829672, 1830105, 1830643, 1831222, 1831829, 1832318, 1832929, 1833575, 1834075, 1834542, 1835100, 1835666, 1836572, 1836867, 1837524]","[1824110, 1824709, 1825309, 1825909, 1826509, 1827109, 1827709, 1828310, 1828820, 1829380, 1829906, 1830480, 1831015, 1831618, 1832202, 1832764, 1833369, 1833957, 1834421, 1834966, 1835516, 1836060, 1836708, 1837285]",10,L,ITM,1.1,
3,400,trial,0,96,96,96,trial,"['S', 'S', 'S', 'S', 'S', 'S', 'C', 'C', 'C', 'C', 'C', 'C', 'C', 'C', 'C', 'C', 'C', 'C', 'C', 'C', 'C', 'C']","[1843343, 1843760, 1844148, 1844514, 1844953, 1845366, 1845815, 1846181, 1846535, 1846907, 1847284, 1847661, 1848054, 1848452, 1848832, 1849188, 1849605, 1849975, 1850385, 1850764, 1851150, 1851538]","[1843443, 1843864, 1844234, 1844664, 1845137, 1845504, 1845957, 1846312, 1846663, 1847058, 1847435, 1847816, 1848177, 1848578, 1848976, 1849330, 1849745, 1850144, 1850486, 1850902, 1851252, 1851654]","[1842628, 1843028, 1843428, 1843828, 1844229, 1844628, 1845028, 1845428, 1845840, 1846207, 1846560, 1846933, 1847310, 1847687, 1848080, 1848477, 1848857, 1849213, 1849630, 1850001, 1850411, 1850789, 1851175, 1851564]",10,L,ITM,1.1,
6,400,trial,0,97,97,97,trial,"['S', 'S', 'S', 'S', 'S', 'S', 'C', 'C', 'C', 'C', 'C', 'C', 'C', 'C', 'C', 'C', 'C', 'C', 'C', 'C', 'C', 'C']","[1857744, 1858109, 1858500, 1858884, 1859293, 1859665, 1860078, 1860460, 1860849, 1861191, 1861592, 1861967, 1862329, 1862737, 1863123, 1863510, 1863904, 1864301, 1864680, 1865062, 1865450, 1865824]","[1857839, 1858214, 1858644, 1859000, 1859391, 1859774, 1860229, 1860592, 1860957, 1861332, 1861718, 1862080, 1862457, 1862864, 1863265, 1863654, 1864044, 1864434, 1864801, 1865216, 1865571, 1865950]","[1857001, 1857400, 1857800, 1858200, 1858600, 1859000, 1859400, 1859801, 1860105, 1860487, 1860877, 1861218, 1861619, 1861994, 1862355, 1862765, 1863150, 1863536, 1863930, 1864328, 1864707, 1865090, 1865478, 1865850]",10,L,ITM,1.1,
3,400,trial,0,98,98,98,trial,"['S', 'S', 'S', 'S', 'S', 'S', 'S', 'C', 'C', 'C', 'C', 'C', 'C', 'C', 'C', 'C', 'C', 'C', 'C', 'C', 'C', 'C', 'C']","[1871788, 1872194, 1872583, 1872992, 1873397, 1873811, 1874227, 1874641, 1874990, 1875361, 1875761, 1876171, 1876524, 1876908, 1877303, 1877664, 1878034, 1878423, 1878820, 1879180, 1879543, 1879876, 1880307]","[1871900, 1872306, 1872724, 1873131, 1873554, 1873963, 1874374, 1874791, 1875142, 1875529, 1875912, 1876261, 1876682, 1877139, 1877559, 1877881, 1878258, 1878635, 1879021, 1879352, 1879665, 1880073, 1880451]","[1871483, 1871883, 1872283, 1872684, 1873083, 1873483, 1873884, 1874283, 1874667, 1875015, 1875387, 1875786, 1876197, 1876549, 1876933, 1877328, 1877690, 1878060, 1878449, 1878846, 1879205, 1879569, 1879902, 1880333]",10,L,ITM,1.1,
5,600,trial,0,99,99,99,trial,"['S', 'S', 'S', 'S', 'S', 'S', 'S', 'C', 'C', 'C', 'C', 'C', 'C', 'C', 'C', 'C', 'C', 'C', 'C', 'C', 'C', 'C', 'C']","[1886390, 1886815, 1887350, 1887909, 1888510, 1889149, 1889720, 1890270, 1890763, 1891296, 1891859, 1892450, 1893005, 1893558, 1894035, 1894586, 1895139, 1895796, 1896360, 1896979, 1897524, 1898110, 1898699]","[1886448, 1886907, 1887449, 1888053, 1888811, 1889453, 1890002, 1890519, 1891010, 1891560, 1892054, 1892600, 1893114, 1893831, 1894385, 1894945, 1895490, 1896118, 1896698, 1897254, 1897817, 1898436]","[1885666, 1886265, 1886865, 1887465, 1888065, 1888665, 1889265, 1889865, 1890295, 1890789, 1891321, 1891885, 1892475, 1893031, 1893584, 1894061, 1894612, 1895164, 1895822, 1896386, 1897006, 1897550, 1898137, 1898725]",10,L,ITM,1.1,
5,400,trial,0,100,100,100,trial,"['S', 'S', 'S', 'S', 'S', 'S', 'C', 'C', 'C', 'C', 'C', 'C', 'C', 'C', 'C', 'C', 'C', 'C', 'C', 'C', 'C', 'C']","[1905008, 1905597, 1905978, 1906388, 1906795, 1907216, 1907664, 1908030, 1908412, 1908803, 1909160, 1909552, 1909914, 1910317, 1910688, 1911060, 1911437, 1911817, 1912223, 1912597, 1912996, 1913413]","[1905135, 1905713, 1906122, 1906534, 1906932, 1907351, 1907798, 1908161, 1908536, 1908930, 1909327, 1909671, 1910013, 1910403, 1910799, 1911186, 1911559, 1911944, 1912331, 1912717, 1913165, 1913535]","[1904491, 1904891, 1905291, 1905691, 1906092, 1906491, 1906891, 1907292, 1907690, 1908057, 1908438, 1908829, 1909187, 1909577, 1909940, 1910342, 1910715, 1911086, 1911462, 1911843, 1912249, 1912623, 1913022, 1913439]",10,L,ITM,1.1,
5,400,trial,0,101,101,101,trial,"['B', 'S', 'S', 'S', 'S', 'S', 'S', 'S', 'C', 'C', 'C', 'C', 'C', 'C', 'C', 'C', 'C', 'C', 'C', 'C', 'C', 'C', 'C', 'C']","[1918812, 1919225, 1919539, 1919959, 1920374, 1920779, 1921192, 1921587, 1922000, 1922398, 1922788, 1923177, 1923594, 1923969, 1924315, 1924725, 1925087, 1925472, 1925902, 1926349, 1926768, 1927112, 1927518, 1927910]","[1919026, 1919334, 1919656, 1920153, 1920529, 1920919, 1921305, 1921699, 1922105, 1922516, 1922908, 1923317, 1923702, 1924100, 1924462, 1924886, 1925241, 1925643, 1926081, 1926483, 1926908, 1927261, 1927738, 1928033]","[1918823, 1919223, 1919623, 1920023, 1920423, 1920823, 1921223, 1921624, 1922026, 1922423, 1922813, 1923203, 1923619, 1923994, 1924340, 1924751, 1925112, 1925497, 1925928, 1926376, 1926794, 1927138, 1927543, 1927936]",10,L,ITM,1.1,
3,600,trial,0,102,102,102,trial,"['S', 'S', 'S', 'S', 'S', 'S', 'S', 'C', 'C', 'C', 'C', 'C', 'C', 'C', 'C', 'C', 'C', 'C', 'C', 'C', 'C', 'C', 'C']","[1933661, 1934504, 1935197, 1935694, 1936268, 1936825, 1937465, 1938083, 1938551, 1939050, 1939574, 1940101, 1940643, 1941066, 1941500, 1942094, 1942723, 1943237, 1943815, 1944291, 1944734, 1945202, 1945699]","[1933749, 1934645, 1935315, 1935798, 1936472, 1937058, 1937587, 1938231, 1938700, 1939163, 1939682, 1940185, 1940749, 1941191, 1941666, 1942279, 1942866, 1943351, 1943920, 1944407, 1944858, 1945307, 1945814]","[1933458, 1934057, 1934657, 1935257, 1935857, 1936457, 1937057, 1937657, 1938109, 1938577, 1939076, 1939600, 1940126, 1940669, 1941092, 1941526, 1942120, 1942749, 1943263, 1943840, 1944316, 1944760, 1945228, 1945724]",10,L,ITM,1.1,
2,600,trial,0,103,103,103,trial,"['S', 'S', 'S', 'S', 'S', 'S', 'S', 'C', 'C', 'C', 'C', 'C', 'C', 'C', 'C', 'C', 'C', 'C', 'C', 'C', 'C', 'C', 'C']","[1951860, 1952501, 1953114, 1953742, 1954337, 1954957, 1955567, 1956208, 1956769, 1957361, 1957947, 1958526, 1959095, 1959718, 1960326, 1960900, 1961491, 1962071, 1962659, 1963248, 1963843, 1964450, 1965062]","[1952070, 1952771, 1953421, 1953981, 1954617, 1955202, 1955823, 1956450, 1957030, 1957591, 1958199, 1958784, 1959380, 1959969, 1960465, 1960983, 1961580, 1962201, 1962734, 1963325, 1963908, 1964533, 1965115]","[1951423, 1952023, 1952623, 1953222, 1953823, 1954423, 1955022, 1955623, 1956236, 1956797, 1957389, 1957975, 1958553, 1959121, 1959745, 1960353, 1960928, 1961518, 1962098, 1962686, 1963276, 1963870, 1964478, 1965088]",10,L,ITM,1.1,
4,600,trial,0,104,104,104,trial,"['S', 'S', 'S', 'S', 'S', 'S', 'S', 'C', 'C', 'C', 'C', 'C', 'C', 'C', 'C', 'C', 'C', 'C', 'C', 'C', 'C', 'C', 'C']","[1971055, 1971620, 1972220, 1972871, 1973489, 1974105, 1974642, 1975284, 1975869, 1976511, 1977241, 1977798, 1978397, 1979028, 1979678, 1980297, 1980959, 1981569, 1982197, 1982816, 1983455, 1984062, 1984696]","[1971310, 1971915, 1972521, 1973189, 1973775, 1974322, 1974965, 1975536, 1976153, 1976790, 1977405, 1978086, 1978730, 1979353, 1980028, 1980681, 1981247, 1981894, 1982475, 1983105, 1983742, 1984389]","[1970543, 1971142, 1971742, 1972342, 1972942, 1973542, 1974142, 1974743, 1975310, 1975895, 1976537, 1977267, 1977824, 1978423, 1979054, 1979704, 1980322, 1980986, 1981594, 1982224, 1982841, 1983480, 1984088, 1984721]",10,L,ITM,1.1,
3,400,trial,0,105,105,105,trial,"['S', 'S', 'S', 'S', 'S', 'C', 'C', 'C', 'C', 'C', 'C', 'C', 'C', 'C', 'C', 'C', 'C', 'C', 'C', 'C', 'C']","[1990625, 1991190, 1991669, 1992108, 1992942, 1993315, 1993720, 1994135, 1994575, 1994993, 1995372, 1995801, 1996210, 1996581, 1996982, 1997380, 1997790, 1998194, 1998584, 1998968, 1999375]","[1990840, 1991316, 1991759, 1992213, 1993013, 1993441, 1993804, 1994187, 1994643, 1995072, 1995481, 1995883, 1996283, 1996699, 1997092, 1997465, 1997881, 1998295, 1998672, 1999065, 1999471]","[1990142, 1990542, 1990942, 1991343, 1991742, 1992142, 1992542, 1992942, 1993340, 1993746, 1994161, 1994601, 1995019, 1995398, 1995827, 1996235, 1996607, 1997007, 1997406, 1997815, 1998220, 1998610, 1998995, 1999400]",10,L,ITM,1.1,
3,600,trial,0,106,106,106,trial,"['S', 'S', 'S', 'S', 'S', 'S', 'S', 'C', 'C', 'C', 'C', 'C', 'C', 'C', 'C', 'C', 'C', 'C', 'C', 'C', 'C', 'C', 'C']","[2005102, 2005657, 2006546, 2007146, 2007777, 2008445, 2009053, 2009666, 2010296, 2010856, 2011462, 2012071, 2012658, 2013243, 2013897, 2014534, 2015158, 2015779, 2016390, 2016952, 2017530, 2018139, 2018781]","[2005226, 2006253, 2006862, 2007451, 2007971, 2008578, 2009269, 2009832, 2010548, 2011129, 2011715, 2012296, 2012903, 2013504, 2014140, 2014774, 2015421, 2016027, 2016631, 2017160, 2017810, 2018441, 2019004]","[2004920, 2005520, 2006120, 2006720, 2007320, 2007920, 2008520, 2009120, 2009692, 2010321, 2010882, 2011488, 2012097, 2012684, 2013268, 2013923, 2014560, 2015183, 2015805, 2016415, 2016977, 2017556, 2018164, 2018806]",10,L,ITM,1.1,
2,400,trial,0,107,107,107,trial,"['S', 'S', 'S', 'S', 'S', 'S', 'S', 'C', 'C', 'C', 'C', 'C', 'C', 'C', 'C', 'C', 'C', 'C', 'C', 'C', 'C', 'C', 'C']","[2024794, 2025177, 2025528, 2025926, 2026326, 2026721, 2027115, 2027520, 2027939, 2028303, 2028674, 2029047, 2029445, 2029801, 2030222, 2030534, 2030958, 2031340, 2031722, 2032117, 2032505, 2032925, 2033321]","[2024967, 2025293, 2025644, 2026044, 2026425, 2026839, 2027228, 2027676, 2028049, 2028418, 2028797, 2029203, 2029557, 2029911, 2030325, 2030705, 2031070, 2031430, 2031836, 2032252, 2032607, 2033026, 2033426]","[2024376, 2024775, 2025177, 2025576, 2025976, 2026376, 2026777, 2027176, 2027546, 2027966, 2028329, 2028701, 2029074, 2029472, 2029829, 2030249, 2030562, 2030986, 2031368, 2031750, 2032145, 2032533, 2032953, 2033348]",10,L,ITM,1.1,
7,600,trial,0,108,108,108,trial,"['S', 'S', 'S', 'S', 'S', 'S', 'C', 'C', 'C', 'C', 'C', 'C', 'C', 'C', 'C', 'C', 'C', 'C', 'C', 'C', 'C', 'C']","[2040207, 2040865, 2041467, 2042049, 2042571, 2043177, 2043826, 2044409, 2044995, 2045558, 2046120, 2046707, 2047291, 2047827, 2048382, 2048936, 2049498, 2050051, 2050597, 2051177, 2051732, 2052310]","[2040454, 2041096, 2041666, 2042228, 2042823, 2043496, 2044077, 2044585, 2045233, 2045831, 2046360, 2046932, 2047496, 2048144, 2048611, 2049218, 2049691, 2050203, 2050803, 2051335, 2051904]","[2039085, 2039684, 2040284, 2040883, 2041483, 2042083, 2042683, 2043283, 2043852, 2044436, 2045023, 2045585, 2046147, 2046734, 2047318, 2047855, 2048409, 2048963, 2049525, 2050078, 2050625, 2051204, 2051759, 2052337]",10,L,ITM,1.1,
4,400,trial,0,109,109,109,trial,"['S', 'S', 'S', 'S', 'S', 'S', 'S', 'C', 'C', 'C', 'C', 'C', 'C', 'C', 'C', 'C', 'C', 'C', 'C', 'C', 'C', 'C', 'C']","[2058428, 2058822, 2059173, 2059579, 2059963, 2060374, 2060759, 2061203, 2061596, 2061993, 2062404, 2062808, 2063221, 2063598, 2063990, 2064370, 2064795, 2065165, 2065542, 2065949, 2066321, 2066711, 2067141]","[2058529, 2058908, 2059291, 2059685, 2060068, 2060489, 2060909, 2061330, 2061728, 2062129, 2062527, 2062959, 2063341, 2063719, 2064146, 2064536, 2064954, 2065345, 2065727, 2066059, 2066465, 2066834, 2067258]","[2058042, 2058442, 2058843, 2059242, 2059642, 2060042, 2060442, 2060843, 2061229, 2061622, 2062018, 2062430, 2062833, 2063247, 2063624, 2064017, 2064396, 2064822, 2065190, 2065567, 2065976, 2066347, 2066738, 2067167]",10,L,ITM,1.1,
4,600,trial,0,110,110,110,trial,"['S', 'S', 'S', 'S', 'S', 'S', 'C', 'C', 'C', 'C', 'C', 'C', 'C', 'C', 'C', 'C', 'C', 'C', 'C', 'C', 'C', 'C']","[2073729, 2074293, 2074874, 2075518, 2076055, 2076693, 2077291, 2077848, 2078517, 2079095, 2079752, 2080348, 2080934, 2081568, 2082203, 2082834, 2083426, 2084024, 2084708, 2085278, 2085915, 2086563]","[2073926, 2074487, 2075091, 2075680, 2076285, 2076940, 2077469, 2078162, 2078731, 2079328, 2079962, 2080565, 2081142, 2081886, 2082528, 2083105, 2083741, 2084281, 2084971, 2085572, 2086225, 2086804]","[2072495, 2073094, 2073693, 2074293, 2074893, 2075493, 2076093, 2076693, 2077317, 2077874, 2078542, 2079121, 2079777, 2080373, 2080960, 2081595, 2082229, 2082860, 2083451, 2084049, 2084733, 2085304, 2085941, 2086590]",10,L,ITM,1.1,
7,600,trial,0,111,111,111,trial,"['S', 'S', 'S', 'S', 'S', 'S', 'S', 'C', 'C', 'C', 'C', 'C', 'C', 'C', 'C', 'C', 'C', 'C', 'C', 'C', 'C', 'C', 'C']","[2092599, 2093471, 2094046, 2094675, 2095221, 2095775, 2096404, 2097038, 2097519, 2098065, 2098613, 2099171, 2099676, 2100187, 2100729, 2101263, 2101808, 2102365, 2102956, 2103508, 2104082, 2104645, 2105238]","[2092836, 2093654, 2094329, 2094817, 2095452, 2096057, 2096684, 2097253, 2097822, 2098342, 2098844, 2099383, 2099872, 2100381, 2100890, 2101445, 2101994, 2102536, 2103146, 2103737, 2104311, 2104847, 2105399]","[2092351, 2092951, 2093551, 2094151, 2094751, 2095351, 2095951, 2096551, 2097065, 2097547, 2098093, 2098639, 2099197, 2099703, 2100213, 2100756, 2101291, 2101835, 2102391, 2102983, 2103535, 2104109, 2104672, 2105265]",10,L,ITM,1.1,
2,400,trial,0,112,112,112,trial,"['S', 'S', 'S', 'S', 'S', 'S', 'S', 'C', 'C', 'C', 'C', 'C', 'C', 'C', 'C', 'C', 'C', 'C', 'C', 'C', 'C', 'C', 'C']","[2110876, 2111379, 2111765, 2112168, 2112580, 2112976, 2113385, 2113785, 2114171, 2114545, 2114907, 2115282, 2115702, 2116078, 2116501, 2116902, 2117296, 2117651, 2118057, 2118448, 2118800, 2119176, 2119583]","[2111190, 2111521, 2111948, 2112329, 2112723, 2113156, 2113584, 2113960, 2114308, 2114695, 2115048, 2115450, 2115847, 2116243, 2116627, 2117036, 2117429, 2117814, 2118221, 2118595, 2118968, 2119328, 2119725]","[2110644, 2111044, 2111443, 2111843, 2112244, 2112644, 2113043, 2113444, 2113813, 2114199, 2114572, 2114934, 2115309, 2115729, 2116106, 2116528, 2116930, 2117323, 2117678, 2118083, 2118475, 2118827, 2119202, 2119611]",10,L,ITM,1.1,
6,600,trial,0,113,113,113,trial,"['S', 'S', 'S', 'S', 'S', 'S', 'S', 'C', 'C', 'C', 'C', 'C', 'C', 'C', 'C', 'C', 'C', 'C', 'C', 'C', 'C', 'C', 'C']","[2125547, 2126177, 2126970, 2127425, 2128027, 2128594, 2129223, 2129813, 2130363, 2130940, 2131511, 2132082, 2132645, 2133192, 2133761, 2134321, 2134901, 2135462, 2136008, 2136628, 2137225, 2137746, 2138330]","[2125883, 2126545, 2127096, 2127695, 2128257, 2128874, 2129452, 2130116, 2130654, 2131236, 2131751, 2132290, 2132926, 2133420, 2133911, 2134583, 2135155, 2135676, 2136244, 2136850, 2137441, 2137968]","[2125109, 2125708, 2126308, 2126908, 2127508, 2128108, 2128708, 2129308, 2129840, 2130390, 2130967, 2131537, 2132110, 2132673, 2133220, 2133787, 2134347, 2134928, 2135489, 2136036, 2136654, 2137251, 2137773, 2138356]",10,L,ITM,1.1,
6,400,trial,0,114,114,114,trial,"['S', 'S', 'S', 'S', 'S', 'S', 'S', 'C', 'C', 'C', 'C', 'C', 'C', 'C', 'C', 'C', 'C', 'C', 'C', 'C', 'C', 'C', 'C']","[2144162, 2144536, 2144901, 2145313, 2145704, 2146070, 2146492, 2146894, 2147304, 2147686, 2148080, 2148495, 2148873, 2149232, 2149626, 2150041, 2150544, 2150949, 2151363, 2151724, 2152111, 2152500, 2152864]","[2144331, 2144643, 2145061, 2145446, 2145841, 2146238, 2146640, 2147038, 2147430, 2147831, 2148209, 2148592, 2148987, 2149369, 2149761, 2150158, 2150641, 2151060, 2151442, 2151839, 2152233, 2152652, 2153022]","[2143714, 2144113, 2144514, 2144913, 2145313, 2145714, 2146113, 2146513, 2146921, 2147331, 2147713, 2148107, 2148521, 2148899, 2149259, 2149653, 2150068, 2150571, 2150976, 2151390, 2151751, 2152137, 2152527, 2152892]",10,L,ITM,1.1,
4,400,trial,0,115,115,115,trial,"['S', 'S', 'S', 'S', 'S', 'S', 'S', 'C', 'C', 'C', 'C', 'C', 'C', 'C', 'C', 'C', 'C', 'C', 'C', 'C', 'C', 'C', 'C']","[2159029, 2159391, 2159769, 2160128, 2160545, 2160911, 2161286, 2161713, 2162076, 2162456, 2162859, 2163254, 2163642, 2164009, 2164402, 2164831, 2165212, 2165606, 2165997, 2166382, 2166758, 2167156, 2167556]","[2159163, 2159498, 2159869, 2160283, 2160680, 2161074, 2161455, 2161873, 2162213, 2162614, 2162983, 2163365, 2163784, 2164148, 2164534, 2164944, 2165366, 2165779, 2166146, 2166525, 2166895, 2167258, 2167652]","[2158564, 2158964, 2159365, 2159764, 2160164, 2160564, 2160964, 2161364, 2161738, 2162102, 2162482, 2162884, 2163279, 2163667, 2164035, 2164427, 2164856, 2165237, 2165632, 2166023, 2166408, 2166785, 2167182, 2167581]",10,L,ITM,1.1,
5,400,trial,0,116,116,116,trial,"['S', 'S', 'S', 'S', 'S', 'S', 'S', 'C', 'C', 'C', 'C', 'C', 'C', 'C', 'C', 'C', 'C', 'C', 'C', 'C', 'C', 'C', 'C']","[2173565, 2173902, 2174258, 2174676, 2175086, 2175485, 2175860, 2176263, 2176662, 2177040, 2177422, 2177824, 2178158, 2178577, 2178975, 2179366, 2179768, 2180141, 2180535, 2180945, 2181353, 2181724, 2182107]","[2173682, 2173989, 2174390, 2174833, 2175222, 2175625, 2175983, 2176395, 2176778, 2177166, 2177538, 2177917, 2178304, 2178665, 2179080, 2179483, 2179891, 2180289, 2180674, 2181062, 2181439, 2181856, 2182233]","[2173136, 2173536, 2173936, 2174337, 2174736, 2175136, 2175537, 2175936, 2176288, 2176688, 2177065, 2177447, 2177850, 2178185, 2178603, 2179002, 2179392, 2179793, 2180166, 2180560, 2180971, 2181379, 2181749, 2182133]",10,L,ITM,1.1,
7,400,trial,0,117,117,117,trial,"['S', 'S', 'S', 'S', 'S', 'S', 'S', 'C', 'C', 'C', 'C', 'C', 'C', 'C', 'C', 'C', 'C', 'C', 'C', 'C', 'C', 'C', 'C']","[2187838, 2188258, 2188655, 2189075, 2189453, 2189862, 2190284, 2190654, 2191034, 2191443, 2191848, 2192240, 2192643, 2193005, 2193413, 2193800, 2194192, 2194589, 2194967, 2195382, 2195756, 2196119, 2196500]","[2187987, 2188356, 2188782, 2189189, 2189580, 2189999, 2190442, 2190791, 2191194, 2191602, 2191977, 2192410, 2192807, 2193152, 2193573, 2193972, 2194352, 2194733, 2195101, 2195513, 2195906, 2196263, 2196692]","[2187513, 2187913, 2188313, 2188713, 2189113, 2189513, 2189914, 2190313, 2190682, 2191060, 2191471, 2191876, 2192267, 2192670, 2193033, 2193440, 2193827, 2194220, 2194616, 2194995, 2195409, 2195782, 2196146, 2196527]",10,L,ITM,1.1,
3,400,trial,0,118,118,118,trial,"['S', 'S', 'S', 'S', 'S', 'S', 'S', 'C', 'C', 'C', 'C', 'C', 'C', 'C', 'C', 'C', 'C', 'C', 'C', 'C', 'C', 'C', 'C']","[2202169, 2202679, 2203115, 2203512, 2203907, 2204318, 2204745, 2205095, 2205472, 2205907, 2206283, 2206679, 2207111, 2207521, 2207904, 2208296, 2208695, 2209116, 2209524, 2209936, 2210318, 2210745, 2211153]","[2202276, 2202771, 2203203, 2203613, 2204006, 2204430, 2204834, 2205223, 2205557, 2206008, 2206372, 2206775, 2207200, 2207625, 2207991, 2208396, 2208811, 2209209, 2209620, 2210044, 2210405, 2210811, 2211250]","[2201956, 2202356, 2202757, 2203156, 2203556, 2203956, 2204356, 2204756, 2205121, 2205498, 2205933, 2206309, 2206704, 2207136, 2207547, 2207930, 2208322, 2208720, 2209141, 2209550, 2209961, 2210343, 2210770, 2211179]",10,L,ITM,1.1,
2,600,trial,0,119,119,119,trial,"['S', 'S', 'S', 'S', 'S', 'S', 'S', 'C', 'C', 'C', 'C', 'C', 'C', 'C', 'C', 'C', 'C', 'C', 'C', 'C', 'C', 'C', 'C']","[2217111, 2217831, 2218399, 2219024, 2219589, 2220271, 2220902, 2221450, 2222004, 2222577, 2223097, 2223600, 2224117, 2224577, 2225020, 2225418, 2225765, 2226128, 2226494, 2226929, 2227289, 2227660, 2228098]","[2217213, 2217973, 2218601, 2219279, 2219843, 2220490, 2221102, 2221692, 2222231, 2222769, 2223286, 2223789, 2224224, 2224712, 2225141, 2225552, 2225893, 2226238, 2226586, 2227064, 2227421, 2227816, 2228300]","[2216724, 2217324, 2217924, 2218524, 2219124, 2219724, 2220324, 2220923, 2221477, 2222031, 2222605, 2223125, 2223628, 2224145, 2224604, 2225048, 2225445, 2225792, 2226156, 2226522, 2226957, 2227315, 2227688, 2228125]",10,L,ITM,1.1,
6,600,trial,0,120,120,120,trial,"['S', 'S', 'S', 'S', 'S', 'C', 'C', 'C', 'C', 'C', 'C', 'C', 'C', 'C', 'C', 'C', 'C', 'C', 'C', 'C', 'C']","[2235061, 2235753, 2236344, 2236951, 2237542, 2238148, 2238702, 2239264, 2239818, 2240375, 2241099, 2241717, 2242293, 2242855, 2243459, 2244025, 2244658, 2245326, 2245994, 2246604, 2247249]","[2235325, 2235982, 2236585, 2237136, 2237734, 2238333, 2238845, 2239394, 2239905, 2240457, 2241212, 2241846, 2242381, 2242948, 2243621, 2244253, 2244744, 2245412, 2246086, 2246699, 2247417]","[2233453, 2234053, 2234653, 2235253, 2235853, 2236453, 2237053, 2237654, 2238176, 2238729, 2239291, 2239846, 2240402, 2241126, 2241743, 2242321, 2242883, 2243485, 2244051, 2244685, 2245353, 2246022, 2246631, 2247277]",10,L,ITM,1.1,
5,600,trial,0,121,121,121,trial,"['S', 'S', 'S', 'S', 'S', 'S', 'S', 'C', 'C', 'C', 'C', 'C', 'C', 'C', 'C', 'C', 'C', 'C', 'C', 'C', 'C', 'C', 'C']","[2253228, 2253930, 2254429, 2255067, 2255716, 2256345, 2256900, 2257523, 2258098, 2258743, 2259357, 2259934, 2260525, 2261112, 2261658, 2262261, 2262865, 2263496, 2264088, 2264705, 2265277, 2265894, 2266496]","[2253315, 2253972, 2254650, 2255381, 2256001, 2256621, 2257239, 2257777, 2258340, 2258968, 2259567, 2260118, 2260771, 2261335, 2261938, 2262598, 2263234, 2263780, 2264434, 2265036, 2265536, 2266255, 2266755]","[2252793, 2253392, 2253992, 2254593, 2255193, 2255793, 2256392, 2256992, 2257549, 2258123, 2258768, 2259383, 2259959, 2260550, 2261138, 2261684, 2262287, 2262891, 2263522, 2264115, 2264731, 2265303, 2265920, 2266521]",10,L,ITM,1.1,
7,400,trial,0,122,122,122,trial,"['S', 'S', 'S', 'S', 'S', 'S', 'S', 'C', 'C', 'C', 'C', 'C', 'C', 'C', 'C', 'C', 'C', 'C', 'C', 'C', 'C', 'C', 'C']","[2272086, 2272590, 2272965, 2273373, 2273822, 2274221, 2274560, 2274988, 2275342, 2275712, 2276090, 2276463, 2276812, 2277241, 2277570, 2277905, 2278297, 2278745, 2279136, 2279570, 2279947, 2280338, 2280743]","[2272197, 2272669, 2273097, 2273530, 2273959, 2274344, 2274708, 2275137, 2275488, 2275848, 2276226, 2276614, 2276964, 2277346, 2277681, 2278028, 2278447, 2278872, 2279285, 2279703, 2280098, 2280503, 2280857]","[2271861, 2272261, 2272660, 2273060, 2273460, 2273860, 2274260, 2274660, 2275014, 2275369, 2275739, 2276117, 2276491, 2276839, 2277269, 2277597, 2277933, 2278324, 2278772, 2279163, 2279597, 2279974, 2280366, 2280770]",10,L,ITM,1.1,
5,400,trial,0,123,123,123,trial,"['S', 'S', 'S', 'S', 'S', 'S', 'S', 'C', 'C', 'C', 'C', 'C', 'C', 'C', 'C', 'C', 'C', 'C', 'C', 'C', 'C', 'C', 'C', 'C']","[2286376, 2286766, 2287229, 2287649, 2288054, 2288477, 2288819, 2289195, 2289684, 2290014, 2290451, 2290880, 2291321, 2291747, 2292139, 2292581, 2293009, 2293456, 2293803, 2294275, 2294702, 2295169, 2295490, 2295596]","[2286509, 2286899, 2287371, 2287817, 2288164, 2288585, 2288904, 2289300, 2289788, 2290134, 2290561, 2290989, 2291392, 2291825, 2292235, 2292695, 2293092, 2293551, 2293926, 2294388, 2294810, 2295270, 2295516, 2295617]","[2286123, 2286522, 2286922, 2287323, 2287722, 2288122, 2288522, 2288922, 2289220, 2289711, 2290039, 2290477, 2290906, 2291347, 2291773, 2292164, 2292606, 2293036, 2293483, 2293828, 2294301, 2294728, 2295194, 2295516]",10,L,ITM,1.1,
5,600,trial,0,124,124,124,trial,"['S', 'S', 'S', 'S', 'S', 'S', 'C', 'C', 'C', 'C', 'C', 'C', 'C', 'C', 'C', 'C', 'C', 'C', 'C', 'C', 'C', 'C']","[2301363, 2302041, 2303241, 2303867, 2304536, 2305189, 2305689, 2306304, 2306910, 2307500, 2308009, 2308603, 2309231, 2309790, 2310406, 2311050, 2311640, 2312253, 2312775, 2313379, 2313930, 2314512]","[2301528, 2302416, 2303425, 2304111, 2304716, 2305316, 2305830, 2306406, 2307006, 2307627, 2308211, 2308857, 2309363, 2310030, 2310535, 2311163, 2311725, 2312357, 2312937, 2313563, 2314187, 2314684]","[2300976, 2301575, 2302175, 2302775, 2303375, 2303975, 2304575, 2305175, 2305716, 2306329, 2306935, 2307525, 2308036, 2308630, 2309257, 2309816, 2310431, 2311075, 2311665, 2312280, 2312801, 2313406, 2313956, 2314539]",10,L,ITM,1.1,
6,400,trial,0,125,125,125,trial,"['S', 'S', 'S', 'S', 'S', 'S', 'S', 'C', 'C', 'C', 'C', 'C', 'C', 'C', 'C', 'C', 'C', 'C', 'C', 'C', 'C', 'C', 'C']","[2320263, 2320602, 2320961, 2321400, 2321823, 2322212, 2322591, 2322963, 2323357, 2323767, 2324150, 2324542, 2324940, 2325302, 2325694, 2326108, 2326545, 2326945, 2327365, 2327775, 2328132, 2328517, 2328891]","[2320372, 2320693, 2321086, 2321508, 2321948, 2322330, 2322702, 2323136, 2323496, 2323896, 2324250, 2324680, 2325064, 2325466, 2325847, 2326241, 2326645, 2327099, 2327476, 2327907, 2328273, 2328627, 2329009]","[2319849, 2320248, 2320648, 2321048, 2321448, 2321848, 2322248, 2322649, 2322990, 2323384, 2323793, 2324176, 2324570, 2324967, 2325328, 2325721, 2326134, 2326572, 2326972, 2327393, 2327801, 2328160, 2328545, 2328918]",10,L,ITM,1.1,
