octave,ioi,event,.thisRepN,.thisTrialN,.thisN,.thisIndex,event,tap_types,tap_times,release_times,tone_times,subject,handedness,experiment,version,
,,SPR,0,-1,-1,0,SPR,"['P', 'P', 'P', 'P', 'P', 'P', 'P', 'P', 'P', 'P', 'P', 'P', 'P', 'P', 'P', 'P', 'P', 'P', 'P', 'P', 'P', 'P', 'P', 'P', 'P', 'P', 'P', 'P', 'P', 'P']","[48559, 52418, 55396, 57583, 58293, 58873, 59526, 60198, 60774, 61396, 62030, 62652, 63254, 63832, 64404, 65027, 65646, 66274, 66848, 67473, 68109, 68700, 69302, 69906, 70480, 71042, 71596, 72216, 72838, 73459]","[48704, 53463, 55564, 57719, 58401, 59002, 59709, 60349, 60941, 61560, 62222, 62861, 63440, 64041, 64594, 65227, 65820, 66476, 67058, 67689, 68331, 68974, 69548, 70138, 70739, 71280, 71828, 72430, 73066, 73688]",,36,R,ITM,1.1,
7,500,practice,0,0,0,0,practice,"['S', 'S', 'S', 'S', 'S', 'S', 'S', 'C', 'C', 'C', 'C', 'C', 'C', 'C', 'C', 'C', 'C', 'C', 'C', 'C', 'C', 'C', 'C']","[136819, 137319, 137842, 138368, 138855, 139381, 139889, 140391, 140850, 141384, 141917, 142416, 142949, 143423, 143900, 144345, 144801, 145289, 145781, 146275, 146765, 147282, 147764]","[137000, 137478, 138018, 138537, 139020, 139541, 140053, 140541, 141015, 141509, 142058, 142576, 143113, 143581, 144045, 144518, 144976, 145430, 145914, 146404, 146881, 147404, 147889]","[136400, 136899, 137399, 137900, 138399, 138899, 139400, 139900, 140418, 140877, 141411, 141944, 142443, 142976, 143450, 143927, 144372, 144828, 145316, 145809, 146301, 146793, 147309, 147790]",36,R,ITM,1.1,
5,500,practice,0,1,1,1,practice,"['S', 'S', 'S', 'S', 'S', 'S', 'S', 'C', 'C', 'C', 'C', 'C', 'C', 'C', 'C', 'C', 'C', 'C', 'C', 'C', 'C', 'C', 'C', 'C']","[153468, 154051, 154566, 155036, 155577, 156054, 156519, 156995, 157389, 157751, 158068, 158370, 158659, 158966, 159229, 163024, 163522, 164012, 164484, 164930, 165406, 165837, 166244, 166634]","[153708, 154183, 154692, 155170, 155701, 156191, 156638, 157135, 157526, 157853, 158199, 158509, 158810, 159066, 159334, 163253, 163725, 164260, 164649, 165130, 165548, 165947, 166373, 166758]","[153097, 153597, 154097, 154597, 155098, 155597, 156097, 156597, 157022, 157415, 157776, 158094, 158397, 158686, 158992, 163051, 163548, 164037, 164509, 164956, 165433, 165863, 166269, 166661]",36,R,ITM,1.1,
3,500,practice,0,2,2,2,practice,"['S', 'S', 'S', 'S', 'S', 'S', 'S', 'C', 'C', 'C', 'C', 'C', 'C', 'C', 'C', 'C', 'C', 'C', 'C', 'C', 'C', 'C', 'C']","[172573, 173139, 173667, 174135, 174609, 175118, 175695, 176150, 176664, 177138, 177643, 178061, 178590, 179084, 179577, 180016, 180534, 181048, 181524, 181996, 182474, 182977, 183433]","[172739, 173306, 173764, 174311, 174760, 175283, 175819, 176295, 176803, 177288, 177770, 178215, 178731, 179215, 179691, 180170, 180697, 181186, 181646, 182132, 182644, 183110, 183575]","[172211, 172710, 173210, 173710, 174211, 174710, 175210, 175710, 176176, 176690, 177164, 177669, 178086, 178616, 179109, 179603, 180041, 180559, 181073, 181550, 182022, 182500, 183003, 183458]",36,R,ITM,1.1,
2,500,practice,0,3,3,3,practice,"['S', 'S', 'S', 'S', 'S', 'S', 'S', 'C', 'C', 'C', 'C', 'C', 'C', 'C', 'C', 'C', 'C', 'C', 'C', 'C', 'C', 'C', 'C']","[189253, 189763, 190270, 190840, 191344, 191798, 192317, 192835, 193339, 193813, 194309, 194778, 195258, 195788, 196310, 196773, 197315, 197859, 198298, 198793, 199247, 199717, 200250]","[189376, 189949, 190471, 191023, 191527, 191997, 192523, 193039, 193510, 194017, 194485, 194993, 195533, 196012, 196498, 196937, 197492, 198023, 198512, 198980, 199462, 199858, 200365]","[188876, 189376, 189875, 190376, 190876, 191376, 191876, 192375, 192863, 193367, 193840, 194336, 194805, 195286, 195815, 196337, 196800, 197343, 197886, 198325, 198820, 199275, 199744, 200278]",36,R,ITM,1.1,
4,500,practice,0,4,4,4,practice,"['S', 'S', 'S', 'S', 'S', 'S', 'S', 'C', 'C', 'C', 'C', 'C', 'C', 'C', 'C', 'C', 'C', 'C', 'C', 'C', 'C', 'C', 'C']","[206272, 206723, 207340, 207917, 208413, 208914, 209442, 209964, 210450, 210905, 211402, 211915, 212387, 212850, 213356, 213888, 214359, 214837, 215291, 215815, 216209, 216775, 217348]","[206402, 206910, 207504, 208033, 208551, 209074, 209591, 210106, 210599, 211062, 211573, 212070, 212541, 213029, 213501, 214040, 214533, 215012, 215430, 215975, 216431, 216980, 217499]","[206047, 206547, 207047, 207547, 208048, 208547, 209047, 209547, 209989, 210476, 210930, 211428, 211942, 212413, 212876, 213382, 213913, 214384, 214862, 215317, 215840, 216235, 216801, 217373]",36,R,ITM,1.1,
6,500,practice,0,5,5,5,practice,"['S', 'S', 'S', 'S', 'S', 'S', 'S', 'C', 'C', 'C', 'C', 'C', 'C', 'C', 'C', 'C', 'C', 'C', 'C', 'C', 'C', 'C', 'C']","[223373, 223868, 224402, 224939, 225449, 225958, 226462, 226952, 227443, 227966, 228464, 228922, 229454, 229952, 230425, 230892, 231435, 231947, 232393, 232907, 233431, 233905, 234398]","[223511, 224013, 224546, 225046, 225577, 226040, 226565, 227069, 227599, 228099, 228596, 229084, 229595, 230086, 230592, 231055, 231571, 232103, 232538, 233056, 233594, 234096, 234592]","[222979, 223477, 223977, 224478, 224978, 225478, 225978, 226479, 226978, 227470, 227993, 228491, 228948, 229481, 229980, 230452, 230919, 231461, 231973, 232420, 232934, 233458, 233931, 234425]",36,R,ITM,1.1,
3,600,trial,0,6,6,6,trial,"['S', 'S', 'S', 'S', 'S', 'S', 'S', 'S', 'C', 'C', 'C', 'C', 'C', 'C', 'C', 'C', 'C', 'C', 'C', 'C', 'C', 'C', 'C', 'C']","[323923, 324306, 324825, 325396, 325982, 326654, 327281, 327925, 328560, 329144, 329715, 330297, 330865, 331429, 332009, 332619, 333230, 333827, 334392, 334993, 335547, 336167, 336801, 337401]","[324087, 324444, 324987, 325549, 326152, 326829, 327502, 328078, 328715, 329333, 329872, 330463, 331052, 331617, 332226, 332900, 333468, 334111, 334696, 335272, 335819, 336427, 337014, 337589]","[323723, 324323, 324923, 325523, 326123, 326723, 327323, 327923, 328586, 329169, 329741, 330322, 330891, 331455, 332035, 332645, 333255, 333852, 334417, 335019, 335572, 336193, 336827, 337427]",36,R,ITM,1.1,
6,400,trial,0,7,7,7,trial,"['S', 'S', 'S', 'S', 'S', 'S', 'S', 'C', 'C', 'C', 'C', 'C', 'C', 'C', 'C', 'C', 'C', 'C', 'C', 'C', 'C', 'C', 'C']","[343261, 343641, 344000, 344397, 344796, 345191, 345609, 346050, 346444, 346892, 347281, 347666, 348039, 348436, 348811, 349185, 349506, 349950, 350358, 350786, 351198, 351665, 352050]","[343399, 343725, 344104, 344487, 344897, 345322, 345739, 346183, 346555, 347001, 347374, 347773, 348151, 348540, 348915, 349298, 349636, 350085, 350492, 350887, 351310, 351778, 352158]","[342922, 343322, 343723, 344122, 344522, 344923, 345322, 345722, 346078, 346472, 346918, 347308, 347693, 348065, 348464, 348837, 349212, 349533, 349978, 350386, 350813, 351225, 351691, 352076]",36,R,ITM,1.1,
2,400,trial,0,8,8,8,trial,"['S', 'S', 'S', 'S', 'S', 'S', 'S', 'C', 'C', 'C', 'C', 'C', 'C', 'C', 'C', 'C', 'C', 'C', 'C', 'C', 'C', 'C', 'C']","[358089, 358519, 358918, 359380, 359759, 360198, 360593, 360990, 361411, 361782, 362183, 362530, 362945, 363352, 363699, 364116, 364525, 364901, 365340, 365728, 366129, 366516, 366872]","[358209, 358630, 359009, 359459, 359842, 360290, 360696, 361117, 361528, 361926, 362300, 362693, 363080, 363488, 363845, 364258, 364641, 365057, 365451, 365847, 366233, 366644, 366998]","[357830, 358231, 358630, 359030, 359430, 359829, 360230, 360629, 361017, 361438, 361809, 362211, 362558, 362972, 363378, 363726, 364144, 364553, 364928, 365367, 365755, 366155, 366542, 366900]",36,R,ITM,1.1,
5,600,trial,0,9,9,9,trial,"['S', 'S', 'S', 'S', 'S', 'S', 'S', 'S', 'C', 'C', 'C', 'C', 'C', 'C', 'C', 'C', 'C', 'C', 'C', 'C', 'C', 'C', 'C', 'C']","[372660, 373135, 373559, 374197, 374806, 375345, 375918, 376484, 377191, 377686, 378105, 378501, 378873, 379230, 379604, 379988, 380394, 380921, 381481, 382095, 382696, 383271, 383863, 384447]","[372770, 373255, 373679, 374309, 374956, 375500, 376115, 376637, 377335, 377798, 378218, 378599, 378993, 379358, 379701, 380104, 380526, 381066, 381614, 382239, 382854, 383426, 384025, 384582]","[372450, 373050, 373650, 374250, 374850, 375450, 376050, 376650, 377217, 377711, 378131, 378526, 378899, 379256, 379629, 380014, 380421, 380947, 381507, 382120, 382722, 383297, 383889, 384473]",36,R,ITM,1.1,
6,400,trial,0,10,10,10,trial,"['S', 'S', 'S', 'S', 'S', 'S', 'S', 'C', 'C', 'C', 'C', 'C', 'C', 'C', 'C', 'C', 'C', 'C', 'C', 'C', 'C', 'C', 'C']","[390111, 390423, 390863, 391257, 391685, 392094, 392542, 392958, 393337, 393684, 394052, 394480, 394877, 395399, 395800, 396212, 396621, 397003, 397428, 397871, 398330, 398818, 399347]","[390230, 390556, 390983, 391393, 391791, 392197, 392637, 393073, 393420, 393785, 394203, 394620, 394988, 395503, 395917, 396323, 396747, 397127, 397561, 397993, 398451, 398936, 399462]","[389875, 390275, 390674, 391074, 391475, 391875, 392275, 392675, 392984, 393365, 393711, 394079, 394508, 394904, 395425, 395827, 396238, 396648, 397031, 397456, 397897, 398357, 398845, 399375]",36,R,ITM,1.1,
3,400,trial,0,11,11,11,trial,"['S', 'S', 'S', 'S', 'S', 'S', 'S', 'C', 'C', 'C', 'C', 'C', 'C', 'C', 'C', 'C', 'C', 'C', 'C', 'C', 'C', 'C', 'C']","[405323, 405698, 406088, 406502, 406913, 407331, 407739, 408135, 408503, 408934, 409345, 409718, 410089, 410526, 410908, 411294, 411682, 412154, 412535, 412955, 413341, 413673, 414028]","[405428, 405821, 406274, 406641, 407041, 407450, 407874, 408262, 408667, 409084, 409436, 409835, 410244, 410652, 411045, 411435, 411846, 412278, 412703, 413077, 413451, 413834, 414142]","[404962, 405361, 405762, 406161, 406561, 406962, 407362, 407762, 408161, 408528, 408960, 409370, 409744, 410115, 410552, 410934, 411320, 411708, 412180, 412561, 412981, 413367, 413699, 414054]",36,R,ITM,1.1,
2,600,trial,0,12,12,12,trial,"['S', 'S', 'S', 'S', 'S', 'S', 'S', 'S', 'C', 'C', 'C', 'C', 'C', 'C', 'C', 'C', 'C', 'C', 'C', 'C', 'C', 'C', 'C', 'C']","[419656, 419904, 420568, 421217, 421860, 422426, 423061, 423718, 424288, 424822, 425427, 425999, 426589, 427175, 427726, 428286, 428820, 429365, 429898, 430446, 431102, 431697, 432258, 432847]","[419761, 420039, 420731, 421397, 422093, 422662, 423277, 423887, 424519, 425091, 425668, 426255, 426843, 427435, 427988, 428556, 429134, 429623, 430158, 430717, 431332, 431991, 432529]","[419559, 420159, 420759, 421359, 421959, 422559, 423159, 423758, 424315, 424849, 425455, 426025, 426615, 427203, 427754, 428312, 428847, 429392, 429925, 430474, 431130, 431724, 432285, 432875]",36,R,ITM,1.1,
7,400,trial,0,13,13,13,trial,"['S', 'S', 'S', 'S', 'S', 'S', 'S', 'C', 'C', 'C', 'C', 'C', 'C', 'C', 'C', 'C', 'C', 'C', 'C', 'C', 'C', 'C', 'C']","[438544, 438920, 439369, 439784, 440232, 440659, 441075, 441505, 441927, 442301, 442693, 443094, 443494, 443886, 444282, 444672, 445050, 445431, 445855, 446187, 446675, 447112, 447509]","[438629, 439057, 439479, 439928, 440377, 440811, 441207, 441644, 442044, 442457, 442863, 443270, 443630, 444067, 444431, 444874, 445241, 445591, 446015, 446394, 446823, 447284, 447669]","[438304, 438704, 439103, 439503, 439903, 440303, 440704, 441103, 441533, 441955, 442328, 442721, 443121, 443521, 443914, 444310, 444699, 445077, 445458, 445882, 446215, 446703, 447139, 447536]",36,R,ITM,1.1,
3,600,trial,0,14,14,14,trial,"['S', 'S', 'S', 'S', 'S', 'S', 'S', 'S', 'C', 'C', 'C', 'C', 'C', 'C', 'C', 'C', 'C', 'C', 'C', 'C', 'C', 'C', 'C', 'C']","[453284, 453618, 454192, 454844, 455453, 456051, 456735, 457330, 457876, 458418, 458979, 459510, 460086, 460613, 461216, 461787, 462358, 462944, 463507, 464039, 464612, 465142, 465710, 466244]","[453363, 453723, 454288, 454968, 455586, 456195, 456862, 457438, 458023, 458591, 459130, 459678, 460206, 460797, 461398, 461937, 462526, 463055, 463653, 464210, 464743, 465303, 465819, 466382]","[453121, 453721, 454321, 454920, 455520, 456120, 456720, 457320, 457902, 458443, 459004, 459536, 460111, 460639, 461242, 461812, 462384, 462969, 463533, 464065, 464637, 465168, 465735, 466270]",36,R,ITM,1.1,
4,400,trial,0,15,15,15,trial,"['S', 'S', 'S', 'S', 'S', 'S', 'S', 'C', 'C', 'C', 'C', 'C', 'C', 'C', 'C', 'C', 'C', 'C', 'C', 'C', 'C', 'C', 'C']","[472346, 472748, 473102, 473498, 473884, 474250, 474704, 475137, 475452, 475841, 476292, 476771, 477194, 477673, 478118, 478540, 478957, 479388, 479809, 480253, 480695, 481102, 481575]","[472458, 472834, 473183, 473596, 473982, 474377, 474812, 475233, 475571, 475953, 476407, 476867, 477310, 477769, 478221, 478687, 479086, 479475, 479929, 480346, 480805, 481202, 481674]","[471977, 472376, 472776, 473177, 473576, 473976, 474376, 474776, 475162, 475478, 475867, 476317, 476797, 477219, 477699, 478144, 478566, 478983, 479414, 479835, 480279, 480720, 481128, 481601]",36,R,ITM,1.1,
3,400,trial,0,16,16,16,trial,"['S', 'S', 'S', 'S', 'S', 'S', 'S', 'S', 'C', 'C', 'C', 'C', 'C', 'C', 'C', 'C', 'C', 'C', 'C', 'C', 'C', 'C', 'C', 'C']","[487563, 487876, 488228, 488563, 488927, 489244, 489709, 490074, 490474, 490848, 491294, 491682, 492106, 492460, 492939, 493385, 493796, 494247, 494718, 495185, 495707, 496155, 496646, 497122]","[487651, 487962, 488308, 488654, 489038, 489395, 489791, 490214, 490617, 490985, 491417, 491819, 492226, 492645, 493070, 493501, 493941, 494392, 494824, 495297, 495847, 496309, 496775, 497257]","[487328, 487728, 488127, 488527, 488927, 489327, 489728, 490127, 490500, 490873, 491320, 491708, 492132, 492485, 492964, 493411, 493821, 494273, 494744, 495211, 495732, 496181, 496671, 497147]",36,R,ITM,1.1,
2,600,trial,0,17,17,17,trial,"['S', 'S', 'S', 'S', 'S', 'S', 'S', 'S', 'C', 'C', 'C', 'C', 'C', 'C', 'C', 'C', 'C', 'C', 'C', 'C', 'C', 'C', 'C', 'C']","[502857, 503340, 503796, 504307, 504888, 505494, 506124, 506759, 507353, 507885, 508483, 509108, 509677, 510234, 510845, 511453, 512104, 512651, 513204, 513740, 514288, 514842, 515430, 515960]","[502965, 503447, 503946, 504477, 505015, 505637, 506252, 506887, 507517, 508092, 508648, 509252, 509830, 510437, 511044, 511602, 512289, 512856, 513418, 513915, 514506, 515053, 515622, 516182]","[502558, 503158, 503757, 504358, 504957, 505559, 506159, 506759, 507380, 507913, 508510, 509134, 509704, 510262, 510872, 511480, 512132, 512678, 513230, 513767, 514315, 514869, 515458, 515988]",36,R,ITM,1.1,
6,600,trial,0,18,18,18,trial,"['S', 'S', 'S', 'S', 'S', 'S', 'S', 'S', 'C', 'C', 'C', 'C', 'C', 'C', 'C', 'C', 'C', 'C', 'C', 'C', 'C', 'C', 'C', 'C']","[528236, 528576, 529061, 529662, 530292, 530850, 531434, 531989, 532573, 533067, 533637, 534215, 534797, 535377, 535912, 536534, 537154, 537741, 538328, 538962, 539592, 540195, 540817, 541445]","[528352, 528732, 529262, 529849, 530457, 531019, 531620, 532186, 532775, 533253, 533864, 534433, 535008, 535563, 536123, 536691, 537323, 537925, 538519, 539131, 539789, 540390, 540975, 541605]","[527973, 528572, 529172, 529772, 530372, 530972, 531572, 532172, 532600, 533094, 533663, 534243, 534824, 535405, 535939, 536560, 537181, 537768, 538354, 538990, 539620, 540223, 540845, 541472]",36,R,ITM,1.1,
4,400,trial,0,19,19,19,trial,"['S', 'S', 'S', 'S', 'S', 'S', 'S', 'C', 'C', 'C', 'C', 'C', 'C', 'C', 'C', 'C', 'C', 'C', 'C', 'C', 'C', 'C', 'C']","[547043, 547450, 547844, 548227, 548697, 549114, 549502, 549961, 550339, 550727, 551107, 551547, 551952, 552425, 552845, 553291, 553693, 554181, 554587, 555002, 555403, 555814, 556193]","[547158, 547546, 547930, 548367, 548822, 549239, 549649, 550079, 550473, 550860, 551261, 551663, 552109, 552538, 552980, 553419, 553836, 554308, 554719, 555154, 555547, 555977, 556384]","[546767, 547167, 547567, 547968, 548367, 548767, 549168, 549567, 549987, 550366, 550754, 551133, 551573, 551979, 552451, 552870, 553317, 553718, 554208, 554612, 555028, 555428, 555840, 556219]",36,R,ITM,1.1,
5,400,trial,0,20,20,20,trial,"['S', 'S', 'S', 'S', 'S', 'S', 'S', 'S', 'C', 'C', 'C', 'C', 'C', 'C', 'C', 'C', 'C', 'C', 'C', 'C', 'C', 'C', 'C', 'C']","[561951, 562219, 562525, 562850, 563258, 563649, 564027, 564471, 564890, 565274, 565627, 566070, 566488, 566909, 567322, 567746, 568151, 568569, 568978, 569400, 569831, 570254, 570672, 571079]","[562024, 562297, 562621, 562973, 563367, 563772, 564172, 564602, 565031, 565414, 565780, 566204, 566623, 567061, 567453, 567881, 568307, 568705, 569106, 569525, 569956, 570345, 570805, 571217]","[561721, 562120, 562521, 562920, 563320, 563720, 564120, 564520, 564917, 565301, 565653, 566095, 566513, 566935, 567348, 567773, 568176, 568595, 569004, 569425, 569857, 570279, 570697, 571105]",36,R,ITM,1.1,
7,600,trial,0,21,21,21,trial,"['S', 'S', 'S', 'S', 'S', 'S', 'S', 'S', 'C', 'C', 'C', 'C', 'C', 'C', 'C', 'C', 'C', 'C', 'C', 'C', 'C', 'C', 'C', 'C', 'C']","[576893, 577249, 577708, 578228, 578797, 579424, 580075, 580680, 581262, 581826, 582363, 582943, 583491, 583993, 584536, 585073, 585646, 586217, 586713, 586820, 587335, 587884, 588443, 589040, 589659]","[576980, 577392, 577920, 578444, 579001, 579617, 580268, 580881, 581466, 582000, 582518, 583103, 583641, 584162, 584733, 585250, 585790, 586376, 586740, 586873, 587456, 588089, 588617, 589234, 589846]","[576594, 577193, 577794, 578394, 578994, 579593, 580193, 580793, 581289, 581853, 582389, 582970, 583518, 584019, 584563, 585101, 585672, 586245, 586740, 587363, 587911, 588470, 589068, 589686]",36,R,ITM,1.1,
7,400,trial,0,22,22,22,trial,"['S', 'S', 'S', 'S', 'S', 'S', 'S', 'S', 'C', 'C', 'C', 'C', 'C', 'C', 'C', 'C', 'C', 'C', 'C', 'C', 'C', 'C', 'C', 'C']","[595519, 595809, 596136, 596459, 596850, 597200, 597588, 597976, 598385, 598771, 599176, 599568, 599970, 600342, 600762, 601163, 601560, 601957, 602402, 602801, 603240, 603632, 604044, 604454]","[595599, 595931, 596254, 596593, 596957, 597332, 597718, 598115, 598495, 598892, 599297, 599712, 600102, 600495, 600887, 601282, 601682, 602090, 602537, 602924, 603322, 603725, 604153, 604563]","[595231, 595632, 596031, 596431, 596831, 597231, 597632, 598031, 598412, 598798, 599202, 599596, 599997, 600370, 600788, 601191, 601587, 601985, 602430, 602827, 603267, 603659, 604071, 604481]",36,R,ITM,1.1,
4,600,trial,0,23,23,23,trial,"['S', 'S', 'S', 'S', 'S', 'S', 'S', 'S', 'S', 'C', 'C', 'C', 'C', 'C', 'C', 'C', 'C', 'C', 'C', 'C', 'C', 'C', 'C', 'C', 'C']","[610144, 610470, 610962, 611527, 612165, 612782, 612883, 613394, 613998, 614565, 615170, 615712, 616365, 616898, 617455, 618007, 618564, 619103, 619659, 620253, 620814, 621337, 621932, 622499, 623125]","[610265, 610633, 611176, 611775, 612382, 612802, 612953, 613587, 614176, 614759, 615309, 615920, 616497, 617080, 617640, 618167, 618730, 619275, 619799, 620368, 620975, 621506, 622074, 622647, 623268]","[609858, 610458, 611058, 611658, 612258, 612858, 613458, 614059, 614591, 615195, 615738, 616390, 616925, 617481, 618033, 618590, 619128, 619684, 620279, 620839, 621363, 621958, 622525, 623151]",36,R,ITM,1.1,
5,400,trial,0,24,24,24,trial,"['S', 'S', 'S', 'S', 'S', 'S', 'S', 'S', 'S', 'C', 'C', 'C', 'C', 'C', 'C', 'C', 'C', 'C', 'C', 'C', 'C', 'C', 'C', 'C', 'C']","[629185, 629550, 629922, 630344, 630753, 630853, 631137, 631558, 631658, 631979, 632375, 632778, 633182, 633561, 633931, 634399, 634781, 635190, 635584, 635942, 636378, 636765, 637175, 637586, 637979]","[629288, 629629, 629992, 630364, 630773, 630884, 631281, 631578, 631678, 632110, 632495, 632898, 633298, 633694, 634087, 634533, 634921, 635321, 635697, 636083, 636510, 636884, 637299, 637707, 638110]","[628842, 629242, 629642, 630042, 630443, 630842, 631242, 631643, 632004, 632401, 632804, 633207, 633587, 633957, 634425, 634807, 635215, 635610, 635969, 636403, 636791, 637201, 637612, 638005]",36,R,ITM,1.1,
5,600,trial,0,25,25,25,trial,"['S', 'S', 'S', 'S', 'S', 'S', 'S', 'S', 'S', 'S', 'S', 'C', 'C', 'C', 'C', 'C', 'C', 'C', 'C', 'C', 'C', 'C', 'C', 'C', 'C', 'C', 'C']","[643674, 643994, 644606, 645132, 645777, 646413, 646513, 646948, 647048, 647524, 647624, 648160, 648767, 649372, 650012, 650583, 651197, 651782, 652349, 652889, 653509, 654113, 654707, 655246, 655794, 656336, 656855]","[643752, 644137, 644790, 645319, 645961, 646433, 646580, 646968, 647174, 647544, 647752, 648381, 648979, 649590, 650245, 650768, 651368, 651935, 652508, 653072, 653652, 654265, 654844, 655408, 655942, 656502, 657033]","[643422, 644021, 644621, 645221, 645821, 646421, 647021, 647621, 648185, 648793, 649399, 650038, 650608, 651223, 651807, 652375, 652914, 653535, 654139, 654734, 655271, 655819, 656362, 656880]",36,R,ITM,1.1,
6,600,trial,0,26,26,26,trial,"['S', 'S', 'S', 'S', 'S', 'S', 'S', 'S', 'C', 'C', 'C', 'C', 'C', 'C', 'C', 'C', 'C', 'C', 'C', 'C', 'C', 'C', 'C', 'C']","[662638, 662948, 663452, 664081, 664684, 665264, 665839, 666437, 667043, 667580, 668190, 668791, 669478, 670065, 670789, 671391, 672009, 672747, 673235, 673748, 674206, 674698, 675273, 675759]","[662736, 663084, 663703, 664340, 664951, 665451, 666062, 666642, 667222, 667766, 668372, 668967, 669613, 670244, 670921, 671537, 672168, 672924, 673433, 673879, 674380, 674846, 675398, 675926]","[662386, 662985, 663585, 664185, 664785, 665385, 665986, 666586, 667070, 667607, 668217, 668818, 669506, 670092, 670816, 671418, 672036, 672775, 673262, 673776, 674233, 674724, 675300, 675785]",36,R,ITM,1.1,
7,600,trial,0,27,27,27,trial,"['S', 'S', 'S', 'S', 'S', 'S', 'S', 'S', 'C', 'C', 'C', 'C', 'C', 'C', 'C', 'C', 'C', 'C', 'C', 'C', 'C', 'C', 'C', 'C']","[681436, 681759, 682234, 682864, 683471, 684062, 684687, 685303, 685935, 686481, 687048, 687621, 688184, 688746, 689299, 689820, 690309, 690813, 691334, 691856, 692387, 692910, 693417, 693919]","[681548, 681922, 682439, 683080, 683729, 684337, 684936, 685541, 686140, 686643, 687163, 687760, 688343, 688858, 689412, 689953, 690432, 690949, 691451, 691979, 692514, 693019, 693549, 694060]","[681132, 681731, 682331, 682931, 683531, 684131, 684731, 685331, 685963, 686509, 687075, 687647, 688210, 688774, 689327, 689848, 690336, 690841, 691361, 691884, 692414, 692937, 693443, 693946]",36,R,ITM,1.1,
4,600,trial,0,28,28,28,trial,"['S', 'S', 'S', 'S', 'S', 'S', 'S', 'S', 'S', 'S', 'C', 'C', 'C', 'C', 'C', 'C', 'C', 'C', 'C', 'C', 'C', 'C', 'C', 'C', 'C', 'C', 'C']","[699724, 700060, 700539, 701090, 701705, 701805, 702338, 703106, 703571, 703671, 704141, 704694, 705293, 705879, 706436, 707022, 707686, 708224, 708748, 709341, 709929, 710472, 711003, 711548, 712132, 712238, 712737]","[699860, 700209, 700763, 701305, 701725, 701872, 702468, 703143, 703591, 703730, 704330, 704892, 705482, 706041, 706592, 707151, 707798, 708390, 708920, 709496, 710091, 710620, 711152, 711688, 712158, 712258, 712875]","[699362, 699961, 700561, 701161, 701761, 702361, 702961, 703561, 704166, 704719, 705318, 705904, 706461, 707048, 707712, 708249, 708773, 709366, 709955, 710499, 711029, 711574, 712158, 712763]",36,R,ITM,1.1,
2,400,trial,0,29,29,29,trial,"['S', 'S', 'S', 'S', 'S', 'S', 'S', 'C', 'C', 'C', 'C', 'C', 'C', 'C', 'C', 'C', 'C', 'C', 'C', 'C', 'C', 'C', 'C']","[718861, 719193, 719578, 720040, 720510, 721042, 721387, 721787, 722155, 722611, 722983, 723374, 723782, 724169, 724528, 724939, 725362, 725798, 726164, 726578, 726994, 727419, 727895]","[718982, 719279, 719650, 720060, 720638, 721120, 721466, 721863, 722283, 722709, 723107, 723508, 723916, 724304, 724676, 725096, 725497, 725933, 726313, 726723, 727129, 727534, 728016]","[718544, 718944, 719344, 719744, 720144, 720543, 720945, 721344, 721815, 722182, 722638, 723011, 723401, 723810, 724197, 724555, 724967, 725390, 725826, 726191, 726604, 727022, 727446, 727921]",36,R,ITM,1.1,
6,600,trial,0,30,30,30,trial,"['S', 'S', 'S', 'S', 'S', 'S', 'S', 'S', 'S', 'S', 'C', 'C', 'C', 'C', 'C', 'C', 'C', 'C', 'C', 'C', 'C', 'C', 'C', 'C', 'C', 'C', 'C', 'C']","[736391, 736748, 737294, 737917, 738536, 739139, 739239, 739724, 740290, 740390, 740882, 741401, 741929, 742459, 742567, 743057, 743542, 744094, 744621, 745132, 745662, 746134, 746685, 746792, 747291, 747836, 748363, 748916]","[736497, 736902, 737494, 738103, 738710, 739159, 739348, 739935, 740310, 740455, 741046, 741558, 742117, 742486, 742635, 743220, 743729, 744250, 744793, 745299, 745808, 746324, 746712, 746812, 747420, 747912, 748482, 749034]","[736168, 736769, 737369, 737969, 738568, 739168, 739768, 740368, 740909, 741429, 741956, 742486, 743084, 743569, 744122, 744647, 745158, 745689, 746162, 746712, 747319, 747864, 748391, 748943]",36,R,ITM,1.1,
4,400,trial,0,31,31,31,trial,"['S', 'S', 'S', 'S', 'S', 'S', 'S', 'C', 'C', 'C', 'C', 'C', 'C', 'C', 'C', 'C', 'C', 'C', 'C', 'C', 'C', 'C', 'C']","[754916, 755257, 755644, 756047, 756442, 756869, 757288, 757694, 758059, 758510, 758917, 759377, 759803, 760304, 760712, 761121, 761544, 762003, 762434, 762864, 763279, 763662, 764157]","[754979, 755358, 755741, 756146, 756584, 756994, 757411, 757823, 758225, 758647, 759056, 759498, 759927, 760382, 760828, 761229, 761670, 762143, 762584, 763008, 763392, 763824, 764291]","[754558, 754958, 755358, 755759, 756158, 756558, 756958, 757358, 757721, 758084, 758536, 758942, 759403, 759829, 760330, 760737, 761147, 761571, 762029, 762460, 762890, 763304, 763687, 764183]",36,R,ITM,1.1,
2,600,trial,0,32,32,32,trial,"['S', 'S', 'S', 'S', 'S', 'S', 'S', 'S', 'C', 'C', 'C', 'C', 'C', 'C', 'C', 'C', 'C', 'C', 'C', 'C', 'C', 'C', 'C', 'C']","[769784, 770145, 770677, 771297, 771930, 772517, 773092, 773663, 774194, 774740, 775320, 775942, 776523, 777073, 777650, 778208, 778797, 779402, 780002, 780607, 781201, 781752, 782306, 782878]","[769895, 770311, 770907, 771513, 772108, 772719, 773280, 773892, 774414, 774939, 775520, 776120, 776691, 777247, 777844, 778398, 778987, 779542, 780194, 780786, 781404, 781952, 782480, 783068]","[769529, 770129, 770728, 771330, 771929, 772530, 773129, 773729, 774221, 774768, 775348, 775968, 776550, 777100, 777677, 778234, 778823, 779429, 780029, 780634, 781229, 781778, 782332, 782906]",36,R,ITM,1.1,
2,600,trial,0,33,33,33,trial,"['S', 'S', 'S', 'S', 'S', 'S', 'S', 'S', 'S', 'C', 'C', 'C', 'C', 'C', 'C', 'C', 'C', 'C', 'C', 'C', 'C', 'C', 'C', 'C', 'C']","[788738, 789116, 789216, 789553, 790149, 790729, 791285, 791880, 792518, 793119, 793679, 794192, 794744, 795310, 795823, 796417, 796980, 797512, 798114, 798657, 799217, 799815, 800284, 800804, 801455]","[788834, 789136, 789268, 789829, 790388, 790946, 791497, 792013, 792704, 793322, 793844, 794385, 794966, 795523, 796043, 796645, 797178, 797737, 798305, 798886, 799410, 799979, 800494, 801028, 801602]","[788400, 789000, 789599, 790198, 790799, 791398, 791999, 792599, 793147, 793706, 794220, 794772, 795336, 795850, 796443, 797006, 797540, 798141, 798685, 799244, 799842, 800312, 800832, 801482]",36,R,ITM,1.1,
3,600,trial,0,34,34,34,trial,"['S', 'S', 'S', 'S', 'S', 'S', 'S', 'S', 'C', 'C', 'C', 'C', 'C', 'C', 'C', 'C', 'C', 'C', 'C', 'C', 'C', 'C', 'C', 'C']","[807357, 807725, 808109, 808657, 809204, 809850, 810444, 811027, 811660, 812232, 812778, 813338, 813918, 814480, 815036, 815577, 816124, 816693, 817189, 817795, 818353, 818940, 819555, 820155]","[807474, 807811, 808259, 808816, 809417, 810031, 810609, 811195, 811817, 812376, 812961, 813508, 814070, 814626, 815197, 815737, 816288, 816829, 817356, 817964, 818503, 819074, 819674, 820252]","[806905, 807505, 808105, 808706, 809306, 809906, 810506, 811106, 811685, 812258, 812804, 813364, 813943, 814505, 815062, 815602, 816150, 816718, 817215, 817820, 818378, 818966, 819580, 820180]",36,R,ITM,1.1,
2,400,trial,0,35,35,35,trial,"['B', 'S', 'S', 'S', 'S', 'S', 'S', 'S', 'S', 'C', 'C', 'C', 'C', 'C', 'C', 'C', 'C', 'C', 'C', 'C', 'C', 'C', 'C', 'C', 'C']","[825706, 826196, 826296, 826556, 826939, 827323, 827697, 828092, 828479, 828908, 829331, 829744, 830145, 830523, 830957, 831405, 831828, 832224, 832684, 833101, 833459, 833906, 834334, 834792, 835278]","[825886, 826216, 826322, 826648, 827030, 827421, 827817, 828214, 828616, 829064, 829455, 829899, 830309, 830704, 831098, 831550, 831981, 832414, 832822, 833249, 833607, 834073, 834502, 834944, 835420]","[825719, 826119, 826519, 826919, 827319, 827719, 828120, 828518, 828936, 829359, 829770, 830172, 830551, 830985, 831432, 831856, 832250, 832710, 833128, 833486, 833933, 834361, 834819, 835305]",36,R,ITM,1.1,
4,400,trial,0,36,36,36,trial,"['S', 'S', 'S', 'S', 'S', 'S', 'S', 'C', 'C', 'C', 'C', 'C', 'C', 'C', 'C', 'C', 'C', 'C', 'C', 'C', 'C', 'C', 'C']","[841181, 841512, 841958, 842426, 842847, 843266, 843751, 844109, 844493, 844793, 845202, 845550, 845956, 846316, 846690, 847110, 847503, 847950, 848342, 848763, 849147, 849557, 849978]","[841285, 841626, 842051, 842548, 842963, 843397, 843845, 844230, 844624, 844962, 845342, 845716, 846095, 846468, 846846, 847249, 847682, 848105, 848488, 848904, 849287, 849725, 850145]","[840927, 841326, 841726, 842126, 842526, 842927, 843326, 843726, 844135, 844519, 844819, 845228, 845576, 845981, 846342, 846715, 847135, 847528, 847976, 848367, 848789, 849173, 849583, 850003]",36,R,ITM,1.1,
6,600,trial,0,37,37,37,trial,"['S', 'S', 'S', 'S', 'S', 'S', 'S', 'S', 'C', 'C', 'C', 'C', 'C', 'C', 'C', 'C', 'C', 'C', 'C', 'C', 'C', 'C', 'C', 'C']","[855716, 856023, 856605, 857307, 857887, 858459, 859096, 859750, 860318, 860982, 861565, 862193, 862799, 863416, 864067, 864768, 865345, 865958, 866606, 867220, 867873, 868473, 869050, 869645]","[855830, 856129, 856754, 857421, 858018, 858593, 859220, 859858, 860470, 861085, 861710, 862316, 862939, 863554, 864207, 864873, 865525, 866082, 866728, 867349, 868006, 868626, 869201, 869777]","[855549, 856150, 856750, 857350, 857950, 858550, 859150, 859750, 860345, 861008, 861592, 862220, 862826, 863443, 864094, 864794, 865372, 865985, 866632, 867247, 867900, 868501, 869078, 869671]",36,R,ITM,1.1,
5,600,trial,0,38,38,38,trial,"['S', 'S', 'S', 'S', 'S', 'S', 'S', 'S', 'C', 'C', 'C', 'C', 'C', 'C', 'C', 'C', 'C', 'C', 'C', 'C', 'C', 'C', 'C', 'C']","[875506, 875811, 876325, 876921, 877524, 878161, 878756, 879299, 879833, 880431, 881058, 881629, 882209, 882805, 883491, 884112, 884751, 885283, 885894, 886483, 887063, 887628, 888250, 888870]","[875631, 875955, 876515, 877125, 877691, 878307, 878964, 879471, 880027, 880613, 881227, 881815, 882419, 883006, 883639, 884251, 884897, 885467, 886051, 886644, 887218, 887806, 888404, 889039]","[875212, 875811, 876411, 877011, 877612, 878212, 878812, 879411, 879858, 880456, 881084, 881654, 882236, 882831, 883517, 884137, 884776, 885309, 885919, 886509, 887089, 887655, 888275, 888896]",36,R,ITM,1.1,
6,400,trial,0,39,39,39,trial,"['S', 'S', 'S', 'S', 'S', 'S', 'S', 'S', 'C', 'C', 'C', 'C', 'C', 'C', 'C', 'C', 'C', 'C', 'C', 'C', 'C', 'C', 'C', 'C']","[894554, 894836, 895127, 895490, 895874, 896278, 896720, 897123, 897480, 897916, 898313, 898691, 899087, 899490, 899901, 900240, 900687, 901075, 901500, 901908, 902302, 902696, 903073, 903475]","[894655, 894931, 895221, 895616, 896000, 896439, 896864, 897271, 897644, 898049, 898437, 898859, 899231, 899636, 900044, 900385, 900832, 901236, 901638, 902050, 902461, 902847, 903247, 903641]","[894308, 894707, 895108, 895507, 895907, 896307, 896707, 897107, 897507, 897943, 898339, 898717, 899115, 899517, 899928, 900267, 900714, 901102, 901528, 901936, 902329, 902723, 903101, 903502]",36,R,ITM,1.1,
3,400,trial,0,40,40,40,trial,"['S', 'S', 'S', 'S', 'S', 'S', 'S', 'S', 'C', 'C', 'C', 'C', 'C', 'C', 'C', 'C', 'C', 'C', 'C', 'C', 'C', 'C', 'C', 'C']","[909375, 909664, 909986, 910308, 910672, 911050, 911485, 911866, 912266, 912694, 913121, 913508, 913911, 914286, 914720, 915123, 915587, 915970, 916393, 916805, 917204, 917653, 918050, 918454]","[909478, 909769, 910107, 910430, 910790, 911188, 911612, 911997, 912423, 912825, 913239, 913669, 914062, 914454, 914897, 915290, 915709, 916135, 916559, 916960, 917357, 917797, 918196, 918605]","[909118, 909518, 909918, 910318, 910718, 911118, 911518, 911919, 912291, 912719, 913146, 913533, 913937, 914312, 914746, 915148, 915612, 915995, 916419, 916831, 917230, 917679, 918076, 918479]",36,R,ITM,1.1,
6,400,trial,0,41,41,41,trial,"['B', 'S', 'S', 'S', 'S', 'S', 'S', 'S', 'C', 'C', 'C', 'C', 'C', 'C', 'C', 'C', 'C', 'C', 'C', 'C', 'C', 'C', 'C', 'C']","[923866, 924289, 924700, 925095, 925460, 925893, 926260, 926666, 927028, 927432, 927846, 928251, 928713, 929153, 929612, 929984, 930405, 930793, 931181, 931539, 931953, 932332, 932706, 933185]","[924048, 924431, 924845, 925245, 925631, 926030, 926431, 926815, 927204, 927581, 927994, 928418, 928841, 929290, 929740, 930152, 930544, 930947, 931337, 931677, 932085, 932457, 932857, 933307]","[923879, 924278, 924679, 925078, 925478, 925878, 926278, 926679, 927054, 927459, 927874, 928278, 928740, 929179, 929640, 930012, 930433, 930820, 931208, 931566, 931980, 932359, 932733, 933213]",36,R,ITM,1.1,
4,600,trial,0,42,42,42,trial,"['B', 'S', 'S', 'S', 'S', 'S', 'S', 'S', 'C', 'C', 'C', 'C', 'C', 'C', 'C', 'C', 'C', 'C', 'C', 'C', 'C', 'C', 'C', 'C']","[942307, 942651, 943304, 943963, 944539, 945160, 945839, 946458, 946978, 947502, 948055, 948641, 949210, 949740, 950289, 950850, 951473, 952015, 952511, 953073, 953577, 954093, 954603, 955219]","[942450, 942810, 943475, 944119, 944762, 945343, 946017, 946620, 947179, 947764, 948269, 948852, 949405, 949959, 950505, 951042, 951646, 952214, 952723, 953307, 953773, 954278, 954804, 955388]","[942319, 942918, 943518, 944118, 944718, 945318, 945918, 946519, 947004, 947527, 948080, 948668, 949235, 949766, 950315, 950876, 951499, 952041, 952537, 953100, 953603, 954119, 954629, 955245]",36,R,ITM,1.1,
3,600,trial,0,43,43,43,trial,"['S', 'S', 'S', 'S', 'S', 'S', 'S', 'S', 'C', 'C', 'C', 'C', 'C', 'C', 'C', 'C', 'C', 'C', 'C', 'C', 'C', 'C', 'C', 'C']","[960806, 961100, 961648, 962284, 962882, 963472, 964063, 964638, 965238, 965807, 966366, 966923, 967477, 967979, 968539, 969113, 969617, 970184, 970718, 971264, 971828, 972355, 972910, 973426]","[960914, 961230, 961848, 962528, 963076, 963694, 964274, 964870, 965479, 966010, 966596, 967128, 967700, 968206, 968729, 969265, 969815, 970376, 970937, 971466, 972006, 972523, 973100, 973625]","[960565, 961164, 961764, 962364, 962964, 963564, 964164, 964764, 965264, 965832, 966391, 966948, 967502, 968004, 968564, 969139, 969643, 970210, 970743, 971289, 971853, 972381, 972936, 973452]",36,R,ITM,1.1,
5,600,trial,0,44,44,44,trial,"['S', 'S', 'S', 'S', 'S', 'S', 'S', 'S', 'C', 'C', 'C', 'C', 'C', 'C', 'C', 'C', 'C', 'C', 'C', 'C', 'C', 'C', 'C', 'C']","[979381, 979712, 980166, 980788, 981472, 982010, 982628, 983231, 983747, 984305, 984923, 985414, 985956, 986579, 987163, 987701, 988286, 988851, 989391, 989927, 990464, 991014, 991595, 992140]","[979506, 979871, 980404, 980999, 981623, 982168, 982772, 983384, 983924, 984506, 985089, 985606, 986148, 986766, 987322, 987890, 988430, 988991, 989561, 990096, 990627, 991180, 991740, 992340]","[979082, 979681, 980281, 980881, 981481, 982081, 982681, 983281, 983773, 984331, 984948, 985440, 985981, 986605, 987189, 987726, 988313, 988876, 989418, 989953, 990489, 991041, 991621, 992165]",36,R,ITM,1.1,
7,400,trial,0,45,45,45,trial,"['S', 'S', 'S', 'S', 'S', 'S', 'S', 'C', 'C', 'C', 'C', 'C', 'C', 'C', 'C', 'C', 'C', 'C', 'C', 'C', 'C', 'C', 'C']","[997785, 998125, 998561, 998988, 999447, 999832, 1000247, 1000644, 1001052, 1001447, 1001846, 1002252, 1002656, 1003106, 1003478, 1003893, 1004300, 1004690, 1005136, 1005540, 1005935, 1006295, 1006698]","[997910, 998275, 998681, 999134, 999562, 999970, 1000370, 1000806, 1001200, 1001614, 1002027, 1002409, 1002785, 1003227, 1003622, 1004026, 1004449, 1004843, 1005246, 1005640, 1006064, 1006459, 1006845]","[997475, 997874, 998275, 998674, 999074, 999475, 999875, 1000275, 1000672, 1001078, 1001474, 1001873, 1002278, 1002683, 1003132, 1003505, 1003921, 1004327, 1004718, 1005163, 1005568, 1005962, 1006322, 1006725]",36,R,ITM,1.1,
3,400,trial,0,46,46,46,trial,"['S', 'S', 'S', 'S', 'S', 'S', 'S', 'S', 'C', 'C', 'C', 'C', 'C', 'C', 'C', 'C', 'C', 'C', 'C', 'C', 'C', 'C', 'C', 'C']","[1012355, 1012661, 1012986, 1013286, 1013635, 1014023, 1014409, 1014809, 1015242, 1015644, 1016005, 1016386, 1016802, 1017183, 1017550, 1017948, 1018330, 1018724, 1019110, 1019485, 1019873, 1020255, 1020602, 1021061]","[1012454, 1012756, 1013091, 1013414, 1013790, 1014160, 1014568, 1014956, 1015403, 1015786, 1016163, 1016525, 1016930, 1017321, 1017720, 1018091, 1018469, 1018852, 1019264, 1019636, 1020027, 1020357, 1020735, 1021200]","[1012098, 1012497, 1012897, 1013298, 1013698, 1014098, 1014498, 1014898, 1015268, 1015669, 1016031, 1016412, 1016827, 1017208, 1017576, 1017973, 1018356, 1018749, 1019136, 1019511, 1019898, 1020280, 1020627, 1021086]",36,R,ITM,1.1,
5,400,trial,0,47,47,47,trial,"['S', 'S', 'S', 'S', 'S', 'S', 'S', 'S', 'C', 'C', 'C', 'C', 'C', 'C', 'C', 'C', 'C', 'C', 'C', 'C', 'C', 'C', 'C', 'C']","[1026634, 1026974, 1027283, 1027618, 1027997, 1028378, 1028742, 1029169, 1029571, 1029921, 1030332, 1030714, 1031128, 1031508, 1031920, 1032334, 1032738, 1033120, 1033494, 1033889, 1034256, 1034681, 1035096, 1035473]","[1026729, 1027049, 1027395, 1027744, 1028107, 1028513, 1028930, 1029316, 1029730, 1030064, 1030495, 1030877, 1031291, 1031667, 1032051, 1032483, 1032885, 1033254, 1033663, 1034038, 1034424, 1034830, 1035234, 1035653]","[1026411, 1026810, 1027210, 1027610, 1028011, 1028410, 1028810, 1029211, 1029597, 1029947, 1030358, 1030739, 1031153, 1031534, 1031947, 1032359, 1032764, 1033146, 1033520, 1033915, 1034283, 1034706, 1035121, 1035499]",36,R,ITM,1.1,
7,400,trial,0,48,48,48,trial,"['S', 'S', 'S', 'S', 'S', 'S', 'S', 'S', 'C', 'C', 'C', 'C', 'C', 'C', 'C', 'C', 'C', 'C', 'C', 'C', 'C', 'C', 'C', 'C']","[1041102, 1041398, 1041732, 1042062, 1042449, 1042818, 1043237, 1043592, 1044029, 1044406, 1044810, 1045220, 1045588, 1046004, 1046382, 1046766, 1047148, 1047538, 1047914, 1048296, 1048710, 1049092, 1049484, 1049864]","[1041199, 1041540, 1041833, 1042166, 1042578, 1042932, 1043359, 1043736, 1044154, 1044538, 1044933, 1045347, 1045702, 1046114, 1046503, 1046893, 1047265, 1047649, 1048043, 1048429, 1048834, 1049207, 1049616, 1050008]","[1040849, 1041248, 1041648, 1042049, 1042448, 1042848, 1043249, 1043648, 1044057, 1044433, 1044838, 1045248, 1045616, 1046032, 1046409, 1046793, 1047175, 1047565, 1047941, 1048324, 1048737, 1049119, 1049510, 1049891]",36,R,ITM,1.1,
4,600,trial,0,49,49,49,trial,"['S', 'S', 'S', 'S', 'S', 'S', 'S', 'S', 'C', 'C', 'C', 'C', 'C', 'C', 'C', 'C', 'C', 'C', 'C', 'C', 'C', 'C', 'C', 'C']","[1055216, 1055638, 1056251, 1056933, 1057526, 1058063, 1058746, 1059281, 1059928, 1060493, 1061090, 1061603, 1062183, 1062814, 1063403, 1064022, 1064581, 1065151, 1065746, 1066318, 1066898, 1067481, 1068087, 1068685]","[1055343, 1055740, 1056389, 1057059, 1057627, 1058192, 1058848, 1059417, 1060052, 1060587, 1061183, 1061728, 1062335, 1062926, 1063528, 1064158, 1064736, 1065272, 1065867, 1066468, 1067058, 1067628, 1068233, 1068823]","[1055190, 1055789, 1056389, 1056989, 1057589, 1058189, 1058789, 1059389, 1059953, 1060519, 1061115, 1061628, 1062209, 1062840, 1063429, 1064047, 1064606, 1065177, 1065772, 1066344, 1066924, 1067506, 1068112, 1068710]",36,R,ITM,1.1,
5,400,trial,0,50,50,50,trial,"['S', 'S', 'S', 'S', 'S', 'S', 'S', 'C', 'C', 'C', 'C', 'C', 'C', 'C', 'C', 'C', 'C', 'C', 'C', 'C', 'C', 'C', 'C']","[1074575, 1074935, 1075303, 1075726, 1076160, 1076563, 1076954, 1077331, 1077742, 1078163, 1078587, 1079037, 1079479, 1079927, 1080348, 1080764, 1081200, 1081633, 1082063, 1082501, 1082936, 1083324, 1083770]","[1074648, 1075006, 1075429, 1075841, 1076284, 1076699, 1077105, 1077455, 1077875, 1078260, 1078708, 1079148, 1079617, 1080019, 1080469, 1080877, 1081313, 1081754, 1082200, 1082612, 1083047, 1083479, 1083893]","[1074137, 1074535, 1074935, 1075335, 1075735, 1076135, 1076535, 1076935, 1077357, 1077768, 1078189, 1078612, 1079063, 1079504, 1079953, 1080374, 1080791, 1081226, 1081659, 1082089, 1082527, 1082961, 1083350, 1083796]",36,R,ITM,1.1,
2,400,trial,0,51,51,51,trial,"['S', 'S', 'S', 'S', 'S', 'S', 'S', 'C', 'C', 'C', 'C', 'C', 'C', 'C', 'C', 'C', 'C', 'C', 'C', 'C', 'C', 'C', 'C']","[1089705, 1090134, 1090595, 1091004, 1091397, 1091807, 1092214, 1092600, 1092963, 1093377, 1093781, 1094154, 1094546, 1094970, 1095328, 1095690, 1096122, 1096492, 1096869, 1097297, 1097660, 1098063, 1098428]","[1089826, 1090240, 1090736, 1091131, 1091545, 1091955, 1092318, 1092714, 1093109, 1093500, 1093902, 1094290, 1094692, 1095080, 1095461, 1095836, 1096232, 1096609, 1097007, 1097407, 1097789, 1098191, 1098561]","[1089426, 1089825, 1090227, 1090625, 1091026, 1091425, 1091826, 1092226, 1092628, 1092990, 1093403, 1093808, 1094181, 1094574, 1094998, 1095356, 1095716, 1096150, 1096519, 1096897, 1097325, 1097688, 1098091, 1098456]",36,R,ITM,1.1,
7,600,trial,0,52,52,52,trial,"['S', 'S', 'S', 'S', 'S', 'S', 'S', 'S', 'C', 'C', 'C', 'C', 'C', 'C', 'C', 'C', 'C', 'C', 'C', 'C', 'C', 'C', 'C', 'C']","[1103997, 1104373, 1104948, 1105560, 1106141, 1106710, 1107317, 1107963, 1108622, 1109216, 1109770, 1110300, 1110834, 1111446, 1112058, 1112639, 1113210, 1113791, 1114357, 1114976, 1115509, 1116092, 1116736, 1117299]","[1104092, 1104527, 1105106, 1105701, 1106301, 1106873, 1107476, 1108139, 1108775, 1109355, 1109952, 1110506, 1111043, 1111624, 1112203, 1112797, 1113375, 1113921, 1114524, 1115080, 1115671, 1116273, 1116889, 1117487]","[1103773, 1104372, 1104972, 1105572, 1106172, 1106772, 1107373, 1107973, 1108649, 1109242, 1109797, 1110327, 1110861, 1111473, 1112086, 1112667, 1113237, 1113818, 1114384, 1115002, 1115536, 1116119, 1116763, 1117326]",36,R,ITM,1.1,
7,600,trial,0,53,53,53,trial,"['S', 'S', 'S', 'S', 'S', 'S', 'S', 'S', 'S', 'C', 'C', 'C', 'C', 'C', 'C', 'C', 'C', 'C', 'C', 'C', 'C', 'C', 'C', 'C', 'C']","[1122938, 1123255, 1123810, 1124422, 1124523, 1125066, 1125606, 1126187, 1126724, 1127341, 1127832, 1128371, 1128870, 1129455, 1129965, 1130471, 1131008, 1131514, 1132035, 1132563, 1133133, 1133696, 1134252, 1134811, 1135325]","[1123030, 1123408, 1123963, 1124442, 1124559, 1125226, 1125767, 1126358, 1126915, 1127505, 1128014, 1128541, 1129068, 1129636, 1130160, 1130648, 1131152, 1131708, 1132231, 1132796, 1133340, 1133913, 1134451, 1135020, 1135522]","[1122758, 1123357, 1123957, 1124557, 1125157, 1125757, 1126358, 1126958, 1127367, 1127859, 1128398, 1128897, 1129483, 1129993, 1130498, 1131034, 1131541, 1132062, 1132591, 1133161, 1133723, 1134278, 1134838, 1135352]",36,R,ITM,1.1,
6,400,trial,0,54,54,54,trial,"['S', 'S', 'S', 'S', 'S', 'S', 'S', 'S', 'C', 'C', 'C', 'C', 'C', 'C', 'C', 'C', 'C', 'C', 'C', 'C', 'C', 'C', 'C', 'C']","[1144802, 1145120, 1145457, 1145786, 1146143, 1146548, 1146933, 1147320, 1147702, 1148103, 1148518, 1148918, 1149346, 1149689, 1150121, 1150512, 1150893, 1151301, 1151662, 1152078, 1152490, 1152916, 1153245, 1153718]","[1144908, 1145237, 1145576, 1145926, 1146301, 1146695, 1147110, 1147495, 1147874, 1148264, 1148659, 1149105, 1149506, 1149864, 1150271, 1150672, 1151021, 1151458, 1151837, 1152242, 1152628, 1153042, 1153442, 1153829]","[1144579, 1144977, 1145377, 1145778, 1146177, 1146577, 1146977, 1147377, 1147728, 1148130, 1148545, 1148945, 1149373, 1149716, 1150149, 1150538, 1150919, 1151328, 1151688, 1152105, 1152518, 1152944, 1153272, 1153744]",36,R,ITM,1.1,
5,600,trial,0,55,55,55,trial,"['S', 'S', 'S', 'S', 'S', 'S', 'S', 'S', 'C', 'C', 'C', 'C', 'C', 'C', 'C', 'C', 'C', 'C', 'C', 'C', 'C', 'C', 'C', 'C', 'C']","[1159562, 1159869, 1160462, 1161171, 1161720, 1162285, 1162855, 1163493, 1164097, 1164660, 1165303, 1165850, 1166440, 1167050, 1167156, 1167635, 1168256, 1168793, 1169345, 1169925, 1170525, 1171057, 1171635, 1172220, 1172842]","[1159657, 1160000, 1160639, 1161294, 1161851, 1162464, 1163067, 1163627, 1164269, 1164868, 1165486, 1166023, 1166597, 1167076, 1167205, 1167801, 1168398, 1168949, 1169511, 1170058, 1170648, 1171224, 1171814, 1172426, 1173032]","[1159380, 1159980, 1160580, 1161180, 1161779, 1162379, 1162979, 1163579, 1164124, 1164687, 1165330, 1165877, 1166466, 1167076, 1167661, 1168281, 1168820, 1169371, 1169950, 1170550, 1171084, 1171660, 1172246, 1172869]",36,R,ITM,1.1,
3,600,trial,0,56,56,56,trial,"['S', 'S', 'S', 'S', 'S', 'S', 'S', 'S', 'C', 'C', 'C', 'C', 'C', 'C', 'C', 'C', 'C', 'C', 'C', 'C', 'C', 'C', 'C', 'C']","[1178841, 1179180, 1179677, 1180276, 1180847, 1181409, 1182053, 1182715, 1183358, 1183923, 1184478, 1185141, 1185741, 1186369, 1186974, 1187614, 1188149, 1188689, 1189228, 1189808, 1190353, 1190957, 1191505, 1192055]","[1178959, 1179305, 1179910, 1180474, 1181073, 1181651, 1182319, 1182934, 1183564, 1184106, 1184707, 1185299, 1185917, 1186551, 1187146, 1187771, 1188323, 1188845, 1189379, 1189965, 1190509, 1191075, 1191656, 1192205]","[1178579, 1179180, 1179780, 1180380, 1180979, 1181579, 1182179, 1182779, 1183384, 1183948, 1184503, 1185167, 1185767, 1186395, 1187000, 1187640, 1188174, 1188715, 1189254, 1189833, 1190379, 1190982, 1191531, 1192081]",36,R,ITM,1.1,
7,400,trial,0,57,57,57,trial,"['S', 'S', 'S', 'S', 'S', 'S', 'S', 'S', 'C', 'C', 'C', 'C', 'C', 'C', 'C', 'C', 'C', 'C', 'C', 'C', 'C', 'C', 'C', 'C', 'C']","[1198076, 1198369, 1198769, 1199085, 1199415, 1199773, 1200222, 1200589, 1200996, 1201386, 1201794, 1201901, 1202202, 1202596, 1203039, 1203461, 1203850, 1204202, 1204670, 1205068, 1205487, 1205869, 1206248, 1206675, 1207051]","[1198172, 1198519, 1198865, 1199166, 1199553, 1199910, 1200337, 1200705, 1201103, 1201518, 1201821, 1201944, 1202343, 1202717, 1203139, 1203552, 1203960, 1204326, 1204781, 1205187, 1205600, 1206009, 1206365, 1206818, 1207178]","[1197805, 1198204, 1198604, 1199004, 1199405, 1199804, 1200204, 1200605, 1201024, 1201413, 1201820, 1202229, 1202623, 1203065, 1203488, 1203876, 1204229, 1204697, 1205096, 1205514, 1205896, 1206276, 1206702, 1207077]",36,R,ITM,1.1,
2,600,trial,0,58,58,58,trial,"['S', 'S', 'S', 'S', 'S', 'S', 'S', 'S', 'S', 'S', 'S', 'C', 'C', 'C', 'C', 'C', 'C', 'C', 'C', 'C', 'C', 'C', 'C', 'C', 'C', 'C', 'C']","[1212705, 1212992, 1213651, 1213751, 1214312, 1214908, 1215008, 1215444, 1216077, 1216177, 1216581, 1217185, 1217757, 1218330, 1218926, 1219544, 1220097, 1220646, 1221184, 1221741, 1222355, 1222934, 1223527, 1224085, 1224694, 1225316, 1225902]","[1212769, 1213122, 1213671, 1213795, 1214412, 1214928, 1215036, 1215605, 1216097, 1216211, 1216761, 1217368, 1217943, 1218494, 1219079, 1219716, 1220247, 1220793, 1221376, 1221875, 1222523, 1223098, 1223675, 1224235, 1224848, 1225449, 1226042]","[1212494, 1213095, 1213696, 1214296, 1214896, 1215496, 1216095, 1216695, 1217213, 1217784, 1218358, 1218953, 1219571, 1220124, 1220673, 1221212, 1221769, 1222382, 1222961, 1223554, 1224112, 1224721, 1225342, 1225929]",36,R,ITM,1.1,
4,400,trial,0,59,59,59,trial,"['S', 'S', 'S', 'S', 'S', 'S', 'S', 'C', 'C', 'C', 'C', 'C', 'C', 'C', 'C', 'C', 'C', 'C', 'C', 'C', 'C', 'C', 'C']","[1231562, 1232074, 1232490, 1232910, 1233315, 1233766, 1234141, 1234511, 1234911, 1235305, 1235737, 1236154, 1236558, 1236961, 1237381, 1237739, 1238230, 1238631, 1239055, 1239519, 1239933, 1240411, 1240763]","[1231697, 1232162, 1232578, 1233003, 1233417, 1233869, 1234260, 1234640, 1235053, 1235433, 1235877, 1236286, 1236683, 1237104, 1237513, 1237899, 1238356, 1238766, 1239212, 1239661, 1240071, 1240499, 1240914]","[1231338, 1231737, 1232137, 1232537, 1232937, 1233337, 1233737, 1234138, 1234538, 1234936, 1235331, 1235763, 1236179, 1236584, 1236986, 1237407, 1237765, 1238255, 1238657, 1239080, 1239544, 1239959, 1240437, 1240788]",36,R,ITM,1.1,
5,600,trial,0,60,60,60,trial,"['S', 'S', 'S', 'S', 'S', 'S', 'S', 'S', 'S', 'C', 'C', 'C', 'C', 'C', 'C', 'C', 'C', 'C', 'C', 'C', 'C', 'C', 'C', 'C', 'C']","[1246297, 1246631, 1247195, 1247821, 1248438, 1248538, 1249056, 1249668, 1250219, 1250944, 1251443, 1251999, 1252620, 1253240, 1253831, 1254446, 1255140, 1255733, 1256251, 1256823, 1257368, 1257976, 1258510, 1259010, 1259546]","[1246377, 1246651, 1247409, 1247967, 1248458, 1248611, 1249178, 1249798, 1250381, 1251037, 1251616, 1252189, 1252751, 1253388, 1253988, 1254600, 1255248, 1255884, 1256430, 1256963, 1257554, 1258139, 1258690, 1259170, 1259722]","[1246100, 1246699, 1247299, 1247899, 1248499, 1249099, 1249699, 1250299, 1250969, 1251469, 1252025, 1252645, 1253266, 1253857, 1254471, 1255165, 1255758, 1256276, 1256850, 1257394, 1258002, 1258535, 1259035, 1259573]",36,R,ITM,1.1,
4,400,trial,0,61,61,61,trial,"['S', 'S', 'S', 'S', 'S', 'S', 'S', 'S', 'C', 'C', 'C', 'C', 'C', 'C', 'C', 'C', 'C', 'C', 'C', 'C', 'C', 'C', 'C', 'C']","[1265453, 1265744, 1266093, 1266457, 1266847, 1267257, 1267641, 1268027, 1268419, 1268828, 1269221, 1269640, 1270033, 1270454, 1270836, 1271252, 1271625, 1272059, 1272442, 1272848, 1273225, 1273598, 1274014, 1274354]","[1265514, 1265887, 1266229, 1266594, 1266972, 1267380, 1267777, 1268166, 1268575, 1268955, 1269368, 1269778, 1270173, 1270580, 1270994, 1271378, 1271795, 1272193, 1272601, 1272983, 1273353, 1273758, 1274116, 1274482]","[1265258, 1265657, 1266057, 1266457, 1266857, 1267257, 1267657, 1268058, 1268445, 1268853, 1269246, 1269665, 1270059, 1270479, 1270861, 1271278, 1271651, 1272085, 1272468, 1272873, 1273250, 1273624, 1274040, 1274380]",36,R,ITM,1.1,
5,400,trial,0,62,62,62,trial,"['S', 'S', 'S', 'S', 'S', 'S', 'S', 'S', 'C', 'C', 'C', 'C', 'C', 'C', 'C', 'C', 'C', 'C', 'C', 'C', 'C', 'C', 'C', 'C']","[1280241, 1280629, 1280970, 1281330, 1281740, 1282136, 1282238, 1282512, 1282929, 1283357, 1283750, 1284187, 1284532, 1284979, 1285362, 1285755, 1286108, 1286517, 1286909, 1287310, 1287684, 1288086, 1288429, 1288816]","[1280346, 1280683, 1281060, 1281460, 1281875, 1282158, 1282258, 1282636, 1282955, 1283468, 1283888, 1284301, 1284668, 1285091, 1285514, 1285878, 1286255, 1286661, 1287048, 1287464, 1287817, 1288238, 1288616, 1288949]","[1279759, 1280158, 1280559, 1280958, 1281358, 1281758, 1282158, 1282558, 1282955, 1283383, 1283776, 1284212, 1284557, 1285005, 1285388, 1285781, 1286133, 1286544, 1286936, 1287336, 1287709, 1288112, 1288455, 1288842]",36,R,ITM,1.1,
3,400,trial,0,63,63,63,trial,"['S', 'S', 'S', 'S', 'S', 'S', 'S', 'S', 'C', 'C', 'C', 'C', 'C', 'C', 'C', 'C', 'C', 'C', 'C', 'C', 'C', 'C', 'C', 'C']","[1294465, 1294743, 1295034, 1295373, 1295735, 1296140, 1296545, 1296925, 1297378, 1297759, 1298118, 1298489, 1298833, 1299208, 1299573, 1299894, 1300280, 1300627, 1300983, 1301349, 1301685, 1302053, 1302394, 1302763]","[1294548, 1294832, 1295135, 1295504, 1295864, 1296261, 1296658, 1297041, 1297515, 1297897, 1298267, 1298631, 1298978, 1299289, 1299707, 1300034, 1300418, 1300775, 1301115, 1301458, 1301832, 1302176, 1302499, 1302898]","[1294234, 1294633, 1295033, 1295433, 1295834, 1296233, 1296633, 1297033, 1297403, 1297784, 1298144, 1298514, 1298859, 1299233, 1299599, 1299919, 1300306, 1300653, 1301009, 1301374, 1301710, 1302079, 1302420, 1302789]",36,R,ITM,1.1,
2,400,trial,0,64,64,64,trial,"['S', 'S', 'S', 'S', 'S', 'S', 'S', 'S', 'C', 'C', 'C', 'C', 'C', 'C', 'C', 'C', 'C', 'C', 'C', 'C', 'C', 'C', 'C', 'C']","[1308708, 1309018, 1309323, 1309672, 1309995, 1310383, 1310767, 1311159, 1311566, 1312005, 1312422, 1312805, 1313208, 1313568, 1313974, 1314354, 1314716, 1315138, 1315564, 1315937, 1316341, 1316713, 1317130, 1317481]","[1308801, 1309129, 1309433, 1309785, 1310180, 1310551, 1310950, 1311341, 1311747, 1312169, 1312547, 1312927, 1313330, 1313722, 1314118, 1314487, 1314853, 1315292, 1315688, 1316078, 1316482, 1316870, 1317278, 1317645]","[1308468, 1308868, 1309267, 1309668, 1310068, 1310468, 1310867, 1311268, 1311594, 1312031, 1312450, 1312833, 1313235, 1313595, 1314000, 1314380, 1314743, 1315166, 1315591, 1315963, 1316368, 1316741, 1317157, 1317509]",36,R,ITM,1.1,
7,600,trial,0,65,65,65,trial,"['S', 'S', 'S', 'S', 'S', 'S', 'S', 'S', 'C', 'C', 'C', 'C', 'C', 'C', 'C', 'C', 'C', 'C', 'C', 'C', 'C', 'C', 'C', 'C']","[1323327, 1323652, 1324237, 1324883, 1325519, 1326108, 1326754, 1327284, 1327820, 1328425, 1328936, 1329500, 1330074, 1330766, 1331209, 1331855, 1332462, 1333007, 1333570, 1334107, 1334672, 1335205, 1335749, 1336280]","[1323439, 1323851, 1324451, 1325037, 1325672, 1326259, 1326906, 1327424, 1328006, 1328565, 1329116, 1329690, 1330275, 1330906, 1331386, 1332031, 1332594, 1333185, 1333723, 1334281, 1334809, 1335404, 1335940, 1336474]","[1323134, 1323734, 1324334, 1324934, 1325534, 1326134, 1326734, 1327334, 1327848, 1328452, 1328964, 1329526, 1330102, 1330793, 1331236, 1331883, 1332489, 1333033, 1333598, 1334133, 1334699, 1335232, 1335777, 1336306]",36,R,ITM,1.1,
4,600,trial,0,66,66,66,trial,"['S', 'S', 'S', 'S', 'S', 'S', 'S', 'S', 'C', 'C', 'C', 'C', 'C', 'C', 'C', 'C', 'C', 'C', 'C', 'C', 'C', 'C', 'C', 'C']","[1342157, 1342568, 1343025, 1343589, 1344204, 1344760, 1345460, 1346060, 1346621, 1347223, 1347811, 1348418, 1349031, 1349604, 1350176, 1350723, 1351294, 1351858, 1352484, 1353042, 1353598, 1354140, 1354689, 1355219]","[1342253, 1342697, 1343186, 1343781, 1344379, 1344957, 1345611, 1346207, 1346799, 1347389, 1347997, 1348605, 1349201, 1349754, 1350335, 1350891, 1351419, 1352024, 1352616, 1353234, 1353754, 1354286, 1354840, 1355374]","[1341836, 1342435, 1343035, 1343635, 1344235, 1344835, 1345435, 1346035, 1346647, 1347249, 1347836, 1348445, 1349057, 1349629, 1350202, 1350749, 1351320, 1351883, 1352511, 1353068, 1353623, 1354166, 1354716, 1355245]",36,R,ITM,1.1,
3,600,trial,0,67,67,67,trial,"['S', 'S', 'S', 'S', 'S', 'S', 'S', 'S', 'S', 'C', 'C', 'C', 'C', 'C', 'C', 'C', 'C', 'C', 'C', 'C', 'C', 'C', 'C', 'C', 'C']","[1361055, 1361342, 1361909, 1362544, 1363148, 1363705, 1364221, 1364780, 1364880, 1365324, 1365809, 1366463, 1367078, 1367695, 1368298, 1368858, 1369526, 1370113, 1370680, 1371217, 1371767, 1372346, 1372895, 1373422, 1373954]","[1361104, 1361446, 1362058, 1362706, 1363287, 1363819, 1364363, 1364800, 1364930, 1365497, 1365975, 1366599, 1367205, 1367826, 1368403, 1368996, 1369624, 1370266, 1370758, 1371350, 1371911, 1372482, 1373038, 1373574, 1374106]","[1360787, 1361387, 1361987, 1362587, 1363187, 1363787, 1364387, 1364987, 1365350, 1365834, 1366489, 1367104, 1367720, 1368324, 1368884, 1369551, 1370138, 1370705, 1371243, 1371793, 1372371, 1372920, 1373448, 1373979]",36,R,ITM,1.1,
7,600,trial,0,68,68,68,trial,"['S', 'S', 'S', 'S', 'S', 'S', 'S', 'S', 'C', 'C', 'C', 'C', 'C', 'C', 'C', 'C', 'C', 'C', 'C', 'C', 'C', 'C', 'C', 'C']","[1379828, 1380161, 1380644, 1381267, 1381888, 1382448, 1383054, 1383629, 1384267, 1384745, 1385262, 1385877, 1386435, 1386966, 1387566, 1388091, 1388630, 1389210, 1389714, 1390321, 1390839, 1391364, 1391879, 1392450]","[1379938, 1380315, 1380850, 1381465, 1382044, 1382644, 1383239, 1383839, 1384467, 1384954, 1385452, 1386016, 1386606, 1387153, 1387712, 1388284, 1388802, 1389364, 1389939, 1390503, 1391042, 1391523, 1392064, 1392616]","[1379557, 1380156, 1380756, 1381356, 1381956, 1382556, 1383156, 1383756, 1384294, 1384771, 1385288, 1385905, 1386463, 1386993, 1387592, 1388118, 1388656, 1389237, 1389741, 1390348, 1390866, 1391390, 1391906, 1392478]",36,R,ITM,1.1,
6,600,trial,0,69,69,69,trial,"['S', 'S', 'S', 'S', 'S', 'S', 'S', 'S', 'C', 'C', 'C', 'C', 'C', 'C', 'C', 'C', 'C', 'C', 'C', 'C', 'C', 'C', 'C', 'C']","[1398330, 1398671, 1399212, 1399800, 1400355, 1400899, 1401529, 1402173, 1402719, 1403274, 1403827, 1404394, 1404998, 1405534, 1406067, 1406645, 1407177, 1407694, 1408226, 1408757, 1409251, 1409761, 1410280, 1410744]","[1398423, 1398828, 1399378, 1399965, 1400542, 1401091, 1401720, 1402344, 1402904, 1403451, 1404003, 1404601, 1405179, 1405699, 1406252, 1406826, 1407382, 1407875, 1408407, 1408931, 1409412, 1409940, 1410447, 1410927]","[1398091, 1398690, 1399290, 1399890, 1400491, 1401091, 1401691, 1402291, 1402745, 1403301, 1403854, 1404421, 1405026, 1405560, 1406094, 1406671, 1407204, 1407721, 1408252, 1408784, 1409278, 1409787, 1410307, 1410770]",36,R,ITM,1.1,
3,400,trial,0,70,70,70,trial,"['S', 'S', 'S', 'S', 'S', 'S', 'S', 'S', 'C', 'C', 'C', 'C', 'C', 'C', 'C', 'C', 'C', 'C', 'C', 'C', 'C', 'C', 'C', 'C']","[1416589, 1416893, 1417248, 1417579, 1417942, 1418345, 1418763, 1419145, 1419536, 1419985, 1420433, 1420890, 1421299, 1421733, 1422157, 1422606, 1423073, 1423524, 1423954, 1424382, 1424833, 1425288, 1425713, 1426174]","[1416682, 1417000, 1417347, 1417689, 1418078, 1418492, 1418891, 1419278, 1419692, 1420147, 1420613, 1421050, 1421481, 1421872, 1422324, 1422774, 1423200, 1423674, 1424073, 1424560, 1424989, 1425485, 1425977, 1426306]","[1416342, 1416741, 1417141, 1417541, 1417942, 1418341, 1418741, 1419142, 1419561, 1420011, 1420459, 1420915, 1421325, 1421759, 1422183, 1422631, 1423098, 1423550, 1423980, 1424408, 1424859, 1425313, 1425738, 1426200]",36,R,ITM,1.1,
7,400,trial,0,71,71,71,trial,"['S', 'S', 'S', 'S', 'S', 'S', 'S', 'S', 'C', 'C', 'C', 'C', 'C', 'C', 'C', 'C', 'C', 'C', 'C', 'C', 'C', 'C', 'C', 'C']","[1431945, 1432262, 1432611, 1432961, 1433337, 1433739, 1434128, 1434497, 1434903, 1435374, 1435756, 1436208, 1436643, 1437033, 1437409, 1437869, 1438199, 1438701, 1439191, 1439632, 1440044, 1440432, 1440872, 1441258]","[1432035, 1432377, 1432738, 1433076, 1433448, 1433825, 1434229, 1434667, 1435029, 1435485, 1435892, 1436301, 1436767, 1437145, 1437526, 1437961, 1438368, 1438813, 1439284, 1439734, 1440176, 1440572, 1440989, 1441388]","[1431730, 1432128, 1432528, 1432928, 1433328, 1433729, 1434128, 1434528, 1434930, 1435401, 1435783, 1436234, 1436670, 1437060, 1437435, 1437896, 1438226, 1438729, 1439217, 1439660, 1440070, 1440458, 1440900, 1441285]",36,R,ITM,1.1,
6,400,trial,0,72,72,72,trial,"['S', 'S', 'S', 'S', 'S', 'S', 'S', 'C', 'C', 'C', 'C', 'C', 'C', 'C', 'C', 'C', 'C', 'C', 'C', 'C', 'C', 'C', 'C']","[1447183, 1447591, 1448006, 1448391, 1448783, 1449249, 1449626, 1450024, 1450391, 1450838, 1451206, 1451592, 1451960, 1452367, 1452787, 1453153, 1453598, 1453906, 1454363, 1454748, 1455121, 1455503, 1455896]","[1447296, 1447700, 1448105, 1448511, 1448923, 1449363, 1449749, 1450148, 1450530, 1450958, 1451328, 1451702, 1452081, 1452506, 1452913, 1453295, 1453715, 1454090, 1454488, 1454896, 1455259, 1455630, 1456017]","[1446884, 1447283, 1447684, 1448083, 1448483, 1448883, 1449283, 1449683, 1450051, 1450419, 1450865, 1451233, 1451619, 1451986, 1452394, 1452814, 1453180, 1453625, 1453933, 1454390, 1454776, 1455148, 1455531, 1455923]",36,R,ITM,1.1,
5,400,trial,0,73,73,73,trial,"['S', 'S', 'S', 'S', 'S', 'S', 'S', 'S', 'C', 'C', 'C', 'C', 'C', 'C', 'C', 'C', 'C', 'C', 'C', 'C', 'C', 'C', 'C', 'C']","[1461479, 1461788, 1462128, 1462481, 1462839, 1463226, 1463596, 1463997, 1464373, 1464787, 1465210, 1465580, 1466020, 1466399, 1466827, 1467199, 1467611, 1467988, 1468427, 1468816, 1469232, 1469625, 1469986, 1470381]","[1461556, 1461879, 1462227, 1462577, 1462955, 1463350, 1463742, 1464128, 1464527, 1464922, 1465350, 1465746, 1466145, 1466561, 1466960, 1467354, 1467769, 1468128, 1468570, 1468962, 1469340, 1469749, 1470106, 1470503]","[1461258, 1461657, 1462057, 1462457, 1462857, 1463258, 1463657, 1464057, 1464398, 1464814, 1465236, 1465606, 1466046, 1466426, 1466854, 1467225, 1467636, 1468013, 1468452, 1468841, 1469257, 1469650, 1470012, 1470407]",36,R,ITM,1.1,
2,400,trial,0,74,74,74,trial,"['S', 'S', 'S', 'S', 'S', 'S', 'S', 'S', 'C', 'C', 'C', 'C', 'C', 'C', 'C', 'C', 'C', 'C', 'C', 'C', 'C', 'C', 'C', 'C']","[1476427, 1476740, 1477033, 1477372, 1477706, 1478096, 1478473, 1478856, 1479267, 1479651, 1480023, 1480374, 1480749, 1481113, 1481484, 1481857, 1482238, 1482628, 1483000, 1483384, 1483766, 1484137, 1484493, 1484849]","[1476530, 1476848, 1477145, 1477474, 1477836, 1478194, 1478581, 1478989, 1479404, 1479774, 1480168, 1480515, 1480884, 1481242, 1481616, 1481982, 1482399, 1482774, 1483154, 1483518, 1483888, 1484269, 1484640, 1484981]","[1476129, 1476530, 1476928, 1477328, 1477728, 1478129, 1478530, 1478929, 1479294, 1479677, 1480050, 1480401, 1480776, 1481141, 1481510, 1481884, 1482265, 1482655, 1483028, 1483411, 1483794, 1484164, 1484521, 1484875]",36,R,ITM,1.1,
6,600,trial,0,75,75,75,trial,"['S', 'S', 'S', 'S', 'S', 'S', 'S', 'S', 'C', 'C', 'C', 'C', 'C', 'C', 'C', 'C', 'C', 'C', 'C', 'C', 'C', 'C', 'C', 'C']","[1490755, 1491094, 1491609, 1492230, 1492829, 1493408, 1494008, 1494573, 1495196, 1495748, 1496304, 1496846, 1497466, 1498007, 1498567, 1499158, 1499729, 1500293, 1500921, 1501510, 1502090, 1502693, 1503220, 1503790]","[1490862, 1491258, 1491899, 1492485, 1493069, 1493659, 1494275, 1494818, 1495453, 1496066, 1496650, 1497256, 1497756, 1498257, 1498821, 1499388, 1499969, 1500516, 1501135, 1501703, 1502332, 1502963, 1503476, 1503980]","[1490495, 1491094, 1491694, 1492294, 1492894, 1493494, 1494094, 1494694, 1495224, 1495775, 1496331, 1496872, 1497493, 1498034, 1498594, 1499186, 1499757, 1500320, 1500949, 1501537, 1502117, 1502720, 1503247, 1503816]",36,R,ITM,1.1,
4,600,trial,0,76,76,76,trial,"['S', 'S', 'S', 'S', 'S', 'S', 'S', 'S', 'C', 'C', 'C', 'C', 'C', 'C', 'C', 'C', 'C', 'C', 'C', 'C', 'C', 'C', 'C', 'C']","[1509621, 1509943, 1510509, 1511131, 1511745, 1512293, 1512883, 1513426, 1514001, 1514576, 1515099, 1515674, 1516262, 1516821, 1517432, 1517995, 1518493, 1519081, 1519764, 1520339, 1520848, 1521388, 1521941, 1522532]","[1509714, 1510100, 1510770, 1511352, 1511916, 1512520, 1513083, 1513654, 1514220, 1514771, 1515315, 1515911, 1516514, 1517050, 1517659, 1518181, 1518717, 1519301, 1519917, 1520514, 1521049, 1521558, 1522149, 1522721]","[1509370, 1509970, 1510571, 1511171, 1511771, 1512370, 1512970, 1513570, 1514027, 1514602, 1515124, 1515700, 1516288, 1516847, 1517458, 1518020, 1518519, 1519107, 1519790, 1520365, 1520874, 1521414, 1521967, 1522557]",36,R,ITM,1.1,
2,600,trial,0,77,77,77,trial,"['S', 'S', 'S', 'S', 'S', 'S', 'S', 'S', 'C', 'C', 'C', 'C', 'C', 'C', 'C', 'C', 'C', 'C', 'C', 'C', 'C', 'C', 'C', 'C']","[1528263, 1528670, 1529142, 1529733, 1530310, 1530841, 1531473, 1532080, 1532690, 1533260, 1533778, 1534313, 1534882, 1535423, 1535954, 1536475, 1536986, 1537551, 1538049, 1538618, 1539106, 1539594, 1540119, 1540593]","[1528345, 1528767, 1529286, 1529851, 1530456, 1531035, 1531663, 1532264, 1532880, 1533425, 1533946, 1534494, 1535049, 1535588, 1536137, 1536646, 1537013, 1537699, 1538216, 1538770, 1539268, 1539791, 1540271, 1540770]","[1527964, 1528563, 1529164, 1529764, 1530364, 1530963, 1531565, 1532165, 1532717, 1533287, 1533806, 1534340, 1534909, 1535450, 1535981, 1536501, 1537013, 1537577, 1538076, 1538644, 1539133, 1539621, 1540147, 1540620]",36,R,ITM,1.1,
5,400,trial,0,78,78,78,trial,"['S', 'S', 'S', 'S', 'S', 'S', 'S', 'S', 'C', 'C', 'C', 'C', 'C', 'C', 'C', 'C', 'C', 'C', 'C', 'C', 'C', 'C', 'C', 'C']","[1546332, 1546665, 1546978, 1547294, 1547654, 1548054, 1548435, 1548853, 1549292, 1549677, 1550113, 1550485, 1550932, 1551335, 1551746, 1552182, 1552579, 1553057, 1553465, 1553884, 1554320, 1554716, 1555164, 1555565]","[1546437, 1546768, 1547081, 1547422, 1547794, 1548195, 1548578, 1548996, 1549432, 1549817, 1550226, 1550653, 1551063, 1551505, 1551889, 1552307, 1552722, 1553172, 1553619, 1554017, 1554465, 1554894, 1555268, 1555714]","[1546083, 1546482, 1546883, 1547282, 1547682, 1548082, 1548482, 1548882, 1549318, 1549703, 1550139, 1550511, 1550957, 1551361, 1551772, 1552208, 1552605, 1553084, 1553490, 1553909, 1554345, 1554742, 1555189, 1555592]",36,R,ITM,1.1,
7,600,trial,0,79,79,79,trial,"['S', 'S', 'S', 'S', 'S', 'S', 'S', 'S', 'C', 'C', 'C', 'C', 'C', 'C', 'C', 'C', 'C', 'C', 'C', 'C', 'C', 'C', 'C', 'C']","[1561349, 1561670, 1562202, 1562910, 1563508, 1564113, 1564726, 1565300, 1565861, 1566459, 1567070, 1567646, 1568251, 1568880, 1569466, 1570088, 1570668, 1571215, 1571706, 1572333, 1572882, 1573415, 1573978, 1574511]","[1561416, 1561791, 1562360, 1563062, 1563628, 1564234, 1564815, 1565443, 1566031, 1566602, 1567213, 1567810, 1568385, 1568966, 1569574, 1570207, 1570809, 1571355, 1571886, 1572475, 1573026, 1573557, 1574091, 1574645]","[1561144, 1561743, 1562343, 1562943, 1563543, 1564143, 1564743, 1565343, 1565888, 1566487, 1567096, 1567673, 1568278, 1568907, 1569492, 1570116, 1570695, 1571241, 1571734, 1572361, 1572909, 1573442, 1574004, 1574539]",36,R,ITM,1.1,
7,400,trial,0,80,80,80,trial,"['S', 'S', 'S', 'S', 'S', 'S', 'S', 'S', 'C', 'C', 'C', 'C', 'C', 'C', 'C', 'C', 'C', 'C', 'C', 'C', 'C', 'C', 'C', 'C']","[1580228, 1580560, 1580928, 1581237, 1581587, 1581957, 1582332, 1582726, 1583120, 1583505, 1583894, 1584291, 1584748, 1585085, 1585487, 1585867, 1586249, 1586655, 1587025, 1587391, 1587749, 1588163, 1588521, 1588914]","[1580305, 1580650, 1581009, 1581343, 1581702, 1582055, 1582461, 1582843, 1583263, 1583645, 1584034, 1584414, 1584835, 1585217, 1585615, 1585994, 1586379, 1586776, 1587176, 1587559, 1587927, 1588319, 1588684, 1589081]","[1579988, 1580387, 1580787, 1581188, 1581587, 1581987, 1582387, 1582787, 1583147, 1583533, 1583922, 1584318, 1584776, 1585112, 1585514, 1585894, 1586277, 1586681, 1587052, 1587419, 1587777, 1588191, 1588549, 1588940]",36,R,ITM,1.1,
7,400,trial,0,81,81,81,trial,"['S', 'S', 'S', 'S', 'S', 'S', 'S', 'S', 'C', 'C', 'C', 'C', 'C', 'C', 'C', 'C', 'C', 'C', 'C', 'C', 'C', 'C', 'C', 'C', 'C']","[1594577, 1594883, 1595249, 1595588, 1595992, 1596388, 1596746, 1597177, 1597569, 1597960, 1598371, 1598723, 1599122, 1599555, 1599969, 1600352, 1600731, 1601165, 1601532, 1601640, 1601959, 1602342, 1602752, 1603112, 1603512]","[1594655, 1594977, 1595340, 1595714, 1596123, 1596515, 1596870, 1597281, 1597689, 1598113, 1598500, 1598886, 1599232, 1599653, 1600084, 1600462, 1600838, 1601275, 1601560, 1601660, 1602076, 1602471, 1602864, 1603252, 1603617]","[1594376, 1594774, 1595174, 1595574, 1595974, 1596375, 1596774, 1597174, 1597596, 1597986, 1598399, 1598749, 1599149, 1599583, 1599995, 1600379, 1600757, 1601191, 1601560, 1601987, 1602370, 1602779, 1603139, 1603538]",36,R,ITM,1.1,
7,600,trial,0,82,82,82,trial,"['S', 'S', 'S', 'S', 'S', 'S', 'S', 'S', 'C', 'C', 'C', 'C', 'C', 'C', 'C', 'C', 'C', 'C', 'C', 'C', 'C', 'C', 'C', 'C']","[1609288, 1609633, 1610227, 1610949, 1611447, 1611981, 1612551, 1613135, 1613762, 1614309, 1614856, 1615431, 1615984, 1616541, 1617116, 1617697, 1618212, 1618738, 1619230, 1619778, 1620305, 1620869, 1621413, 1621971]","[1609357, 1609776, 1610359, 1611061, 1611604, 1612216, 1612791, 1613391, 1613990, 1614539, 1615130, 1615692, 1616248, 1616820, 1617373, 1617915, 1618475, 1618971, 1619566, 1620097, 1620597, 1621066, 1621667]","[1609028, 1609627, 1610227, 1610827, 1611427, 1612027, 1612627, 1613228, 1613789, 1614336, 1614882, 1615458, 1616011, 1616569, 1617142, 1617725, 1618240, 1618764, 1619258, 1619805, 1620332, 1620896, 1621441, 1621999]",36,R,ITM,1.1,
5,600,trial,0,83,83,83,trial,"['S', 'S', 'S', 'S', 'S', 'S', 'S', 'S', 'C', 'C', 'C', 'C', 'C', 'C', 'C', 'C', 'C', 'C', 'C', 'C', 'C', 'C', 'C', 'C']","[1627789, 1628115, 1628687, 1629314, 1629934, 1630545, 1631118, 1631670, 1632316, 1632896, 1633551, 1634158, 1634694, 1635249, 1635777, 1636328, 1636843, 1637379, 1637924, 1638450, 1638987, 1639535, 1640092, 1640613]","[1627871, 1628292, 1628892, 1629503, 1630137, 1630727, 1631299, 1631890, 1632517, 1633135, 1633735, 1634348, 1634909, 1635430, 1635996, 1636517, 1637038, 1637592, 1638123, 1638646, 1639181, 1639725, 1640283, 1640822]","[1627568, 1628167, 1628767, 1629367, 1629967, 1630567, 1631167, 1631767, 1632342, 1632921, 1633576, 1634184, 1634719, 1635274, 1635804, 1636354, 1636869, 1637405, 1637951, 1638476, 1639013, 1639561, 1640119, 1640639]",36,R,ITM,1.1,
3,600,trial,0,84,84,84,trial,"['S', 'S', 'S', 'S', 'S', 'S', 'S', 'S', 'C', 'C', 'C', 'C', 'C', 'C', 'C', 'C', 'C', 'C', 'C', 'C', 'C', 'C', 'C', 'C']","[1646389, 1646706, 1647268, 1647927, 1648506, 1649142, 1649707, 1650319, 1650952, 1651538, 1652079, 1652582, 1653126, 1653605, 1654114, 1654630, 1655132, 1655624, 1656131, 1656643, 1657156, 1657668, 1658202, 1658649]","[1646529, 1646839, 1647442, 1648098, 1648669, 1649310, 1649934, 1650533, 1651123, 1651686, 1652253, 1652752, 1653282, 1653776, 1654283, 1654802, 1655329, 1655795, 1656334, 1656837, 1657346, 1657801, 1658335, 1658863]","[1646239, 1646839, 1647439, 1648039, 1648640, 1649240, 1649840, 1650439, 1650977, 1651564, 1652105, 1652608, 1653151, 1653630, 1654139, 1654656, 1655157, 1655650, 1656157, 1656669, 1657182, 1657694, 1658227, 1658675]",36,R,ITM,1.1,
2,400,trial,0,85,85,85,trial,"['S', 'S', 'S', 'S', 'S', 'S', 'S', 'S', 'C', 'C', 'C', 'C', 'C', 'C', 'C', 'C', 'C', 'C', 'C', 'C', 'C', 'C', 'C', 'C']","[1664688, 1665017, 1665340, 1665676, 1666054, 1666459, 1666820, 1667207, 1667592, 1668014, 1668408, 1668802, 1669172, 1669579, 1669979, 1670343, 1670727, 1671160, 1671517, 1672010, 1672347, 1672781, 1673153, 1673512]","[1664800, 1665113, 1665445, 1665782, 1666163, 1666575, 1666921, 1667340, 1667721, 1668166, 1668545, 1668967, 1669367, 1669756, 1670140, 1670529, 1670926, 1671312, 1671719, 1672145, 1672539, 1672945, 1673318, 1673669]","[1664389, 1664788, 1665188, 1665588, 1665988, 1666387, 1666788, 1667188, 1667618, 1668041, 1668435, 1668830, 1669198, 1669606, 1670005, 1670370, 1670754, 1671187, 1671544, 1672038, 1672375, 1672809, 1673180, 1673539]",36,R,ITM,1.1,
3,400,trial,0,86,86,86,trial,"['S', 'S', 'S', 'S', 'S', 'S', 'S', 'S', 'C', 'C', 'C', 'C', 'C', 'C', 'C', 'C', 'C', 'C', 'C', 'C', 'C', 'C', 'C', 'C']","[1679215, 1679505, 1679882, 1680226, 1680637, 1680977, 1681364, 1681774, 1682232, 1682704, 1683077, 1683472, 1683854, 1684229, 1684622, 1684995, 1685398, 1685710, 1686125, 1686488, 1686884, 1687216, 1687622, 1688003]","[1679285, 1679624, 1680001, 1680377, 1680778, 1681125, 1681523, 1681924, 1682404, 1682850, 1683204, 1683601, 1683988, 1684365, 1684749, 1685129, 1685543, 1685848, 1686273, 1686646, 1687034, 1687366, 1687728, 1688134]","[1679037, 1679437, 1679837, 1680237, 1680637, 1681037, 1681437, 1681838, 1682257, 1682729, 1683102, 1683497, 1683879, 1684254, 1684647, 1685020, 1685424, 1685736, 1686151, 1686513, 1686909, 1687241, 1687648, 1688029]",36,R,ITM,1.1,
3,600,trial,0,87,87,87,trial,"['S', 'S', 'S', 'S', 'S', 'S', 'S', 'S', 'S', 'C', 'C', 'C', 'C', 'C', 'C', 'C', 'C', 'C', 'C', 'C', 'C', 'C', 'C', 'C', 'C']","[1693536, 1693913, 1694485, 1695090, 1695691, 1695791, 1696256, 1696832, 1697388, 1698028, 1698549, 1699074, 1699646, 1700234, 1700807, 1701356, 1701890, 1702413, 1702964, 1703499, 1704068, 1704610, 1705074, 1705624, 1706147]","[1693660, 1694030, 1694642, 1695272, 1695711, 1695895, 1696459, 1697067, 1697629, 1698247, 1698755, 1699287, 1699840, 1700391, 1700971, 1701558, 1702093, 1702604, 1703147, 1703656, 1704235, 1704727, 1705240, 1705762, 1706320]","[1693400, 1694000, 1694599, 1695199, 1695799, 1696399, 1696999, 1697599, 1698054, 1698575, 1699099, 1699672, 1700259, 1700833, 1701382, 1701915, 1702438, 1702989, 1703525, 1704093, 1704636, 1705100, 1705650, 1706173]",36,R,ITM,1.1,
2,600,trial,0,88,88,88,trial,"['S', 'S', 'S', 'S', 'S', 'S', 'S', 'S', 'C', 'C', 'C', 'C', 'C', 'C', 'C', 'C', 'C', 'C', 'C', 'C', 'C', 'C', 'C', 'C']","[1711717, 1712038, 1712560, 1713177, 1713762, 1714366, 1714974, 1715561, 1716142, 1716683, 1717188, 1717667, 1718090, 1718555, 1719013, 1719484, 1719932, 1720347, 1720796, 1721236, 1721696, 1722127, 1722586, 1723058]","[1711827, 1712174, 1712759, 1713351, 1713961, 1714581, 1715169, 1715781, 1716379, 1716879, 1717377, 1717881, 1718326, 1718750, 1719191, 1719674, 1720135, 1720576, 1721012, 1721466, 1721917, 1722355, 1722796, 1723287]","[1711464, 1712064, 1712664, 1713264, 1713864, 1714463, 1715064, 1715664, 1716169, 1716710, 1717216, 1717694, 1718118, 1718582, 1719040, 1719512, 1719960, 1720375, 1720823, 1721263, 1721723, 1722155, 1722613, 1723084]",36,R,ITM,1.1,
4,600,trial,0,89,89,89,trial,"['S', 'S', 'S', 'S', 'S', 'S', 'S', 'S', 'C', 'C', 'C', 'C', 'C', 'C', 'C', 'C', 'C', 'C', 'C', 'C', 'C', 'C', 'C', 'C']","[1728948, 1729230, 1729810, 1730471, 1731028, 1731607, 1732166, 1732748, 1733372, 1733945, 1734482, 1735078, 1735633, 1736345, 1736845, 1737390, 1737946, 1738478, 1739013, 1739613, 1740164, 1740689, 1741211, 1741817]","[1729028, 1729423, 1730035, 1730679, 1731221, 1731802, 1732415, 1733012, 1733623, 1734176, 1734704, 1735290, 1735880, 1736515, 1737039, 1737622, 1738137, 1738641, 1739202, 1739779, 1740341, 1740867, 1741399, 1741961]","[1728671, 1729271, 1729871, 1730471, 1731072, 1731672, 1732272, 1732871, 1733398, 1733970, 1734508, 1735104, 1735659, 1736371, 1736870, 1737416, 1737971, 1738505, 1739039, 1739638, 1740189, 1740715, 1741237, 1741843]",36,R,ITM,1.1,
3,400,trial,0,90,90,90,trial,"['S', 'S', 'S', 'S', 'S', 'S', 'S', 'S', 'C', 'C', 'C', 'C', 'C', 'C', 'C', 'C', 'C', 'C', 'C', 'C', 'C', 'C', 'C', 'C']","[1747507, 1747842, 1748150, 1748456, 1749144, 1749404, 1749725, 1750060, 1750400, 1750792, 1751134, 1751500, 1751872, 1752273, 1752650, 1753023, 1753373, 1753732, 1754130, 1754501, 1754858, 1755304, 1755643, 1756020]","[1747616, 1747941, 1748275, 1748587, 1749277, 1749560, 1749866, 1750220, 1750600, 1750951, 1751344, 1751660, 1752052, 1752459, 1752845, 1753200, 1753546, 1753929, 1754298, 1754695, 1755037, 1755473, 1755835, 1756213]","[1747300, 1747699, 1748100, 1748499, 1748899, 1749299, 1749699, 1750099, 1750425, 1750817, 1751159, 1751526, 1751898, 1752299, 1752676, 1753049, 1753399, 1753757, 1754156, 1754526, 1754884, 1755330, 1755669, 1756046]",36,R,ITM,1.1,
5,400,trial,0,91,91,91,trial,"['S', 'S', 'S', 'S', 'S', 'S', 'S', 'S', 'C', 'C', 'C', 'C', 'C', 'C', 'C', 'C', 'C', 'C', 'C', 'C', 'C', 'C', 'C', 'C']","[1761661, 1761957, 1762299, 1762663, 1763063, 1763449, 1763831, 1764250, 1764662, 1765082, 1765462, 1765864, 1766253, 1766639, 1767052, 1767472, 1767843, 1768231, 1768619, 1768985, 1769370, 1769735, 1770116, 1770450]","[1761777, 1762073, 1762434, 1762828, 1763230, 1763611, 1764015, 1764387, 1764831, 1765220, 1765618, 1765995, 1766390, 1766788, 1767220, 1767622, 1768015, 1768380, 1768778, 1769163, 1769531, 1769896, 1770260, 1770669]","[1761463, 1761863, 1762264, 1762663, 1763063, 1763463, 1763863, 1764263, 1764687, 1765107, 1765487, 1765891, 1766279, 1766666, 1767078, 1767497, 1767869, 1768257, 1768644, 1769012, 1769396, 1769761, 1770141, 1770476]",36,R,ITM,1.1,
4,600,trial,0,92,92,92,trial,"['S', 'S', 'S', 'S', 'S', 'S', 'S', 'S', 'C', 'C', 'C', 'C', 'C', 'C', 'C', 'C', 'C', 'C', 'C', 'C', 'C', 'C', 'C', 'C']","[1776231, 1776507, 1776993, 1777641, 1778190, 1778875, 1779443, 1780000, 1780519, 1781003, 1781567, 1782180, 1782727, 1783279, 1783820, 1784381, 1784960, 1785543, 1786095, 1786595, 1787113, 1787677, 1788166, 1788678]","[1776292, 1776596, 1777132, 1777758, 1778350, 1779011, 1779608, 1780151, 1780732, 1781206, 1781761, 1782342, 1782923, 1783437, 1784033, 1784570, 1785192, 1785759, 1786303, 1786873, 1787371, 1787843, 1788414, 1788852]","[1776019, 1776619, 1777219, 1777819, 1778419, 1779019, 1779619, 1780219, 1780545, 1781028, 1781593, 1782207, 1782753, 1783305, 1783845, 1784407, 1784985, 1785569, 1786121, 1786621, 1787139, 1787703, 1788192, 1788703]",36,R,ITM,1.1,
2,600,trial,0,93,93,93,trial,"['S', 'S', 'S', 'S', 'S', 'S', 'S', 'S', 'C', 'C', 'C', 'C', 'C', 'C', 'C', 'C', 'C', 'C', 'C', 'C', 'C', 'C', 'C', 'C']","[1794571, 1794813, 1795344, 1796016, 1796658, 1797306, 1797910, 1798508, 1799095, 1799688, 1800285, 1800872, 1801420, 1801974, 1802536, 1803102, 1803649, 1804158, 1804693, 1805277, 1805853, 1806430, 1807013, 1807485]","[1794650, 1795004, 1795587, 1796199, 1796822, 1797462, 1798062, 1798621, 1799251, 1799856, 1800476, 1801068, 1801609, 1802143, 1802750, 1803296, 1803842, 1804370, 1805015, 1805473, 1806048, 1806635, 1807174, 1807681]","[1794345, 1794946, 1795546, 1796146, 1796745, 1797345, 1797945, 1798544, 1799122, 1799715, 1800312, 1800900, 1801448, 1802002, 1802564, 1803129, 1803676, 1804185, 1804720, 1805304, 1805880, 1806457, 1807040, 1807513]",36,R,ITM,1.1,
6,400,trial,0,94,94,94,trial,"['S', 'S', 'S', 'S', 'S', 'S', 'S', 'C', 'C', 'C', 'C', 'C', 'C', 'C', 'C', 'C', 'C', 'C', 'C', 'C', 'C', 'C', 'C']","[1813275, 1813621, 1814069, 1814462, 1814857, 1815266, 1815652, 1816042, 1816424, 1816826, 1817182, 1817595, 1817988, 1818375, 1818737, 1819104, 1819475, 1819906, 1820385, 1820833, 1821237, 1821632, 1822003]","[1813398, 1813723, 1814183, 1814565, 1814973, 1815397, 1815766, 1816170, 1816546, 1816978, 1817331, 1817729, 1818118, 1818491, 1818884, 1819272, 1819609, 1820046, 1820484, 1820960, 1821348, 1821760, 1822125]","[1812908, 1813306, 1813706, 1814107, 1814506, 1814906, 1815306, 1815706, 1816070, 1816452, 1816853, 1817209, 1817623, 1818014, 1818401, 1818764, 1819131, 1819503, 1819932, 1820412, 1820861, 1821263, 1821660, 1822030]",36,R,ITM,1.1,
6,600,trial,0,95,95,95,trial,"['S', 'S', 'S', 'S', 'S', 'S', 'S', 'C', 'C', 'C', 'C', 'C', 'C', 'C', 'C', 'C', 'C', 'C', 'C', 'C', 'C', 'C', 'C']","[1827695, 1828219, 1829100, 1829736, 1830306, 1830941, 1831514, 1832112, 1832683, 1833231, 1833790, 1834371, 1834915, 1835484, 1836028, 1836529, 1837073, 1837627, 1838181, 1838705, 1839227, 1839775, 1840322]","[1827791, 1828369, 1829209, 1829915, 1830483, 1831134, 1831739, 1832331, 1832903, 1833451, 1834015, 1834546, 1835164, 1835717, 1836276, 1836778, 1837298, 1837824, 1838363, 1838934, 1839415, 1839966, 1840486]","[1827358, 1827957, 1828557, 1829157, 1829757, 1830358, 1830958, 1831558, 1832138, 1832710, 1833257, 1833817, 1834397, 1834942, 1835510, 1836055, 1836556, 1837100, 1837654, 1838209, 1838733, 1839255, 1839802, 1840349]",36,R,ITM,1.1,
6,600,trial,0,96,96,96,trial,"['S', 'S', 'S', 'S', 'S', 'S', 'S', 'S', 'C', 'C', 'C', 'C', 'C', 'C', 'C', 'C', 'C', 'C', 'C', 'C', 'C', 'C', 'C', 'C']","[1846329, 1846674, 1847229, 1847879, 1848513, 1849097, 1849740, 1850298, 1850890, 1851495, 1852102, 1852675, 1853262, 1853874, 1854464, 1855023, 1855567, 1856169, 1856788, 1857389, 1857934, 1858524, 1859146, 1859742]","[1846438, 1846831, 1847347, 1848015, 1848662, 1849293, 1849884, 1850454, 1851068, 1851653, 1852279, 1852868, 1853455, 1854030, 1854594, 1855141, 1855730, 1856302, 1856947, 1857540, 1858119, 1858726, 1859310, 1859884]","[1846130, 1846729, 1847329, 1847929, 1848529, 1849129, 1849730, 1850330, 1850916, 1851522, 1852129, 1852702, 1853289, 1853900, 1854490, 1855050, 1855594, 1856196, 1856815, 1857416, 1857960, 1858551, 1859174, 1859769]",36,R,ITM,1.1,
2,400,trial,0,97,97,97,trial,"['S', 'S', 'S', 'S', 'S', 'S', 'S', 'C', 'C', 'C', 'C', 'C', 'C', 'C', 'C', 'C', 'C', 'C', 'C', 'C', 'C', 'C', 'C']","[1865542, 1865901, 1866286, 1866665, 1867065, 1867465, 1867843, 1868269, 1868686, 1869104, 1869531, 1869963, 1870338, 1870773, 1871187, 1871639, 1872048, 1872464, 1872846, 1873236, 1873609, 1874022, 1874440]","[1865636, 1865989, 1866359, 1866754, 1867169, 1867552, 1867963, 1868418, 1868825, 1869234, 1869634, 1870082, 1870490, 1870885, 1871341, 1871777, 1872169, 1872607, 1872994, 1873416, 1873772, 1874187, 1874612]","[1865064, 1865464, 1865864, 1866264, 1866664, 1867064, 1867465, 1867865, 1868297, 1868713, 1869131, 1869558, 1869990, 1870364, 1870799, 1871215, 1871666, 1872075, 1872492, 1872874, 1873263, 1873636, 1874049, 1874466]",36,R,ITM,1.1,
4,400,trial,0,98,98,98,trial,"['S', 'S', 'S', 'S', 'S', 'S', 'S', 'S', 'C', 'C', 'C', 'C', 'C', 'C', 'C', 'C', 'C', 'C', 'C', 'C', 'C', 'C', 'C', 'C']","[1880214, 1880496, 1880780, 1881089, 1881468, 1881862, 1882250, 1882695, 1883052, 1883438, 1883807, 1884168, 1884555, 1884937, 1885308, 1885651, 1885975, 1886323, 1886684, 1887034, 1887400, 1887770, 1888109, 1888470]","[1880307, 1880579, 1880884, 1881226, 1881590, 1881989, 1882377, 1882790, 1883174, 1883572, 1883944, 1884326, 1884703, 1885077, 1885453, 1885794, 1886121, 1886474, 1886791, 1887124, 1887528, 1887925, 1888228, 1888581]","[1879930, 1880329, 1880729, 1881129, 1881529, 1881929, 1882330, 1882729, 1883077, 1883463, 1883833, 1884193, 1884580, 1884962, 1885335, 1885677, 1886001, 1886349, 1886709, 1887059, 1887426, 1887796, 1888135, 1888495]",36,R,ITM,1.1,
6,400,trial,0,99,99,99,trial,"['S', 'S', 'S', 'S', 'S', 'S', 'S', 'S', 'C', 'C', 'C', 'C', 'C', 'C', 'C', 'C', 'C', 'C', 'C', 'C', 'C', 'C', 'C', 'C']","[1894338, 1894646, 1895019, 1895368, 1895773, 1896161, 1896523, 1896901, 1897291, 1897692, 1898073, 1898476, 1898875, 1899255, 1899627, 1900025, 1900391, 1900770, 1901121, 1901530, 1901927, 1902294, 1902679, 1903037]","[1894423, 1894786, 1895145, 1895535, 1895912, 1896291, 1896638, 1897014, 1897430, 1897820, 1898203, 1898616, 1899019, 1899403, 1899783, 1900193, 1900513, 1900919, 1901331, 1901647, 1902076, 1902423, 1902818, 1903186]","[1894151, 1894550, 1894950, 1895350, 1895750, 1896151, 1896550, 1896950, 1897319, 1897719, 1898100, 1898503, 1898902, 1899282, 1899655, 1900052, 1900419, 1900797, 1901149, 1901556, 1901954, 1902321, 1902706, 1903065]",36,R,ITM,1.1,
4,400,trial,0,100,100,100,trial,"['S', 'S', 'S', 'S', 'S', 'S', 'S', 'C', 'C', 'C', 'C', 'C', 'C', 'C', 'C', 'C', 'C', 'C', 'C', 'C', 'C', 'C', 'C']","[1908933, 1909302, 1909810, 1910249, 1910641, 1911050, 1911449, 1911839, 1912195, 1912562, 1912960, 1913367, 1913750, 1914130, 1914532, 1914937, 1915296, 1915668, 1916092, 1916497, 1916880, 1917298, 1917624]","[1909035, 1909464, 1909905, 1910362, 1910771, 1911195, 1911562, 1911961, 1912327, 1912748, 1913099, 1913510, 1913913, 1914264, 1914659, 1915059, 1915431, 1915842, 1916244, 1916646, 1917028, 1917419, 1917762]","[1908651, 1909049, 1909449, 1909850, 1910249, 1910649, 1911049, 1911449, 1911865, 1912220, 1912588, 1912985, 1913393, 1913776, 1914157, 1914558, 1914962, 1915323, 1915694, 1916118, 1916523, 1916906, 1917324, 1917650]",36,R,ITM,1.1,
5,600,trial,0,101,101,101,trial,"['S', 'S', 'S', 'S', 'S', 'S', 'S', 'S', 'S', 'C', 'C', 'C', 'C', 'C', 'C', 'C', 'C', 'C', 'C', 'C', 'C', 'C', 'C', 'C', 'C', 'C']","[1923219, 1923504, 1924201, 1924813, 1925411, 1926076, 1926590, 1926924, 1927165, 1927725, 1928299, 1928832, 1929369, 1929957, 1930557, 1931163, 1931754, 1931862, 1932336, 1932868, 1933441, 1933991, 1934528, 1935072, 1935645, 1936205]","[1923309, 1923636, 1924335, 1924972, 1925610, 1926228, 1926844, 1926944, 1927522, 1928061, 1928655, 1929178, 1929775, 1930355, 1930968, 1931557, 1931780, 1932120, 1932642, 1933280, 1933750, 1934318, 1934875, 1935465, 1936005]","[1923011, 1923611, 1924211, 1924811, 1925411, 1926011, 1926611, 1927212, 1927750, 1928325, 1928858, 1929395, 1929982, 1930583, 1931189, 1931780, 1932362, 1932895, 1933466, 1934017, 1934554, 1935097, 1935671, 1936231]",36,R,ITM,1.1,
3,400,trial,0,102,102,102,trial,"['S', 'S', 'S', 'S', 'S', 'S', 'S', 'S', 'C', 'C', 'C', 'C', 'C', 'C', 'C', 'C', 'C', 'C', 'C', 'C', 'C', 'C', 'C', 'C']","[1941776, 1942106, 1942408, 1942721, 1943118, 1943526, 1943931, 1944373, 1944759, 1945131, 1945577, 1945947, 1946332, 1946741, 1947094, 1947506, 1947962, 1948352, 1948776, 1949179, 1949558, 1949982, 1950360, 1950820]","[1941904, 1942208, 1942514, 1942852, 1943256, 1943689, 1944144, 1944499, 1944916, 1945302, 1945693, 1946101, 1946480, 1946887, 1947238, 1947658, 1948090, 1948492, 1948943, 1949295, 1949724, 1950118, 1950515, 1950951]","[1941539, 1941939, 1942339, 1942739, 1943139, 1943539, 1943940, 1944339, 1944784, 1945156, 1945603, 1945972, 1946357, 1946767, 1947119, 1947532, 1947987, 1948378, 1948803, 1949205, 1949584, 1950009, 1950386, 1950845]",36,R,ITM,1.1,
2,600,trial,0,103,103,103,trial,"['B', 'S', 'S', 'S', 'S', 'S', 'S', 'S', 'S', 'C', 'C', 'C', 'C', 'C', 'C', 'C', 'C', 'C', 'C', 'C', 'C', 'C', 'C', 'C', 'C']","[1956395, 1956677, 1957060, 1957527, 1958163, 1958762, 1959339, 1959955, 1960583, 1961150, 1961705, 1962279, 1962868, 1963400, 1963934, 1964464, 1965000, 1965589, 1966222, 1966789, 1967366, 1967921, 1968495, 1969078, 1969681]","[1956444, 1956787, 1957215, 1957750, 1958413, 1959044, 1959629, 1960270, 1960896, 1961450, 1962028, 1962635, 1963179, 1963734, 1964266, 1964798, 1965399, 1965886, 1966556, 1967017, 1967601, 1968189, 1968734, 1969303, 1969938]","[1956408, 1957008, 1957608, 1958207, 1958808, 1959408, 1960008, 1960608, 1961177, 1961733, 1962307, 1962895, 1963427, 1963961, 1964491, 1965028, 1965617, 1966249, 1966817, 1967393, 1967947, 1968522, 1969104, 1969709]",36,R,ITM,1.1,
5,400,trial,0,104,104,104,trial,"['S', 'S', 'S', 'S', 'S', 'S', 'S', 'C', 'C', 'C', 'C', 'C', 'C', 'C', 'C', 'C', 'C', 'C', 'C', 'C', 'C', 'C', 'C']","[1975434, 1975849, 1976224, 1976587, 1977000, 1977428, 1977848, 1978247, 1978667, 1979055, 1979474, 1979874, 1980274, 1980659, 1981078, 1981444, 1981840, 1982343, 1982777, 1983140, 1983529, 1984031, 1984382]","[1975615, 1975969, 1976357, 1976769, 1977192, 1977589, 1978018, 1978444, 1978817, 1979238, 1979641, 1980025, 1980427, 1980816, 1981185, 1981598, 1981995, 1982439, 1982885, 1983313, 1983666, 1984145, 1984553]","[1975071, 1975472, 1975871, 1976271, 1976671, 1977071, 1977472, 1977871, 1978272, 1978693, 1979080, 1979500, 1979899, 1980300, 1980685, 1981105, 1981469, 1981865, 1982368, 1982803, 1983166, 1983555, 1984057, 1984407]",36,R,ITM,1.1,
7,400,trial,0,105,105,105,trial,"['S', 'S', 'S', 'S', 'S', 'S', 'S', 'S', 'C', 'C', 'C', 'C', 'C', 'C', 'C', 'C', 'C', 'C', 'C', 'C', 'C', 'C', 'C', 'C']","[1990396, 1990692, 1990998, 1991311, 1991663, 1992056, 1992463, 1992872, 1993267, 1993732, 1994060, 1994443, 1994833, 1995207, 1995646, 1996059, 1996490, 1996915, 1997338, 1997751, 1998164, 1998636, 1999013, 1999452]","[1990502, 1990794, 1991114, 1991445, 1991827, 1992214, 1992603, 1992995, 1993424, 1993853, 1994237, 1994599, 1994962, 1995341, 1995757, 1996215, 1996665, 1997060, 1997489, 1997907, 1998324, 1998795, 1999201, 1999623]","[1990155, 1990554, 1990955, 1991354, 1991754, 1992155, 1992554, 1992954, 1993293, 1993759, 1994087, 1994470, 1994861, 1995235, 1995674, 1996086, 1996517, 1996943, 1997365, 1997778, 1998191, 1998663, 1999040, 1999478]",36,R,ITM,1.1,
5,600,trial,0,106,106,106,trial,"['S', 'S', 'S', 'S', 'S', 'S', 'S', 'S', 'C', 'C', 'C', 'C', 'C', 'C', 'C', 'C', 'C', 'C', 'C', 'C', 'C', 'C', 'C', 'C']","[2005341, 2005665, 2006178, 2006727, 2007296, 2007863, 2008424, 2009001, 2009524, 2009964, 2010524, 2011042, 2011585, 2012163, 2012708, 2013249, 2013779, 2014346, 2014922, 2015478, 2015959, 2016485, 2016985, 2017508]","[2005427, 2005791, 2006369, 2006901, 2007473, 2008040, 2008603, 2009154, 2009692, 2010113, 2010675, 2011225, 2011740, 2012352, 2012902, 2013409, 2013966, 2014517, 2015104, 2015636, 2016133, 2016645, 2017181]","[2005065, 2005665, 2006265, 2006865, 2007465, 2008066, 2008666, 2009266, 2009550, 2009990, 2010550, 2011068, 2011612, 2012189, 2012735, 2013275, 2013806, 2014371, 2014948, 2015505, 2015984, 2016510, 2017010, 2017533]",36,R,ITM,1.1,
7,600,trial,0,107,107,107,trial,"['S', 'S', 'S', 'S', 'S', 'S', 'S', 'S', 'C', 'C', 'C', 'C', 'C', 'C', 'C', 'C', 'C', 'C', 'C', 'C', 'C', 'C', 'C', 'C']","[2023224, 2023525, 2023996, 2024591, 2025226, 2025819, 2026363, 2026915, 2027527, 2028050, 2028567, 2029104, 2029626, 2030110, 2030589, 2031107, 2031649, 2032111, 2032654, 2033117, 2033677, 2034168, 2034654, 2035192]","[2023305, 2023680, 2024192, 2024772, 2025389, 2025972, 2026528, 2027088, 2027692, 2028206, 2028712, 2029202, 2029789, 2030296, 2030780, 2031300, 2031813, 2032285, 2032841, 2033324, 2033822, 2034348, 2034826, 2035319]","[2022939, 2023538, 2024138, 2024738, 2025338, 2025938, 2026539, 2027139, 2027553, 2028077, 2028595, 2029131, 2029652, 2030137, 2030616, 2031133, 2031676, 2032138, 2032680, 2033144, 2033703, 2034195, 2034680, 2035220]",36,R,ITM,1.1,
5,600,trial,0,108,108,108,trial,"['S', 'S', 'S', 'S', 'S', 'S', 'S', 'S', 'C', 'C', 'C', 'C', 'C', 'C', 'C', 'C', 'C', 'C', 'C', 'C', 'C', 'C', 'C', 'C']","[2041121, 2041463, 2041940, 2042508, 2043117, 2043728, 2044291, 2044860, 2045418, 2045985, 2046479, 2047130, 2047663, 2048191, 2048731, 2049267, 2049832, 2050383, 2050919, 2051406, 2051939, 2052460, 2052933, 2053491]","[2041245, 2041631, 2042137, 2042682, 2043309, 2043900, 2044487, 2045068, 2045596, 2046137, 2046651, 2047286, 2047843, 2048352, 2048868, 2049398, 2049939, 2050512, 2051059, 2051573, 2052111, 2052604, 2053088, 2053640]","[2040848, 2041448, 2042048, 2042648, 2043248, 2043848, 2044448, 2045048, 2045444, 2046011, 2046504, 2047156, 2047689, 2048217, 2048757, 2049293, 2049859, 2050409, 2050946, 2051432, 2051964, 2052486, 2052959, 2053518]",36,R,ITM,1.1,
4,400,trial,0,109,109,109,trial,"['S', 'S', 'S', 'S', 'S', 'S', 'S', 'C', 'C', 'C', 'C', 'C', 'C', 'C', 'C', 'C', 'C', 'C', 'C', 'C', 'C', 'C', 'C']","[2059222, 2059615, 2060021, 2060423, 2060830, 2061217, 2061629, 2062045, 2062438, 2062846, 2063242, 2063660, 2064058, 2064494, 2064870, 2065274, 2065712, 2066085, 2066513, 2066915, 2067303, 2067731, 2068113]","[2059311, 2059736, 2060142, 2060563, 2060980, 2061375, 2061758, 2062159, 2062581, 2062953, 2063375, 2063814, 2064192, 2064641, 2065039, 2065415, 2065856, 2066236, 2066669, 2067055, 2067472, 2067888, 2068270]","[2058910, 2059310, 2059709, 2060109, 2060509, 2060909, 2061309, 2061709, 2062070, 2062465, 2062872, 2063268, 2063685, 2064083, 2064520, 2064896, 2065300, 2065737, 2066111, 2066539, 2066940, 2067329, 2067757, 2068139]",36,R,ITM,1.1,
6,400,trial,0,110,110,110,trial,"['S', 'S', 'S', 'S', 'S', 'S', 'S', 'S', 'C', 'C', 'C', 'C', 'C', 'C', 'C', 'C', 'C', 'C', 'C', 'C', 'C', 'C', 'C', 'C']","[2074079, 2074383, 2074692, 2075006, 2075370, 2075762, 2076172, 2076548, 2076942, 2077327, 2077722, 2078118, 2078517, 2078904, 2079273, 2079660, 2080036, 2080445, 2080829, 2081211, 2081575, 2082012, 2082486, 2082890]","[2074162, 2074502, 2074784, 2075149, 2075535, 2075939, 2076350, 2076744, 2077144, 2077517, 2077917, 2078311, 2078709, 2079074, 2079440, 2079850, 2080223, 2080632, 2081026, 2081360, 2081793, 2082138, 2082648, 2083088]","[2073793, 2074193, 2074593, 2074993, 2075394, 2075793, 2076193, 2076594, 2076968, 2077355, 2077749, 2078146, 2078543, 2078931, 2079300, 2079686, 2080063, 2080472, 2080857, 2081238, 2081603, 2082038, 2082512, 2082918]",36,R,ITM,1.1,
7,600,trial,0,111,111,111,trial,"['S', 'S', 'S', 'S', 'S', 'S', 'S', 'S', 'C', 'C', 'C', 'C', 'C', 'C', 'C', 'C', 'C', 'C', 'C', 'C', 'C', 'C', 'C', 'C']","[2088869, 2089144, 2089705, 2090368, 2090971, 2091539, 2092170, 2092682, 2093238, 2093762, 2094265, 2094780, 2095277, 2095787, 2096294, 2096833, 2097301, 2097782, 2098240, 2098848, 2099287, 2099834, 2100337, 2100747]","[2088914, 2089299, 2089922, 2090573, 2091165, 2091741, 2092338, 2092878, 2093444, 2093953, 2094439, 2094977, 2095412, 2095989, 2096485, 2096997, 2097477, 2097926, 2098395, 2098978, 2099501, 2099997, 2100493, 2100896]","[2088612, 2089211, 2089811, 2090412, 2091012, 2091612, 2092211, 2092811, 2093265, 2093789, 2094292, 2094807, 2095303, 2095813, 2096321, 2096861, 2097328, 2097809, 2098268, 2098875, 2099314, 2099862, 2100364, 2100773]",36,R,ITM,1.1,
2,600,trial,0,112,112,112,trial,"['S', 'S', 'S', 'S', 'S', 'S', 'S', 'S', 'C', 'C', 'C', 'C', 'C', 'C', 'C', 'C', 'C', 'C', 'C', 'C', 'C', 'C', 'C', 'C']","[2106466, 2106780, 2107355, 2107935, 2108551, 2109166, 2109785, 2110349, 2110934, 2111509, 2112070, 2112620, 2113139, 2113763, 2114283, 2114802, 2115248, 2115772, 2116201, 2116704, 2117123, 2117617, 2118108, 2118502]","[2106575, 2106963, 2107589, 2108164, 2108790, 2109395, 2109995, 2110570, 2111131, 2111858, 2112319, 2112824, 2113304, 2113956, 2114557, 2114988, 2115398, 2115908, 2116386, 2116884, 2117281, 2117774, 2118249, 2118678]","[2106231, 2106830, 2107431, 2108030, 2108632, 2109232, 2109832, 2110430, 2110961, 2111537, 2112098, 2112648, 2113167, 2113789, 2114311, 2114830, 2115274, 2115800, 2116228, 2116731, 2117150, 2117644, 2118134, 2118529]",36,R,ITM,1.1,
6,400,trial,0,113,113,113,trial,"['S', 'S', 'S', 'S', 'S', 'S', 'S', 'S', 'C', 'C', 'C', 'C', 'C', 'C', 'C', 'C', 'C', 'C', 'C', 'C', 'C', 'C', 'C', 'C']","[2124401, 2124699, 2124992, 2125329, 2125697, 2126056, 2126448, 2126837, 2127244, 2127619, 2128010, 2128370, 2128737, 2129117, 2129462, 2129837, 2130205, 2130593, 2131028, 2131427, 2131826, 2132234, 2132620, 2133001]","[2124486, 2124791, 2125101, 2125458, 2125835, 2126221, 2126596, 2126997, 2127412, 2127761, 2128157, 2128524, 2128910, 2129264, 2129654, 2130019, 2130385, 2130804, 2131177, 2131598, 2131994, 2132371, 2132762, 2133170]","[2124113, 2124512, 2124912, 2125313, 2125712, 2126112, 2126513, 2126912, 2127270, 2127645, 2128036, 2128397, 2128763, 2129143, 2129488, 2129863, 2130233, 2130620, 2131056, 2131453, 2131854, 2132261, 2132647, 2133028]",36,R,ITM,1.1,
3,600,trial,0,114,114,114,trial,"['S', 'S', 'S', 'S', 'S', 'S', 'S', 'C', 'C', 'C', 'C', 'C', 'C', 'C', 'C', 'C', 'C', 'C', 'C', 'C', 'C', 'C', 'C']","[2139092, 2139770, 2140430, 2141047, 2141657, 2142223, 2142834, 2143417, 2143954, 2144481, 2144912, 2145399, 2145892, 2146376, 2146753, 2147203, 2147655, 2148020, 2148456, 2148927, 2149431, 2149883, 2150368]","[2139170, 2139936, 2140599, 2141260, 2141875, 2142411, 2143046, 2143624, 2144144, 2144674, 2145067, 2145539, 2146065, 2146554, 2146930, 2147336, 2147777, 2148157, 2148577, 2149069, 2149527, 2150026, 2150512]","[2138753, 2139352, 2139952, 2140551, 2141151, 2141751, 2142351, 2142951, 2143442, 2143980, 2144506, 2144939, 2145425, 2145918, 2146402, 2146779, 2147228, 2147681, 2148045, 2148482, 2148953, 2149456, 2149909, 2150393]",36,R,ITM,1.1,
3,600,trial,0,115,115,115,trial,"['S', 'S', 'S', 'S', 'S', 'S', 'S', 'S', 'C', 'C', 'C', 'C', 'C', 'C', 'C', 'C', 'C', 'C', 'C', 'C', 'C', 'C', 'C', 'C']","[2156025, 2156347, 2156859, 2157466, 2158071, 2158692, 2159285, 2159852, 2160370, 2160896, 2161423, 2161946, 2162497, 2163080, 2163620, 2164158, 2164654, 2165202, 2165741, 2166303, 2166859, 2167365, 2167870, 2168371]","[2156144, 2156515, 2157091, 2157687, 2158288, 2158888, 2159492, 2160080, 2160624, 2161139, 2161653, 2162231, 2162750, 2163304, 2163840, 2164364, 2164900, 2165471, 2165966, 2166516, 2167061, 2167577, 2168100, 2168596]","[2155716, 2156316, 2156916, 2157516, 2158116, 2158716, 2159316, 2159917, 2160396, 2160921, 2161448, 2161972, 2162523, 2163105, 2163646, 2164184, 2164679, 2165228, 2165767, 2166329, 2166885, 2167391, 2167896, 2168396]",36,R,ITM,1.1,
4,600,trial,0,116,116,116,trial,"['S', 'S', 'S', 'S', 'S', 'S', 'S', 'S', 'C', 'C', 'C', 'C', 'C', 'C', 'C', 'C', 'C', 'C', 'C', 'C', 'C', 'C', 'C', 'C']","[2174475, 2174800, 2175277, 2175859, 2176470, 2177038, 2177587, 2178191, 2178799, 2179374, 2179931, 2180456, 2181042, 2181576, 2182077, 2182657, 2183246, 2183817, 2184415, 2184892, 2185451, 2186074, 2186610, 2187151]","[2174603, 2174951, 2175475, 2176051, 2176686, 2177236, 2177811, 2178453, 2179052, 2179584, 2180134, 2180673, 2181245, 2181783, 2182296, 2182863, 2183461, 2184015, 2184577, 2185119, 2185696, 2186260, 2186818, 2187356]","[2174163, 2174764, 2175364, 2175964, 2176563, 2177163, 2177763, 2178363, 2178825, 2179399, 2179956, 2180482, 2181067, 2181603, 2182103, 2182682, 2183272, 2183842, 2184440, 2184918, 2185477, 2186099, 2186636, 2187176]",36,R,ITM,1.1,
4,600,trial,0,117,117,117,trial,"['S', 'S', 'S', 'S', 'S', 'S', 'S', 'S', 'C', 'C', 'C', 'C', 'C', 'C', 'C', 'C', 'C', 'C', 'C', 'C', 'C', 'C', 'C', 'C']","[2192877, 2193226, 2193747, 2194298, 2194878, 2195464, 2195982, 2196661, 2197274, 2197822, 2198417, 2198955, 2199526, 2200125, 2200650, 2201209, 2201774, 2202403, 2202919, 2203426, 2203926, 2204371, 2204803, 2205387]","[2193021, 2193377, 2193931, 2194482, 2195074, 2195670, 2196169, 2196840, 2197476, 2198005, 2198583, 2199155, 2199729, 2200304, 2200847, 2201382, 2201975, 2202539, 2203131, 2203613, 2204065, 2204491, 2204978, 2205512]","[2192636, 2193236, 2193837, 2194437, 2195037, 2195637, 2196237, 2196837, 2197300, 2197848, 2198443, 2198980, 2199552, 2200151, 2200677, 2201235, 2201799, 2202429, 2202945, 2203452, 2203952, 2204397, 2204828, 2205413]",36,R,ITM,1.1,
2,400,trial,0,118,118,118,trial,"['S', 'S', 'S', 'S', 'S', 'S', 'S', 'S', 'C', 'C', 'C', 'C', 'C', 'C', 'C', 'C', 'C', 'C', 'C', 'C', 'C', 'C', 'C', 'C']","[2210971, 2211256, 2211593, 2211952, 2212337, 2212708, 2213106, 2213488, 2213875, 2214276, 2214662, 2215038, 2215425, 2215815, 2216182, 2216538, 2216945, 2217463, 2217897, 2218317, 2218721, 2219127, 2219541, 2219886]","[2211066, 2211391, 2211702, 2212059, 2212456, 2212856, 2213265, 2213654, 2214071, 2214457, 2214842, 2215234, 2215621, 2215992, 2216371, 2216700, 2217129, 2217597, 2218048, 2218475, 2218881, 2219295, 2219693, 2220011]","[2210737, 2211137, 2211536, 2211936, 2212337, 2212737, 2213137, 2213537, 2213903, 2214303, 2214688, 2215066, 2215451, 2215841, 2216209, 2216564, 2216972, 2217491, 2217925, 2218344, 2218748, 2219154, 2219568, 2219914]",36,R,ITM,1.1,
7,400,trial,0,119,119,119,trial,"['S', 'S', 'S', 'S', 'S', 'S', 'S', 'C', 'C', 'C', 'C', 'C', 'C', 'C', 'C', 'C', 'C', 'C', 'C', 'C', 'C', 'C', 'C']","[2225729, 2226140, 2226535, 2226916, 2227230, 2227648, 2228058, 2228463, 2228815, 2229200, 2229573, 2229941, 2230304, 2230646, 2231005, 2231380, 2231740, 2232088, 2232472, 2232854, 2233221, 2233583, 2233947]","[2225849, 2226272, 2226690, 2227049, 2227394, 2227805, 2228191, 2228608, 2228962, 2229363, 2229729, 2230116, 2230445, 2230813, 2231181, 2231555, 2231896, 2232249, 2232632, 2232993, 2233366, 2233744, 2234102]","[2225297, 2225696, 2226097, 2226496, 2226896, 2227296, 2227696, 2228097, 2228491, 2228842, 2229227, 2229600, 2229967, 2230331, 2230673, 2231031, 2231408, 2231768, 2232115, 2232499, 2232881, 2233248, 2233610, 2233973]",36,R,ITM,1.1,
6,600,trial,0,120,120,120,trial,"['S', 'S', 'S', 'S', 'S', 'S', 'S', 'S', 'C', 'C', 'C', 'C', 'C', 'C', 'C', 'C', 'C', 'C', 'C', 'C', 'C', 'C', 'C', 'C']","[2239906, 2240224, 2240706, 2241330, 2241939, 2242482, 2243086, 2243670, 2244252, 2244761, 2245253, 2245774, 2246276, 2246782, 2247292, 2247832, 2248353, 2248837, 2249340, 2249814, 2250295, 2250757, 2251210, 2251684]","[2240001, 2240350, 2240883, 2241494, 2242114, 2242668, 2243270, 2243866, 2244434, 2244940, 2245440, 2245947, 2246457, 2246942, 2247462, 2247997, 2248509, 2248993, 2249485, 2249981, 2250439, 2250916, 2251356, 2251836]","[2239586, 2240185, 2240785, 2241385, 2241985, 2242585, 2243185, 2243785, 2244280, 2244788, 2245279, 2245801, 2246302, 2246810, 2247319, 2247859, 2248380, 2248863, 2249367, 2249840, 2250321, 2250783, 2251237, 2251711]",36,R,ITM,1.1,
4,400,trial,0,121,121,121,trial,"['S', 'S', 'S', 'S', 'S', 'S', 'S', 'C', 'C', 'C', 'C', 'C', 'C', 'C', 'C', 'C', 'C', 'C', 'C', 'C', 'C', 'C', 'C', 'C']","[2257896, 2258188, 2258569, 2258919, 2259334, 2259724, 2260144, 2260552, 2260908, 2261334, 2261703, 2262084, 2262461, 2262836, 2263213, 2263569, 2263929, 2264347, 2264717, 2265091, 2265196, 2265519, 2265878, 2266294]","[2257994, 2258291, 2258666, 2259019, 2259437, 2259847, 2260236, 2260673, 2261085, 2261454, 2261849, 2262208, 2262622, 2262964, 2263344, 2263731, 2264089, 2264498, 2264846, 2265116, 2265228, 2265635, 2266022, 2266399]","[2257420, 2257819, 2258220, 2258619, 2259019, 2259420, 2259819, 2260219, 2260578, 2260933, 2261359, 2261729, 2262110, 2262488, 2262861, 2263238, 2263596, 2263955, 2264373, 2264742, 2265116, 2265544, 2265904, 2266319]",36,R,ITM,1.1,
3,400,trial,0,122,122,122,trial,"['S', 'S', 'S', 'S', 'S', 'S', 'S', 'S', 'C', 'C', 'C', 'C', 'C', 'C', 'C', 'C', 'C', 'C', 'C', 'C', 'C', 'C', 'C', 'C']","[2272072, 2272373, 2272671, 2273031, 2273400, 2273777, 2274173, 2274567, 2274931, 2275329, 2275732, 2276097, 2276470, 2276903, 2277349, 2277766, 2278117, 2278521, 2279103, 2279445, 2279872, 2280217, 2280624, 2281007]","[2272152, 2272482, 2272796, 2273136, 2273516, 2273911, 2274283, 2274697, 2275079, 2275482, 2275856, 2276246, 2276597, 2277011, 2277459, 2277875, 2278243, 2278641, 2279224, 2279607, 2280024, 2280394, 2280774, 2281167]","[2271830, 2272229, 2272629, 2273030, 2273429, 2273829, 2274229, 2274629, 2274957, 2275354, 2275758, 2276122, 2276496, 2276929, 2277374, 2277791, 2278142, 2278547, 2279129, 2279471, 2279898, 2280243, 2280649, 2281032]",36,R,ITM,1.1,
6,600,trial,0,123,123,123,trial,"['S', 'S', 'S', 'S', 'S', 'S', 'S', 'S', 'C', 'C', 'C', 'C', 'C', 'C', 'C', 'C', 'C', 'C', 'C', 'C', 'C', 'C', 'C', 'C']","[2286828, 2287125, 2287739, 2288354, 2288966, 2289541, 2290117, 2290661, 2291267, 2291787, 2292325, 2292925, 2293509, 2294083, 2294627, 2295198, 2295774, 2296328, 2296871, 2297444, 2297979, 2298522, 2299064, 2299637]","[2286892, 2287301, 2287931, 2288563, 2289171, 2289752, 2290340, 2290878, 2291487, 2292113, 2292619, 2293196, 2293750, 2294313, 2294861, 2295408, 2295969, 2296507, 2297054, 2297638, 2298202, 2298720, 2299285, 2299804]","[2286596, 2287195, 2287795, 2288395, 2288995, 2289595, 2290195, 2290795, 2291295, 2291814, 2292352, 2292953, 2293535, 2294111, 2294653, 2295225, 2295800, 2296354, 2296898, 2297470, 2298007, 2298549, 2299091, 2299664]",36,R,ITM,1.1,
