pitch,ioi,event,.thisRepN,.thisTrialN,.thisN,.thisIndex,event,tap_types,tap_times,release_times,peak_pressures,peak_times,tone_times,subject,experimenter,register,handedness,experiment,version
,,SPR,0,-1,-1,0,SPR,"['P', 'P', 'P', 'P', 'P', 'P', 'P', 'P', 'P', 'P', 'P', 'P', 'P', 'P', 'P', 'P', 'P', 'P', 'P', 'P', 'P', 'P', 'P', 'P', 'P', 'P', 'P', 'P', 'P', 'P']","[34397, 34964, 35545, 36156, 36751, 37340, 37885, 38474, 39097, 39655, 40275, 40857, 41388, 41985, 42542, 43088, 43638, 44183, 44730, 45300, 45870, 46440, 46967, 47577, 48124, 48678, 49226, 49775, 50290, 50829]","[34544, 35138, 35715, 36306, 36872, 37476, 38033, 38596, 39219, 39800, 40421, 40987, 41531, 42078, 42650, 43188, 43766, 44273, 44875, 45437, 45947, 46547, 47115, 47704, 48253, 48813, 49341, 49878, 50397, 50941]","[38, 248, 243, 241, 203, 236, 250, 243, 4, 206, 227, 235, 220, 189, 217, 205, 204, 168, 204, 237, 173, 186, 215, 170, 173, 185, 129, 119, 90, 181]","[34469, 34968, 35549, 36161, 36756, 37344, 37890, 38476, 39102, 39656, 40280, 40859, 41390, 41987, 42544, 43089, 43640, 44185, 44732, 45301, 45871, 46442, 46968, 47581, 48129, 48680, 49230, 49776, 50295, 50831]",,74,SB,L,R,ITMSR,1.1
0,500,practice,0,0,0,0,practice,"['S', 'S', 'S', 'S', 'S', 'S', 'S', 'C', 'C', 'C', 'C', 'C', 'C', 'C', 'C', 'C', 'C', 'C', 'C', 'C', 'C', 'C', 'C']","[115868, 116404, 116876, 117372, 117866, 118346, 118851, 119348, 119811, 120288, 120767, 121241, 121711, 122173, 122632, 123119, 123558, 124010, 124531, 124965, 125491, 125940, 126430]","[115974, 116503, 116981, 117486, 117955, 118468, 118953, 119440, 119926, 120385, 120833, 121314, 121768, 122243, 122703, 123176, 123622, 124072, 124592, 125035, 125549, 126021, 126482]","[167, 13, 43, 237, 240, 212, 231, 200, 205, 161, 187, 123, 144, 138, 151, 85, 147, 37, 31, 144, 22, 64, 27]","[115873, 116409, 116880, 117377, 117870, 118351, 118855, 119352, 119816, 120292, 120771, 121244, 121716, 122178, 122636, 123123, 123561, 124014, 124536, 124969, 125497, 125945, 126434]","[115423, 115923, 116423, 116923, 117423, 117923, 118423, 118923, 119368, 119831, 120308, 120787, 121261, 121731, 122193, 122652, 123139, 123578, 124030, 124551, 124985, 125511, 125960, 126450]",74,SB,L,R,ITMSR,1.1
5,500,practice,0,1,1,1,practice,"['S', 'S', 'S', 'S', 'S', 'S', 'S', 'C', 'C', 'C', 'C', 'C', 'C', 'C', 'C', 'C', 'C', 'C', 'C', 'C', 'C', 'C', 'C']","[132184, 132712, 133189, 133675, 134148, 134684, 135185, 135662, 136181, 136670, 137144, 137634, 138137, 138632, 139107, 139599, 140111, 140589, 141097, 141585, 142076, 142596, 143094]","[132257, 132796, 133293, 133760, 134250, 134767, 135268, 135755, 136278, 136753, 137235, 137744, 138230, 138711, 139170, 139661, 140182, 140680, 141184, 141673, 142171, 142688, 143114]","[113, 209, 147, 106, 151, 63, 40, 53, 43, 57, 246, 254, 21, 1, 171, 14, 5, 210, 19, 29, 198, 211, 143]","[132189, 132716, 133194, 133679, 134153, 134688, 135190, 135667, 136185, 136674, 137145, 137639, 138142, 138637, 139112, 139603, 140115, 140594, 141102, 141589, 142082, 142601, 143098]","[131765, 132265, 132765, 133265, 133765, 134265, 134765, 135265, 135682, 136201, 136690, 137164, 137654, 138157, 138652, 139127, 139619, 140131, 140609, 141117, 141605, 142096, 142616, 143114]",74,SB,L,R,ITMSR,1.1
4,500,practice,0,2,2,2,practice,"['S', 'S', 'S', 'S', 'S', 'S', 'S', 'C', 'C', 'C', 'C', 'C', 'C', 'C', 'C', 'C', 'C', 'C', 'C', 'C', 'C', 'C', 'C']","[149358, 149833, 150299, 150774, 151262, 151750, 152254, 152747, 153214, 153694, 154182, 154679, 155153, 155618, 156108, 156584, 157092, 157568, 158030, 158503, 158989, 159468, 159947]","[149430, 149911, 150378, 150853, 151340, 151826, 152330, 152817, 153314, 153786, 154257, 154736, 155173, 155638, 156128, 156651, 157112, 157588, 158050, 158523, 159009, 159489, 159967]","[182, 247, 24, 244, 187, 203, 176, 108, 255, 236, 152, 109, 64, 113, 114, 166, 91, 63, 134, 132, 116, 67, 77]","[149363, 149837, 150303, 150779, 151264, 151754, 152258, 152749, 153221, 153699, 154187, 154683, 155158, 155622, 156112, 156590, 157099, 157572, 158035, 158508, 158994, 159472, 159952]","[148868, 149368, 149868, 150368, 150868, 151368, 151868, 152368, 152767, 153234, 153714, 154202, 154699, 155173, 155638, 156128, 156604, 157112, 157588, 158050, 158523, 159009, 159489, 159967]",74,SB,L,R,ITMSR,1.1
2,500,practice,0,3,3,3,practice,"['S', 'S', 'S', 'S', 'S', 'S', 'S', 'C', 'C', 'C', 'C', 'C', 'C', 'C', 'C', 'C', 'C', 'C', 'C', 'C', 'C', 'C', 'C']","[166211, 166650, 167126, 167597, 168096, 168584, 169072, 169587, 170097, 170577, 171031, 171500, 172003, 172485, 172979, 173440, 173919, 174432, 174860, 175343, 175834, 176304, 176776]","[166276, 166728, 167209, 167688, 168174, 168660, 169152, 169659, 170187, 170645, 171113, 171591, 172079, 172572, 173051, 173494, 173992, 174493, 174947, 175419, 175904, 176366, 176845]","[104, 185, 140, 192, 180, 179, 196, 102, 254, 236, 118, 121, 64, 122, 127, 112, 111, 198, 113, 116, 246, 240, 53]","[166218, 166656, 167133, 167603, 168102, 168589, 169077, 169593, 170138, 170583, 171037, 171506, 172008, 172490, 172983, 173445, 173925, 174439, 174866, 175350, 175872, 176340, 176815]","[165728, 166228, 166728, 167228, 167728, 168228, 168728, 169228, 169607, 170117, 170597, 171052, 171521, 172023, 172505, 172999, 173460, 173939, 174452, 174880, 175363, 175854, 176324, 176796]",74,SB,L,R,ITMSR,1.1
3,500,practice,0,4,4,4,practice,"['S', 'S', 'S', 'S', 'S', 'S', 'C', 'C', 'C', 'C', 'C', 'C', 'C', 'C', 'C', 'C', 'C', 'C', 'C', 'C', 'C', 'C']","[183159, 183657, 184130, 184642, 185138, 185638, 186129, 186618, 187079, 187545, 188004, 188502, 188962, 189453, 189917, 190390, 190857, 191353, 191838, 192316, 192751, 193246]","[183222, 183709, 184210, 184707, 185213, 185701, 186205, 186681, 187151, 187614, 188086, 188558, 188983, 189473, 190001, 190464, 190939, 191433, 191915, 192378, 192824, 193307]","[77, 38, 63, 62, 43, 46, 59, 43, 111, 54, 70, 228, 248, 178, 8, 51, 224, 237, 210, 203, 50, 216]","[183164, 183662, 184135, 184647, 185143, 185644, 186133, 186624, 187084, 187550, 188009, 188506, 188967, 189459, 189920, 190395, 190863, 191358, 191842, 192320, 192755, 193251]","[182244, 182744, 183244, 183744, 184244, 184744, 185244, 185744, 186149, 186638, 187099, 187565, 188024, 188522, 188982, 189473, 189937, 190410, 190877, 191373, 191858, 192336, 192771, 193266]",74,SB,L,R,ITMSR,1.1
1,500,practice,0,5,5,5,practice,"['S', 'S', 'S', 'S', 'S', 'S', 'S', 'C', 'C', 'C', 'C', 'C', 'C', 'C', 'C', 'C', 'C', 'C', 'C', 'C', 'C', 'C', 'C']","[199480, 199945, 200423, 200923, 201416, 201907, 202392, 202899, 203392, 203855, 204320, 204805, 205267, 205739, 206205, 206664, 207178, 207645, 208090, 208577, 209063, 209557, 210016]","[199512, 199998, 200489, 200985, 201465, 201957, 202460, 202957, 203461, 203905, 204391, 204854, 205334, 205800, 206267, 206734, 207229, 207709, 208175, 208661, 209141, 209619, 210072]","[194, 95, 145, 131, 91, 53, 114, 82, 106, 108, 123, 41, 112, 32, 23, 5, 209, 74, 113, 50, 53, 13, 48]","[199485, 199950, 200428, 200927, 201421, 201912, 202397, 202903, 203397, 203860, 204324, 204809, 205273, 205744, 206211, 206668, 207183, 207650, 208095, 208582, 209068, 209559, 210020]","[199040, 199538, 200038, 200538, 201038, 201538, 202038, 202539, 202919, 203412, 203875, 204340, 204825, 205287, 205759, 206225, 206684, 207198, 207665, 208110, 208598, 209083, 209577, 210036]",74,SB,L,R,ITMSR,1.1
3,400,trial,0,6,6,6,trial,"['S', 'S', 'S', 'S', 'S', 'S', 'C', 'C', 'C', 'C', 'C', 'C', 'C', 'C', 'C', 'C', 'C', 'C', 'C', 'C', 'C', 'C']","[220583, 220845, 221205, 221587, 221967, 222352, 222734, 223101, 223477, 223863, 224212, 224577, 224941, 225305, 225656, 226008, 226356, 226711, 227083, 227431, 227786, 228135]","[220628, 220921, 221276, 221656, 222017, 222412, 222801, 223161, 223535, 223915, 224291, 224643, 225008, 225372, 225715, 226076, 226423, 226775, 227136, 227491, 227840, 228188]","[184, 32, 182, 113, 53, 70, 146, 200, 199, 153, 247, 219, 214, 154, 195, 176, 198, 129, 85, 118, 206, 112]","[220590, 220849, 221208, 221591, 221971, 222354, 222738, 223106, 223481, 223867, 224214, 224581, 224945, 225309, 225660, 226013, 226359, 226715, 227086, 227433, 227790, 228140]","[219635, 220035, 220435, 220835, 221235, 221635, 222035, 222435, 222754, 223121, 223497, 223883, 224232, 224598, 224961, 225325, 225676, 226028, 226376, 226732, 227103, 227451, 227806, 228155]",74,SB,L,R,ITMSR,1.1
2,400,trial,0,7,7,7,trial,"['S', 'S', 'S', 'S', 'S', 'S', 'S', 'C', 'C', 'C', 'C', 'C', 'C', 'C', 'C', 'C', 'C', 'C', 'C', 'C', 'C', 'C', 'C']","[234179, 234648, 235023, 235424, 235833, 236230, 236617, 237016, 237394, 237753, 238162, 238553, 238924, 239294, 239694, 240021, 240429, 240830, 241184, 241566, 241951, 242308, 242680]","[234222, 234688, 235096, 235499, 235894, 236309, 236683, 237065, 237473, 237832, 238232, 238606, 238977, 239351, 239742, 240089, 240482, 240883, 241253, 241644, 242013, 242358, 242736]","[43, 68, 221, 115, 158, 202, 172, 90, 111, 179, 139, 85, 103, 99, 6, 196, 100, 120, 150, 178, 108, 108, 135]","[234184, 234651, 235027, 235426, 235837, 236233, 236620, 237020, 237400, 237758, 238168, 238558, 238927, 239299, 239697, 240025, 240434, 240834, 241189, 241570, 241955, 242312, 242685]","[233880, 234280, 234680, 235080, 235480, 235880, 236280, 236680, 237036, 237414, 237773, 238182, 238573, 238944, 239314, 239714, 240041, 240449, 240850, 241204, 241586, 241971, 242328, 242700]",74,SB,L,R,ITMSR,1.1
4,600,trial,0,8,8,8,trial,"['S', 'S', 'S', 'S', 'S', 'S', 'S', 'C', 'C', 'C', 'C', 'C', 'C', 'C', 'C', 'C', 'C', 'C', 'C', 'C', 'C', 'C', 'C']","[248471, 249350, 249873, 250473, 251095, 251648, 252222, 252814, 253417, 253948, 254557, 255134, 255685, 256238, 256752, 257333, 257941, 258536, 259051, 259609, 260209, 260822, 261369]","[248529, 249421, 249936, 250535, 251139, 251719, 252297, 252896, 253498, 254050, 254597, 255212, 255705, 256267, 256837, 257402, 258007, 258556, 259131, 259687, 260284, 260900, 261444]","[246, 195, 105, 48, 37, 112, 186, 62, 242, 131, 44, 53, 6, 34, 70, 61, 0, 193, 235, 39, 5, 231, 200]","[248473, 249355, 249878, 250477, 251098, 251652, 252226, 252818, 253420, 253954, 254560, 255138, 255690, 256243, 256757, 257339, 257943, 258538, 259055, 259611, 260214, 260827, 261371]","[248119, 248719, 249319, 249919, 250519, 251119, 251719, 252319, 252834, 253437, 253968, 254577, 255154, 255705, 256258, 256772, 257353, 257961, 258556, 259072, 259629, 260229, 260842, 261389]",74,SB,L,R,ITMSR,1.1
1,400,trial,0,9,9,9,trial,"['S', 'S', 'S', 'S', 'S', 'S', 'S', 'C', 'C', 'C', 'C', 'C', 'C', 'C', 'C', 'C', 'C', 'C', 'C', 'C', 'C', 'C', 'C']","[267328, 267696, 268070, 268441, 268839, 269221, 269647, 270061, 270450, 270827, 271220, 271623, 272003, 272408, 272783, 273177, 273569, 273948, 274326, 274725, 275125, 275491, 275877]","[267416, 267766, 268146, 268500, 268871, 269282, 269712, 270160, 270515, 270895, 271290, 271685, 272082, 272489, 272861, 273234, 273589, 273968, 274347, 274745, 275145, 275511, 275897]","[114, 174, 196, 179, 36, 29, 168, 230, 25, 245, 139, 89, 186, 94, 94, 248, 218, 110, 198, 167, 141, 137, 151]","[267389, 267700, 268076, 268446, 268845, 269225, 269651, 270065, 270454, 270832, 271253, 271630, 272008, 272413, 272787, 273182, 273572, 273952, 274329, 274728, 275129, 275494, 275881]","[266904, 267303, 267703, 268103, 268504, 268904, 269304, 269704, 270082, 270470, 270848, 271240, 271643, 272023, 272429, 272803, 273197, 273589, 273968, 274347, 274745, 275145, 275511, 275897]",74,SB,L,R,ITMSR,1.1
1,600,trial,0,10,10,10,trial,"['S', 'S', 'S', 'S', 'S', 'S', 'S', 'C', 'C', 'C', 'C', 'C', 'C', 'C', 'C', 'C', 'C', 'C', 'C', 'C', 'C', 'C', 'C']","[282162, 282669, 283257, 283817, 284431, 285009, 285605, 286163, 286734, 287298, 287846, 288376, 288927, 289502, 290015, 290560, 291140, 291677, 292243, 292774, 293349, 293883, 294482]","[282226, 282755, 283315, 283899, 284495, 285100, 285675, 286183, 286821, 287362, 287917, 288474, 289000, 289522, 290104, 290592, 291172, 291697, 292263, 292794, 293369, 293903, 294502]","[237, 253, 230, 64, 227, 213, 192, 189, 239, 213, 17, 13, 236, 228, 250, 254, 245, 40, 189, 237, 211, 233, 1]","[282167, 282673, 283261, 283823, 284433, 285011, 285607, 286166, 286737, 287301, 287850, 288380, 288931, 289507, 290020, 290565, 291144, 291681, 292248, 292780, 293350, 293889, 294487]","[281473, 282072, 282672, 283272, 283872, 284472, 285072, 285672, 286183, 286754, 287319, 287866, 288396, 288947, 289522, 290035, 290580, 291160, 291697, 292263, 292794, 293369, 293903, 294502]",74,SB,L,R,ITMSR,1.1
0,600,trial,0,11,11,11,trial,"['S', 'S', 'S', 'S', 'S', 'S', 'S', 'C', 'C', 'C', 'C', 'C', 'C', 'C', 'C', 'C', 'C', 'C', 'C', 'C', 'C', 'C', 'C', 'C']","[300507, 301179, 301746, 302383, 302992, 303546, 304137, 304736, 305350, 305998, 306570, 307200, 307825, 308420, 308521, 309068, 309654, 310284, 310860, 311497, 312091, 312689, 313299, 315225]","[300538, 301255, 301766, 302403, 303012, 303566, 304157, 304756, 305370, 306018, 306590, 307220, 307845, 308440, 308541, 309088, 309675, 310304, 310880, 311517, 312111, 312709, 313355, 315366]","[80, 161, 215, 46, 168, 151, 142, 139, 171, 81, 154, 154, 121, 111, 153, 71, 154, 103, 63, 93, 75, 51, 81, 128]","[300508, 301180, 301750, 302385, 302997, 303547, 304139, 304739, 305353, 306001, 306571, 307201, 307826, 308421, 308523, 309071, 309657, 310285, 310866, 311498, 312097, 312693, 313313, 315230]","[299997, 300597, 301197, 301797, 302397, 302997, 303597, 304197, 304756, 305370, 306018, 306590, 307220, 307845, 308440, 309088, 309675, 310304, 310880, 311517, 312111, 312709, 313319, 315245]",74,SB,L,R,ITMSR,1.1
0,400,trial,0,12,12,12,trial,"['S', 'S', 'S', 'S', 'S', 'S', 'S', 'C', 'C', 'C', 'C', 'C', 'C', 'C', 'C', 'C', 'C', 'C', 'C', 'C', 'C', 'C', 'C']","[320794, 321398, 321743, 322126, 322522, 322912, 323314, 323743, 324135, 324529, 324880, 325245, 325636, 325999, 326369, 326753, 327108, 327498, 327885, 328260, 328640, 329003, 329377]","[320874, 321468, 321819, 322209, 322574, 322985, 323358, 323808, 324203, 324585, 324930, 325324, 325706, 326083, 326433, 326809, 327216, 327571, 327905, 328315, 328696, 329081, 329397]","[89, 23, 23, 55, 41, 157, 175, 213, 58, 151, 103, 90, 117, 71, 84, 237, 96, 47, 46, 92, 92, 138, 94]","[320797, 321403, 321748, 322130, 322525, 322960, 323319, 323747, 324141, 324534, 324885, 325250, 325642, 326004, 326374, 326755, 327113, 327502, 327889, 328264, 328642, 329007, 329381]","[320619, 321019, 321419, 321819, 322220, 322619, 323019, 323419, 323763, 324155, 324549, 324900, 325265, 325656, 326019, 326389, 326773, 327128, 327518, 327905, 328280, 328660, 329023, 329397]",74,SB,L,R,ITMSR,1.1
1,600,trial,0,13,13,13,trial,"['S', 'S', 'S', 'S', 'S', 'S', 'S', 'C', 'C', 'C', 'C', 'C', 'C', 'C', 'C', 'C', 'C', 'C', 'C', 'C', 'C', 'C', 'C']","[335671, 336110, 336723, 337319, 337912, 338498, 339115, 339687, 340244, 340809, 341402, 341987, 342578, 343168, 343754, 344336, 344932, 345567, 346129, 346705, 347335, 347925, 348522]","[335745, 336144, 336816, 337401, 337932, 338518, 339135, 339749, 340288, 340876, 341465, 342054, 342645, 343229, 343817, 344403, 344997, 345617, 346191, 346799, 347402, 347945, 348542]","[174, 237, 181, 13, 171, 213, 245, 31, 246, 174, 178, 134, 65, 80, 178, 113, 181, 229, 154, 72, 78, 46, 8]","[335708, 336115, 336727, 337324, 337914, 338502, 339120, 339691, 340247, 340813, 341405, 341992, 342581, 343172, 343758, 344338, 344936, 345573, 346133, 346710, 347338, 347929, 348526]","[334955, 335554, 336154, 336754, 337354, 337954, 338554, 339154, 339707, 340264, 340829, 341422, 342007, 342598, 343188, 343774, 344356, 344952, 345587, 346149, 346725, 347355, 347945, 348542]",74,SB,L,R,ITMSR,1.1
3,600,trial,0,14,14,14,trial,"['S', 'S', 'S', 'S', 'S', 'S', 'S', 'S', 'C', 'C', 'C', 'C', 'C', 'C', 'C', 'C', 'C', 'C', 'C', 'C', 'C', 'C', 'C', 'C', 'C']","[354502, 354846, 355401, 356031, 356616, 357217, 357816, 358380, 358972, 359572, 360140, 360755, 361334, 361944, 362510, 363133, 363695, 364307, 364903, 365003, 365546, 366133, 366791, 367373, 367983]","[354522, 354928, 355508, 356133, 356697, 357308, 357903, 358400, 358992, 359649, 360160, 360819, 361421, 362013, 362606, 363215, 363715, 364406, 364923, 365023, 365566, 366230, 366811, 367459, 368061]","[29, 114, 192, 241, 148, 186, 182, 159, 28, 99, 80, 65, 133, 180, 140, 78, 21, 76, 190, 116, 112, 70, 221, 96, 111]","[354506, 354900, 355405, 356036, 356620, 357220, 357820, 358383, 358976, 359575, 360143, 360759, 361337, 361948, 362514, 363139, 363700, 364312, 364908, 365003, 365548, 366136, 366794, 367377, 367986]","[354260, 354861, 355461, 356061, 356661, 357261, 357861, 358461, 358992, 359592, 360160, 360775, 361354, 361964, 362530, 363153, 363715, 364327, 364923, 365566, 366153, 366811, 367393, 368003]",74,SB,L,R,ITMSR,1.1
4,600,trial,0,15,15,15,trial,"['S', 'S', 'S', 'S', 'S', 'S', 'S', 'C', 'C', 'C', 'C', 'C', 'C', 'C', 'C', 'C', 'C', 'C', 'C', 'C', 'C', 'C', 'C']","[374126, 374779, 375312, 375933, 376530, 377152, 377761, 378353, 378981, 379547, 380118, 380730, 381280, 381908, 382477, 383104, 383684, 384308, 384896, 385501, 386048, 386655, 387256]","[374172, 374838, 375398, 376008, 376619, 377221, 377830, 378433, 379055, 379631, 380213, 380792, 381300, 381928, 382564, 383197, 383781, 384391, 384979, 385596, 386139, 386675, 387335]","[12, 6, 132, 62, 34, 22, 238, 4, 226, 8, 236, 243, 202, 201, 240, 184, 252, 251, 14, 26, 235, 128, 148]","[374129, 374784, 375316, 375937, 376590, 377155, 377765, 378356, 379011, 379548, 380119, 380731, 381284, 381912, 382481, 383131, 383744, 384312, 384952, 385561, 386053, 386660, 387260]","[373667, 374267, 374867, 375468, 376067, 376667, 377267, 377867, 378373, 379001, 379567, 380138, 380750, 381300, 381928, 382497, 383124, 383704, 384328, 384916, 385521, 386068, 386675, 387276]",74,SB,L,R,ITMSR,1.1
5,400,trial,0,16,16,16,trial,"['S', 'S', 'S', 'S', 'S', 'S', 'S', 'S', 'C', 'C', 'C', 'C', 'C', 'C', 'C', 'C', 'C', 'C', 'C', 'C', 'C', 'C', 'C', 'C']","[392986, 393326, 393632, 393978, 394361, 394730, 395174, 395548, 395932, 396306, 396669, 397032, 397417, 397779, 398135, 398501, 398862, 399254, 399617, 399980, 400353, 400719, 401095, 401415]","[393053, 393422, 393717, 394062, 394425, 394801, 395233, 395568, 396005, 396370, 396689, 397052, 397437, 397838, 398210, 398568, 398947, 399327, 399684, 400053, 400405, 400793, 401158, 401508]","[7, 219, 131, 138, 152, 154, 102, 80, 240, 77, 238, 24, 243, 30, 62, 79, 80, 37, 42, 20, 22, 47, 44, 61]","[393015, 393371, 393636, 393981, 394364, 394734, 395179, 395550, 395935, 396309, 396674, 397036, 397421, 397783, 398139, 398504, 398866, 399258, 399618, 399982, 400357, 400721, 401097, 401418]","[392819, 393219, 393619, 394019, 394419, 394819, 395219, 395619, 395952, 396326, 396689, 397052, 397437, 397799, 398155, 398521, 398882, 399275, 399637, 400001, 400373, 400739, 401115, 401435]",74,SB,L,R,ITMSR,1.1
1,400,trial,0,17,17,17,trial,"['S', 'S', 'S', 'S', 'S', 'S', 'S', 'C', 'C', 'C', 'C', 'C', 'C', 'C', 'C', 'C', 'C', 'C', 'C', 'C', 'C', 'C', 'C']","[406987, 407511, 407924, 408380, 408752, 409142, 409551, 409959, 410327, 410717, 411095, 411476, 411842, 412219, 412595, 412995, 413371, 414150, 414509, 414893, 415256, 415608, 415988]","[407022, 407597, 407984, 408453, 408833, 409221, 409607, 409981, 410402, 410779, 411156, 411496, 411863, 412239, 412615, 413016, 413391, 414170, 414529, 414913, 415324, 415691, 416078]","[181, 99, 143, 4, 218, 14, 123, 44, 90, 83, 136, 221, 22, 10, 45, 18, 202, 28, 167, 162, 242, 128, 244]","[406991, 407516, 407929, 408383, 408755, 409145, 409554, 409962, 410330, 410720, 411098, 411481, 411845, 412221, 412597, 412995, 413372, 414152, 414511, 414895, 415259, 415611, 415992]","[406796, 407196, 407597, 407997, 408397, 408797, 409197, 409597, 409979, 410347, 410737, 411115, 411496, 411863, 412239, 412615, 413016, 413391, 414170, 414529, 414913, 415277, 415628, 416008]",74,SB,L,R,ITMSR,1.1
2,600,trial,0,18,18,18,trial,"['S', 'S', 'S', 'S', 'S', 'S', 'S', 'S', 'C', 'C', 'C', 'C', 'C', 'C', 'C', 'C', 'C', 'C', 'C', 'C', 'C', 'C', 'C', 'C']","[421836, 422070, 422784, 423360, 423968, 424562, 425122, 425729, 426352, 426876, 427448, 428011, 428564, 429110, 429675, 430212, 430760, 431290, 431859, 432431, 432975, 433511, 434055, 434567]","[421886, 422232, 422920, 423496, 424078, 424681, 425248, 425820, 426428, 426969, 427541, 428088, 428648, 429209, 429773, 430296, 430857, 431310, 431936, 432451, 433054, 433589, 434129, 434648]","[119, 247, 95, 69, 47, 38, 70, 22, 220, 231, 212, 47, 124, 150, 145, 207, 211, 208, 21, 227, 55, 65, 41, 38]","[421844, 422074, 422789, 423366, 423972, 424566, 425127, 425734, 426357, 426882, 427453, 428016, 428569, 429115, 429680, 430217, 430766, 431295, 431863, 432436, 432979, 433514, 434059, 434570]","[421649, 422248, 422848, 423448, 424048, 424648, 425248, 425848, 426372, 426896, 427468, 428032, 428584, 429130, 429696, 430232, 430780, 431310, 431879, 432451, 432995, 433531, 434075, 434587]",74,SB,L,R,ITMSR,1.1
2,600,trial,0,19,19,19,trial,"['S', 'S', 'S', 'S', 'S', 'S', 'S', 'S', 'C', 'C', 'C', 'C', 'C', 'C', 'C', 'C', 'C', 'C', 'C', 'C', 'C', 'C', 'C', 'C', 'C']","[440121, 440439, 441111, 441652, 442291, 442865, 443501, 444099, 444684, 445274, 445843, 446397, 446994, 447544, 448140, 448704, 448804, 449280, 449861, 450408, 451018, 451573, 452167, 452751, 453324]","[440187, 440583, 441238, 441780, 442392, 442974, 443642, 444255, 444821, 445411, 445947, 446503, 447108, 447660, 448160, 448724, 448824, 449300, 449942, 450491, 451133, 451689, 452292, 452848, 453440]","[255, 47, 251, 63, 115, 157, 90, 16, 62, 22, 17, 52, 37, 26, 186, 253, 6, 255, 40, 60, 194, 242, 255, 51, 163]","[440125, 440443, 441116, 441657, 442295, 442868, 443505, 444103, 444688, 445277, 445847, 446400, 446998, 447548, 448143, 448707, 448804, 449284, 449864, 450411, 451022, 451577, 452171, 452755, 453388]","[439966, 440566, 441166, 441766, 442366, 442967, 443566, 444166, 444704, 445294, 445863, 446417, 447014, 447564, 448160, 448724, 449300, 449881, 450428, 451038, 451593, 452187, 452771, 453344]",74,SB,L,R,ITMSR,1.1
3,600,trial,0,20,20,20,trial,"['S', 'S', 'S', 'S', 'S', 'S', 'S', 'S', 'C', 'C', 'C', 'C', 'C', 'C', 'C', 'C', 'C', 'C', 'C', 'C', 'C', 'C', 'C', 'C', 'C', 'C', 'C', 'C']","[459319, 459972, 460584, 461215, 461316, 461786, 462357, 462990, 463604, 464185, 464789, 465373, 465957, 466541, 467125, 467683, 468245, 468345, 468866, 469454, 469554, 470036, 470136, 470588, 470688, 471230, 471778, 472341]","[459407, 460042, 460657, 461235, 461339, 461936, 462507, 463010, 463696, 464299, 464901, 465478, 466059, 466562, 467145, 467703, 468265, 468365, 468886, 469474, 469574, 470056, 470157, 470608, 470708, 471309, 471869, 472457]","[157, 234, 196, 233, 147, 38, 14, 17, 189, 161, 207, 78, 10, 31, 4, 18, 224, 174, 52, 219, 48, 43, 63, 23, 75, 7, 80, 78]","[459325, 459978, 460590, 461219, 461316, 461790, 462360, 462993, 463607, 464190, 464795, 465377, 465960, 466545, 467127, 467686, 468249, 468345, 468870, 469458, 469554, 470040, 470136, 470592, 470688, 471234, 471781, 472345]","[458835, 459435, 460034, 460634, 461234, 461834, 462434, 463034, 463624, 464205, 464809, 465393, 465977, 466562, 467145, 467703, 468265, 468886, 469474, 470056, 470608, 471250, 471798, 472361]",74,SB,L,R,ITMSR,1.1
3,400,trial,0,21,21,21,trial,"['S', 'S', 'S', 'S', 'S', 'S', 'S', 'C', 'C', 'C', 'C', 'C', 'C', 'C', 'C', 'C', 'C', 'C', 'C', 'C', 'C', 'C', 'C']","[478309, 478671, 479107, 479561, 479987, 480393, 480795, 481201, 481589, 481943, 482315, 482683, 483047, 483442, 483808, 484195, 484555, 484929, 485298, 485661, 486038, 486388, 486788]","[478388, 478745, 479178, 479621, 480034, 480450, 480858, 481248, 481658, 482022, 482403, 482756, 483127, 483548, 483924, 484272, 484665, 485028, 485389, 485757, 486126, 486495, 486867]","[148, 94, 35, 70, 78, 156, 128, 69, 201, 165, 123, 154, 26, 99, 178, 100, 124, 114, 160, 123, 132, 115, 105]","[478315, 478675, 479112, 479566, 479991, 480397, 480799, 481205, 481592, 481947, 482319, 482688, 483052, 483447, 483811, 484199, 484559, 484933, 485302, 485665, 486042, 486392, 486792]","[478083, 478483, 478883, 479283, 479683, 480083, 480483, 480883, 481221, 481609, 481964, 482335, 482703, 483067, 483462, 483828, 484215, 484575, 484950, 485318, 485681, 486059, 486408, 486808]",74,SB,L,R,ITMSR,1.1
5,400,trial,0,22,22,22,trial,"['S', 'S', 'S', 'S', 'S', 'S', 'S', 'S', 'C', 'C', 'C', 'C', 'C', 'C', 'C', 'C', 'C', 'C', 'C', 'C', 'C', 'C', 'C', 'C']","[492392, 492665, 492957, 493340, 493739, 494138, 494507, 494898, 495302, 495677, 496033, 496395, 496771, 497144, 497503, 497860, 498186, 498568, 498934, 499289, 499640, 499989, 500354, 500715]","[492464, 492742, 493046, 493432, 493831, 494235, 494613, 494979, 495380, 495754, 496128, 496494, 496862, 497164, 497584, 497931, 498275, 498588, 499005, 499362, 499703, 500060, 500448, 500794]","[224, 109, 99, 121, 103, 128, 97, 109, 80, 40, 131, 126, 59, 47, 26, 63, 61, 74, 83, 101, 99, 66, 92, 57]","[492397, 492669, 492960, 493343, 493743, 494142, 494512, 494902, 495306, 495682, 496037, 496399, 496775, 497147, 497508, 497863, 498191, 498572, 498937, 499293, 499644, 499993, 500358, 500719]","[492171, 492571, 492972, 493371, 493771, 494171, 494571, 494971, 495322, 495697, 496053, 496415, 496791, 497164, 497523, 497880, 498206, 498588, 498954, 499309, 499660, 500009, 500374, 500736]",74,SB,L,R,ITMSR,1.1
0,400,trial,0,23,23,23,trial,"['S', 'S', 'S', 'S', 'S', 'S', 'S', 'C', 'C', 'C', 'C', 'C', 'C', 'C', 'C', 'C', 'C', 'C', 'C', 'C', 'C', 'C', 'C']","[506497, 506885, 507385, 507852, 508271, 508679, 509077, 509487, 509874, 510263, 510668, 511043, 511446, 511835, 512195, 512594, 512998, 513387, 513764, 514143, 514528, 514915, 515272]","[506595, 506956, 507485, 507927, 508350, 508774, 509152, 509565, 509969, 510339, 510739, 511140, 511528, 511926, 512286, 512668, 513101, 513480, 513857, 514249, 514619, 515015, 515356]","[7, 130, 144, 175, 172, 131, 25, 87, 82, 74, 67, 109, 102, 80, 89, 130, 144, 141, 61, 127, 137, 94, 0]","[506501, 506889, 507389, 507856, 508274, 508683, 509081, 509491, 509878, 510267, 510672, 511047, 511450, 511840, 512199, 512599, 513002, 513391, 513768, 514147, 514533, 514919, 515276]","[506307, 506707, 507107, 507507, 507907, 508307, 508707, 509107, 509507, 509894, 510283, 510688, 511064, 511466, 511855, 512216, 512614, 513018, 513408, 513784, 514163, 514548, 514935, 515292]",74,SB,L,R,ITMSR,1.1
4,400,trial,0,24,24,24,trial,"['B', 'S', 'S', 'S', 'S', 'S', 'S', 'S', 'C', 'C', 'C', 'C', 'C', 'C', 'C', 'C', 'C', 'C', 'C', 'C', 'C', 'C', 'C', 'C']","[520856, 521311, 521670, 522049, 522411, 522811, 523211, 523609, 524023, 524409, 524826, 525175, 525540, 525935, 526313, 526699, 527082, 527446, 527810, 528221, 528569, 528965, 529334, 529712]","[520918, 521408, 521765, 522142, 522515, 522900, 523311, 523698, 524125, 524429, 524874, 525265, 525644, 526034, 526405, 526814, 527144, 527552, 527924, 528303, 528665, 529043, 529432, 529838]","[129, 91, 118, 151, 133, 80, 83, 94, 91, 251, 255, 76, 52, 86, 104, 87, 23, 82, 214, 67, 30, 226, 72, 75]","[520856, 521315, 521675, 522053, 522415, 522815, 523215, 523613, 524027, 524413, 524830, 525180, 525544, 525939, 526317, 526703, 527086, 527450, 527816, 528225, 528572, 528970, 529339, 529717]","[520867, 521267, 521667, 522067, 522467, 522867, 523267, 523667, 524043, 524429, 524846, 525195, 525560, 525955, 526333, 526720, 527102, 527466, 527831, 528241, 528589, 528985, 529354, 529732]",74,SB,L,R,ITMSR,1.1
0,600,trial,0,25,25,25,trial,"['S', 'S', 'S', 'S', 'S', 'S', 'S', 'S', 'S', 'C', 'C', 'C', 'C', 'C', 'C', 'C', 'C', 'C', 'C', 'C', 'C', 'C', 'C', 'C', 'C']","[535691, 536178, 536680, 536780, 537251, 537814, 538400, 539013, 539612, 540223, 540774, 541358, 541907, 542489, 543040, 543632, 544176, 544721, 545292, 545839, 546402, 546933, 547462, 548008, 548554]","[535755, 536300, 536700, 536826, 537399, 537904, 538480, 539104, 539707, 540312, 540862, 541437, 541993, 542509, 543126, 543700, 544269, 544834, 545398, 545959, 546516, 547067, 547578, 548122, 548644]","[84, 143, 43, 84, 254, 10, 4, 97, 11, 188, 55, 96, 74, 221, 55, 222, 106, 75, 109, 115, 80, 112, 117, 88, 95]","[535696, 536181, 536684, 536780, 537256, 537819, 538405, 539017, 539616, 540228, 540779, 541362, 541912, 542494, 543044, 543636, 544181, 544726, 545297, 545843, 546407, 546937, 547466, 548013, 548558]","[535490, 536090, 536690, 537290, 537890, 538490, 539090, 539691, 540243, 540794, 541378, 541927, 542509, 543060, 543652, 544196, 544741, 545312, 545859, 546422, 546953, 547482, 548028, 548574]",74,SB,L,R,ITMSR,1.1
2,400,trial,0,26,26,26,trial,"['B', 'S', 'S', 'S', 'S', 'S', 'S', 'S', 'C', 'C', 'C', 'C', 'C', 'C', 'C', 'C', 'C', 'C', 'C', 'C', 'C', 'C', 'C', 'C', 'C']","[554337, 554788, 555130, 555509, 555877, 556292, 556689, 557061, 557455, 557851, 558236, 558602, 559017, 559395, 559787, 560144, 560524, 560900, 561000, 561283, 561664, 562024, 562414, 562795, 563163]","[554482, 554906, 555262, 555641, 556024, 556427, 556824, 557181, 557582, 557971, 558352, 558722, 559121, 559509, 559868, 560270, 560657, 560920, 561022, 561393, 561768, 562132, 562434, 562890, 563277]","[216, 105, 207, 127, 155, 157, 137, 124, 115, 105, 62, 100, 89, 74, 82, 64, 41, 56, 248, 72, 113, 77, 246, 51, 67]","[554375, 554793, 555134, 555513, 555881, 556295, 556694, 557065, 557459, 557855, 558241, 558606, 559022, 559399, 559792, 560148, 560528, 560904, 561000, 561288, 561668, 562029, 562419, 562800, 563168]","[554348, 554748, 555148, 555548, 555949, 556349, 556749, 557149, 557475, 557871, 558256, 558622, 559037, 559415, 559807, 560164, 560544, 560920, 561303, 561684, 562044, 562434, 562816, 563183]",74,SB,L,R,ITMSR,1.1
4,400,trial,0,27,27,27,trial,"['S', 'S', 'S', 'S', 'S', 'S', 'S', 'S', 'C', 'C', 'C', 'C', 'C', 'C', 'C', 'C', 'C', 'C', 'C', 'C', 'C', 'C', 'C', 'C']","[569008, 569304, 569641, 569988, 570364, 570768, 571146, 571551, 571961, 572352, 572682, 573086, 573473, 573840, 574217, 574561, 574973, 575377, 575736, 576092, 576464, 576820, 577188, 577547]","[569118, 569404, 569728, 570107, 570498, 570887, 571248, 571634, 572040, 572427, 572788, 573186, 573551, 573946, 574302, 574650, 575075, 575482, 575827, 576194, 576566, 576914, 577288, 577626]","[170, 195, 193, 152, 203, 227, 175, 163, 98, 248, 148, 92, 153, 140, 133, 123, 8, 120, 103, 80, 133, 101, 82, 53]","[569013, 569307, 569645, 569992, 570368, 570771, 571149, 571555, 571966, 572356, 572686, 573090, 573477, 573843, 574221, 574565, 574979, 575381, 575740, 576096, 576470, 576824, 577192, 577551]","[568825, 569225, 569625, 570025, 570425, 570825, 571225, 571625, 571981, 572372, 572702, 573106, 573493, 573860, 574237, 574581, 574993, 575397, 575756, 576112, 576484, 576840, 577208, 577567]",74,SB,L,R,ITMSR,1.1
5,600,trial,0,28,28,28,trial,"['S', 'S', 'S', 'S', 'S', 'S', 'S', 'S', 'C', 'C', 'C', 'C', 'C', 'C', 'C', 'C', 'C', 'C', 'C', 'C', 'C', 'C', 'C', 'C']","[583180, 583447, 584185, 584799, 585368, 585973, 586599, 587184, 587756, 588344, 588903, 589458, 590052, 590679, 591246, 591828, 592458, 592989, 593588, 594159, 594761, 595360, 595936, 596512]","[583249, 583585, 584357, 585022, 585634, 586248, 586899, 587375, 587883, 588475, 589046, 589630, 590255, 590862, 591429, 592009, 592604, 593165, 593774, 594343, 594948, 595566, 596112, 596691]","[72, 190, 144, 129, 157, 191, 207, 169, 138, 54, 81, 86, 109, 107, 118, 121, 118, 176, 137, 111, 191, 128, 214, 182]","[583184, 583451, 584190, 584803, 585372, 585977, 586602, 587188, 587760, 588347, 588989, 589462, 590055, 590682, 591249, 591833, 592462, 592992, 593592, 594162, 594765, 595363, 595940, 596515]","[583027, 583626, 584226, 584826, 585426, 586027, 586626, 587226, 587777, 588364, 588923, 589478, 590072, 590699, 591266, 591848, 592478, 593009, 593608, 594179, 594781, 595380, 595956, 596532]",74,SB,L,R,ITMSR,1.1
5,600,trial,0,29,29,29,trial,"['B', 'S', 'S', 'S', 'S', 'S', 'S', 'S', 'C', 'C', 'C', 'C', 'C', 'C', 'C', 'C', 'C', 'C', 'C', 'C', 'C', 'C', 'C', 'C']","[602218, 602851, 603374, 603991, 604615, 605181, 605795, 606358, 606985, 607575, 608154, 608757, 609321, 609921, 610536, 611115, 611701, 612295, 612912, 613495, 614075, 614677, 615273, 615834]","[602317, 603018, 603635, 604201, 604823, 605424, 606024, 606645, 607211, 607822, 608334, 608948, 609571, 610154, 610732, 611328, 611942, 612525, 613086, 613691, 614241, 614859, 615431, 615995]","[181, 142, 213, 161, 216, 193, 220, 220, 193, 148, 162, 156, 184, 185, 187, 50, 205, 201, 179, 124, 141, 48, 233, 110]","[602230, 602854, 603377, 603994, 604618, 605185, 605798, 606361, 606988, 607579, 608158, 608760, 609325, 609925, 610539, 611119, 611705, 612298, 612915, 613498, 614078, 614680, 615276, 615837]","[602230, 602830, 603430, 604030, 604631, 605230, 605830, 606430, 607005, 607595, 608174, 608777, 609341, 609941, 610556, 611135, 611721, 612315, 612932, 613515, 614095, 614697, 615293, 615854]",74,SB,L,R,ITMSR,1.1
3,600,trial,0,30,30,30,trial,"['S', 'S', 'S', 'S', 'S', 'C', 'C', 'C', 'C', 'C', 'C', 'C', 'C', 'C', 'C', 'C', 'C', 'C', 'C', 'C', 'C', 'C', 'C', 'C', 'C', 'C']","[625845, 626505, 627106, 627718, 628336, 630129, 630721, 631281, 631826, 632413, 632981, 633568, 634133, 634683, 635247, 635815, 635915, 636364, 636464, 636932, 637032, 637480, 637580, 638055, 638155, 638623]","[625961, 626671, 627257, 627836, 628356, 630247, 630827, 631389, 631968, 632561, 633135, 633670, 634242, 634781, 635385, 635835, 635990, 636384, 636521, 636952, 637097, 637500, 637661, 638075, 638245, 638829]","[198, 160, 122, 104, 64, 146, 175, 216, 221, 210, 209, 179, 169, 24, 74, 87, 70, 112, 53, 43, 50, 184, 122, 190, 112, 219]","[625850, 626508, 627109, 627722, 628338, 630134, 630725, 631285, 631830, 632416, 632984, 633571, 634136, 634687, 635250, 635817, 635987, 636365, 636510, 636934, 637090, 637483, 637580, 638057, 638161, 638626]","[625431, 626031, 626631, 627231, 627831, 628431, 629031, 629632, 630149, 630742, 631301, 631846, 632433, 633001, 633588, 634153, 634703, 635267, 635835, 636384, 636952, 637500, 638075, 638643]",74,SB,L,R,ITMSR,1.1
4,400,trial,0,31,31,31,trial,"['S', 'S', 'S', 'S', 'S', 'S', 'S', 'S', 'C', 'C', 'C', 'C', 'C', 'C', 'C', 'C', 'C', 'C', 'C', 'C', 'C', 'C', 'C', 'C']","[644165, 644535, 644854, 645207, 645586, 645960, 646389, 646760, 647196, 647570, 647964, 648339, 648725, 649105, 649492, 649874, 650244, 650624, 650988, 651357, 651743, 652114, 652490, 652872]","[644285, 644659, 644968, 645292, 645693, 646073, 646480, 646857, 647289, 647677, 648050, 648466, 648839, 649256, 649618, 649991, 650375, 650730, 651105, 651456, 651865, 652230, 652593, 652974]","[235, 234, 228, 248, 33, 14, 22, 18, 28, 245, 168, 16, 27, 46, 28, 59, 53, 49, 44, 55, 37, 37, 35, 30]","[644169, 644540, 644858, 645211, 645590, 645964, 646393, 646764, 647199, 647575, 647969, 648343, 648728, 649109, 649496, 649878, 650247, 650627, 650991, 651361, 651747, 652119, 652494, 652877]","[644022, 644421, 644822, 645221, 645621, 646021, 646421, 646821, 647216, 647590, 647984, 648359, 648745, 649125, 649512, 649894, 650264, 650644, 651009, 651377, 651763, 652134, 652510, 652892]",74,SB,L,R,ITMSR,1.1
2,400,trial,0,32,32,32,trial,"['S', 'S', 'S', 'S', 'S', 'S', 'S', 'S', 'C', 'C', 'C', 'C', 'C', 'C', 'C', 'C', 'C', 'C', 'C', 'C', 'C', 'C', 'C', 'C']","[658473, 658754, 659050, 659450, 659835, 660211, 660590, 660994, 661394, 661771, 662123, 662500, 662866, 663225, 663590, 663950, 664354, 664686, 665070, 665421, 665805, 666158, 666536, 666896]","[658583, 658867, 659207, 659588, 659953, 660316, 660696, 661075, 661481, 661856, 662225, 662598, 662964, 663313, 663699, 664052, 664436, 664795, 665152, 665518, 665895, 666268, 666619, 666973]","[210, 17, 4, 41, 39, 26, 17, 23, 9, 29, 7, 31, 21, 15, 11, 26, 22, 242, 8, 35, 31, 39, 19, 27]","[658479, 658758, 659055, 659454, 659840, 660215, 660594, 660997, 661398, 661775, 662127, 662504, 662871, 663229, 663595, 663954, 664358, 664690, 665074, 665424, 665808, 666161, 666541, 666899]","[658275, 658675, 659075, 659475, 659875, 660275, 660675, 661075, 661414, 661791, 662144, 662520, 662886, 663245, 663610, 663970, 664374, 664706, 665090, 665441, 665825, 666178, 666556, 666916]",74,SB,L,R,ITMSR,1.1
0,600,trial,0,33,33,33,trial,"['S', 'S', 'S', 'S', 'S', 'S', 'S', 'C', 'C', 'C', 'C', 'C', 'C', 'C', 'C', 'C', 'C', 'C', 'C', 'C', 'C', 'C', 'C']","[672811, 673496, 674149, 674741, 675350, 675926, 676523, 677085, 677675, 678241, 678785, 679367, 679908, 680492, 681024, 681567, 682147, 682704, 683256, 683833, 684404, 684979, 685516]","[673072, 673718, 674373, 674984, 675528, 676093, 676671, 677225, 677816, 678390, 678926, 679497, 680045, 680638, 681153, 681717, 682276, 682841, 683376, 683959, 684518, 685114, 685656]","[252, 245, 47, 46, 43, 32, 15, 248, 26, 5, 20, 231, 7, 15, 16, 2, 242, 254, 202, 20, 235, 34, 253]","[672816, 673499, 674153, 674744, 675354, 675928, 676527, 677090, 677679, 678246, 678789, 679371, 679912, 680497, 681028, 681571, 682151, 682708, 683261, 683836, 684408, 684983, 685521]","[672331, 672931, 673531, 674131, 674732, 675331, 675931, 676531, 677105, 677695, 678261, 678805, 679387, 679928, 680512, 681044, 681587, 682167, 682724, 683276, 683853, 684424, 684999, 685536]",74,SB,L,R,ITMSR,1.1
3,600,trial,0,34,34,34,trial,"['S', 'S', 'S', 'S', 'S', 'S', 'S', 'S', 'C', 'C', 'C', 'C', 'C', 'C', 'C', 'C', 'C', 'C', 'C', 'C', 'C', 'C', 'C', 'C']","[691427, 691729, 692297, 692847, 693401, 694065, 694678, 695264, 695852, 696419, 697006, 697518, 698071, 698703, 699248, 699824, 700410, 700947, 701509, 702081, 702639, 703211, 703785, 704324]","[691491, 691892, 692461, 692982, 693540, 694160, 694776, 695345, 695977, 696546, 697091, 697650, 698215, 698842, 699392, 699988, 700544, 701096, 701637, 702253, 702812, 703433, 703947, 704525]","[109, 247, 248, 5, 32, 8, 6, 25, 57, 33, 6, 5, 38, 7, 9, 244, 253, 224, 213, 0, 95, 242, 6, 4]","[691432, 691733, 692302, 692851, 693405, 694070, 694682, 695268, 695856, 696423, 697010, 697523, 698075, 698706, 699252, 699828, 700416, 700952, 701514, 702085, 702644, 703215, 703790, 704328]","[691160, 691758, 692358, 692958, 693558, 694158, 694758, 695358, 695872, 696439, 697026, 697538, 698091, 698723, 699268, 699844, 700430, 700967, 701529, 702101, 702659, 703232, 703805, 704344]",74,SB,L,R,ITMSR,1.1
2,600,trial,0,35,35,35,trial,"['S', 'S', 'S', 'S', 'S', 'S', 'S', 'S', 'C', 'C', 'C', 'C', 'C', 'C', 'C', 'C', 'C', 'C', 'C', 'C', 'C', 'C', 'C', 'C']","[710053, 710353, 711006, 711646, 712270, 712838, 713408, 713981, 714616, 715171, 715734, 716296, 716829, 717395, 717983, 718500, 719066, 719630, 720174, 720724, 721276, 721808, 722382, 722904]","[710142, 710658, 711226, 711788, 712400, 712950, 713518, 714108, 714715, 715275, 715847, 716376, 716967, 717514, 718116, 718615, 719219, 719750, 720297, 720845, 721391, 721936, 722499, 723047]","[231, 40, 8, 43, 66, 21, 2, 3, 252, 12, 2, 254, 252, 250, 247, 243, 253, 2, 204, 36, 29, 31, 4, 44]","[710057, 710358, 711010, 711650, 712273, 712842, 713413, 713986, 714620, 715175, 715738, 716300, 716834, 717400, 717988, 718505, 719070, 719634, 720179, 720729, 721281, 721812, 722386, 722907]","[709892, 710492, 711092, 711692, 712292, 712892, 713492, 714092, 714636, 715191, 715754, 716316, 716849, 717415, 718003, 718520, 719086, 719650, 720194, 720744, 721296, 721828, 722402, 722924]",74,SB,L,R,ITMSR,1.1
4,600,trial,0,36,36,36,trial,"['B', 'S', 'S', 'S', 'S', 'S', 'S', 'S', 'S', 'C', 'C', 'C', 'C', 'C', 'C', 'C', 'C', 'C', 'C', 'C', 'C', 'C', 'C', 'C', 'C']","[728339, 728538, 728840, 729447, 730038, 730654, 731258, 731881, 732474, 733123, 733681, 734238, 734813, 735376, 735978, 736544, 737128, 737694, 738273, 738859, 739425, 739984, 740570, 741156, 741746]","[728360, 728655, 729127, 729670, 730233, 730829, 731452, 732080, 732632, 733262, 733832, 734382, 734939, 735532, 736110, 736722, 737282, 737838, 738400, 739022, 739558, 740186, 740770, 741386, 741945]","[107, 176, 5, 0, 253, 28, 8, 14, 19, 8, 6, 11, 232, 15, 20, 20, 14, 21, 1, 4, 15, 27, 10, 9, 5]","[728339, 728543, 728845, 729451, 730042, 730658, 731262, 731885, 732478, 733127, 733684, 734241, 734818, 735379, 735981, 736548, 737132, 737698, 738277, 738863, 739429, 739987, 740573, 741159, 741750]","[728350, 728949, 729549, 730149, 730749, 731350, 731949, 732549, 733144, 733701, 734258, 734833, 735396, 735998, 736564, 737148, 737714, 738293, 738879, 739445, 740004, 740590, 741176, 741766]",74,SB,L,R,ITMSR,1.1
5,600,trial,0,37,37,37,trial,"['S', 'S', 'S', 'S', 'S', 'S', 'S', 'S', 'C', 'C', 'C', 'C', 'C', 'C', 'C', 'C', 'C', 'C', 'C', 'C', 'C', 'C', 'C', 'C']","[747476, 747758, 748398, 749039, 749581, 750197, 750826, 751385, 752007, 752574, 753144, 753708, 754273, 754851, 755440, 755977, 756552, 757108, 757696, 758258, 758832, 759414, 759967, 760529]","[747558, 748082, 748653, 749230, 749841, 750402, 750985, 751607, 752194, 752783, 753334, 753935, 754491, 755001, 755609, 756153, 756770, 757298, 757889, 758458, 759012, 759587, 760146, 760735]","[246, 34, 19, 32, 15, 252, 229, 236, 228, 252, 16, 252, 248, 5, 253, 16, 7, 241, 18, 236, 7, 22, 13, 17]","[747480, 747762, 748401, 749042, 749584, 750200, 750830, 751388, 752011, 752577, 753147, 753711, 754276, 754854, 755444, 755980, 756555, 757111, 757699, 758262, 758836, 759417, 759970, 760532]","[747284, 747883, 748483, 749083, 749683, 750283, 750883, 751483, 752027, 752594, 753164, 753728, 754293, 754871, 755460, 755997, 756572, 757128, 757716, 758278, 758852, 759434, 759987, 760549]",74,SB,L,R,ITMSR,1.1
0,600,trial,0,38,38,38,trial,"['S', 'S', 'S', 'S', 'S', 'S', 'S', 'S', 'S', 'C', 'C', 'C', 'C', 'C', 'C', 'C', 'C', 'C', 'C', 'C', 'C', 'C', 'C', 'C', 'C']","[766226, 766560, 767160, 767767, 768355, 768455, 768968, 769591, 770191, 770779, 771359, 771909, 772507, 773052, 773664, 774212, 774782, 775346, 775930, 776482, 777077, 777600, 778208, 778724, 779303]","[766334, 766864, 767460, 768075, 768375, 768632, 769255, 769841, 770418, 770957, 771524, 772129, 772689, 773307, 773852, 774431, 774966, 775534, 776104, 776668, 777229, 777763, 778310, 778893, 779482]","[237, 8, 25, 27, 228, 55, 49, 42, 40, 41, 23, 21, 37, 36, 28, 15, 22, 34, 28, 1, 210, 228, 235, 221, 226]","[766230, 766563, 767163, 767771, 768358, 768458, 768970, 769594, 770194, 770782, 771362, 771913, 772510, 773055, 773667, 774216, 774787, 775349, 775933, 776486, 777080, 777604, 778213, 778729, 779308]","[766034, 766635, 767234, 767834, 768434, 769034, 769634, 770234, 770799, 771379, 771929, 772527, 773072, 773684, 774232, 774802, 775366, 775950, 776502, 777097, 777620, 778228, 778744, 779323]",74,SB,L,R,ITMSR,1.1
1,600,trial,0,39,39,39,trial,"['S', 'S', 'S', 'S', 'S', 'S', 'S', 'S', 'C', 'C', 'C', 'C', 'C', 'C', 'C', 'C', 'C', 'C', 'C', 'C', 'C', 'C', 'C', 'C']","[785249, 785585, 786195, 786777, 787366, 787995, 788603, 789195, 789820, 790402, 790976, 791535, 792111, 792702, 793292, 793864, 794471, 795043, 795606, 796196, 796786, 797370, 797941, 798501]","[785341, 785776, 786402, 787016, 787633, 788203, 788798, 789415, 789970, 790541, 791110, 791654, 792262, 792828, 793403, 793997, 794605, 795158, 795779, 796349, 797010, 797515, 798101, 798679]","[140, 222, 226, 231, 239, 249, 209, 221, 238, 253, 222, 216, 216, 232, 229, 234, 222, 244, 226, 254, 243, 234, 236, 245]","[785254, 785589, 786198, 786780, 787369, 787997, 788608, 789198, 789823, 790406, 790979, 791538, 792115, 792707, 793295, 793867, 794475, 795046, 795610, 796199, 796789, 797373, 797945, 798504]","[785035, 785635, 786235, 786835, 787435, 788035, 788635, 789235, 789840, 790422, 790996, 791555, 792131, 792722, 793312, 793884, 794491, 795063, 795626, 796216, 796806, 797390, 797961, 798521]",74,SB,L,R,ITMSR,1.1
0,400,trial,0,40,40,40,trial,"['S', 'S', 'S', 'S', 'S', 'S', 'S', 'S', 'C', 'C', 'C', 'C', 'C', 'C', 'C', 'C', 'C', 'C', 'C', 'C', 'C', 'C', 'C', 'C']","[804434, 804770, 805046, 805406, 805804, 806222, 806621, 807035, 807429, 807831, 808220, 808611, 808995, 809398, 809781, 810157, 810554, 810930, 811347, 811739, 812118, 812507, 812881, 813284]","[804511, 804853, 805139, 805510, 805870, 806302, 806710, 807124, 807507, 807918, 808298, 808694, 809067, 809476, 809872, 810242, 810642, 811015, 811420, 811810, 812213, 812593, 812948, 813364]","[236, 229, 18, 12, 22, 24, 6, 243, 220, 207, 207, 194, 197, 202, 203, 195, 121, 104, 136, 198, 197, 207, 191, 219]","[804438, 804773, 805049, 805408, 805807, 806224, 806624, 807038, 807431, 807833, 808223, 808614, 808999, 809402, 809785, 810161, 810558, 810934, 811353, 811743, 812122, 812510, 812886, 813287]","[804277, 804677, 805078, 805477, 805877, 806277, 806677, 807077, 807449, 807852, 808240, 808631, 809015, 809418, 809801, 810177, 810574, 810950, 811367, 811759, 812138, 812527, 812901, 813304]",74,SB,L,R,ITMSR,1.1
1,400,trial,0,41,41,41,trial,"['S', 'S', 'S', 'S', 'S', 'S', 'S', 'C', 'C', 'C', 'C', 'C', 'C', 'C', 'C', 'C', 'C', 'C', 'C', 'C', 'C', 'C', 'C']","[818814, 819208, 819653, 820127, 820579, 820969, 821347, 821756, 822147, 822522, 822917, 823310, 823680, 824083, 824523, 824880, 825275, 825664, 826048, 826423, 826789, 827200, 827591]","[818891, 819277, 819731, 820196, 820629, 821043, 821444, 821844, 822240, 822615, 823014, 823410, 823776, 824162, 824590, 824963, 825367, 825769, 826140, 826533, 826904, 827321, 827706]","[208, 12, 22, 248, 234, 237, 244, 243, 228, 239, 240, 227, 3, 232, 46, 173, 235, 241, 247, 236, 227, 246, 229]","[818818, 819211, 819656, 820130, 820582, 820972, 821350, 821760, 822149, 822525, 822920, 823314, 823683, 824087, 824529, 824884, 825278, 825667, 826051, 826427, 826792, 827203, 827594]","[818632, 819032, 819432, 819832, 820232, 820632, 821032, 821432, 821776, 822167, 822542, 822937, 823330, 823700, 824103, 824543, 824900, 825295, 825684, 826068, 826443, 826809, 827220, 827611]",74,SB,L,R,ITMSR,1.1
3,400,trial,0,42,42,42,trial,"['S', 'S', 'S', 'S', 'S', 'S', 'S', 'S', 'C', 'C', 'C', 'C', 'C', 'C', 'C', 'C', 'C', 'C', 'C', 'C', 'C', 'C', 'C', 'C']","[833074, 833359, 833686, 834076, 834454, 834879, 835304, 835687, 836061, 836472, 836845, 837230, 837603, 838034, 838392, 838802, 839172, 839543, 839951, 840320, 840686, 841089, 841476, 841845]","[833154, 833467, 833827, 834210, 834588, 835011, 835409, 835805, 836196, 836580, 836950, 837341, 837735, 838148, 838531, 838909, 839283, 839660, 840046, 840406, 840779, 841194, 841578, 841952]","[52, 15, 19, 229, 2, 243, 17, 18, 30, 21, 229, 23, 21, 251, 19, 6, 251, 12, 17, 238, 255, 26, 18, 6]","[833077, 833362, 833689, 834078, 834457, 834881, 835306, 835690, 836064, 836474, 836848, 837233, 837606, 838036, 838395, 838805, 839174, 839545, 839954, 840323, 840689, 841091, 841479, 841848]","[832905, 833304, 833704, 834104, 834504, 834904, 835304, 835704, 836081, 836492, 836866, 837250, 837623, 838054, 838412, 838822, 839192, 839563, 839971, 840340, 840706, 841109, 841496, 841865]",74,SB,L,R,ITMSR,1.1
4,600,trial,0,43,43,43,trial,"['S', 'S', 'S', 'S', 'S', 'S', 'S', 'S', 'C', 'C', 'C', 'C', 'C', 'C', 'C', 'C', 'C', 'C', 'C', 'C', 'C', 'C', 'C', 'C']","[847534, 847773, 848533, 849143, 849727, 850318, 850916, 851505, 852092, 852639, 853200, 853752, 854303, 854887, 855445, 856069, 856623, 857147, 857674, 858220, 858742, 859312, 859816, 860349]","[847605, 847947, 848687, 849302, 849871, 850456, 851068, 851641, 852232, 852784, 853350, 853863, 854456, 855040, 855600, 856144, 856764, 857299, 857825, 858349, 858890, 859438, 859965, 860521]","[171, 36, 148, 2, 12, 8, 2, 2, 222, 255, 4, 10, 227, 0, 1, 4, 239, 247, 240, 238, 229, 210, 255, 242]","[847537, 847776, 848537, 849146, 849729, 850320, 850918, 851508, 852096, 852642, 853203, 853755, 854306, 854890, 855448, 856072, 856626, 857150, 857677, 858223, 858745, 859314, 859820, 860352]","[847378, 847977, 848577, 849177, 849777, 850377, 850977, 851577, 852112, 852659, 853220, 853772, 854323, 854907, 855465, 856089, 856643, 857167, 857694, 858241, 858762, 859332, 859836, 860369]",74,SB,L,R,ITMSR,1.1
5,600,trial,0,44,44,44,trial,"['S', 'S', 'S', 'S', 'S', 'S', 'S', 'S', 'S', 'S', 'C', 'C', 'C', 'C', 'C', 'C', 'C', 'C', 'C', 'C', 'C', 'C', 'C', 'C', 'C', 'C', 'C', 'C', 'C', 'C', 'C', 'C', 'C', 'C', 'C', 'C']","[866132, 866541, 867069, 867651, 868313, 868914, 869014, 869511, 870096, 870196, 870646, 871237, 871809, 871909, 872349, 872449, 872898, 873000, 873432, 873532, 873976, 874076, 874516, 874618, 875065, 875165, 875655, 876186, 876288, 876703, 876803, 877263, 877363, 877785, 878351, 878844]","[866260, 866692, 867222, 867811, 868422, 868934, 869035, 869531, 870116, 870222, 870782, 871324, 871829, 871929, 872369, 872472, 872919, 873031, 873452, 873552, 873996, 874096, 874536, 874638, 875085, 875185, 875675, 876206, 876308, 876723, 876823, 877283, 877383, 877805, 878371, 878962]","[119, 109, 191, 239, 119, 74, 65, 4, 227, 190, 81, 130, 13, 41, 148, 116, 52, 135, 119, 131, 227, 80, 26, 43, 237, 46, 165, 212, 89, 110, 130, 104, 28, 41, 149, 94]","[866204, 866608, 867073, 867655, 868317, 868918, 869014, 869514, 870099, 870196, 870648, 871240, 871810, 871913, 872353, 872449, 872901, 873000, 873436, 873532, 873978, 874076, 874519, 874622, 875068, 875165, 875657, 876189, 876288, 876706, 876803, 877266, 877363, 877788, 878353, 878846]","[865940, 866540, 867140, 867740, 868340, 868940, 869540, 870140, 870666, 871257, 871829, 872369, 872919, 873452, 873996, 874536, 875085, 875675, 876206, 876723, 877283, 877805, 878371, 878864]",74,SB,L,R,ITMSR,1.1
3,400,trial,0,45,45,45,trial,"['S', 'S', 'S', 'S', 'S', 'S', 'S', 'S', 'C', 'C', 'C', 'C', 'C', 'C', 'C', 'C', 'C', 'C', 'C', 'C', 'C', 'C', 'C', 'C']","[884464, 884798, 885144, 885511, 885882, 886274, 886713, 887099, 887477, 887859, 888252, 888642, 889013, 889389, 889756, 890151, 890528, 890913, 891284, 891666, 892046, 892400, 892797, 893172]","[884590, 884914, 885250, 885594, 885963, 886362, 886787, 887185, 887562, 887957, 888358, 888738, 889136, 889510, 889913, 890284, 890671, 891030, 891398, 891780, 892161, 892511, 892890, 893278]","[56, 198, 242, 229, 251, 85, 135, 240, 142, 106, 132, 95, 134, 140, 105, 79, 143, 191, 118, 144, 163, 83, 203, 167]","[884539, 884803, 885146, 885515, 885886, 886278, 886717, 887103, 887481, 887864, 888256, 888645, 889017, 889393, 889761, 890156, 890532, 890918, 891288, 891670, 892050, 892404, 892802, 893176]","[884344, 884744, 885144, 885544, 885944, 886344, 886744, 887144, 887497, 887879, 888272, 888663, 889033, 889409, 889776, 890171, 890548, 890933, 891304, 891686, 892066, 892420, 892817, 893192]",74,SB,L,R,ITMSR,1.1
2,400,trial,0,46,46,46,trial,"['S', 'S', 'S', 'S', 'S', 'S', 'S', 'C', 'C', 'C', 'C', 'C', 'C', 'C', 'C', 'C', 'C', 'C', 'C', 'C', 'C', 'C', 'C']","[898849, 899486, 899836, 900229, 900626, 901025, 901387, 901807, 902207, 902575, 902957, 903304, 903707, 904080, 904453, 904838, 905210, 905554, 905917, 906306, 906678, 907051, 907420]","[899182, 899598, 899959, 900317, 900710, 901134, 901498, 901906, 902260, 902669, 903025, 903385, 903770, 904145, 904473, 904907, 905230, 905634, 905989, 906327, 906747, 907118, 907498]","[7, 209, 240, 226, 189, 207, 211, 240, 110, 169, 135, 182, 156, 141, 23, 40, 176, 217, 53, 47, 39, 23, 37]","[899097, 899490, 899838, 900232, 900631, 901029, 901391, 901810, 902211, 902579, 902961, 903308, 903711, 904084, 904457, 904842, 905216, 905559, 905922, 906310, 906683, 907055, 907424]","[898642, 899042, 899442, 899842, 900242, 900642, 901042, 901442, 901827, 902227, 902595, 902977, 903324, 903727, 904100, 904473, 904858, 905230, 905574, 905937, 906327, 906698, 907071, 907440]",74,SB,L,R,ITMSR,1.1
4,400,trial,0,47,47,47,trial,"['S', 'S', 'S', 'S', 'S', 'S', 'S', 'S', 'C', 'C', 'C', 'C', 'C', 'C', 'C', 'C', 'C', 'C', 'C', 'C', 'C', 'C', 'C', 'C']","[913411, 913672, 914007, 914411, 914796, 915197, 915598, 916012, 916361, 916748, 917133, 917507, 917911, 918273, 918658, 919054, 919393, 919789, 920211, 920559, 920935, 921319, 921726, 922082]","[913460, 913767, 914098, 914494, 914868, 915259, 915655, 916054, 916429, 916812, 917198, 917569, 917971, 918296, 918733, 919074, 919413, 919810, 920231, 920579, 920955, 921384, 921746, 922102]","[55, 175, 252, 217, 209, 162, 138, 75, 102, 129, 29, 21, 238, 205, 238, 161, 12, 237, 31, 60, 7, 82, 238, 49]","[913416, 913676, 914010, 914415, 914799, 915202, 915601, 916015, 916365, 916752, 917137, 917510, 917914, 918277, 918662, 919056, 919396, 919792, 920215, 920562, 920938, 921322, 921730, 922086]","[913227, 913627, 914027, 914427, 914827, 915227, 915628, 916027, 916381, 916768, 917153, 917527, 917932, 918293, 918678, 919074, 919413, 919810, 920231, 920579, 920955, 921339, 921746, 922102]",74,SB,L,R,ITMSR,1.1
1,400,trial,0,48,48,48,trial,"['S', 'S', 'S', 'S', 'S', 'S', 'S', 'C', 'C', 'C', 'C', 'C', 'C', 'C', 'C', 'C', 'C', 'C', 'C', 'C', 'C', 'C', 'C']","[927706, 928146, 928556, 928959, 929381, 929781, 930180, 930561, 930971, 931371, 931747, 932123, 932483, 932852, 933252, 934388, 934747, 935103, 935465, 935859, 936244, 936624, 937006]","[927799, 928223, 928576, 929014, 929401, 929801, 930200, 930581, 930991, 931391, 931767, 932143, 932503, 932872, 933272, 934517, 934806, 935187, 935560, 935944, 936325, 936691, 937076]","[253, 169, 50, 117, 45, 250, 153, 109, 185, 138, 91, 209, 163, 202, 49, 175, 73, 208, 224, 237, 241, 224, 190]","[927709, 928150, 928560, 928962, 929385, 929784, 930182, 930564, 930974, 931374, 931750, 932127, 932486, 932854, 933253, 934391, 934751, 935106, 935470, 935863, 936247, 936627, 937010]","[927466, 927866, 928266, 928666, 929067, 929466, 929866, 930266, 930581, 930991, 931391, 931767, 932143, 932503, 932872, 933272, 934408, 934767, 935123, 935485, 935879, 936264, 936644, 937026]",74,SB,L,R,ITMSR,1.1
5,400,trial,0,49,49,49,trial,"['S', 'S', 'S', 'S', 'S', 'S', 'S', 'C', 'C', 'C', 'C', 'C', 'C', 'C', 'C', 'C', 'C', 'C', 'C', 'C', 'C', 'C', 'C']","[943086, 943481, 943882, 944285, 944666, 945063, 945452, 945848, 946213, 946597, 946973, 947378, 947707, 948068, 948418, 948802, 949200, 949565, 949927, 950345, 950717, 951071, 951448]","[943198, 943581, 943977, 944361, 944754, 945165, 945524, 945923, 946301, 946676, 947051, 947398, 947727, 948088, 948439, 948823, 949220, 949585, 949947, 950365, 950737, 951091, 951469]","[86, 125, 187, 140, 199, 147, 139, 147, 43, 70, 17, 171, 166, 116, 185, 250, 142, 203, 240, 79, 205, 194, 111]","[943091, 943486, 943885, 944288, 944670, 945068, 945456, 945852, 946217, 946601, 946977, 947382, 947710, 948071, 948421, 948804, 949201, 949567, 949929, 950349, 950718, 951074, 951451]","[942741, 943141, 943541, 943941, 944342, 944741, 945141, 945541, 945868, 946233, 946617, 946993, 947398, 947727, 948088, 948439, 948823, 949220, 949585, 949947, 950365, 950737, 951091, 951469]",74,SB,L,R,ITMSR,1.1
5,400,trial,0,50,50,50,trial,"['S', 'S', 'S', 'S', 'S', 'S', 'S', 'C', 'C', 'C', 'C', 'C', 'C', 'C', 'C', 'C', 'C', 'C', 'C', 'C', 'C', 'C', 'C']","[957138, 957566, 957985, 958375, 958810, 959212, 959587, 959991, 960363, 960748, 961116, 961512, 961887, 962239, 962631, 963002, 963362, 963758, 964146, 964508, 964910, 965254, 965642]","[957227, 957650, 958069, 958470, 958899, 959287, 959685, 960069, 960468, 960839, 961209, 961592, 961990, 962310, 962725, 963093, 963464, 963857, 964234, 964605, 964996, 965351, 965735]","[87, 1, 168, 246, 134, 60, 113, 86, 40, 82, 53, 124, 241, 0, 118, 76, 129, 103, 95, 71, 55, 69, 68]","[957146, 957571, 957990, 958380, 958816, 959217, 959592, 959996, 960368, 960754, 961121, 961517, 961893, 962244, 962636, 963007, 963367, 963764, 964151, 964514, 964915, 965259, 965648]","[956882, 957282, 957682, 958082, 958482, 958882, 959282, 959682, 960011, 960384, 960769, 961136, 961532, 961907, 962259, 962651, 963022, 963382, 963778, 964166, 964528, 964930, 965274, 965662]",74,SB,L,R,ITMSR,1.1
1,600,trial,0,51,51,51,trial,"['S', 'S', 'S', 'S', 'S', 'S', 'S', 'C', 'C', 'C', 'C', 'C', 'C', 'C', 'C', 'C', 'C', 'C', 'C', 'C', 'C', 'C', 'C']","[971387, 972121, 972782, 973363, 973950, 974513, 975115, 975679, 976183, 976692, 977178, 977619, 978145, 978662, 979164, 979642, 980158, 980642, 981164, 981629, 982132, 982617, 983109]","[971462, 972219, 972855, 973426, 974002, 974571, 975161, 975753, 976254, 976759, 977236, 977688, 978194, 978724, 979224, 979733, 980210, 980718, 981220, 981723, 982175, 982709, 983189]","[2, 47, 65, 84, 66, 247, 54, 204, 205, 191, 215, 217, 225, 188, 164, 54, 175, 140, 171, 177, 209, 184, 186]","[971394, 972125, 972786, 973367, 973955, 974517, 975119, 975684, 976187, 976696, 977182, 977623, 978149, 978667, 979168, 979647, 980162, 980646, 981168, 981634, 982136, 982621, 983113]","[971013, 971613, 972213, 972813, 973413, 974013, 974613, 975213, 975699, 976203, 976712, 977198, 977639, 978165, 978682, 979184, 979662, 980178, 980662, 981184, 981649, 982152, 982637, 983129]",74,SB,L,R,ITMSR,1.1
0,400,trial,0,52,52,52,trial,"['S', 'S', 'S', 'S', 'S', 'S', 'S', 'S', 'C', 'C', 'C', 'C', 'C', 'C', 'C', 'C', 'C', 'C', 'C', 'C', 'C', 'C', 'C', 'C']","[988936, 989199, 989527, 989933, 990292, 990697, 991135, 991551, 991919, 992346, 992703, 993100, 993490, 993887, 994257, 994652, 995024, 995422, 995808, 996196, 996563, 996971, 997348, 997729]","[989014, 989305, 989621, 990010, 990382, 990785, 991205, 991641, 992026, 992428, 992792, 993120, 993577, 993978, 994332, 994714, 995126, 995508, 995892, 996285, 996636, 997044, 997434, 997804]","[170, 36, 62, 27, 7, 27, 24, 240, 209, 154, 201, 171, 202, 202, 200, 164, 208, 214, 97, 127, 52, 137, 165, 135]","[988940, 989203, 989531, 989937, 990296, 990701, 991139, 991555, 991923, 992349, 992707, 993104, 993495, 993890, 994262, 994656, 995028, 995426, 995812, 996201, 996569, 996976, 997352, 997734]","[988767, 989167, 989568, 989967, 990367, 990767, 991167, 991567, 991939, 992366, 992723, 993120, 993510, 993907, 994277, 994672, 995044, 995442, 995828, 996216, 996583, 996992, 997368, 997749]",74,SB,L,R,ITMSR,1.1
2,600,trial,0,53,53,53,trial,"['B', 'S', 'S', 'S', 'S', 'S', 'S', 'S', 'C', 'C', 'C', 'C', 'C', 'C', 'C', 'C', 'C', 'C', 'C', 'C', 'C', 'C', 'C', 'C']","[1003161, 1003582, 1004345, 1004919, 1005546, 1006118, 1006713, 1007318, 1007876, 1008422, 1009020, 1009549, 1010087, 1010660, 1011241, 1011780, 1012357, 1012907, 1013468, 1014051, 1014597, 1015126, 1015643, 1016190]","[1003332, 1003974, 1004531, 1005171, 1005768, 1006275, 1006855, 1007393, 1007986, 1008532, 1009101, 1009644, 1010193, 1010746, 1011343, 1011874, 1012465, 1012987, 1013567, 1014134, 1014704, 1015229, 1015778, 1016281]","[10, 163, 135, 177, 229, 230, 152, 185, 181, 142, 148, 130, 156, 151, 134, 86, 114, 86, 171, 230, 190, 1, 220, 233]","[1003199, 1003586, 1004349, 1004923, 1005550, 1006123, 1006717, 1007322, 1007880, 1008427, 1009025, 1009554, 1010093, 1010664, 1011247, 1011785, 1012361, 1012912, 1013472, 1014055, 1014601, 1015130, 1015647, 1016195]","[1003172, 1003772, 1004372, 1004973, 1005573, 1006173, 1006773, 1007373, 1007896, 1008442, 1009040, 1009569, 1010107, 1010680, 1011261, 1011800, 1012377, 1012927, 1013488, 1014071, 1014617, 1015146, 1015663, 1016210]",74,SB,L,R,ITMSR,1.1
1,600,trial,0,54,54,54,trial,"['B', 'S', 'S', 'S', 'S', 'S', 'S', 'S', 'S', 'C', 'C', 'C', 'C', 'C', 'C', 'C', 'C', 'C', 'C', 'C', 'C', 'C', 'C', 'C', 'C', 'C']","[1029405, 1029678, 1030031, 1030523, 1031180, 1031746, 1032337, 1032930, 1033502, 1034137, 1034649, 1035208, 1035736, 1036271, 1036372, 1036839, 1037405, 1037925, 1038429, 1038954, 1039496, 1040046, 1040544, 1041079, 1041589, 1042102]","[1029518, 1029769, 1030235, 1030714, 1031285, 1031884, 1032465, 1033048, 1033626, 1034228, 1034763, 1035319, 1035858, 1036291, 1036418, 1036969, 1037539, 1038016, 1038581, 1039087, 1039634, 1040145, 1040687, 1041192, 1041735, 1042251]","[170, 255, 131, 240, 213, 126, 61, 149, 161, 49, 167, 166, 170, 177, 38, 0, 101, 217, 33, 76, 40, 57, 82, 34, 140, 164]","[1029438, 1029681, 1030035, 1030528, 1031184, 1031751, 1032342, 1032934, 1033507, 1034142, 1034653, 1035213, 1035740, 1036276, 1036374, 1036845, 1037410, 1037930, 1038434, 1038959, 1039501, 1040051, 1040549, 1041083, 1041594, 1042106]","[1029417, 1030018, 1030618, 1031218, 1031818, 1032418, 1033018, 1033618, 1034157, 1034669, 1035228, 1035756, 1036291, 1036859, 1037425, 1037945, 1038449, 1038974, 1039516, 1040066, 1040564, 1041099, 1041609, 1042122]",74,SB,L,R,ITMSR,1.1
4,400,trial,0,55,55,55,trial,"['S', 'S', 'S', 'S', 'S', 'S', 'S', 'S', 'S', 'C', 'C', 'C', 'C', 'C', 'C', 'C', 'C', 'C', 'C', 'C', 'C', 'C', 'C', 'C', 'C']","[1047845, 1048142, 1048452, 1048851, 1049245, 1049345, 1049662, 1050061, 1050459, 1050822, 1051203, 1051617, 1052005, 1052379, 1052770, 1053152, 1053528, 1053933, 1054311, 1054665, 1055055, 1055435, 1055804, 1056160, 1056541]","[1047974, 1048254, 1048602, 1048979, 1049265, 1049365, 1049805, 1050192, 1050562, 1050941, 1051330, 1051745, 1052100, 1052489, 1052889, 1053254, 1053651, 1054061, 1054416, 1054760, 1055154, 1055527, 1055887, 1056257, 1056631]","[13, 225, 24, 229, 228, 113, 242, 108, 190, 137, 133, 186, 158, 167, 165, 128, 146, 94, 132, 212, 126, 141, 93, 43, 131]","[1047852, 1048147, 1048455, 1048855, 1049249, 1049345, 1049667, 1050066, 1050464, 1050827, 1051208, 1051621, 1052010, 1052384, 1052775, 1053157, 1053533, 1053938, 1054315, 1054670, 1055059, 1055440, 1055809, 1056164, 1056546]","[1047683, 1048082, 1048482, 1048882, 1049282, 1049682, 1050082, 1050482, 1050842, 1051224, 1051637, 1052025, 1052399, 1052790, 1053172, 1053548, 1053954, 1054331, 1054685, 1055075, 1055455, 1055824, 1056180, 1056561]",74,SB,L,R,ITMSR,1.1
2,400,trial,0,56,56,56,trial,"['S', 'S', 'S', 'S', 'S', 'S', 'S', 'C', 'C', 'C', 'C', 'C', 'C', 'C', 'C', 'C', 'C', 'C', 'C', 'C', 'C', 'C', 'C']","[1062544, 1062977, 1063399, 1063780, 1064212, 1064616, 1065041, 1065417, 1065807, 1066181, 1066583, 1066939, 1067328, 1067697, 1068079, 1068464, 1068852, 1069198, 1069592, 1069933, 1070314, 1070694, 1071066]","[1062590, 1063053, 1063484, 1063869, 1064296, 1064716, 1065127, 1065519, 1065903, 1066272, 1066677, 1067042, 1067417, 1067784, 1068172, 1068560, 1068931, 1069277, 1069673, 1070053, 1070412, 1070783, 1071145]","[248, 172, 170, 198, 208, 226, 202, 188, 142, 173, 159, 149, 197, 145, 149, 175, 141, 147, 139, 210, 169, 180, 175]","[1062550, 1062981, 1063404, 1063784, 1064215, 1064620, 1065044, 1065420, 1065811, 1066184, 1066587, 1066942, 1067333, 1067701, 1068083, 1068468, 1068857, 1069202, 1069595, 1070014, 1070318, 1070698, 1071071]","[1062280, 1062680, 1063080, 1063480, 1063880, 1064280, 1064680, 1065080, 1065437, 1065827, 1066201, 1066603, 1066959, 1067348, 1067717, 1068099, 1068484, 1068872, 1069218, 1069613, 1069954, 1070334, 1070714, 1071086]",74,SB,L,R,ITMSR,1.1
5,600,trial,0,57,57,57,trial,"['S', 'S', 'S', 'S', 'S', 'S', 'S', 'S', 'C', 'C', 'C', 'C', 'C', 'C', 'C', 'C', 'C', 'C', 'C', 'C', 'C', 'C', 'C', 'C']","[1076795, 1077053, 1077698, 1078360, 1078912, 1079592, 1080152, 1080713, 1081295, 1081862, 1082416, 1082934, 1083489, 1084013, 1084560, 1085173, 1085730, 1086256, 1086783, 1087316, 1087857, 1088421, 1088960, 1089498]","[1076860, 1077193, 1077829, 1078434, 1079005, 1079612, 1080228, 1080777, 1081374, 1081947, 1082510, 1083036, 1083591, 1084107, 1084670, 1085242, 1085800, 1086323, 1086863, 1087412, 1087962, 1088501, 1089058, 1089592]","[150, 53, 62, 10, 183, 160, 151, 116, 109, 145, 132, 134, 133, 81, 161, 139, 66, 20, 80, 129, 82, 91, 76, 89]","[1076799, 1077056, 1077702, 1078364, 1078916, 1079597, 1080156, 1080717, 1081300, 1081866, 1082420, 1082939, 1083494, 1084018, 1084565, 1085178, 1085735, 1086261, 1086788, 1087322, 1087862, 1088425, 1088965, 1089502]","[1076623, 1077222, 1077822, 1078422, 1079022, 1079622, 1080222, 1080822, 1081315, 1081882, 1082436, 1082954, 1083509, 1084034, 1084580, 1085193, 1085750, 1086276, 1086803, 1087336, 1087877, 1088441, 1088980, 1089518]",74,SB,L,R,ITMSR,1.1
0,400,trial,0,58,58,58,trial,"['S', 'S', 'S', 'S', 'S', 'S', 'S', 'S', 'C', 'C', 'C', 'C', 'C', 'C', 'C', 'C', 'C', 'C', 'C', 'C', 'C', 'C', 'C', 'C']","[1095306, 1095552, 1095916, 1096293, 1096692, 1097098, 1097469, 1097852, 1098262, 1098643, 1099041, 1099453, 1099829, 1100233, 1100624, 1101033, 1101416, 1101783, 1102204, 1102583, 1102974, 1103360, 1103744, 1104132]","[1095366, 1095645, 1095991, 1096355, 1096737, 1097148, 1097552, 1097944, 1098356, 1098723, 1099115, 1099473, 1099849, 1100253, 1100644, 1101101, 1101436, 1101803, 1102224, 1102603, 1103066, 1103452, 1103823, 1104152]","[89, 228, 248, 213, 208, 142, 144, 133, 83, 103, 98, 213, 89, 23, 91, 69, 27, 119, 59, 112, 109, 134, 94, 118]","[1095314, 1095555, 1095920, 1096296, 1096695, 1097102, 1097474, 1097857, 1098266, 1098647, 1099045, 1099457, 1099834, 1100240, 1100628, 1101038, 1101421, 1101788, 1102209, 1102587, 1102979, 1103364, 1103749, 1104136]","[1095108, 1095507, 1095907, 1096307, 1096707, 1097107, 1097507, 1097907, 1098283, 1098663, 1099061, 1099473, 1099849, 1100253, 1100644, 1101053, 1101436, 1101803, 1102224, 1102603, 1102994, 1103380, 1103764, 1104152]",74,SB,L,R,ITMSR,1.1
3,600,trial,0,59,59,59,trial,"['S', 'S', 'S', 'S', 'S', 'S', 'S', 'S', 'C', 'C', 'C', 'C', 'C', 'C', 'C', 'C', 'C', 'C', 'C', 'C', 'C', 'C', 'C', 'C']","[1109745, 1109995, 1110751, 1111325, 1111941, 1112520, 1113102, 1113697, 1114284, 1114862, 1115470, 1116010, 1116541, 1117145, 1117740, 1118284, 1118850, 1119448, 1119959, 1120524, 1121077, 1121650, 1122220, 1122752]","[1109798, 1110093, 1110829, 1111426, 1112033, 1112587, 1113122, 1113772, 1114304, 1114882, 1115490, 1116078, 1116561, 1117165, 1117812, 1118363, 1118870, 1119526, 1120050, 1120605, 1121097, 1121670, 1122300, 1122818]","[120, 240, 179, 153, 89, 80, 75, 57, 1, 64, 14, 91, 14, 43, 67, 95, 40, 27, 25, 16, 253, 238, 236, 225]","[1109749, 1109999, 1110755, 1111329, 1111946, 1112525, 1113106, 1113701, 1114290, 1114866, 1115475, 1116015, 1116547, 1117150, 1117745, 1118288, 1118855, 1119453, 1119964, 1120529, 1121083, 1121655, 1122226, 1122758]","[1109561, 1110161, 1110761, 1111361, 1111961, 1112561, 1113161, 1113761, 1114304, 1114882, 1115490, 1116030, 1116561, 1117165, 1117760, 1118304, 1118870, 1119468, 1119979, 1120544, 1121097, 1121670, 1122240, 1122772]",74,SB,L,R,ITMSR,1.1
3,400,trial,0,60,60,60,trial,"['S', 'S', 'S', 'S', 'S', 'S', 'S', 'C', 'C', 'C', 'C', 'C', 'C', 'C', 'C', 'C', 'C', 'C', 'C', 'C', 'C', 'C', 'C']","[1128471, 1128832, 1129266, 1129696, 1130129, 1130514, 1130926, 1131347, 1131723, 1132121, 1132493, 1132880, 1133268, 1133638, 1134022, 1134395, 1134798, 1135181, 1135562, 1135952, 1136301, 1136693, 1137027]","[1128543, 1128907, 1129286, 1129716, 1130149, 1130534, 1130946, 1131367, 1131743, 1132141, 1132513, 1132900, 1133288, 1133659, 1134042, 1134415, 1134819, 1135265, 1135642, 1136023, 1136403, 1136763, 1137111]","[15, 61, 31, 89, 112, 93, 116, 52, 41, 59, 42, 85, 97, 51, 84, 87, 55, 40, 42, 76, 69, 6, 53]","[1128473, 1128836, 1129271, 1129700, 1130134, 1130519, 1130930, 1131352, 1131728, 1132126, 1132498, 1132886, 1133274, 1133643, 1134027, 1134399, 1134803, 1135186, 1135567, 1135956, 1136305, 1136698, 1137032]","[1128216, 1128616, 1129016, 1129416, 1129816, 1130216, 1130616, 1131016, 1131367, 1131743, 1132141, 1132513, 1132900, 1133288, 1133658, 1134042, 1134415, 1134818, 1135201, 1135582, 1135972, 1136321, 1136713, 1137047]",74,SB,L,R,ITMSR,1.1
3,600,trial,0,61,61,61,trial,"['S', 'S', 'S', 'S', 'S', 'S', 'S', 'S', 'C', 'C', 'C', 'C', 'C', 'C', 'C', 'C', 'C', 'C', 'C', 'C', 'C', 'C', 'C', 'C']","[1142673, 1143110, 1143470, 1144084, 1144709, 1145307, 1145876, 1146466, 1147069, 1147629, 1148201, 1148737, 1149296, 1149842, 1150417, 1150947, 1151478, 1152048, 1152571, 1153116, 1153652, 1154173, 1154714, 1155243]","[1142726, 1143193, 1143597, 1144140, 1144772, 1145357, 1145952, 1146528, 1147138, 1147650, 1148221, 1148808, 1149316, 1149862, 1150496, 1151038, 1151589, 1152112, 1152679, 1153183, 1153734, 1154283, 1154797, 1155349]","[174, 197, 226, 186, 167, 93, 121, 117, 75, 210, 226, 13, 121, 206, 88, 1, 88, 56, 78, 97, 129, 105, 143, 138]","[1142678, 1143113, 1143473, 1144088, 1144713, 1145312, 1145881, 1146470, 1147074, 1147634, 1148207, 1148742, 1149301, 1149847, 1150422, 1150952, 1151482, 1152053, 1152576, 1153120, 1153656, 1154178, 1154718, 1155247]","[1142350, 1142949, 1143549, 1144150, 1144749, 1145349, 1145949, 1146549, 1147089, 1147650, 1148221, 1148758, 1149316, 1149862, 1150437, 1150967, 1151498, 1152068, 1152591, 1153136, 1153672, 1154193, 1154734, 1155263]",74,SB,L,R,ITMSR,1.1
0,600,trial,0,62,62,62,trial,"['S', 'S', 'S', 'S', 'S', 'S', 'S', 'S', 'S', 'C', 'C', 'C', 'C', 'C', 'C', 'C', 'C', 'C', 'C', 'C', 'C', 'C', 'C', 'C', 'C', 'C', 'C', 'C', 'C', 'C', 'C']","[1161101, 1161340, 1161950, 1162555, 1162655, 1163214, 1163831, 1164412, 1165022, 1165603, 1166175, 1166695, 1167235, 1167782, 1168329, 1168882, 1168984, 1169425, 1169525, 1169989, 1170523, 1170623, 1171084, 1171612, 1172135, 1172235, 1172648, 1172748, 1173169, 1173269, 1173684]","[1161121, 1161539, 1162091, 1162575, 1162677, 1163237, 1163910, 1164503, 1165096, 1165689, 1166247, 1166821, 1167334, 1167900, 1168443, 1168903, 1169004, 1169445, 1169551, 1170106, 1170543, 1170643, 1171187, 1171717, 1172155, 1172255, 1172668, 1172769, 1173189, 1173289, 1173786]","[183, 79, 202, 145, 182, 95, 69, 150, 129, 210, 159, 141, 187, 189, 214, 92, 149, 133, 204, 248, 145, 107, 11, 136, 85, 56, 158, 203, 147, 164, 165]","[1161106, 1161345, 1161953, 1162559, 1162655, 1163218, 1163836, 1164417, 1165026, 1165607, 1166179, 1166699, 1167239, 1167785, 1168332, 1168887, 1168984, 1169430, 1169525, 1169995, 1170527, 1170623, 1171089, 1171617, 1172140, 1172235, 1172653, 1172748, 1173173, 1173269, 1173688]","[1160877, 1161477, 1162077, 1162677, 1163277, 1163877, 1164477, 1165077, 1165623, 1166195, 1166715, 1167255, 1167802, 1168349, 1168902, 1169445, 1170009, 1170543, 1171104, 1171632, 1172155, 1172668, 1173189, 1173704]",74,SB,L,R,ITMSR,1.1
3,400,trial,0,63,63,63,trial,"['S', 'S', 'S', 'S', 'S', 'S', 'C', 'C', 'C', 'C', 'C', 'C', 'C', 'C', 'C', 'C', 'C', 'C', 'C', 'C', 'C', 'C']","[1180206, 1180583, 1181000, 1181403, 1181811, 1182214, 1182593, 1182970, 1183351, 1183747, 1184130, 1184509, 1184857, 1185272, 1185646, 1186018, 1186380, 1186755, 1187098, 1187494, 1187860, 1188236]","[1180254, 1180603, 1181020, 1181423, 1181877, 1182265, 1182669, 1183050, 1183424, 1183818, 1184202, 1184603, 1184959, 1185362, 1185736, 1186091, 1186400, 1186835, 1187194, 1187570, 1187880, 1188299]","[166, 117, 112, 67, 65, 104, 180, 170, 139, 160, 182, 193, 154, 135, 184, 121, 125, 126, 125, 170, 81, 105]","[1180212, 1180589, 1181004, 1181408, 1181815, 1182220, 1182597, 1182974, 1183356, 1183751, 1184134, 1184514, 1184861, 1185276, 1185650, 1186022, 1186384, 1186760, 1187102, 1187499, 1187864, 1188241]","[1179491, 1179891, 1180291, 1180691, 1181091, 1181491, 1181891, 1182291, 1182613, 1182990, 1183371, 1183767, 1184150, 1184529, 1184877, 1185292, 1185666, 1186038, 1186400, 1186776, 1187118, 1187514, 1187880, 1188256]",74,SB,L,R,ITMSR,1.1
4,600,trial,0,64,64,64,trial,"['B', 'S', 'S', 'S', 'S', 'S', 'S', 'S', 'C', 'C', 'C', 'C', 'C', 'C', 'C', 'C', 'C', 'C', 'C', 'C', 'C', 'C', 'C', 'C', 'C', 'C', 'C', 'C', 'C', 'C', 'C', 'C', 'C', 'C', 'C', 'C', 'C']","[1193893, 1194339, 1195069, 1195678, 1196271, 1196880, 1197469, 1198052, 1198665, 1199249, 1199834, 1200407, 1200509, 1200970, 1201070, 1201556, 1201656, 1202129, 1202229, 1202707, 1202807, 1203279, 1203379, 1203851, 1203951, 1204423, 1204523, 1205006, 1205106, 1205553, 1205653, 1206120, 1206220, 1206656, 1206756, 1207248, 1207348]","[1194103, 1194693, 1195323, 1195884, 1196476, 1197051, 1197633, 1198241, 1198851, 1199392, 1199994, 1200428, 1200559, 1200990, 1201176, 1201576, 1201720, 1202149, 1202286, 1202727, 1202828, 1203299, 1203411, 1203871, 1203981, 1204443, 1204568, 1205026, 1205126, 1205573, 1205701, 1206140, 1206246, 1206676, 1206799, 1207268, 1207368]","[152, 194, 189, 95, 156, 193, 88, 43, 142, 141, 111, 253, 124, 47, 168, 117, 165, 63, 180, 40, 110, 41, 163, 41, 213, 74, 237, 252, 55, 85, 226, 48, 129, 40, 153, 66, 215]","[1193893, 1194343, 1195074, 1195684, 1196276, 1196886, 1197473, 1198058, 1198670, 1199254, 1199840, 1200413, 1200510, 1200976, 1201095, 1201561, 1201656, 1202136, 1202229, 1202712, 1202807, 1203284, 1203379, 1203857, 1203951, 1204429, 1204523, 1205012, 1205106, 1205558, 1205653, 1206125, 1206220, 1206661, 1206756, 1207254, 1207348]","[1193905, 1194505, 1195105, 1195705, 1196305, 1196905, 1197505, 1198105, 1198685, 1199269, 1199854, 1200428, 1200990, 1201576, 1202149, 1202727, 1203299, 1203871, 1204443, 1205026, 1205573, 1206140, 1206676, 1207268]",74,SB,L,R,ITMSR,1.1
4,600,trial,0,65,65,65,trial,"['S', 'S', 'S', 'S', 'S', 'S', 'S', 'S', 'S', 'S', 'S', 'C', 'C', 'C', 'C', 'C', 'C', 'C', 'C', 'C', 'C', 'C', 'C', 'C', 'C', 'C', 'C', 'C', 'C', 'C', 'C', 'C', 'C', 'C']","[1213074, 1213407, 1214076, 1214645, 1215226, 1215858, 1215958, 1216462, 1216562, 1217063, 1217164, 1217637, 1217737, 1218188, 1218765, 1218865, 1219350, 1219452, 1219923, 1220023, 1220497, 1220597, 1221029, 1221129, 1221612, 1222179, 1222750, 1223306, 1223882, 1223982, 1224458, 1225023, 1225579, 1226207]","[1213174, 1213669, 1214284, 1214816, 1215389, 1215878, 1216006, 1216482, 1216631, 1217083, 1217184, 1217657, 1217781, 1218331, 1218785, 1218918, 1219371, 1219477, 1219943, 1220089, 1220517, 1220617, 1221049, 1221189, 1221738, 1222311, 1222870, 1223464, 1223902, 1224002, 1224631, 1225186, 1225731, 1226323]","[38, 171, 54, 62, 72, 247, 7, 28, 211, 44, 58, 81, 127, 235, 179, 216, 36, 173, 143, 194, 49, 99, 81, 75, 74, 74, 98, 51, 44, 77, 42, 97, 25, 198]","[1213081, 1213412, 1214081, 1214649, 1215230, 1215862, 1215958, 1216466, 1216562, 1217068, 1217164, 1217642, 1217737, 1218192, 1218770, 1218873, 1219354, 1219452, 1219929, 1220023, 1220501, 1220597, 1221033, 1221129, 1221615, 1222182, 1222753, 1223309, 1223885, 1223982, 1224463, 1225027, 1225583, 1226212]","[1212917, 1213517, 1214117, 1214717, 1215318, 1215917, 1216517, 1217117, 1217657, 1218208, 1218785, 1219371, 1219943, 1220517, 1221049, 1221633, 1222199, 1222770, 1223326, 1223902, 1224478, 1225043, 1225600, 1226227]",74,SB,L,R,ITMSR,1.1
5,400,trial,0,66,66,66,trial,"['S', 'S', 'S', 'S', 'S', 'S', 'S', 'C', 'C', 'C', 'C', 'C', 'C', 'C', 'C', 'C', 'C', 'C', 'C', 'C', 'C', 'C', 'C']","[1232467, 1232770, 1233134, 1233515, 1233888, 1234290, 1234668, 1235079, 1235443, 1235798, 1236195, 1236564, 1236941, 1237269, 1237653, 1238011, 1238362, 1238727, 1239099, 1239418, 1239808, 1240174, 1240565]","[1232548, 1232863, 1233210, 1233584, 1233972, 1234341, 1234740, 1235143, 1235535, 1235900, 1236286, 1236660, 1237029, 1237389, 1237742, 1238104, 1238448, 1238821, 1239181, 1239511, 1239904, 1240287, 1240585]","[170, 181, 163, 143, 173, 160, 187, 148, 174, 170, 187, 174, 161, 158, 172, 179, 160, 152, 121, 116, 168, 117, 68]","[1232474, 1232773, 1233138, 1233519, 1233892, 1234294, 1234671, 1235083, 1235447, 1235801, 1236199, 1236568, 1236945, 1237273, 1237657, 1238016, 1238366, 1238731, 1239103, 1239424, 1239812, 1240179, 1240570]","[1231970, 1232370, 1232770, 1233170, 1233570, 1233970, 1234370, 1234770, 1235099, 1235463, 1235818, 1236215, 1236584, 1236961, 1237289, 1237673, 1238031, 1238382, 1238747, 1239119, 1239438, 1239828, 1240194, 1240585]",74,SB,L,R,ITMSR,1.1
4,400,trial,0,67,67,67,trial,"['S', 'S', 'S', 'S', 'S', 'S', 'S', 'S', 'C', 'C', 'C', 'C', 'C', 'C', 'C', 'C', 'C', 'C', 'C', 'C', 'C', 'C', 'C', 'C']","[1246532, 1246828, 1247126, 1247514, 1247921, 1248322, 1248691, 1249122, 1249476, 1249829, 1250219, 1250564, 1250932, 1251301, 1251675, 1252067, 1252432, 1252795, 1253165, 1253524, 1253881, 1254259, 1254629, 1254996]","[1246614, 1246903, 1247214, 1247588, 1247983, 1248392, 1248766, 1249142, 1249558, 1249928, 1250286, 1250663, 1251008, 1251403, 1251779, 1252171, 1252506, 1252872, 1253238, 1253602, 1254006, 1254346, 1254706, 1255083]","[9, 0, 32, 25, 9, 0, 240, 218, 23, 16, 240, 1, 234, 247, 236, 241, 238, 225, 228, 239, 213, 7, 29, 2]","[1246536, 1246832, 1247130, 1247517, 1247924, 1248326, 1248695, 1249126, 1249480, 1249832, 1250223, 1250568, 1250936, 1251304, 1251679, 1252071, 1252436, 1252798, 1253169, 1253528, 1253885, 1254263, 1254632, 1255000]","[1246374, 1246774, 1247174, 1247575, 1247974, 1248374, 1248774, 1249174, 1249496, 1249849, 1250239, 1250584, 1250952, 1251321, 1251695, 1252087, 1252452, 1252815, 1253185, 1253544, 1253901, 1254279, 1254649, 1255016]",74,SB,L,R,ITMSR,1.1
2,400,trial,0,68,68,68,trial,"['B', 'S', 'S', 'S', 'S', 'S', 'S', 'S', 'C', 'C', 'C', 'C', 'C', 'C', 'C', 'C', 'C', 'C', 'C', 'C', 'C', 'C', 'C', 'C']","[1260339, 1260688, 1261102, 1261506, 1261875, 1262313, 1262681, 1263077, 1263498, 1263893, 1264267, 1264647, 1265019, 1265369, 1265775, 1266170, 1266547, 1266913, 1267299, 1267640, 1268034, 1268388, 1268789, 1269179]","[1260490, 1260839, 1261199, 1261589, 1261968, 1262385, 1262761, 1263162, 1263575, 1263986, 1264359, 1264723, 1265111, 1265471, 1265874, 1266234, 1266618, 1266985, 1267375, 1267660, 1268104, 1268475, 1268809, 1269261]","[102, 240, 239, 229, 7, 236, 12, 244, 251, 4, 243, 7, 14, 12, 22, 2, 7, 207, 205, 134, 189, 215, 63, 211]","[1260349, 1260693, 1261107, 1261510, 1261879, 1262318, 1262684, 1263081, 1263502, 1263897, 1264271, 1264651, 1265024, 1265373, 1265779, 1266174, 1266551, 1266918, 1267304, 1267646, 1268040, 1268393, 1268794, 1269184]","[1260349, 1260749, 1261149, 1261549, 1261949, 1262349, 1262749, 1263149, 1263518, 1263913, 1264287, 1264667, 1265039, 1265389, 1265795, 1266190, 1266567, 1266933, 1267319, 1267660, 1268055, 1268408, 1268809, 1269199]",74,SB,L,R,ITMSR,1.1
0,400,trial,0,69,69,69,trial,"['S', 'S', 'S', 'S', 'S', 'S', 'S', 'S', 'C', 'C', 'C', 'C', 'C', 'C', 'C', 'C', 'C', 'C', 'C', 'C', 'C', 'C', 'C', 'C']","[1274804, 1275096, 1275392, 1275779, 1276152, 1276551, 1276940, 1277320, 1277730, 1278130, 1278486, 1278897, 1279264, 1279653, 1280040, 1280429, 1280790, 1281180, 1281549, 1281950, 1282326, 1282698, 1283078, 1283463]","[1274887, 1275203, 1275466, 1275860, 1276240, 1276647, 1277040, 1277432, 1277852, 1278221, 1278593, 1278991, 1279342, 1279753, 1280145, 1280449, 1280884, 1281276, 1281636, 1282042, 1282412, 1282765, 1283174, 1283549]","[158, 247, 8, 43, 58, 55, 51, 31, 34, 12, 28, 20, 253, 19, 22, 11, 16, 254, 247, 16, 17, 237, 221, 248]","[1274809, 1275100, 1275396, 1275783, 1276155, 1276555, 1276944, 1277323, 1277733, 1278134, 1278489, 1278900, 1279268, 1279657, 1280045, 1280432, 1280794, 1281184, 1281553, 1281954, 1282330, 1282702, 1283082, 1283466]","[1274617, 1275017, 1275417, 1275817, 1276217, 1276617, 1277017, 1277417, 1277750, 1278150, 1278507, 1278917, 1279284, 1279673, 1280060, 1280449, 1280811, 1281200, 1281569, 1281970, 1282347, 1282718, 1283098, 1283483]",74,SB,L,R,ITMSR,1.1
2,600,trial,0,70,70,70,trial,"['S', 'S', 'S', 'S', 'S', 'S', 'S', 'S', 'C', 'C', 'C', 'C', 'C', 'C', 'C', 'C', 'C', 'C', 'C', 'C', 'C', 'C', 'C', 'C']","[1289431, 1289670, 1290380, 1291012, 1291641, 1292175, 1292780, 1293336, 1293938, 1294471, 1295024, 1295586, 1296149, 1296664, 1297238, 1297765, 1298314, 1298854, 1299358, 1299878, 1300418, 1300943, 1301457, 1301957]","[1289503, 1289785, 1290477, 1291090, 1291720, 1292253, 1292858, 1293411, 1294001, 1294554, 1295119, 1295671, 1296246, 1296763, 1297340, 1297867, 1298440, 1298939, 1299488, 1299991, 1300564, 1301059, 1301578, 1302042]","[11, 72, 57, 32, 8, 211, 187, 211, 230, 233, 202, 207, 212, 212, 207, 208, 210, 198, 192, 223, 182, 206, 93, 192]","[1289435, 1289673, 1290384, 1291016, 1291645, 1292179, 1292785, 1293340, 1293942, 1294476, 1295029, 1295589, 1296153, 1296668, 1297242, 1297769, 1298318, 1298859, 1299362, 1299883, 1300423, 1300947, 1301463, 1301961]","[1289253, 1289853, 1290454, 1291053, 1291653, 1292253, 1292853, 1293453, 1293958, 1294491, 1295044, 1295606, 1296169, 1296685, 1297258, 1297785, 1298334, 1298874, 1299378, 1299898, 1300439, 1300963, 1301477, 1301977]",74,SB,L,R,ITMSR,1.1
5,400,trial,0,71,71,71,trial,"['S', 'S', 'S', 'S', 'S', 'S', 'S', 'S', 'C', 'C', 'C', 'C', 'C', 'C', 'C', 'C', 'C', 'C', 'C', 'C', 'C', 'C', 'C', 'C']","[1307719, 1307977, 1308310, 1308655, 1309043, 1309428, 1309834, 1310263, 1310616, 1311004, 1311407, 1311745, 1312062, 1312479, 1312859, 1313238, 1313608, 1313978, 1314357, 1314720, 1315096, 1315452, 1315842, 1316218]","[1307787, 1308044, 1308331, 1308726, 1309121, 1309513, 1309902, 1310337, 1310712, 1311080, 1311427, 1311859, 1312176, 1312565, 1312950, 1313311, 1313686, 1314051, 1314440, 1314807, 1315183, 1315570, 1315928, 1316293]","[150, 218, 19, 250, 250, 13, 240, 225, 7, 226, 150, 197, 181, 220, 229, 225, 238, 209, 242, 234, 227, 241, 245, 224]","[1307724, 1307981, 1308314, 1308658, 1309047, 1309432, 1309838, 1310266, 1310620, 1311007, 1311412, 1311750, 1312066, 1312482, 1312862, 1313242, 1313611, 1313982, 1314361, 1314724, 1315100, 1315456, 1315845, 1316222]","[1307513, 1307913, 1308313, 1308713, 1309113, 1309513, 1309913, 1310313, 1310637, 1311024, 1311427, 1311765, 1312082, 1312499, 1312879, 1313258, 1313628, 1313998, 1314377, 1314740, 1315117, 1315472, 1315862, 1316238]",74,SB,L,R,ITMSR,1.1
2,600,trial,0,72,72,72,trial,"['S', 'S', 'S', 'S', 'S', 'S', 'S', 'S', 'S', 'S', 'S', 'C', 'C', 'C', 'C', 'C', 'C', 'C', 'C', 'C', 'C', 'C', 'C', 'C', 'C', 'C', 'C', 'C']","[1322115, 1322376, 1323024, 1323604, 1324249, 1324853, 1324953, 1325451, 1325551, 1326021, 1326121, 1326649, 1327206, 1327772, 1327872, 1328333, 1328937, 1329474, 1330042, 1330586, 1331165, 1331720, 1332290, 1332849, 1333404, 1333931, 1334500, 1335018]","[1322188, 1322521, 1323114, 1323762, 1324378, 1324873, 1324985, 1325471, 1325590, 1326041, 1326153, 1326775, 1327308, 1327792, 1327894, 1328430, 1329030, 1329580, 1330149, 1330688, 1331276, 1331852, 1332423, 1332966, 1333517, 1334023, 1334633, 1335120]","[211, 228, 176, 150, 193, 147, 7, 164, 63, 181, 19, 183, 175, 162, 252, 191, 122, 180, 164, 170, 154, 216, 177, 244, 170, 221, 147, 178]","[1322119, 1322380, 1323028, 1323608, 1324252, 1324857, 1324953, 1325455, 1325551, 1326024, 1326121, 1326652, 1327209, 1327775, 1327872, 1328337, 1328941, 1329477, 1330045, 1330589, 1331169, 1331723, 1332293, 1332853, 1333407, 1333934, 1334504, 1335021]","[1321890, 1322490, 1323090, 1323691, 1324290, 1324890, 1325490, 1326090, 1326669, 1327226, 1327792, 1328353, 1328957, 1329495, 1330062, 1330606, 1331185, 1331740, 1332311, 1332869, 1333424, 1333951, 1334520, 1335038]",74,SB,L,R,ITMSR,1.1
0,600,trial,0,73,73,73,trial,"['S', 'S', 'S', 'S', 'S', 'S', 'S', 'S', 'C', 'C', 'C', 'C', 'C', 'C', 'C', 'C', 'C', 'C', 'C', 'C', 'C', 'C', 'C', 'C']","[1340549, 1340856, 1341500, 1342052, 1342717, 1343330, 1343994, 1344591, 1345144, 1345726, 1346295, 1346861, 1347414, 1347966, 1348549, 1349075, 1349630, 1350163, 1350731, 1351251, 1351788, 1352283, 1352834, 1353377]","[1340643, 1341147, 1341706, 1342314, 1342848, 1343454, 1344071, 1344683, 1345217, 1345800, 1346368, 1346944, 1347505, 1348091, 1348660, 1349171, 1349726, 1350259, 1350817, 1351348, 1351900, 1352387, 1352928, 1353467]","[250, 5, 128, 122, 87, 139, 31, 105, 194, 252, 17, 169, 138, 121, 123, 92, 115, 131, 142, 22, 243, 87, 119, 104]","[1340553, 1340859, 1341504, 1342055, 1342722, 1343334, 1344000, 1344595, 1345148, 1345730, 1346298, 1346865, 1347417, 1347971, 1348553, 1349079, 1349635, 1350166, 1350735, 1351256, 1351792, 1352287, 1352838, 1353381]","[1340390, 1340989, 1341589, 1342189, 1342789, 1343389, 1343989, 1344589, 1345164, 1345746, 1346315, 1346881, 1347434, 1347986, 1348569, 1349095, 1349650, 1350183, 1350751, 1351271, 1351809, 1352303, 1352854, 1353397]",74,SB,L,R,ITMSR,1.1
1,600,trial,0,74,74,74,trial,"['S', 'S', 'S', 'S', 'S', 'S', 'S', 'C', 'C', 'C', 'C', 'C', 'C', 'C', 'C', 'C', 'C', 'C', 'C', 'C', 'C', 'C', 'C', 'C']","[1359240, 1359875, 1360470, 1361107, 1361674, 1362321, 1362933, 1363525, 1364052, 1364591, 1365135, 1365680, 1366256, 1366776, 1367297, 1367880, 1367980, 1368394, 1368936, 1369468, 1370007, 1370548, 1371078, 1371613]","[1359350, 1359971, 1360547, 1361184, 1361759, 1362403, 1363017, 1363611, 1364156, 1364695, 1365235, 1365800, 1366339, 1366902, 1367406, 1367900, 1368000, 1368486, 1368956, 1369488, 1370098, 1370651, 1371175, 1371713]","[156, 147, 81, 154, 205, 198, 147, 188, 220, 138, 207, 216, 237, 230, 3, 157, 145, 153, 168, 137, 209, 188, 226, 226]","[1359245, 1359880, 1360476, 1361111, 1361678, 1362324, 1362936, 1363529, 1364056, 1364594, 1365138, 1365683, 1366259, 1366779, 1367300, 1367884, 1367980, 1368398, 1368940, 1369473, 1370010, 1370551, 1371081, 1371616]","[1358808, 1359408, 1360008, 1360608, 1361208, 1361808, 1362408, 1363008, 1363545, 1364072, 1364611, 1365155, 1365700, 1366276, 1366796, 1367317, 1367900, 1368414, 1368956, 1369488, 1370028, 1370568, 1371098, 1371633]",74,SB,L,R,ITMSR,1.1
5,600,trial,0,75,75,75,trial,"['S', 'S', 'S', 'S', 'S', 'S', 'S', 'S', 'C', 'C', 'C', 'C', 'C', 'C', 'C', 'C', 'C', 'C', 'C', 'C', 'C', 'C', 'C', 'C']","[1377200, 1377456, 1378067, 1378693, 1379255, 1379889, 1380470, 1381061, 1381668, 1382233, 1382778, 1383332, 1383907, 1384474, 1385037, 1385613, 1386153, 1386722, 1387310, 1387886, 1388389, 1388977, 1389533, 1390116]","[1377285, 1377594, 1378158, 1378751, 1379337, 1379933, 1380538, 1381127, 1381758, 1382309, 1382874, 1383417, 1383998, 1384556, 1385150, 1385694, 1386252, 1386798, 1387409, 1387959, 1388508, 1389069, 1389617, 1390212]","[79, 17, 209, 127, 152, 151, 177, 246, 11, 250, 212, 201, 193, 202, 217, 211, 173, 241, 220, 103, 156, 163, 148, 144]","[1377205, 1377459, 1378071, 1378696, 1379259, 1379893, 1380473, 1381064, 1381672, 1382237, 1382781, 1383336, 1383910, 1384478, 1385041, 1385616, 1386158, 1386726, 1387316, 1387890, 1388393, 1388982, 1389538, 1390120]","[1376995, 1377594, 1378194, 1378794, 1379394, 1379994, 1380594, 1381194, 1381688, 1382253, 1382798, 1383352, 1383927, 1384494, 1385057, 1385633, 1386173, 1386742, 1387330, 1387906, 1388409, 1388997, 1389553, 1390136]",74,SB,L,R,ITMSR,1.1
1,400,trial,0,76,76,76,trial,"['S', 'S', 'S', 'S', 'S', 'S', 'S', 'C', 'C', 'C', 'C', 'C', 'C', 'C', 'C', 'C', 'C', 'C', 'C', 'C', 'C', 'C', 'C']","[1396199, 1396550, 1396923, 1397302, 1397677, 1398087, 1398451, 1398858, 1399227, 1399602, 1399962, 1400383, 1400753, 1401139, 1401505, 1401880, 1402230, 1402610, 1402977, 1403343, 1403710, 1404055, 1404419]","[1396267, 1396610, 1396981, 1397370, 1397754, 1398136, 1398516, 1398925, 1399307, 1399690, 1400050, 1400464, 1400840, 1401219, 1401598, 1401956, 1402332, 1402695, 1403054, 1403414, 1403781, 1404141, 1404497]","[21, 75, 13, 21, 35, 16, 38, 38, 25, 24, 22, 21, 40, 28, 30, 21, 31, 33, 44, 2, 39, 29, 28]","[1396203, 1396553, 1396927, 1397305, 1397680, 1398091, 1398454, 1398860, 1399230, 1399605, 1399965, 1400386, 1400757, 1401142, 1401508, 1401883, 1402234, 1402613, 1402980, 1403346, 1403713, 1404059, 1404423]","[1395746, 1396145, 1396545, 1396945, 1397345, 1397745, 1398146, 1398546, 1398878, 1399247, 1399622, 1399982, 1400403, 1400773, 1401159, 1401525, 1401901, 1402250, 1402630, 1402997, 1403363, 1403730, 1404076, 1404439]",74,SB,L,R,ITMSR,1.1
1,400,trial,0,77,77,77,trial,"['S', 'S', 'S', 'S', 'S', 'S', 'S', 'S', 'C', 'C', 'C', 'C', 'C', 'C', 'C', 'C', 'C', 'C', 'C', 'C', 'C', 'C', 'C', 'C']","[1410119, 1410430, 1410856, 1411101, 1411422, 1411820, 1412203, 1412597, 1412976, 1413320, 1413675, 1414038, 1414413, 1414787, 1415163, 1415538, 1415867, 1416245, 1416577, 1416954, 1417322, 1417689, 1418027, 1418416]","[1410177, 1410497, 1410929, 1411170, 1411499, 1411887, 1412268, 1412667, 1413049, 1413396, 1413746, 1414114, 1414483, 1414849, 1415234, 1415603, 1415950, 1416324, 1416677, 1417046, 1417391, 1417757, 1418115, 1418478]","[6, 25, 64, 19, 58, 63, 83, 53, 65, 76, 38, 35, 21, 19, 19, 32, 43, 29, 34, 25, 19, 25, 29, 15]","[1410122, 1410433, 1410860, 1411105, 1411426, 1411823, 1412206, 1412601, 1412980, 1413323, 1413678, 1414041, 1414416, 1414790, 1415168, 1415542, 1415871, 1416248, 1416581, 1416957, 1417325, 1417693, 1418031, 1418420]","[1409873, 1410272, 1410672, 1411073, 1411472, 1411872, 1412272, 1412672, 1412996, 1413340, 1413695, 1414059, 1414433, 1414807, 1415183, 1415558, 1415887, 1416265, 1416597, 1416974, 1417342, 1417709, 1418047, 1418436]",74,SB,L,R,ITMSR,1.1
1,400,trial,0,78,78,78,trial,"['S', 'S', 'S', 'S', 'S', 'S', 'S', 'C', 'C', 'C', 'C', 'C', 'C', 'C', 'C', 'C', 'C', 'C', 'C', 'C', 'C', 'C', 'C']","[1429409, 1429838, 1430267, 1430676, 1431083, 1431493, 1431917, 1432294, 1432649, 1433019, 1433403, 1433776, 1434134, 1434520, 1434894, 1435277, 1435643, 1436021, 1436377, 1436751, 1437087, 1437466, 1437843]","[1429491, 1429919, 1430354, 1430772, 1431180, 1431584, 1431995, 1432386, 1432744, 1433119, 1433496, 1433878, 1434241, 1434632, 1434993, 1435365, 1435740, 1436108, 1436485, 1436855, 1437201, 1437556, 1437916]","[87, 148, 251, 196, 232, 214, 219, 207, 199, 180, 171, 180, 161, 164, 132, 148, 99, 55, 83, 152, 16, 129, 154]","[1429413, 1429841, 1430269, 1430678, 1431086, 1431496, 1431920, 1432297, 1432653, 1433022, 1433407, 1433780, 1434138, 1434524, 1434897, 1435280, 1435646, 1436024, 1436381, 1436754, 1437091, 1437469, 1437847]","[1429171, 1429571, 1429971, 1430371, 1430771, 1431171, 1431571, 1431971, 1432314, 1432669, 1433039, 1433423, 1433796, 1434155, 1434541, 1434914, 1435297, 1435663, 1436041, 1436397, 1436771, 1437107, 1437486, 1437863]",74,SB,L,R,ITMSR,1.1
2,600,trial,0,79,79,79,trial,"['S', 'S', 'S', 'S', 'S', 'S', 'S', 'S', 'C', 'C', 'C', 'C', 'C', 'C', 'C', 'C', 'C', 'C', 'C', 'C', 'C', 'C', 'C', 'C']","[1443793, 1444269, 1444687, 1445271, 1445838, 1446429, 1447040, 1447618, 1448216, 1448744, 1449299, 1449823, 1450368, 1450872, 1451396, 1451911, 1452443, 1452950, 1453480, 1454010, 1454562, 1455101, 1455645, 1456194]","[1443871, 1444369, 1444829, 1445369, 1445922, 1446492, 1447090, 1447685, 1448290, 1448822, 1449379, 1449897, 1450388, 1450952, 1451416, 1451931, 1452463, 1452971, 1453500, 1454124, 1454679, 1455184, 1455762, 1456292]","[130, 232, 189, 142, 36, 69, 18, 16, 60, 254, 54, 63, 217, 245, 188, 207, 223, 164, 226, 68, 76, 98, 127, 119]","[1443799, 1444272, 1444689, 1445273, 1445841, 1446431, 1447043, 1447621, 1448219, 1448748, 1449302, 1449826, 1450371, 1450874, 1451398, 1451914, 1452446, 1452954, 1453484, 1454012, 1454565, 1455104, 1455647, 1456196]","[1443522, 1444122, 1444722, 1445322, 1445922, 1446522, 1447122, 1447723, 1448237, 1448764, 1449319, 1449843, 1450388, 1450892, 1451416, 1451931, 1452463, 1452971, 1453500, 1454030, 1454582, 1455121, 1455665, 1456215]",74,SB,L,R,ITMSR,1.1
0,400,trial,0,80,80,80,trial,"['S', 'S', 'S', 'S', 'S', 'S', 'S', 'S', 'C', 'C', 'C', 'C', 'C', 'C', 'C', 'C', 'C', 'C', 'C', 'C', 'C', 'C', 'C', 'C']","[1461841, 1462068, 1462396, 1462755, 1463160, 1463573, 1463979, 1464370, 1464772, 1465141, 1465504, 1465908, 1466270, 1466654, 1467030, 1467449, 1467839, 1468219, 1468577, 1468997, 1469359, 1469744, 1470116, 1470475]","[1461896, 1462150, 1462471, 1462837, 1463225, 1463635, 1463999, 1464390, 1464792, 1465161, 1465524, 1465928, 1466350, 1466727, 1467109, 1467469, 1467921, 1468293, 1468660, 1469073, 1469440, 1469836, 1470190, 1470495]","[145, 237, 57, 38, 22, 28, 188, 212, 167, 114, 151, 127, 199, 116, 149, 168, 120, 202, 170, 165, 175, 160, 113, 141]","[1461846, 1462071, 1462400, 1462758, 1463162, 1463576, 1463982, 1464373, 1464775, 1465144, 1465507, 1465912, 1466272, 1466656, 1467033, 1467453, 1467842, 1468221, 1468580, 1469001, 1469361, 1469748, 1470120, 1470479]","[1461632, 1462031, 1462431, 1462831, 1463231, 1463631, 1464031, 1464431, 1464792, 1465161, 1465524, 1465928, 1466290, 1466674, 1467051, 1467469, 1467859, 1468239, 1468597, 1469017, 1469379, 1469764, 1470136, 1470495]",74,SB,L,R,ITMSR,1.1
5,600,trial,0,81,81,81,trial,"['S', 'S', 'S', 'S', 'S', 'S', 'S', 'S', 'C', 'C', 'C', 'C', 'C', 'C', 'C', 'C', 'C', 'C', 'C', 'C', 'C', 'C', 'C', 'C', 'C', 'C', 'C']","[1476224, 1476490, 1477182, 1477794, 1478366, 1478960, 1479557, 1480169, 1480751, 1481346, 1481904, 1482480, 1483071, 1483609, 1484170, 1484706, 1485258, 1485358, 1485838, 1486407, 1486507, 1486948, 1487491, 1488041, 1488141, 1488568, 1489174]","[1476288, 1476602, 1477276, 1477870, 1478450, 1479051, 1479628, 1480231, 1480833, 1481427, 1482002, 1482570, 1483170, 1483702, 1484276, 1484817, 1485278, 1485378, 1485858, 1486427, 1486527, 1487044, 1487608, 1488061, 1488161, 1488733, 1489326]","[239, 23, 147, 54, 128, 63, 58, 78, 106, 71, 44, 78, 59, 92, 30, 254, 60, 75, 55, 35, 147, 114, 115, 102, 115, 154, 182]","[1476228, 1476494, 1477186, 1477798, 1478370, 1478964, 1479562, 1480173, 1480755, 1481350, 1481908, 1482484, 1483074, 1483612, 1484173, 1484711, 1485262, 1485358, 1485842, 1486410, 1486507, 1486951, 1487495, 1488046, 1488141, 1488571, 1489178]","[1476032, 1476631, 1477231, 1477831, 1478431, 1479031, 1479631, 1480231, 1480771, 1481366, 1481924, 1482500, 1483091, 1483629, 1484190, 1484726, 1485278, 1485858, 1486427, 1486968, 1487511, 1488061, 1488588, 1489195]",74,SB,L,R,ITMSR,1.1
0,600,trial,0,82,82,82,trial,"['S', 'S', 'S', 'S', 'S', 'S', 'S', 'S', 'C', 'C', 'C', 'C', 'C', 'C', 'C', 'C', 'C', 'C', 'C', 'C', 'C', 'C', 'C', 'C']","[1495075, 1495372, 1496074, 1496669, 1497242, 1497846, 1498417, 1499009, 1499619, 1500173, 1500723, 1501254, 1501822, 1502368, 1502915, 1503455, 1504013, 1504551, 1505051, 1505566, 1506108, 1506675, 1507201, 1507723]","[1495184, 1495660, 1496297, 1496896, 1497421, 1498016, 1498600, 1499158, 1499791, 1500349, 1500907, 1501451, 1502020, 1502563, 1503078, 1503667, 1504195, 1504735, 1505325, 1505874, 1506447, 1506969, 1507482]","[184, 234, 23, 131, 236, 175, 199, 211, 139, 186, 165, 213, 132, 190, 199, 181, 160, 173, 148, 139, 171, 189, 156]","[1495079, 1495374, 1496076, 1496673, 1497245, 1497850, 1498420, 1499013, 1499622, 1500176, 1500726, 1501257, 1501827, 1502370, 1502918, 1503459, 1504016, 1504556, 1505192, 1505570, 1506112, 1506679, 1507204]","[1494904, 1495504, 1496104, 1496705, 1497304, 1497904, 1498504, 1499104, 1499639, 1500193, 1500743, 1501274, 1501842, 1502388, 1502936, 1503475, 1504033, 1504571, 1505071, 1505586, 1506128, 1506695, 1507221, 1507743]",74,SB,L,R,ITMSR,1.1
5,600,trial,0,83,83,83,trial,"['S', 'S', 'S', 'S', 'S', 'S', 'S', 'S', 'C', 'C', 'C', 'C', 'C', 'C', 'C', 'C', 'C', 'C', 'C', 'C', 'C', 'C', 'C', 'C']","[1513566, 1513812, 1514351, 1514994, 1515607, 1516210, 1516818, 1517445, 1518046, 1518605, 1519190, 1519722, 1520315, 1520886, 1521428, 1521994, 1522533, 1523093, 1523644, 1524200, 1524786, 1525334, 1525871, 1526481]","[1513672, 1513979, 1514536, 1515131, 1515760, 1516336, 1516956, 1517570, 1518164, 1518774, 1519360, 1519941, 1520492, 1521052, 1521642, 1522177, 1522736, 1523289, 1523822, 1524407, 1524977, 1525538, 1526121, 1526668]","[115, 128, 185, 134, 202, 163, 120, 19, 60, 41, 95, 83, 122, 235, 169, 69, 60, 250, 130, 54, 35, 41, 103, 113]","[1513569, 1513817, 1514355, 1514998, 1515610, 1516213, 1516821, 1517450, 1518051, 1518610, 1519194, 1519830, 1520319, 1520891, 1521522, 1521998, 1522537, 1523099, 1523649, 1524204, 1524791, 1525339, 1525875, 1526486]","[1513319, 1513919, 1514519, 1515119, 1515719, 1516319, 1516919, 1517519, 1518066, 1518625, 1519210, 1519742, 1520335, 1520906, 1521448, 1522014, 1522553, 1523113, 1523664, 1524220, 1524806, 1525354, 1525891, 1526501]",74,SB,L,R,ITMSR,1.1
2,600,trial,0,84,84,84,trial,"['B', 'S', 'S', 'S', 'S', 'S', 'S', 'S', 'S', 'C', 'C', 'C', 'C', 'C', 'C', 'C', 'C', 'C', 'C', 'C', 'C', 'C', 'C', 'C', 'C']","[1532282, 1532574, 1532850, 1533443, 1533979, 1534576, 1535157, 1535744, 1536311, 1536939, 1537499, 1538052, 1538599, 1539134, 1539670, 1540207, 1540738, 1541242, 1541785, 1542307, 1542855, 1543368, 1543884, 1544417, 1544974]","[1532318, 1532668, 1532943, 1533521, 1534086, 1534696, 1535248, 1535867, 1536419, 1537055, 1537591, 1538171, 1538707, 1539267, 1539772, 1540320, 1540872, 1541426, 1541934, 1542450, 1542934, 1543462, 1543976, 1544530, 1545058]","[51, 159, 126, 149, 236, 241, 130, 169, 76, 169, 200, 223, 232, 234, 176, 201, 194, 107, 189, 200, 155, 159, 197, 181, 148]","[1532282, 1532579, 1532854, 1533448, 1533983, 1534580, 1535162, 1535748, 1536317, 1536944, 1537504, 1538056, 1538604, 1539138, 1539675, 1540211, 1540742, 1541248, 1541789, 1542312, 1542859, 1543372, 1543888, 1544421, 1544978]","[1532293, 1532893, 1533493, 1534093, 1534693, 1535293, 1535893, 1536493, 1536959, 1537519, 1538072, 1538619, 1539154, 1539690, 1540227, 1540758, 1541262, 1541805, 1542327, 1542875, 1543388, 1543904, 1544437, 1544994]",74,SB,L,R,ITMSR,1.1
2,400,trial,0,85,85,85,trial,"['S', 'S', 'S', 'S', 'S', 'S', 'S', 'C', 'C', 'C', 'C', 'C', 'C', 'C', 'C', 'C', 'C', 'C', 'C', 'C', 'C', 'C', 'C', 'C']","[1550815, 1551160, 1551478, 1551863, 1552258, 1552662, 1553071, 1553457, 1553827, 1554192, 1554567, 1554930, 1555293, 1555652, 1556012, 1556398, 1556760, 1557120, 1557448, 1557548, 1557862, 1558241, 1558607, 1558963]","[1550889, 1551203, 1551526, 1551920, 1552324, 1552711, 1553091, 1553477, 1553847, 1554212, 1554587, 1554950, 1555313, 1555672, 1556032, 1556418, 1556781, 1557176, 1557468, 1557568, 1557933, 1558317, 1558681, 1559049]","[123, 15, 2, 4, 247, 226, 199, 179, 186, 224, 202, 215, 211, 189, 225, 186, 206, 229, 224, 182, 204, 216, 222, 238]","[1550819, 1551163, 1551481, 1551866, 1552261, 1552666, 1553075, 1553462, 1553831, 1554196, 1554571, 1554935, 1555297, 1555656, 1556016, 1556402, 1556763, 1557124, 1557452, 1557548, 1557866, 1558244, 1558610, 1558966]","[1550333, 1550732, 1551132, 1551533, 1551933, 1552333, 1552733, 1553133, 1553477, 1553847, 1554212, 1554587, 1554950, 1555313, 1555672, 1556032, 1556418, 1556781, 1557140, 1557468, 1557882, 1558261, 1558627, 1558983]",74,SB,L,R,ITMSR,1.1
2,400,trial,0,86,86,86,trial,"['S', 'S', 'S', 'S', 'S', 'S', 'S', 'C', 'C', 'C', 'C', 'C', 'C', 'C', 'C', 'C', 'C', 'C', 'C', 'C', 'C', 'C', 'C']","[1564923, 1565375, 1565747, 1566159, 1566562, 1566973, 1567362, 1567756, 1568141, 1568519, 1568893, 1569260, 1569648, 1570025, 1570383, 1570745, 1571127, 1571494, 1571861, 1572229, 1572587, 1572950, 1573325]","[1564997, 1565429, 1565839, 1566229, 1566620, 1567021, 1567423, 1567820, 1568217, 1568603, 1568957, 1569352, 1569719, 1570089, 1570403, 1570814, 1571197, 1571574, 1571945, 1572304, 1572672, 1573006, 1573401]","[163, 197, 18, 40, 44, 12, 52, 33, 53, 15, 27, 6, 14, 251, 241, 2, 38, 34, 29, 25, 13, 230, 17]","[1564928, 1565379, 1565750, 1566162, 1566565, 1566977, 1567365, 1567760, 1568144, 1568522, 1568897, 1569263, 1569652, 1570029, 1570387, 1570749, 1571130, 1571497, 1571864, 1572233, 1572590, 1572954, 1573329]","[1564652, 1565052, 1565452, 1565852, 1566253, 1566653, 1567053, 1567453, 1567776, 1568161, 1568539, 1568913, 1569281, 1569668, 1570045, 1570403, 1570765, 1571147, 1571514, 1571881, 1572249, 1572608, 1572970, 1573345]",74,SB,L,R,ITMSR,1.1
5,400,trial,0,87,87,87,trial,"['S', 'S', 'S', 'S', 'S', 'S', 'S', 'C', 'C', 'C', 'C', 'C', 'C', 'C', 'C', 'C', 'C', 'C', 'C', 'C', 'C', 'C', 'C']","[1579104, 1579473, 1579849, 1580248, 1580653, 1581032, 1581419, 1581802, 1582144, 1582528, 1582835, 1583209, 1583604, 1583966, 1584357, 1584727, 1585094, 1585472, 1585845, 1586200, 1586561, 1586914, 1587293]","[1579195, 1579569, 1579923, 1580339, 1580725, 1581096, 1581522, 1581926, 1582217, 1582619, 1582929, 1583272, 1583662, 1584046, 1584427, 1584811, 1585175, 1585540, 1585892, 1586273, 1586611, 1586979, 1587360]","[75, 66, 88, 67, 86, 62, 106, 84, 62, 55, 54, 54, 51, 41, 32, 1, 21, 229, 220, 251, 224, 238, 239]","[1579111, 1579476, 1579852, 1580252, 1580656, 1581034, 1581422, 1581805, 1582147, 1582532, 1582839, 1583212, 1583608, 1583970, 1584360, 1584731, 1585098, 1585475, 1585848, 1586204, 1586565, 1586918, 1587297]","[1578729, 1579129, 1579529, 1579929, 1580329, 1580729, 1581129, 1581529, 1581822, 1582164, 1582548, 1582855, 1583229, 1583624, 1583986, 1584377, 1584747, 1585114, 1585492, 1585865, 1586221, 1586581, 1586934, 1587313]",74,SB,L,R,ITMSR,1.1
