pitch,ioi,event,.thisRepN,.thisTrialN,.thisN,.thisIndex,event,tap_types,tap_times,release_times,peak_pressures,peak_times,tone_times,subject,experimenter,register,handedness,experiment,version,
,,SPR,0,-1,-1,0,SPR,"['P', 'P', 'P', 'P', 'P', 'P', 'P', 'P', 'P', 'P', 'P', 'P', 'P', 'P', 'P', 'P', 'P', 'P', 'P', 'P', 'P', 'P', 'P', 'P', 'P', 'P', 'P', 'P', 'P', 'P']","[53030, 53450, 53886, 54322, 54772, 55197, 55568, 55948, 56355, 56749, 57153, 58015, 58827, 59275, 59670, 60097, 62020, 62400, 62813, 63641, 64060, 64470, 64854, 65255, 65627, 66018, 66420, 66772, 67180, 67572]","[53140, 53576, 53978, 54413, 54858, 55217, 55588, 55968, 56375, 56769, 57174, 58035, 58847, 59295, 59691, 60118, 62040, 62420, 62833, 63661, 64080, 64490, 64874, 65275, 65647, 66038, 66440, 66792, 67200, 67592]","[19, 95, 84, 165, 252, 146, 121, 32, 29, 161, 29, 64, 75, 6, 157, 2, 134, 208, 18, 225, 166, 116, 253, 100, 131, 92, 207, 83, 87, 96]","[53038, 53456, 53893, 54327, 54777, 55201, 55572, 55953, 56359, 56752, 57156, 58019, 58830, 59275, 59672, 60097, 62021, 62403, 62814, 63643, 64066, 64474, 64859, 65260, 65631, 66020, 66423, 66776, 67184, 67575]",,83,OR,U,L,ITMSR,1.1,
5,500,practice,0,0,0,0,practice,"['S', 'S', 'S', 'S', 'S', 'S', 'S', 'C', 'C', 'C', 'C', 'C', 'C', 'C', 'C', 'C', 'C', 'C', 'C', 'C', 'C', 'C', 'C']","[136399, 136943, 137455, 137962, 138514, 139031, 139526, 140006, 140486, 141001, 141467, 141997, 142469, 142953, 143447, 143943, 144462, 144945, 145404, 145935, 146440, 146929, 147446]","[136572, 137024, 137530, 138046, 138587, 139116, 139600, 140070, 140559, 141063, 141529, 142068, 142530, 142978, 143507, 144015, 144525, 145030, 145501, 145955, 146526, 147010, 147517]","[50, 91, 55, 2, 82, 51, 85, 113, 151, 79, 133, 137, 10, 113, 81, 85, 28, 49, 115, 139, 196, 186, 154]","[136467, 136948, 137462, 137969, 138519, 139037, 139532, 140012, 140491, 141007, 141473, 142002, 142475, 142959, 143452, 143948, 144467, 144990, 145409, 145939, 146445, 146933, 147450]","[136042, 136542, 137042, 137542, 138042, 138542, 139042, 139542, 140026, 140506, 141021, 141487, 142017, 142489, 142973, 143467, 143963, 144482, 144965, 145424, 145955, 146460, 146949, 147466]",83,OR,U,L,ITMSR,1.1,
3,500,practice,0,1,1,1,practice,"['S', 'S', 'S', 'S', 'S', 'S', 'S', 'C', 'C', 'C', 'C', 'C', 'C', 'C', 'C', 'C', 'C', 'C', 'C', 'C', 'C', 'C', 'C']","[153485, 153997, 154483, 154999, 155494, 155970, 156492, 156990, 157487, 157979, 158479, 158937, 159480, 159926, 160427, 160912, 161371, 161912, 162362, 162835, 163320, 163794, 164287]","[153616, 154103, 154586, 155087, 155584, 156061, 156578, 157070, 157569, 158071, 158553, 159034, 159570, 160038, 160538, 161008, 161476, 162003, 162486, 162947, 163437, 163909, 164383]","[75, 188, 211, 122, 65, 250, 210, 210, 180, 164, 226, 239, 5, 86, 4, 104, 130, 15, 62, 83, 63, 94, 150]","[153492, 154002, 154487, 155005, 155499, 155975, 156498, 156996, 157493, 157985, 158486, 158981, 159486, 159931, 160433, 160917, 161376, 161917, 162435, 162840, 163325, 163799, 164292]","[153078, 153578, 154078, 154578, 155078, 155578, 156078, 156578, 157010, 157507, 157999, 158499, 158957, 159500, 159946, 160447, 160932, 161391, 161932, 162382, 162855, 163340, 163814, 164307]",83,OR,U,L,ITMSR,1.1,
2,500,practice,0,2,2,2,practice,"['S', 'S', 'S', 'S', 'S', 'S', 'C', 'C', 'C', 'C', 'C', 'C', 'C', 'C', 'C', 'C', 'C', 'C', 'C', 'C', 'C', 'C', 'C']","[170708, 171234, 171722, 172239, 172741, 173197, 173711, 174198, 174709, 175154, 175662, 176181, 176670, 177190, 177631, 178123, 178223, 178612, 179066, 179602, 180101, 180591, 181075]","[170816, 171324, 171821, 172329, 172836, 173310, 173813, 174306, 174795, 175252, 175767, 176265, 176765, 177290, 177747, 178143, 178243, 178714, 179172, 179682, 180188, 180611, 181095]","[16, 16, 79, 83, 161, 55, 199, 228, 236, 22, 12, 236, 239, 203, 245, 235, 32, 100, 167, 139, 146, 233, 138]","[170715, 171241, 171727, 172244, 172802, 173204, 173778, 174262, 174714, 175159, 175667, 176185, 176675, 177197, 177698, 178129, 178223, 178617, 179072, 179605, 180106, 180595, 181081]","[169800, 170300, 170800, 171300, 171800, 172300, 172801, 173300, 173731, 174218, 174729, 175174, 175682, 176201, 176690, 177210, 177651, 178143, 178632, 179086, 179622, 180121, 180611, 181095]",83,OR,U,L,ITMSR,1.1,
0,500,practice,0,3,3,3,practice,"['S', 'S', 'S', 'S', 'S', 'S', 'C', 'C', 'C', 'C', 'C', 'C', 'C', 'C', 'C', 'C', 'C', 'C', 'C', 'C', 'C', 'C']","[187561, 188039, 188525, 189024, 189537, 190018, 190541, 191047, 191561, 192030, 192585, 193081, 193565, 194068, 194532, 195051, 195569, 196014, 196561, 197020, 197542, 198008]","[187654, 188114, 188607, 189119, 189618, 190117, 190620, 191138, 191648, 192122, 192671, 193167, 193677, 194173, 194636, 195123, 195659, 196112, 196654, 197130, 197644, 198111]","[123, 17, 8, 48, 90, 45, 64, 26, 12, 128, 221, 40, 107, 121, 183, 131, 172, 191, 83, 147, 72, 184]","[187567, 188044, 188530, 189029, 189542, 190024, 190547, 191053, 191567, 192035, 192590, 193087, 193570, 194073, 194536, 195056, 195573, 196018, 196567, 197025, 197548, 198013]","[186583, 187082, 187582, 188082, 188582, 189082, 189582, 190082, 190561, 191067, 191581, 192050, 192605, 193101, 193585, 194088, 194552, 195072, 195589, 196034, 196581, 197040, 197562, 198028]",83,OR,U,L,ITMSR,1.1,
4,500,practice,0,4,4,4,practice,"['S', 'S', 'S', 'S', 'S', 'S', 'C', 'C', 'C', 'C', 'C', 'C', 'C', 'C', 'C', 'C', 'C', 'C', 'C', 'C', 'C', 'C', 'C']","[204647, 205169, 205645, 206170, 206698, 207177, 207677, 208163, 208627, 209167, 209673, 210138, 210597, 211128, 211633, 212078, 212592, 213074, 213567, 214078, 214510, 214611, 215065]","[204740, 205253, 205731, 206256, 206778, 207271, 207762, 208251, 208729, 209234, 209751, 210222, 210711, 211208, 211722, 212194, 212683, 213177, 213664, 214098, 214530, 214631, 215152]","[87, 67, 114, 31, 130, 83, 123, 119, 135, 58, 100, 96, 190, 161, 119, 215, 125, 107, 152, 96, 98, 98, 116]","[204653, 205174, 205650, 206174, 206703, 207182, 207682, 208167, 208632, 209172, 209679, 210143, 210603, 211132, 211638, 212158, 212597, 213079, 213572, 214083, 214514, 214611, 215069]","[203695, 204195, 204695, 205195, 205696, 206195, 206695, 207195, 207697, 208183, 208647, 209187, 209693, 210158, 210617, 211148, 211653, 212098, 212612, 213094, 213587, 214098, 214530, 215085]",83,OR,U,L,ITMSR,1.1,
1,500,practice,0,5,5,5,practice,"['S', 'S', 'S', 'S', 'S', 'S', 'C', 'C', 'C', 'C', 'C', 'C', 'C', 'C', 'C', 'C', 'C', 'C', 'C', 'C', 'C', 'C']","[221802, 222313, 222827, 223378, 223828, 224329, 224881, 225316, 225813, 226287, 226822, 227260, 227761, 228221, 228756, 229214, 229727, 230200, 230712, 231179, 231662, 232192]","[221901, 222426, 222927, 223464, 223917, 224424, 224961, 225411, 225904, 226368, 226905, 227363, 227867, 228324, 228840, 229330, 229818, 230309, 230732, 231199, 231682, 232212]","[14, 180, 140, 110, 177, 156, 247, 145, 81, 112, 253, 102, 66, 111, 68, 152, 43, 78, 102, 118, 149, 244]","[221809, 222318, 222832, 223383, 223833, 224334, 224887, 225320, 225818, 226291, 226828, 227266, 227767, 228228, 228761, 229219, 229731, 230205, 230715, 231184, 231666, 232197]","[220868, 221368, 221869, 222369, 222869, 223369, 223869, 224369, 224901, 225336, 225833, 226307, 226842, 227280, 227781, 228241, 228776, 229234, 229747, 230220, 230732, 231199, 231682, 232212]",83,OR,U,L,ITMSR,1.1,
5,400,trial,0,6,6,6,trial,"['S', 'S', 'S', 'S', 'S', 'S', 'S', 'C', 'C', 'C', 'C', 'C', 'C', 'C', 'C', 'C', 'C', 'C', 'C', 'C', 'C', 'C', 'C']","[288722, 289131, 289504, 289902, 290291, 290391, 290690, 291089, 291458, 291847, 292222, 292591, 292967, 293335, 293697, 294108, 294472, 294841, 295203, 295580, 295949, 296308, 296679]","[288830, 289230, 289623, 290013, 290311, 290411, 290710, 291195, 291478, 291867, 292242, 292611, 292987, 293355, 293796, 294128, 294492, 294861, 295223, 295600, 295969, 296328, 296699]","[87, 226, 248, 1, 238, 80, 45, 255, 204, 242, 239, 252, 213, 171, 187, 124, 214, 192, 143, 200, 179, 148, 74]","[288729, 289136, 289510, 289907, 290296, 290391, 290694, 291094, 291462, 291851, 292227, 292595, 292971, 293340, 293701, 294113, 294477, 294845, 295208, 295585, 295953, 296313, 296683]","[287948, 288348, 288748, 289148, 289548, 289948, 290349, 290749, 291109, 291478, 291867, 292242, 292611, 292987, 293355, 293718, 294128, 294492, 294861, 295223, 295600, 295969, 296328, 296699]",83,OR,U,L,ITMSR,1.1,
2,400,trial,0,7,7,7,trial,"['S', 'S', 'S', 'S', 'S', 'S', 'C', 'C', 'C', 'C', 'C', 'C', 'C', 'C', 'C', 'C', 'C', 'C', 'C', 'C', 'C', 'C', 'C']","[303037, 303396, 303801, 304199, 304582, 304961, 305375, 305750, 306156, 306537, 306925, 307309, 307676, 308056, 308439, 308539, 308826, 309200, 309570, 309949, 310341, 310748, 311123]","[303138, 303502, 303915, 304313, 304710, 305083, 305479, 305770, 306248, 306632, 307022, 307378, 307773, 308076, 308459, 308559, 308915, 309308, 309663, 310051, 310419, 310837, 311214]","[148, 180, 194, 197, 166, 195, 94, 80, 86, 137, 11, 89, 62, 73, 27, 53, 209, 59, 232, 245, 15, 22, 17]","[303043, 303401, 303807, 304204, 304587, 304966, 305381, 305755, 306161, 306542, 306929, 307313, 307681, 308060, 308444, 308539, 308831, 309206, 309575, 309954, 310346, 310753, 311129]","[302277, 302678, 303077, 303477, 303877, 304277, 304677, 305077, 305395, 305770, 306177, 306557, 306946, 307330, 307696, 308076, 308459, 308846, 309220, 309591, 309969, 310361, 310768, 311143]",83,OR,U,L,ITMSR,1.1,
4,400,trial,0,8,8,8,trial,"['S', 'S', 'S', 'S', 'S', 'S', 'S', 'S', 'C', 'C', 'C', 'C', 'C', 'C', 'C', 'C', 'C', 'C', 'C', 'C', 'C', 'C', 'C', 'C']","[316966, 317231, 317534, 317913, 318294, 318680, 319050, 319472, 319865, 320228, 320625, 320992, 321377, 321820, 322156, 322515, 322914, 323268, 323627, 324035, 324420, 324789, 325161, 325553]","[317059, 317308, 317612, 317975, 318370, 318750, 319148, 319548, 319949, 320299, 320703, 321074, 321457, 321888, 322255, 322598, 322979, 323366, 323647, 324056, 324440, 324809, 325181, 325573]","[194, 66, 121, 185, 229, 165, 155, 109, 194, 146, 170, 193, 171, 151, 165, 135, 161, 190, 187, 209, 236, 225, 187, 17]","[317026, 317236, 317540, 317917, 318298, 318684, 319054, 319478, 319869, 320233, 320629, 320996, 321381, 321824, 322161, 322521, 322918, 323272, 323631, 324039, 324424, 324792, 325166, 325557]","[316763, 317163, 317563, 317963, 318363, 318764, 319163, 319563, 319885, 320248, 320645, 321012, 321397, 321840, 322177, 322535, 322934, 323288, 323647, 324056, 324440, 324809, 325181, 325573]",83,OR,U,L,ITMSR,1.1,
1,400,trial,0,9,9,9,trial,"['S', 'S', 'S', 'S', 'S', 'S', 'C', 'C', 'C', 'C', 'C', 'C', 'C', 'C', 'C', 'C', 'C', 'C', 'C', 'C', 'C', 'C']","[331626, 332033, 332437, 332811, 333225, 333609, 333997, 334384, 334766, 335126, 335505, 335921, 336289, 336641, 337048, 337426, 337797, 338185, 338553, 338914, 339298, 339681]","[331720, 332116, 332517, 332906, 333315, 333629, 334094, 334404, 334786, 335147, 335525, 335941, 336309, 336661, 337069, 337446, 337817, 338205, 338646, 338934, 339320, 339701]","[57, 174, 168, 199, 173, 170, 200, 76, 137, 108, 127, 90, 133, 82, 123, 153, 151, 179, 187, 96, 193, 164]","[331631, 332037, 332441, 332816, 333230, 333614, 334002, 334388, 334770, 335130, 335509, 335925, 336293, 336646, 337052, 337431, 337801, 338189, 338557, 338919, 339302, 339685]","[330921, 331320, 331720, 332120, 332520, 332920, 333320, 333720, 334017, 334404, 334786, 335147, 335525, 335941, 336309, 336661, 337069, 337446, 337817, 338205, 338573, 338934, 339318, 339701]",83,OR,U,L,ITMSR,1.1,
2,600,trial,0,10,10,10,trial,"['S', 'S', 'S', 'S', 'S', 'S', 'C', 'C', 'C', 'C', 'C', 'C', 'C', 'C', 'C', 'C', 'C', 'C', 'C', 'C', 'C', 'C', 'C']","[346639, 347242, 347867, 348461, 349070, 349662, 350273, 350844, 351475, 352079, 352681, 353235, 353861, 354458, 355055, 355660, 355760, 356248, 356868, 357441, 358047, 358664, 359258]","[346663, 347325, 347887, 348481, 349090, 349682, 350294, 350864, 351495, 352099, 352701, 353335, 353881, 354478, 355075, 355680, 355780, 356269, 356959, 357462, 358067, 358684, 359365]","[250, 64, 84, 196, 133, 116, 112, 79, 133, 90, 79, 75, 23, 130, 143, 107, 109, 116, 129, 172, 156, 157, 193]","[346643, 347247, 347871, 348465, 349074, 349666, 350277, 350848, 351479, 352083, 352686, 353240, 353865, 354462, 355059, 355664, 355760, 356252, 356872, 357445, 358051, 358669, 359263]","[345481, 346081, 346681, 347281, 347881, 348481, 349081, 349681, 350294, 350864, 351495, 352099, 352701, 353255, 353881, 354478, 355075, 355680, 356269, 356888, 357462, 358067, 358684, 359278]",83,OR,U,L,ITMSR,1.1,
0,600,trial,0,11,11,11,trial,"['S', 'S', 'S', 'S', 'S', 'S', 'C', 'C', 'C', 'C', 'C', 'C', 'C', 'C', 'C', 'C', 'C', 'C', 'C', 'C', 'C', 'C', 'C', 'C', 'C', 'C']","[366147, 366760, 367366, 367995, 368579, 369209, 369813, 370402, 370990, 371604, 372208, 372785, 372885, 373395, 373988, 374626, 375150, 375251, 375750, 375852, 376330, 376887, 376987, 377520, 378114, 378661]","[366246, 366832, 367420, 368015, 368647, 369287, 369881, 370481, 371010, 371624, 372228, 372805, 372905, 373415, 374008, 374717, 375170, 375287, 375770, 375872, 376350, 376907, 377007, 377540, 378205, 378784]","[95, 117, 148, 154, 153, 48, 80, 87, 96, 229, 75, 153, 228, 114, 5, 176, 156, 223, 178, 235, 108, 105, 0, 43, 252, 28]","[366152, 366765, 367370, 368002, 368584, 369215, 369818, 370407, 370995, 371608, 372212, 372791, 372885, 373399, 373992, 374631, 375154, 375251, 375754, 375853, 376334, 376890, 376987, 377525, 378118, 378667]","[365001, 365601, 366201, 366801, 367401, 368002, 368602, 369202, 369833, 370422, 371010, 371624, 372228, 372805, 373415, 374008, 374646, 375170, 375770, 376350, 376907, 377540, 378134, 378681]",83,OR,U,L,ITMSR,1.1,
1,600,trial,0,12,12,12,trial,"['S', 'S', 'S', 'S', 'S', 'S', 'C', 'C', 'C', 'C', 'C', 'C', 'C', 'C', 'C', 'C', 'C', 'C', 'C', 'C', 'C', 'C']","[385221, 385800, 386410, 387004, 387611, 388202, 388786, 389399, 389990, 390569, 391163, 391769, 392338, 392924, 393502, 394095, 394726, 395280, 395862, 396460, 397011, 397558]","[385303, 385890, 386477, 387096, 387709, 388296, 388874, 389479, 390010, 390589, 391250, 391844, 392425, 393019, 393522, 394115, 394746, 395300, 395882, 396535, 397086, 397578]","[47, 175, 134, 195, 219, 33, 12, 73, 112, 145, 93, 129, 191, 111, 168, 72, 14, 173, 73, 161, 229, 59]","[385227, 385804, 386414, 387009, 387615, 388208, 388792, 389404, 389995, 390574, 391169, 391773, 392343, 392928, 393506, 394100, 394731, 395284, 395867, 396465, 397017, 397563]","[384059, 384659, 385259, 385859, 386459, 387059, 387659, 388259, 388806, 389420, 390010, 390589, 391183, 391789, 392358, 392944, 393522, 394115, 394746, 395300, 395882, 396480, 397031, 397578]",83,OR,U,L,ITMSR,1.1,
1,400,trial,0,13,13,13,trial,"['S', 'S', 'S', 'S', 'S', 'S', 'C', 'C', 'C', 'C', 'C', 'C', 'C', 'C', 'C', 'C', 'C', 'C', 'C', 'C', 'C', 'C']","[404203, 404544, 404924, 405284, 405700, 406069, 406457, 406844, 407237, 407615, 407998, 408390, 408770, 409142, 409558, 409930, 410318, 410678, 411067, 411445, 411729, 412115]","[404251, 404612, 404974, 405342, 405774, 406133, 406530, 406904, 407322, 407681, 408083, 408410, 408791, 409162, 409578, 409950, 410338, 410698, 411087, 411465, 411846, 412135]","[115, 234, 192, 218, 216, 188, 186, 131, 160, 150, 183, 151, 222, 184, 132, 199, 130, 150, 154, 92, 79, 187]","[404208, 404548, 404928, 405288, 405705, 406073, 406461, 406849, 407241, 407619, 408003, 408394, 408774, 409146, 409563, 409934, 410322, 410682, 411071, 411450, 411735, 412120]","[403323, 403723, 404123, 404524, 404923, 405323, 405723, 406123, 406477, 406864, 407257, 407635, 408018, 408410, 408791, 409162, 409578, 409950, 410338, 410698, 411087, 411465, 411749, 412135]",83,OR,U,L,ITMSR,1.1,
0,400,trial,0,14,14,14,trial,"['S', 'S', 'S', 'S', 'S', 'S', 'S', 'C', 'C', 'C', 'C', 'C', 'C', 'C', 'C', 'C', 'C', 'C', 'C', 'C', 'C', 'C', 'C']","[418009, 418349, 418703, 419059, 419477, 419861, 420248, 420635, 421032, 421400, 421784, 422182, 422572, 422960, 423325, 423706, 424088, 424450, 424843, 425232, 425593, 425970, 426344]","[418080, 418406, 418769, 419079, 419497, 419881, 420268, 420655, 421052, 421421, 421805, 422202, 422592, 422980, 423345, 423726, 424109, 424470, 424863, 425252, 425692, 425990, 426364]","[105, 143, 149, 144, 95, 119, 160, 213, 133, 170, 91, 139, 158, 107, 180, 186, 148, 160, 152, 136, 122, 126, 143]","[418013, 418353, 418707, 419064, 419481, 419866, 420252, 420639, 421037, 421405, 421788, 422187, 422576, 422964, 423328, 423711, 424092, 424454, 424848, 425236, 425598, 425974, 426348]","[417485, 417885, 418285, 418685, 419085, 419485, 419885, 420285, 420655, 421052, 421421, 421805, 422202, 422592, 422980, 423345, 423726, 424109, 424470, 424863, 425252, 425613, 425990, 426364]",83,OR,U,L,ITMSR,1.1,
3,400,trial,0,15,15,15,trial,"['S', 'S', 'S', 'S', 'S', 'S', 'S', 'C', 'C', 'C', 'C', 'C', 'C', 'C', 'C', 'C', 'C', 'C', 'C', 'C', 'C', 'C', 'C']","[432364, 432754, 433135, 433555, 433935, 434350, 434751, 435133, 435507, 435912, 436292, 436670, 437058, 437453, 437818, 438225, 438590, 438982, 439357, 439771, 440145, 440516, 440899]","[432384, 432832, 433213, 433610, 434025, 434416, 434829, 435215, 435527, 435932, 436312, 436690, 437079, 437473, 437838, 438245, 438610, 439002, 439438, 439791, 440165, 440536, 440920]","[92, 185, 219, 101, 190, 163, 144, 215, 82, 166, 183, 186, 160, 184, 138, 33, 30, 49, 149, 238, 146, 147, 117]","[432369, 432759, 433139, 433560, 433940, 434354, 434755, 435137, 435512, 435918, 436297, 436675, 437063, 437457, 437822, 438230, 438595, 438986, 439361, 439775, 440151, 440520, 440904]","[432028, 432429, 432829, 433229, 433629, 434029, 434429, 434829, 435153, 435527, 435932, 436312, 436690, 437079, 437473, 437838, 438245, 438610, 439002, 439377, 439791, 440165, 440536, 440920]",83,OR,U,L,ITMSR,1.1,
4,600,trial,0,16,16,16,trial,"['S', 'S', 'S', 'S', 'S', 'S', 'S', 'S', 'C', 'C', 'C', 'C', 'C', 'C', 'C', 'C', 'C', 'C', 'C', 'C', 'C', 'C', 'C', 'C']","[446502, 446751, 447436, 448018, 448658, 449272, 449813, 450414, 451009, 451596, 452195, 452810, 453355, 453936, 454560, 455133, 455724, 456317, 456884, 457499, 458115, 458708, 459337, 459906]","[446582, 446872, 447513, 448095, 448719, 449292, 449882, 450493, 451080, 451665, 452215, 452830, 453444, 453956, 454580, 455221, 455822, 456337, 456991, 457519, 458198, 458793, 459357, 459975]","[60, 241, 153, 34, 5, 235, 241, 211, 200, 196, 247, 143, 219, 239, 200, 216, 95, 118, 152, 29, 82, 209, 229, 200]","[446563, 446756, 447441, 448021, 448662, 449277, 449818, 450418, 451014, 451600, 452199, 452814, 453359, 453940, 454564, 455137, 455728, 456322, 456960, 457504, 458118, 458713, 459341, 459909]","[446291, 446891, 447490, 448090, 448690, 449290, 449890, 450490, 451030, 451616, 452215, 452830, 453376, 453956, 454580, 455153, 455744, 456337, 456904, 457519, 458135, 458728, 459357, 459926]",83,OR,U,L,ITMSR,1.1,
2,400,trial,0,17,17,17,trial,"['S', 'S', 'S', 'S', 'S', 'C', 'C', 'C', 'C', 'C', 'C', 'C', 'C', 'C', 'C', 'C', 'C', 'C', 'C', 'C', 'C']","[466564, 467009, 467383, 467772, 468155, 468554, 468971, 469356, 469739, 470126, 470507, 470889, 471258, 471653, 472028, 472424, 472810, 473213, 473586, 473993, 474364]","[466644, 467078, 467469, 467842, 468264, 468671, 469068, 469467, 469830, 470223, 470595, 470980, 471342, 471744, 472114, 472515, 472905, 473233, 473692, 474096, 474452]","[232, 150, 250, 175, 24, 30, 171, 237, 170, 223, 183, 184, 107, 195, 174, 136, 156, 36, 149, 119, 229]","[466568, 467013, 467387, 467776, 468159, 468558, 468976, 469360, 469743, 470130, 470511, 470892, 471261, 471657, 472032, 472427, 472814, 473218, 473590, 473996, 474368]","[465417, 465817, 466217, 466617, 467017, 467417, 467817, 468217, 468574, 468992, 469377, 469760, 470146, 470528, 470909, 471278, 471673, 472048, 472444, 472830, 473233, 473606, 474013, 474384]",83,OR,U,L,ITMSR,1.1,
3,400,trial,0,18,18,18,trial,"['S', 'S', 'S', 'S', 'S', 'S', 'C', 'C', 'C', 'C', 'C', 'C', 'C', 'C', 'C', 'C', 'C', 'C', 'C', 'C', 'C', 'C']","[480870, 481305, 481697, 482106, 482489, 482887, 483277, 483679, 484057, 484443, 484855, 485238, 485641, 486014, 486439, 486812, 487200, 487617, 487960, 488359, 488744, 489111]","[480968, 481388, 481794, 482193, 482593, 482985, 483376, 483701, 484172, 484463, 484957, 485340, 485734, 486114, 486535, 486918, 487300, 487715, 488057, 488379, 488838, 489195]","[233, 3, 26, 249, 20, 32, 7, 229, 194, 175, 210, 146, 173, 179, 122, 138, 76, 176, 192, 90, 132, 204]","[480874, 481310, 481701, 482111, 482493, 482891, 483281, 483683, 484061, 484448, 484859, 485241, 485645, 486019, 486444, 486816, 487204, 487620, 487964, 488363, 488749, 489115]","[480121, 480521, 480921, 481321, 481721, 482121, 482521, 482921, 483297, 483699, 484077, 484463, 484875, 485258, 485661, 486034, 486459, 486832, 487220, 487638, 487981, 488379, 488764, 489132]",83,OR,U,L,ITMSR,1.1,
5,600,trial,0,19,19,19,trial,"['S', 'S', 'S', 'S', 'S', 'S', 'S', 'C', 'C', 'C', 'C', 'C', 'C', 'C', 'C', 'C', 'C', 'C', 'C', 'C', 'C', 'C', 'C']","[495204, 495934, 496551, 497168, 497798, 498386, 498996, 499565, 500151, 500734, 501313, 501872, 502473, 503046, 503645, 504201, 504796, 505379, 505967, 506577, 507091, 507694, 508253]","[495271, 496009, 496615, 497239, 497859, 498406, 499016, 499667, 500227, 500816, 501397, 501974, 502552, 503151, 503744, 504323, 504909, 505484, 505987, 506597, 507211, 507785, 508347]","[166, 15, 244, 231, 199, 121, 218, 160, 98, 62, 179, 175, 156, 189, 235, 14, 229, 16, 87, 36, 239, 1, 250]","[495209, 495938, 496556, 497172, 497802, 498391, 498999, 499569, 500155, 500739, 501317, 501876, 502477, 503050, 503650, 504205, 504800, 505382, 505970, 506580, 507164, 507697, 508257]","[494830, 495429, 496029, 496629, 497229, 497829, 498429, 499030, 499586, 500171, 500754, 501334, 501892, 502493, 503066, 503665, 504221, 504816, 505399, 505987, 506597, 507111, 507714, 508273]",83,OR,U,L,ITMSR,1.1,
4,400,trial,0,20,20,20,trial,"['S', 'S', 'S', 'S', 'S', 'S', 'S', 'C', 'C', 'C', 'C', 'C', 'C', 'C', 'C', 'C', 'C', 'C', 'C', 'C', 'C', 'C', 'C', 'C']","[514424, 514779, 515160, 515568, 515943, 516332, 516737, 517142, 517518, 517904, 518250, 518616, 519029, 519419, 519810, 520222, 520584, 520684, 521004, 521366, 521731, 522132, 522541, 522899]","[514504, 514869, 515247, 515644, 515963, 516436, 516822, 517244, 517609, 517989, 518344, 518705, 519053, 519515, 519895, 520309, 520604, 520704, 521024, 521453, 521836, 522152, 522626, 523017]","[89, 14, 16, 249, 214, 50, 235, 33, 242, 245, 11, 234, 238, 14, 222, 197, 249, 73, 82, 233, 216, 156, 137, 220]","[514430, 514783, 515165, 515573, 515947, 516337, 516741, 517147, 517523, 517907, 518254, 518620, 519034, 519422, 519814, 520226, 520589, 520684, 521010, 521370, 521736, 522136, 522545, 522902]","[513991, 514392, 514792, 515192, 515592, 515992, 516392, 516792, 517163, 517538, 517924, 518270, 518636, 519049, 519439, 519830, 520242, 520604, 521024, 521387, 521751, 522152, 522561, 522919]",83,OR,U,L,ITMSR,1.1,
5,600,trial,0,21,21,21,trial,"['S', 'S', 'S', 'S', 'S', 'S', 'S', 'C', 'C', 'C', 'C', 'C', 'C', 'C', 'C', 'C', 'C', 'C', 'C', 'C', 'C', 'C', 'C']","[528718, 529417, 530036, 530670, 531293, 531914, 532495, 533115, 533660, 534251, 534825, 535407, 535959, 536560, 537093, 537677, 538278, 538793, 539339, 539885, 540436, 541014, 541563]","[528816, 529517, 530126, 530737, 531380, 531994, 532593, 533196, 533680, 534272, 534846, 535427, 535980, 536580, 537168, 537697, 538298, 538900, 539438, 540009, 540554, 541106, 541643]","[61, 12, 40, 146, 245, 243, 175, 163, 135, 51, 43, 53, 86, 97, 151, 36, 141, 243, 227, 185, 15, 248, 219]","[528723, 529421, 530040, 530675, 531297, 531918, 532499, 533121, 533663, 534254, 534830, 535410, 535962, 536566, 537097, 537681, 538281, 538799, 539343, 539891, 540441, 541018, 541568]","[528366, 528966, 529566, 530166, 530766, 531366, 531966, 532567, 533135, 533680, 534272, 534845, 535427, 535980, 536580, 537113, 537697, 538298, 538813, 539359, 539906, 540456, 541034, 541583]",83,OR,U,L,ITMSR,1.1,
3,600,trial,0,22,22,22,trial,"['S', 'S', 'S', 'S', 'S', 'S', 'S', 'C', 'C', 'C', 'C', 'C', 'C', 'C', 'C', 'C', 'C', 'C', 'C', 'C', 'C', 'C', 'C', 'C']","[547851, 548512, 549123, 549675, 550234, 550870, 551473, 552104, 552674, 553205, 553763, 554366, 554956, 555539, 556108, 556689, 557259, 557359, 557858, 558424, 558972, 559468, 560020, 560569]","[547948, 548588, 549176, 549756, 550299, 550946, 551547, 552207, 552771, 553300, 553867, 554468, 555069, 555657, 556223, 556810, 557279, 557379, 557878, 558444, 558992, 559563, 560123, 560649]","[205, 224, 156, 239, 214, 10, 225, 20, 208, 232, 185, 166, 102, 186, 189, 34, 111, 27, 212, 65, 97, 15, 114, 171]","[547855, 548516, 549128, 549679, 550238, 550874, 551477, 552109, 552678, 553209, 553768, 554372, 554960, 555543, 556112, 556769, 557265, 557359, 557863, 558429, 558980, 559475, 560024, 560574]","[547379, 547979, 548579, 549179, 549779, 550379, 550979, 551579, 552124, 552694, 553225, 553783, 554386, 554976, 555559, 556128, 556709, 557279, 557878, 558444, 558992, 559489, 560040, 560589]",83,OR,U,L,ITMSR,1.1,
1,600,trial,0,23,23,23,trial,"['S', 'S', 'S', 'S', 'S', 'S', 'S', 'C', 'C', 'C', 'C', 'C', 'C', 'C', 'C', 'C', 'C', 'C', 'C', 'C', 'C', 'C', 'C', 'C', 'C', 'C', 'C']","[566648, 567250, 567858, 568470, 569079, 569652, 570236, 570813, 570915, 571366, 571960, 572510, 573038, 573586, 574127, 574665, 575218, 575318, 575774, 575874, 576356, 576881, 577393, 577495, 577924, 578519, 579083]","[566728, 567357, 567946, 568560, 569158, 569752, 570258, 570834, 570935, 571472, 571980, 572530, 573058, 573688, 574147, 574685, 575238, 575338, 575794, 575894, 576377, 576904, 577413, 577515, 578050, 578622, 579190]","[171, 186, 203, 148, 207, 205, 26, 65, 106, 69, 168, 111, 218, 143, 48, 56, 199, 230, 77, 104, 23, 225, 155, 106, 228, 194, 236]","[566652, 567257, 567863, 568474, 569083, 569656, 570241, 570817, 570915, 571371, 571965, 572515, 573043, 573590, 574131, 574669, 575223, 575318, 575778, 575874, 576359, 576885, 577398, 577495, 577929, 578523, 579088]","[566163, 566763, 567363, 567963, 568563, 569163, 569763, 570363, 570833, 571386, 571980, 572530, 573058, 573606, 574147, 574685, 575238, 575794, 576376, 576901, 577413, 577944, 578539, 579103]",83,OR,U,L,ITMSR,1.1,
5,400,trial,0,24,24,24,trial,"['C', 'C', 'C', 'C', 'C', 'C', 'C', 'C', 'C', 'C', 'C', 'C', 'C', 'C', 'C', 'C', 'C']","[587747, 588162, 588579, 588981, 589376, 589767, 590166, 590548, 590963, 591351, 591722, 592130, 592538, 592920, 593310, 593410, 593698]","[587835, 588234, 588660, 589062, 589452, 589854, 590257, 590640, 591069, 591449, 591816, 592241, 592647, 593029, 593330, 593430, 593798]","[55, 10, 254, 46, 249, 254, 4, 232, 208, 200, 233, 196, 195, 43, 17, 68, 84]","[587751, 588166, 588583, 588985, 589380, 589771, 590170, 590553, 590967, 591355, 591725, 592134, 592543, 592923, 593314, 593410, 593700]","[584584, 584984, 585384, 585784, 586184, 586584, 586984, 587384, 587767, 588182, 588599, 589001, 589396, 589787, 590186, 590568, 590983, 591371, 591742, 592150, 592558, 592941, 593330, 593718]",83,OR,U,L,ITMSR,1.1,
0,400,trial,0,25,25,25,trial,"['S', 'S', 'S', 'S', 'S', 'S', 'S', 'C', 'C', 'C', 'C', 'C', 'C', 'C', 'C', 'C', 'C', 'C', 'C', 'C', 'C', 'C', 'C']","[599831, 600213, 600633, 600998, 601404, 601771, 602156, 602615, 602969, 603376, 603773, 604141, 604534, 604926, 605309, 605697, 606093, 606447, 606840, 607220, 607612, 607980, 608363]","[599923, 600285, 600653, 601064, 601454, 601858, 602245, 602695, 603065, 603466, 603856, 604227, 604621, 605005, 605409, 605771, 606113, 606531, 606932, 607297, 607695, 608062, 608436]","[159, 239, 187, 51, 217, 37, 65, 21, 244, 240, 3, 217, 226, 201, 225, 241, 202, 123, 56, 173, 163, 35, 199]","[599836, 600217, 600637, 601003, 601408, 601775, 602159, 602618, 602973, 603380, 603778, 604146, 604538, 604931, 605314, 605701, 606097, 606451, 606844, 607225, 607617, 607984, 608367]","[599449, 599848, 600248, 600648, 601048, 601448, 601848, 602248, 602635, 602989, 603396, 603793, 604162, 604554, 604946, 605329, 605717, 606113, 606467, 606860, 607240, 607632, 608001, 608384]",83,OR,U,L,ITMSR,1.1,
2,600,trial,0,26,26,26,trial,"['S', 'S', 'S', 'S', 'S', 'S', 'S', 'C', 'C', 'C', 'C', 'C', 'C', 'C', 'C', 'C', 'C', 'C', 'C', 'C', 'C', 'C', 'C', 'C']","[614345, 615123, 615744, 616372, 616974, 617597, 618220, 618777, 619312, 619880, 620425, 620989, 621521, 622068, 622573, 623148, 623694, 624258, 624823, 625372, 625894, 626441, 626977, 627077]","[614365, 615227, 615764, 616392, 617065, 617706, 618240, 618882, 619393, 619900, 620445, 621059, 621604, 622137, 622658, 623232, 623782, 624278, 624917, 625463, 625914, 626461, 626997, 627097]","[85, 5, 220, 229, 248, 108, 103, 170, 203, 198, 11, 152, 227, 137, 206, 188, 8, 168, 21, 245, 242, 70, 35, 146]","[614349, 615128, 615748, 616376, 616978, 617669, 618225, 618782, 619317, 619884, 620429, 620994, 621526, 622073, 622577, 623152, 623698, 624263, 624827, 625376, 625899, 626445, 626981, 627077]","[614100, 614700, 615299, 615899, 616499, 617099, 617699, 618299, 618797, 619332, 619900, 620445, 621009, 621541, 622088, 622594, 623168, 623714, 624278, 624843, 625392, 625914, 626461, 626997]",83,OR,U,L,ITMSR,1.1,
0,600,trial,0,27,27,27,trial,"['S', 'S', 'S', 'S', 'S', 'S', 'S', 'S', 'C', 'C', 'C', 'C', 'C', 'C', 'C', 'C', 'C', 'C', 'C', 'C', 'C', 'C', 'C', 'C', 'C']","[632812, 633151, 633670, 634275, 634852, 635458, 636035, 636608, 637179, 637701, 638254, 638873, 639447, 640005, 640624, 641156, 641688, 642211, 642766, 642866, 643283, 643883, 644417, 644976, 645492]","[632860, 633249, 633745, 634339, 634943, 635560, 636055, 636704, 637292, 637815, 638343, 638946, 639531, 640058, 640684, 641256, 641771, 642291, 642786, 642886, 643367, 643974, 644520, 645073, 645624]","[99, 0, 27, 219, 16, 158, 221, 204, 211, 200, 87, 165, 156, 186, 74, 127, 209, 126, 247, 135, 79, 154, 64, 127, 228]","[632816, 633156, 633674, 634279, 634856, 635462, 636039, 636613, 637184, 637705, 638259, 638878, 639452, 640009, 640630, 641161, 641693, 642216, 642771, 642866, 643290, 643888, 644422, 644982, 645496]","[632539, 633139, 633739, 634339, 634939, 635539, 636139, 636739, 637199, 637721, 638274, 638893, 639467, 640025, 640644, 641176, 641709, 642231, 642786, 643303, 643903, 644438, 644996, 645512]",83,OR,U,L,ITMSR,1.1,
4,600,trial,0,28,28,28,trial,"['S', 'S', 'S', 'S', 'S', 'S', 'S', 'C', 'C', 'C', 'C', 'C', 'C', 'C', 'C', 'C', 'C', 'C', 'C', 'C', 'C', 'C', 'C']","[651590, 652236, 652867, 653438, 654040, 654649, 655168, 655748, 656334, 656874, 657430, 658025, 658608, 659191, 659747, 660288, 660850, 661421, 661976, 662562, 663145, 663673, 664283]","[651789, 652360, 652979, 653540, 654117, 654742, 655285, 655865, 656454, 656978, 657545, 658114, 658693, 659265, 659828, 660308, 660870, 661515, 661996, 662668, 663228, 663786, 664359]","[117, 20, 184, 208, 189, 199, 205, 237, 187, 206, 79, 157, 10, 176, 247, 132, 237, 241, 175, 223, 93, 24, 249]","[651711, 652240, 652872, 653444, 654044, 654654, 655172, 655752, 656340, 656879, 657436, 658030, 658612, 659195, 659751, 660292, 660854, 661424, 661980, 662567, 663150, 663677, 664287]","[651116, 651716, 652316, 652916, 653516, 654116, 654716, 655316, 655768, 656354, 656894, 657451, 658045, 658628, 659211, 659767, 660308, 660870, 661441, 661996, 662582, 663165, 663693, 664303]",83,OR,U,L,ITMSR,1.1,
3,600,trial,0,29,29,29,trial,"['S', 'S', 'S', 'S', 'S', 'S', 'S', 'S', 'C', 'C', 'C', 'C', 'C', 'C', 'C', 'C', 'C', 'C', 'C', 'C', 'C', 'C', 'C', 'C']","[670101, 670419, 670991, 671509, 672132, 672720, 673336, 673932, 674577, 675149, 675728, 676288, 676912, 677434, 677974, 678519, 679095, 679694, 680228, 680788, 681357, 681851, 682482, 683011]","[670152, 670567, 671089, 671644, 672245, 672848, 673465, 674049, 674680, 675256, 675830, 676390, 676997, 677551, 678107, 678694, 679267, 679831, 680370, 680934, 681455, 681872, 682558, 683091]","[178, 12, 213, 242, 174, 17, 213, 190, 173, 167, 179, 176, 173, 198, 247, 248, 49, 17, 243, 228, 227, 75, 91, 34]","[670105, 670425, 670995, 671513, 672137, 672726, 673341, 673937, 674582, 675154, 675732, 676293, 676917, 677439, 677979, 678523, 679100, 679698, 680325, 680794, 681361, 681858, 682488, 683015]","[669824, 670424, 671024, 671624, 672224, 672824, 673424, 674024, 674597, 675169, 675748, 676308, 676932, 677454, 677994, 678539, 679115, 679714, 680248, 680808, 681377, 681871, 682502, 683031]",83,OR,U,L,ITMSR,1.1,
5,600,trial,0,30,30,30,trial,"['S', 'S', 'S', 'S', 'S', 'S', 'S', 'C', 'C', 'C', 'C', 'C', 'C', 'C', 'C', 'C', 'C', 'C', 'C', 'C', 'C', 'C', 'C']","[744084, 744708, 745299, 745928, 746474, 747099, 747723, 748361, 748895, 749461, 750019, 750561, 751113, 751693, 752202, 752782, 753314, 753879, 754386, 754923, 755475, 756013, 756585]","[744164, 744763, 745384, 746007, 746580, 747186, 747826, 748469, 749022, 749560, 750123, 750663, 751201, 751801, 752289, 752859, 753385, 753936, 754462, 754974, 755536, 756086, 756682]","[210, 28, 245, 237, 11, 36, 56, 239, 218, 247, 26, 194, 27, 51, 7, 101, 169, 126, 213, 77, 0, 6, 239]","[744088, 744713, 745305, 745932, 746479, 747104, 747727, 748365, 748900, 749465, 750023, 750565, 751118, 751766, 752206, 752786, 753320, 753884, 754391, 754928, 755481, 756018, 756594]","[743605, 744204, 744804, 745404, 746004, 746604, 747204, 747804, 748381, 748915, 749481, 750040, 750581, 751133, 751713, 752222, 752802, 753334, 753899, 754406, 754944, 755495, 756033, 756605]",83,OR,U,L,ITMSR,1.1,
2,600,trial,0,31,31,31,trial,"['S', 'S', 'S', 'S', 'S', 'S', 'S', 'C', 'C', 'C', 'C', 'C', 'C', 'C', 'C', 'C', 'C', 'C', 'C', 'C', 'C', 'C', 'C']","[762827, 763445, 764025, 764633, 765207, 765797, 766430, 766994, 767576, 768160, 768711, 769294, 769840, 770438, 770997, 771559, 772125, 772684, 773218, 773778, 774337, 774927, 775482]","[762934, 763563, 764094, 764749, 765346, 765934, 766619, 767155, 767690, 768247, 768806, 769382, 769949, 770527, 771089, 771658, 772196, 772757, 773304, 773853, 774443, 775032, 775611]","[156, 149, 109, 167, 195, 198, 191, 140, 165, 143, 122, 221, 230, 175, 192, 76, 137, 40, 192, 222, 206, 187, 250]","[762832, 763450, 764029, 764639, 765211, 765803, 766434, 766999, 767650, 768166, 768716, 769299, 769845, 770442, 771001, 771564, 772130, 772689, 773223, 773783, 774342, 774932, 775486]","[762327, 762926, 763526, 764126, 764726, 765326, 765926, 766526, 767014, 767596, 768180, 768731, 769314, 769860, 770458, 771017, 771579, 772145, 772704, 773238, 773798, 774358, 774947, 775502]",83,OR,U,L,ITMSR,1.1,
3,400,trial,0,32,32,32,trial,"['S', 'S', 'S', 'S', 'S', 'S', 'S', 'S', 'C', 'C', 'C', 'C', 'C', 'C', 'C', 'C', 'C', 'C', 'C', 'C', 'C', 'C', 'C', 'C']","[781094, 781419, 781659, 781978, 782384, 782768, 783181, 783586, 783993, 784382, 784763, 785149, 785538, 785902, 786277, 786689, 787068, 787464, 787837, 788208, 788593, 788925, 789377, 789761]","[781114, 781490, 781732, 782054, 782479, 782862, 783201, 783606, 784013, 784402, 784783, 785214, 785558, 785922, 786353, 786709, 787153, 787524, 787857, 788257, 788654, 788945, 789416, 789820]","[227, 132, 255, 35, 80, 12, 153, 218, 158, 181, 197, 239, 161, 193, 24, 236, 7, 35, 241, 247, 215, 167, 46, 2]","[781099, 781425, 781664, 781983, 782387, 782773, 783185, 783591, 783998, 784389, 784768, 785155, 785542, 785908, 786282, 786694, 787072, 787468, 787842, 788212, 788596, 788929, 789385, 789765]","[780849, 781249, 781649, 782049, 782449, 782850, 783250, 783650, 784013, 784402, 784783, 785169, 785558, 785922, 786297, 786709, 787088, 787484, 787857, 788228, 788613, 788945, 789397, 789781]",83,OR,U,L,ITMSR,1.1,
5,400,trial,0,33,33,33,trial,"['S', 'S', 'S', 'S', 'S', 'S', 'S', 'C', 'C', 'C', 'C', 'C', 'C', 'C', 'C', 'C', 'C', 'C', 'C', 'C', 'C', 'C', 'C']","[795925, 796208, 796562, 796959, 797319, 797739, 798117, 798516, 798907, 799318, 799714, 800101, 800478, 800872, 801256, 801644, 802018, 802437, 802822, 803211, 803598, 803973, 804368]","[795965, 796301, 796582, 797019, 797421, 797834, 798225, 798536, 798998, 799420, 799794, 800203, 800569, 800974, 801337, 801723, 802038, 802511, 802900, 803280, 803654, 804052, 804450]","[58, 21, 18, 152, 193, 171, 242, 206, 222, 210, 216, 225, 248, 225, 222, 202, 175, 219, 197, 182, 209, 191, 249]","[795930, 796211, 796566, 796963, 797324, 797743, 798121, 798520, 798910, 799323, 799718, 800106, 800483, 800875, 801260, 801650, 802022, 802442, 802827, 803215, 803602, 803978, 804372]","[795382, 795782, 796182, 796582, 796982, 797382, 797783, 798182, 798536, 798927, 799338, 799734, 800121, 800498, 800892, 801276, 801665, 802038, 802457, 802842, 803231, 803618, 803993, 804388]",83,OR,U,L,ITMSR,1.1,
4,600,trial,0,34,34,34,trial,"['S', 'S', 'S', 'S', 'S', 'S', 'S', 'S', 'C', 'C', 'C', 'C', 'C', 'C', 'C', 'C', 'C', 'C', 'C', 'C', 'C', 'C', 'C', 'C', 'C', 'C', 'C']","[810418, 810646, 811264, 811841, 812477, 813087, 813669, 814288, 814898, 815450, 816024, 816578, 817230, 817770, 817870, 818341, 818921, 819472, 819572, 820038, 820586, 821132, 821724, 822234, 822740, 823269, 823369]","[810438, 810767, 811336, 811862, 812563, 813107, 813742, 814340, 814918, 815518, 816116, 816678, 817321, 817790, 817890, 818437, 819031, 819492, 819592, 820058, 820710, 821235, 821815, 822334, 822860, 823289, 823389]","[221, 199, 221, 182, 17, 247, 3, 10, 186, 182, 242, 233, 213, 164, 40, 7, 2, 232, 51, 205, 139, 99, 133, 195, 236, 246, 239]","[810424, 810651, 811268, 811846, 812481, 813092, 813674, 814292, 814902, 815454, 816028, 816582, 817235, 817774, 817870, 818345, 818979, 819476, 819572, 820043, 820590, 821137, 821728, 822238, 822745, 823273, 823369]","[810155, 810754, 811354, 811954, 812554, 813154, 813754, 814354, 814918, 815470, 816045, 816599, 817250, 817790, 818361, 818941, 819492, 820058, 820606, 821152, 821744, 822254, 822760, 823289]",83,OR,U,L,ITMSR,1.1,
4,400,trial,0,35,35,35,trial,"['S', 'S', 'S', 'S', 'S', 'S', 'S', 'C', 'C', 'C', 'C', 'C', 'C', 'C', 'C', 'C', 'C', 'C', 'C', 'C', 'C', 'C', 'C']","[829187, 829463, 829767, 830189, 830595, 830995, 831415, 831869, 832271, 832646, 833059, 833454, 833851, 834234, 834641, 835037, 835411, 835788, 836250, 836641, 836997, 837415, 837804]","[829207, 829533, 829856, 830209, 830615, 831100, 831435, 831953, 832369, 832699, 833079, 833474, 833871, 834254, 834661, 835100, 835431, 835808, 836318, 836724, 837017, 837435, 837824]","[158, 173, 252, 17, 255, 200, 73, 202, 11, 203, 180, 130, 65, 57, 128, 145, 50, 152, 124, 124, 153, 187, 240]","[829190, 829468, 829771, 830192, 830599, 831000, 831422, 831875, 832342, 832650, 833063, 833458, 833855, 834238, 834646, 835041, 835417, 835792, 836255, 836646, 837000, 837420, 837808]","[828690, 829090, 829490, 829890, 830290, 830690, 831090, 831490, 831889, 832291, 832666, 833079, 833474, 833871, 834254, 834661, 835057, 835431, 835808, 836270, 836661, 837017, 837435, 837824]",83,OR,U,L,ITMSR,1.1,
3,600,trial,0,36,36,36,trial,"['S', 'S', 'S', 'S', 'S', 'S', 'S', 'C', 'C', 'C', 'C', 'C', 'C', 'C', 'C', 'C', 'C', 'C', 'C', 'C', 'C', 'C', 'C', 'C', 'C', 'C']","[843637, 844258, 844906, 845475, 846041, 846676, 847285, 847891, 847991, 848477, 849078, 849660, 850207, 850788, 851350, 851915, 852468, 853023, 853587, 853687, 854194, 854722, 854824, 855266, 855838, 856364]","[843721, 844344, 844981, 845495, 846140, 846696, 847305, 847911, 848011, 848571, 849098, 849680, 850227, 850808, 851371, 851935, 852488, 853043, 853607, 853707, 854300, 854743, 854849, 855396, 855963, 856489]","[225, 233, 124, 132, 134, 35, 121, 56, 117, 33, 52, 13, 155, 121, 76, 217, 37, 169, 242, 138, 218, 59, 11, 140, 102, 21]","[843640, 844261, 844911, 845479, 846046, 846682, 847289, 847895, 847991, 848482, 849082, 849666, 850212, 850792, 851355, 851920, 852473, 853026, 853594, 853692, 854199, 854726, 854824, 855271, 855843, 856368]","[843165, 843765, 844365, 844965, 845565, 846166, 846765, 847365, 847911, 848497, 849098, 849680, 850227, 850808, 851371, 851935, 852488, 853043, 853607, 854214, 854743, 855286, 855858, 856384]",83,OR,U,L,ITMSR,1.1,
0,600,trial,0,37,37,37,trial,"['S', 'S', 'S', 'S', 'S', 'S', 'S', 'C', 'C', 'C', 'C', 'C', 'C', 'C', 'C', 'C', 'C', 'C', 'C', 'C', 'C', 'C', 'C']","[862580, 862956, 863517, 864132, 864738, 865329, 865881, 866489, 867046, 867622, 868183, 868737, 869281, 869848, 870430, 870969, 871491, 872076, 872610, 873159, 873690, 874236, 874770]","[862648, 863066, 863610, 864226, 864787, 865409, 865964, 866581, 867127, 867689, 868269, 868810, 869374, 869932, 870513, 871056, 871576, 872179, 872735, 873271, 873771, 874327, 874858]","[77, 202, 252, 33, 243, 173, 187, 120, 182, 181, 182, 152, 142, 130, 164, 150, 172, 88, 221, 174, 152, 149, 248]","[862584, 862960, 863521, 864136, 864742, 865333, 865885, 866494, 867051, 867628, 868187, 868741, 869286, 869854, 870435, 870973, 871495, 872139, 872615, 873164, 873695, 874242, 874774]","[861817, 862417, 863017, 863618, 864218, 864818, 865418, 866018, 866509, 867066, 867642, 868203, 868757, 869301, 869868, 870450, 870989, 871512, 872096, 872630, 873179, 873710, 874256, 874790]",83,OR,U,L,ITMSR,1.1,
2,400,trial,0,38,38,38,trial,"['S', 'S', 'S', 'S', 'S', 'S', 'S', 'S', 'C', 'C', 'C', 'C', 'C', 'C', 'C', 'C', 'C', 'C', 'C', 'C', 'C', 'C', 'C', 'C']","[880491, 880778, 881073, 881431, 881821, 882187, 882594, 883004, 883418, 883825, 884191, 884559, 884940, 885312, 885692, 886047, 886447, 886817, 887163, 887541, 887907, 888270, 888590, 888968]","[880559, 880881, 881170, 881508, 881904, 882297, 882686, 883091, 883438, 883845, 884211, 884579, 884960, 885332, 885712, 886151, 886467, 886895, 887183, 887561, 887927, 888290, 888610, 888988]","[194, 183, 237, 206, 134, 124, 175, 82, 6, 49, 131, 114, 100, 156, 127, 19, 113, 109, 85, 126, 117, 159, 140, 109]","[880497, 880783, 881078, 881436, 881826, 882191, 882598, 883008, 883425, 883830, 884195, 884563, 884944, 885317, 885696, 886054, 886451, 886822, 887169, 887545, 887910, 888274, 888594, 888973]","[880313, 880712, 881112, 881512, 881912, 882312, 882712, 883112, 883438, 883845, 884211, 884579, 884960, 885332, 885712, 886067, 886467, 886837, 887183, 887561, 887927, 888290, 888610, 888988]",83,OR,U,L,ITMSR,1.1,
2,400,trial,0,39,39,39,trial,"['S', 'S', 'S', 'S', 'S', 'S', 'S', 'S', 'C', 'C', 'C', 'C', 'C', 'C', 'C', 'C', 'C', 'C', 'C', 'C', 'C', 'C', 'C', 'C']","[894714, 894978, 895235, 895583, 895986, 896375, 896784, 897183, 897574, 897969, 898353, 898743, 899123, 899555, 899897, 900290, 900674, 901021, 901396, 901773, 902164, 902538, 902897, 903286]","[894734, 895053, 895311, 895671, 896006, 896395, 896804, 897203, 897672, 897989, 898438, 898837, 899205, 899575, 899981, 900364, 900695, 901041, 901416, 901793, 902232, 902590, 902976, 903306]","[213, 147, 176, 1, 233, 228, 147, 123, 170, 139, 147, 150, 142, 115, 103, 119, 138, 197, 130, 157, 175, 213, 197, 152]","[894716, 894982, 895239, 895588, 895990, 896379, 896788, 897187, 897579, 897973, 898357, 898747, 899127, 899558, 899901, 900294, 900677, 901025, 901400, 901777, 902168, 902543, 902901, 903291]","[894467, 894867, 895267, 895667, 896067, 896467, 896867, 897267, 897594, 897989, 898373, 898763, 899143, 899575, 899917, 900311, 900695, 901041, 901416, 901793, 902184, 902558, 902917, 903306]",83,OR,U,L,ITMSR,1.1,
5,600,trial,0,40,40,40,trial,"['S', 'S', 'S', 'S', 'S', 'S', 'S', 'C', 'C', 'C', 'C', 'C', 'C', 'C', 'C', 'C', 'C', 'C', 'C', 'C', 'C', 'C', 'C']","[909336, 909995, 910651, 911283, 911893, 912502, 913084, 913671, 914270, 914862, 915415, 915949, 916548, 917111, 917700, 918312, 918876, 919451, 919970, 920489, 921121, 921665, 922240]","[909427, 910104, 910733, 911354, 911913, 912567, 913150, 913691, 914290, 914882, 915435, 915970, 916568, 917190, 917764, 918332, 918896, 919471, 919990, 920509, 921141, 921686, 922260]","[235, 248, 25, 13, 248, 30, 9, 252, 79, 122, 138, 108, 136, 231, 77, 104, 22, 74, 80, 16, 228, 94, 105]","[909340, 909998, 910654, 911286, 911897, 912504, 913088, 913674, 914273, 914866, 915419, 915953, 916553, 917114, 917704, 918317, 918880, 919456, 919974, 920495, 921125, 921670, 922245]","[908936, 909536, 910136, 910736, 911336, 911936, 912536, 913136, 913691, 914290, 914882, 915435, 915970, 916568, 917131, 917720, 918332, 918896, 919471, 919990, 920509, 921141, 921686, 922260]",83,OR,U,L,ITMSR,1.1,
1,400,trial,0,41,41,41,trial,"['S', 'S', 'S', 'S', 'S', 'S', 'S', 'C', 'C', 'C', 'C', 'C', 'C', 'C', 'C', 'C', 'C', 'C', 'C', 'C', 'C', 'C', 'C']","[928200, 928563, 928955, 929377, 929748, 930106, 930486, 930884, 931274, 931641, 932051, 932403, 932801, 933166, 933547, 933929, 934304, 934688, 935061, 935425, 935815, 936168, 936515]","[928274, 928648, 929043, 929397, 929768, 930126, 930506, 930904, 931294, 931661, 932071, 932423, 932823, 933186, 933567, 934020, 934324, 934708, 935081, 935445, 935835, 936248, 936536]","[127, 51, 31, 134, 25, 48, 194, 137, 214, 199, 79, 39, 72, 65, 15, 132, 16, 206, 73, 65, 23, 96, 11]","[928205, 928565, 928958, 929382, 929753, 930110, 930490, 930888, 931279, 931645, 932056, 932409, 932806, 933171, 933552, 933936, 934308, 934692, 935066, 935430, 935820, 936172, 936519]","[927781, 928181, 928581, 928982, 929381, 929781, 930181, 930581, 930904, 931294, 931661, 932071, 932423, 932822, 933186, 933567, 933949, 934324, 934708, 935081, 935445, 935835, 936188, 936536]",83,OR,U,L,ITMSR,1.1,
0,400,trial,0,42,42,42,trial,"['S', 'S', 'S', 'S', 'S', 'S', 'S', 'C', 'C', 'C', 'C', 'C', 'C', 'C', 'C', 'C', 'C', 'C', 'C', 'C', 'C', 'C', 'C']","[942522, 942915, 943299, 943687, 944105, 944494, 944880, 945315, 945693, 946071, 946464, 946818, 947211, 947590, 947971, 948375, 948768, 949151, 949526, 949879, 950225, 950630, 951059]","[942609, 943003, 943373, 943771, 944181, 944584, 944900, 945387, 945713, 946149, 946484, 946838, 947302, 947610, 948059, 948396, 948788, 949171, 949547, 949899, 950245, 950714, 951136]","[49, 195, 131, 152, 154, 147, 141, 125, 138, 128, 93, 123, 160, 216, 211, 174, 202, 109, 122, 96, 136, 164, 126]","[942528, 942920, 943304, 943691, 944110, 944499, 944885, 945320, 945697, 946076, 946469, 946822, 947215, 947594, 947976, 948378, 948771, 949155, 949531, 949884, 950230, 950634, 951063]","[942202, 942601, 943001, 943401, 943801, 944201, 944601, 945001, 945335, 945713, 946092, 946484, 946838, 947231, 947610, 947991, 948396, 948788, 949171, 949547, 949899, 950245, 950650, 951079]",83,OR,U,L,ITMSR,1.1,
5,400,trial,0,43,43,43,trial,"['S', 'S', 'S', 'S', 'S', 'S', 'S', 'C', 'C', 'C', 'C', 'C', 'C', 'C', 'C', 'C', 'C', 'C', 'C', 'C', 'C', 'C', 'C', 'C', 'C', 'C']","[956890, 957312, 957717, 958156, 958545, 958921, 959333, 959735, 960129, 960504, 960897, 960997, 961305, 961406, 961672, 961772, 962077, 962450, 962827, 963223, 963605, 964013, 964379, 964754, 965147, 965520]","[956910, 957400, 957793, 958229, 958639, 959028, 959353, 959845, 960149, 960614, 960917, 961017, 961325, 961426, 961692, 961792, 962097, 962470, 962847, 963244, 963625, 964033, 964399, 964774, 965167, 965540]","[202, 134, 232, 188, 247, 198, 157, 191, 148, 223, 225, 28, 233, 72, 127, 60, 186, 180, 151, 160, 126, 110, 49, 62, 73, 56]","[956895, 957317, 957721, 958161, 958550, 958926, 959337, 959740, 960134, 960508, 960901, 960997, 961309, 961406, 961676, 961772, 962080, 962454, 962831, 963227, 963609, 964017, 964383, 964759, 965151, 965525]","[956603, 957003, 957403, 957803, 958203, 958603, 959003, 959404, 959755, 960149, 960524, 960917, 961325, 961692, 962097, 962470, 962847, 963244, 963625, 964033, 964399, 964774, 965167, 965540]",83,OR,U,L,ITMSR,1.1,
0,400,trial,0,44,44,44,trial,"['S', 'S', 'S', 'S', 'S', 'S', 'S', 'S', 'C', 'C', 'C', 'C', 'C', 'C', 'C', 'C', 'C', 'C', 'C', 'C', 'C', 'C', 'C', 'C', 'C', 'C']","[971465, 971725, 972035, 972341, 972770, 973182, 973549, 973935, 974303, 974403, 974699, 975049, 975440, 975825, 976203, 976570, 976959, 977310, 977679, 978052, 978423, 978759, 979144, 979484, 979584, 979865]","[971535, 971798, 972093, 972424, 972835, 973290, 973655, 974028, 974323, 974423, 974720, 975156, 975460, 975845, 976223, 976590, 976979, 977330, 977699, 978072, 978443, 978870, 979164, 979504, 979604, 979885]","[35, 55, 37, 197, 134, 169, 213, 64, 27, 62, 14, 140, 171, 159, 156, 169, 182, 135, 180, 187, 128, 159, 148, 91, 92, 116]","[971471, 971730, 972039, 972347, 972775, 973189, 973555, 973941, 974308, 974403, 974703, 975054, 975444, 975830, 976206, 976574, 976963, 977314, 977683, 978056, 978428, 978763, 979147, 979488, 979584, 979869]","[971223, 971622, 972022, 972422, 972822, 973222, 973622, 974022, 974323, 974720, 975069, 975460, 975845, 976223, 976590, 976979, 977330, 977699, 978072, 978443, 978779, 979164, 979504, 979885]",83,OR,U,L,ITMSR,1.1,
1,400,trial,0,45,45,45,trial,"['S', 'S', 'S', 'S', 'S', 'S', 'S', 'S', 'S', 'S', 'C', 'C', 'C', 'C', 'C', 'C', 'C', 'C', 'C', 'C', 'C', 'C', 'C', 'C', 'C', 'C']","[985820, 986098, 986363, 986463, 986743, 987133, 987545, 987896, 987996, 988316, 988710, 989067, 989475, 989848, 990243, 990629, 991021, 991414, 991797, 992180, 992552, 992918, 993319, 993714, 994072, 994472]","[985840, 986118, 986383, 986483, 986763, 987153, 987565, 987916, 988016, 988336, 988817, 989163, 989495, 989869, 990263, 990649, 991109, 991434, 991817, 992200, 992572, 992939, 993339, 993734, 994093, 994492]","[234, 59, 145, 127, 129, 153, 39, 1, 84, 93, 134, 33, 19, 166, 224, 213, 161, 185, 146, 176, 221, 28, 153, 160, 69, 74]","[985826, 986102, 986369, 986463, 986748, 987139, 987550, 987901, 987996, 988320, 988716, 989071, 989479, 989852, 990247, 990633, 991025, 991418, 991801, 992184, 992556, 992923, 993325, 993718, 994076, 994477]","[985590, 985989, 986389, 986789, 987189, 987589, 987990, 988389, 988730, 989087, 989495, 989869, 990263, 990649, 991041, 991434, 991817, 992200, 992572, 992939, 993339, 993734, 994093, 994492]",83,OR,U,L,ITMSR,1.1,
0,600,trial,0,46,46,46,trial,"['S', 'S', 'S', 'S', 'S', 'S', 'S', 'S', 'C', 'C', 'C', 'C', 'C', 'C', 'C', 'C', 'C', 'C', 'C', 'C', 'C', 'C', 'C', 'C']","[1000253, 1000720, 1001174, 1001749, 1002339, 1002940, 1003549, 1004098, 1004725, 1005337, 1005935, 1006551, 1007084, 1007694, 1008239, 1008811, 1009375, 1009917, 1010484, 1011043, 1011614, 1012102, 1012658, 1013163]","[1000273, 1000803, 1001229, 1001769, 1002405, 1003023, 1003609, 1004169, 1004745, 1005357, 1005988, 1006571, 1007105, 1007714, 1008259, 1008831, 1009395, 1009937, 1010504, 1011063, 1011700, 1012201, 1012775, 1013263]","[181, 207, 247, 186, 16, 232, 183, 233, 95, 146, 148, 235, 75, 96, 181, 227, 239, 199, 44, 150, 121, 215, 79, 112]","[1000261, 1000725, 1001178, 1001753, 1002341, 1002944, 1003553, 1004102, 1004729, 1005342, 1005939, 1006555, 1007088, 1007698, 1008244, 1008816, 1009381, 1009924, 1010491, 1011048, 1011621, 1012108, 1012664, 1013168]","[1000005, 1000605, 1001205, 1001805, 1002405, 1003005, 1003606, 1004205, 1004745, 1005357, 1005955, 1006571, 1007105, 1007714, 1008259, 1008831, 1009395, 1009937, 1010504, 1011063, 1011634, 1012122, 1012678, 1013183]",83,OR,U,L,ITMSR,1.1,
2,600,trial,0,47,47,47,trial,"['S', 'S', 'S', 'S', 'S', 'S', 'S', 'S', 'C', 'C', 'C', 'C', 'C', 'C', 'C', 'C', 'C', 'C', 'C', 'C', 'C', 'C', 'C', 'C']","[1019450, 1019848, 1020411, 1021040, 1021623, 1022194, 1022788, 1022888, 1023377, 1023946, 1024484, 1025044, 1025625, 1026185, 1026708, 1027233, 1027826, 1028290, 1028830, 1029328, 1029877, 1030375, 1030877, 1031417]","[1019527, 1019919, 1020431, 1021109, 1021702, 1022279, 1022808, 1022908, 1023397, 1023966, 1024504, 1025064, 1025645, 1026267, 1026728, 1027253, 1027846, 1028416, 1028889, 1029411, 1029898, 1030489, 1031012, 1031564]","[149, 89, 39, 173, 117, 74, 32, 230, 29, 251, 49, 177, 175, 68, 101, 64, 4, 137, 160, 109, 16, 117, 127, 194]","[1019495, 1019852, 1020416, 1021043, 1021627, 1022199, 1022791, 1022888, 1023381, 1023951, 1024487, 1025049, 1025630, 1026189, 1026713, 1027237, 1027830, 1028295, 1028834, 1029332, 1029882, 1030380, 1030881, 1031422]","[1018703, 1019302, 1019902, 1020503, 1021102, 1021702, 1022302, 1022902, 1023397, 1023966, 1024504, 1025064, 1025645, 1026205, 1026728, 1027253, 1027846, 1028311, 1028850, 1029348, 1029897, 1030395, 1030897, 1031437]",83,OR,U,L,ITMSR,1.1,
1,600,trial,0,48,48,48,trial,"['S', 'S', 'S', 'S', 'C', 'C', 'C', 'C', 'C', 'C', 'C', 'C', 'C', 'C', 'C', 'C', 'C', 'C', 'C', 'C']","[1039349, 1039895, 1040537, 1041088, 1041665, 1042221, 1042756, 1043287, 1043788, 1044336, 1044854, 1045408, 1045955, 1046461, 1046975, 1047494, 1047979, 1048494, 1048982, 1049484]","[1039431, 1039915, 1040557, 1041173, 1041745, 1042241, 1042776, 1043362, 1043859, 1044408, 1044934, 1045494, 1046031, 1046552, 1047058, 1047514, 1047999, 1048514, 1049003, 1049567]","[82, 95, 13, 99, 85, 8, 7, 66, 131, 253, 246, 138, 177, 136, 116, 9, 12, 38, 138, 148]","[1039354, 1039899, 1040543, 1041094, 1041670, 1042226, 1042760, 1043292, 1043793, 1044341, 1044861, 1045414, 1045961, 1046465, 1046980, 1047499, 1047984, 1048499, 1048987, 1049488]","[1036978, 1037578, 1038178, 1038778, 1039378, 1039978, 1040578, 1041178, 1041685, 1042241, 1042776, 1043307, 1043808, 1044356, 1044874, 1045428, 1045976, 1046481, 1046995, 1047514, 1047999, 1048514, 1049003, 1049504]",83,OR,U,L,ITMSR,1.1,
3,600,trial,0,49,49,49,trial,"['S', 'S', 'S', 'S', 'S', 'S', 'S', 'S', 'S', 'C', 'C', 'C', 'C', 'C', 'C', 'C', 'C', 'C', 'C', 'C', 'C', 'C', 'C', 'C', 'C', 'C', 'C', 'C', 'C', 'C', 'C']","[1055356, 1055634, 1056230, 1056772, 1057432, 1058009, 1058109, 1058575, 1059224, 1059819, 1060395, 1060981, 1061081, 1061521, 1061621, 1062068, 1062187, 1062667, 1063262, 1063366, 1063854, 1064384, 1064941, 1065509, 1066043, 1066628, 1067152, 1067252, 1067720, 1067820, 1068263]","[1055376, 1055756, 1056352, 1056851, 1057551, 1058029, 1058129, 1058698, 1059338, 1059951, 1060509, 1061001, 1061101, 1061541, 1061641, 1062088, 1062207, 1062776, 1063286, 1063390, 1063942, 1064499, 1064962, 1065529, 1066063, 1066706, 1067172, 1067272, 1067740, 1067840, 1068366]","[105, 161, 22, 217, 22, 188, 172, 171, 248, 248, 85, 234, 124, 232, 25, 241, 4, 93, 151, 90, 170, 178, 144, 49, 103, 151, 41, 20, 89, 248, 131]","[1055361, 1055638, 1056235, 1056778, 1057438, 1058015, 1058109, 1058646, 1059230, 1059824, 1060401, 1060987, 1061081, 1061527, 1061630, 1062073, 1062189, 1062673, 1063267, 1063366, 1063859, 1064390, 1064945, 1065513, 1066048, 1066633, 1067157, 1067252, 1067724, 1067820, 1068268]","[1055102, 1055703, 1056302, 1056902, 1057502, 1058102, 1058702, 1059302, 1059840, 1060415, 1061001, 1061541, 1062088, 1062687, 1063282, 1063874, 1064404, 1064962, 1065529, 1066063, 1066648, 1067172, 1067740, 1068283]",83,OR,U,L,ITMSR,1.1,
4,600,trial,0,50,50,50,trial,"['S', 'S', 'S', 'S', 'S', 'S', 'S', 'C', 'C', 'C', 'C', 'C', 'C', 'C', 'C', 'C', 'C', 'C', 'C', 'C', 'C', 'C', 'C', 'C']","[1074224, 1074847, 1075404, 1076016, 1076613, 1077254, 1077875, 1078431, 1078984, 1079535, 1080080, 1080634, 1081185, 1081736, 1082324, 1082864, 1083425, 1084004, 1084563, 1085087, 1085187, 1085622, 1086160, 1086726]","[1074314, 1074936, 1075424, 1076099, 1076633, 1077370, 1077983, 1078546, 1079004, 1079610, 1080176, 1080718, 1081278, 1081832, 1082348, 1082981, 1083534, 1084115, 1084652, 1085107, 1085207, 1085748, 1086299, 1086863]","[45, 146, 145, 232, 28, 221, 242, 16, 214, 217, 2, 251, 205, 255, 161, 187, 175, 156, 188, 121, 33, 118, 137, 198]","[1074229, 1074851, 1075409, 1076020, 1076618, 1077257, 1077879, 1078435, 1078988, 1079539, 1080084, 1080639, 1081189, 1081740, 1082330, 1082869, 1083430, 1084009, 1084568, 1085092, 1085187, 1085627, 1086164, 1086731]","[1073742, 1074341, 1074941, 1075542, 1076141, 1076741, 1077341, 1077941, 1078451, 1079004, 1079555, 1080100, 1080654, 1081205, 1081756, 1082344, 1082884, 1083445, 1084024, 1084583, 1085107, 1085642, 1086180, 1086746]",83,OR,U,L,ITMSR,1.1,
1,600,trial,0,51,51,51,trial,"['S', 'S', 'S', 'S', 'S', 'S', 'S', 'C', 'C', 'C', 'C', 'C', 'C', 'C', 'C', 'C', 'C', 'C', 'C', 'C', 'C', 'C', 'C', 'C']","[1092886, 1093478, 1094118, 1094745, 1095347, 1095971, 1096565, 1097147, 1097681, 1098223, 1098779, 1099342, 1099851, 1100524, 1101073, 1101597, 1102126, 1102652, 1103203, 1103725, 1104278, 1104824, 1105364, 1105464]","[1092966, 1093558, 1094212, 1094854, 1095367, 1096078, 1096690, 1097282, 1097841, 1098372, 1098925, 1099468, 1100006, 1100633, 1101159, 1101709, 1102228, 1102779, 1103299, 1103870, 1104419, 1104956, 1105384, 1105485]","[118, 25, 35, 145, 72, 213, 215, 254, 237, 243, 209, 242, 181, 177, 227, 174, 238, 175, 182, 208, 177, 218, 166, 129]","[1092891, 1093483, 1094124, 1094750, 1095352, 1095976, 1096569, 1097151, 1097687, 1098227, 1098784, 1099346, 1099856, 1100529, 1101077, 1101601, 1102130, 1102657, 1103208, 1103730, 1104282, 1104828, 1105371, 1105464]","[1092442, 1093042, 1093642, 1094242, 1094842, 1095442, 1096042, 1096642, 1097167, 1097701, 1098243, 1098799, 1099362, 1099871, 1100545, 1101093, 1101617, 1102146, 1102672, 1103223, 1103746, 1104299, 1104844, 1105384]",83,OR,U,L,ITMSR,1.1,
4,400,trial,0,52,52,52,trial,"['S', 'S', 'S', 'S', 'S', 'S', 'S', 'S', 'C', 'C', 'C', 'C', 'C', 'C', 'C', 'C', 'C', 'C', 'C', 'C', 'C', 'C', 'C', 'C']","[1111273, 1111631, 1111994, 1112390, 1112793, 1112893, 1113183, 1113568, 1113991, 1114397, 1114796, 1115197, 1115619, 1116009, 1116396, 1116793, 1117182, 1117584, 1117908, 1118325, 1118742, 1119118, 1119512, 1119905]","[1111370, 1111718, 1112114, 1112512, 1112813, 1112913, 1113293, 1113660, 1114082, 1114484, 1114887, 1115283, 1115706, 1116030, 1116484, 1116897, 1117202, 1117604, 1117928, 1118345, 1118763, 1119221, 1119621, 1120000]","[172, 186, 222, 171, 136, 150, 174, 190, 158, 45, 105, 50, 48, 51, 73, 24, 196, 179, 219, 241, 136, 2, 172, 201]","[1111278, 1111636, 1111998, 1112395, 1112797, 1112893, 1113187, 1113572, 1113995, 1114402, 1114800, 1115202, 1115623, 1116013, 1116400, 1116798, 1117187, 1117589, 1117914, 1118330, 1118747, 1119123, 1119516, 1119910]","[1110848, 1111248, 1111648, 1112048, 1112449, 1112848, 1113248, 1113648, 1114011, 1114417, 1114816, 1115217, 1115639, 1116029, 1116417, 1116813, 1117202, 1117604, 1117928, 1118345, 1118763, 1119138, 1119533, 1119925]",83,OR,U,L,ITMSR,1.1,
3,400,trial,0,53,53,53,trial,"['S', 'S', 'S', 'S', 'S', 'S', 'S', 'S', 'S', 'C', 'C', 'C', 'C', 'C', 'C', 'C', 'C', 'C', 'C', 'C', 'C', 'C', 'C', 'C', 'C', 'C', 'C']","[1125593, 1126018, 1126421, 1126800, 1127178, 1127550, 1127924, 1128027, 1128334, 1128434, 1128768, 1129140, 1129486, 1129872, 1130276, 1130575, 1130971, 1131366, 1131760, 1132121, 1132504, 1132895, 1133270, 1133370, 1133650, 1133750, 1134019]","[1125683, 1126102, 1126505, 1126890, 1127254, 1127570, 1127947, 1128047, 1128354, 1128454, 1128788, 1129160, 1129567, 1129959, 1130349, 1130685, 1131071, 1131459, 1131847, 1132228, 1132617, 1132997, 1133290, 1133390, 1133670, 1133770, 1134123]","[248, 132, 181, 197, 159, 94, 133, 210, 74, 246, 241, 94, 234, 156, 143, 131, 183, 211, 223, 229, 186, 67, 45, 93, 38, 107, 125]","[1125598, 1126022, 1126425, 1126805, 1127183, 1127555, 1127929, 1128027, 1128339, 1128434, 1128774, 1129145, 1129491, 1129877, 1130281, 1130578, 1130976, 1131370, 1131764, 1132125, 1132508, 1132899, 1133274, 1133370, 1133654, 1133750, 1134023]","[1125294, 1125693, 1126093, 1126493, 1126893, 1127293, 1127693, 1128093, 1128454, 1128788, 1129160, 1129506, 1129892, 1130296, 1130595, 1130991, 1131386, 1131780, 1132141, 1132524, 1132915, 1133290, 1133670, 1134040]",83,OR,U,L,ITMSR,1.1,
3,400,trial,0,54,54,54,trial,"['S', 'S', 'S', 'S', 'S', 'S', 'S', 'C', 'C', 'C', 'C', 'C', 'C', 'C', 'C', 'C', 'C', 'C', 'C', 'C', 'C', 'C', 'C', 'C']","[1159672, 1160064, 1160457, 1160866, 1161264, 1161680, 1162086, 1162487, 1162873, 1163276, 1163667, 1164068, 1164446, 1164860, 1165256, 1165639, 1166022, 1166414, 1166795, 1167241, 1167637, 1168077, 1168434, 1168536]","[1159739, 1160181, 1160563, 1160981, 1161284, 1161700, 1162106, 1162507, 1162893, 1163296, 1163687, 1164163, 1164556, 1164880, 1165364, 1165659, 1166042, 1166511, 1166887, 1167261, 1167657, 1168097, 1168454, 1168556]","[155, 146, 140, 74, 46, 175, 144, 215, 114, 240, 219, 97, 182, 73, 137, 81, 85, 100, 233, 218, 243, 218, 62, 28]","[1159676, 1160068, 1160462, 1160871, 1161267, 1161684, 1162090, 1162490, 1162878, 1163280, 1163670, 1164072, 1164449, 1164863, 1165260, 1165642, 1166025, 1166417, 1166799, 1167245, 1167640, 1168081, 1168437, 1168539]","[1159299, 1159699, 1160099, 1160499, 1160899, 1161299, 1161699, 1162099, 1162507, 1162893, 1163296, 1163687, 1164088, 1164466, 1164880, 1165276, 1165659, 1166042, 1166434, 1166815, 1167261, 1167657, 1168097, 1168454]",83,OR,U,L,ITMSR,1.1,
1,600,trial,0,55,55,55,trial,"['S', 'S', 'S', 'S', 'S', 'S', 'S', 'C', 'C', 'C', 'C', 'C', 'C', 'C', 'C', 'C', 'C', 'C', 'C', 'C', 'C', 'C', 'C']","[1174553, 1175195, 1175859, 1176483, 1177086, 1177683, 1178298, 1178865, 1179459, 1180037, 1180576, 1181143, 1181751, 1182327, 1182911, 1183500, 1184096, 1184720, 1185260, 1185810, 1186405, 1186948, 1187470]","[1174620, 1175267, 1175932, 1176555, 1177164, 1177755, 1178377, 1178962, 1179543, 1180131, 1180603, 1181163, 1181771, 1182417, 1182931, 1183520, 1184116, 1184740, 1185281, 1185830, 1186425, 1186968, 1187490]","[141, 195, 200, 249, 227, 198, 198, 162, 121, 132, 92, 203, 69, 207, 184, 199, 221, 161, 17, 18, 163, 251, 25]","[1174559, 1175200, 1175864, 1176486, 1177091, 1177688, 1178302, 1178869, 1179463, 1180041, 1180579, 1181148, 1181754, 1182331, 1182914, 1183504, 1184100, 1184723, 1185265, 1185815, 1186409, 1186953, 1187474]","[1174173, 1174773, 1175373, 1175973, 1176573, 1177174, 1177773, 1178373, 1178885, 1179480, 1180057, 1180596, 1181163, 1181771, 1182347, 1182931, 1183520, 1184116, 1184740, 1185281, 1185830, 1186425, 1186968, 1187490]",83,OR,U,L,ITMSR,1.1,
0,600,trial,0,56,56,56,trial,"['S', 'S', 'S', 'S', 'S', 'S', 'S', 'S', 'S', 'S', 'C', 'C', 'C', 'C', 'C', 'C', 'C', 'C', 'C', 'C', 'C', 'C', 'C', 'C', 'C', 'C']","[1193398, 1193998, 1194632, 1195190, 1195290, 1195795, 1195895, 1196409, 1196509, 1196966, 1197599, 1198107, 1198644, 1199195, 1199771, 1200336, 1200892, 1201415, 1201902, 1202445, 1202963, 1203490, 1203993, 1204527, 1205043, 1205562]","[1193490, 1194018, 1194723, 1195210, 1195314, 1195815, 1195917, 1196429, 1196529, 1197071, 1197709, 1198241, 1198760, 1199310, 1199879, 1200438, 1201006, 1201549, 1202065, 1202582, 1203089, 1203619, 1204139, 1204653, 1205225, 1205763]","[47, 105, 111, 182, 200, 100, 134, 136, 142, 146, 122, 128, 69, 105, 116, 122, 145, 213, 239, 157, 61, 226, 164, 102, 125, 5]","[1193404, 1194003, 1194638, 1195195, 1195290, 1195799, 1195895, 1196417, 1196509, 1196972, 1197605, 1198113, 1198650, 1199200, 1199776, 1200342, 1200898, 1201515, 1201908, 1202450, 1202969, 1203495, 1203998, 1204533, 1205048, 1205567]","[1192941, 1193540, 1194140, 1194740, 1195340, 1195940, 1196540, 1197140, 1197619, 1198127, 1198664, 1199215, 1199791, 1200356, 1200912, 1201435, 1201922, 1202465, 1202983, 1203510, 1204013, 1204547, 1205063, 1205582]",83,OR,U,L,ITMSR,1.1,
5,400,trial,0,57,57,57,trial,"['S', 'S', 'S', 'S', 'S', 'S', 'S', 'S', 'S', 'C', 'C', 'C', 'C', 'C', 'C', 'C', 'C', 'C', 'C', 'C', 'C', 'C', 'C', 'C', 'C', 'C', 'C']","[1211771, 1212134, 1212491, 1212591, 1212897, 1213283, 1213383, 1213680, 1214097, 1214521, 1214919, 1215302, 1215703, 1216108, 1216490, 1216888, 1217277, 1217659, 1217759, 1218072, 1218428, 1218811, 1218911, 1219207, 1219588, 1219969, 1220362]","[1211870, 1212226, 1212511, 1212611, 1212917, 1213303, 1213403, 1213797, 1214205, 1214632, 1215009, 1215414, 1215814, 1216188, 1216595, 1217005, 1217398, 1217679, 1217779, 1218093, 1218448, 1218831, 1218931, 1219227, 1219608, 1219989, 1220382]","[242, 206, 208, 15, 142, 85, 191, 163, 140, 181, 88, 129, 143, 139, 107, 108, 172, 99, 46, 78, 60, 61, 78, 86, 17, 89, 92]","[1211777, 1212138, 1212495, 1212591, 1212902, 1213288, 1213383, 1213686, 1214103, 1214526, 1214925, 1215308, 1215709, 1216113, 1216495, 1216894, 1217283, 1217665, 1217759, 1218077, 1218436, 1218818, 1218911, 1219212, 1219593, 1219975, 1220366]","[1211367, 1211767, 1212167, 1212567, 1212967, 1213367, 1213767, 1214168, 1214541, 1214939, 1215322, 1215723, 1216129, 1216510, 1216908, 1217297, 1217679, 1218093, 1218448, 1218831, 1219227, 1219608, 1219989, 1220382]",83,OR,U,L,ITMSR,1.1,
2,600,trial,0,58,58,58,trial,"['S', 'S', 'S', 'S', 'S', 'S', 'S', 'S', 'C', 'C', 'C', 'C', 'C', 'C', 'C', 'C', 'C', 'C', 'C', 'C', 'C', 'C', 'C', 'C', 'C']","[1225984, 1226268, 1226845, 1227438, 1228033, 1228646, 1229283, 1229864, 1230469, 1231010, 1231110, 1231585, 1232152, 1232694, 1233259, 1233848, 1234388, 1234927, 1235470, 1236069, 1236658, 1237266, 1237844, 1238361, 1238905]","[1226082, 1226519, 1227120, 1227710, 1228215, 1228819, 1229433, 1230026, 1230608, 1231030, 1231152, 1231725, 1232290, 1232821, 1233432, 1234051, 1234654, 1235179, 1235749, 1236277, 1236838, 1237403, 1237975, 1238602, 1239135]","[108, 36, 112, 142, 123, 188, 135, 161, 164, 82, 50, 216, 217, 164, 2, 198, 145, 80, 121, 166, 86, 57, 209, 56, 194]","[1225989, 1226272, 1226850, 1227547, 1228142, 1228694, 1229290, 1229873, 1230476, 1231017, 1231113, 1231592, 1232158, 1232701, 1233265, 1233853, 1234394, 1235095, 1235477, 1236199, 1236664, 1237272, 1237852, 1238367, 1239058]","[1225779, 1226378, 1226978, 1227578, 1228178, 1228778, 1229378, 1229978, 1230489, 1231030, 1231605, 1232173, 1232714, 1233280, 1233868, 1234408, 1234947, 1235490, 1236089, 1236678, 1237286, 1237864, 1238381, 1238925]",83,OR,U,L,ITMSR,1.1,
0,400,trial,0,59,59,59,trial,"['S', 'S', 'S', 'S', 'S', 'S', 'S', 'S', 'C', 'C', 'C', 'C', 'C', 'C', 'C', 'C', 'C', 'C', 'C', 'C', 'C', 'C', 'C', 'C', 'C', 'C']","[1244568, 1244849, 1245083, 1245429, 1245820, 1246202, 1246612, 1246995, 1247392, 1247759, 1248153, 1248538, 1248926, 1249304, 1249687, 1250087, 1250187, 1250458, 1250837, 1250937, 1251231, 1251599, 1251971, 1252307, 1252701, 1253066]","[1244653, 1244949, 1245195, 1245527, 1245960, 1246326, 1246750, 1247094, 1247514, 1247893, 1248270, 1248653, 1249033, 1249425, 1249830, 1250107, 1250208, 1250579, 1250857, 1250957, 1251345, 1251718, 1252106, 1252467, 1252831, 1253301]","[96, 172, 216, 167, 119, 75, 175, 249, 153, 181, 154, 171, 108, 218, 179, 173, 153, 184, 104, 48, 162, 127, 118, 106, 110, 110]","[1244574, 1244855, 1245089, 1245435, 1245827, 1246210, 1246617, 1247000, 1247397, 1247764, 1248159, 1248544, 1248932, 1249309, 1249693, 1250094, 1250187, 1250463, 1250843, 1250937, 1251238, 1251605, 1251976, 1252314, 1252707, 1253071]","[1244324, 1244724, 1245124, 1245524, 1245924, 1246324, 1246724, 1247124, 1247412, 1247779, 1248173, 1248558, 1248946, 1249325, 1249708, 1250107, 1250478, 1250857, 1251251, 1251619, 1251991, 1252327, 1252721, 1253086]",83,OR,U,L,ITMSR,1.1,
5,600,trial,0,60,60,60,trial,"['S', 'S', 'S', 'S', 'S', 'S', 'S', 'C', 'C', 'C', 'C', 'C', 'C', 'C', 'C', 'C', 'C', 'C', 'C', 'C', 'C', 'C', 'C', 'C', 'C', 'C', 'C']","[1259001, 1259642, 1260229, 1260833, 1261478, 1262053, 1262604, 1263268, 1263822, 1263922, 1264380, 1264951, 1265469, 1266015, 1266553, 1267126, 1267226, 1267643, 1267743, 1268160, 1268692, 1269223, 1269771, 1269871, 1270334, 1270849, 1271339]","[1259088, 1259715, 1260278, 1260914, 1261555, 1262159, 1262820, 1263452, 1263842, 1264081, 1264587, 1265141, 1265736, 1266257, 1266788, 1267146, 1267309, 1267663, 1267813, 1268374, 1268966, 1269492, 1269791, 1270013, 1270486, 1271032, 1271591]","[234, 43, 197, 249, 169, 85, 225, 50, 234, 124, 45, 255, 83, 230, 82, 222, 124, 218, 117, 28, 25, 25, 220, 96, 241, 141, 24]","[1259008, 1259649, 1260235, 1260839, 1261485, 1262061, 1262609, 1263275, 1263828, 1263938, 1264387, 1264957, 1265474, 1266021, 1266558, 1267132, 1267241, 1267650, 1267748, 1268166, 1268698, 1269229, 1269777, 1269950, 1270340, 1270854, 1271347]","[1258585, 1259184, 1259784, 1260384, 1260984, 1261584, 1262184, 1262784, 1263288, 1263842, 1264400, 1264971, 1265489, 1266035, 1266573, 1267146, 1267663, 1268180, 1268712, 1269243, 1269791, 1270354, 1270870, 1271359]",83,OR,U,L,ITMSR,1.1,
4,400,trial,0,61,61,61,trial,"['S', 'S', 'S', 'S', 'S', 'S', 'S', 'C', 'C', 'C', 'C', 'C', 'C', 'C', 'C', 'C', 'C', 'C', 'C', 'C', 'C', 'C', 'C', 'C']","[1277446, 1277812, 1278181, 1278592, 1278995, 1279404, 1279789, 1280189, 1280592, 1280984, 1281372, 1281759, 1282131, 1282543, 1282911, 1283294, 1283698, 1284066, 1284449, 1284842, 1285209, 1285574, 1285963, 1286063]","[1277584, 1277925, 1278304, 1278732, 1279135, 1279537, 1279929, 1280351, 1280713, 1281137, 1281498, 1281897, 1282258, 1282658, 1283057, 1283400, 1283815, 1284206, 1284559, 1284944, 1285229, 1285594, 1285983, 1286083]","[71, 109, 156, 182, 132, 157, 112, 158, 146, 175, 186, 188, 171, 215, 162, 197, 159, 190, 185, 189, 130, 167, 186, 225]","[1277540, 1277818, 1278186, 1278597, 1279001, 1279410, 1279795, 1280195, 1280598, 1280990, 1281377, 1281764, 1282138, 1282548, 1282916, 1283299, 1283703, 1284072, 1284454, 1284847, 1285214, 1285580, 1285968, 1286063]","[1277088, 1277488, 1277888, 1278288, 1278688, 1279088, 1279489, 1279888, 1280209, 1280612, 1281004, 1281392, 1281779, 1282151, 1282563, 1282931, 1283314, 1283718, 1284086, 1284469, 1284862, 1285229, 1285594, 1285983]",83,OR,U,L,ITMSR,1.1,
5,600,trial,0,62,62,62,trial,"['S', 'S', 'S', 'S', 'S', 'S', 'S', 'S', 'C', 'C', 'C', 'C', 'C', 'C', 'C', 'C', 'C', 'C', 'C', 'C', 'C', 'C', 'C', 'C', 'C', 'C', 'C', 'C']","[1291523, 1291740, 1292429, 1293080, 1293620, 1294215, 1294853, 1295408, 1296015, 1296555, 1297090, 1297622, 1298170, 1298720, 1298820, 1299276, 1299846, 1300376, 1300920, 1301020, 1301486, 1302045, 1302588, 1303139, 1303239, 1303701, 1303801, 1304246]","[1291543, 1292103, 1292829, 1293339, 1293915, 1294568, 1295127, 1295735, 1296302, 1296822, 1297353, 1297929, 1298415, 1298740, 1298980, 1299521, 1300078, 1300606, 1300940, 1301177, 1301730, 1302259, 1302818, 1303159, 1303326, 1303721, 1303908]","[95, 175, 26, 243, 108, 220, 215, 158, 56, 121, 41, 37, 33, 53, 129, 5, 82, 185, 110, 173, 126, 19, 243, 35, 171, 128, 24]","[1291536, 1291746, 1292435, 1293084, 1293626, 1294220, 1294858, 1295414, 1296020, 1296561, 1297096, 1297628, 1298177, 1298726, 1298900, 1299283, 1299851, 1300539, 1300926, 1301107, 1301492, 1302051, 1302594, 1303144, 1303287, 1303706, 1303860]","[1291363, 1291963, 1292563, 1293163, 1293763, 1294363, 1294963, 1295563, 1296035, 1296575, 1297111, 1297642, 1298190, 1298740, 1299296, 1299866, 1300397, 1300940, 1301506, 1302065, 1302608, 1303159, 1303721, 1304266]",83,OR,U,L,ITMSR,1.1,
1,400,trial,0,63,63,63,trial,"['S', 'S', 'S', 'S', 'S', 'S', 'S', 'S', 'S', 'C', 'C', 'C', 'C', 'C', 'C', 'C', 'C', 'C', 'C', 'C', 'C', 'C', 'C', 'C', 'C', 'C', 'C', 'C', 'C', 'C', 'C', 'C']","[1310047, 1310384, 1310757, 1311185, 1311605, 1311930, 1312038, 1312344, 1312444, 1312756, 1312856, 1313141, 1313241, 1313552, 1313948, 1314335, 1314435, 1314733, 1315130, 1315528, 1315628, 1315942, 1316042, 1316329, 1316431, 1316713, 1316813, 1317118, 1317512, 1317890, 1318302, 1318704]","[1310164, 1310505, 1310777, 1311205, 1311625, 1311958, 1312077, 1312364, 1312464, 1312776, 1312889, 1313161, 1313289, 1313681, 1314086, 1314355, 1314457, 1314871, 1315278, 1315548, 1315666, 1315962, 1316062, 1316350, 1316451, 1316733, 1316836, 1317139, 1317619, 1318011, 1318322, 1318828]","[142, 184, 127, 170, 66, 43, 29, 11, 80, 13, 175, 10, 125, 32, 15, 222, 90, 37, 213, 122, 174, 32, 98, 173, 93, 182, 120, 244, 13, 245, 238, 55]","[1310052, 1310388, 1310763, 1311192, 1311607, 1311936, 1312038, 1312349, 1312444, 1312762, 1312856, 1313146, 1313241, 1313557, 1313954, 1314341, 1314435, 1314738, 1315136, 1315534, 1315630, 1315947, 1316042, 1316336, 1316431, 1316719, 1316813, 1317124, 1317518, 1317896, 1318308, 1318709]","[1309623, 1310023, 1310424, 1310824, 1311224, 1311624, 1312024, 1312424, 1312776, 1313161, 1313572, 1313968, 1314355, 1314753, 1315150, 1315548, 1315962, 1316349, 1316733, 1317138, 1317532, 1317910, 1318322, 1318724]",83,OR,U,L,ITMSR,1.1,
2,400,trial,0,64,64,64,trial,"['S', 'S', 'S', 'S', 'S', 'S', 'S', 'S', 'C', 'C', 'C', 'C', 'C', 'C', 'C', 'C', 'C', 'C', 'C', 'C', 'C', 'C', 'C', 'C', 'C', 'C', 'C']","[1324696, 1324981, 1325386, 1325789, 1326129, 1326516, 1326931, 1327297, 1327716, 1328096, 1328393, 1328771, 1329161, 1329533, 1329941, 1330354, 1330715, 1331100, 1331472, 1331861, 1331961, 1332239, 1332598, 1332698, 1333012, 1333112, 1333400]","[1324791, 1325122, 1325504, 1325908, 1326256, 1326619, 1327048, 1327427, 1327898, 1328202, 1328537, 1328898, 1329308, 1329680, 1330115, 1330505, 1330882, 1331230, 1331617, 1331881, 1331996, 1332259, 1332618, 1332754, 1333032, 1333133, 1333425]","[184, 151, 148, 185, 194, 193, 104, 220, 219, 216, 205, 198, 10, 210, 236, 224, 221, 208, 200, 226, 181, 104, 151, 156, 202, 73, 189]","[1324703, 1324986, 1325391, 1325793, 1326134, 1326521, 1326937, 1327301, 1327720, 1328101, 1328398, 1328776, 1329166, 1329539, 1329946, 1330358, 1330720, 1331105, 1331477, 1331866, 1331961, 1332244, 1332603, 1332706, 1333016, 1333112, 1333404]","[1324255, 1324655, 1325056, 1325455, 1325855, 1326255, 1326655, 1327055, 1327736, 1328116, 1328413, 1328791, 1329181, 1329553, 1329961, 1330374, 1330735, 1331120, 1331492, 1331881, 1332259, 1332618, 1333032, 1333421]",83,OR,U,L,ITMSR,1.1,
1,600,trial,0,65,65,65,trial,"['B', 'S', 'S', 'S', 'S', 'S', 'S', 'S', 'C', 'C', 'C', 'C', 'C', 'C', 'C', 'C', 'C', 'C', 'C', 'C', 'C', 'C', 'C', 'C', 'C']","[1338726, 1339085, 1339790, 1340419, 1341011, 1341594, 1342230, 1342819, 1343440, 1344024, 1344571, 1344671, 1345128, 1345722, 1346291, 1346865, 1347440, 1347990, 1348560, 1349066, 1349623, 1350173, 1350681, 1351212, 1351750]","[1338894, 1339265, 1339913, 1340507, 1341198, 1341850, 1342408, 1343039, 1343627, 1344182, 1344591, 1344781, 1345364, 1345923, 1346494, 1347031, 1347600, 1348218, 1348772, 1349249, 1349788, 1350356, 1350935, 1351442, 1352002]","[186, 32, 107, 133, 109, 121, 63, 41, 115, 29, 254, 67, 91, 138, 146, 99, 95, 82, 218, 207, 110, 10, 0, 46, 186]","[1338737, 1339090, 1339795, 1340425, 1341018, 1341599, 1342236, 1342825, 1343447, 1344030, 1344576, 1344708, 1345134, 1345728, 1346296, 1346871, 1347446, 1347996, 1348568, 1349072, 1349630, 1350179, 1350688, 1351217, 1351755]","[1338737, 1339337, 1339937, 1340537, 1341137, 1341737, 1342338, 1342938, 1343460, 1344045, 1344591, 1345148, 1345742, 1346311, 1346885, 1347460, 1348011, 1348580, 1349086, 1349643, 1350193, 1350701, 1351232, 1351770]",83,OR,U,L,ITMSR,1.1,
0,600,trial,0,66,66,66,trial,"['S', 'S', 'S', 'S', 'S', 'S', 'C', 'C', 'C', 'C', 'C', 'C', 'C', 'C', 'C', 'C', 'C', 'C', 'C', 'C', 'C', 'C', 'C', 'C']","[1358266, 1358884, 1359488, 1360124, 1360708, 1361287, 1361914, 1362510, 1363120, 1363642, 1364231, 1364847, 1365399, 1365953, 1366486, 1366586, 1367019, 1367564, 1368108, 1368650, 1369193, 1369773, 1369873, 1370317]","[1358351, 1358977, 1359577, 1360206, 1360801, 1361373, 1361998, 1362601, 1363222, 1363803, 1364369, 1364867, 1365420, 1365974, 1366506, 1366606, 1367150, 1367725, 1368312, 1368913, 1369446, 1369793, 1370011, 1370547]","[209, 191, 227, 149, 198, 202, 228, 234, 249, 215, 230, 225, 254, 238, 12, 86, 40, 252, 35, 21, 246, 222, 213, 243]","[1358269, 1358887, 1359492, 1360129, 1360713, 1361292, 1361918, 1362514, 1363125, 1363646, 1364236, 1364853, 1365403, 1365958, 1366490, 1366586, 1367023, 1367569, 1368113, 1368655, 1369197, 1369777, 1369913, 1370321]","[1357139, 1357740, 1358339, 1358939, 1359539, 1360139, 1360739, 1361339, 1361934, 1362530, 1363140, 1363662, 1364251, 1364867, 1365420, 1365974, 1366506, 1367040, 1367584, 1368128, 1368670, 1369213, 1369793, 1370337]",83,OR,U,L,ITMSR,1.1,
5,400,trial,0,67,67,67,trial,"['S', 'S', 'S', 'S', 'S', 'S', 'S', 'C', 'C', 'C', 'C', 'C', 'C', 'C', 'C', 'C', 'C', 'C', 'C', 'C', 'C', 'C', 'C', 'C']","[1376206, 1376572, 1376983, 1377408, 1377794, 1378196, 1378579, 1379016, 1379394, 1379776, 1380188, 1380579, 1380961, 1381365, 1381732, 1382131, 1382516, 1382902, 1383300, 1383693, 1384095, 1384479, 1384864, 1384964]","[1376349, 1376669, 1377082, 1377497, 1377878, 1378296, 1378678, 1379113, 1379508, 1379911, 1380302, 1380691, 1381085, 1381469, 1381842, 1382239, 1382652, 1383055, 1383433, 1383798, 1384208, 1384598, 1384884, 1384984]","[210, 167, 188, 132, 56, 194, 134, 155, 216, 209, 218, 246, 185, 200, 230, 188, 190, 172, 167, 198, 191, 136, 41, 242]","[1376302, 1376577, 1376987, 1377413, 1377799, 1378201, 1378584, 1379022, 1379399, 1379781, 1380193, 1380584, 1380967, 1381370, 1381737, 1382136, 1382521, 1382907, 1383305, 1383698, 1384101, 1384484, 1384870, 1384964]","[1375842, 1376242, 1376642, 1377042, 1377442, 1377842, 1378242, 1378642, 1379036, 1379415, 1379796, 1380208, 1380599, 1380981, 1381385, 1381752, 1382151, 1382536, 1382922, 1383320, 1383713, 1384115, 1384499, 1384884]",83,OR,U,L,ITMSR,1.1,
3,400,trial,0,68,68,68,trial,"['S', 'S', 'S', 'S', 'S', 'S', 'C', 'C', 'C', 'C', 'C', 'C', 'C', 'C', 'C', 'C', 'C', 'C', 'C', 'C', 'C', 'C', 'C', 'C']","[1391289, 1391726, 1392102, 1392495, 1392861, 1393245, 1393684, 1394044, 1394463, 1394850, 1395262, 1395648, 1395748, 1396009, 1396111, 1396416, 1396786, 1397181, 1397564, 1397944, 1398339, 1398729, 1399120, 1399501]","[1391438, 1391841, 1392261, 1392634, 1393002, 1393362, 1393805, 1394199, 1394603, 1395001, 1395394, 1395668, 1395770, 1396030, 1396131, 1396554, 1396946, 1397314, 1397701, 1398077, 1398460, 1398879, 1399276, 1399633]","[220, 231, 11, 33, 222, 14, 11, 1, 26, 201, 220, 128, 195, 167, 118, 191, 219, 215, 199, 167, 185, 155, 146, 152]","[1391294, 1391731, 1392107, 1392500, 1392866, 1393250, 1393689, 1394050, 1394468, 1394856, 1395267, 1395653, 1395748, 1396015, 1396111, 1396421, 1396791, 1397186, 1397569, 1397949, 1398343, 1398734, 1399126, 1399506]","[1390556, 1390955, 1391355, 1391755, 1392155, 1392556, 1392955, 1393355, 1393704, 1394064, 1394483, 1394870, 1395282, 1395668, 1396029, 1396436, 1396806, 1397201, 1397584, 1397964, 1398360, 1398749, 1399140, 1399521]",83,OR,U,L,ITMSR,1.1,
0,400,trial,0,69,69,69,trial,"['S', 'S', 'S', 'S', 'S', 'S', 'S', 'C', 'C', 'C', 'C', 'C', 'C', 'C', 'C', 'C', 'C', 'C', 'C', 'C', 'C', 'C', 'C']","[1405213, 1405568, 1405982, 1406369, 1406777, 1407167, 1407569, 1407987, 1408384, 1408779, 1409165, 1409549, 1409976, 1410373, 1410727, 1411134, 1411516, 1411913, 1412291, 1412719, 1413110, 1413516, 1413897]","[1405332, 1405711, 1406091, 1406503, 1406920, 1407310, 1407725, 1408148, 1408518, 1408909, 1409297, 1409704, 1410089, 1410494, 1410869, 1411267, 1411642, 1412018, 1412407, 1412812, 1413220, 1413612, 1414020]","[47, 124, 132, 150, 78, 118, 97, 141, 130, 146, 123, 97, 110, 101, 67, 93, 122, 107, 110, 79, 54, 68, 192]","[1405218, 1405573, 1405988, 1406374, 1406783, 1407172, 1407575, 1407993, 1408389, 1408784, 1409171, 1409554, 1409981, 1410379, 1410733, 1411139, 1411521, 1411918, 1412297, 1412724, 1413115, 1413521, 1413904]","[1404850, 1405250, 1405650, 1406050, 1406450, 1406850, 1407250, 1407650, 1408007, 1408404, 1408799, 1409185, 1409569, 1409996, 1410393, 1410747, 1411154, 1411536, 1411933, 1412312, 1412739, 1413130, 1413536, 1413917]",83,OR,U,L,ITMSR,1.1,
3,600,trial,0,70,70,70,trial,"['S', 'S', 'S', 'S', 'S', 'S', 'S', 'C', 'C', 'C', 'C', 'C', 'C', 'C', 'C', 'C', 'C', 'C', 'C', 'C', 'C', 'C', 'C', 'C', 'C', 'C', 'C', 'C', 'C', 'C', 'C', 'C']","[1419625, 1420430, 1421035, 1421704, 1422276, 1422856, 1423428, 1424029, 1424540, 1425050, 1425533, 1425633, 1426041, 1426141, 1426570, 1426670, 1427093, 1427193, 1427567, 1427668, 1428069, 1428169, 1428558, 1428658, 1429060, 1429161, 1429586, 1430070, 1430546, 1430646, 1431015, 1431483]","[1419744, 1420524, 1421134, 1421791, 1422366, 1422961, 1423559, 1424168, 1424712, 1425257, 1425553, 1425792, 1426061, 1426267, 1426590, 1426762, 1427113, 1427268, 1427587, 1427710, 1428089, 1428244, 1428578, 1428687, 1429080, 1429181, 1429684, 1430180, 1430566, 1430666, 1431182, 1431638]","[79, 167, 52, 189, 158, 3, 200, 178, 67, 190, 155, 101, 111, 127, 112, 185, 163, 90, 111, 77, 83, 184, 214, 135, 87, 217, 124, 127, 24, 115, 120, 8]","[1419631, 1420435, 1421039, 1421708, 1422281, 1422861, 1423432, 1424034, 1424653, 1425055, 1425539, 1425705, 1426046, 1426185, 1426574, 1426714, 1427098, 1427193, 1427572, 1427672, 1428074, 1428180, 1428563, 1428664, 1429065, 1429161, 1429593, 1430075, 1430552, 1430646, 1431020, 1431487]","[1419354, 1419954, 1420554, 1421154, 1421754, 1422354, 1422954, 1423554, 1424049, 1424560, 1425070, 1425553, 1426061, 1426590, 1427113, 1427587, 1428089, 1428578, 1429080, 1429606, 1430090, 1430566, 1431035, 1431503]",83,OR,U,L,ITMSR,1.1,
4,400,trial,0,71,71,71,trial,"['S', 'S', 'S', 'S', 'S', 'S', 'S', 'S', 'S', 'S', 'C', 'C', 'C', 'C', 'C', 'C', 'C', 'C', 'C', 'C', 'C', 'C', 'C', 'C', 'C', 'C']","[1437363, 1437680, 1437939, 1438332, 1438681, 1438781, 1439135, 1439491, 1439886, 1439986, 1440311, 1440709, 1441087, 1441489, 1441893, 1442279, 1442681, 1443090, 1443479, 1443869, 1444270, 1444642, 1445035, 1445399, 1445786, 1446194]","[1437448, 1437750, 1438009, 1438352, 1438701, 1438801, 1439235, 1439565, 1439906, 1440012, 1440437, 1440838, 1441210, 1441606, 1442019, 1442407, 1442809, 1443209, 1443596, 1443971, 1444378, 1444757, 1445148, 1445526, 1445922, 1446317]","[132, 61, 80, 40, 151, 98, 96, 92, 184, 31, 167, 131, 128, 155, 200, 142, 201, 168, 156, 140, 123, 132, 121, 177, 145, 192]","[1437372, 1437685, 1437945, 1438339, 1438687, 1438781, 1439199, 1439497, 1439891, 1439986, 1440317, 1440715, 1441092, 1441496, 1441898, 1442285, 1442686, 1443095, 1443484, 1443875, 1444275, 1444648, 1445040, 1445404, 1445792, 1446199]","[1437145, 1437545, 1437945, 1438345, 1438745, 1439145, 1439545, 1439945, 1440331, 1440729, 1441107, 1441509, 1441913, 1442299, 1442701, 1443110, 1443500, 1443889, 1444290, 1444662, 1445055, 1445420, 1445806, 1446214]",83,OR,U,L,ITMSR,1.1,
2,400,trial,0,72,72,72,trial,"['S', 'S', 'S', 'S', 'S', 'S', 'S', 'S', 'C', 'C', 'C', 'C', 'C', 'C', 'C', 'C', 'C', 'C', 'C', 'C', 'C', 'C', 'C', 'C']","[1451856, 1452097, 1452360, 1452747, 1453128, 1453529, 1453927, 1454337, 1454755, 1455144, 1455551, 1455918, 1456356, 1456732, 1457123, 1457520, 1457908, 1458302, 1458700, 1459069, 1459457, 1459869, 1460256, 1460638]","[1451932, 1452187, 1452456, 1452890, 1453254, 1453635, 1454027, 1454419, 1454845, 1455259, 1455671, 1456047, 1456460, 1456863, 1457227, 1457627, 1458008, 1458399, 1458803, 1459184, 1459579, 1459981, 1460369, 1460742]","[49, 187, 151, 216, 153, 144, 106, 37, 9, 68, 111, 117, 108, 124, 87, 89, 79, 86, 88, 96, 80, 56, 84, 151]","[1451863, 1452103, 1452366, 1452752, 1453133, 1453534, 1453933, 1454342, 1454761, 1455151, 1455557, 1455923, 1456362, 1456738, 1457129, 1457526, 1457914, 1458309, 1458707, 1459076, 1459463, 1459874, 1460263, 1460644]","[1451580, 1451980, 1452380, 1452780, 1453180, 1453580, 1453980, 1454381, 1454775, 1455164, 1455571, 1455938, 1456376, 1456752, 1457143, 1457540, 1457928, 1458322, 1458720, 1459089, 1459477, 1459889, 1460276, 1460658]",83,OR,U,L,ITMSR,1.1,
3,600,trial,0,73,73,73,trial,"['S', 'S', 'S', 'S', 'S', 'S', 'S', 'S', 'C', 'C', 'C', 'C', 'C', 'C', 'C', 'C', 'C', 'C', 'C', 'C', 'C', 'C', 'C', 'C']","[1466464, 1466723, 1467344, 1467957, 1468571, 1469189, 1469783, 1470377, 1470981, 1471518, 1472060, 1472628, 1473169, 1473745, 1474315, 1474862, 1475378, 1475981, 1476569, 1477124, 1477660, 1478184, 1478768, 1479279]","[1466537, 1466868, 1467421, 1468034, 1468645, 1469257, 1469859, 1470469, 1471081, 1471599, 1472139, 1472706, 1473256, 1473829, 1474409, 1474958, 1475504, 1476056, 1476653, 1477216, 1477766, 1478318, 1478848, 1479374]","[166, 184, 218, 194, 193, 198, 203, 216, 2, 229, 209, 131, 208, 197, 233, 224, 110, 225, 194, 220, 8, 194, 229, 0]","[1466470, 1466728, 1467350, 1467963, 1468576, 1469194, 1469788, 1470383, 1470986, 1471522, 1472065, 1472633, 1473174, 1473751, 1474319, 1474867, 1475385, 1475985, 1476574, 1477129, 1477662, 1478191, 1478772, 1479282]","[1466245, 1466845, 1467445, 1468045, 1468645, 1469245, 1469845, 1470445, 1471001, 1471538, 1472080, 1472648, 1473189, 1473765, 1474335, 1474882, 1475398, 1476001, 1476589, 1477144, 1477680, 1478204, 1478788, 1479299]",83,OR,U,L,ITMSR,1.1,
1,400,trial,0,74,74,74,trial,"['S', 'S', 'S', 'S', 'S', 'S', 'S', 'C', 'C', 'C', 'C', 'C', 'C', 'C', 'C', 'C', 'C', 'C', 'C', 'C', 'C', 'C', 'C', 'C']","[1485477, 1485841, 1486241, 1486603, 1486970, 1487349, 1487744, 1488156, 1488256, 1488555, 1488937, 1489326, 1489717, 1490080, 1490454, 1490841, 1491250, 1491641, 1492040, 1492456, 1492815, 1493198, 1493598, 1493978]","[1485544, 1485933, 1486313, 1486671, 1487046, 1487439, 1487848, 1488176, 1488276, 1488658, 1489050, 1489420, 1489824, 1490200, 1490571, 1490950, 1491354, 1491741, 1492148, 1492542, 1492926, 1493297, 1493675, 1494072]","[149, 215, 218, 213, 14, 177, 123, 109, 107, 229, 204, 198, 215, 242, 13, 247, 247, 1, 9, 23, 54, 69, 29, 44]","[1485483, 1485846, 1486245, 1486607, 1486974, 1487355, 1487749, 1488160, 1488256, 1488559, 1488943, 1489331, 1489722, 1490084, 1490458, 1490845, 1491254, 1491645, 1492044, 1492459, 1492819, 1493201, 1493602, 1493982]","[1485027, 1485427, 1485827, 1486227, 1486627, 1487027, 1487427, 1487827, 1488176, 1488575, 1488957, 1489346, 1489737, 1490100, 1490475, 1490861, 1491270, 1491661, 1492060, 1492476, 1492835, 1493218, 1493618, 1493998]",83,OR,U,L,ITMSR,1.1,
4,600,trial,0,75,75,75,trial,"['S', 'S', 'S', 'S', 'S', 'S', 'S', 'C', 'C', 'C', 'C', 'C', 'C', 'C', 'C', 'C', 'C', 'C', 'C', 'C', 'C', 'C', 'C', 'C', 'C', 'C']","[1500191, 1500771, 1501427, 1502053, 1502618, 1503238, 1503783, 1504395, 1504964, 1505510, 1506055, 1506629, 1507204, 1507780, 1507881, 1508329, 1508429, 1508850, 1509472, 1510005, 1510105, 1510545, 1511068, 1511601, 1512091, 1512632]","[1500211, 1500867, 1501522, 1502074, 1502702, 1503320, 1503888, 1504495, 1505043, 1505617, 1506181, 1506748, 1507224, 1507800, 1507901, 1508349, 1508449, 1508969, 1509548, 1510025, 1510132, 1510565, 1511152, 1511692, 1512184, 1512717]","[137, 79, 207, 185, 223, 65, 242, 177, 254, 14, 22, 209, 161, 130, 76, 131, 75, 181, 202, 215, 167, 156, 186, 144, 27, 235]","[1500195, 1500776, 1501431, 1502057, 1502623, 1503241, 1503789, 1504400, 1504968, 1505514, 1506060, 1506634, 1507208, 1507784, 1507881, 1508334, 1508429, 1508855, 1509476, 1510010, 1510105, 1510549, 1511073, 1511606, 1512095, 1512636]","[1499675, 1500274, 1500874, 1501474, 1502074, 1502674, 1503275, 1503874, 1504415, 1504984, 1505530, 1506075, 1506649, 1507224, 1507800, 1508349, 1508870, 1509492, 1510025, 1510565, 1511088, 1511621, 1512111, 1512652]",83,OR,U,L,ITMSR,1.1,
4,600,trial,0,76,76,76,trial,"['S', 'S', 'S', 'S', 'S', 'S', 'C', 'C', 'C', 'C', 'C', 'C', 'C', 'C', 'C', 'C', 'C', 'C', 'C', 'C', 'C', 'C']","[1519465, 1520026, 1520652, 1521293, 1521857, 1522471, 1523018, 1523550, 1524110, 1524658, 1525221, 1525749, 1526290, 1526799, 1527364, 1527953, 1528527, 1529115, 1529675, 1530238, 1530754, 1531264]","[1519525, 1520133, 1520730, 1521395, 1521969, 1522571, 1523125, 1523653, 1524207, 1524811, 1525354, 1525914, 1526509, 1527052, 1527614, 1528114, 1528672, 1529221, 1529779, 1530331, 1530862, 1531345]","[165, 241, 5, 34, 34, 240, 241, 199, 195, 250, 1, 218, 227, 185, 196, 139, 199, 180, 194, 185, 246, 179]","[1519469, 1520030, 1520656, 1521297, 1521861, 1522476, 1523022, 1523555, 1524115, 1524662, 1525225, 1525753, 1526295, 1526804, 1527369, 1527959, 1528531, 1529120, 1529681, 1530243, 1530758, 1531269]","[1518320, 1518919, 1519519, 1520119, 1520719, 1521319, 1521920, 1522520, 1523038, 1523570, 1524130, 1524678, 1525241, 1525769, 1526310, 1526819, 1527384, 1527973, 1528547, 1529135, 1529695, 1530258, 1530774, 1531284]",83,OR,U,L,ITMSR,1.1,
2,600,trial,0,77,77,77,trial,"['S', 'S', 'S', 'S', 'S', 'S', 'S', 'S', 'C', 'C', 'C', 'C', 'C', 'C', 'C', 'C', 'C', 'C', 'C', 'C', 'C', 'C', 'C', 'C', 'C', 'C', 'C', 'C']","[1537191, 1537841, 1538457, 1539039, 1539637, 1540233, 1540810, 1540910, 1541355, 1541891, 1542408, 1542508, 1542967, 1543067, 1543517, 1544078, 1544627, 1545198, 1545761, 1545861, 1546318, 1546418, 1546932, 1547472, 1547990, 1548477, 1548986, 1549523]","[1537274, 1537944, 1538477, 1539169, 1539734, 1540342, 1540830, 1540930, 1541500, 1542024, 1542428, 1542548, 1542987, 1543089, 1543635, 1544193, 1544755, 1545218, 1545781, 1545895, 1546338, 1546438, 1547013, 1547586, 1548010, 1548497, 1549105, 1549673]","[150, 214, 197, 167, 227, 250, 217, 96, 42, 120, 208, 172, 230, 131, 243, 160, 72, 162, 51, 28, 163, 167, 150, 45, 116, 224, 89, 112]","[1537196, 1537846, 1538462, 1539044, 1539641, 1540238, 1540814, 1540910, 1541467, 1541896, 1542412, 1542511, 1542972, 1543067, 1543522, 1544083, 1544632, 1545202, 1545766, 1545865, 1546323, 1546418, 1546937, 1547478, 1547995, 1548482, 1548992, 1549529]","[1536738, 1537338, 1537938, 1538538, 1539138, 1539738, 1540338, 1540938, 1541376, 1541911, 1542428, 1542987, 1543537, 1544098, 1544647, 1545218, 1545781, 1546338, 1546952, 1547492, 1548010, 1548497, 1549006, 1549543]",83,OR,U,L,ITMSR,1.1,
4,600,trial,0,78,78,78,trial,"['S', 'S', 'S', 'S', 'S', 'S', 'S', 'S', 'C', 'C', 'C', 'C', 'C', 'C', 'C', 'C', 'C', 'C', 'C', 'C', 'C', 'C', 'C', 'C', 'C']","[1574181, 1574437, 1575030, 1575630, 1576232, 1576795, 1577418, 1578043, 1578673, 1579238, 1579764, 1580334, 1580877, 1581433, 1581978, 1582507, 1583882, 1584351, 1584798, 1584898, 1585308, 1585841, 1586390, 1586926, 1587418]","[1574239, 1574531, 1575111, 1575724, 1576316, 1576872, 1577535, 1578190, 1578805, 1579335, 1579889, 1580354, 1580956, 1581456, 1582042, 1582564, 1583954, 1584457, 1584818, 1584919, 1585398, 1585925, 1586460, 1586996, 1587485]","[95, 247, 149, 124, 60, 53, 54, 58, 221, 136, 17, 31, 74, 251, 111, 64, 16, 223, 2, 128, 11, 75, 74, 57, 59]","[1574189, 1574443, 1575035, 1575635, 1576239, 1576802, 1577424, 1578049, 1578681, 1579245, 1579771, 1580340, 1580882, 1581440, 1581984, 1582513, 1583892, 1584359, 1584803, 1584898, 1585312, 1585847, 1586397, 1586932, 1587424]","[1573960, 1574560, 1575160, 1575760, 1576360, 1576961, 1577560, 1578160, 1578693, 1579258, 1579784, 1580354, 1580897, 1581453, 1581998, 1582527, 1583902, 1584371, 1584818, 1585328, 1585861, 1586410, 1586946, 1587438]",83,OR,U,L,ITMSR,1.1,
4,400,trial,0,79,79,79,trial,"['S', 'S', 'S', 'S', 'S', 'S', 'S', 'C', 'C', 'C', 'C', 'C', 'C', 'C', 'C', 'C', 'C', 'C', 'C', 'C', 'C', 'C', 'C']","[1593250, 1593603, 1593951, 1594360, 1594748, 1595174, 1595548, 1595965, 1596364, 1596753, 1597137, 1597526, 1597932, 1598311, 1598704, 1599079, 1599495, 1599880, 1600269, 1600654, 1601040, 1601436, 1601802]","[1593313, 1593656, 1594015, 1594380, 1594768, 1595228, 1595622, 1596042, 1596443, 1596840, 1597228, 1597607, 1598011, 1598386, 1598788, 1599190, 1599519, 1599961, 1600289, 1600674, 1601061, 1601457, 1601824]","[230, 222, 244, 145, 169, 177, 212, 229, 233, 229, 229, 214, 179, 133, 157, 166, 63, 59, 110, 123, 88, 58, 79]","[1593253, 1593607, 1593955, 1594365, 1594754, 1595180, 1595552, 1595970, 1596368, 1596758, 1597142, 1597530, 1597936, 1598316, 1598710, 1599085, 1599501, 1599886, 1600273, 1600658, 1601045, 1601441, 1601807]","[1592803, 1593203, 1593603, 1594003, 1594403, 1594803, 1595203, 1595603, 1595985, 1596384, 1596773, 1597157, 1597546, 1597953, 1598331, 1598724, 1599099, 1599515, 1599900, 1600289, 1600674, 1601060, 1601456, 1601822]",83,OR,U,L,ITMSR,1.1,
5,400,trial,0,80,80,80,trial,"['S', 'S', 'S', 'S', 'S', 'S', 'S', 'C', 'C', 'C', 'C', 'C', 'C', 'C', 'C', 'C', 'C', 'C', 'C', 'C', 'C', 'C', 'C']","[1607555, 1607921, 1608323, 1608725, 1609117, 1609527, 1609913, 1610327, 1610714, 1611157, 1611540, 1611941, 1612325, 1612703, 1613095, 1613477, 1613876, 1614223, 1614621, 1615007, 1615376, 1615763, 1616144]","[1607609, 1607998, 1608392, 1608801, 1609191, 1609590, 1609993, 1610411, 1610795, 1611248, 1611670, 1612054, 1612413, 1612845, 1613210, 1613500, 1613961, 1614346, 1614688, 1615081, 1615459, 1615857, 1616231]","[107, 217, 194, 241, 209, 212, 248, 199, 178, 174, 185, 169, 197, 194, 114, 44, 171, 99, 107, 139, 196, 156, 200]","[1607562, 1607925, 1608327, 1608728, 1609121, 1609532, 1609916, 1610331, 1610717, 1611162, 1611544, 1611947, 1612329, 1612707, 1613102, 1613485, 1613880, 1614229, 1614626, 1615012, 1615381, 1615768, 1616149]","[1607168, 1607567, 1607967, 1608367, 1608767, 1609167, 1609567, 1609967, 1610347, 1610734, 1611177, 1611560, 1611961, 1612345, 1612723, 1613115, 1613497, 1613896, 1614243, 1614641, 1615027, 1615396, 1615783, 1616164]",83,OR,U,L,ITMSR,1.1,
1,400,trial,0,81,81,81,trial,"['S', 'S', 'S', 'S', 'S', 'S', 'S', 'S', 'C', 'C', 'C', 'C', 'C', 'C', 'C', 'C', 'C', 'C', 'C', 'C', 'C', 'C', 'C', 'C']","[1622013, 1622289, 1622577, 1622924, 1623321, 1623686, 1624058, 1624472, 1624879, 1625283, 1625668, 1626038, 1626432, 1626818, 1627204, 1627581, 1627960, 1628378, 1628775, 1629165, 1629550, 1629929, 1630327, 1630747]","[1622036, 1622348, 1622636, 1622987, 1623377, 1623752, 1624156, 1624494, 1624976, 1625346, 1625690, 1626097, 1626506, 1626902, 1627287, 1627674, 1628059, 1628469, 1628869, 1629241, 1629642, 1630032, 1630422, 1630839]","[52, 194, 188, 5, 198, 174, 191, 73, 182, 126, 146, 149, 181, 179, 206, 214, 211, 137, 141, 115, 141, 90, 75, 85]","[1622018, 1622292, 1622581, 1622928, 1623325, 1623691, 1624064, 1624478, 1624886, 1625290, 1625673, 1626043, 1626437, 1626823, 1627209, 1627585, 1627965, 1628384, 1628780, 1629170, 1629555, 1629935, 1630332, 1630753]","[1621792, 1622192, 1622592, 1622992, 1623392, 1623792, 1624193, 1624592, 1624899, 1625304, 1625688, 1626058, 1626452, 1626839, 1627224, 1627601, 1627980, 1628398, 1628795, 1629186, 1629570, 1629949, 1630347, 1630767]",83,OR,U,L,ITMSR,1.1,
3,400,trial,0,82,82,82,trial,"['S', 'S', 'S', 'S', 'S', 'S', 'S', 'S', 'C', 'C', 'C', 'C', 'C', 'C', 'C', 'C', 'C', 'C', 'C', 'C', 'C', 'C', 'C', 'C']","[1636538, 1636831, 1637078, 1637472, 1637834, 1638246, 1638618, 1638940, 1639436, 1639849, 1640237, 1640636, 1641062, 1641401, 1641803, 1642205, 1642562, 1642970, 1643328, 1643748, 1644144, 1644507, 1644892, 1645273]","[1636612, 1636852, 1637173, 1637537, 1637946, 1638328, 1638709, 1639070, 1639528, 1639938, 1640343, 1640727, 1641121, 1641488, 1641852, 1642225, 1642619, 1642990, 1643414, 1643816, 1644227, 1644594, 1644954, 1645364]","[201, 46, 84, 173, 163, 179, 2, 174, 202, 146, 229, 233, 179, 181, 180, 84, 83, 99, 146, 161, 72, 115, 69, 199]","[1636543, 1636837, 1637084, 1637476, 1637839, 1638250, 1638625, 1638945, 1639439, 1639855, 1640240, 1640639, 1641066, 1641405, 1641808, 1642209, 1642566, 1642976, 1643332, 1643753, 1644150, 1644511, 1644896, 1645276]","[1636347, 1636746, 1637146, 1637547, 1637946, 1638346, 1638746, 1639146, 1639456, 1639869, 1640257, 1640656, 1641082, 1641421, 1641823, 1642225, 1642583, 1642990, 1643348, 1643768, 1644164, 1644527, 1644912, 1645293]",83,OR,U,L,ITMSR,1.1,
5,400,trial,0,83,83,83,trial,"['S', 'S', 'S', 'S', 'S', 'S', 'S', 'C', 'C', 'C', 'C', 'C', 'C', 'C', 'C', 'C', 'C', 'C', 'C', 'C', 'C', 'C', 'C']","[1651159, 1651463, 1651874, 1652272, 1652810, 1653149, 1653535, 1653936, 1654327, 1654740, 1655156, 1655546, 1655915, 1656314, 1656679, 1657073, 1657505, 1657897, 1658279, 1658685, 1659083, 1659483, 1659860]","[1651241, 1651564, 1651953, 1652379, 1652904, 1653246, 1653639, 1654049, 1654451, 1654859, 1655269, 1655665, 1656020, 1656400, 1656767, 1657163, 1657567, 1657988, 1658358, 1658761, 1659187, 1659583, 1659973]","[61, 136, 144, 96, 80, 236, 223, 180, 130, 139, 74, 123, 95, 118, 143, 93, 96, 67, 151, 118, 134, 160, 107]","[1651211, 1651469, 1651880, 1652278, 1652816, 1653154, 1653539, 1653941, 1654332, 1654745, 1655161, 1655553, 1655920, 1656320, 1656684, 1657078, 1657510, 1657904, 1658283, 1658689, 1659087, 1659487, 1659867]","[1650780, 1651179, 1651579, 1651979, 1652379, 1652780, 1653179, 1653579, 1653956, 1654347, 1654760, 1655176, 1655566, 1655936, 1656334, 1656699, 1657093, 1657525, 1657917, 1658299, 1658705, 1659103, 1659503, 1659880]",83,OR,U,L,ITMSR,1.1,
0,400,trial,0,84,84,84,trial,"['S', 'S', 'S', 'S', 'S', 'S', 'S', 'C', 'C', 'C', 'C', 'C', 'C', 'C', 'C', 'C', 'C', 'C', 'C', 'C', 'C', 'C', 'C']","[1665718, 1666111, 1666535, 1666956, 1667422, 1667776, 1668179, 1668596, 1668980, 1669340, 1669765, 1670144, 1670566, 1670990, 1671287, 1671671, 1672124, 1672458, 1672802, 1673204, 1673597, 1673921, 1674294]","[1665796, 1666182, 1666595, 1667035, 1667465, 1667862, 1668282, 1668702, 1669050, 1669432, 1669858, 1670250, 1670619, 1671068, 1671359, 1671749, 1672189, 1672543, 1672907, 1673265, 1673679, 1674002, 1674391]","[215, 130, 203, 227, 147, 241, 202, 156, 123, 125, 191, 217, 185, 195, 184, 193, 232, 218, 171, 149, 176, 220, 241]","[1665727, 1666116, 1666539, 1666960, 1667428, 1667781, 1668185, 1668601, 1668985, 1669347, 1669770, 1670150, 1670572, 1670995, 1671292, 1671676, 1672128, 1672464, 1672807, 1673209, 1673604, 1673926, 1674299]","[1665472, 1665872, 1666272, 1666672, 1667073, 1667472, 1667872, 1668272, 1668616, 1669000, 1669360, 1669785, 1670164, 1670586, 1671010, 1671307, 1671691, 1672144, 1672478, 1672822, 1673224, 1673617, 1673942, 1674314]",83,OR,U,L,ITMSR,1.1,
5,600,trial,0,85,85,85,trial,"['S', 'S', 'S', 'S', 'S', 'S', 'S', 'C', 'C', 'C', 'C', 'C', 'C', 'C', 'C', 'C', 'C', 'C', 'C', 'C', 'C', 'C', 'C']","[1679947, 1680713, 1681319, 1681948, 1682578, 1683197, 1683803, 1684429, 1685030, 1685642, 1686231, 1686847, 1687413, 1688005, 1688588, 1689209, 1689756, 1690334, 1690852, 1691419, 1692005, 1692545, 1693067]","[1680025, 1680773, 1681379, 1682037, 1682656, 1683260, 1683895, 1684520, 1685137, 1685765, 1686386, 1686996, 1687570, 1688173, 1688725, 1689231, 1689892, 1690417, 1690978, 1691512, 1692133, 1692755, 1693258]","[184, 170, 123, 164, 134, 109, 185, 170, 149, 154, 188, 172, 123, 135, 176, 60, 156, 89, 144, 90, 115, 174, 92]","[1679951, 1680718, 1681325, 1681954, 1682582, 1683203, 1683808, 1684434, 1685036, 1685646, 1686235, 1686851, 1687418, 1688009, 1688592, 1689214, 1689760, 1690338, 1690856, 1691424, 1692010, 1692549, 1693073]","[1679624, 1680224, 1680824, 1681424, 1682024, 1682624, 1683224, 1683824, 1684449, 1685050, 1685662, 1686251, 1686867, 1687433, 1688025, 1688608, 1689229, 1689776, 1690354, 1690872, 1691439, 1692025, 1692565, 1693087]",83,OR,U,L,ITMSR,1.1,
1,400,trial,0,86,86,86,trial,"['S', 'S', 'S', 'S', 'S', 'S', 'S', 'C', 'C', 'C', 'C', 'C', 'C', 'C', 'C', 'C', 'C', 'C', 'C', 'C', 'C', 'C', 'C']","[1698928, 1699309, 1699726, 1700102, 1700517, 1700942, 1701326, 1701733, 1702107, 1702509, 1702902, 1703280, 1703675, 1704058, 1704425, 1704801, 1705254, 1705623, 1706031, 1706404, 1706787, 1707194, 1707546]","[1699012, 1699376, 1699827, 1700126, 1700601, 1701026, 1701432, 1701831, 1702199, 1702589, 1703002, 1703364, 1703759, 1704156, 1704509, 1704908, 1705323, 1705722, 1706123, 1706522, 1706887, 1707268, 1707660]","[66, 97, 217, 107, 222, 157, 5, 182, 155, 164, 179, 159, 143, 154, 110, 176, 111, 170, 146, 179, 194, 170, 184]","[1698934, 1699314, 1699731, 1700106, 1700523, 1700946, 1701330, 1701738, 1702112, 1702513, 1702905, 1703284, 1703681, 1704065, 1704430, 1704807, 1705260, 1705627, 1706036, 1706409, 1706792, 1707199, 1707551]","[1698577, 1698976, 1699376, 1699776, 1700176, 1700576, 1700976, 1701377, 1701753, 1702127, 1702530, 1702922, 1703300, 1703695, 1704078, 1704445, 1704821, 1705274, 1705644, 1706051, 1706424, 1706807, 1707214, 1707566]",83,OR,U,L,ITMSR,1.1,
3,400,trial,0,87,87,87,trial,"['S', 'S', 'S', 'S', 'S', 'S', 'S', 'C', 'C', 'C', 'C', 'C', 'C', 'C', 'C', 'C', 'C', 'C', 'C', 'C', 'C', 'C', 'C']","[1713647, 1714025, 1714392, 1714849, 1715251, 1715608, 1716015, 1716441, 1716859, 1717216, 1717574, 1717953, 1718346, 1718732, 1719104, 1719505, 1719890, 1720268, 1720653, 1721013, 1721405, 1721775, 1722127]","[1713727, 1714120, 1714512, 1714873, 1715276, 1715715, 1716037, 1716461, 1716926, 1717280, 1717671, 1718041, 1718415, 1718795, 1719185, 1719592, 1719986, 1720382, 1720764, 1721123, 1721425, 1721795, 1722147]","[99, 97, 139, 53, 99, 75, 94, 78, 59, 48, 97, 106, 103, 121, 114, 125, 127, 76, 80, 253, 193, 67, 91]","[1713656, 1714030, 1714398, 1714855, 1715256, 1715614, 1716019, 1716446, 1716865, 1717222, 1717579, 1717958, 1718350, 1718736, 1719108, 1719508, 1719895, 1720274, 1720659, 1721018, 1721409, 1721776, 1722130]","[1713333, 1713733, 1714134, 1714533, 1714933, 1715333, 1715733, 1716133, 1716461, 1716879, 1717236, 1717594, 1717974, 1718366, 1718752, 1719124, 1719525, 1719910, 1720288, 1720673, 1721033, 1721425, 1721795, 1722147]",83,OR,U,L,ITMSR,1.1,
