pitch,ioi,event,.thisRepN,.thisTrialN,.thisN,.thisIndex,event,tap_types,tap_times,release_times,peak_pressures,peak_times,tone_times,subject,experimenter,register,handedness,experiment,version,
,,SPR,0,-1,-1,0,SPR,"['P', 'P', 'P', 'P', 'P', 'P', 'P', 'P', 'P', 'P', 'P', 'P', 'P', 'P', 'P', 'P', 'P', 'P', 'P', 'P', 'P', 'P', 'P', 'P', 'P', 'P', 'P', 'P', 'P', 'P']","[35408, 35592, 35800, 35989, 36215, 36440, 36632, 36825, 37024, 37226, 37424, 37620, 37815, 38073, 38267, 38477, 38676, 38887, 39105, 39291, 39507, 39734, 39931, 40152, 40369, 40563, 40787, 41018, 41221, 41440]","[35458, 35643, 35858, 36047, 36282, 36500, 36697, 36875, 37069, 37267, 37468, 37669, 37882, 38115, 38327, 38534, 38748, 38952, 39153, 39366, 39569, 39790, 39998, 40224, 40431, 40636, 40858, 41068, 41288, 41505]","[253, 227, 174, 176, 92, 196, 200, 112, 65, 106, 117, 105, 233, 55, 32, 98, 8, 74, 4, 208, 8, 3, 250, 134, 47, 42, 97, 213, 37, 8]","[35412, 35597, 35807, 35996, 36222, 36445, 36636, 36831, 37030, 37231, 37429, 37625, 37821, 38080, 38274, 38483, 38682, 38892, 39110, 39300, 39513, 39740, 39937, 40157, 40375, 40569, 40794, 41023, 41227, 41445]",,101,SB,L,R,ITMSR,1.1,
3,500,practice,0,0,0,0,practice,"['S', 'S', 'S', 'S', 'S', 'S', 'S', 'S', 'C', 'C', 'C', 'C', 'C', 'C', 'C', 'C', 'C', 'C', 'C', 'C', 'C', 'C', 'C', 'C']","[129510, 129885, 130424, 130950, 131438, 131939, 132444, 132925, 133434, 133919, 134437, 134914, 135422, 135927, 136439, 136948, 137420, 137893, 138409, 138916, 139408, 139900, 140437, 140899]","[129591, 129968, 130515, 131020, 131505, 131993, 132505, 133000, 133499, 133980, 134505, 134982, 135473, 135985, 136498, 137010, 137472, 137960, 138473, 138979, 139475, 139958, 140505, 140968]","[94, 64, 44, 75, 49, 52, 94, 81, 90, 75, 45, 86, 86, 77, 56, 88, 78, 90, 60, 79, 34, 11, 63, 53]","[129515, 129890, 130429, 130954, 131444, 131944, 132448, 132929, 133438, 133923, 134443, 134918, 135427, 135932, 136443, 136952, 137424, 137897, 138414, 138920, 139413, 139906, 140442, 140904]","[129444, 129944, 130444, 130945, 131444, 131944, 132444, 132944, 133454, 133939, 134457, 134934, 135442, 135947, 136459, 136968, 137440, 137913, 138429, 138936, 139428, 139920, 140457, 140919]",101,SB,L,R,ITMSR,1.1,
5,500,practice,0,1,1,1,practice,"['S', 'S', 'S', 'S', 'S', 'S', 'S', 'S', 'C', 'C', 'C', 'C', 'C', 'C', 'C', 'C', 'C', 'C', 'C', 'C', 'C', 'C', 'C', 'C']","[146693, 147105, 147489, 147956, 148427, 148977, 149458, 149941, 150435, 150929, 151409, 151903, 152386, 152878, 153360, 153834, 154316, 154827, 155322, 155810, 156352, 156790, 157255, 157750]","[146752, 147172, 147566, 148025, 148495, 149031, 149513, 149989, 150506, 150973, 151473, 151963, 152455, 152929, 153408, 153896, 154394, 154897, 155379, 155863, 156372, 156837, 157310, 157803]","[214, 49, 94, 68, 102, 65, 74, 34, 92, 75, 106, 86, 99, 77, 64, 81, 97, 16, 199, 244, 217, 23, 24, 229]","[146699, 147108, 147493, 147960, 148430, 148979, 149462, 149945, 150439, 150933, 151413, 151908, 152389, 152881, 153364, 153838, 154320, 154832, 155328, 155814, 156355, 156793, 157259, 157755]","[146477, 146977, 147477, 147977, 148477, 148977, 149477, 149977, 150455, 150949, 151429, 151923, 152407, 152898, 153380, 153854, 154336, 154847, 155342, 155830, 156372, 156810, 157275, 157770]",101,SB,L,R,ITMSR,1.1,
2,500,practice,0,2,2,2,practice,"['S', 'S', 'S', 'S', 'S', 'S', 'S', 'S', 'C', 'C', 'C', 'C', 'C', 'C', 'C', 'C', 'C', 'C', 'C', 'C', 'C', 'C', 'C', 'C']","[163353, 163779, 164230, 164645, 165153, 165644, 166126, 166635, 167158, 167657, 168165, 168700, 169235, 169681, 170163, 170680, 171183, 171711, 172232, 172733, 173275, 173828, 174322, 174851]","[163414, 163858, 164312, 164730, 165236, 165740, 166210, 166703, 167225, 167704, 168233, 168735, 169283, 169744, 170228, 170738, 171245, 171761, 172285, 172793, 173351, 173885, 174387, 174923]","[226, 70, 213, 13, 5, 42, 37, 6, 244, 184, 252, 133, 214, 229, 238, 173, 253, 227, 253, 12, 38, 20, 254, 34]","[163359, 163782, 164235, 164648, 165158, 165648, 166131, 166639, 167162, 167662, 168170, 168707, 169239, 169687, 170167, 170685, 171188, 171716, 172237, 172738, 173279, 173833, 174327, 174855]","[163151, 163651, 164151, 164652, 165151, 165651, 166151, 166651, 167178, 167677, 168185, 168720, 169255, 169701, 170183, 170700, 171203, 171731, 172252, 172753, 173295, 173848, 174342, 174871]",101,SB,L,R,ITMSR,1.1,
4,500,practice,0,3,3,3,practice,"['S', 'S', 'S', 'S', 'S', 'S', 'S', 'S', 'C', 'C', 'C', 'C', 'C', 'C', 'C', 'C', 'C', 'C', 'C', 'C', 'C', 'C', 'C', 'C']","[180692, 181192, 181590, 182005, 182464, 182923, 183430, 183919, 184421, 184901, 185382, 185888, 186365, 186900, 187372, 187904, 188402, 188881, 189406, 189908, 190425, 190895, 191455, 191966]","[180764, 181279, 181688, 182072, 182546, 183016, 183519, 183989, 184489, 184971, 185465, 185964, 186438, 186992, 187454, 187985, 188476, 188964, 189502, 189996, 190523, 191000, 191549, 192037]","[137, 234, 223, 175, 223, 255, 222, 184, 103, 238, 153, 91, 105, 171, 174, 139, 170, 208, 143, 214, 182, 163, 43, 111]","[180707, 181204, 181603, 182017, 182475, 182935, 183445, 183930, 184435, 184921, 185395, 185904, 186379, 186913, 187383, 187918, 188417, 188894, 189422, 189921, 190439, 190908, 191485, 191980]","[180444, 180944, 181444, 181944, 182445, 182945, 183445, 183945, 184441, 184921, 185402, 185908, 186385, 186920, 187393, 187924, 188422, 188901, 189426, 189928, 190445, 190915, 191475, 191986]",101,SB,L,R,ITMSR,1.1,
1,500,practice,0,4,4,4,practice,"['S', 'S', 'S', 'S', 'S', 'S', 'S', 'S', 'C', 'C', 'C', 'C', 'C', 'C', 'C', 'C', 'C', 'C', 'C', 'C', 'C', 'C', 'C', 'C']","[197911, 198290, 198703, 199150, 199644, 200112, 200640, 201128, 201627, 202115, 202622, 203122, 203624, 204127, 204607, 205139, 205616, 206106, 206604, 207135, 207626, 208089, 208594, 209105]","[197965, 198369, 198787, 199232, 199727, 200199, 200716, 201199, 201714, 202196, 202702, 203193, 203687, 204206, 204699, 205212, 205683, 206170, 206680, 207223, 207711, 208189, 208698, 209177]","[155, 139, 183, 157, 170, 177, 183, 181, 104, 102, 11, 76, 120, 116, 89, 73, 171, 12, 150, 161, 149, 198, 188, 155]","[197924, 198304, 198715, 199163, 199656, 200127, 200669, 201140, 201641, 202128, 202635, 203133, 203635, 204138, 204619, 205151, 205626, 206119, 206615, 207145, 207639, 208100, 208606, 209120]","[197678, 198178, 198678, 199178, 199678, 200178, 200678, 201178, 201647, 202135, 202642, 203142, 203644, 204147, 204627, 205159, 205636, 206126, 206624, 207155, 207646, 208109, 208614, 209125]",101,SB,L,R,ITMSR,1.1,
0,500,practice,0,5,5,5,practice,"['S', 'S', 'S', 'S', 'S', 'S', 'S', 'S', 'C', 'C', 'C', 'C', 'C', 'C', 'C', 'C', 'C', 'C', 'C', 'C', 'C', 'C', 'C', 'C']","[214989, 215384, 215764, 216216, 216688, 217169, 217679, 218173, 218687, 219200, 219683, 220188, 220692, 221167, 221680, 222143, 222657, 223142, 223640, 224146, 224638, 225098, 225636, 226128]","[215064, 215470, 215861, 216302, 216770, 217259, 217769, 218260, 218786, 219289, 219763, 220259, 220778, 221261, 221752, 222229, 222744, 223204, 223724, 224199, 224712, 225192, 225727, 226196]","[1, 37, 15, 2, 25, 221, 245, 90, 195, 158, 182, 223, 2, 26, 209, 199, 169, 244, 228, 183, 220, 7, 238, 227]","[215003, 215395, 215780, 216225, 216698, 217182, 217691, 218198, 218700, 219211, 219697, 220198, 220702, 221178, 221690, 222153, 222670, 223154, 223651, 224157, 224650, 225108, 225645, 226137]","[214779, 215278, 215778, 216279, 216778, 217278, 217778, 218278, 218707, 219220, 219703, 220208, 220712, 221187, 221700, 222163, 222678, 223162, 223661, 224166, 224658, 225118, 225656, 226148]",101,SB,L,R,ITMSR,1.1,
4,600,trial,0,6,6,6,trial,"['S', 'S', 'S', 'S', 'S', 'S', 'S', 'S', 'C', 'C', 'C', 'C', 'C', 'C', 'C', 'C', 'C', 'C', 'C', 'C', 'C', 'C', 'C', 'C']","[261667, 262125, 262445, 263095, 263746, 264395, 264977, 265575, 266169, 266797, 267421, 268042, 268677, 269304, 269947, 270588, 271192, 271845, 272488, 273101, 274419, 275537, 276126, 276764]","[261747, 262184, 262520, 263142, 263820, 264475, 265048, 265657, 266225, 266862, 267481, 268087, 268728, 269366, 270010, 270641, 271271, 271924, 272558, 273182, 274476, 275632, 276216, 276844]","[233, 28, 22, 46, 76, 76, 37, 12, 145, 194, 233, 0, 231, 224, 241, 161, 234, 180, 206, 53, 55, 63, 31, 204]","[261714, 262135, 262466, 263107, 263767, 264418, 264995, 265597, 266185, 266821, 267442, 268057, 268699, 269327, 269970, 270609, 271216, 271870, 272510, 273128, 274442, 275565, 276149, 276786]","[261370, 261970, 262571, 263170, 263770, 264370, 264970, 265570, 266189, 266817, 267441, 268062, 268697, 269324, 269967, 270608, 271212, 271865, 272508, 273121, 274439, 275557, 276146, 276784]",101,SB,L,R,ITMSR,1.1,
3,400,trial,0,7,7,7,trial,"['S', 'S', 'S', 'S', 'S', 'S', 'S', 'C', 'C', 'C', 'C', 'C', 'C', 'C', 'C', 'C', 'C', 'C', 'C', 'C', 'C', 'C', 'C']","[282619, 282990, 283430, 283879, 284271, 284665, 285067, 285462, 285833, 286215, 286594, 287012, 287379, 287765, 288172, 288568, 288962, 289359, 289774, 290159, 290547, 290960, 291348]","[282696, 283102, 283517, 283943, 284336, 284730, 285121, 285508, 285881, 286259, 286643, 287051, 287430, 287822, 288210, 288624, 289009, 289406, 289821, 290207, 290605, 291010, 291399]","[18, 57, 90, 83, 97, 53, 57, 17, 54, 24, 249, 68, 190, 245, 12, 254, 193, 255, 244, 11, 60, 33, 38]","[282640, 283049, 283455, 283901, 284293, 284686, 285087, 285485, 285853, 286235, 286616, 287029, 287403, 287790, 288189, 288589, 288984, 289381, 289794, 290179, 290570, 290981, 291368]","[282392, 282792, 283192, 283592, 283992, 284392, 284792, 285192, 285483, 285853, 286235, 286614, 287032, 287399, 287785, 288192, 288588, 288983, 289379, 289794, 290179, 290567, 290980, 291368]",101,SB,L,R,ITMSR,1.1,
1,400,trial,0,8,8,8,trial,"['S', 'S', 'S', 'S', 'S', 'S', 'S', 'S', 'C', 'C', 'C', 'C', 'C', 'C', 'C', 'C', 'C', 'C', 'C', 'C', 'C', 'C', 'C', 'C']","[297213, 297554, 297835, 298173, 298539, 298907, 299291, 299680, 300081, 300482, 300894, 301285, 301680, 302072, 302472, 302865, 303260, 303667, 304056, 304455, 304835, 305227, 305634, 306023]","[297259, 297600, 297875, 298214, 298586, 298959, 299338, 299725, 300121, 300522, 300932, 301326, 301725, 302119, 302509, 302907, 303300, 303717, 304102, 304502, 304874, 305274, 305684, 306070]","[202, 222, 158, 140, 196, 217, 176, 112, 92, 100, 79, 76, 111, 126, 24, 56, 242, 137, 146, 149, 208, 34, 119, 128]","[297228, 297570, 297848, 298187, 298552, 298920, 299304, 299699, 300096, 300497, 300908, 301300, 301696, 302089, 302487, 302880, 303277, 303682, 304070, 304477, 304850, 305247, 305649, 306039]","[296972, 297372, 297773, 298173, 298573, 298973, 299373, 299773, 300101, 300503, 300914, 301305, 301700, 302092, 302492, 302885, 303280, 303687, 304076, 304475, 304856, 305247, 305654, 306043]",101,SB,L,R,ITMSR,1.1,
2,600,trial,0,9,9,9,trial,"['S', 'S', 'S', 'S', 'S', 'S', 'S', 'S', 'C', 'C', 'C', 'C', 'C', 'C', 'C', 'C', 'C', 'C', 'C', 'C', 'C', 'C', 'C', 'C']","[311845, 312128, 312508, 313237, 313875, 314492, 315122, 315750, 316355, 316993, 317630, 318238, 318885, 319521, 320158, 320808, 321439, 322073, 322674, 323314, 323951, 324555, 325185, 325854]","[311874, 312164, 312566, 313280, 313922, 314550, 315172, 315795, 316401, 317045, 317678, 318290, 318936, 319571, 320206, 320843, 321469, 322114, 322722, 323386, 324006, 324600, 325226, 325905]","[134, 186, 37, 241, 33, 54, 254, 212, 222, 188, 46, 27, 46, 28, 253, 204, 13, 6, 65, 50, 18, 208, 109, 51]","[311856, 312143, 312521, 313251, 313888, 314505, 315137, 315764, 316371, 317010, 317643, 318255, 318902, 319538, 320178, 320822, 321451, 322085, 322690, 323330, 323968, 324569, 325198, 325868]","[311601, 312201, 312801, 313401, 314001, 314601, 315201, 315801, 316376, 317014, 317650, 318258, 318905, 319541, 320178, 320828, 321459, 322093, 322694, 323334, 323971, 324575, 325206, 325874]",101,SB,L,R,ITMSR,1.1,
1,600,trial,0,10,10,10,trial,"['S', 'S', 'S', 'S', 'S', 'S', 'S', 'S', 'C', 'C', 'C', 'C', 'C', 'C', 'C', 'C', 'C', 'C', 'C', 'C', 'C', 'C', 'C', 'C']","[331730, 332035, 332602, 333249, 333835, 334448, 335063, 335662, 336269, 336878, 337478, 338083, 338689, 339288, 339922, 340544, 341154, 341767, 342364, 342975, 343579, 344193, 344793, 345413]","[331764, 332096, 332647, 333291, 333894, 334514, 335115, 335717, 336343, 336927, 337538, 338150, 338736, 339352, 339972, 340625, 341225, 341848, 342409, 343022, 343631, 344237, 344841, 345494]","[179, 239, 68, 212, 255, 9, 251, 17, 21, 35, 252, 30, 160, 70, 240, 41, 30, 45, 242, 212, 241, 51, 188, 120]","[331746, 332051, 332614, 333262, 333852, 334470, 335082, 335679, 336284, 336893, 337499, 338103, 338705, 339302, 339942, 340561, 341171, 341783, 342380, 342991, 343599, 344213, 344809, 345440]","[331508, 332107, 332707, 333307, 333907, 334508, 335107, 335707, 336289, 336898, 337498, 338103, 338709, 339308, 339942, 340564, 341174, 341787, 342384, 342995, 343599, 344213, 344813, 345433]",101,SB,L,R,ITMSR,1.1,
0,400,trial,0,11,11,11,trial,"['S', 'S', 'S', 'S', 'S', 'S', 'S', 'C', 'C', 'C', 'C', 'C', 'C', 'C', 'C', 'C', 'C', 'C', 'C', 'C', 'C', 'C', 'C']","[351562, 351835, 352175, 352529, 352932, 353313, 353726, 354099, 354468, 354855, 355239, 355636, 356002, 356405, 356790, 357183, 357559, 357942, 358323, 358717, 359096, 359476, 359874]","[351602, 351872, 352219, 352581, 352980, 353375, 353784, 354168, 354513, 354934, 355316, 355705, 356078, 356476, 356867, 357233, 357641, 357995, 358369, 358768, 359142, 359525, 359956]","[207, 89, 107, 184, 197, 209, 238, 245, 190, 230, 13, 198, 238, 237, 23, 224, 173, 142, 132, 232, 137, 175, 236]","[351577, 351851, 352192, 352547, 352949, 353332, 353746, 354116, 354485, 354876, 355259, 355651, 356023, 356425, 356807, 357199, 357580, 357962, 358339, 358734, 359111, 359493, 359895]","[351022, 351422, 351822, 352222, 352622, 353022, 353422, 353822, 354119, 354488, 354875, 355259, 355656, 356022, 356425, 356810, 357203, 357579, 357962, 358343, 358737, 359116, 359496, 359895]",101,SB,L,R,ITMSR,1.1,
5,600,trial,0,12,12,12,trial,"['S', 'S', 'S', 'S', 'S', 'S', 'S', 'S', 'C', 'C', 'C', 'C', 'C', 'C', 'C', 'C', 'C', 'C', 'C', 'C', 'C', 'C', 'C', 'C']","[365705, 365942, 366596, 367227, 367835, 368470, 369053, 369666, 370225, 370812, 371435, 372000, 372638, 373257, 373811, 374421, 374993, 375576, 376171, 376754, 377379, 377980, 378588, 379210]","[365741, 365983, 366649, 367292, 367907, 368540, 369102, 369704, 370278, 370868, 371514, 372056, 372711, 373304, 373864, 374467, 375042, 375616, 376230, 376812, 377437, 378018, 378633, 379242]","[144, 194, 75, 66, 60, 62, 203, 166, 168, 49, 60, 36, 33, 200, 52, 235, 4, 239, 14, 174, 186, 80, 250, 71]","[365721, 365957, 366605, 367241, 367851, 368484, 369069, 369681, 370242, 370826, 371452, 372016, 372652, 373272, 373825, 374433, 375009, 375588, 376186, 376771, 377402, 377994, 378599, 379224]","[365465, 366065, 366665, 367265, 367865, 368465, 369065, 369666, 370245, 370832, 371456, 372020, 372658, 373277, 373831, 374441, 375013, 375597, 376192, 376774, 377399, 378000, 378608, 379230]",101,SB,L,R,ITMSR,1.1,
5,400,trial,0,13,13,13,trial,"['S', 'S', 'S', 'S', 'S', 'S', 'S', 'S', 'C', 'C', 'C', 'C', 'C', 'C', 'C', 'C', 'C', 'C', 'C', 'C', 'C', 'C', 'C', 'C']","[385065, 385429, 385684, 386030, 386420, 386798, 387212, 387610, 388014, 388395, 388814, 389203, 389601, 390013, 390411, 390811, 391212, 391612, 391991, 392383, 392801, 393224, 393616, 394014]","[385116, 385482, 385744, 386098, 386495, 386876, 387270, 387688, 388081, 388466, 388881, 389278, 389672, 390078, 390492, 390873, 391285, 391664, 392073, 392451, 392890, 393305, 393677, 394071]","[147, 77, 168, 203, 13, 191, 222, 162, 128, 200, 220, 114, 229, 9, 26, 135, 190, 241, 228, 186, 14, 252, 16, 244]","[385078, 385446, 385698, 386045, 386442, 386820, 387228, 387630, 388035, 388416, 388831, 389221, 389621, 390033, 390428, 390832, 391229, 391632, 392011, 392403, 392821, 393241, 393633, 394031]","[384867, 385267, 385667, 386067, 386467, 386867, 387267, 387667, 388034, 388415, 388834, 389223, 389621, 390033, 390431, 390831, 391232, 391632, 392011, 392403, 392821, 393244, 393636, 394034]",101,SB,L,R,ITMSR,1.1,
5,400,trial,0,14,14,14,trial,"['S', 'S', 'S', 'S', 'S', 'S', 'S', 'S', 'C', 'C', 'C', 'C', 'C', 'C', 'C', 'C', 'C', 'C', 'C', 'C', 'C', 'C', 'C', 'C']","[399840, 400087, 400390, 400744, 401141, 401526, 401938, 402349, 402747, 403136, 403516, 403928, 404307, 404711, 405106, 405506, 405894, 406308, 406672, 407093, 407499, 407887, 408266, 408690]","[399884, 400140, 400464, 400827, 401212, 401611, 402024, 402428, 402826, 403184, 403600, 403976, 404363, 404785, 405158, 405556, 405943, 406370, 406733, 407151, 407545, 407963, 408340, 408762]","[31, 55, 99, 122, 81, 230, 157, 106, 219, 29, 252, 167, 104, 195, 94, 54, 112, 40, 129, 86, 237, 108, 191, 179]","[399859, 400102, 400406, 400761, 401161, 401543, 401958, 402370, 402767, 403153, 403532, 403945, 404327, 404731, 405126, 405524, 405910, 406329, 406689, 407113, 407517, 407908, 408284, 408707]","[399623, 400023, 400423, 400823, 401223, 401624, 402024, 402424, 402767, 403156, 403536, 403948, 404327, 404731, 405126, 405526, 405914, 406328, 406692, 407113, 407519, 407907, 408286, 408710]",101,SB,L,R,ITMSR,1.1,
0,600,trial,0,15,15,15,trial,"['S', 'S', 'S', 'S', 'S', 'S', 'S', 'S', 'C', 'C', 'C', 'C', 'C', 'C', 'C', 'C', 'C', 'C', 'C', 'C', 'C', 'C', 'C', 'C']","[414541, 414863, 415541, 416130, 416715, 417325, 417933, 418504, 419132, 419715, 420294, 420883, 421460, 422022, 422586, 423173, 423738, 424317, 424873, 425445, 425998, 426551, 427162, 427723]","[414612, 414920, 415588, 416183, 416764, 417373, 417980, 418582, 419174, 419759, 420342, 420935, 421521, 422064, 422670, 423221, 423789, 424354, 424930, 425490, 426060, 426594, 427212, 427763]","[11, 108, 153, 166, 216, 179, 174, 180, 25, 147, 212, 174, 238, 168, 190, 8, 179, 95, 198, 32, 178, 129, 188, 158]","[414569, 414877, 415553, 416144, 416728, 417339, 417949, 418520, 419149, 419731, 420311, 420900, 421477, 422035, 422602, 423190, 423750, 424331, 424884, 425461, 426015, 426567, 427176, 427735]","[414370, 414970, 415570, 416171, 416770, 417370, 417970, 418570, 419152, 419735, 420314, 420903, 421480, 422042, 422606, 423193, 423758, 424337, 424893, 425465, 426018, 426571, 427182, 427743]",101,SB,L,R,ITMSR,1.1,
3,600,trial,0,16,16,16,trial,"['S', 'S', 'S', 'S', 'S', 'S', 'S', 'S', 'C', 'C', 'C', 'C', 'C', 'C', 'C', 'C', 'C', 'C', 'C', 'C', 'C', 'C', 'C', 'C']","[433377, 433679, 434321, 434928, 435514, 436122, 436752, 437303, 437908, 438525, 439142, 439733, 440359, 440968, 441585, 442204, 442798, 443394, 444008, 444619, 445239, 445858, 446475, 447075]","[433402, 433713, 434363, 434958, 435552, 436158, 436784, 437342, 437952, 438564, 439170, 439776, 440392, 441024, 441628, 442241, 442824, 443427, 444057, 444664, 445277, 445894, 446517, 447111]","[34, 188, 210, 158, 214, 192, 80, 216, 77, 14, 193, 108, 212, 23, 142, 16, 151, 232, 179, 173, 46, 170, 235, 128]","[433389, 433691, 434331, 434940, 435528, 436137, 436763, 437321, 437923, 438540, 439157, 439750, 440373, 440988, 441601, 442219, 442805, 443409, 444022, 444632, 445256, 445871, 446487, 447088]","[433146, 433746, 434347, 434946, 435546, 436146, 436746, 437346, 437928, 438545, 439162, 439753, 440379, 440988, 441605, 442224, 442818, 443414, 444028, 444639, 445259, 445878, 446495, 447095]",101,SB,L,R,ITMSR,1.1,
1,400,trial,0,17,17,17,trial,"['S', 'S', 'S', 'S', 'S', 'S', 'S', 'S', 'C', 'C', 'C', 'C', 'C', 'C', 'C', 'C', 'C', 'C', 'C', 'C', 'C', 'C', 'C', 'C']","[452632, 452928, 453177, 453551, 453937, 454313, 454707, 455105, 455508, 455909, 456282, 456672, 457089, 457486, 457882, 458280, 458654, 459077, 459464, 460733, 461162, 461549, 461954, 462380]","[452654, 452967, 453246, 453605, 453982, 454352, 454736, 455147, 455552, 455943, 456332, 456705, 457126, 457524, 457922, 458306, 458706, 459116, 459520, 460782, 461203, 461619, 462001, 462424]","[121, 7, 73, 140, 108, 57, 207, 96, 168, 126, 83, 25, 151, 205, 236, 27, 108, 122, 143, 137, 2, 88, 36, 101]","[452641, 452941, 453195, 453566, 453955, 454328, 454719, 455120, 455521, 455924, 456297, 456685, 457103, 457500, 457899, 458294, 458669, 459097, 459480, 460746, 461178, 461566, 461969, 462395]","[452416, 452815, 453215, 453615, 454016, 454415, 454815, 455215, 455528, 455929, 456302, 456692, 457109, 457506, 457902, 458300, 458674, 459097, 459484, 460753, 461182, 461570, 461974, 462400]",101,SB,L,R,ITMSR,1.1,
4,600,trial,0,18,18,18,trial,"['S', 'S', 'S', 'S', 'S', 'S', 'S', 'S', 'S', 'C', 'C', 'C', 'C', 'C', 'C', 'C', 'C', 'C', 'C', 'C', 'C', 'C', 'C', 'C', 'C']","[468128, 468352, 468686, 469103, 469693, 470266, 470871, 471477, 472082, 472675, 473291, 473873, 474477, 475031, 475649, 476242, 476816, 477423, 478005, 478606, 479202, 479773, 480401, 481014, 481607]","[468214, 468409, 468779, 469191, 469767, 470341, 470943, 471564, 472157, 472745, 473344, 473940, 474551, 475088, 475695, 476289, 476844, 477448, 478042, 478642, 479254, 479813, 480445, 481070, 481639]","[237, 251, 15, 227, 210, 226, 202, 234, 232, 183, 220, 233, 174, 161, 92, 124, 147, 30, 218, 156, 59, 204, 57, 248, 239]","[468154, 468364, 468701, 469112, 469706, 470279, 470892, 471491, 472097, 472691, 473303, 473883, 474493, 475045, 475665, 476257, 476828, 477435, 478020, 478620, 479222, 479790, 480421, 481039, 481623]","[467917, 468517, 469117, 469718, 470317, 470917, 471517, 472117, 472695, 473311, 473893, 474498, 475052, 475669, 476262, 476836, 477443, 478025, 478626, 479222, 479793, 480421, 481034, 481627]",101,SB,L,R,ITMSR,1.1,
5,600,trial,0,19,19,19,trial,"['S', 'S', 'S', 'S', 'S', 'S', 'S', 'S', 'C', 'C', 'C', 'C', 'C', 'C', 'C', 'C', 'C', 'C', 'C', 'C', 'C', 'C', 'C', 'C']","[487566, 487792, 488453, 489056, 489695, 490287, 490924, 491540, 492150, 492751, 493349, 493955, 494560, 495169, 495774, 496407, 497062, 497685, 498291, 498893, 499552, 500136, 500742, 501357]","[487622, 487863, 488509, 489109, 489752, 490376, 490977, 491614, 492201, 492812, 493414, 494019, 494629, 495268, 495862, 496470, 497153, 497768, 498378, 498976, 499606, 500211, 500816, 501425]","[64, 117, 132, 192, 116, 219, 126, 170, 67, 76, 115, 133, 205, 162, 199, 175, 148, 192, 188, 216, 204, 211, 201, 206]","[487580, 487814, 488465, 489077, 489707, 490307, 490943, 491565, 492167, 492766, 493363, 493968, 494581, 495180, 495788, 496418, 497074, 497701, 498301, 498906, 499560, 500146, 500753, 501365]","[487359, 487959, 488559, 489159, 489759, 490359, 490959, 491559, 492170, 492771, 493369, 493975, 494580, 495190, 495794, 496428, 497082, 497705, 498311, 498913, 499572, 500156, 500762, 501378]",101,SB,L,R,ITMSR,1.1,
4,400,trial,0,20,20,20,trial,"['S', 'S', 'S', 'S', 'S', 'S', 'S', 'C', 'C', 'C', 'C', 'C', 'C', 'C', 'C', 'C', 'C', 'C', 'C', 'C', 'C', 'C', 'C']","[507067, 507382, 507803, 508242, 508651, 509083, 509498, 509908, 510311, 510705, 511117, 511518, 511915, 512316, 512732, 513130, 513496, 513920, 514324, 514757, 515133, 515539, 515965]","[507140, 507479, 507888, 508323, 508729, 509145, 509552, 509976, 510358, 510764, 511165, 511581, 511955, 512377, 512784, 513191, 513565, 513977, 514386, 514818, 515220, 515623, 516032]","[208, 43, 14, 168, 138, 101, 62, 4, 203, 79, 44, 53, 238, 74, 205, 53, 129, 80, 95, 39, 16, 54, 61]","[507082, 507394, 507810, 508253, 508660, 509095, 509509, 509922, 510325, 510715, 511129, 511531, 511925, 512328, 512749, 513143, 513508, 513931, 514337, 514774, 515146, 515554, 515978]","[506757, 507156, 507556, 507956, 508356, 508756, 509156, 509556, 509928, 510331, 510725, 511137, 511538, 511935, 512336, 512752, 513150, 513516, 513940, 514344, 514777, 515153, 515559, 515985]",101,SB,L,R,ITMSR,1.1,
3,400,trial,0,21,21,21,trial,"['S', 'S', 'S', 'S', 'S', 'S', 'S', 'C', 'C', 'C', 'C', 'C', 'C', 'C', 'C', 'C', 'C', 'C', 'C', 'C', 'C', 'C', 'C']","[521716, 522118, 522537, 522964, 523343, 523751, 524124, 524541, 524917, 525302, 525712, 526104, 526492, 526901, 527284, 527704, 528126, 528513, 528909, 529287, 529662, 530067, 530454]","[521755, 522171, 522602, 523022, 523406, 523798, 524182, 524594, 524978, 525363, 525766, 526154, 526547, 526990, 527351, 527763, 528167, 528569, 528976, 529350, 529733, 530138, 530513]","[88, 202, 231, 115, 70, 20, 92, 70, 68, 89, 16, 35, 121, 180, 94, 219, 250, 11, 34, 67, 27, 56, 46]","[521725, 522127, 522547, 522975, 523358, 523766, 524135, 524553, 524930, 525315, 525725, 526117, 526503, 526927, 527295, 527714, 528138, 528523, 528922, 529300, 529673, 530080, 530466]","[521394, 521794, 522194, 522594, 522994, 523394, 523794, 524194, 524561, 524937, 525322, 525732, 526125, 526512, 526921, 527304, 527724, 528146, 528533, 528929, 529307, 529682, 530087, 530475]",101,SB,L,R,ITMSR,1.1,
0,400,trial,0,22,22,22,trial,"['S', 'S', 'S', 'S', 'S', 'S', 'S', 'S', 'C', 'C', 'C', 'C', 'C', 'C', 'C', 'C', 'C', 'C', 'C', 'C', 'C', 'C', 'C', 'C']","[536012, 536276, 536596, 536977, 537355, 537747, 538147, 538554, 538956, 539352, 539752, 540138, 540541, 540925, 541334, 541715, 542078, 542465, 542867, 543259, 543659, 544056, 544418, 544803]","[536062, 536347, 536662, 537047, 537414, 537808, 538203, 538619, 539009, 539416, 539813, 540196, 540623, 541008, 541381, 541783, 542143, 542522, 542908, 543305, 543698, 544097, 544475, 544859]","[51, 102, 195, 218, 214, 178, 167, 166, 190, 185, 124, 125, 93, 58, 40, 79, 105, 100, 121, 104, 38, 104, 149, 164]","[536025, 536289, 536605, 536988, 537364, 537757, 538158, 538564, 538967, 539363, 539766, 540151, 540562, 540962, 541345, 541727, 542091, 542476, 542876, 543271, 543670, 544065, 544428, 544816]","[535788, 536188, 536588, 536988, 537389, 537789, 538189, 538589, 538976, 539372, 539772, 540158, 540561, 540945, 541355, 541735, 542098, 542485, 542887, 543279, 543679, 544076, 544438, 544823]",101,SB,L,R,ITMSR,1.1,
0,600,trial,0,23,23,23,trial,"['S', 'S', 'S', 'S', 'S', 'S', 'S', 'S', 'C', 'C', 'C', 'C', 'C', 'C', 'C', 'C', 'C', 'C', 'C', 'C', 'C', 'C', 'C', 'C']","[550642, 550955, 551553, 552152, 552750, 553359, 553938, 554535, 555155, 555735, 556329, 556907, 557487, 558066, 558653, 559216, 559816, 560405, 561014, 561595, 562149, 562702, 563273, 563887]","[550682, 551005, 551611, 552204, 552793, 553404, 553985, 554584, 555213, 555795, 556385, 556964, 557534, 558121, 558697, 559279, 559876, 560454, 561058, 561658, 562214, 562749, 563338, 563931]","[121, 148, 241, 200, 202, 186, 203, 233, 242, 246, 226, 204, 223, 245, 219, 191, 213, 179, 180, 189, 236, 205, 188, 157]","[550651, 550964, 551561, 552161, 552758, 553369, 553948, 554544, 555163, 555744, 556338, 556915, 557495, 558075, 558662, 559225, 559826, 560415, 561024, 561603, 562158, 562712, 563283, 563898]","[550380, 550980, 551580, 552180, 552780, 553380, 553980, 554580, 555175, 555755, 556349, 556928, 557507, 558086, 558673, 559236, 559836, 560425, 561034, 561615, 562169, 562722, 563293, 563907]",101,SB,L,R,ITMSR,1.1,
1,600,trial,0,24,24,24,trial,"['S', 'S', 'S', 'S', 'S', 'S', 'S', 'S', 'C', 'C', 'C', 'C', 'C', 'C', 'C', 'C', 'C', 'C', 'C', 'C', 'C', 'C', 'C', 'C']","[569928, 570335, 570760, 571293, 571908, 572504, 573119, 573724, 574303, 574883, 575453, 575981, 576556, 577125, 577757, 578313, 578894, 579463, 580104, 580664, 581228, 581776, 582364, 582975]","[570011, 570424, 570853, 571371, 571959, 572563, 573181, 573786, 574371, 574959, 575495, 576045, 576637, 577189, 577804, 578373, 578926, 579521, 580146, 580731, 581286, 581821, 582435, 583033]","[98, 234, 79, 171, 227, 53, 181, 2, 40, 105, 185, 166, 169, 249, 28, 243, 114, 43, 49, 31, 6, 36, 82, 48]","[569938, 570344, 570769, 571337, 571913, 572511, 573123, 573732, 574312, 574892, 575462, 575990, 576565, 577130, 577762, 578319, 578902, 579468, 580111, 580669, 581234, 581782, 582369, 582980]","[569569, 570169, 570769, 571369, 571969, 572569, 573169, 573769, 574323, 574903, 575473, 576002, 576576, 577145, 577777, 578333, 578914, 579483, 580124, 580684, 581249, 581796, 582384, 582995]",101,SB,L,R,ITMSR,1.1,
2,600,trial,0,25,25,25,trial,"['S', 'S', 'S', 'S', 'S', 'S', 'S', 'S', 'C', 'C', 'C', 'C', 'C', 'C', 'C', 'C', 'C', 'C', 'C', 'C', 'C', 'C', 'C', 'C']","[588901, 589219, 589807, 590426, 591065, 591682, 592210, 592849, 593447, 593986, 594574, 595201, 595714, 596263, 596832, 597398, 597980, 598545, 599096, 599688, 600274, 600849, 601459, 602033]","[588972, 589288, 589869, 590495, 591125, 591729, 592279, 592903, 593516, 594045, 594643, 595222, 595786, 596306, 596900, 597458, 598054, 598636, 599222, 599842, 600397, 600995, 601644, 602254]","[103, 240, 93, 39, 35, 226, 45, 231, 237, 204, 254, 216, 217, 198, 201, 222, 219, 221, 189, 222, 224, 213, 223, 204]","[588908, 589224, 589810, 590430, 591070, 591688, 592215, 592856, 593453, 593992, 594579, 595204, 595718, 596268, 596835, 597401, 597983, 598548, 599099, 599692, 600278, 600852, 601462, 602036]","[588719, 589319, 589919, 590519, 591119, 591719, 592319, 592919, 593467, 594007, 594594, 595221, 595734, 596283, 596852, 597419, 598000, 598565, 599116, 599708, 600294, 600869, 601479, 602053]",101,SB,L,R,ITMSR,1.1,
4,400,trial,0,26,26,26,trial,"['S', 'S', 'S', 'S', 'S', 'S', 'S', 'C', 'C', 'C', 'C', 'C', 'C', 'C', 'C', 'C', 'C', 'C', 'C', 'C', 'C', 'C', 'C']","[608149, 608608, 608956, 609381, 609765, 610194, 610574, 610996, 611390, 611806, 612214, 612591, 613038, 613421, 613856, 614249, 614681, 615105, 615508, 615919, 616288, 616741, 617176]","[608233, 608657, 609027, 609447, 609848, 610271, 610648, 611056, 611458, 611826, 612234, 612675, 613106, 613441, 613876, 614328, 614763, 615175, 615528, 615995, 616370, 616829, 617196]","[117, 214, 226, 185, 191, 76, 101, 95, 182, 188, 176, 186, 141, 105, 150, 184, 213, 173, 89, 178, 203, 181, 84]","[608158, 608614, 608961, 609387, 609771, 610202, 610581, 611003, 611395, 611811, 612219, 612595, 613043, 613425, 613861, 614253, 614685, 615109, 615514, 615923, 616291, 616744, 617181]","[607824, 608224, 608624, 609025, 609424, 609824, 610224, 610624, 611016, 611410, 611826, 612234, 612611, 613058, 613441, 613876, 614269, 614701, 615126, 615528, 615939, 616308, 616761, 617196]",101,SB,L,R,ITMSR,1.1,
2,400,trial,0,27,27,27,trial,"['S', 'S', 'S', 'S', 'S', 'S', 'S', 'S', 'C', 'C', 'C', 'C', 'C', 'C', 'C', 'C', 'C', 'C', 'C', 'C', 'C', 'C', 'C', 'C']","[623157, 623493, 623807, 624122, 624473, 624831, 625261, 625647, 626063, 626429, 626834, 627203, 627593, 628026, 628389, 628810, 629212, 629645, 630021, 630403, 630820, 631208, 631610, 632032]","[623232, 623566, 623893, 624200, 624546, 624918, 625330, 625713, 626131, 626510, 626914, 627294, 627672, 628105, 628473, 628896, 629292, 629712, 630112, 630494, 630923, 631292, 631704, 632114]","[225, 139, 255, 226, 167, 182, 68, 163, 163, 179, 156, 218, 154, 229, 108, 214, 203, 198, 147, 152, 186, 139, 200, 202]","[623184, 623521, 623820, 624138, 624492, 624856, 625286, 625666, 626087, 626451, 626862, 627224, 627616, 628042, 628405, 628824, 629227, 629661, 630041, 630423, 630840, 631233, 631632, 632052]","[622930, 623330, 623730, 624130, 624530, 624930, 625330, 625730, 626083, 626449, 626854, 627223, 627613, 628046, 628409, 628830, 629232, 629665, 630041, 630423, 630840, 631228, 631630, 632052]",101,SB,L,R,ITMSR,1.1,
2,400,trial,0,28,28,28,trial,"['S', 'S', 'S', 'S', 'S', 'S', 'S', 'S', 'C', 'C', 'C', 'C', 'C', 'C', 'C', 'C', 'C', 'C', 'C', 'C', 'C', 'C', 'C', 'C']","[637987, 638228, 638583, 638965, 639376, 639739, 640118, 640522, 640935, 641337, 641701, 642094, 642501, 642889, 643276, 643693, 644062, 644467, 644885, 645275, 645672, 646016, 646443, 646859]","[638062, 638326, 638672, 639047, 639436, 639816, 640202, 640600, 641016, 641418, 641784, 642170, 642579, 642956, 643348, 643739, 644115, 644535, 644953, 645327, 645739, 646069, 646517, 646941]","[69, 186, 112, 165, 68, 52, 102, 0, 87, 62, 85, 46, 132, 88, 96, 67, 52, 133, 104, 39, 49, 43, 120, 62]","[638008, 638254, 638607, 638988, 639395, 639768, 640152, 640548, 640967, 641363, 641729, 642127, 642527, 642909, 643290, 643706, 644078, 644483, 644911, 645289, 645694, 646030, 646463, 646880]","[637800, 638200, 638600, 639000, 639400, 639800, 640200, 640600, 640955, 641357, 641721, 642114, 642521, 642909, 643296, 643714, 644082, 644487, 644905, 645295, 645692, 646036, 646463, 646879]",101,SB,L,R,ITMSR,1.1,
3,600,trial,0,29,29,29,trial,"['S', 'S', 'S', 'S', 'S', 'S', 'S', 'S', 'C', 'C', 'C', 'C', 'C', 'C', 'C', 'C', 'C', 'C', 'C', 'C', 'C', 'C', 'C', 'C']","[652744, 653023, 653700, 654306, 654911, 655496, 656062, 656657, 657284, 657878, 658479, 659078, 659659, 660232, 660824, 661441, 662021, 662615, 663192, 663777, 664375, 664964, 665571, 666128]","[652806, 653072, 653742, 654360, 654993, 655560, 656111, 656701, 657342, 657952, 658521, 659140, 659719, 660279, 660861, 661501, 662088, 662652, 663264, 663869, 664454, 665042, 665646, 666211]","[164, 219, 21, 31, 74, 1, 103, 86, 113, 149, 94, 56, 166, 24, 229, 134, 89, 125, 165, 197, 239, 104, 218, 201]","[652761, 653044, 653714, 654322, 654932, 655515, 656077, 656671, 657301, 657893, 658494, 659098, 659676, 660246, 660838, 661456, 662037, 662628, 663209, 663791, 664387, 664978, 665583, 666144]","[652551, 653150, 653750, 654350, 654950, 655550, 656150, 656750, 657304, 657898, 658499, 659098, 659679, 660252, 660844, 661462, 662041, 662635, 663213, 663797, 664395, 664984, 665591, 666148]",101,SB,L,R,ITMSR,1.1,
3,400,trial,0,30,30,30,trial,"['S', 'S', 'S', 'S', 'S', 'S', 'S', 'S', 'C', 'C', 'C', 'C', 'C', 'C', 'C', 'C', 'C', 'C', 'C', 'C', 'C', 'C', 'C', 'C']","[677795, 678083, 678389, 678765, 679138, 679555, 679940, 680338, 680755, 681132, 681537, 681932, 682389, 682800, 683176, 683557, 683940, 684343, 684782, 685203, 685632, 686046, 686387, 686791]","[677888, 678183, 678490, 678843, 679222, 679643, 680007, 680432, 680816, 681203, 681598, 682004, 682441, 682865, 683255, 683655, 684023, 684438, 684838, 685263, 685686, 686106, 686478, 686849]","[198, 215, 37, 29, 220, 174, 116, 139, 174, 170, 178, 207, 188, 197, 192, 113, 135, 138, 154, 115, 103, 79, 156, 164]","[677841, 678136, 678393, 678770, 679143, 679561, 679946, 680345, 680760, 681138, 681543, 681937, 682394, 682805, 683182, 683564, 683947, 684348, 684788, 685208, 685637, 686051, 686392, 686797]","[677584, 677984, 678384, 678785, 679184, 679584, 679984, 680384, 680775, 681152, 681558, 681952, 682409, 682820, 683196, 683577, 683960, 684363, 684802, 685223, 685652, 686066, 686407, 686811]",101,SB,L,R,ITMSR,1.1,
0,400,trial,0,31,31,31,trial,"['S', 'S', 'S', 'S', 'S', 'S', 'S', 'S', 'C', 'C', 'C', 'C', 'C', 'C', 'C', 'C', 'C', 'C', 'C', 'C', 'C', 'C', 'C', 'C']","[692694, 692980, 693299, 693636, 694051, 694444, 694843, 695229, 695644, 696048, 696448, 696863, 697242, 697628, 698051, 698451, 698852, 699253, 699649, 700041, 700381, 700805, 701211, 701648]","[692771, 693039, 693371, 693727, 694134, 694534, 694936, 695327, 695755, 696145, 696534, 696941, 697322, 697701, 698130, 698527, 698931, 699336, 699754, 700133, 700459, 700875, 701298, 701710]","[101, 128, 201, 249, 231, 121, 164, 194, 240, 199, 143, 165, 74, 41, 183, 99, 180, 215, 220, 119, 93, 33, 242, 93]","[692709, 692989, 693315, 693649, 694069, 694468, 694867, 695249, 695664, 696070, 696472, 696887, 697266, 697645, 698074, 698472, 698872, 699276, 699669, 700066, 700401, 700825, 701232, 701669]","[692475, 692875, 693275, 693676, 694075, 694475, 694875, 695275, 695664, 696068, 696468, 696883, 697262, 697648, 698072, 698471, 698872, 699273, 699669, 700061, 700401, 700825, 701231, 701668]",101,SB,L,R,ITMSR,1.1,
3,400,trial,0,32,32,32,trial,"['S', 'S', 'S', 'S', 'S', 'S', 'S', 'S', 'C', 'C', 'C', 'C', 'C', 'C', 'C', 'C', 'C', 'C', 'C', 'C', 'C', 'C', 'C', 'C']","[707277, 707547, 707892, 708246, 708631, 709052, 709462, 709856, 710260, 710679, 711068, 711484, 711860, 712267, 712676, 713079, 713475, 713875, 714286, 714708, 715094, 715498, 715913, 716317]","[707341, 707614, 707975, 708357, 708727, 709149, 709562, 709946, 710332, 710768, 711170, 711612, 711974, 712369, 712763, 713164, 713539, 713961, 714364, 714767, 715182, 715567, 715980, 716401]","[69, 123, 190, 219, 198, 175, 67, 36, 219, 73, 112, 136, 235, 239, 53, 89, 242, 229, 6, 105, 183, 150, 79, 160]","[707302, 707569, 707911, 708274, 708654, 709076, 709485, 709878, 710282, 710702, 711089, 711507, 711883, 712294, 712699, 713102, 713496, 713903, 714306, 714728, 715116, 715516, 715930, 716340]","[707102, 707502, 707902, 708302, 708702, 709102, 709502, 709902, 710280, 710700, 711088, 711504, 711880, 712287, 712696, 713099, 713495, 713895, 714306, 714728, 715114, 715518, 715933, 716337]",101,SB,L,R,ITMSR,1.1,
4,400,trial,0,33,33,33,trial,"['S', 'S', 'S', 'S', 'S', 'S', 'S', 'S', 'C', 'C', 'C', 'C', 'C', 'C', 'C', 'C', 'C', 'C', 'C', 'C', 'C', 'C', 'C', 'C']","[722265, 722567, 722913, 723274, 723657, 724042, 724442, 724829, 725244, 725664, 726073, 726483, 726897, 727276, 727689, 728115, 728531, 728934, 729363, 729769, 730194, 730577, 731042, 731467]","[722358, 722631, 722980, 723345, 723719, 724125, 724518, 724919, 725336, 725754, 726159, 726577, 726969, 727368, 727781, 728214, 728611, 728983, 729435, 729864, 730301, 730664, 731127, 731554]","[12, 46, 161, 194, 189, 58, 149, 142, 158, 176, 157, 155, 143, 217, 110, 5, 66, 130, 73, 95, 102, 54, 76, 129]","[722280, 722585, 722926, 723289, 723674, 724063, 724460, 724849, 725268, 725686, 726093, 726509, 726917, 727294, 727711, 728135, 728553, 728958, 729383, 729791, 730218, 730599, 731062, 731489]","[722084, 722483, 722883, 723283, 723683, 724083, 724483, 724883, 725264, 725684, 726093, 726503, 726917, 727297, 727709, 728135, 728551, 728954, 729383, 729789, 730214, 730597, 731062, 731487]",101,SB,L,R,ITMSR,1.1,
4,400,trial,0,34,34,34,trial,"['S', 'S', 'S', 'S', 'S', 'S', 'S', 'C', 'C', 'C', 'C', 'C', 'C', 'C', 'C', 'C', 'C', 'C', 'C', 'C', 'C', 'C', 'C']","[737445, 737807, 738199, 738614, 739013, 739438, 739843, 740295, 740680, 741096, 741508, 741885, 742289, 742708, 743100, 743519, 743916, 744337, 744752, 745180, 745583, 746032, 746466]","[737538, 737890, 738290, 738696, 739118, 739531, 739932, 740382, 740761, 741190, 741596, 741987, 742418, 742847, 743228, 743652, 744039, 744464, 744880, 745323, 745692, 746167, 746588]","[137, 56, 118, 30, 125, 100, 30, 31, 20, 64, 54, 107, 111, 65, 50, 96, 45, 29, 66, 18, 16, 66, 13]","[737468, 737832, 738219, 738637, 739036, 739458, 739866, 740322, 740702, 741117, 741532, 741910, 742312, 742733, 743126, 743544, 743941, 744373, 744776, 745247, 745613, 746055, 746493]","[737189, 737589, 737989, 738390, 738789, 739189, 739589, 739989, 740315, 740700, 741116, 741528, 741905, 742309, 742728, 743120, 743539, 743937, 744357, 744772, 745200, 745603, 746052, 746486]",101,SB,L,R,ITMSR,1.1,
1,400,trial,0,35,35,35,trial,"['S', 'S', 'S', 'S', 'S', 'S', 'S', 'S', 'C', 'C', 'C', 'C', 'C', 'C', 'C', 'C', 'C', 'C', 'C', 'C', 'C', 'C', 'C', 'C']","[752119, 752413, 752738, 753092, 753504, 753885, 754315, 754740, 755171, 755574, 755993, 756407, 756811, 757263, 757673, 758082, 758482, 758946, 759330, 759782, 760220, 760658, 761066, 761486]","[752214, 752500, 752822, 753181, 753571, 753956, 754378, 754789, 755209, 755617, 756030, 756452, 756875, 757332, 757746, 758189, 758587, 759043, 759420, 759869, 760298, 760762, 761134, 761582]","[117, 183, 141, 29, 78, 204, 18, 148, 196, 165, 168, 122, 200, 238, 26, 52, 2, 109, 7, 7, 250, 129, 207, 77]","[752151, 752440, 752762, 753112, 753530, 753905, 754334, 754760, 755186, 755591, 756009, 756427, 756839, 757285, 757696, 758144, 758546, 759005, 759370, 759799, 760236, 760682, 761084, 761511]","[751933, 752333, 752733, 753133, 753533, 753933, 754333, 754733, 755191, 755594, 756013, 756427, 756831, 757283, 757693, 758103, 758502, 758966, 759350, 759802, 760240, 760678, 761086, 761506]",101,SB,L,R,ITMSR,1.1,
2,400,trial,0,36,36,36,trial,"['S', 'S', 'S', 'S', 'S', 'S', 'S', 'S', 'C', 'C', 'C', 'C', 'C', 'C', 'C', 'C', 'C', 'C', 'C', 'C', 'C', 'C', 'C', 'C']","[767447, 767705, 768017, 768386, 768754, 769174, 769614, 770035, 770470, 770864, 771241, 771666, 772075, 772473, 772885, 773294, 773689, 774114, 774516, 774924, 775336, 775770, 776131, 776584]","[767539, 767789, 768119, 768463, 768839, 769259, 769703, 770121, 770556, 770931, 771319, 771763, 772146, 772554, 772971, 773385, 773769, 774231, 774604, 775005, 775424, 775843, 776223, 776666]","[89, 187, 191, 115, 211, 186, 209, 226, 212, 151, 192, 155, 86, 182, 154, 97, 84, 152, 151, 95, 208, 210, 123, 68]","[767471, 767721, 768038, 768407, 768772, 769191, 769632, 770052, 770485, 770882, 771256, 771687, 772096, 772489, 772905, 773314, 773712, 774135, 774537, 774944, 775359, 775787, 776150, 776601]","[767280, 767680, 768080, 768480, 768880, 769281, 769680, 770080, 770490, 770884, 771261, 771686, 772096, 772493, 772905, 773314, 773709, 774134, 774536, 774944, 775356, 775790, 776152, 776604]",101,SB,L,R,ITMSR,1.1,
5,400,trial,0,37,37,37,trial,"['S', 'S', 'S', 'S', 'S', 'S', 'S', 'S', 'C', 'C', 'C', 'C', 'C', 'C', 'C', 'C', 'C', 'C', 'C', 'C', 'C', 'C', 'C', 'C']","[782383, 782609, 782983, 783425, 783797, 784165, 784628, 785015, 785377, 785782, 786219, 786653, 787048, 787422, 787826, 788229, 788625, 789042, 789432, 789840, 790258, 790691, 791131, 791587]","[782466, 782697, 783072, 783560, 783913, 784227, 784648, 785036, 785398, 785873, 786295, 786674, 787104, 787487, 787912, 788321, 788705, 789145, 789518, 789932, 790337, 790756, 791190, 791643]","[222, 214, 251, 135, 164, 140, 96, 135, 140, 122, 147, 103, 161, 34, 244, 250, 42, 20, 25, 10, 241, 8, 240, 164]","[782430, 782615, 782988, 783430, 783802, 784171, 784632, 785020, 785382, 785788, 786224, 786658, 787053, 787428, 787833, 788235, 788631, 789047, 789437, 789846, 790264, 790696, 791137, 791591]","[782218, 782618, 783019, 783418, 783818, 784218, 784618, 785018, 785397, 785802, 786239, 786673, 787068, 787442, 787846, 788249, 788645, 789062, 789452, 789860, 790278, 790711, 791151, 791607]",101,SB,L,R,ITMSR,1.1,
4,600,trial,0,38,38,38,trial,"['S', 'S', 'S', 'S', 'S', 'S', 'S', 'S', 'C', 'C', 'C', 'C', 'C', 'C', 'C', 'C', 'C', 'C', 'C', 'C', 'C', 'C', 'C', 'C']","[797562, 797802, 798416, 799046, 799665, 800278, 800940, 801541, 802143, 802746, 803333, 803922, 804513, 805102, 805657, 806275, 806874, 807488, 808037, 808639, 809247, 809848, 810421, 811052]","[797665, 797947, 798638, 799220, 799782, 800390, 801083, 801734, 802373, 802946, 803546, 804183, 804689, 805281, 805844, 806512, 807043, 807701, 808288, 808879, 809474, 810067, 810642, 811248]","[177, 174, 89, 13, 9, 252, 236, 240, 35, 21, 251, 251, 221, 227, 211, 239, 208, 132, 151, 158, 171, 213, 92, 100]","[797618, 797876, 798499, 799105, 799674, 800289, 800949, 801550, 802229, 802799, 803341, 803932, 804523, 805111, 805666, 806368, 806927, 807497, 808133, 808648, 809352, 809944, 810512, 811138]","[797411, 798011, 798611, 799211, 799811, 800411, 801011, 801611, 802163, 802766, 803353, 803942, 804533, 805122, 805677, 806295, 806894, 807508, 808057, 808659, 809267, 809868, 810441, 811072]",101,SB,L,R,ITMSR,1.1,
0,400,trial,0,39,39,39,trial,"['S', 'S', 'S', 'S', 'S', 'S', 'S', 'S', 'C', 'C', 'C', 'C', 'C', 'C', 'C', 'C', 'C', 'C', 'C', 'C', 'C', 'C', 'C', 'C']","[816815, 817118, 817402, 817759, 818179, 818563, 818994, 819387, 819828, 820207, 820604, 821004, 821390, 821787, 822195, 822568, 822960, 823351, 823764, 824110, 824549, 824937, 825369, 825781]","[816928, 817209, 817540, 817898, 818290, 818702, 819077, 819504, 819919, 820312, 820724, 821153, 821549, 821915, 822292, 822679, 823097, 823473, 823897, 824233, 824652, 825088, 825508, 825901]","[150, 147, 248, 206, 186, 215, 40, 138, 29, 27, 137, 158, 158, 13, 15, 125, 225, 45, 241, 112, 54, 171, 129, 64]","[816882, 817157, 817455, 817768, 818227, 818612, 819006, 819434, 819852, 820257, 820661, 821063, 821464, 821838, 822251, 822604, 823006, 823430, 823821, 824161, 824590, 824994, 825421, 825830]","[816627, 817027, 817427, 817827, 818227, 818627, 819027, 819427, 819848, 820227, 820624, 821024, 821410, 821807, 822215, 822588, 822980, 823371, 823784, 824130, 824569, 824957, 825389, 825801]",101,SB,L,R,ITMSR,1.1,
1,600,trial,0,40,40,40,trial,"['S', 'S', 'S', 'S', 'S', 'S', 'S', 'S', 'C', 'C', 'C', 'C', 'C', 'C', 'C', 'C', 'C', 'C', 'C', 'C', 'C', 'C', 'C', 'C']","[831740, 832004, 832694, 833288, 833925, 834524, 835132, 835663, 836247, 836816, 837338, 837926, 838470, 839090, 839629, 840217, 840794, 841349, 841929, 842507, 843082, 843649, 844224, 844756]","[831833, 832143, 832871, 833471, 834016, 834647, 835233, 835808, 836386, 836972, 837523, 838094, 838689, 839292, 839877, 840492, 841049, 841606, 842181, 842812, 843366, 843876, 844432, 845005]","[6, 81, 240, 60, 63, 227, 207, 0, 27, 122, 89, 7, 152, 179, 198, 175, 214, 247, 242, 210, 8, 228, 221, 213]","[831793, 832069, 832764, 833352, 833960, 834575, 835191, 835729, 836315, 836881, 837419, 837998, 838561, 839176, 839745, 840309, 840883, 841446, 842043, 842658, 843212, 843732, 844320, 844876]","[831551, 832151, 832751, 833351, 833951, 834551, 835151, 835751, 836268, 836836, 837358, 837946, 838490, 839110, 839649, 840237, 840814, 841369, 841949, 842527, 843102, 843669, 844244, 844776]",101,SB,L,R,ITMSR,1.1,
3,600,trial,0,41,41,41,trial,"['S', 'S', 'S', 'S', 'S', 'S', 'S', 'S', 'C', 'C', 'C', 'C', 'C', 'C', 'C', 'C', 'C', 'C', 'C', 'C', 'C', 'C', 'C', 'C', 'C']","[850458, 850740, 851358, 851986, 852602, 853206, 853795, 854338, 854974, 855585, 856242, 856813, 857330, 857927, 858027, 858548, 859130, 859740, 860316, 860980, 861539, 862115, 862714, 863286, 863836]","[850520, 850843, 851429, 852006, 852677, 853226, 853865, 854427, 855065, 855707, 856295, 856939, 857350, 857947, 858047, 858568, 859240, 859835, 860430, 861047, 861639, 862231, 862819, 863397, 863952]","[233, 57, 26, 157, 116, 62, 146, 116, 2, 29, 33, 231, 157, 217, 51, 220, 39, 246, 126, 10, 18, 36, 250, 239, 41]","[850460, 850745, 851362, 851990, 852604, 853210, 853798, 854342, 854979, 855589, 856246, 856818, 857334, 857932, 858027, 858552, 859134, 859745, 860320, 860984, 861543, 862120, 862718, 863290, 863841]","[850202, 850802, 851402, 852002, 852602, 853202, 853803, 854402, 854994, 855605, 856262, 856834, 857350, 857947, 858568, 859150, 859760, 860336, 861000, 861559, 862135, 862734, 863306, 863856]",101,SB,L,R,ITMSR,1.1,
2,400,trial,0,42,42,42,trial,"['S', 'S', 'S', 'S', 'S', 'S', 'S', 'C', 'C', 'C', 'C', 'C', 'C', 'C', 'C', 'C', 'C', 'C', 'C', 'C', 'C', 'C', 'C']","[869932, 870194, 870556, 870953, 871378, 871769, 872182, 872589, 873001, 873409, 873796, 874227, 874656, 875068, 875498, 875908, 876322, 876735, 877130, 877565, 877964, 878393, 878834]","[869985, 870257, 870627, 870999, 871434, 871831, 872281, 872695, 873098, 873518, 873889, 874322, 874708, 875124, 875591, 875965, 876407, 876832, 877244, 877657, 878094, 878498, 878936]","[73, 105, 79, 22, 177, 17, 32, 52, 58, 41, 46, 57, 66, 42, 39, 233, 24, 18, 249, 5, 249, 206, 209]","[869943, 870204, 870578, 870963, 871393, 871781, 872198, 872601, 873013, 873422, 873808, 874238, 874665, 875076, 875510, 875919, 876334, 876747, 877144, 877577, 877976, 878413, 878851]","[869398, 869798, 870198, 870598, 870999, 871398, 871798, 872198, 872609, 873021, 873430, 873816, 874247, 874676, 875088, 875518, 875928, 876342, 876755, 877150, 877585, 877984, 878413, 878854]",101,SB,L,R,ITMSR,1.1,
5,400,trial,0,43,43,43,trial,"['S', 'S', 'S', 'S', 'S', 'S', 'S', 'S', 'C', 'C', 'C', 'C', 'C', 'C', 'C', 'C', 'C', 'C', 'C', 'C', 'C', 'C', 'C', 'C']","[884531, 884829, 885148, 885543, 885934, 886322, 886721, 887112, 887528, 887937, 888334, 888747, 889108, 889512, 889944, 890364, 890791, 891189, 891558, 891950, 892342, 892730, 893177, 893604]","[884603, 884894, 885211, 885597, 886000, 886406, 886782, 887174, 887588, 888008, 888406, 888811, 889203, 889633, 890035, 890436, 890816, 891252, 891636, 892064, 892461, 892826, 893290, 893721]","[36, 33, 5, 243, 240, 2, 216, 254, 241, 19, 9, 14, 7, 241, 19, 253, 207, 29, 5, 245, 247, 221, 224, 236]","[884574, 884835, 885157, 885553, 885943, 886332, 886730, 887122, 887537, 887945, 888343, 888755, 889117, 889522, 889952, 890372, 890799, 891197, 891567, 891960, 892352, 892739, 893188, 893615]","[884347, 884747, 885147, 885548, 885947, 886347, 886747, 887147, 887548, 887957, 888354, 888767, 889128, 889532, 889964, 890384, 890811, 891209, 891578, 891970, 892362, 892750, 893197, 893624]",101,SB,L,R,ITMSR,1.1,
0,600,trial,0,44,44,44,trial,"['S', 'S', 'S', 'S', 'S', 'S', 'S', 'S', 'C', 'C', 'C', 'C', 'C', 'C', 'C', 'C', 'C', 'C', 'C', 'C', 'C', 'C', 'C', 'C']","[899212, 899476, 900139, 900679, 901287, 901850, 902466, 903115, 903750, 904292, 904843, 905424, 906004, 906608, 907166, 907744, 908329, 908886, 909501, 910076, 910657, 911195, 911794, 912367]","[899281, 899562, 900207, 900774, 901382, 901968, 902562, 903185, 903817, 904408, 904992, 905575, 906165, 906701, 907309, 907901, 908464, 909093, 909656, 910243, 910842, 911365, 911979, 912535]","[39, 252, 13, 28, 18, 13, 209, 24, 7, 39, 255, 12, 2, 249, 8, 240, 6, 0, 5, 29, 25, 8, 18, 25]","[899220, 899486, 900147, 900686, 901295, 901859, 902476, 903123, 903758, 904300, 904852, 905433, 906011, 906616, 907173, 907752, 908338, 908895, 909509, 910085, 910666, 911204, 911802, 912375]","[899011, 899611, 900211, 900811, 901411, 902011, 902611, 903212, 903770, 904312, 904863, 905444, 906024, 906628, 907186, 907764, 908349, 908906, 909521, 910096, 910678, 911215, 911814, 912387]",101,SB,L,R,ITMSR,1.1,
0,600,trial,0,45,45,45,trial,"['S', 'S', 'S', 'S', 'S', 'S', 'S', 'S', 'C', 'C', 'C', 'C', 'C', 'C', 'C', 'C', 'C', 'C', 'C', 'C', 'C', 'C', 'C', 'C']","[918239, 918615, 919138, 919732, 920305, 920927, 921552, 922148, 922762, 923343, 923967, 924549, 925142, 925721, 926331, 926910, 927499, 928088, 928702, 929309, 929922, 930497, 931104, 931718]","[918301, 918708, 919242, 919845, 920425, 921039, 921654, 922264, 922873, 923439, 924040, 924662, 925283, 925848, 926457, 926999, 927595, 928219, 928837, 929478, 930106, 930677, 931304, 931888]","[143, 242, 246, 177, 204, 183, 238, 247, 1, 12, 4, 6, 2, 225, 30, 5, 23, 246, 13, 18, 253, 242, 23, 250]","[918246, 918622, 919146, 919741, 920316, 920936, 921562, 922159, 922771, 923353, 923976, 924557, 925150, 925730, 926340, 926917, 927507, 928098, 928708, 929316, 929929, 930506, 931112, 931725]","[917989, 918589, 919189, 919789, 920389, 920989, 921589, 922189, 922782, 923363, 923987, 924569, 925162, 925741, 926351, 926930, 927519, 928108, 928722, 929329, 929942, 930518, 931124, 931738]",101,SB,L,R,ITMSR,1.1,
1,400,trial,0,46,46,46,trial,"['S', 'S', 'S', 'S', 'S', 'S', 'S', 'S', 'C', 'C', 'C', 'C', 'C', 'C', 'C', 'C', 'C', 'C', 'C', 'C', 'C', 'C', 'C', 'C']","[937647, 937935, 938230, 938593, 938973, 939370, 939786, 940185, 940608, 941007, 941421, 941803, 942216, 942669, 943068, 943455, 943864, 944265, 944688, 945079, 945484, 945887, 946268, 946693]","[937721, 938028, 938332, 938697, 939066, 939465, 939894, 940301, 940700, 941092, 941503, 941910, 942316, 942755, 943155, 943560, 943975, 944362, 944766, 945166, 945559, 945958, 946350, 946767]","[230, 225, 254, 232, 204, 164, 116, 167, 185, 206, 147, 129, 195, 87, 103, 179, 148, 127, 71, 85, 72, 246, 16, 70]","[937659, 937947, 938237, 938604, 938984, 939381, 939798, 940197, 940618, 941019, 941433, 941814, 942226, 942682, 943079, 943465, 943876, 944276, 944701, 945090, 945498, 945912, 946308, 946706]","[937441, 937841, 938242, 938642, 939042, 939442, 939842, 940242, 940628, 941027, 941442, 941824, 942236, 942689, 943088, 943475, 943884, 944285, 944708, 945099, 945504, 945907, 946288, 946713]",101,SB,L,R,ITMSR,1.1,
3,600,trial,0,47,47,47,trial,"['S', 'S', 'S', 'S', 'S', 'S', 'S', 'S', 'C', 'C', 'C', 'C', 'C', 'C', 'C', 'C', 'C', 'C', 'C', 'C', 'C', 'C', 'C', 'C']","[952295, 952519, 953136, 953786, 954399, 955060, 955631, 956221, 956809, 957404, 957958, 958578, 959156, 959723, 960318, 960897, 961461, 962079, 962646, 963268, 963837, 964405, 965026, 965612]","[952401, 952641, 953259, 953895, 954544, 955171, 955751, 956356, 956944, 957521, 958074, 958703, 959272, 959861, 960440, 961020, 961617, 962239, 962848, 963428, 964126, 964644, 965248, 965771]","[242, 8, 240, 243, 244, 238, 233, 13, 239, 242, 248, 19, 200, 238, 45, 21, 17, 43, 33, 21, 7, 19, 39, 47]","[952347, 952584, 953146, 953795, 954455, 955069, 955640, 956276, 956860, 957412, 957966, 958585, 959204, 959769, 960325, 960904, 961468, 962086, 962653, 963276, 963909, 964508, 965033, 965619]","[952143, 952743, 953344, 953944, 954544, 955144, 955744, 956344, 956829, 957424, 957978, 958598, 959176, 959744, 960338, 960917, 961481, 962099, 962666, 963288, 963857, 964425, 965046, 965633]",101,SB,L,R,ITMSR,1.1,
5,600,trial,0,48,48,48,trial,"['S', 'S', 'S', 'S', 'S', 'S', 'S', 'S', 'C', 'C', 'C', 'C', 'C', 'C', 'C', 'C', 'C', 'C', 'C', 'C', 'C', 'C', 'C', 'C']","[971454, 971698, 972264, 972844, 973474, 974074, 974704, 975306, 975915, 976497, 977083, 977686, 978227, 978825, 979384, 979958, 980544, 981139, 981746, 982341, 982940, 983571, 984153, 984719]","[971520, 971817, 972385, 973002, 973592, 974218, 974841, 975427, 976044, 976625, 977221, 977808, 978385, 978990, 979582, 980145, 980782, 981399, 981954, 982495, 983198, 983848, 984411, 984972]","[107, 246, 226, 3, 201, 229, 139, 183, 164, 146, 225, 241, 221, 201, 250, 236, 220, 231, 124, 127, 36, 49, 220, 20]","[971468, 971761, 972274, 972853, 973486, 974086, 974763, 975362, 975972, 976559, 977140, 977695, 978237, 978886, 979465, 980025, 980641, 981147, 981849, 982351, 982951, 983581, 984165, 984730]","[971218, 971817, 972418, 973018, 973618, 974218, 974818, 975418, 975935, 976517, 977103, 977707, 978247, 978845, 979404, 979978, 980564, 981159, 981766, 982361, 982960, 983591, 984173, 984739]",101,SB,L,R,ITMSR,1.1,
2,600,trial,0,49,49,49,trial,"['S', 'S', 'S', 'S', 'S', 'S', 'S', 'S', 'C', 'C', 'C', 'C', 'C', 'C', 'C', 'C', 'C', 'C', 'C', 'C', 'C', 'C', 'C', 'C']","[990585, 990891, 991422, 992046, 992611, 993197, 993795, 994400, 994996, 995578, 996180, 996749, 997346, 997970, 998516, 999067, 999595, 1000222, 1000760, 1001351, 1001931, 1002506, 1003054, 1003676]","[990642, 991080, 991656, 992135, 992717, 993344, 993897, 994487, 995093, 995670, 996282, 996886, 997452, 998050, 998625, 999182, 999739, 1000401, 1000919, 1001475, 1002100, 1002678, 1003242, 1003860]","[144, 242, 247, 117, 160, 0, 179, 158, 72, 160, 149, 148, 145, 87, 186, 133, 174, 166, 146, 163, 122, 155, 152, 155]","[990594, 990953, 991529, 992059, 992623, 993207, 993806, 994411, 995011, 995590, 996193, 996760, 997357, 997984, 998529, 999079, 999658, 1000281, 1000823, 1001362, 1001985, 1002518, 1003110, 1003745]","[990259, 990859, 991459, 992059, 992659, 993259, 993859, 994459, 995016, 995598, 996200, 996769, 997366, 997990, 998536, 999087, 999615, 1000242, 1000780, 1001371, 1001951, 1002526, 1003074, 1003696]",101,SB,L,R,ITMSR,1.1,
4,600,trial,0,50,50,50,trial,"['S', 'S', 'S', 'S', 'S', 'S', 'S', 'S', 'C', 'C', 'C', 'C', 'C', 'C', 'C', 'C', 'C', 'C', 'C', 'C', 'C', 'C', 'C', 'C']","[1009615, 1009800, 1010317, 1010984, 1011631, 1012205, 1012804, 1013408, 1013981, 1014558, 1015111, 1015725, 1016313, 1016894, 1017519, 1018117, 1018693, 1019305, 1019916, 1020495, 1021044, 1021673, 1022242, 1022800]","[1009652, 1009868, 1010405, 1011100, 1011718, 1012298, 1012910, 1013505, 1014075, 1014668, 1015183, 1015821, 1016451, 1016998, 1017626, 1018246, 1018870, 1019418, 1020020, 1020620, 1021202, 1021789, 1022360, 1022941]","[74, 227, 210, 241, 157, 170, 190, 167, 149, 112, 179, 62, 210, 221, 167, 204, 185, 196, 163, 174, 121, 136, 111, 73]","[1009629, 1009809, 1010326, 1010993, 1011640, 1012215, 1012815, 1013421, 1013993, 1014571, 1015123, 1015736, 1016372, 1016929, 1017528, 1018126, 1018730, 1019317, 1019928, 1020507, 1021058, 1021685, 1022254, 1022812]","[1009297, 1009897, 1010497, 1011097, 1011697, 1012297, 1012897, 1013497, 1014001, 1014578, 1015131, 1015745, 1016333, 1016914, 1017539, 1018137, 1018713, 1019325, 1019936, 1020515, 1021064, 1021693, 1022262, 1022820]",101,SB,L,R,ITMSR,1.1,
2,600,trial,0,51,51,51,trial,"['S', 'S', 'S', 'S', 'S', 'S', 'S', 'S', 'C', 'C', 'C', 'C', 'C', 'C', 'C', 'C', 'C', 'C', 'C', 'C', 'C', 'C', 'C', 'C']","[1028831, 1029165, 1029708, 1030310, 1030920, 1031503, 1032121, 1032698, 1033277, 1033849, 1034400, 1034981, 1035560, 1036147, 1036786, 1037393, 1037959, 1038560, 1039147, 1039727, 1040302, 1040907, 1041492, 1042061]","[1028878, 1029294, 1029846, 1030433, 1031064, 1031645, 1032251, 1032819, 1033394, 1033980, 1034505, 1035108, 1035689, 1036276, 1036891, 1037573, 1038119, 1038688, 1039214, 1039850, 1040490, 1041085, 1041745, 1042293]","[139, 9, 38, 20, 36, 46, 55, 53, 16, 45, 51, 19, 28, 3, 51, 52, 42, 44, 23, 57, 45, 12, 41, 55]","[1028845, 1029180, 1029723, 1030323, 1030932, 1031517, 1032132, 1032711, 1033288, 1033861, 1034411, 1034992, 1035573, 1036160, 1036797, 1037405, 1037969, 1038570, 1039157, 1039737, 1040312, 1040918, 1041505, 1042176]","[1028603, 1029203, 1029804, 1030403, 1031003, 1031603, 1032203, 1032803, 1033297, 1033869, 1034420, 1035001, 1035580, 1036167, 1036806, 1037413, 1037979, 1038580, 1039167, 1039747, 1040322, 1040927, 1041512, 1042081]",101,SB,L,R,ITMSR,1.1,
5,600,trial,0,52,52,52,trial,"['S', 'S', 'S', 'S', 'S', 'S', 'S', 'S', 'C', 'C', 'C', 'C', 'C', 'C', 'C', 'C', 'C', 'C', 'C', 'C', 'C', 'C', 'C', 'C']","[1048066, 1048450, 1048984, 1049533, 1050126, 1050755, 1051364, 1051969, 1052539, 1053142, 1053700, 1054271, 1054854, 1055410, 1055970, 1056569, 1057148, 1057693, 1058251, 1058837, 1059395, 1059919, 1060469, 1061079]","[1048163, 1048556, 1049117, 1049657, 1050243, 1050833, 1051483, 1052081, 1052685, 1053297, 1053856, 1054402, 1055003, 1055565, 1056171, 1056718, 1057329, 1057883, 1058483, 1059067, 1059600, 1060173, 1060728, 1061300]","[134, 220, 191, 136, 255, 114, 141, 26, 143, 103, 141, 127, 117, 163, 130, 96, 123, 142, 164, 179, 154, 148, 156, 130]","[1048074, 1048463, 1048996, 1049545, 1050138, 1050766, 1051374, 1052020, 1052606, 1053228, 1053783, 1054281, 1054865, 1055421, 1056075, 1056581, 1057243, 1057783, 1058358, 1058954, 1059478, 1060021, 1060653, 1061173]","[1047864, 1048463, 1049063, 1049663, 1050263, 1050863, 1051463, 1052063, 1052559, 1053162, 1053720, 1054291, 1054874, 1055430, 1055990, 1056589, 1057168, 1057713, 1058271, 1058857, 1059416, 1059939, 1060489, 1061099]",101,SB,L,R,ITMSR,1.1,
1,600,trial,0,53,53,53,trial,"['S', 'S', 'S', 'S', 'S', 'S', 'S', 'S', 'C', 'C', 'C', 'C', 'C', 'C', 'C', 'C', 'C', 'C', 'C', 'C', 'C', 'C', 'C', 'C']","[1067006, 1067553, 1068093, 1068536, 1069060, 1069612, 1070157, 1070768, 1071361, 1071898, 1072496, 1073054, 1073653, 1074213, 1074763, 1075409, 1075958, 1076598, 1077227, 1077837, 1078443, 1079061, 1079682, 1080294]","[1067119, 1067630, 1068197, 1068666, 1069208, 1069757, 1070296, 1070864, 1071470, 1072019, 1072598, 1073144, 1073755, 1074341, 1074904, 1075580, 1076139, 1076734, 1077353, 1078030, 1078617, 1079206, 1079829, 1080427]","[74, 163, 147, 203, 164, 213, 48, 220, 39, 3, 80, 67, 248, 95, 14, 53, 207, 87, 242, 28, 27, 231, 35, 91]","[1067065, 1067565, 1068103, 1068585, 1069104, 1069691, 1070233, 1070781, 1071373, 1071910, 1072507, 1073065, 1073667, 1074226, 1074776, 1075421, 1075970, 1076610, 1077238, 1077952, 1078545, 1079072, 1079694, 1080304]","[1066691, 1067291, 1067891, 1068491, 1069091, 1069691, 1070291, 1070892, 1071381, 1071918, 1072516, 1073074, 1073673, 1074233, 1074783, 1075429, 1075978, 1076618, 1077248, 1077857, 1078463, 1079081, 1079702, 1080314]",101,SB,L,R,ITMSR,1.1,
0,400,trial,0,54,54,54,trial,"['S', 'S', 'S', 'S', 'S', 'S', 'S', 'S', 'C', 'C', 'C', 'C', 'C', 'C', 'C', 'C', 'C', 'C', 'C', 'C', 'C', 'C', 'C', 'C']","[1093820, 1094092, 1094449, 1094756, 1095087, 1095455, 1095847, 1096253, 1096631, 1097019, 1097410, 1097811, 1098170, 1098543, 1098910, 1099323, 1099695, 1100090, 1100457, 1100863, 1101251, 1101652, 1102018, 1102405]","[1093927, 1094201, 1094553, 1094895, 1095246, 1095647, 1096022, 1096385, 1096770, 1097133, 1097533, 1097903, 1098292, 1098678, 1099075, 1099449, 1099804, 1100222, 1100568, 1100956, 1101379, 1101672, 1102172, 1102541]","[197, 88, 100, 198, 173, 65, 220, 57, 246, 1, 36, 23, 52, 249, 253, 176, 136, 211, 13, 141, 186, 221, 224, 109]","[1093868, 1094162, 1094454, 1094760, 1095091, 1095461, 1095856, 1096258, 1096643, 1097026, 1097414, 1097817, 1098174, 1098547, 1098915, 1099325, 1099700, 1100097, 1100461, 1100932, 1101320, 1101655, 1102022, 1102409]","[1093508, 1093908, 1094308, 1094708, 1095108, 1095508, 1095908, 1096308, 1096651, 1097039, 1097431, 1097831, 1098190, 1098563, 1098930, 1099343, 1099715, 1100110, 1100477, 1100883, 1101272, 1101672, 1102039, 1102425]",101,SB,L,R,ITMSR,1.1,
5,600,trial,0,55,55,55,trial,"['S', 'S', 'S', 'S', 'S', 'S', 'S', 'S', 'C', 'C', 'C', 'C', 'C', 'C', 'C', 'C', 'C', 'C', 'C', 'C', 'C', 'C', 'C', 'C']","[1108244, 1108593, 1109149, 1109773, 1110352, 1110907, 1111490, 1112053, 1112725, 1113238, 1113854, 1114431, 1115012, 1115569, 1116146, 1116717, 1117241, 1117868, 1118395, 1118966, 1119501, 1120051, 1120590, 1121162]","[1108355, 1108744, 1109305, 1109866, 1110475, 1111004, 1111584, 1112166, 1112824, 1113368, 1113949, 1114554, 1115142, 1115706, 1116256, 1116866, 1117410, 1118000, 1118571, 1119133, 1119651, 1120211, 1120746, 1121319]","[125, 19, 24, 104, 228, 12, 51, 179, 142, 63, 82, 85, 253, 0, 225, 215, 39, 12, 33, 14, 30, 239, 224, 3]","[1108298, 1108675, 1109156, 1109783, 1110363, 1110968, 1111499, 1112062, 1112735, 1113288, 1113863, 1114439, 1115080, 1115577, 1116155, 1116725, 1117313, 1117875, 1118401, 1118973, 1119506, 1120060, 1120599, 1121168]","[1108034, 1108634, 1109234, 1109834, 1110434, 1111034, 1111634, 1112235, 1112745, 1113259, 1113874, 1114451, 1115032, 1115589, 1116166, 1116737, 1117261, 1117888, 1118415, 1118986, 1119521, 1120071, 1120610, 1121182]",101,SB,L,R,ITMSR,1.1,
2,600,trial,0,56,56,56,trial,"['S', 'S', 'S', 'S', 'S', 'S', 'S', 'C', 'C', 'C', 'C', 'C', 'C', 'C', 'C', 'C', 'C', 'C', 'C', 'C', 'C', 'C', 'C']","[1127321, 1127945, 1128568, 1129131, 1129726, 1130291, 1130939, 1131536, 1132150, 1132733, 1133330, 1133908, 1134452, 1135077, 1135651, 1136278, 1136883, 1137475, 1138063, 1138662, 1139250, 1139846, 1140415]","[1127419, 1128046, 1128664, 1129285, 1129808, 1130488, 1131084, 1131720, 1132311, 1132901, 1133467, 1134064, 1134641, 1135240, 1135819, 1136450, 1137060, 1137678, 1138259, 1138840, 1139412, 1140004, 1140597]","[232, 112, 33, 211, 253, 18, 218, 249, 220, 214, 221, 4, 226, 19, 245, 0, 210, 3, 37, 11, 237, 247, 249]","[1127334, 1127966, 1128584, 1129147, 1129739, 1130305, 1130959, 1131552, 1132166, 1132747, 1133343, 1133923, 1134572, 1135091, 1135665, 1136292, 1136899, 1137490, 1138092, 1138685, 1139274, 1139860, 1140429]","[1126788, 1127388, 1127988, 1128588, 1129188, 1129788, 1130388, 1130988, 1131556, 1132170, 1132753, 1133350, 1133928, 1134472, 1135097, 1135671, 1136299, 1136903, 1137496, 1138083, 1138682, 1139270, 1139866, 1140435]",101,SB,L,R,ITMSR,1.1,
5,400,trial,0,57,57,57,trial,"['S', 'S', 'S', 'S', 'S', 'S', 'S', 'S', 'C', 'C', 'C', 'C', 'C', 'C', 'C', 'C', 'C', 'C', 'C', 'C', 'C', 'C', 'C', 'C']","[1146338, 1146660, 1146968, 1147313, 1147712, 1148097, 1148491, 1148891, 1149309, 1149705, 1150101, 1150520, 1150930, 1151303, 1151688, 1152095, 1152512, 1152882, 1153297, 1153730, 1154104, 1154496, 1154906, 1155304]","[1146438, 1146777, 1147053, 1147424, 1147838, 1148229, 1148622, 1149019, 1149440, 1149838, 1150222, 1150636, 1151040, 1151421, 1151824, 1152248, 1152654, 1153042, 1153452, 1153870, 1154239, 1154630, 1155038, 1155427]","[245, 190, 229, 240, 115, 196, 187, 145, 194, 197, 126, 157, 40, 162, 110, 203, 166, 161, 184, 169, 247, 21, 34, 236]","[1146353, 1146680, 1146989, 1147328, 1147729, 1148149, 1148541, 1148947, 1149326, 1149721, 1150158, 1150534, 1150943, 1151320, 1151746, 1152151, 1152566, 1152966, 1153390, 1153786, 1154177, 1154552, 1154965, 1155317]","[1146147, 1146547, 1146947, 1147347, 1147747, 1148147, 1148547, 1148947, 1149329, 1149725, 1150121, 1150540, 1150950, 1151323, 1151708, 1152115, 1152532, 1152902, 1153317, 1153751, 1154124, 1154516, 1154926, 1155324]",101,SB,L,R,ITMSR,1.1,
0,400,trial,0,58,58,58,trial,"['S', 'S', 'S', 'S', 'S', 'S', 'S', 'S', 'C', 'C', 'C', 'C', 'C', 'C', 'C', 'C', 'C', 'C', 'C', 'C', 'C', 'C', 'C', 'C']","[1161179, 1161559, 1161867, 1162194, 1162539, 1162912, 1163341, 1163749, 1164140, 1164520, 1164951, 1165349, 1165736, 1166132, 1166517, 1166932, 1167343, 1167683, 1168092, 1168508, 1168917, 1169304, 1169713, 1170095]","[1161321, 1161679, 1162009, 1162334, 1162698, 1163045, 1163444, 1163862, 1164266, 1164622, 1165047, 1165431, 1165844, 1166234, 1166627, 1167038, 1167433, 1167799, 1168214, 1168602, 1169011, 1169415, 1169819, 1170212]","[171, 132, 184, 7, 4, 203, 168, 159, 191, 63, 62, 114, 86, 0, 60, 47, 9, 32, 104, 87, 195, 154, 137, 119]","[1161241, 1161613, 1161924, 1162247, 1162599, 1162939, 1163358, 1163764, 1164163, 1164554, 1164974, 1165374, 1165759, 1166154, 1166538, 1166952, 1167366, 1167713, 1168122, 1168538, 1168946, 1169334, 1169743, 1170121]","[1160981, 1161380, 1161780, 1162180, 1162580, 1162980, 1163380, 1163780, 1164161, 1164540, 1164972, 1165369, 1165756, 1166152, 1166537, 1166952, 1167363, 1167704, 1168112, 1168528, 1168937, 1169325, 1169733, 1170115]",101,SB,L,R,ITMSR,1.1,
2,600,trial,0,59,59,59,trial,"['S', 'S', 'S', 'S', 'S', 'S', 'S', 'S', 'C', 'C', 'C', 'C', 'C', 'C', 'C', 'C', 'C', 'C', 'C', 'C', 'C', 'C', 'C', 'C']","[1176050, 1176348, 1176980, 1177565, 1178143, 1178708, 1179337, 1179959, 1180550, 1181168, 1181753, 1182356, 1182953, 1183576, 1184142, 1184713, 1185346, 1185893, 1186473, 1187010, 1187614, 1188172, 1188745, 1189383]","[1176173, 1176643, 1177267, 1177873, 1178440, 1179038, 1179705, 1180277, 1180909, 1181480, 1182101, 1182616, 1183275, 1183841, 1184419, 1184954, 1185641, 1186275, 1186759, 1187396, 1187867, 1188507, 1189084]","[105, 164, 161, 53, 140, 79, 73, 155, 65, 98, 11, 68, 46, 75, 9, 56, 79, 177, 100, 51, 104, 46, 31]","[1176121, 1176356, 1176986, 1177572, 1178150, 1178716, 1179345, 1179967, 1180792, 1181175, 1182043, 1182363, 1182959, 1183582, 1184326, 1184720, 1185352, 1185900, 1186480, 1187017, 1187620, 1188177, 1188752]","[1175817, 1176417, 1177017, 1177617, 1178217, 1178817, 1179417, 1180017, 1180570, 1181188, 1181773, 1182376, 1182973, 1183596, 1184162, 1184733, 1185367, 1185913, 1186493, 1187031, 1187634, 1188192, 1188765, 1189403]",101,SB,L,R,ITMSR,1.1,
4,600,trial,0,60,60,60,trial,"['S', 'S', 'S', 'S', 'S', 'S', 'S', 'S', 'C', 'C', 'C', 'C', 'C', 'C', 'C', 'C', 'C', 'C', 'C', 'C', 'C', 'C', 'C', 'C']","[1195065, 1195390, 1195916, 1196539, 1197120, 1197693, 1198301, 1198930, 1199547, 1200146, 1200718, 1201293, 1201910, 1202472, 1203028, 1203619, 1204203, 1204811, 1205392, 1205982, 1206534, 1207105, 1207697, 1208283]","[1195133, 1195577, 1196241, 1196836, 1197431, 1198006, 1198531, 1199170, 1199778, 1200338, 1201028, 1201684, 1202191, 1202763, 1203293, 1203969, 1204519, 1205136, 1205734, 1206292, 1206895, 1207514, 1208042]","[129, 167, 149, 97, 196, 113, 76, 161, 113, 109, 167, 208, 166, 171, 117, 145, 142, 147, 109, 126, 151, 82, 19]","[1195068, 1195393, 1195919, 1196542, 1197122, 1197698, 1198304, 1198934, 1199550, 1200151, 1200721, 1201296, 1201913, 1202476, 1203032, 1203623, 1204207, 1204814, 1205397, 1205985, 1206539, 1207109, 1207701]","[1194799, 1195398, 1195998, 1196598, 1197198, 1197798, 1198398, 1198998, 1199567, 1200166, 1200738, 1201313, 1201930, 1202492, 1203048, 1203639, 1204224, 1204831, 1205412, 1206002, 1206554, 1207126, 1207717, 1208303]",101,SB,L,R,ITMSR,1.1,
2,400,trial,0,61,61,61,trial,"['S', 'S', 'S', 'S', 'S', 'S', 'S', 'S', 'S', 'C', 'C', 'C', 'C', 'C', 'C', 'C', 'C', 'C', 'C', 'C', 'C', 'C', 'C', 'C', 'C']","[1214055, 1214388, 1214665, 1215033, 1215358, 1215669, 1216048, 1216374, 1216686, 1217008, 1217379, 1217728, 1218079, 1218409, 1218784, 1219149, 1219518, 1219878, 1220259, 1220623, 1221006, 1221361, 1221727, 1222109, 1222474]","[1214194, 1214525, 1214853, 1215194, 1215511, 1215804, 1216143, 1216477, 1216785, 1217144, 1217502, 1217866, 1218196, 1218570, 1218921, 1219290, 1219637, 1220003, 1220369, 1220749, 1221121, 1221483, 1221865, 1222231, 1222583]","[191, 79, 223, 136, 175, 170, 6, 147, 173, 178, 96, 204, 165, 204, 154, 75, 212, 93, 101, 141, 28, 177, 179, 149, 103]","[1214061, 1214393, 1214672, 1215041, 1215366, 1215674, 1216054, 1216380, 1216692, 1217016, 1217386, 1217735, 1218086, 1218415, 1218790, 1219156, 1219523, 1219887, 1220264, 1220629, 1221014, 1221367, 1221732, 1222114, 1222480]","[1213833, 1214233, 1214633, 1215033, 1215433, 1215833, 1216233, 1216633, 1217028, 1217399, 1217748, 1218099, 1218429, 1218804, 1219169, 1219538, 1219898, 1220279, 1220643, 1221026, 1221381, 1221747, 1222129, 1222494]",101,SB,L,R,ITMSR,1.1,
4,400,trial,0,62,62,62,trial,"['S', 'S', 'S', 'S', 'S', 'S', 'S', 'S', 'C', 'C', 'C', 'C', 'C', 'C', 'C', 'C', 'C', 'C', 'C', 'C', 'C', 'C', 'C', 'C']","[1228033, 1228354, 1228643, 1228984, 1229379, 1229763, 1230140, 1230517, 1230912, 1231276, 1231702, 1232098, 1232430, 1232760, 1233173, 1233540, 1233941, 1234318, 1234727, 1235141, 1235487, 1235849, 1236233, 1236666]","[1228116, 1228474, 1228779, 1229117, 1229487, 1229903, 1230273, 1230644, 1231022, 1231408, 1231831, 1232189, 1232558, 1232944, 1233299, 1233673, 1234074, 1234440, 1234864, 1235257, 1235633, 1236009, 1236364, 1236760]","[185, 25, 145, 123, 113, 70, 58, 137, 71, 63, 105, 202, 162, 54, 114, 132, 84, 74, 94, 199, 148, 86, 13, 240]","[1228039, 1228362, 1228651, 1228990, 1229386, 1229770, 1230145, 1230525, 1230918, 1231281, 1231709, 1232103, 1232436, 1232769, 1233180, 1233545, 1233946, 1234324, 1234734, 1235149, 1235555, 1235855, 1236240, 1236672]","[1227837, 1228237, 1228637, 1229037, 1229437, 1229837, 1230237, 1230637, 1230932, 1231296, 1231722, 1232118, 1232450, 1232780, 1233193, 1233560, 1233961, 1234338, 1234747, 1235161, 1235507, 1235869, 1236253, 1236686]",101,SB,L,R,ITMSR,1.1,
1,600,trial,0,63,63,63,trial,"['S', 'S', 'S', 'S', 'S', 'S', 'S', 'S', 'C', 'C', 'C', 'C', 'C', 'C', 'C', 'C', 'C', 'C', 'C', 'C', 'C', 'C', 'C', 'C']","[1242312, 1242562, 1243309, 1243878, 1244440, 1244948, 1245616, 1246201, 1246755, 1247338, 1247918, 1248468, 1249068, 1249630, 1250181, 1250775, 1251357, 1251943, 1252510, 1253080, 1253649, 1254195, 1254811, 1255372]","[1242379, 1242867, 1243455, 1243987, 1244643, 1245159, 1245746, 1246302, 1246902, 1247444, 1248025, 1248654, 1249183, 1249799, 1250356, 1250932, 1251550, 1252142, 1252694, 1253256, 1253804, 1254336, 1254976, 1255557]","[89, 123, 233, 109, 37, 78, 133, 121, 145, 112, 56, 79, 50, 135, 144, 99, 138, 177, 69, 23, 12, 143, 51, 111]","[1242341, 1242816, 1243422, 1243954, 1244517, 1244998, 1245669, 1246252, 1246765, 1247347, 1247926, 1248476, 1249120, 1249682, 1250231, 1250786, 1251367, 1251993, 1252660, 1253087, 1253658, 1254202, 1254856, 1255380]","[1242108, 1242708, 1243309, 1243909, 1244509, 1245109, 1245709, 1246309, 1246775, 1247358, 1247938, 1248488, 1249088, 1249650, 1250201, 1250795, 1251377, 1251963, 1252530, 1253100, 1253669, 1254215, 1254831, 1255392]",101,SB,L,R,ITMSR,1.1,
3,600,trial,0,64,64,64,trial,"['S', 'S', 'S', 'S', 'S', 'S', 'S', 'S', 'C', 'C', 'C', 'C', 'C', 'C', 'C', 'C', 'C', 'C', 'C', 'C', 'C', 'C', 'C', 'C']","[1261106, 1261465, 1262104, 1262663, 1263235, 1263839, 1264474, 1265096, 1265702, 1266271, 1266850, 1267457, 1268025, 1268608, 1269152, 1269716, 1270324, 1270878, 1271442, 1272022, 1272591, 1273174, 1273716, 1274307]","[1261212, 1261716, 1262283, 1262857, 1263421, 1264021, 1264594, 1265278, 1265889, 1266466, 1267027, 1267594, 1268197, 1268770, 1269321, 1269926, 1270484, 1271110, 1271677, 1272228, 1272821, 1273357, 1274008, 1274520]","[200, 87, 161, 166, 81, 190, 250, 0, 118, 162, 227, 251, 197, 171, 163, 200, 156, 150, 148, 135, 164, 141, 179, 136]","[1261164, 1261543, 1262188, 1262672, 1263245, 1263894, 1264482, 1265176, 1265710, 1266278, 1266857, 1267559, 1268030, 1268614, 1269159, 1269724, 1270331, 1270883, 1271449, 1272029, 1272596, 1273181, 1273880, 1274312]","[1260957, 1261557, 1262157, 1262757, 1263357, 1263958, 1264557, 1265157, 1265722, 1266291, 1266870, 1267477, 1268045, 1268628, 1269172, 1269736, 1270344, 1270898, 1271462, 1272042, 1272611, 1273194, 1273736, 1274328]",101,SB,L,R,ITMSR,1.1,
0,600,trial,0,65,65,65,trial,"['S', 'S', 'S', 'S', 'S', 'S', 'S', 'S', 'C', 'C', 'C', 'C', 'C', 'C', 'C', 'C', 'C', 'C', 'C', 'C', 'C', 'C', 'C', 'C']","[1280348, 1280660, 1281256, 1281850, 1282438, 1283015, 1283642, 1284229, 1284838, 1285446, 1286021, 1286590, 1287193, 1287783, 1288332, 1288957, 1289521, 1290110, 1290692, 1291259, 1291872, 1292437, 1293039, 1293599]","[1280466, 1280851, 1281413, 1282018, 1282572, 1283205, 1283779, 1284379, 1284936, 1285541, 1286184, 1286744, 1287323, 1287902, 1288512, 1289092, 1289699, 1290253, 1290838, 1291419, 1292012, 1292579, 1293199, 1293767]","[171, 58, 76, 66, 235, 165, 22, 71, 255, 233, 74, 147, 76, 7, 86, 22, 76, 216, 40, 71, 107, 205, 223, 104]","[1280401, 1280666, 1281265, 1281857, 1282446, 1283024, 1283649, 1284236, 1284846, 1285454, 1286029, 1286597, 1287198, 1287836, 1288340, 1289011, 1289528, 1290118, 1290699, 1291264, 1291876, 1292553, 1293135, 1293607]","[1280083, 1280683, 1281282, 1281882, 1282482, 1283082, 1283682, 1284282, 1284858, 1285466, 1286041, 1286610, 1287213, 1287803, 1288352, 1288977, 1289541, 1290130, 1290712, 1291279, 1291892, 1292457, 1293059, 1293619]",101,SB,L,R,ITMSR,1.1,
5,400,trial,0,66,66,66,trial,"['S', 'S', 'S', 'S', 'S', 'S', 'S', 'S', 'C', 'C', 'C', 'C', 'C', 'C', 'C', 'C', 'C', 'C', 'C', 'C', 'C', 'C', 'C', 'C']","[1299509, 1299865, 1300170, 1300545, 1300931, 1301319, 1301688, 1302065, 1302429, 1302814, 1303245, 1303648, 1304057, 1304434, 1304849, 1305283, 1305671, 1306089, 1306501, 1306886, 1307320, 1307703, 1308169, 1308557]","[1299623, 1299975, 1300324, 1300685, 1301068, 1301451, 1301825, 1302185, 1302572, 1302981, 1303367, 1303768, 1304184, 1304587, 1305004, 1305377, 1305820, 1306226, 1306635, 1307058, 1307447, 1307858, 1308298, 1308679]","[4, 121, 33, 165, 55, 91, 131, 56, 97, 89, 75, 16, 13, 54, 209, 59, 95, 71, 88, 43, 73, 80, 181, 234]","[1299515, 1299872, 1300177, 1300551, 1300936, 1301325, 1301693, 1302072, 1302437, 1302821, 1303254, 1303654, 1304065, 1304440, 1304858, 1305291, 1305676, 1306093, 1306505, 1306891, 1307324, 1307711, 1308176, 1308563]","[1299307, 1299707, 1300107, 1300507, 1300908, 1301307, 1301707, 1302107, 1302449, 1302834, 1303265, 1303668, 1304077, 1304454, 1304869, 1305304, 1305691, 1306109, 1306521, 1306906, 1307340, 1307723, 1308189, 1308577]",101,SB,L,R,ITMSR,1.1,
5,600,trial,0,67,67,67,trial,"['S', 'S', 'S', 'S', 'S', 'S', 'S', 'S', 'C', 'C', 'C', 'C', 'C', 'C', 'C', 'C', 'C', 'C', 'C', 'C', 'C', 'C', 'C', 'C']","[1314361, 1314650, 1315286, 1315895, 1316464, 1317067, 1317632, 1318228, 1318803, 1319403, 1319988, 1320538, 1321129, 1321718, 1322290, 1322858, 1323438, 1324021, 1324588, 1325193, 1325767, 1326317, 1326914, 1327454]","[1314447, 1314843, 1315510, 1316112, 1316701, 1317201, 1317769, 1318371, 1318915, 1319512, 1320076, 1320653, 1321231, 1321806, 1322377, 1322940, 1323523, 1324108, 1324680, 1325274, 1325853, 1326385, 1326982, 1327546]","[213, 210, 47, 240, 41, 32, 16, 11, 231, 219, 4, 255, 29, 46, 237, 232, 232, 190, 150, 248, 4, 188, 96, 51]","[1314394, 1314682, 1315302, 1315909, 1316482, 1317083, 1317694, 1318251, 1318859, 1319442, 1320001, 1320587, 1321140, 1321731, 1322302, 1322870, 1323448, 1324033, 1324610, 1325204, 1325778, 1326327, 1326951, 1327463]","[1314083, 1314682, 1315282, 1315883, 1316482, 1317082, 1317682, 1318282, 1318823, 1319424, 1320008, 1320558, 1321149, 1321738, 1322310, 1322878, 1323458, 1324041, 1324608, 1325213, 1325787, 1326338, 1326935, 1327474]",101,SB,L,R,ITMSR,1.1,
2,400,trial,0,68,68,68,trial,"['S', 'S', 'S', 'S', 'S', 'S', 'S', 'C', 'C', 'C', 'C', 'C', 'C', 'C', 'C', 'C', 'C', 'C', 'C', 'C', 'C', 'C', 'C']","[1333295, 1333661, 1334006, 1334391, 1334743, 1335181, 1335567, 1336007, 1336409, 1336810, 1337189, 1337589, 1337984, 1338362, 1338784, 1339184, 1339615, 1339996, 1340409, 1340798, 1341178, 1341615, 1342025]","[1333341, 1333685, 1334044, 1334439, 1334807, 1335246, 1335635, 1336060, 1336478, 1336873, 1337245, 1337657, 1338056, 1338438, 1338864, 1339256, 1339658, 1340068, 1340488, 1340882, 1341265, 1341689, 1342111]","[154, 102, 237, 235, 23, 235, 214, 248, 41, 22, 222, 217, 28, 244, 10, 48, 224, 16, 216, 247, 202, 254, 226]","[1333303, 1333671, 1334017, 1334402, 1334753, 1335219, 1335610, 1336016, 1336418, 1336818, 1337199, 1337627, 1337993, 1338373, 1338796, 1339193, 1339624, 1340006, 1340420, 1340810, 1341189, 1341624, 1342035]","[1332853, 1333252, 1333652, 1334052, 1334452, 1334852, 1335252, 1335652, 1336027, 1336429, 1336830, 1337209, 1337609, 1338004, 1338382, 1338804, 1339204, 1339635, 1340016, 1340429, 1340818, 1341198, 1341635, 1342045]",101,SB,L,R,ITMSR,1.1,
4,600,trial,0,69,69,69,trial,"['S', 'S', 'S', 'S', 'S', 'S', 'S', 'S', 'C', 'C', 'C', 'C', 'C', 'C', 'C', 'C', 'C', 'C', 'C', 'C', 'C', 'C', 'C', 'C']","[1347576, 1347901, 1348471, 1349080, 1349676, 1350270, 1350878, 1351501, 1352124, 1352692, 1353280, 1353859, 1354432, 1354984, 1355588, 1356130, 1356710, 1357250, 1357788, 1358354, 1358915, 1359460, 1360059, 1360586]","[1347644, 1347988, 1348554, 1349161, 1349770, 1350369, 1350998, 1351609, 1352238, 1352826, 1353382, 1353988, 1354558, 1355108, 1355709, 1356267, 1356828, 1357366, 1357915, 1358481, 1359072, 1359609, 1360203, 1360748]","[205, 10, 5, 135, 227, 248, 221, 29, 255, 27, 192, 3, 246, 245, 255, 240, 207, 2, 158, 213, 243, 238, 245, 240]","[1347616, 1347911, 1348484, 1349097, 1349714, 1350281, 1350921, 1351554, 1352180, 1352780, 1353325, 1353909, 1354485, 1355030, 1355628, 1356188, 1356761, 1357300, 1357835, 1358427, 1358981, 1359543, 1360132, 1360670]","[1347362, 1347961, 1348561, 1349161, 1349762, 1350362, 1350962, 1351562, 1352144, 1352712, 1353300, 1353879, 1354452, 1355004, 1355608, 1356150, 1356730, 1357271, 1357808, 1358374, 1358936, 1359480, 1360079, 1360606]",101,SB,L,R,ITMSR,1.1,
4,400,trial,0,70,70,70,trial,"['S', 'S', 'S', 'S', 'S', 'S', 'S', 'C', 'C', 'C', 'C', 'C', 'C', 'C', 'C', 'C', 'C', 'C', 'C', 'C', 'C', 'C', 'C', 'C', 'C', 'C', 'C', 'C', 'C']","[1366917, 1367287, 1367474, 1367815, 1368077, 1368462, 1368881, 1369303, 1369722, 1370152, 1370574, 1370966, 1371379, 1371771, 1371871, 1372178, 1372596, 1372987, 1373087, 1373420, 1373522, 1373848, 1373950, 1374239, 1374339, 1374674, 1374774, 1375104, 1375497]","[1366937, 1367307, 1367494, 1367835, 1368186, 1368574, 1368967, 1369430, 1369851, 1370268, 1370687, 1371081, 1371469, 1371791, 1371891, 1372305, 1372616, 1373007, 1373107, 1373441, 1373559, 1373869, 1373970, 1374259, 1374369, 1374694, 1374794, 1375124, 1375517]","[199, 76, 9, 10, 132, 131, 175, 240, 71, 103, 249, 115, 33, 226, 58, 243, 119, 126, 33, 92, 74, 120, 53, 86, 71, 118, 40, 141, 183]","[1366919, 1367289, 1367477, 1367816, 1368147, 1368467, 1368885, 1369308, 1369726, 1370158, 1370579, 1370969, 1371383, 1371774, 1371871, 1372182, 1372598, 1372990, 1373087, 1373423, 1373522, 1373851, 1373950, 1374243, 1374339, 1374679, 1374776, 1375106, 1375501]","[1366127, 1366528, 1366927, 1367327, 1367727, 1368127, 1368527, 1368927, 1369323, 1369742, 1370172, 1370594, 1370986, 1371399, 1371791, 1372198, 1372616, 1373007, 1373441, 1373869, 1374259, 1374694, 1375124, 1375517]",101,SB,L,R,ITMSR,1.1,
3,400,trial,0,71,71,71,trial,"['S', 'S', 'S', 'S', 'S', 'S', 'S', 'S', 'C', 'C', 'C', 'C', 'C', 'C', 'C', 'C', 'C', 'C', 'C', 'C', 'C', 'C', 'C', 'C']","[1381434, 1381778, 1382132, 1382494, 1382866, 1383252, 1383655, 1384062, 1384459, 1384872, 1385268, 1385683, 1386080, 1386467, 1386845, 1387275, 1387706, 1388111, 1388494, 1388917, 1389332, 1389723, 1390163, 1390548]","[1381520, 1381854, 1382202, 1382548, 1382922, 1383318, 1383708, 1384112, 1384517, 1384936, 1385339, 1385744, 1386132, 1386518, 1386938, 1387334, 1387760, 1388215, 1388587, 1389009, 1389423, 1389841, 1390249, 1390644]","[152, 75, 136, 160, 148, 175, 102, 180, 192, 130, 165, 192, 200, 191, 194, 139, 145, 187, 177, 204, 172, 167, 124, 199]","[1381439, 1381785, 1382136, 1382499, 1382872, 1383258, 1383662, 1384068, 1384464, 1384879, 1385272, 1385689, 1386085, 1386471, 1386850, 1387281, 1387712, 1388118, 1388500, 1388922, 1389337, 1389727, 1390169, 1390554]","[1381250, 1381650, 1382050, 1382450, 1382850, 1383250, 1383650, 1384050, 1384479, 1384892, 1385288, 1385703, 1386100, 1386487, 1386865, 1387295, 1387726, 1388131, 1388514, 1388937, 1389352, 1389743, 1390183, 1390568]",101,SB,L,R,ITMSR,1.1,
1,400,trial,0,72,72,72,trial,"['S', 'S', 'S', 'S', 'S', 'S', 'S', 'S', 'C', 'C', 'C', 'C', 'C', 'C', 'C', 'C', 'C', 'C', 'C', 'C', 'C', 'C', 'C', 'C']","[1396142, 1396472, 1396803, 1397167, 1397502, 1397881, 1398243, 1398651, 1399047, 1399487, 1399881, 1400292, 1400709, 1401101, 1401538, 1401930, 1402355, 1402746, 1403171, 1403583, 1403997, 1404407, 1404830, 1405236]","[1396218, 1396542, 1396887, 1397189, 1397571, 1397958, 1398351, 1398759, 1399155, 1399599, 1399997, 1400385, 1400790, 1401205, 1401633, 1401992, 1402450, 1402832, 1403261, 1403643, 1404107, 1404507, 1404946, 1405369]","[198, 78, 125, 28, 154, 124, 161, 132, 153, 152, 186, 112, 128, 147, 172, 139, 55, 125, 138, 22, 6, 45, 85, 130]","[1396147, 1396476, 1396807, 1397173, 1397509, 1397888, 1398248, 1398657, 1399053, 1399491, 1399885, 1400298, 1400716, 1401106, 1401543, 1401935, 1402360, 1402750, 1403176, 1403588, 1404003, 1404413, 1404835, 1405240]","[1395875, 1396275, 1396675, 1397075, 1397475, 1397875, 1398275, 1398675, 1399067, 1399507, 1399901, 1400312, 1400729, 1401121, 1401559, 1401950, 1402375, 1402766, 1403191, 1403603, 1404017, 1404427, 1404850, 1405256]",101,SB,L,R,ITMSR,1.1,
0,600,trial,0,73,73,73,trial,"['S', 'S', 'S', 'S', 'S', 'S', 'S', 'S', 'C', 'C', 'C', 'C', 'C', 'C', 'C', 'C', 'C', 'C', 'C', 'C', 'C', 'C', 'C', 'C']","[1410995, 1411248, 1411934, 1412569, 1413191, 1413794, 1414381, 1414976, 1415562, 1416148, 1416786, 1417337, 1417874, 1418490, 1419040, 1419637, 1420177, 1420768, 1421341, 1421943, 1422435, 1423079, 1423601, 1424189]","[1411054, 1411354, 1412034, 1412672, 1413283, 1413894, 1414504, 1415092, 1415676, 1416282, 1416904, 1417491, 1418044, 1418624, 1419211, 1419786, 1420374, 1420924, 1421510, 1422086, 1422624, 1423225, 1423777, 1424346]","[236, 94, 139, 178, 113, 152, 167, 173, 123, 171, 60, 114, 103, 109, 118, 40, 153, 48, 150, 98, 183, 38, 95, 117]","[1411003, 1411254, 1411939, 1412574, 1413198, 1413800, 1414386, 1414981, 1415568, 1416154, 1416793, 1417344, 1417880, 1418497, 1419047, 1419643, 1420182, 1420846, 1421347, 1421949, 1422440, 1423085, 1423696, 1424195]","[1410798, 1411398, 1411998, 1412598, 1413198, 1413798, 1414398, 1414999, 1415582, 1416168, 1416806, 1417357, 1417894, 1418510, 1419060, 1419657, 1420197, 1420788, 1421361, 1421963, 1422455, 1423099, 1423621, 1424209]",101,SB,L,R,ITMSR,1.1,
1,600,trial,0,74,74,74,trial,"['S', 'S', 'S', 'S', 'S', 'S', 'S', 'S', 'C', 'C', 'C', 'C', 'C', 'C', 'C', 'C', 'C', 'C', 'C', 'C', 'C', 'C', 'C', 'C']","[1430348, 1430543, 1431088, 1431708, 1432328, 1432921, 1433545, 1434132, 1434739, 1435357, 1435936, 1436526, 1437100, 1437730, 1438334, 1438944, 1439532, 1440126, 1440685, 1441312, 1441905, 1442487, 1443068, 1443715]","[1430395, 1430627, 1431178, 1431772, 1432382, 1432967, 1433590, 1434185, 1434786, 1435403, 1435996, 1436590, 1437170, 1437782, 1438383, 1439001, 1439572, 1440175, 1440730, 1441353, 1441948, 1442547, 1443113, 1443765]","[219, 197, 172, 126, 32, 21, 58, 153, 128, 115, 243, 55, 68, 142, 227, 70, 15, 96, 61, 56, 38, 161, 85, 140]","[1430373, 1430579, 1431120, 1431719, 1432341, 1432931, 1433558, 1434142, 1434753, 1435370, 1435949, 1436540, 1437112, 1437747, 1438347, 1438957, 1439543, 1440136, 1440694, 1441324, 1441915, 1442497, 1443077, 1443724]","[1429955, 1430554, 1431154, 1431754, 1432354, 1432954, 1433554, 1434155, 1434759, 1435377, 1435956, 1436546, 1437120, 1437750, 1438354, 1438964, 1439552, 1440146, 1440705, 1441332, 1441925, 1442507, 1443088, 1443735]",101,SB,L,R,ITMSR,1.1,
3,600,trial,0,75,75,75,trial,"['S', 'S', 'S', 'S', 'S', 'S', 'S', 'C', 'C', 'C', 'C', 'C', 'C', 'C', 'C', 'C', 'C', 'C', 'C', 'C', 'C', 'C', 'C']","[1449894, 1450457, 1451058, 1451727, 1452388, 1453002, 1453620, 1454263, 1454837, 1455439, 1456029, 1456616, 1457247, 1457849, 1458432, 1459056, 1459647, 1460278, 1460926, 1461516, 1462096, 1462728, 1463302]","[1449938, 1450513, 1451114, 1451783, 1452437, 1453057, 1453681, 1454304, 1454888, 1455495, 1456088, 1456664, 1457308, 1457906, 1458489, 1459111, 1459696, 1460323, 1460972, 1461570, 1462178, 1462768, 1463367]","[155, 229, 223, 179, 163, 150, 165, 28, 94, 214, 232, 208, 234, 201, 193, 185, 181, 54, 165, 215, 241, 123, 237]","[1449905, 1450465, 1451066, 1451738, 1452398, 1453011, 1453631, 1454273, 1454848, 1455450, 1456038, 1456623, 1457256, 1457858, 1458441, 1459067, 1459656, 1460291, 1460941, 1461527, 1462107, 1462739, 1463311]","[1449510, 1450110, 1450711, 1451310, 1451910, 1452510, 1453110, 1453710, 1454283, 1454857, 1455459, 1456049, 1456636, 1457267, 1457869, 1458452, 1459076, 1459667, 1460298, 1460946, 1461536, 1462116, 1462748, 1463322]",101,SB,L,R,ITMSR,1.1,
1,400,trial,0,76,76,76,trial,"['S', 'S', 'S', 'S', 'S', 'S', 'S', 'C', 'C', 'C', 'C', 'C', 'C', 'C', 'C', 'C', 'C', 'C', 'C', 'C', 'C', 'C', 'C']","[1468982, 1469387, 1469787, 1470186, 1470599, 1470999, 1471432, 1471825, 1472245, 1472632, 1473028, 1473437, 1473847, 1474243, 1474632, 1475022, 1475457, 1475835, 1476238, 1476617, 1477054, 1477464, 1477881]","[1469081, 1469431, 1469839, 1470263, 1470687, 1471066, 1471492, 1471892, 1472317, 1472714, 1473119, 1473541, 1473905, 1474325, 1474716, 1475132, 1475566, 1475970, 1476365, 1476733, 1477136, 1477559, 1477963]","[237, 17, 51, 153, 131, 120, 43, 101, 125, 146, 113, 94, 116, 163, 105, 153, 182, 137, 105, 156, 127, 123, 140]","[1468997, 1469405, 1469801, 1470203, 1470619, 1471015, 1471452, 1471841, 1472265, 1472652, 1473049, 1473463, 1473868, 1474260, 1474659, 1475051, 1475484, 1475863, 1476258, 1476646, 1477079, 1477487, 1477910]","[1468644, 1469044, 1469444, 1469844, 1470244, 1470644, 1471044, 1471444, 1471845, 1472265, 1472652, 1473048, 1473457, 1473867, 1474264, 1474652, 1475042, 1475477, 1475855, 1476258, 1476637, 1477074, 1477484, 1477901]",101,SB,L,R,ITMSR,1.1,
3,400,trial,0,77,77,77,trial,"['S', 'S', 'S', 'S', 'S', 'S', 'S', 'S', 'C', 'C', 'C', 'C', 'C', 'C', 'C', 'C', 'C', 'C', 'C', 'C', 'C', 'C', 'C', 'C']","[1483451, 1483785, 1484142, 1484517, 1484928, 1485293, 1485675, 1486086, 1486494, 1486894, 1487280, 1487713, 1488100, 1488494, 1488901, 1489298, 1489696, 1490108, 1490467, 1490889, 1491300, 1491724, 1492117, 1492532]","[1483552, 1483857, 1484220, 1484596, 1484965, 1485362, 1485775, 1486161, 1486564, 1486978, 1487355, 1487782, 1488207, 1488591, 1488975, 1489424, 1489794, 1490202, 1490612, 1491015, 1491381, 1491804, 1492231, 1492629]","[145, 98, 23, 60, 20, 25, 51, 83, 90, 96, 131, 235, 12, 13, 21, 46, 245, 86, 240, 75, 180, 197, 162, 236]","[1483478, 1483811, 1484170, 1484542, 1484950, 1485322, 1485707, 1486114, 1486519, 1486920, 1487309, 1487737, 1488131, 1488523, 1488928, 1489332, 1489729, 1490135, 1490518, 1490922, 1491329, 1491752, 1492143, 1492564]","[1483287, 1483686, 1484086, 1484486, 1484887, 1485286, 1485686, 1486086, 1486514, 1486914, 1487300, 1487733, 1488120, 1488514, 1488921, 1489318, 1489716, 1490128, 1490487, 1490909, 1491320, 1491744, 1492137, 1492552]",101,SB,L,R,ITMSR,1.1,
3,400,trial,0,78,78,78,trial,"['S', 'S', 'S', 'S', 'S', 'S', 'S', 'S', 'C', 'C', 'C', 'C', 'C', 'C', 'C', 'C', 'C', 'C', 'C', 'C', 'C', 'C', 'C', 'C']","[1508869, 1509107, 1509450, 1509825, 1510195, 1510619, 1511032, 1511429, 1511827, 1512214, 1512641, 1513075, 1513488, 1513856, 1514272, 1514715, 1515094, 1515486, 1515891, 1516297, 1516720, 1517113, 1517507, 1517937]","[1508960, 1509237, 1509566, 1509932, 1510312, 1510727, 1511157, 1511511, 1511957, 1512356, 1512755, 1513168, 1513609, 1513999, 1514390, 1514806, 1515242, 1515614, 1516019, 1516427, 1516814, 1517215, 1517616, 1518027]","[221, 7, 46, 235, 230, 16, 1, 43, 0, 124, 239, 249, 233, 2, 217, 228, 228, 157, 230, 140, 98, 80, 101, 103]","[1508920, 1509117, 1509462, 1509878, 1510206, 1510628, 1511042, 1511436, 1511835, 1512295, 1512649, 1513085, 1513497, 1513865, 1514284, 1514725, 1515105, 1515497, 1515900, 1516308, 1516732, 1517124, 1517518, 1517948]","[1508673, 1509073, 1509473, 1509873, 1510274, 1510674, 1511074, 1511474, 1511847, 1512235, 1512662, 1513095, 1513508, 1513876, 1514292, 1514735, 1515114, 1515506, 1515911, 1516317, 1516740, 1517133, 1517528, 1517957]",101,SB,L,R,ITMSR,1.1,
1,600,trial,0,79,79,79,trial,"['S', 'S', 'S', 'S', 'S', 'S', 'S', 'S', 'C', 'C', 'C', 'C', 'C', 'C', 'C', 'C', 'C', 'C', 'C', 'C', 'C', 'C', 'C', 'C']","[1523591, 1523837, 1524542, 1525206, 1525825, 1526407, 1526970, 1527605, 1528195, 1528807, 1529402, 1529961, 1530546, 1531161, 1531750, 1532292, 1532943, 1533518, 1534090, 1534716, 1535269, 1535841, 1536430, 1537038]","[1523670, 1523946, 1524634, 1525311, 1525916, 1526518, 1527135, 1527680, 1528274, 1528891, 1529517, 1530095, 1530667, 1531289, 1531896, 1532489, 1533064, 1533643, 1534196, 1534841, 1535396, 1535998, 1536564, 1537173]","[95, 12, 105, 49, 208, 214, 93, 188, 216, 204, 11, 255, 7, 53, 72, 139, 251, 235, 191, 58, 108, 129, 44, 83]","[1523631, 1523891, 1524553, 1525219, 1525841, 1526422, 1527044, 1527619, 1528211, 1528820, 1529453, 1530017, 1530605, 1531230, 1531819, 1532386, 1532995, 1533532, 1534104, 1534774, 1535327, 1535909, 1536488, 1537099]","[1523434, 1524034, 1524634, 1525234, 1525834, 1526434, 1527034, 1527634, 1528215, 1528827, 1529422, 1529981, 1530566, 1531181, 1531770, 1532312, 1532963, 1533538, 1534110, 1534736, 1535289, 1535861, 1536450, 1537058]",101,SB,L,R,ITMSR,1.1,
4,400,trial,0,80,80,80,trial,"['S', 'S', 'S', 'S', 'S', 'S', 'S', 'S', 'C', 'C', 'C', 'C', 'C', 'C', 'C', 'C', 'C', 'C', 'C', 'C', 'C', 'C', 'C', 'C']","[1543050, 1543293, 1543555, 1543941, 1544348, 1544748, 1545142, 1545598, 1545982, 1546413, 1546840, 1547219, 1547611, 1548028, 1548425, 1548818, 1549215, 1549596, 1550004, 1550401, 1550817, 1551257, 1551637, 1552033]","[1543070, 1543314, 1543576, 1543961, 1544399, 1544798, 1545219, 1545687, 1546032, 1546476, 1546888, 1547310, 1547706, 1548098, 1548497, 1548920, 1549317, 1549712, 1550112, 1550529, 1550893, 1551325, 1551746, 1552115]","[74, 78, 80, 91, 139, 9, 147, 243, 206, 133, 114, 139, 167, 142, 135, 167, 233, 214, 140, 82, 118, 82, 59, 99]","[1543053, 1543297, 1543559, 1543942, 1544353, 1544754, 1545147, 1545605, 1545991, 1546420, 1546848, 1547227, 1547618, 1548036, 1548432, 1548826, 1549222, 1549604, 1550013, 1550475, 1550824, 1551267, 1551645, 1552044]","[1542808, 1543208, 1543608, 1544008, 1544408, 1544808, 1545208, 1545608, 1546002, 1546433, 1546860, 1547239, 1547631, 1548048, 1548445, 1548838, 1549235, 1549616, 1550024, 1550422, 1550837, 1551277, 1551657, 1552053]",101,SB,L,R,ITMSR,1.1,
0,400,trial,0,81,81,81,trial,"['S', 'S', 'S', 'S', 'S', 'S', 'S', 'C', 'C', 'C', 'C', 'C', 'C', 'C', 'C', 'C', 'C', 'C', 'C', 'C', 'C', 'C', 'C']","[1557918, 1558250, 1558633, 1559076, 1559469, 1559856, 1560245, 1560651, 1561056, 1561475, 1561854, 1562257, 1562657, 1563046, 1563459, 1563875, 1564276, 1564713, 1565107, 1565510, 1565894, 1566330, 1566717]","[1558002, 1558351, 1558738, 1559180, 1559607, 1559975, 1560385, 1560835, 1561233, 1561614, 1562022, 1562431, 1562791, 1563230, 1563629, 1564018, 1564485, 1564888, 1565263, 1565628, 1566086, 1566476, 1566891]","[186, 219, 210, 208, 243, 33, 63, 45, 182, 201, 25, 211, 254, 253, 8, 244, 172, 166, 254, 151, 187, 159, 181]","[1557923, 1558254, 1558638, 1559080, 1559473, 1559861, 1560249, 1560655, 1561061, 1561480, 1561859, 1562262, 1562661, 1563051, 1563464, 1563880, 1564281, 1564719, 1565111, 1565516, 1565898, 1566336, 1566723]","[1557485, 1557885, 1558285, 1558685, 1559085, 1559485, 1559885, 1560285, 1560671, 1561076, 1561495, 1561874, 1562277, 1562677, 1563066, 1563480, 1563895, 1564296, 1564733, 1565127, 1565530, 1565914, 1566350, 1566737]",101,SB,L,R,ITMSR,1.1,
0,400,trial,0,82,82,82,trial,"['S', 'S', 'S', 'S', 'S', 'S', 'S', 'S', 'C', 'C', 'C', 'C', 'C', 'C', 'C', 'C', 'C', 'C', 'C', 'C', 'C', 'C', 'C', 'C']","[1572600, 1572827, 1573184, 1573552, 1573947, 1574351, 1574749, 1575143, 1575589, 1575963, 1576397, 1576808, 1577179, 1577574, 1577987, 1578362, 1578800, 1579204, 1579568, 1579982, 1580394, 1580777, 1581229, 1581685]","[1572692, 1572970, 1573295, 1573662, 1574059, 1574475, 1574870, 1575278, 1575700, 1576097, 1576526, 1576924, 1577351, 1577738, 1578144, 1578541, 1578966, 1579359, 1579798, 1580168, 1580572, 1580995, 1581448, 1581845]","[246, 209, 143, 1, 239, 88, 75, 53, 199, 219, 31, 6, 5, 240, 34, 47, 44, 227, 36, 0, 5, 247, 247, 41]","[1572665, 1572832, 1573188, 1573557, 1573952, 1574358, 1574755, 1575149, 1575600, 1576035, 1576403, 1576815, 1577275, 1577654, 1577994, 1578371, 1578807, 1579290, 1579574, 1580090, 1580401, 1580899, 1581335, 1581691]","[1572384, 1572784, 1573184, 1573584, 1573984, 1574384, 1574785, 1575184, 1575609, 1575983, 1576417, 1576828, 1577199, 1577594, 1578007, 1578382, 1578820, 1579224, 1579588, 1580002, 1580414, 1580797, 1581249, 1581705]",101,SB,L,R,ITMSR,1.1,
0,600,trial,0,83,83,83,trial,"['S', 'S', 'S', 'S', 'S', 'S', 'S', 'S', 'S', 'C', 'C', 'C', 'C', 'C', 'C', 'C', 'C', 'C', 'C', 'C', 'C', 'C', 'C', 'C', 'C']","[1587260, 1587434, 1587786, 1588175, 1588682, 1589277, 1589818, 1590392, 1590999, 1591613, 1592110, 1592683, 1593239, 1593812, 1594360, 1594927, 1595510, 1596046, 1596578, 1597153, 1597745, 1598272, 1598799, 1599362, 1599989]","[1587354, 1587534, 1587978, 1588346, 1588900, 1589439, 1590017, 1590531, 1591200, 1591754, 1592270, 1592826, 1593435, 1593953, 1594520, 1595095, 1595694, 1596195, 1596785, 1597350, 1597965, 1598509, 1599029, 1599603, 1600231]","[226, 118, 43, 157, 69, 224, 79, 250, 211, 187, 57, 251, 39, 200, 202, 188, 3, 223, 143, 171, 178, 250, 234, 14, 182]","[1587264, 1587434, 1587789, 1588180, 1588686, 1589281, 1589910, 1590396, 1591004, 1591618, 1592181, 1592688, 1593243, 1593817, 1594365, 1594932, 1595514, 1596050, 1596681, 1597157, 1597750, 1598277, 1598893, 1599366, 1600094]","[1587006, 1587606, 1588206, 1588806, 1589406, 1590006, 1590606, 1591206, 1591633, 1592130, 1592704, 1593260, 1593832, 1594380, 1594947, 1595530, 1596066, 1596598, 1597173, 1597765, 1598292, 1598819, 1599382, 1600009]",101,SB,L,R,ITMSR,1.1,
2,600,trial,0,84,84,84,trial,"['S', 'S', 'S', 'S', 'S', 'S', 'S', 'S', 'S', 'S', 'S', 'C', 'C', 'C', 'C', 'C', 'C', 'C', 'C', 'C', 'C', 'C', 'C', 'C', 'C', 'C', 'C', 'C', 'C', 'C', 'C']","[1605993, 1606468, 1606914, 1607014, 1607473, 1608036, 1608668, 1608769, 1609286, 1609389, 1609897, 1610522, 1611141, 1611243, 1611736, 1611840, 1612326, 1612943, 1613043, 1613564, 1614255, 1614355, 1614830, 1615442, 1616098, 1616637, 1617254, 1617908, 1618478, 1619086, 1619720]","[1606086, 1606542, 1606934, 1607034, 1607629, 1608272, 1608689, 1608885, 1609309, 1609538, 1610157, 1610764, 1611162, 1611332, 1611760, 1611955, 1612510, 1612963, 1613192, 1613933, 1614275, 1614388, 1615118, 1615799, 1616378, 1617004, 1617611, 1618169, 1618825, 1619525]","[109, 107, 72, 206, 196, 29, 157, 51, 205, 247, 152, 88, 131, 43, 181, 238, 189, 249, 225, 63, 165, 45, 181, 3, 153, 197, 249, 98, 233, 202]","[1606061, 1606473, 1606919, 1607014, 1607477, 1608039, 1608672, 1608836, 1609289, 1609476, 1609901, 1610527, 1611146, 1611252, 1611741, 1611874, 1612329, 1612947, 1613046, 1613568, 1614259, 1614355, 1614833, 1615446, 1616101, 1616641, 1617257, 1617911, 1618481, 1619089]","[1605672, 1606273, 1606872, 1607472, 1608072, 1608672, 1609272, 1609872, 1610542, 1611161, 1611756, 1612346, 1612963, 1613584, 1614275, 1614850, 1615462, 1616118, 1616657, 1617274, 1617928, 1618498, 1619106, 1619740]",101,SB,L,R,ITMSR,1.1,
4,400,trial,0,85,85,85,trial,"['S', 'S', 'S', 'S', 'S', 'S', 'S', 'C', 'C', 'C', 'C', 'C', 'C', 'C', 'C', 'C', 'C', 'C', 'C', 'C', 'C', 'C', 'C']","[1625551, 1625851, 1626261, 1626693, 1627070, 1627489, 1627892, 1628274, 1628640, 1629041, 1629408, 1629780, 1630168, 1630544, 1630924, 1631321, 1631700, 1632079, 1632461, 1632840, 1633231, 1633601, 1633993]","[1625630, 1625908, 1626339, 1626761, 1627149, 1627569, 1627969, 1628374, 1628754, 1629156, 1629513, 1629902, 1630277, 1630665, 1631051, 1631428, 1631828, 1632184, 1632575, 1632942, 1633354, 1633716, 1634098]","[182, 176, 21, 22, 33, 194, 124, 213, 161, 183, 159, 132, 102, 183, 107, 118, 74, 23, 62, 44, 233, 238, 170]","[1625558, 1625858, 1626266, 1626698, 1627075, 1627495, 1627898, 1628279, 1628645, 1629047, 1629414, 1629814, 1630174, 1630580, 1630930, 1631327, 1631707, 1632084, 1632466, 1632846, 1633261, 1633607, 1633998]","[1625187, 1625587, 1625987, 1626387, 1626787, 1627187, 1627587, 1627987, 1628294, 1628660, 1629061, 1629428, 1629800, 1630188, 1630564, 1630944, 1631341, 1631720, 1632099, 1632481, 1632860, 1633251, 1633622, 1634013]",101,SB,L,R,ITMSR,1.1,
1,400,trial,0,86,86,86,trial,"['S', 'S', 'S', 'S', 'S', 'S', 'S', 'C', 'C', 'C', 'C', 'C', 'C', 'C', 'C', 'C', 'C', 'C', 'C', 'C', 'C', 'C', 'C']","[1640309, 1640624, 1640958, 1641357, 1641745, 1642168, 1642551, 1642940, 1643333, 1643725, 1644119, 1644487, 1644894, 1645295, 1645650, 1646046, 1646435, 1646835, 1647232, 1647636, 1648046, 1648463, 1648797]","[1640368, 1640691, 1641027, 1641446, 1641861, 1642269, 1642675, 1643066, 1643443, 1643839, 1644226, 1644612, 1644996, 1645410, 1645794, 1646195, 1646584, 1646969, 1647383, 1647774, 1648172, 1648546, 1648922]","[56, 123, 72, 61, 44, 42, 37, 39, 27, 10, 12, 5, 25, 15, 180, 225, 255, 21, 244, 239, 15, 222, 239]","[1640316, 1640634, 1640970, 1641367, 1641757, 1642180, 1642563, 1642951, 1643345, 1643738, 1644128, 1644499, 1644904, 1645306, 1645699, 1646058, 1646482, 1646846, 1647277, 1647677, 1648056, 1648477, 1648809]","[1639815, 1640215, 1640615, 1641015, 1641415, 1641816, 1642216, 1642616, 1642960, 1643353, 1643745, 1644139, 1644507, 1644914, 1645315, 1645670, 1646066, 1646455, 1646855, 1647252, 1647656, 1648066, 1648483, 1648817]",101,SB,L,R,ITMSR,1.1,
0,600,trial,0,87,87,87,trial,"['S', 'S', 'S', 'S', 'S', 'S', 'S', 'S', 'C', 'C', 'C', 'C', 'C', 'C', 'C', 'C', 'C', 'C', 'C', 'C', 'C', 'C', 'C', 'C']","[1654418, 1654679, 1655298, 1655970, 1656545, 1657146, 1657704, 1658330, 1658921, 1659501, 1660098, 1660681, 1661257, 1661816, 1662471, 1663065, 1663654, 1664238, 1664817, 1665410, 1665986, 1666565, 1667127, 1667688]","[1654504, 1654805, 1655430, 1656070, 1656692, 1657322, 1657934, 1658516, 1659092, 1659734, 1660284, 1660889, 1661509, 1662075, 1662698, 1663329, 1663916, 1664495, 1665053, 1665660, 1666235, 1666756, 1667419]","[230, 4, 77, 56, 60, 36, 59, 28, 21, 28, 36, 47, 37, 56, 42, 35, 23, 10, 223, 219, 218, 217, 189]","[1654433, 1654690, 1655308, 1655981, 1656556, 1657158, 1657745, 1658341, 1658933, 1659511, 1660107, 1660723, 1661297, 1661896, 1662480, 1663073, 1663664, 1664249, 1664827, 1665419, 1666089, 1666574, 1667136]","[1654216, 1654816, 1655416, 1656016, 1656616, 1657217, 1657816, 1658416, 1658941, 1659522, 1660119, 1660701, 1661277, 1661836, 1662491, 1663085, 1663674, 1664258, 1664837, 1665430, 1666007, 1666585, 1667147, 1667708]",101,SB,L,R,ITMSR,1.1,
5,400,trial,0,88,88,88,trial,"['S', 'S', 'S', 'S', 'S', 'S', 'S', 'S', 'C', 'C', 'C', 'C', 'C', 'C', 'C', 'C', 'C', 'C', 'C', 'C', 'C', 'C', 'C', 'C']","[1673442, 1673688, 1674018, 1674331, 1674708, 1675137, 1675556, 1675977, 1676390, 1676770, 1677184, 1677609, 1678018, 1678432, 1678844, 1679235, 1679649, 1680049, 1680461, 1680870, 1681293, 1681710, 1682094, 1682493]","[1673519, 1673774, 1674097, 1674456, 1674855, 1675267, 1675722, 1676160, 1676562, 1676998, 1677393, 1677784, 1678220, 1678651, 1679051, 1679442, 1679880, 1680280, 1680683, 1681102, 1681500, 1681903, 1682284, 1682757]","[139, 131, 205, 128, 163, 96, 81, 156, 160, 186, 203, 143, 181, 198, 207, 204, 225, 246, 248, 245, 242, 209, 209, 235]","[1673454, 1673699, 1674030, 1674343, 1674753, 1675177, 1675598, 1676066, 1676466, 1676909, 1677295, 1677703, 1678121, 1678532, 1678946, 1679345, 1679768, 1680187, 1680576, 1680997, 1681411, 1681808, 1682191, 1682657]","[1673217, 1673615, 1674015, 1674415, 1674815, 1675215, 1675615, 1676015, 1676410, 1676790, 1677204, 1677629, 1678039, 1678452, 1678864, 1679255, 1679669, 1680069, 1680481, 1680890, 1681313, 1681730, 1682114, 1682513]",101,SB,L,R,ITMSR,1.1,
