pitch,ioi,event,.thisRepN,.thisTrialN,.thisN,.thisIndex,event,tap_types,tap_times,release_times,peak_pressures,peak_times,tone_times,subject,experimenter,register,handedness,experiment,version,
,,SPR,0,-1,-1,0,SPR,"['P', 'P', 'P', 'P', 'P', 'P', 'P', 'P', 'P', 'P', 'P', 'P', 'P', 'P', 'P', 'P', 'P', 'P', 'P', 'P', 'P', 'P', 'P', 'P', 'P', 'P', 'P', 'P', 'P', 'P']","[26913, 27259, 27632, 27985, 28326, 28676, 28984, 29307, 29629, 29956, 30283, 30599, 30931, 31246, 31570, 31882, 32209, 32533, 32835, 33172, 33510, 33829, 34140, 34451, 34774, 35096, 35430, 35747, 36063, 36373]","[27011, 27358, 27728, 28097, 28445, 28784, 29084, 29396, 29736, 30065, 30380, 30691, 31027, 31331, 31657, 31968, 32291, 32613, 32937, 33258, 33600, 33915, 34214, 34500, 34845, 35171, 35504, 35821, 36135, 36452]","[83, 1, 93, 104, 130, 115, 129, 126, 135, 120, 135, 129, 130, 138, 125, 132, 132, 137, 140, 115, 137, 128, 131, 105, 118, 117, 112, 109, 85, 118]","[26917, 27265, 27635, 27988, 28329, 28679, 28987, 29310, 29632, 29959, 30286, 30602, 30935, 31249, 31574, 31885, 32214, 32536, 32838, 33175, 33513, 33832, 34143, 34454, 34777, 35099, 35433, 35750, 36066, 36376]",,102,SB,L,R,ITMSR,1.1,
1,500,practice,0,0,0,0,practice,"['B', 'S', 'S', 'S', 'S', 'S', 'S', 'C', 'C', 'C', 'C', 'C', 'C', 'C', 'C', 'C', 'C', 'C', 'C', 'C', 'C', 'C', 'C']","[95038, 95384, 96535, 96997, 97509, 98022, 98507, 98998, 99444, 99930, 100377, 100851, 101303, 101782, 102231, 102684, 103156, 103617, 104092, 104515, 104982, 105498, 105946]","[95151, 95502, 96623, 97110, 97633, 98152, 98646, 99129, 99584, 100045, 100497, 100961, 101403, 101886, 102328, 102778, 103232, 103702, 104164, 104611, 105065, 105585, 106048]","[52, 118, 125, 164, 148, 149, 171, 176, 175, 160, 172, 162, 155, 147, 163, 157, 151, 135, 146, 169, 156, 124, 155]","[95092, 95388, 96538, 96999, 97512, 98025, 98509, 99000, 99446, 99933, 100379, 100853, 101305, 101784, 102233, 102686, 103159, 103620, 104094, 104517, 104985, 105500, 105948]","[95050, 95550, 96050, 96550, 97050, 97550, 98050, 98550, 99018, 99464, 99950, 100397, 100871, 101323, 101803, 102251, 102704, 103176, 103638, 104112, 104536, 105003, 105518, 105966]",102,SB,L,R,ITMSR,1.1,
4,500,practice,0,1,1,1,practice,"['S', 'S', 'S', 'S', 'S', 'S', 'C', 'C', 'C', 'C', 'C', 'C', 'C', 'C', 'C', 'C', 'C', 'C', 'C', 'C', 'C', 'C']","[112581, 113086, 113592, 114114, 114603, 115078, 115594, 116058, 116521, 117017, 117489, 117970, 118455, 118944, 119411, 119900, 120352, 120821, 121297, 121762, 122251, 122720]","[112655, 113174, 113678, 114195, 114706, 115175, 115700, 116162, 116612, 117093, 117568, 118056, 118560, 119028, 119506, 119986, 120460, 120931, 121395, 121874, 122370, 122829]","[136, 121, 146, 132, 140, 152, 155, 151, 132, 139, 122, 104, 131, 132, 111, 107, 132, 133, 108, 148, 109, 114]","[112584, 113089, 113595, 114116, 114605, 115081, 115597, 116060, 116525, 117020, 117492, 117974, 118458, 118947, 119414, 119903, 120355, 120824, 121300, 121764, 122254, 122723]","[111660, 112159, 112659, 113159, 113659, 114159, 114659, 115160, 115614, 116078, 116541, 117037, 117509, 117990, 118475, 118964, 119431, 119920, 120372, 120841, 121317, 121782, 122271, 122740]",102,SB,L,R,ITMSR,1.1,
5,500,practice,0,2,2,2,practice,"['S', 'S', 'S', 'S', 'S', 'S', 'C', 'C', 'C', 'C', 'C', 'C', 'C', 'C', 'C', 'C', 'C', 'C', 'C', 'C', 'C', 'C']","[129173, 129644, 130158, 130665, 131147, 131649, 132151, 132645, 133135, 133591, 134067, 134549, 135002, 135491, 135966, 136452, 136960, 137431, 137917, 138354, 138857, 139329]","[129269, 129750, 130278, 130807, 131301, 131810, 132304, 132782, 133257, 133691, 134164, 134642, 135101, 135587, 136066, 136552, 137049, 137548, 138008, 138474, 138956, 139438]","[118, 114, 69, 33, 212, 189, 109, 108, 108, 103, 43, 78, 69, 28, 85, 42, 48, 129, 115, 112, 40, 105]","[129176, 129646, 130160, 130667, 131148, 131650, 132154, 132648, 133138, 133594, 134070, 134552, 135005, 135495, 135969, 136455, 136964, 137433, 137920, 138357, 138861, 139332]","[128222, 128722, 129222, 129722, 130222, 130722, 131222, 131722, 132171, 132665, 133155, 133611, 134087, 134569, 135022, 135512, 135986, 136472, 136980, 137451, 137937, 138374, 138877, 139350]",102,SB,L,R,ITMSR,1.1,
2,500,practice,0,3,3,3,practice,"['S', 'S', 'S', 'S', 'S', 'S', 'C', 'C', 'C', 'C', 'C', 'C', 'C', 'C', 'C', 'C', 'C', 'C', 'C', 'C', 'C', 'C']","[145876, 146351, 146857, 147346, 147860, 148313, 148826, 149344, 149808, 150273, 150751, 151229, 151695, 152179, 152675, 153142, 153628, 154110, 154554, 155039, 155527, 156018]","[145972, 146455, 146962, 147458, 147970, 148447, 148932, 149421, 149899, 150356, 150833, 151316, 151786, 152266, 152748, 153224, 153703, 154188, 154646, 155123, 155623, 156093]","[103, 110, 65, 84, 86, 100, 87, 30, 98, 76, 55, 46, 64, 35, 41, 48, 15, 42, 75, 58, 37, 33]","[145881, 146354, 146862, 147349, 147863, 148316, 148829, 149349, 149812, 150276, 150754, 151234, 151699, 152184, 152679, 153146, 153633, 154115, 154558, 155043, 155531, 156022]","[144933, 145433, 145933, 146434, 146934, 147434, 147934, 148434, 148846, 149364, 149828, 150293, 150771, 151249, 151715, 152199, 152695, 153162, 153648, 154130, 154574, 155059, 155547, 156038]",102,SB,L,R,ITMSR,1.1,
0,500,practice,0,4,4,4,practice,"['S', 'S', 'S', 'S', 'C', 'C', 'C', 'C', 'C', 'C', 'C', 'C', 'C', 'C', 'C', 'C', 'C', 'C', 'C', 'C']","[163670, 164150, 164646, 165157, 165660, 166148, 166637, 167111, 167587, 168091, 168570, 169025, 169530, 170003, 170473, 170951, 171428, 171919, 172395, 172848]","[163769, 164254, 164753, 165257, 165764, 166237, 166720, 167182, 167665, 168163, 168640, 169123, 169593, 170077, 170543, 171031, 171512, 172005, 172463, 172940]","[2, 34, 58, 45, 71, 220, 29, 21, 32, 35, 9, 35, 180, 213, 13, 19, 15, 11, 24, 30]","[163674, 164154, 164649, 165161, 165664, 166152, 166641, 167115, 167591, 168094, 168574, 169028, 169535, 170008, 170476, 170955, 171432, 171923, 172399, 172852]","[161728, 162228, 162728, 163228, 163728, 164228, 164728, 165228, 165680, 166168, 166658, 167131, 167607, 168111, 168590, 169046, 169550, 170023, 170493, 170971, 171448, 171939, 172416, 172868]",102,SB,L,R,ITMSR,1.1,
3,500,practice,0,5,5,5,practice,"['S', 'S', 'S', 'S', 'C', 'C', 'C', 'C', 'C', 'C', 'C', 'C', 'C', 'C', 'C', 'C', 'C', 'C', 'C', 'C']","[180503, 180984, 181457, 182005, 182492, 182965, 183463, 183951, 184450, 184924, 185433, 185907, 186384, 186881, 187360, 187867, 188359, 188826, 189327, 189826]","[180577, 181057, 181534, 182083, 182588, 183051, 183548, 184037, 184519, 185012, 185504, 185990, 186466, 186952, 187451, 187937, 188443, 188947, 189433, 189923]","[168, 239, 199, 184, 221, 2, 209, 226, 206, 172, 226, 253, 231, 223, 190, 211, 140, 242, 222, 199]","[180507, 180988, 181463, 182009, 182496, 182969, 183469, 183955, 184454, 184930, 185437, 185911, 186388, 186886, 187364, 187871, 188364, 188830, 189331, 189829]","[178545, 179045, 179545, 180045, 180545, 181045, 181545, 182045, 182512, 182985, 183483, 183971, 184470, 184944, 185453, 185927, 186404, 186901, 187380, 187887, 188379, 188846, 189347, 189846]",102,SB,L,R,ITMSR,1.1,
4,400,trial,0,6,6,6,trial,"['S', 'S', 'S', 'S', 'C', 'C', 'C', 'C', 'C', 'C', 'C', 'C', 'C', 'C', 'C', 'C', 'C', 'C', 'C', 'C']","[229868, 230239, 230629, 231031, 231456, 231868, 232259, 232653, 233042, 233455, 233847, 234236, 234626, 235035, 235405, 235805, 236182, 236581, 236976, 237361]","[229951, 230324, 230737, 231145, 231575, 231966, 232376, 232759, 233142, 233551, 233950, 234332, 234721, 235112, 235504, 235895, 236270, 236667, 237060, 237443]","[100, 105, 126, 129, 134, 129, 115, 122, 123, 116, 92, 92, 105, 88, 121, 111, 87, 99, 109, 107]","[229871, 230243, 230632, 231034, 231459, 231871, 232262, 232656, 233046, 233458, 233851, 234240, 234630, 235039, 235408, 235808, 236185, 236584, 236979, 237364]","[228307, 228707, 229107, 229507, 229907, 230307, 230707, 231107, 231476, 231888, 232280, 232673, 233062, 233475, 233867, 234256, 234646, 235055, 235425, 235825, 236203, 236601, 236996, 237381]",102,SB,L,R,ITMSR,1.1,
5,400,trial,0,7,7,7,trial,"['S', 'S', 'S', 'S', 'C', 'C', 'C', 'C', 'C', 'C', 'C', 'C', 'C', 'C', 'C', 'C', 'C', 'C', 'C', 'C']","[244211, 244601, 245003, 245410, 245839, 246224, 246616, 247027, 247415, 247821, 248228, 248626, 249037, 249436, 249835, 250230, 250645, 251057, 251482, 251853]","[244305, 244695, 245121, 245514, 245950, 246318, 246734, 247120, 247506, 247921, 248316, 248728, 249116, 249518, 249915, 250305, 250718, 251122, 251546, 251931]","[57, 20, 74, 90, 89, 77, 78, 61, 83, 71, 78, 89, 82, 82, 93, 80, 55, 57, 20, 64]","[244215, 244606, 245006, 245413, 245842, 246227, 246619, 247030, 247418, 247825, 248232, 248629, 249041, 249439, 249838, 250234, 250648, 251060, 251486, 251856]","[242684, 243084, 243484, 243885, 244285, 244685, 245085, 245485, 245859, 246244, 246636, 247047, 247435, 247841, 248248, 248646, 249057, 249456, 249856, 250250, 250665, 251077, 251502, 251873]",102,SB,L,R,ITMSR,1.1,
5,600,trial,0,8,8,8,trial,"['S', 'S', 'S', 'S', 'C', 'C', 'C', 'C', 'C', 'C', 'C', 'C', 'C', 'C', 'C', 'C', 'C', 'C', 'C', 'C']","[259548, 260163, 260758, 261373, 261940, 262502, 263041, 263589, 264144, 264686, 265254, 265791, 266349, 266921, 267482, 268030, 268562, 269120, 269661, 270178]","[259677, 260287, 260882, 261492, 262064, 262614, 263152, 263700, 264235, 264787, 265362, 265888, 266446, 267009, 267578, 268121, 268653, 269218, 269761, 270277]","[65, 35, 40, 67, 73, 60, 62, 41, 24, 47, 42, 37, 22, 48, 14, 20, 47, 56, 249, 253]","[259552, 260167, 260761, 261377, 261943, 262506, 263045, 263592, 264148, 264689, 265257, 265795, 266353, 266926, 267487, 268035, 268566, 269124, 269666, 270183]","[257228, 257828, 258428, 259028, 259629, 260229, 260829, 261429, 261960, 262522, 263061, 263609, 264164, 264706, 265274, 265811, 266370, 266941, 267502, 268050, 268582, 269140, 269681, 270198]",102,SB,L,R,ITMSR,1.1,
1,400,trial,0,9,9,9,trial,"['S', 'S', 'S', 'S', 'C', 'C', 'C', 'C', 'C', 'C', 'C', 'C', 'C', 'C', 'C', 'C', 'C', 'C', 'C', 'C']","[277065, 277433, 277838, 278287, 278677, 279064, 279440, 279822, 280230, 280645, 281038, 281440, 281832, 282215, 282600, 282986, 283375, 283776, 284149, 284536]","[277165, 277539, 277961, 278381, 278788, 279155, 279554, 279960, 280332, 280732, 281134, 281520, 281905, 282290, 282684, 283065, 283453, 283844, 284240, 284622]","[7, 255, 93, 92, 86, 90, 79, 87, 51, 50, 35, 84, 59, 40, 51, 19, 45, 19, 33, 52]","[277069, 277438, 277841, 278290, 278681, 279067, 279443, 279825, 280233, 280649, 281042, 281443, 281835, 282219, 282603, 282990, 283379, 283780, 284153, 284540]","[275537, 275937, 276337, 276738, 277138, 277538, 277938, 278338, 278697, 279085, 279460, 279842, 280250, 280665, 281058, 281460, 281852, 282235, 282620, 283006, 283395, 283796, 284169, 284556]",102,SB,L,R,ITMSR,1.1,
1,400,trial,0,10,10,10,trial,"['S', 'S', 'S', 'S', 'C', 'C', 'C', 'C', 'C', 'C', 'C', 'C', 'C', 'C', 'C', 'C', 'C', 'C', 'C', 'C']","[291634, 292029, 292412, 292841, 293246, 293625, 294028, 294422, 294796, 295200, 295585, 295975, 296428, 296837, 297240, 297617, 298003, 298414, 298789, 299163]","[291710, 292126, 292516, 292938, 293326, 293719, 294119, 294507, 294902, 295297, 295691, 296080, 296521, 296919, 297322, 297715, 298097, 298488, 298850, 299242]","[40, 68, 67, 68, 91, 77, 87, 107, 112, 92, 98, 87, 73, 63, 53, 57, 85, 90, 16, 84]","[291637, 292033, 292416, 292845, 293251, 293628, 294031, 294425, 294799, 295203, 295588, 295980, 296432, 296841, 297243, 297621, 298006, 298417, 298793, 299166]","[290091, 290489, 290889, 291289, 291689, 292089, 292489, 292889, 293266, 293645, 294048, 294443, 294816, 295220, 295605, 295995, 296449, 296857, 297261, 297637, 298023, 298434, 298809, 299183]",102,SB,L,R,ITMSR,1.1,
1,600,trial,0,11,11,11,trial,"['S', 'S', 'S', 'S', 'C', 'C', 'C', 'C', 'C', 'C', 'C', 'C', 'C', 'C', 'C', 'C', 'C', 'C', 'C', 'C']","[307156, 307750, 308297, 308915, 309535, 310100, 310631, 311189, 311753, 312309, 312889, 313496, 314003, 314562, 315091, 315620, 316145, 316691, 317233, 317784]","[307267, 307837, 308398, 309013, 309627, 310181, 310722, 311276, 311835, 312399, 312969, 313565, 314110, 314639, 315177, 315722, 316240, 316788, 317333, 317891]","[116, 94, 56, 86, 78, 46, 68, 39, 29, 18, 26, 19, 28, 23, 18, 12, 15, 233, 46, 28]","[307160, 307755, 308300, 308918, 309539, 310104, 310635, 311193, 311757, 312313, 312893, 313501, 314007, 314566, 315096, 315624, 316149, 316696, 317236, 317788]","[304781, 305381, 305981, 306581, 307181, 307781, 308381, 308981, 309555, 310120, 310651, 311209, 311773, 312329, 312909, 313517, 314023, 314583, 315111, 315640, 316165, 316711, 317253, 317804]",102,SB,L,R,ITMSR,1.1,
5,600,trial,0,12,12,12,trial,"['S', 'S', 'S', 'S', 'C', 'C', 'C', 'C', 'C', 'C', 'C', 'C', 'C', 'C', 'C', 'C', 'C', 'C', 'C', 'C']","[325955, 326553, 327116, 327713, 328307, 328912, 329516, 330113, 330702, 331302, 331925, 332553, 333095, 333657, 334216, 334807, 335368, 335930, 336493, 337062]","[326064, 326647, 327203, 327802, 328402, 329009, 329613, 330200, 330775, 331386, 331995, 332626, 333193, 333753, 334321, 334879, 335476, 336032, 336595, 337153]","[121, 146, 140, 149, 157, 147, 149, 138, 142, 122, 92, 93, 124, 123, 112, 103, 140, 89, 129, 115]","[325958, 326555, 327119, 327716, 328309, 328914, 329518, 330116, 330705, 331305, 331928, 332556, 333099, 333660, 334219, 334810, 335371, 335934, 336496, 337065]","[323566, 324165, 324765, 325365, 325965, 326565, 327165, 327766, 328327, 328932, 329536, 330133, 330722, 331322, 331945, 332573, 333115, 333677, 334236, 334827, 335388, 335950, 336514, 337082]",102,SB,L,R,ITMSR,1.1,
4,400,trial,0,13,13,13,trial,"['S', 'S', 'S', 'S', 'C', 'C', 'C', 'C', 'C', 'C', 'C', 'C', 'C', 'C', 'C', 'C', 'C', 'C', 'C', 'C']","[344194, 344579, 344992, 345381, 345805, 346194, 346574, 346928, 347354, 347751, 348148, 348540, 348926, 349331, 349726, 350099, 350518, 350935, 351332, 351735]","[344273, 344668, 345085, 345483, 345896, 346275, 346674, 347037, 347432, 347828, 348231, 348616, 349008, 349416, 349803, 350173, 350590, 350996, 351407, 351808]","[132, 142, 142, 150, 132, 129, 122, 124, 120, 117, 119, 129, 143, 138, 133, 118, 113, 110, 110, 114]","[344197, 344582, 344995, 345384, 345808, 346196, 346577, 346930, 347357, 347754, 348150, 348544, 348929, 349333, 349728, 350101, 350520, 350938, 351335, 351738]","[342657, 343055, 343455, 343855, 344255, 344655, 345055, 345455, 345825, 346214, 346594, 346948, 347374, 347771, 348168, 348560, 348946, 349351, 349746, 350119, 350538, 350955, 351352, 351755]",102,SB,L,R,ITMSR,1.1,
3,600,trial,0,14,14,14,trial,"['S', 'S', 'S', 'S', 'C', 'C', 'C', 'C', 'C', 'C', 'C', 'C', 'C', 'C', 'C', 'C', 'C', 'C', 'C', 'C']","[359391, 359996, 360602, 361208, 361793, 362339, 362885, 363468, 364033, 364614, 365207, 365726, 366254, 366826, 367379, 367917, 368458, 369013, 369548, 370085]","[359505, 360094, 360709, 361302, 361895, 362432, 362980, 363558, 364128, 364723, 365295, 365801, 366342, 366908, 367470, 368011, 368549, 369116, 369635, 370168]","[26, 63, 108, 110, 117, 94, 104, 74, 85, 110, 91, 90, 123, 104, 89, 110, 109, 103, 104, 106]","[359395, 359999, 360605, 361211, 361796, 362341, 362887, 363470, 364036, 364617, 365210, 365729, 366257, 366829, 367382, 367920, 368461, 369016, 369551, 370087]","[357089, 357689, 358289, 358889, 359489, 360089, 360689, 361289, 361814, 362359, 362905, 363488, 364053, 364634, 365228, 365746, 366274, 366846, 367399, 367937, 368478, 369033, 369568, 370105]",102,SB,L,R,ITMSR,1.1,
0,600,trial,0,15,15,15,trial,"['S', 'S', 'S', 'S', 'C', 'C', 'C', 'C', 'C', 'C', 'C', 'C', 'C', 'C', 'C', 'C', 'C', 'C', 'C', 'C']","[377781, 378377, 378974, 379582, 380165, 380751, 381321, 381934, 382505, 383070, 383635, 384226, 384835, 385424, 385953, 386531, 387090, 387682, 388231, 388805]","[377845, 378461, 379048, 379602, 380239, 380820, 381392, 381998, 382575, 383152, 383723, 384303, 384904, 385513, 386044, 386623, 387178, 387765, 388324, 388881]","[229, 63, 90, 59, 73, 76, 49, 53, 61, 75, 80, 51, 78, 95, 61, 69, 91, 101, 101, 93]","[377784, 378380, 378976, 379585, 380168, 380754, 381324, 381937, 382509, 383073, 383638, 384229, 384838, 385426, 385956, 386534, 387092, 387685, 388234, 388808]","[375439, 376039, 376639, 377239, 377839, 378439, 379039, 379639, 380185, 380771, 381341, 381954, 382525, 383090, 383655, 384246, 384856, 385444, 385973, 386551, 387110, 387702, 388251, 388825]",102,SB,L,R,ITMSR,1.1,
0,600,trial,0,16,16,16,trial,"['S', 'S', 'S', 'S', 'C', 'C', 'C', 'C', 'C', 'C', 'C', 'C', 'C', 'C', 'C', 'C', 'C', 'C', 'C', 'C']","[396509, 397116, 397718, 398316, 398903, 399490, 400062, 400668, 401254, 401843, 402421, 402990, 403584, 404178, 404785, 405359, 405912, 406511, 407106, 407688]","[396591, 397202, 397800, 398389, 398988, 399565, 400151, 400755, 401321, 401914, 402497, 403067, 403660, 404260, 404864, 405453, 406001, 406591, 407183, 407756]","[64, 80, 114, 77, 62, 75, 70, 10, 40, 58, 59, 92, 73, 73, 36, 73, 94, 102, 108, 120]","[396512, 397119, 397720, 398319, 398906, 399492, 400065, 400671, 401257, 401846, 402424, 402992, 403587, 404180, 404788, 405361, 405915, 406514, 407108, 407690]","[394159, 394758, 395358, 395958, 396558, 397158, 397758, 398358, 398923, 399510, 400082, 400688, 401274, 401863, 402441, 403010, 403604, 404198, 404805, 405379, 405933, 406531, 407127, 407708]",102,SB,L,R,ITMSR,1.1,
0,400,trial,0,17,17,17,trial,"['S', 'S', 'S', 'S', 'C', 'C', 'C', 'C', 'C', 'C', 'C', 'C', 'C', 'C', 'C', 'C', 'C', 'C', 'C', 'C']","[414599, 414984, 415421, 415819, 416220, 416659, 417068, 417466, 417867, 418281, 418695, 419115, 419553, 419981, 420395, 420856, 421311, 421694, 422096, 422468]","[414674, 415071, 415497, 415906, 416314, 416735, 417150, 417557, 417944, 418352, 418767, 419198, 419630, 420062, 420481, 420938, 421372, 421768, 422164, 422551]","[116, 126, 114, 118, 134, 111, 113, 122, 102, 111, 104, 106, 79, 69, 79, 77, 22, 89, 93, 83]","[414602, 414987, 415424, 415821, 416222, 416661, 417070, 417468, 417870, 418284, 418697, 419117, 419556, 419984, 420397, 420859, 421314, 421697, 422098, 422470]","[413050, 413450, 413850, 414251, 414650, 415050, 415450, 415850, 416240, 416679, 417088, 417486, 417887, 418301, 418715, 419135, 419573, 420001, 420415, 420876, 421331, 421714, 422116, 422488]",102,SB,L,R,ITMSR,1.1,
2,400,trial,0,18,18,18,trial,"['S', 'S', 'S', 'S', 'C', 'C', 'C', 'C', 'C', 'C', 'C', 'C', 'C', 'C', 'C', 'C', 'C', 'C', 'C', 'C']","[429694, 430106, 430534, 430912, 431319, 431707, 432096, 432490, 432851, 433245, 433653, 434062, 434454, 434850, 435222, 435652, 436032, 436408, 436791, 437188]","[429764, 430171, 430600, 431005, 431415, 431793, 432189, 432565, 432957, 433328, 433729, 434126, 434533, 434924, 435320, 435726, 436104, 436487, 436862, 437263]","[141, 138, 152, 148, 150, 125, 131, 109, 134, 142, 135, 110, 120, 95, 129, 108, 116, 104, 103, 113]","[429698, 430108, 430536, 430914, 431321, 431710, 432098, 432493, 432854, 433247, 433655, 434065, 434456, 434852, 435225, 435655, 436035, 436411, 436794, 437191]","[428169, 428569, 428969, 429369, 429769, 430169, 430569, 430969, 431339, 431727, 432116, 432510, 432871, 433265, 433673, 434082, 434475, 434870, 435243, 435672, 436052, 436428, 436811, 437208]",102,SB,L,R,ITMSR,1.1,
2,400,trial,0,19,19,19,trial,"['S', 'S', 'S', 'S', 'C', 'C', 'C', 'C', 'C', 'C', 'C', 'C', 'C', 'C', 'C', 'C', 'C', 'C', 'C', 'C']","[444568, 444946, 445344, 445742, 446137, 446535, 446900, 447291, 447666, 448062, 448445, 448852, 449212, 449599, 449957, 450362, 450734, 451145, 451497, 451868]","[444630, 445024, 445421, 445830, 446218, 446595, 446974, 447369, 447740, 448141, 448531, 448927, 449289, 449684, 450044, 450433, 450819, 451219, 451576, 451945]","[103, 128, 120, 115, 122, 55, 74, 92, 93, 88, 97, 82, 83, 58, 84, 100, 129, 109, 98, 95]","[444571, 444949, 445347, 445745, 446140, 446539, 446903, 447294, 447669, 448065, 448448, 448856, 449215, 449602, 449960, 450365, 450737, 451148, 451501, 451871]","[443002, 443402, 443802, 444203, 444602, 445002, 445402, 445802, 446157, 446555, 446920, 447311, 447686, 448082, 448465, 448872, 449232, 449619, 449977, 450382, 450754, 451165, 451517, 451888]",102,SB,L,R,ITMSR,1.1,
3,600,trial,0,20,20,20,trial,"['S', 'S', 'S', 'S', 'C', 'C', 'C', 'C', 'C', 'C', 'C', 'C', 'C', 'C', 'C', 'C', 'C', 'C', 'C', 'C']","[459871, 460460, 461042, 461658, 462238, 462771, 463314, 463869, 464405, 464968, 465507, 466033, 466583, 467161, 467691, 468226, 468776, 469317, 469874, 470409]","[459937, 460537, 461124, 461729, 462325, 462855, 463387, 463943, 464484, 465046, 465589, 466130, 466670, 467236, 467768, 468300, 468859, 469403, 469926, 470488]","[87, 125, 117, 121, 125, 115, 114, 115, 119, 120, 120, 115, 103, 88, 92, 113, 116, 120, 112, 111]","[459875, 460463, 461045, 461660, 462241, 462774, 463318, 463873, 464408, 464971, 465509, 466036, 466585, 467164, 467694, 468229, 468780, 469320, 469877, 470411]","[457565, 458165, 458765, 459365, 459965, 460565, 461165, 461765, 462258, 462791, 463334, 463889, 464425, 464988, 465527, 466053, 466604, 467181, 467712, 468246, 468796, 469337, 469894, 470429]",102,SB,L,R,ITMSR,1.1,
4,600,trial,0,21,21,21,trial,"['S', 'S', 'S', 'S', 'C', 'C', 'C', 'C', 'C', 'C', 'C', 'C', 'C', 'C', 'C', 'C', 'C', 'C', 'C', 'C']","[478289, 478868, 479448, 480066, 480654, 481212, 481753, 482296, 482845, 483385, 483917, 484493, 485037, 485594, 486141, 486731, 487277, 487835, 488416, 488957]","[478351, 478954, 479521, 480145, 480742, 481287, 481836, 482381, 482925, 483463, 484014, 484564, 485117, 485672, 486241, 486809, 487376, 487925, 488496, 489017]","[78, 86, 96, 94, 88, 96, 92, 95, 81, 46, 91, 38, 44, 24, 54, 224, 40, 47, 48, 33]","[478292, 478871, 479451, 480069, 480657, 481215, 481756, 482299, 482849, 483389, 483919, 484496, 485040, 485598, 486146, 486735, 487281, 487839, 488420, 488961]","[475950, 476550, 477150, 477750, 478350, 478950, 479550, 480150, 480674, 481232, 481773, 482316, 482865, 483405, 483937, 484513, 485057, 485614, 486161, 486751, 487298, 487855, 488436, 488977]",102,SB,L,R,ITMSR,1.1,
5,400,trial,0,22,22,22,trial,"['S', 'S', 'S', 'S', 'C', 'C', 'C', 'C', 'C', 'C', 'C', 'C', 'C', 'C', 'C', 'C', 'C', 'C', 'C', 'C']","[496297, 496665, 497057, 497416, 497850, 498240, 498642, 499042, 499445, 499832, 500241, 500662, 501006, 501425, 501784, 502158, 502549, 502936, 503320, 503718]","[496357, 496738, 497138, 497511, 497935, 498321, 498726, 499125, 499529, 499912, 500317, 500732, 501113, 501498, 501863, 502237, 502620, 503011, 503400, 503794]","[30, 77, 24, 99, 125, 117, 87, 101, 101, 108, 112, 109, 121, 99, 120, 133, 126, 96, 90, 68]","[496302, 496668, 497060, 497419, 497853, 498243, 498646, 499045, 499448, 499835, 500244, 500666, 501009, 501429, 501786, 502161, 502551, 502939, 503324, 503723]","[494707, 495107, 495507, 495907, 496307, 496707, 497107, 497507, 497870, 498260, 498662, 499062, 499465, 499852, 500261, 500682, 501026, 501445, 501805, 502178, 502569, 502957, 503341, 503738]",102,SB,L,R,ITMSR,1.1,
2,600,trial,0,23,23,23,trial,"['S', 'S', 'S', 'S', 'C', 'C', 'C', 'C', 'C', 'C', 'C', 'C', 'C', 'C', 'C', 'C', 'C', 'C', 'C', 'C']","[511585, 512202, 512781, 513371, 513995, 514555, 515104, 515667, 516227, 516810, 517383, 517945, 518538, 519112, 519702, 520204, 520784, 521365, 521956, 522525]","[511686, 512283, 512877, 513469, 514073, 514635, 515182, 515742, 516308, 516892, 517474, 518044, 518618, 519188, 519772, 520290, 520845, 521441, 522028, 522592]","[199, 2, 22, 7, 4, 248, 204, 168, 215, 243, 178, 195, 198, 197, 169, 168, 210, 169, 224, 189]","[511589, 512207, 512785, 513375, 513999, 514561, 515108, 515673, 516231, 516814, 517387, 517949, 518542, 519117, 519707, 520208, 520788, 521370, 521960, 522528]","[509270, 509869, 510469, 511069, 511669, 512269, 512869, 513469, 514015, 514575, 515124, 515687, 516247, 516830, 517403, 517965, 518558, 519132, 519723, 520224, 520804, 521385, 521976, 522545]",102,SB,L,R,ITMSR,1.1,
1,600,trial,0,24,24,24,trial,"['S', 'S', 'S', 'S', 'C', 'C', 'C', 'C', 'C', 'C', 'C', 'C', 'C', 'C', 'C', 'C', 'C', 'C', 'C', 'C']","[530267, 530859, 531437, 532044, 532614, 533183, 533742, 534348, 534896, 535464, 536026, 536571, 537092, 537701, 538286, 538818, 539392, 539974, 540538, 541076]","[530338, 530917, 531511, 532120, 532694, 533256, 533816, 534404, 534961, 535533, 536109, 536654, 537183, 537775, 538350, 538900, 539476, 540054, 540610, 541171]","[90, 25, 54, 38, 243, 107, 81, 69, 6, 4, 33, 31, 59, 23, 48, 75, 122, 118, 63, 84]","[530271, 530864, 531442, 532048, 532619, 533188, 533746, 534353, 534900, 535470, 536031, 536577, 537098, 537707, 538291, 538823, 539397, 539979, 540545, 541081]","[527931, 528531, 529131, 529731, 530331, 530931, 531531, 532131, 532634, 533203, 533762, 534368, 534916, 535484, 536046, 536591, 537112, 537721, 538306, 538839, 539412, 539994, 540558, 541096]",102,SB,L,R,ITMSR,1.1,
0,400,trial,0,25,25,25,trial,"['S', 'S', 'S', 'S', 'C', 'C', 'C', 'C', 'C', 'C', 'C', 'C', 'C', 'C', 'C', 'C', 'C', 'C', 'C', 'C']","[548283, 548692, 549073, 549476, 549869, 550256, 550665, 551070, 551455, 551864, 552248, 552646, 553037, 553442, 553841, 554242, 554647, 555055, 555454, 555834]","[548332, 548745, 549137, 549543, 549932, 550321, 550728, 551121, 551513, 551920, 552311, 552698, 553104, 553504, 553903, 554309, 554700, 555117, 555510, 555882]","[112, 96, 115, 100, 110, 96, 68, 55, 74, 91, 74, 27, 13, 31, 48, 81, 83, 26, 74, 54]","[548286, 548695, 549076, 549479, 549872, 550260, 550668, 551073, 551458, 551867, 552251, 552650, 553041, 553446, 553844, 554245, 554650, 555059, 555457, 555837]","[546712, 547111, 547511, 547911, 548312, 548712, 549112, 549512, 549890, 550276, 550685, 551090, 551475, 551884, 552268, 552666, 553057, 553462, 553861, 554262, 554668, 555075, 555474, 555854]",102,SB,L,R,ITMSR,1.1,
4,600,trial,0,26,26,26,trial,"['S', 'S', 'S', 'S', 'C', 'C', 'C', 'C', 'C', 'C', 'C', 'C', 'C', 'C', 'C', 'C', 'C', 'C', 'C', 'C']","[563539, 564176, 564749, 565332, 565916, 566497, 567050, 567612, 568167, 568754, 569320, 569891, 570459, 571033, 571590, 572145, 572700, 573272, 573850, 574413]","[563616, 564241, 564813, 565399, 565998, 566551, 567106, 567668, 568236, 568821, 569389, 569953, 570519, 571088, 571653, 572204, 572753, 573326, 573917, 574471]","[62, 46, 34, 250, 3, 19, 10, 230, 245, 240, 210, 190, 242, 247, 254, 11, 233, 237, 29, 21]","[563544, 564180, 564753, 565338, 565921, 566501, 567055, 567617, 568171, 568758, 569324, 569896, 570464, 571037, 571594, 572149, 572704, 573276, 573854, 574417]","[561244, 561844, 562444, 563044, 563644, 564244, 564844, 565444, 565936, 566517, 567070, 567632, 568187, 568774, 569340, 569911, 570479, 571053, 571610, 572165, 572720, 573292, 573870, 574433]",102,SB,L,R,ITMSR,1.1,
3,400,trial,0,27,27,27,trial,"['S', 'S', 'S', 'S', 'C', 'C', 'C', 'C', 'C', 'C', 'C', 'C', 'C', 'C', 'C', 'C', 'C', 'C', 'C', 'C']","[581625, 582003, 582407, 582813, 583194, 583591, 583980, 584355, 584750, 585142, 585520, 585916, 586314, 586704, 587097, 587467, 587847, 588233, 588619, 589051]","[581663, 582054, 582468, 582868, 583265, 583654, 584036, 584408, 584811, 585190, 585578, 585979, 586376, 586767, 587161, 587537, 587907, 588294, 588691, 589116]","[254, 12, 22, 6, 209, 29, 223, 0, 0, 245, 9, 5, 241, 14, 35, 21, 38, 8, 243, 246]","[581629, 582007, 582411, 582817, 583198, 583596, 583983, 584359, 584754, 585145, 585524, 585920, 586318, 586708, 587101, 587471, 587850, 588237, 588622, 589057]","[580104, 580503, 580903, 581303, 581703, 582104, 582504, 582904, 583214, 583611, 584000, 584375, 584770, 585162, 585540, 585936, 586334, 586724, 587117, 587487, 587867, 588253, 588639, 589071]",102,SB,L,R,ITMSR,1.1,
2,600,trial,0,28,28,28,trial,"['S', 'S', 'S', 'S', 'C', 'C', 'C', 'C', 'C', 'C', 'C', 'C', 'C', 'C', 'C', 'C', 'C', 'C', 'C', 'C']","[596723, 597314, 597890, 598474, 599045, 599612, 600159, 600712, 601244, 601783, 602301, 602868, 603408, 604011, 604550, 605096, 605624, 606188, 606730, 607287]","[596788, 597386, 597946, 598542, 599106, 599668, 600226, 600772, 601311, 601852, 602371, 602927, 603475, 604069, 604606, 605166, 605693, 606253, 606795, 607355]","[10, 11, 193, 226, 226, 159, 170, 177, 192, 206, 155, 156, 223, 161, 174, 220, 226, 239, 175, 182]","[596727, 597317, 597893, 598477, 599048, 599615, 600163, 600716, 601248, 601787, 602305, 602872, 603412, 604015, 604554, 605101, 605628, 606191, 606733, 607291]","[594386, 594987, 595586, 596186, 596786, 597386, 597986, 598586, 599065, 599632, 600179, 600732, 601264, 601803, 602321, 602888, 603428, 604032, 604570, 605116, 605644, 606209, 606750, 607307]",102,SB,L,R,ITMSR,1.1,
3,400,trial,0,29,29,29,trial,"['C', 'C', 'C', 'C', 'C', 'C', 'C', 'C', 'C', 'C', 'C', 'C', 'C', 'C', 'C', 'C']","[616120, 616512, 616893, 617277, 617655, 618057, 618443, 618829, 619201, 619613, 619994, 620367, 620777, 621164, 621542, 621946]","[616183, 616563, 616942, 617345, 617718, 618107, 618492, 618880, 619264, 619666, 620059, 620435, 620845, 621218, 621600, 621990]","[39, 31, 9, 243, 14, 255, 10, 9, 26, 5, 17, 251, 247, 236, 48, 42]","[616124, 616516, 616897, 617281, 617659, 618060, 618446, 618832, 619205, 619616, 619997, 620371, 620781, 621167, 621545, 621949]","[613019, 613420, 613819, 614219, 614619, 615019, 615419, 615819, 616140, 616532, 616913, 617297, 617675, 618077, 618463, 618849, 619222, 619633, 620014, 620387, 620797, 621185, 621562, 621966]",102,SB,L,R,ITMSR,1.1,
4,400,trial,0,30,30,30,trial,"['C', 'C', 'C', 'C', 'C', 'C', 'C', 'C', 'C', 'C', 'C', 'C', 'C', 'C', 'C', 'C']","[643106, 643482, 643870, 644242, 644625, 645008, 645397, 645770, 646142, 646537, 646931, 647297, 647672, 648048, 648441, 648821]","[643176, 643546, 643932, 644315, 644706, 645072, 645453, 645841, 646209, 646594, 646994, 647364, 647737, 648115, 648505, 648886]","[119, 104, 93, 116, 109, 117, 119, 112, 125, 128, 107, 116, 117, 123, 111, 105]","[643110, 643486, 643873, 644245, 644628, 645011, 645400, 645773, 646147, 646540, 646934, 647300, 647675, 648052, 648443, 648824]","[639992, 640392, 640792, 641192, 641592, 641992, 642392, 642792, 643126, 643502, 643890, 644262, 644645, 645028, 645417, 645790, 646162, 646557, 646951, 647317, 647692, 648068, 648461, 648841]",102,SB,L,R,ITMSR,1.1,
2,400,trial,0,31,31,31,trial,"['C', 'C', 'C', 'C', 'C', 'C', 'C', 'C', 'C', 'C', 'C', 'C', 'C', 'C', 'C', 'C']","[658257, 658621, 659020, 659388, 659798, 660190, 660620, 660970, 661385, 661794, 662189, 662558, 662969, 663360, 663755, 664141]","[658315, 658691, 659083, 659462, 659863, 660257, 660677, 661058, 661449, 661843, 662252, 662637, 663036, 663430, 663829, 664222]","[88, 59, 103, 98, 112, 88, 66, 86, 73, 55, 54, 74, 79, 80, 56, 110]","[658260, 658625, 659023, 659391, 659801, 660194, 660623, 660973, 661388, 661797, 662192, 662560, 662971, 663363, 663759, 664144]","[654544, 654943, 655343, 655744, 656143, 656543, 656943, 657343, 658277, 658641, 659040, 659408, 659818, 660210, 660640, 660990, 661405, 661814, 662209, 662578, 662989, 663380, 663775, 664161]",102,SB,L,R,ITMSR,1.1,
2,400,trial,0,32,32,32,trial,"['S', 'S', 'S', 'S', 'C', 'C', 'C', 'C', 'C', 'C', 'C', 'C', 'C', 'C', 'C', 'C', 'C', 'C', 'C', 'C']","[671310, 671732, 672150, 672552, 672945, 673343, 673741, 674151, 674554, 674946, 675358, 675751, 676172, 676561, 676995, 677392, 677799, 678176, 678571, 678955]","[671376, 671806, 672226, 672623, 673012, 673418, 673819, 674224, 674650, 675013, 675443, 675820, 676237, 676639, 677057, 677469, 677874, 678250, 678639, 679030]","[46, 34, 32, 54, 56, 65, 75, 61, 24, 43, 6, 24, 27, 25, 11, 33, 20, 21, 35, 68]","[671314, 671736, 672155, 672557, 672949, 673346, 673744, 674155, 674558, 674950, 675361, 675755, 676175, 676564, 676999, 677395, 677804, 678179, 678574, 678958]","[669776, 670176, 670576, 670977, 671376, 671776, 672176, 672576, 672965, 673363, 673761, 674171, 674574, 674966, 675378, 675771, 676192, 676581, 677015, 677412, 677819, 678196, 678591, 678975]",102,SB,L,R,ITMSR,1.1,
1,400,trial,0,33,33,33,trial,"['S', 'S', 'S', 'S', 'C', 'C', 'C', 'C', 'C', 'C', 'C', 'C', 'C', 'C', 'C', 'C', 'C', 'C', 'C', 'C']","[686218, 686619, 687015, 687417, 687841, 688212, 688627, 688992, 689417, 689789, 690188, 690597, 691002, 691403, 691788, 692153, 692542, 692966, 693305, 693704]","[686276, 686686, 687082, 687485, 687906, 688312, 688697, 689091, 689494, 689878, 690259, 690662, 691070, 691475, 691879, 692242, 692627, 693036, 693381, 693774]","[9, 169, 166, 171, 197, 145, 225, 29, 251, 244, 229, 217, 197, 231, 37, 23, 19, 0, 61, 67]","[686222, 686623, 687019, 687421, 687845, 688217, 688631, 688995, 689421, 689794, 690192, 690601, 691006, 691407, 691792, 692157, 692545, 692970, 693309, 693707]","[684669, 685069, 685469, 685869, 686269, 686669, 687069, 687469, 687861, 688232, 688647, 689012, 689437, 689809, 690208, 690617, 691022, 691423, 691808, 692173, 692562, 692986, 693325, 693724]",102,SB,L,R,ITMSR,1.1,
2,600,trial,0,34,34,34,trial,"['S', 'S', 'S', 'S', 'C', 'C', 'C', 'C', 'C', 'C', 'C', 'C', 'C', 'C', 'C', 'C', 'C', 'C', 'C', 'C']","[701458, 702065, 702665, 703288, 703858, 704466, 705056, 705618, 706193, 706763, 707338, 707924, 708511, 709103, 709692, 710305, 710860, 711421, 712023, 712595]","[701533, 702148, 702744, 703351, 703930, 704523, 705105, 705690, 706258, 706838, 707412, 707988, 708569, 709158, 709755, 710341, 710927, 711494, 712093, 712667]","[1, 14, 12, 238, 3, 231, 201, 228, 242, 20, 18, 253, 242, 241, 2, 181, 214, 224, 243, 27]","[701461, 702069, 702669, 703293, 703863, 704472, 705061, 705624, 706197, 706767, 707342, 707929, 708515, 709107, 709697, 710309, 710864, 711426, 712027, 712598]","[699125, 699725, 700325, 700925, 701526, 702125, 702725, 703325, 703878, 704486, 705076, 705638, 706213, 706783, 707358, 707944, 708531, 709123, 709712, 710325, 710880, 711441, 712043, 712615]",102,SB,L,R,ITMSR,1.1,
4,600,trial,0,35,35,35,trial,"['S', 'S', 'S', 'S', 'C', 'C', 'C', 'C', 'C', 'C', 'C', 'C', 'C', 'C', 'C', 'C', 'C', 'C', 'C', 'C']","[720561, 721146, 721745, 722339, 722961, 723506, 724041, 724603, 725163, 725738, 726291, 726833, 727376, 727938, 728502, 729071, 729641, 730164, 730726, 731267]","[720629, 721224, 721816, 722416, 723012, 723573, 724114, 724668, 725227, 725819, 726353, 726906, 727456, 728026, 728586, 729139, 729728, 730275, 730821, 731359]","[57, 241, 249, 254, 238, 254, 240, 211, 5, 240, 238, 235, 227, 227, 191, 210, 32, 248, 4, 44]","[720565, 721152, 721750, 722344, 722966, 723510, 724046, 724609, 725168, 725743, 726296, 726837, 727382, 727943, 728506, 729076, 729647, 730169, 730730, 731271]","[718232, 718832, 719432, 720032, 720632, 721232, 721832, 722433, 722981, 723526, 724061, 724623, 725183, 725758, 726311, 726853, 727396, 727958, 728522, 729091, 729661, 730184, 730746, 731287]",102,SB,L,R,ITMSR,1.1,
0,400,trial,0,36,36,36,trial,"['S', 'S', 'S', 'S', 'C', 'C', 'C', 'C', 'C', 'C', 'C', 'C', 'C', 'C', 'C', 'C', 'C', 'C', 'C', 'C']","[738608, 739011, 739416, 739813, 740228, 740645, 741032, 741441, 741840, 742243, 742648, 743050, 743452, 743853, 744265, 744665, 745065, 745481, 745920, 746332]","[738688, 739092, 739507, 739912, 740319, 740727, 741136, 741525, 741918, 742334, 742720, 743121, 743525, 743933, 744339, 744738, 745136, 745563, 745992, 746415]","[243, 37, 31, 20, 23, 10, 47, 48, 38, 33, 26, 44, 37, 35, 38, 20, 22, 254, 6, 253]","[738613, 739015, 739421, 739818, 740233, 740651, 741037, 741445, 741844, 742247, 742652, 743054, 743457, 743857, 744269, 744669, 745069, 745485, 745924, 746337]","[737044, 737444, 737844, 738244, 738644, 739044, 739444, 739844, 740248, 740665, 741052, 741462, 741860, 742263, 742668, 743070, 743472, 743873, 744285, 744685, 745085, 745501, 745940, 746352]",102,SB,L,R,ITMSR,1.1,
5,600,trial,0,37,37,37,trial,"['S', 'S', 'S', 'S', 'C', 'C', 'C', 'C', 'C', 'C', 'C', 'C', 'C', 'C', 'C', 'C', 'C', 'C', 'C', 'C']","[754295, 754885, 755469, 756086, 756682, 757266, 757820, 758378, 758946, 759542, 760118, 760664, 761187, 761761, 762360, 762934, 763476, 764080, 764647, 765210]","[754375, 754970, 755551, 756173, 756779, 757345, 757888, 758457, 758994, 759602, 760185, 760732, 761255, 761866, 762434, 763011, 763569, 764161, 764738, 765289]","[20, 28, 8, 223, 166, 187, 171, 187, 181, 170, 135, 189, 155, 147, 128, 177, 118, 120, 150, 126]","[754300, 754889, 755474, 756090, 756687, 757270, 757824, 758383, 758951, 759547, 760123, 760669, 761191, 761765, 762365, 762938, 763482, 764085, 764652, 765215]","[751991, 752591, 753191, 753792, 754392, 754992, 755592, 756192, 756702, 757286, 757840, 758398, 758966, 759562, 760138, 760684, 761207, 761781, 762380, 762954, 763496, 764100, 764667, 765230]",102,SB,L,R,ITMSR,1.1,
0,400,trial,0,38,38,38,trial,"['C', 'C', 'C', 'C', 'C', 'C', 'C', 'C', 'C', 'C', 'C', 'C', 'C', 'C', 'C', 'C']","[774051, 774448, 774841, 775255, 775636, 776061, 776466, 776870, 777279, 777680, 778104, 778476, 778895, 779303, 779679, 780088]","[774118, 774515, 774922, 775336, 775730, 776144, 776557, 776964, 777352, 777749, 778166, 778568, 778970, 779365, 779763, 780190]","[41, 12, 22, 218, 213, 222, 215, 218, 196, 192, 196, 183, 223, 193, 207, 221]","[774054, 774451, 774845, 775259, 775641, 776065, 776470, 776875, 777284, 777684, 778108, 778481, 778898, 779308, 779683, 780092]","[770886, 771287, 771686, 772086, 772486, 772886, 773286, 773686, 774071, 774468, 774861, 775275, 775656, 776081, 776486, 776890, 777299, 777700, 778124, 778497, 778915, 779323, 779699, 780108]",102,SB,L,R,ITMSR,1.1,
1,600,trial,0,39,39,39,trial,"['S', 'S', 'S', 'S', 'C', 'C', 'C', 'C', 'C', 'C', 'C', 'C', 'C', 'C', 'C', 'C', 'C', 'C', 'C', 'C']","[788055, 788651, 789241, 789848, 790453, 791013, 791566, 792157, 792735, 793322, 793912, 794481, 795031, 795662, 796223, 796801, 797348, 797915, 798490, 799038]","[788099, 788725, 789311, 789921, 790518, 791033, 791586, 792177, 792755, 793342, 793932, 794501, 795052, 795682, 796314, 796896, 797368, 797935, 798510, 799058]","[125, 133, 252, 175, 148, 18, 11, 241, 15, 154, 204, 185, 188, 78, 228, 217, 246, 233, 229, 232]","[788059, 788657, 789246, 789853, 790458, 791017, 791571, 792162, 792738, 793326, 793916, 794484, 795035, 795665, 796227, 796805, 797351, 797918, 798494, 799041]","[785720, 786320, 786920, 787520, 788120, 788720, 789320, 789920, 790473, 791033, 791586, 792177, 792755, 793342, 793932, 794501, 795052, 795682, 796243, 796821, 797368, 797935, 798510, 799058]",102,SB,L,R,ITMSR,1.1,
0,600,trial,0,40,40,40,trial,"['S', 'S', 'S', 'S', 'C', 'C', 'C', 'C', 'C', 'C', 'C', 'C', 'C', 'C', 'C', 'C', 'C', 'C', 'C', 'C']","[806785, 807373, 807986, 808559, 809159, 809750, 810303, 810864, 811430, 812043, 812610, 813211, 813797, 814405, 814974, 815577, 816166, 816789, 817363, 817932]","[806873, 807458, 808067, 808644, 809239, 809832, 810405, 810970, 811524, 812129, 812712, 813290, 813890, 814483, 815065, 815647, 816231, 816875, 817439, 818027]","[41, 36, 48, 27, 24, 26, 26, 20, 243, 34, 44, 56, 39, 22, 37, 42, 43, 227, 25, 253]","[806788, 807376, 807989, 808562, 809163, 809754, 810306, 810868, 811435, 812047, 812614, 813215, 813800, 814409, 814978, 815581, 816169, 816793, 817368, 817936]","[804408, 805008, 805608, 806208, 806808, 807408, 808008, 808608, 809179, 809771, 810323, 810884, 811450, 812063, 812631, 813231, 813817, 814425, 814994, 815597, 816186, 816809, 817383, 817952]",102,SB,L,R,ITMSR,1.1,
1,600,trial,0,41,41,41,trial,"['S', 'S', 'S', 'S', 'C', 'C', 'C', 'C', 'C', 'C', 'C', 'C', 'C', 'C', 'C', 'C', 'C', 'C', 'C', 'C']","[826091, 826670, 827262, 827891, 828493, 829063, 829625, 830233, 830831, 831427, 831989, 832569, 833168, 833761, 834345, 834931, 835510, 836098, 836678, 837277]","[826174, 826762, 827364, 827982, 828584, 829169, 829719, 830324, 830911, 831533, 832099, 832677, 833278, 833850, 834443, 835007, 835597, 836204, 836785, 837367]","[208, 244, 13, 19, 5, 188, 14, 2, 236, 237, 240, 38, 11, 2, 25, 242, 251, 234, 19, 8]","[826095, 826674, 827268, 827894, 828496, 829068, 829629, 830237, 830835, 831431, 831993, 832573, 833172, 833765, 834350, 834935, 835514, 836102, 836682, 837281]","[823733, 824333, 824933, 825533, 826133, 826733, 827333, 827933, 828513, 829083, 829645, 830253, 830851, 831448, 832009, 832589, 833188, 833781, 834365, 834951, 835530, 836118, 836698, 837297]",102,SB,L,R,ITMSR,1.1,
3,400,trial,0,42,42,42,trial,"['S', 'S', 'S', 'S', 'C', 'C', 'C', 'C', 'C', 'C', 'C', 'C', 'C', 'C', 'C', 'C', 'C', 'C', 'C', 'C']","[844452, 844898, 845285, 845682, 846088, 846483, 846897, 847294, 847698, 848104, 848489, 848886, 849296, 849709, 850085, 850498, 850908, 851326, 851690, 852101]","[844536, 844976, 845377, 845783, 846155, 846554, 846979, 847372, 847774, 848181, 848572, 848967, 849378, 849796, 850177, 850575, 850978, 851423, 851792, 852193]","[118, 5, 15, 6, 34, 52, 75, 70, 57, 23, 42, 15, 25, 252, 252, 17, 3, 26, 24, 0]","[844455, 844901, 845288, 845686, 846092, 846487, 846901, 847298, 847702, 848108, 848493, 848890, 849299, 849712, 850089, 850501, 850911, 851330, 851694, 852105]","[842911, 843311, 843711, 844111, 844511, 844911, 845312, 845711, 846108, 846503, 846917, 847314, 847718, 848124, 848509, 848906, 849316, 849729, 850105, 850519, 850928, 851346, 851710, 852121]",102,SB,L,R,ITMSR,1.1,
3,400,trial,0,43,43,43,trial,"['S', 'S', 'S', 'S', 'C', 'C', 'C', 'C', 'C', 'C', 'C', 'C', 'C', 'C', 'C', 'C', 'C', 'C', 'C', 'C']","[859002, 859408, 859815, 860213, 860598, 861025, 861409, 861807, 862217, 862588, 863011, 863398, 863816, 864226, 864619, 865010, 865413, 865856, 866271, 866676]","[859070, 859495, 859892, 860308, 860678, 861097, 861479, 861882, 862296, 862693, 863095, 863484, 863899, 864305, 864694, 865081, 865481, 865926, 866344, 866743]","[55, 62, 64, 76, 254, 33, 13, 15, 184, 135, 138, 193, 103, 85, 147, 152, 171, 111, 147, 163]","[859005, 859412, 859819, 860217, 860601, 861028, 861412, 861810, 862222, 862594, 863015, 863403, 863821, 864231, 864623, 865014, 865418, 865861, 866275, 866680]","[857480, 857880, 858280, 858680, 859080, 859480, 859880, 860280, 860618, 861045, 861429, 861827, 862237, 862608, 863031, 863418, 863836, 864246, 864640, 865030, 865433, 865876, 866291, 866696]",102,SB,L,R,ITMSR,1.1,
2,600,trial,0,44,44,44,trial,"['S', 'S', 'S', 'S', 'C', 'C', 'C', 'C', 'C', 'C', 'C', 'C', 'C', 'C', 'C', 'C', 'C', 'C', 'C', 'C']","[874488, 875092, 875700, 876340, 876900, 877456, 877992, 878532, 879066, 879641, 880196, 880757, 881345, 881940, 882507, 883116, 883636, 884225, 884817, 885384]","[874582, 875176, 875778, 876418, 876983, 877538, 878073, 878615, 879143, 879732, 880299, 880871, 881427, 882020, 882604, 883194, 883730, 884320, 884900, 885490]","[193, 235, 159, 224, 223, 102, 181, 147, 237, 227, 15, 12, 234, 17, 254, 197, 171, 246, 213, 239]","[874492, 875097, 875705, 876344, 876904, 877461, 877996, 878536, 879070, 879645, 880199, 880760, 881348, 881943, 882511, 883120, 883640, 884229, 884822, 885388]","[872205, 872805, 873405, 874005, 874605, 875205, 875805, 876405, 876920, 877476, 878012, 878552, 879086, 879661, 880216, 880777, 881366, 881960, 882527, 883136, 883656, 884245, 884837, 885404]",102,SB,L,R,ITMSR,1.1,
5,400,trial,0,45,45,45,trial,"['S', 'S', 'S', 'S', 'C', 'C', 'C', 'C', 'C', 'C', 'C', 'C', 'C', 'C', 'C', 'C', 'C', 'C', 'C', 'C']","[892602, 892989, 893395, 893770, 894183, 894578, 894985, 895358, 895782, 896192, 896585, 896986, 897386, 897803, 898229, 898630, 899043, 899439, 899844, 900247]","[892678, 893065, 893470, 893869, 894270, 894653, 895060, 895440, 895863, 896272, 896675, 897072, 897459, 897871, 898296, 898650, 899107, 899501, 899912, 900316]","[67, 111, 191, 83, 151, 120, 194, 136, 136, 170, 218, 79, 133, 166, 109, 85, 95, 127, 76, 19]","[892607, 892993, 893400, 893775, 894187, 894582, 894989, 895364, 895787, 896196, 896589, 896990, 897391, 897807, 898233, 898634, 899047, 899443, 899849, 900252]","[891075, 891475, 891875, 892275, 892675, 893075, 893475, 893875, 894203, 894598, 895005, 895378, 895802, 896212, 896605, 897006, 897406, 897823, 898249, 898650, 899063, 899459, 899864, 900268]",102,SB,L,R,ITMSR,1.1,
3,600,trial,0,46,46,46,trial,"['S', 'S', 'S', 'S', 'C', 'C', 'C', 'C', 'C', 'C', 'C', 'C', 'C', 'C', 'C', 'C', 'C', 'C', 'C', 'C']","[908318, 908890, 909462, 910120, 910685, 911210, 911732, 912264, 912791, 913346, 913863, 914383, 914908, 915515, 916049, 916593, 917133, 917692, 918256, 918775]","[908374, 908976, 909552, 910203, 910780, 911298, 911822, 912347, 912862, 913421, 913965, 914469, 915003, 915579, 916123, 916679, 917213, 917771, 918326, 918873]","[75, 16, 247, 31, 6, 245, 221, 226, 207, 207, 250, 233, 238, 216, 223, 55, 206, 222, 185, 157]","[908323, 908894, 909466, 910125, 910689, 911213, 911736, 912268, 912795, 913350, 913867, 914387, 914912, 915519, 916054, 916597, 917137, 917696, 918261, 918780]","[905999, 906599, 907199, 907799, 908399, 908999, 909599, 910199, 910705, 911230, 911752, 912284, 912812, 913367, 913883, 914403, 914928, 915535, 916069, 916613, 917153, 917712, 918276, 918795]",102,SB,L,R,ITMSR,1.1,
1,400,trial,0,47,47,47,trial,"['S', 'S', 'S', 'S', 'C', 'C', 'C', 'C', 'C', 'C', 'C', 'C', 'C', 'C', 'C', 'C', 'C', 'C', 'C', 'C']","[925990, 926383, 926800, 927208, 927644, 928027, 928428, 928813, 929205, 929585, 929987, 930374, 930778, 931167, 931547, 931979, 932380, 932750, 933164, 933549]","[926063, 926465, 926875, 927282, 927705, 928086, 928488, 928883, 929272, 929664, 930055, 930452, 930843, 931241, 931636, 932049, 932460, 932832, 933252, 933628]","[28, 8, 252, 5, 10, 243, 232, 5, 235, 248, 242, 242, 181, 194, 208, 193, 220, 190, 237, 227]","[925995, 926387, 926804, 927212, 927648, 928032, 928433, 928817, 929210, 929589, 929992, 930379, 930784, 931172, 931553, 931984, 932385, 932755, 933169, 933554]","[924462, 924862, 925262, 925662, 926062, 926462, 926862, 927262, 927664, 928047, 928448, 928833, 929225, 929605, 930008, 930394, 930798, 931187, 931567, 931999, 932400, 932770, 933184, 933569]",102,SB,L,R,ITMSR,1.1,
4,600,trial,0,48,48,48,trial,"['S', 'S', 'S', 'S', 'C', 'C', 'C', 'C', 'C', 'C', 'C', 'C', 'C', 'C', 'C', 'C', 'C', 'C', 'C', 'C']","[941343, 941880, 942484, 943105, 943690, 944239, 944774, 945318, 945846, 946402, 946934, 947479, 948063, 948602, 949206, 949741, 950305, 950832, 951380, 951946]","[941411, 941966, 942568, 943183, 943776, 944317, 944841, 945394, 945940, 946482, 947025, 947568, 948132, 948692, 949279, 949840, 950382, 950945, 951478, 952018]","[3, 7, 212, 203, 198, 208, 152, 188, 155, 197, 204, 191, 108, 206, 183, 210, 127, 211, 203, 207]","[941348, 941884, 942488, 943110, 943695, 944244, 944779, 945324, 945852, 946407, 946939, 947484, 948068, 948608, 949212, 949747, 950310, 950837, 951386, 951952]","[939035, 939635, 940235, 940835, 941435, 942035, 942636, 943235, 943710, 944259, 944794, 945338, 945866, 946422, 946954, 947500, 948083, 948622, 949226, 949762, 950325, 950852, 951400, 951966]",102,SB,L,R,ITMSR,1.1,
5,400,trial,0,49,49,49,trial,"['C', 'C', 'C', 'C', 'C', 'C', 'C', 'C', 'C', 'C', 'C', 'C', 'C', 'C', 'C', 'C']","[960425, 960800, 961188, 961581, 961969, 962367, 962791, 963184, 963563, 963982, 964381, 964767, 965128, 965533, 965945, 966318]","[960505, 960873, 961266, 961669, 962051, 962455, 962861, 963275, 963654, 964069, 964460, 964852, 965234, 965625, 966025, 966409]","[99, 67, 67, 52, 83, 92, 82, 101, 91, 81, 52, 47, 46, 66, 49, 48]","[960429, 960804, 961192, 961585, 961972, 962371, 962795, 963187, 963566, 963985, 964385, 964770, 965132, 965536, 965948, 966321]","[957302, 957702, 958102, 958502, 958902, 959302, 959703, 960102, 960445, 960820, 961208, 961601, 961989, 962387, 962811, 963204, 963584, 964002, 964401, 964787, 965148, 965553, 965965, 966338]",102,SB,L,R,ITMSR,1.1,
4,400,trial,0,50,50,50,trial,"['S', 'S', 'S', 'S', 'C', 'C', 'C', 'C', 'C', 'C', 'C', 'C', 'C', 'C', 'C', 'C', 'C', 'C', 'C', 'C']","[973314, 973682, 974121, 974521, 974931, 975347, 975769, 976183, 976562, 976987, 977368, 977768, 978173, 978566, 978957, 979380, 979730, 980191, 980566, 980983]","[973411, 973793, 974215, 974638, 975044, 975433, 975859, 976289, 976673, 977075, 977474, 977862, 978250, 978636, 979032, 979450, 979837, 980260, 980651, 981061]","[201, 235, 245, 17, 243, 253, 223, 169, 192, 129, 158, 217, 209, 129, 223, 224, 21, 248, 225, 255]","[973318, 973686, 974126, 974525, 974936, 975350, 975773, 976188, 976566, 976992, 977372, 977773, 978178, 978570, 978961, 979384, 979734, 980195, 980570, 980987]","[971802, 972203, 972602, 973002, 973402, 973802, 974202, 974602, 974951, 975367, 975789, 976203, 976582, 977007, 977388, 977788, 978193, 978586, 978977, 979400, 979750, 980211, 980586, 981003]",102,SB,L,R,ITMSR,1.1,
3,600,trial,0,51,51,51,trial,"['S', 'S', 'S', 'S', 'C', 'C', 'C', 'C', 'C', 'C', 'C', 'C', 'C', 'C', 'C', 'C', 'C', 'C', 'C', 'C']","[988786, 989392, 989971, 990569, 991152, 991766, 992330, 992920, 993475, 994014, 994598, 995185, 995760, 996359, 996946, 997520, 998084, 998656, 999205, 999790]","[988876, 989484, 990066, 990668, 991265, 991839, 992428, 993002, 993554, 994119, 994684, 995275, 995875, 996456, 997054, 997628, 998169, 998745, 999307, 999871]","[231, 176, 105, 110, 237, 185, 115, 177, 143, 96, 171, 184, 208, 214, 178, 154, 188, 201, 234, 217]","[988790, 989396, 989976, 990574, 991157, 991770, 992335, 992924, 993480, 994019, 994603, 995189, 995764, 996363, 996952, 997525, 998088, 998660, 999209, 999794]","[986441, 987040, 987640, 988240, 988840, 989441, 990040, 990640, 991172, 991787, 992350, 992941, 993496, 994034, 994618, 995205, 995780, 996379, 996966, 997540, 998104, 998676, 999225, 999810]",102,SB,L,R,ITMSR,1.1,
0,600,trial,0,52,52,52,trial,"['S', 'S', 'S', 'S', 'C', 'C', 'C', 'C', 'C', 'C', 'C', 'C', 'C', 'C', 'C', 'C', 'C', 'C', 'C', 'C']","[1007597, 1008209, 1008814, 1009426, 1010018, 1010603, 1011211, 1011771, 1012376, 1012955, 1013531, 1014102, 1014638, 1015231, 1015777, 1016329, 1016883, 1017453, 1018004, 1018575]","[1007704, 1008295, 1008909, 1009526, 1010107, 1010692, 1011295, 1011863, 1012436, 1013037, 1013602, 1014170, 1014719, 1015307, 1015866, 1016402, 1016956, 1017527, 1018081, 1018649]","[216, 155, 185, 196, 149, 188, 217, 172, 90, 177, 48, 97, 54, 45, 199, 236, 208, 240, 205, 252]","[1007602, 1008215, 1008818, 1009430, 1010022, 1010608, 1011215, 1011776, 1012381, 1012960, 1013535, 1014108, 1014642, 1015236, 1015781, 1016332, 1016888, 1017457, 1018009, 1018580]","[1005265, 1005864, 1006465, 1007064, 1007664, 1008264, 1008864, 1009464, 1010038, 1010623, 1011231, 1011791, 1012397, 1012975, 1013551, 1014122, 1014658, 1015251, 1015797, 1016349, 1016903, 1017474, 1018024, 1018595]",102,SB,L,R,ITMSR,1.1,
5,600,trial,0,53,53,53,trial,"['S', 'S', 'S', 'S', 'C', 'C', 'C', 'C', 'C', 'C', 'C', 'C', 'C', 'C', 'C', 'C', 'C', 'C', 'C', 'C']","[1026385, 1026978, 1027565, 1028171, 1028783, 1029332, 1029866, 1030425, 1030947, 1031496, 1032043, 1032553, 1033106, 1033674, 1034237, 1034806, 1035380, 1035943, 1036500, 1037087]","[1026458, 1027058, 1027640, 1028250, 1028866, 1029408, 1029961, 1030515, 1031046, 1031607, 1032132, 1032680, 1033212, 1033795, 1034351, 1034920, 1035474, 1036051, 1036581, 1037178]","[127, 193, 111, 114, 168, 229, 215, 212, 207, 201, 201, 227, 233, 203, 173, 156, 118, 147, 138, 134]","[1026392, 1026983, 1027569, 1028176, 1028787, 1029337, 1029870, 1030429, 1030951, 1031500, 1032046, 1032557, 1033109, 1033678, 1034243, 1034810, 1035384, 1035948, 1036506, 1037091]","[1024070, 1024670, 1025270, 1025870, 1026470, 1027070, 1027671, 1028270, 1028803, 1029352, 1029886, 1030445, 1030967, 1031516, 1032064, 1032573, 1033126, 1033694, 1034257, 1034826, 1035400, 1035963, 1036520, 1037107]",102,SB,L,R,ITMSR,1.1,
5,600,trial,0,54,54,54,trial,"['S', 'S', 'S', 'S', 'C', 'C', 'C', 'C', 'C', 'C', 'C', 'C', 'C', 'C', 'C', 'C', 'C', 'C', 'C', 'C']","[1052060, 1052665, 1053270, 1053862, 1054472, 1055015, 1055565, 1056108, 1056630, 1057203, 1057772, 1058349, 1058907, 1059483, 1060051, 1060636, 1061200, 1061765, 1062343, 1062903]","[1052136, 1052754, 1053355, 1053966, 1054574, 1055122, 1055653, 1056204, 1056730, 1057305, 1057869, 1058434, 1059011, 1059569, 1060137, 1060738, 1061287, 1061856, 1062434, 1063000]","[244, 198, 141, 158, 130, 139, 174, 188, 160, 159, 201, 224, 214, 175, 232, 232, 211, 219, 209, 192]","[1052064, 1052670, 1053275, 1053867, 1054477, 1055021, 1055570, 1056113, 1056635, 1057208, 1057776, 1058353, 1058912, 1059488, 1060057, 1060641, 1061206, 1061770, 1062348, 1062909]","[1049775, 1050375, 1050975, 1051575, 1052175, 1052775, 1053375, 1053975, 1054492, 1055035, 1055585, 1056129, 1056650, 1057223, 1057793, 1058369, 1058927, 1059503, 1060071, 1060656, 1061220, 1061785, 1062363, 1062923]",102,SB,L,R,ITMSR,1.1,
0,600,trial,0,55,55,55,trial,"['S', 'S', 'S', 'S', 'C', 'C', 'C', 'C', 'C', 'C', 'C', 'C', 'C', 'C', 'C', 'C', 'C', 'C', 'C', 'C']","[1070888, 1071503, 1072072, 1072666, 1073319, 1073894, 1074416, 1074988, 1075549, 1076125, 1076673, 1077246, 1077818, 1078401, 1078983, 1079538, 1080141, 1080732, 1081299, 1081888]","[1070964, 1071578, 1072146, 1072761, 1073388, 1073974, 1074518, 1075072, 1075631, 1076199, 1076754, 1077341, 1077910, 1078500, 1079061, 1079645, 1080227, 1080812, 1081376, 1081958]","[62, 185, 137, 66, 53, 101, 50, 90, 241, 46, 98, 95, 57, 126, 86, 91, 92, 137, 70, 22]","[1070895, 1071508, 1072077, 1072672, 1073325, 1073899, 1074421, 1074993, 1075555, 1076131, 1076678, 1077252, 1077823, 1078406, 1078988, 1079543, 1080147, 1080737, 1081305, 1081893]","[1068569, 1069169, 1069769, 1070369, 1070969, 1071569, 1072169, 1072770, 1073339, 1073914, 1074436, 1075008, 1075569, 1076145, 1076694, 1077266, 1077838, 1078421, 1079003, 1079558, 1080161, 1080752, 1081319, 1081908]",102,SB,L,R,ITMSR,1.1,
2,600,trial,0,56,56,56,trial,"['S', 'S', 'S', 'S', 'C', 'C', 'C', 'C', 'C', 'C', 'C', 'C', 'C', 'C', 'C', 'C', 'C', 'C', 'C', 'C']","[1089869, 1090491, 1091125, 1091732, 1092354, 1092941, 1093534, 1094112, 1094676, 1095239, 1095831, 1096420, 1097040, 1097630, 1098232, 1098807, 1099380, 1099988, 1100549, 1101128]","[1089987, 1090592, 1091221, 1091832, 1092442, 1093032, 1093616, 1094226, 1094786, 1095379, 1095949, 1096542, 1097155, 1097738, 1098329, 1098907, 1099482, 1100076, 1100663, 1101209]","[207, 112, 113, 233, 174, 194, 189, 159, 208, 195, 42, 229, 181, 193, 24, 219, 17, 223, 177, 218]","[1089873, 1090496, 1091129, 1091739, 1092360, 1092946, 1093540, 1094118, 1094682, 1095245, 1095837, 1096425, 1097112, 1097634, 1098237, 1098813, 1099385, 1099995, 1100555, 1101133]","[1087580, 1088180, 1088780, 1089380, 1089980, 1090580, 1091180, 1091780, 1092374, 1092961, 1093554, 1094132, 1094696, 1095259, 1095852, 1096440, 1097060, 1097650, 1098252, 1098827, 1099400, 1100008, 1100569, 1101148]",102,SB,L,R,ITMSR,1.1,
5,600,trial,0,57,57,57,trial,"['S', 'S', 'S', 'S', 'C', 'C', 'C', 'C', 'C', 'C', 'C', 'C', 'C', 'C', 'C', 'C', 'C', 'C', 'C', 'C']","[1108826, 1109385, 1109987, 1110608, 1111220, 1111772, 1112313, 1112876, 1113431, 1113985, 1114557, 1115138, 1115721, 1116299, 1116863, 1117455, 1118031, 1118640, 1119177, 1119799]","[1108904, 1109474, 1110074, 1110695, 1111307, 1111860, 1112419, 1112968, 1113525, 1114088, 1114662, 1115225, 1115816, 1116393, 1116979, 1117557, 1118134, 1118739, 1119298, 1119895]","[148, 161, 129, 70, 57, 91, 135, 14, 233, 36, 96, 241, 245, 39, 245, 50, 56, 252, 8, 16]","[1108830, 1109390, 1109993, 1110615, 1111225, 1111777, 1112318, 1112882, 1113437, 1113990, 1114562, 1115144, 1115727, 1116305, 1116868, 1117460, 1118038, 1118646, 1119182, 1119804]","[1106495, 1107095, 1107695, 1108295, 1108895, 1109495, 1110095, 1110695, 1111240, 1111792, 1112333, 1112896, 1113451, 1114005, 1114577, 1115158, 1115741, 1116319, 1116883, 1117475, 1118051, 1118660, 1119197, 1119819]",102,SB,L,R,ITMSR,1.1,
4,400,trial,0,58,58,58,trial,"['S', 'S', 'S', 'S', 'C', 'C', 'C', 'C', 'C', 'C', 'C', 'C', 'C', 'C', 'C', 'C', 'C', 'C', 'C', 'C']","[1127042, 1127462, 1127873, 1128286, 1128669, 1129103, 1129520, 1129917, 1130327, 1130714, 1131122, 1131492, 1131901, 1132307, 1132719, 1133119, 1133549, 1133997, 1134412, 1134796]","[1127137, 1127562, 1127991, 1128376, 1128767, 1129185, 1129608, 1129996, 1130404, 1130808, 1131201, 1131583, 1131978, 1132388, 1132795, 1133210, 1133640, 1134083, 1134490, 1134871]","[226, 226, 224, 228, 201, 176, 218, 199, 187, 173, 142, 94, 63, 139, 135, 134, 158, 140, 120, 117]","[1127047, 1127467, 1127878, 1128290, 1128674, 1129108, 1129524, 1129921, 1130331, 1130718, 1131127, 1131498, 1131907, 1132313, 1132724, 1133124, 1133554, 1134002, 1134417, 1134801]","[1125521, 1125920, 1126320, 1126720, 1127120, 1127520, 1127920, 1128321, 1128689, 1129123, 1129540, 1129937, 1130347, 1130734, 1131142, 1131512, 1131921, 1132327, 1132739, 1133139, 1133570, 1134017, 1134432, 1134816]",102,SB,L,R,ITMSR,1.1,
0,400,trial,0,59,59,59,trial,"['S', 'S', 'S', 'S', 'C', 'C', 'C', 'C', 'C', 'C', 'C', 'C', 'C', 'C', 'C', 'C', 'C', 'C', 'C', 'C']","[1141832, 1142234, 1142628, 1143016, 1143414, 1143834, 1144226, 1144614, 1145005, 1145403, 1145798, 1146172, 1146589, 1146963, 1147367, 1147727, 1148165, 1148559, 1148979, 1149367]","[1141911, 1142322, 1142727, 1143119, 1143511, 1143901, 1144297, 1144679, 1145075, 1145468, 1145879, 1146263, 1146659, 1147039, 1147440, 1147822, 1148225, 1148632, 1149046, 1149442]","[235, 198, 222, 195, 178, 127, 94, 130, 166, 137, 144, 118, 125, 97, 123, 127, 23, 58, 138, 55]","[1141835, 1142238, 1142632, 1143021, 1143419, 1143838, 1144230, 1144619, 1145010, 1145408, 1145803, 1146177, 1146594, 1146970, 1147373, 1147732, 1148171, 1148565, 1148983, 1149372]","[1140298, 1140698, 1141098, 1141498, 1141898, 1142298, 1142699, 1143098, 1143434, 1143854, 1144246, 1144634, 1145025, 1145423, 1145818, 1146192, 1146609, 1146983, 1147387, 1147747, 1148185, 1148579, 1148999, 1149387]",102,SB,L,R,ITMSR,1.1,
1,400,trial,0,60,60,60,trial,"['S', 'S', 'S', 'S', 'C', 'C', 'C', 'C', 'C', 'C', 'C', 'C', 'C', 'C', 'C', 'C', 'C', 'C', 'C', 'C']","[1156196, 1156611, 1157000, 1157397, 1157781, 1158172, 1158540, 1158943, 1159337, 1159723, 1160142, 1160549, 1160932, 1161317, 1161701, 1162095, 1162478, 1162882, 1163312, 1163714]","[1156264, 1156683, 1157069, 1157482, 1157867, 1158248, 1158619, 1159014, 1159414, 1159787, 1160209, 1160617, 1161020, 1161403, 1161783, 1162174, 1162556, 1162976, 1163390, 1163802]","[243, 181, 185, 162, 184, 186, 180, 160, 131, 161, 126, 137, 147, 170, 160, 180, 82, 92, 135, 139]","[1156201, 1156616, 1157005, 1157402, 1157786, 1158177, 1158545, 1158947, 1159343, 1159728, 1160147, 1160554, 1160936, 1161321, 1161706, 1162099, 1162483, 1162885, 1163316, 1163719]","[1154680, 1155080, 1155480, 1155880, 1156280, 1156680, 1157080, 1157480, 1157801, 1158192, 1158560, 1158963, 1159357, 1159743, 1160162, 1160569, 1160952, 1161337, 1161721, 1162115, 1162498, 1162902, 1163332, 1163735]",102,SB,L,R,ITMSR,1.1,
1,600,trial,0,61,61,61,trial,"['S', 'S', 'S', 'S', 'C', 'C', 'C', 'C', 'C', 'C', 'C', 'C', 'C', 'C', 'C', 'C', 'C', 'C', 'C', 'C']","[1171599, 1172184, 1172751, 1173350, 1173949, 1174491, 1175025, 1175574, 1176104, 1176657, 1177224, 1177807, 1178376, 1178952, 1179494, 1180035, 1180578, 1181124, 1181670, 1182205]","[1171664, 1172263, 1172835, 1173443, 1174051, 1174573, 1175115, 1175649, 1176201, 1176750, 1177307, 1177895, 1178464, 1179032, 1179586, 1180132, 1180677, 1181231, 1181740, 1182281]","[220, 208, 158, 171, 193, 120, 90, 66, 69, 126, 88, 111, 87, 101, 88, 137, 122, 74, 68, 8]","[1171603, 1172188, 1172755, 1173355, 1173954, 1174496, 1175030, 1175579, 1176110, 1176663, 1177229, 1177812, 1178380, 1178957, 1179498, 1180039, 1180583, 1181129, 1181676, 1182212]","[1169269, 1169868, 1170468, 1171068, 1171668, 1172269, 1172869, 1173469, 1173969, 1174511, 1175045, 1175595, 1176124, 1176677, 1177244, 1177827, 1178396, 1178972, 1179514, 1180055, 1180598, 1181144, 1181690, 1182225]",102,SB,L,R,ITMSR,1.1,
2,400,trial,0,62,62,62,trial,"['S', 'S', 'S', 'S', 'C', 'C', 'C', 'C', 'C', 'C', 'C', 'C', 'C', 'C', 'C', 'C', 'C', 'C', 'C', 'C']","[1189521, 1189919, 1190311, 1190711, 1191118, 1191534, 1191922, 1192315, 1192711, 1193097, 1193467, 1193851, 1194260, 1194636, 1195015, 1195411, 1195810, 1196184, 1196597, 1196979]","[1189602, 1190006, 1190398, 1190792, 1191201, 1191590, 1192001, 1192392, 1192773, 1193172, 1193559, 1193939, 1194344, 1194738, 1195098, 1195498, 1195891, 1196288, 1196676, 1197061]","[190, 205, 208, 189, 127, 94, 96, 118, 101, 94, 90, 69, 83, 94, 96, 71, 64, 98, 120, 147]","[1189525, 1189923, 1190316, 1190715, 1191123, 1191540, 1191927, 1192321, 1192716, 1193102, 1193474, 1193857, 1194265, 1194641, 1195021, 1195416, 1195815, 1196189, 1196602, 1196983]","[1188006, 1188406, 1188806, 1189207, 1189606, 1190006, 1190406, 1190806, 1191138, 1191554, 1191942, 1192335, 1192731, 1193117, 1193487, 1193871, 1194280, 1194656, 1195035, 1195431, 1195830, 1196205, 1196617, 1196999]",102,SB,L,R,ITMSR,1.1,
1,600,trial,0,63,63,63,trial,"['S', 'S', 'S', 'S', 'C', 'C', 'C', 'C', 'C', 'C', 'C', 'C', 'C', 'C', 'C', 'C', 'C', 'C', 'C', 'C']","[1205062, 1205642, 1206227, 1206845, 1207414, 1207968, 1208493, 1209035, 1209589, 1210119, 1210689, 1211255, 1211781, 1212338, 1212856, 1213382, 1213933, 1214477, 1215047, 1215587]","[1205129, 1205729, 1206301, 1206920, 1207492, 1208033, 1208558, 1209109, 1209661, 1210205, 1210769, 1211342, 1211879, 1212414, 1212942, 1213481, 1214009, 1214553, 1215131, 1215689]","[191, 160, 196, 135, 110, 140, 106, 8, 247, 13, 236, 63, 253, 38, 234, 70, 73, 84, 36, 67]","[1205067, 1205647, 1206233, 1206850, 1207419, 1207973, 1208499, 1209041, 1209593, 1210124, 1210694, 1211261, 1211787, 1212343, 1212861, 1213387, 1213938, 1214482, 1215052, 1215592]","[1202756, 1203356, 1203956, 1204556, 1205156, 1205756, 1206356, 1206957, 1207434, 1207988, 1208513, 1209055, 1209609, 1210139, 1210710, 1211275, 1211801, 1212358, 1212876, 1213402, 1213954, 1214497, 1215067, 1215607]",102,SB,L,R,ITMSR,1.1,
2,600,trial,0,64,64,64,trial,"['S', 'S', 'S', 'S', 'C', 'C', 'C', 'C', 'C', 'C', 'C', 'C', 'C', 'C', 'C', 'C', 'C', 'C', 'C', 'C']","[1223593, 1224172, 1224774, 1225391, 1225948, 1226533, 1227068, 1227617, 1228147, 1228709, 1229274, 1229813, 1230361, 1230988, 1231536, 1232104, 1232634, 1233193, 1233776, 1234329]","[1223674, 1224259, 1224794, 1225473, 1226036, 1226611, 1227161, 1227704, 1228241, 1228791, 1229380, 1229911, 1230467, 1231085, 1231620, 1232195, 1232719, 1233295, 1233855, 1234419]","[41, 15, 40, 35, 168, 200, 175, 201, 180, 192, 99, 96, 211, 195, 206, 203, 215, 190, 6, 11]","[1223600, 1224177, 1224780, 1225397, 1225954, 1226540, 1227075, 1227623, 1228154, 1228716, 1229345, 1229884, 1230366, 1230994, 1231542, 1232110, 1232640, 1233200, 1233781, 1234334]","[1221272, 1221871, 1222471, 1223071, 1223671, 1224271, 1224871, 1225472, 1225968, 1226553, 1227088, 1227637, 1228167, 1228729, 1229294, 1229833, 1230381, 1231008, 1231556, 1232124, 1232654, 1233213, 1233796, 1234349]",102,SB,L,R,ITMSR,1.1,
0,400,trial,0,65,65,65,trial,"['S', 'S', 'S', 'S', 'C', 'C', 'C', 'C', 'C', 'C', 'C', 'C', 'C', 'C', 'C', 'C', 'C', 'C', 'C', 'C']","[1241602, 1242014, 1242426, 1242827, 1243283, 1243715, 1244123, 1244525, 1244915, 1245309, 1245737, 1246139, 1246567, 1247008, 1247389, 1247794, 1248227, 1248642, 1249035, 1249451]","[1241681, 1242092, 1242506, 1242934, 1243357, 1243799, 1244204, 1244593, 1245003, 1245403, 1245825, 1246232, 1246662, 1247076, 1247475, 1247873, 1248300, 1248720, 1249112, 1249515]","[122, 104, 103, 91, 93, 63, 100, 66, 98, 18, 45, 40, 206, 221, 10, 24, 242, 227, 244, 252]","[1241607, 1242019, 1242431, 1242833, 1243288, 1243719, 1244128, 1244530, 1244920, 1245315, 1245743, 1246145, 1246573, 1247014, 1247394, 1247800, 1248232, 1248647, 1249041, 1249456]","[1240065, 1240463, 1240863, 1241263, 1241663, 1242063, 1242463, 1242863, 1243303, 1243736, 1244143, 1244546, 1244935, 1245329, 1245757, 1246159, 1246587, 1247028, 1247409, 1247814, 1248247, 1248662, 1249055, 1249471]",102,SB,L,R,ITMSR,1.1,
3,400,trial,0,66,66,66,trial,"['S', 'S', 'S', 'S', 'C', 'C', 'C', 'C', 'C', 'C', 'C', 'C', 'C', 'C', 'C', 'C', 'C', 'C', 'C', 'C']","[1256698, 1257095, 1257495, 1257935, 1258358, 1258743, 1259166, 1259574, 1259953, 1260327, 1260699, 1261120, 1261523, 1261906, 1262280, 1262675, 1263072, 1263455, 1263831, 1264249]","[1256779, 1257182, 1257629, 1258031, 1258451, 1258838, 1259256, 1259653, 1260039, 1260405, 1260805, 1261197, 1261611, 1261984, 1262375, 1262771, 1263154, 1263533, 1263893, 1264327]","[107, 176, 143, 160, 125, 142, 103, 73, 43, 77, 132, 81, 92, 53, 72, 72, 58, 61, 61, 37]","[1256742, 1257099, 1257500, 1257939, 1258364, 1258747, 1259172, 1259579, 1259958, 1260333, 1260704, 1261126, 1261529, 1261913, 1262285, 1262680, 1263077, 1263461, 1263836, 1264254]","[1255182, 1255582, 1255982, 1256382, 1256782, 1257182, 1257582, 1257982, 1258378, 1258763, 1259186, 1259594, 1259973, 1260347, 1260719, 1261140, 1261543, 1261926, 1262300, 1262695, 1263092, 1263475, 1263851, 1264269]",102,SB,L,R,ITMSR,1.1,
3,600,trial,0,67,67,67,trial,"['S', 'S', 'S', 'S', 'C', 'C', 'C', 'C', 'C', 'C', 'C', 'C', 'C', 'C', 'C', 'C', 'C', 'C', 'C', 'C']","[1272016, 1272586, 1273162, 1273752, 1274322, 1274845, 1275340, 1275850, 1276377, 1276894, 1277436, 1277932, 1278446, 1278970, 1279503, 1280020, 1280528, 1281044, 1281591, 1282115]","[1272128, 1272683, 1273248, 1273849, 1274422, 1274925, 1275413, 1275919, 1276449, 1276977, 1277503, 1278020, 1278560, 1279072, 1279589, 1280119, 1280605, 1281125, 1281682, 1282203]","[181, 110, 68, 96, 87, 89, 248, 248, 232, 70, 206, 1, 233, 3, 36, 221, 249, 255, 53, 226]","[1272022, 1272591, 1273167, 1273757, 1274328, 1274849, 1275345, 1275855, 1276382, 1276899, 1277442, 1277935, 1278451, 1278974, 1279508, 1280026, 1280534, 1281049, 1281595, 1282120]","[1269713, 1270313, 1270914, 1271514, 1272114, 1272714, 1273314, 1273914, 1274342, 1274865, 1275360, 1275870, 1276397, 1276914, 1277456, 1277953, 1278466, 1278990, 1279523, 1280040, 1280548, 1281064, 1281611, 1282136]",102,SB,L,R,ITMSR,1.1,
4,400,trial,0,68,68,68,trial,"['S', 'S', 'S', 'S', 'C', 'C', 'C', 'C', 'C', 'C', 'C', 'C', 'C', 'C', 'C', 'C', 'C', 'C', 'C', 'C']","[1289414, 1289797, 1290213, 1290609, 1290998, 1291412, 1291828, 1292229, 1292630, 1293031, 1293426, 1293832, 1294249, 1294661, 1295071, 1295481, 1295861, 1296279, 1296695, 1297096]","[1289490, 1289874, 1290295, 1290683, 1291102, 1291478, 1291898, 1292297, 1292698, 1293109, 1293509, 1293920, 1294323, 1294737, 1295143, 1295560, 1295944, 1296352, 1296769, 1297189]","[215, 167, 135, 178, 136, 74, 25, 77, 118, 42, 92, 36, 26, 55, 57, 63, 66, 45, 70, 97]","[1289418, 1289802, 1290217, 1290614, 1291003, 1291418, 1291833, 1292233, 1292634, 1293036, 1293430, 1293837, 1294255, 1294665, 1295076, 1295486, 1295865, 1296283, 1296700, 1297101]","[1287914, 1288313, 1288713, 1289113, 1289513, 1289913, 1290313, 1290713, 1291018, 1291432, 1291848, 1292249, 1292650, 1293051, 1293446, 1293852, 1294269, 1294681, 1295091, 1295501, 1295881, 1296300, 1296715, 1297116]",102,SB,L,R,ITMSR,1.1,
4,600,trial,0,69,69,69,trial,"['S', 'S', 'S', 'S', 'C', 'C', 'C', 'C', 'C', 'C', 'C', 'C', 'C', 'C', 'C', 'C', 'C', 'C', 'C', 'C']","[1305172, 1305758, 1306331, 1306929, 1307545, 1308099, 1308651, 1309175, 1309698, 1310259, 1310790, 1311356, 1311923, 1312491, 1313012, 1313553, 1314099, 1314648, 1315196, 1315772]","[1305253, 1305850, 1306417, 1307014, 1307635, 1308181, 1308738, 1309281, 1309789, 1310337, 1310880, 1311434, 1312003, 1312567, 1313108, 1313638, 1314194, 1314735, 1315284, 1315851]","[83, 34, 99, 95, 13, 11, 248, 27, 16, 10, 1, 236, 254, 234, 2, 255, 216, 147, 33, 206]","[1305177, 1305762, 1306336, 1306934, 1307550, 1308103, 1308655, 1309179, 1309703, 1310263, 1310794, 1311362, 1311927, 1312496, 1313016, 1313556, 1314104, 1314652, 1315201, 1315776]","[1302874, 1303474, 1304074, 1304674, 1305274, 1305874, 1306474, 1307074, 1307565, 1308120, 1308672, 1309195, 1309718, 1310279, 1310810, 1311376, 1311943, 1312512, 1313032, 1313573, 1314119, 1314668, 1315216, 1315792]",102,SB,L,R,ITMSR,1.1,
0,600,trial,0,70,70,70,trial,"['S', 'S', 'S', 'S', 'C', 'C', 'C', 'C', 'C', 'C', 'C', 'C', 'C', 'C', 'C', 'C', 'C', 'C', 'C', 'C']","[1323658, 1324213, 1324828, 1325407, 1326035, 1326599, 1327123, 1327671, 1328216, 1328773, 1329341, 1329918, 1330498, 1331078, 1331621, 1332151, 1332688, 1333227, 1333787, 1334356]","[1323752, 1324310, 1324904, 1325505, 1326108, 1326676, 1327216, 1327751, 1328287, 1328860, 1329424, 1329991, 1330579, 1331146, 1331705, 1332235, 1332779, 1333315, 1333882, 1334429]","[199, 221, 154, 69, 116, 72, 155, 118, 66, 43, 179, 110, 155, 84, 8, 183, 144, 175, 137, 72]","[1323709, 1324217, 1324833, 1325412, 1326041, 1326604, 1327127, 1327676, 1328220, 1328778, 1329345, 1329923, 1330502, 1331082, 1331627, 1332155, 1332692, 1333231, 1333792, 1334362]","[1321337, 1321937, 1322537, 1323138, 1323738, 1324338, 1324938, 1325538, 1326055, 1326619, 1327143, 1327691, 1328236, 1328793, 1329361, 1329938, 1330519, 1331098, 1331641, 1332171, 1332708, 1333248, 1333807, 1334376]",102,SB,L,R,ITMSR,1.1,
1,400,trial,0,71,71,71,trial,"['S', 'S', 'S', 'S', 'C', 'C', 'C', 'C', 'C', 'C', 'C', 'C', 'C', 'C', 'C', 'C', 'C', 'C', 'C', 'C']","[1341597, 1341987, 1342390, 1342806, 1343211, 1343631, 1344040, 1344442, 1344842, 1345228, 1345611, 1346015, 1346419, 1346822, 1347226, 1347645, 1348031, 1348447, 1348849, 1349271]","[1341680, 1342072, 1342482, 1342898, 1343310, 1343712, 1344134, 1344529, 1344922, 1345321, 1345707, 1346097, 1346504, 1346897, 1347316, 1347720, 1348126, 1348527, 1348955, 1349363]","[185, 157, 154, 187, 180, 171, 130, 140, 147, 106, 149, 161, 144, 148, 162, 115, 173, 147, 131, 100]","[1341601, 1341991, 1342395, 1342810, 1343215, 1343636, 1344046, 1344447, 1344847, 1345233, 1345615, 1346020, 1346424, 1346826, 1347231, 1347650, 1348035, 1348452, 1348854, 1349276]","[1340068, 1340468, 1340868, 1341268, 1341668, 1342068, 1342468, 1342868, 1343232, 1343651, 1344060, 1344462, 1344862, 1345248, 1345631, 1346035, 1346439, 1346842, 1347246, 1347665, 1348051, 1348467, 1348869, 1349292]",102,SB,L,R,ITMSR,1.1,
3,400,trial,0,72,72,72,trial,"['S', 'S', 'S', 'S', 'C', 'C', 'C', 'C', 'C', 'C', 'C', 'C', 'C', 'C', 'C', 'C', 'C', 'C', 'C', 'C']","[1356444, 1356899, 1357280, 1357712, 1358093, 1358504, 1358904, 1359302, 1359688, 1360110, 1360471, 1360859, 1361231, 1361644, 1362028, 1362386, 1362808, 1363191, 1363589, 1363989]","[1356538, 1356981, 1357385, 1357803, 1358198, 1358586, 1358979, 1359387, 1359764, 1360184, 1360562, 1360939, 1361323, 1361720, 1362114, 1362490, 1362893, 1363275, 1363676, 1364068]","[223, 149, 184, 170, 155, 181, 148, 137, 166, 120, 172, 146, 185, 95, 95, 176, 147, 154, 127, 47]","[1356448, 1356903, 1357285, 1357716, 1358098, 1358510, 1358908, 1359307, 1359692, 1360116, 1360475, 1360863, 1361235, 1361650, 1362033, 1362391, 1362813, 1363196, 1363594, 1363994]","[1354949, 1355350, 1355749, 1356149, 1356549, 1356949, 1357349, 1357749, 1358113, 1358524, 1358924, 1359322, 1359708, 1360130, 1360491, 1360879, 1361251, 1361665, 1362049, 1362406, 1362828, 1363211, 1363609, 1364009]",102,SB,L,R,ITMSR,1.1,
2,400,trial,0,73,73,73,trial,"['S', 'S', 'S', 'S', 'C', 'C', 'C', 'C', 'C', 'C', 'C', 'C', 'C', 'C', 'C', 'C', 'C', 'C', 'C', 'C']","[1370827, 1371279, 1371693, 1372071, 1372505, 1372936, 1373339, 1373754, 1374144, 1374553, 1374932, 1375364, 1375757, 1376157, 1376535, 1376932, 1377351, 1377786, 1378162, 1378573]","[1370920, 1371367, 1371761, 1372158, 1372584, 1373003, 1373423, 1373843, 1374228, 1374624, 1375035, 1375443, 1375840, 1376244, 1376647, 1377035, 1377435, 1377842, 1378244, 1378654]","[255, 191, 121, 149, 128, 111, 104, 97, 47, 48, 99, 82, 69, 111, 120, 107, 90, 29, 58, 112]","[1370832, 1371283, 1371698, 1372077, 1372509, 1372940, 1373345, 1373759, 1374149, 1374559, 1374938, 1375369, 1375762, 1376162, 1376540, 1376936, 1377357, 1377793, 1378167, 1378577]","[1369338, 1369738, 1370138, 1370539, 1370938, 1371338, 1371738, 1372138, 1372525, 1372956, 1373359, 1373774, 1374164, 1374573, 1374952, 1375384, 1375777, 1376177, 1376556, 1376952, 1377371, 1377806, 1378182, 1378593]",102,SB,L,R,ITMSR,1.1,
5,400,trial,0,74,74,74,trial,"['S', 'S', 'S', 'S', 'C', 'C', 'C', 'C', 'C', 'C', 'C', 'C', 'C', 'C', 'C', 'C', 'C', 'C', 'C', 'C']","[1385890, 1386286, 1386685, 1387081, 1387494, 1387879, 1388279, 1388644, 1389075, 1389498, 1389885, 1390272, 1390672, 1391081, 1391476, 1391865, 1392283, 1392666, 1393080, 1393507]","[1385971, 1386350, 1386778, 1387164, 1387571, 1387967, 1388360, 1388731, 1389151, 1389568, 1389959, 1390368, 1390752, 1391152, 1391575, 1391933, 1392359, 1392747, 1393176, 1393591]","[90, 59, 243, 45, 36, 80, 36, 25, 242, 246, 18, 24, 40, 21, 251, 205, 52, 10, 251, 227]","[1385896, 1386292, 1386691, 1387086, 1387499, 1387884, 1388284, 1388649, 1389082, 1389504, 1389890, 1390278, 1390678, 1391087, 1391482, 1391872, 1392287, 1392672, 1393087, 1393513]","[1384371, 1384771, 1385171, 1385571, 1385971, 1386371, 1386771, 1387171, 1387514, 1387899, 1388299, 1388664, 1389095, 1389518, 1389905, 1390292, 1390692, 1391101, 1391496, 1391885, 1392303, 1392686, 1393100, 1393527]",102,SB,L,R,ITMSR,1.1,
3,600,trial,0,75,75,75,trial,"['S', 'S', 'S', 'S', 'C', 'C', 'C', 'C', 'C', 'C', 'C', 'C', 'C', 'C', 'C', 'C', 'C', 'C', 'C', 'C']","[1401278, 1401869, 1402417, 1403019, 1403582, 1404110, 1404638, 1405172, 1405715, 1406265, 1406816, 1407365, 1407913, 1408471, 1409004, 1409557, 1410110, 1410653, 1411200, 1411773]","[1401367, 1401957, 1402499, 1403095, 1403675, 1404179, 1404703, 1405244, 1405768, 1406332, 1406895, 1407432, 1407986, 1408540, 1409081, 1409632, 1410182, 1410720, 1411280, 1411846]","[8, 90, 85, 90, 241, 252, 39, 249, 205, 45, 41, 25, 91, 48, 62, 218, 165, 247, 241, 227]","[1401284, 1401874, 1402422, 1403024, 1403587, 1404116, 1404643, 1405177, 1405720, 1406271, 1406822, 1407370, 1407919, 1408477, 1409009, 1409562, 1410115, 1410658, 1411206, 1411779]","[1398939, 1399539, 1400139, 1400739, 1401339, 1401939, 1402540, 1403139, 1403602, 1404130, 1404658, 1405192, 1405735, 1406285, 1406836, 1407385, 1407933, 1408491, 1409025, 1409577, 1410130, 1410673, 1411220, 1411793]",102,SB,L,R,ITMSR,1.1,
4,600,trial,0,76,76,76,trial,"['S', 'S', 'S', 'S', 'C', 'C', 'C', 'C', 'C', 'C', 'C', 'C', 'C', 'C', 'C', 'C', 'C', 'C', 'C', 'C']","[1419784, 1420343, 1420944, 1421560, 1422200, 1422740, 1423266, 1423832, 1424349, 1424854, 1425366, 1425908, 1426467, 1427017, 1427545, 1428078, 1428586, 1429112, 1429664, 1430171]","[1419864, 1420435, 1421029, 1421639, 1422269, 1422803, 1423338, 1423881, 1424423, 1424923, 1425433, 1425973, 1426518, 1427100, 1427610, 1428151, 1428663, 1429191, 1429731, 1430262]","[51, 82, 68, 44, 247, 205, 236, 195, 212, 176, 214, 160, 72, 191, 178, 196, 179, 170, 145, 172]","[1419788, 1420345, 1420947, 1421563, 1422205, 1422744, 1423270, 1423836, 1424354, 1424859, 1425370, 1425913, 1426471, 1427022, 1427550, 1428082, 1428591, 1429117, 1429670, 1430176]","[1417500, 1418100, 1418700, 1419300, 1419900, 1420500, 1421101, 1421701, 1422220, 1422760, 1423286, 1423852, 1424369, 1424874, 1425386, 1425928, 1426487, 1427037, 1427565, 1428098, 1428606, 1429132, 1429684, 1430191]",102,SB,L,R,ITMSR,1.1,
5,400,trial,0,77,77,77,trial,"['S', 'S', 'S', 'S', 'C', 'C', 'C', 'C', 'C', 'C', 'C', 'C', 'C', 'C', 'C', 'C', 'C', 'C', 'C', 'C']","[1437100, 1437519, 1437933, 1438303, 1438704, 1439104, 1439495, 1439872, 1440299, 1440699, 1441095, 1441483, 1441860, 1442256, 1442634, 1443022, 1443437, 1443829, 1444224, 1444643]","[1437176, 1437598, 1438013, 1438386, 1438786, 1439173, 1439564, 1439946, 1440364, 1440773, 1441159, 1441556, 1441940, 1442317, 1442701, 1443092, 1443495, 1443885, 1444287, 1444713]","[78, 37, 49, 70, 62, 53, 78, 76, 32, 33, 14, 229, 53, 37, 67, 74, 79, 50, 64, 33]","[1437103, 1437522, 1437936, 1438306, 1438708, 1439108, 1439499, 1439875, 1440302, 1440702, 1441098, 1441486, 1441863, 1442259, 1442637, 1443024, 1443440, 1443833, 1444227, 1444646]","[1435563, 1435962, 1436362, 1436762, 1437162, 1437562, 1437962, 1438362, 1438724, 1439124, 1439515, 1439892, 1440319, 1440719, 1441115, 1441503, 1441880, 1442276, 1442654, 1443042, 1443458, 1443849, 1444244, 1444663]",102,SB,L,R,ITMSR,1.1,
0,400,trial,0,78,78,78,trial,"['S', 'S', 'S', 'S', 'C', 'C', 'C', 'C', 'C', 'C', 'C', 'C', 'C', 'C', 'C', 'C', 'C', 'C', 'C', 'C']","[1457103, 1457488, 1457908, 1458296, 1458693, 1459094, 1459479, 1459862, 1460257, 1460641, 1461015, 1461394, 1461803, 1462203, 1462579, 1462991, 1463357, 1463753, 1464137, 1464510]","[1457174, 1457575, 1457994, 1458386, 1458784, 1459152, 1459548, 1459938, 1460333, 1460719, 1461101, 1461481, 1461883, 1462298, 1462675, 1463056, 1463432, 1463820, 1464213, 1464597]","[9, 21, 51, 34, 25, 207, 233, 227, 250, 239, 200, 184, 175, 155, 178, 108, 145, 171, 183, 191]","[1457107, 1457492, 1457911, 1458300, 1458696, 1459099, 1459483, 1459866, 1460261, 1460645, 1461018, 1461398, 1461808, 1462208, 1462583, 1462998, 1463362, 1463757, 1464141, 1464514]","[1455571, 1455971, 1456371, 1456771, 1457171, 1457571, 1457971, 1458371, 1458713, 1459115, 1459500, 1459883, 1460277, 1460661, 1461036, 1461414, 1461823, 1462223, 1462599, 1463011, 1463377, 1463773, 1464157, 1464530]",102,SB,L,R,ITMSR,1.1,
1,400,trial,0,79,79,79,trial,"['S', 'S', 'S', 'S', 'C', 'C', 'C', 'C', 'C', 'C', 'C', 'C', 'C', 'C', 'C', 'C', 'C', 'C', 'C', 'C']","[1471448, 1471834, 1472231, 1472667, 1473083, 1473472, 1473864, 1474245, 1474638, 1475090, 1475447, 1475825, 1476201, 1476597, 1477015, 1477395, 1477797, 1478176, 1478546, 1478910]","[1471524, 1471917, 1472323, 1472763, 1473179, 1473566, 1473964, 1474341, 1474721, 1475166, 1475522, 1475899, 1476293, 1476672, 1477078, 1477476, 1477875, 1478256, 1478641, 1479007]","[1, 248, 4, 216, 244, 128, 142, 200, 210, 164, 168, 178, 130, 161, 140, 100, 124, 141, 155, 144]","[1471452, 1471838, 1472234, 1472672, 1473088, 1473477, 1473868, 1474250, 1474642, 1475095, 1475453, 1475830, 1476207, 1476601, 1477020, 1477400, 1477803, 1478181, 1478550, 1478916]","[1469923, 1470323, 1470723, 1471123, 1471523, 1471923, 1472323, 1472723, 1473103, 1473492, 1473884, 1474265, 1474658, 1475110, 1475467, 1475845, 1476221, 1476617, 1477036, 1477415, 1477817, 1478196, 1478566, 1478930]",102,SB,L,R,ITMSR,1.1,
1,400,trial,0,80,80,80,trial,"['S', 'S', 'S', 'S', 'C', 'C', 'C', 'C', 'C', 'C', 'C', 'C', 'C', 'C', 'C', 'C', 'C', 'C', 'C', 'C']","[1485815, 1486202, 1486623, 1487019, 1487440, 1487831, 1488227, 1488634, 1489046, 1489424, 1489828, 1490209, 1490595, 1490983, 1491394, 1491774, 1492203, 1492570, 1492993, 1493373]","[1485896, 1486283, 1486702, 1487114, 1487526, 1487907, 1488315, 1488712, 1489121, 1489499, 1489920, 1490299, 1490688, 1491058, 1491474, 1491843, 1492272, 1492659, 1493055, 1493447]","[244, 1, 6, 39, 8, 252, 246, 245, 243, 232, 242, 198, 227, 236, 196, 184, 217, 201, 205, 176]","[1485819, 1486208, 1486626, 1487023, 1487444, 1487835, 1488232, 1488638, 1489051, 1489429, 1489832, 1490214, 1490599, 1490989, 1491399, 1491778, 1492208, 1492574, 1492997, 1493379]","[1484282, 1484682, 1485082, 1485483, 1485882, 1486282, 1486682, 1487082, 1487460, 1487851, 1488247, 1488654, 1489067, 1489444, 1489848, 1490229, 1490615, 1491003, 1491415, 1491794, 1492224, 1492590, 1493013, 1493393]",102,SB,L,R,ITMSR,1.1,
5,600,trial,0,81,81,81,trial,"['S', 'S', 'S', 'S', 'C', 'C', 'C', 'C', 'C', 'C', 'C', 'C', 'C', 'C', 'C', 'C', 'C', 'C', 'C', 'C']","[1501012, 1501551, 1502131, 1502739, 1503332, 1503866, 1504369, 1504893, 1505415, 1505972, 1506548, 1507110, 1507674, 1508241, 1508774, 1509323, 1509853, 1510419, 1510983, 1511513]","[1501066, 1501638, 1502221, 1502825, 1503411, 1503940, 1504440, 1504960, 1505484, 1506065, 1506627, 1507198, 1507752, 1508311, 1508866, 1509403, 1509968, 1510500, 1511062, 1511611]","[219, 213, 15, 242, 9, 208, 248, 208, 167, 221, 194, 172, 239, 218, 225, 220, 208, 210, 164, 212]","[1501016, 1501555, 1502134, 1502743, 1503336, 1503870, 1504373, 1504898, 1505420, 1505977, 1506553, 1507116, 1507679, 1508246, 1508780, 1509328, 1509857, 1510424, 1510988, 1511518]","[1498705, 1499305, 1499906, 1500506, 1501106, 1501706, 1502306, 1502906, 1503352, 1503886, 1504389, 1504913, 1505435, 1505992, 1506568, 1507130, 1507694, 1508261, 1508794, 1509343, 1509873, 1510439, 1511003, 1511533]",102,SB,L,R,ITMSR,1.1,
3,600,trial,0,82,82,82,trial,"['S', 'S', 'S', 'S', 'C', 'C', 'C', 'C', 'C', 'C', 'C', 'C', 'C', 'C', 'C', 'C', 'C', 'C', 'C', 'C']","[1519144, 1519742, 1520336, 1520958, 1521570, 1522091, 1522608, 1523171, 1523718, 1524287, 1524866, 1525404, 1526002, 1526557, 1527143, 1527709, 1528250, 1528815, 1529376, 1529985]","[1519244, 1519828, 1520425, 1521037, 1521635, 1522166, 1522694, 1523236, 1523790, 1524350, 1524936, 1525491, 1526072, 1526633, 1527219, 1527788, 1528335, 1528895, 1529479, 1530071]","[81, 48, 24, 18, 229, 220, 183, 100, 181, 100, 20, 228, 220, 72, 84, 81, 39, 61, 158, 61]","[1519148, 1519747, 1520340, 1520962, 1521574, 1522096, 1522613, 1523176, 1523723, 1524292, 1524871, 1525410, 1526008, 1526562, 1527148, 1527714, 1528256, 1528820, 1529380, 1529990]","[1516852, 1517451, 1518051, 1518651, 1519251, 1519851, 1520451, 1521051, 1521590, 1522111, 1522628, 1523191, 1523738, 1524307, 1524886, 1525424, 1526022, 1526577, 1527163, 1527729, 1528270, 1528835, 1529396, 1530005]",102,SB,L,R,ITMSR,1.1,
5,400,trial,0,83,83,83,trial,"['S', 'S', 'S', 'S', 'C', 'C', 'C', 'C', 'C', 'C', 'C', 'C', 'C', 'C', 'C', 'C', 'C', 'C', 'C', 'C']","[1536851, 1537272, 1537672, 1538070, 1538459, 1538862, 1539261, 1539649, 1540041, 1540464, 1540873, 1541279, 1541650, 1542038, 1542436, 1542817, 1543245, 1543659, 1543997, 1544425]","[1536906, 1537319, 1537737, 1538155, 1538546, 1538935, 1539336, 1539718, 1540117, 1540537, 1540948, 1541355, 1541741, 1542114, 1542517, 1542907, 1543315, 1543703, 1544095, 1544512]","[203, 215, 120, 7, 27, 60, 110, 89, 95, 79, 83, 41, 80, 95, 107, 127, 114, 105, 139, 103]","[1536856, 1537276, 1537676, 1538075, 1538465, 1538867, 1539266, 1539654, 1540046, 1540469, 1540879, 1541284, 1541655, 1542043, 1542441, 1542821, 1543251, 1543664, 1544001, 1544429]","[1535319, 1535718, 1536118, 1536518, 1536918, 1537318, 1537718, 1538118, 1538479, 1538882, 1539281, 1539670, 1540061, 1540484, 1540893, 1541299, 1541670, 1542059, 1542456, 1542837, 1543265, 1543680, 1544017, 1544445]",102,SB,L,R,ITMSR,1.1,
3,400,trial,0,84,84,84,trial,"['S', 'S', 'S', 'S', 'C', 'C', 'C', 'C', 'C', 'C', 'C', 'C', 'C', 'C', 'C', 'C', 'C', 'C', 'C', 'C']","[1551655, 1552061, 1552475, 1552888, 1553285, 1553696, 1554102, 1554512, 1554928, 1555320, 1555715, 1556159, 1556575, 1556990, 1557395, 1557776, 1558195, 1558550, 1558992, 1559414]","[1551742, 1552139, 1552556, 1552974, 1553370, 1553768, 1554178, 1554583, 1554995, 1555394, 1555794, 1556222, 1556652, 1557071, 1557478, 1557863, 1558279, 1558653, 1559070, 1559489]","[25, 131, 131, 54, 253, 11, 39, 114, 247, 3, 40, 212, 107, 196, 175, 240, 192, 220, 204, 75]","[1551660, 1552065, 1552480, 1552893, 1553290, 1553701, 1554107, 1554516, 1554934, 1555326, 1555720, 1556163, 1556580, 1556997, 1557400, 1557781, 1558201, 1558555, 1558999, 1559419]","[1550156, 1550555, 1550955, 1551355, 1551755, 1552155, 1552556, 1552955, 1553305, 1553716, 1554122, 1554532, 1554948, 1555340, 1555735, 1556179, 1556595, 1557010, 1557415, 1557796, 1558215, 1558571, 1559012, 1559434]",102,SB,L,R,ITMSR,1.1,
4,600,trial,0,85,85,85,trial,"['S', 'S', 'S', 'S', 'C', 'C', 'C', 'C', 'C', 'C', 'C', 'C', 'C', 'C', 'C', 'C', 'C', 'C', 'C', 'C']","[1567185, 1567756, 1568301, 1568897, 1569505, 1570063, 1570601, 1571134, 1571682, 1572213, 1572731, 1573312, 1573850, 1574431, 1574945, 1575499, 1576072, 1576609, 1577154, 1577701]","[1567266, 1567826, 1568360, 1568970, 1569581, 1570131, 1570654, 1571198, 1571762, 1572296, 1572801, 1573380, 1573932, 1574500, 1575041, 1575570, 1576092, 1576694, 1577222, 1577772]","[41, 217, 79, 36, 169, 208, 110, 136, 101, 106, 91, 88, 101, 40, 45, 55, 79, 178, 184, 94]","[1567190, 1567761, 1568306, 1568902, 1569512, 1570068, 1570608, 1571140, 1571687, 1572219, 1572738, 1573318, 1573855, 1574434, 1574949, 1575505, 1576077, 1576613, 1577158, 1577706]","[1564897, 1565497, 1566097, 1566697, 1567297, 1567897, 1568497, 1569097, 1569525, 1570083, 1570621, 1571154, 1571702, 1572233, 1572751, 1573332, 1573870, 1574451, 1574965, 1575519, 1576092, 1576629, 1577175, 1577721]",102,SB,L,R,ITMSR,1.1,
2,400,trial,0,86,86,86,trial,"['S', 'S', 'S', 'S', 'C', 'C', 'C', 'C', 'C', 'C', 'C', 'C', 'C', 'C', 'C', 'C', 'C', 'C', 'C', 'C']","[1584663, 1585064, 1585459, 1585850, 1586270, 1586638, 1587025, 1587431, 1587795, 1588240, 1588640, 1589024, 1589412, 1589790, 1590174, 1590595, 1590983, 1591330, 1591726, 1592156]","[1584728, 1585132, 1585529, 1585924, 1586333, 1586708, 1587092, 1587493, 1587877, 1588303, 1588713, 1589096, 1589485, 1589872, 1590241, 1590640, 1591069, 1591439, 1591801, 1592213]","[44, 185, 34, 29, 3, 195, 205, 168, 201, 149, 85, 142, 251, 191, 206, 208, 226, 232, 19, 5]","[1584666, 1585069, 1585463, 1585853, 1586274, 1586643, 1587031, 1587435, 1587801, 1588245, 1588645, 1589028, 1589416, 1589795, 1590179, 1590599, 1590988, 1591334, 1591730, 1592159]","[1583123, 1583523, 1583923, 1584323, 1584723, 1585123, 1585523, 1585923, 1586290, 1586658, 1587045, 1587451, 1587815, 1588260, 1588660, 1589044, 1589432, 1589810, 1590194, 1590616, 1591003, 1591350, 1591746, 1592176]",102,SB,L,R,ITMSR,1.1,
4,400,trial,0,87,87,87,trial,"['S', 'S', 'S', 'S', 'C', 'C', 'C', 'C', 'C', 'C', 'C', 'C', 'C', 'C', 'C', 'C', 'C', 'C', 'C', 'C']","[1599032, 1599419, 1599842, 1600212, 1600625, 1601034, 1601423, 1601819, 1602192, 1602594, 1602993, 1603389, 1603808, 1604229, 1604632, 1605010, 1605430, 1605815, 1606222, 1606601]","[1599069, 1599488, 1599906, 1600281, 1600701, 1601095, 1601491, 1601888, 1602259, 1602662, 1603076, 1603464, 1603890, 1604298, 1604700, 1605092, 1605487, 1605893, 1606301, 1606684]","[64, 84, 80, 58, 16, 254, 23, 70, 94, 107, 114, 218, 51, 53, 85, 205, 79, 246, 87, 18]","[1599037, 1599424, 1599847, 1600217, 1600630, 1601040, 1601429, 1601823, 1602197, 1602598, 1602998, 1603395, 1603813, 1604235, 1604637, 1605016, 1605436, 1605821, 1606227, 1606607]","[1597474, 1597874, 1598274, 1598674, 1599074, 1599474, 1599874, 1600274, 1600645, 1601054, 1601443, 1601839, 1602212, 1602614, 1603013, 1603409, 1603828, 1604249, 1604653, 1605030, 1605450, 1605835, 1606242, 1606621]",102,SB,L,R,ITMSR,1.1,
5,400,trial,0,88,88,88,trial,"['S', 'S', 'S', 'S', 'C', 'C', 'C', 'C', 'C', 'C', 'C', 'C', 'C', 'C', 'C', 'C', 'C', 'C', 'C', 'C']","[1613882, 1614248, 1614688, 1615107, 1615520, 1615926, 1616331, 1616754, 1617139, 1617536, 1617935, 1618312, 1618719, 1619096, 1619495, 1619901, 1620298, 1620703, 1621102, 1621509]","[1613955, 1614341, 1614770, 1615172, 1615584, 1615982, 1616400, 1616819, 1617209, 1617608, 1618007, 1618379, 1618793, 1619168, 1619577, 1619972, 1620385, 1620782, 1621181, 1621585]","[144, 139, 127, 92, 110, 106, 108, 97, 71, 45, 72, 200, 40, 3, 21, 53, 30, 58, 57, 208]","[1613887, 1614254, 1614693, 1615112, 1615525, 1615931, 1616336, 1616759, 1617144, 1617543, 1617940, 1618318, 1618723, 1619100, 1619502, 1619907, 1620304, 1620709, 1621108, 1621514]","[1612355, 1612755, 1613155, 1613555, 1613955, 1614355, 1614755, 1615155, 1615540, 1615946, 1616351, 1616774, 1617159, 1617556, 1617955, 1618332, 1618739, 1619117, 1619515, 1619921, 1620318, 1620723, 1621122, 1621529]",102,SB,L,R,ITMSR,1.1,
1,600,trial,0,89,89,89,trial,"['S', 'S', 'S', 'S', 'C', 'C', 'C', 'C', 'C', 'C', 'C', 'C', 'C', 'C', 'C', 'C', 'C', 'C', 'C', 'C']","[1629597, 1630184, 1630770, 1631390, 1632013, 1632565, 1633107, 1633654, 1634184, 1634756, 1635313, 1635865, 1636409, 1636977, 1637529, 1638071, 1638607, 1639168, 1639725, 1640272]","[1629692, 1630279, 1630861, 1631469, 1632087, 1632632, 1633176, 1633730, 1634259, 1634829, 1635394, 1635936, 1636486, 1637056, 1637608, 1638158, 1638694, 1639262, 1639806, 1640363]","[211, 237, 197, 94, 151, 247, 15, 64, 153, 198, 176, 143, 174, 187, 213, 227, 51, 68, 246, 13]","[1629602, 1630189, 1630774, 1631396, 1632018, 1632571, 1633113, 1633659, 1634189, 1634761, 1635319, 1635904, 1636416, 1636983, 1637536, 1638077, 1638614, 1639174, 1639731, 1640279]","[1627283, 1627883, 1628483, 1629083, 1629683, 1630283, 1630883, 1631483, 1632033, 1632585, 1633127, 1633674, 1634204, 1634776, 1635333, 1635885, 1636429, 1636997, 1637549, 1638091, 1638627, 1639188, 1639745, 1640292]",102,SB,L,R,ITMSR,1.1,
3,600,trial,0,90,90,90,trial,"['S', 'S', 'S', 'S', 'C', 'C', 'C', 'C', 'C', 'C', 'C', 'C', 'C', 'C', 'C', 'C', 'C', 'C', 'C', 'C']","[1648152, 1648774, 1649370, 1649946, 1650572, 1651146, 1651686, 1652238, 1652792, 1653379, 1653945, 1654516, 1655096, 1655648, 1656224, 1656800, 1657375, 1657929, 1658500, 1659072]","[1648236, 1648849, 1649447, 1650045, 1650651, 1651216, 1651753, 1652314, 1652892, 1653452, 1654020, 1654586, 1655175, 1655731, 1656303, 1656891, 1657458, 1658022, 1658582, 1659149]","[101, 133, 64, 49, 61, 198, 254, 21, 223, 154, 129, 75, 180, 240, 184, 227, 100, 189, 156, 131]","[1648157, 1648779, 1649375, 1649952, 1650579, 1651152, 1651692, 1652245, 1652798, 1653385, 1653951, 1654522, 1655102, 1655654, 1656231, 1656806, 1657381, 1657935, 1658506, 1659079]","[1645869, 1646469, 1647069, 1647669, 1648269, 1648869, 1649469, 1650069, 1650592, 1651166, 1651706, 1652258, 1652812, 1653399, 1653965, 1654536, 1655116, 1655668, 1656244, 1656820, 1657395, 1657949, 1658520, 1659092]",102,SB,L,R,ITMSR,1.1,
2,600,trial,0,91,91,91,trial,"['S', 'S', 'S', 'S', 'C', 'C', 'C', 'C', 'C', 'C', 'C', 'C', 'C', 'C', 'C', 'C', 'C', 'C', 'C', 'C']","[1666776, 1667344, 1667955, 1668541, 1669192, 1669734, 1670345, 1670892, 1671468, 1672068, 1672628, 1673202, 1673824, 1674401, 1675060, 1675595, 1676134, 1676694, 1677245, 1677797]","[1666854, 1667428, 1668027, 1668615, 1669251, 1669810, 1670389, 1670983, 1671542, 1672138, 1672708, 1673280, 1673906, 1674491, 1675123, 1675694, 1676225, 1676783, 1677343, 1677902]","[111, 161, 147, 241, 248, 86, 99, 36, 25, 253, 53, 31, 237, 50, 24, 90, 176, 195, 188, 152]","[1666781, 1667348, 1667960, 1668547, 1669198, 1669739, 1670349, 1670897, 1671473, 1672072, 1672633, 1673207, 1673830, 1674406, 1675065, 1675601, 1676140, 1676701, 1677314, 1677870]","[1664449, 1665049, 1665649, 1666249, 1666849, 1667449, 1668049, 1668649, 1669212, 1669754, 1670365, 1670913, 1671488, 1672088, 1672648, 1673222, 1673844, 1674421, 1675080, 1675615, 1676154, 1676715, 1677265, 1677817]",102,SB,L,R,ITMSR,1.1,
0,600,trial,0,92,92,92,trial,"['S', 'S', 'S', 'S', 'C', 'C', 'C', 'C', 'C', 'C', 'C', 'C', 'C', 'C', 'C', 'C', 'C', 'C', 'C', 'C']","[1685628, 1686210, 1686781, 1687363, 1687991, 1688577, 1689127, 1689700, 1690249, 1690808, 1691353, 1691923, 1692481, 1693053, 1693589, 1694137, 1694694, 1695273, 1695838, 1696387]","[1685695, 1686285, 1686860, 1687452, 1688070, 1688650, 1689206, 1689776, 1690327, 1690892, 1691450, 1692014, 1692585, 1693138, 1693682, 1694219, 1694779, 1695361, 1695921, 1696481]","[226, 104, 108, 98, 137, 114, 134, 104, 190, 201, 214, 225, 177, 238, 193, 221, 206, 233, 207, 208]","[1685635, 1686215, 1686787, 1687368, 1687997, 1688582, 1689134, 1689706, 1690254, 1690813, 1691358, 1691929, 1692486, 1693060, 1693594, 1694142, 1694698, 1695278, 1695843, 1696392]","[1683271, 1683871, 1684471, 1685071, 1685671, 1686272, 1686872, 1687472, 1688011, 1688597, 1689147, 1689720, 1690269, 1690828, 1691373, 1691943, 1692502, 1693073, 1693609, 1694157, 1694714, 1695293, 1695858, 1696407]",102,SB,L,R,ITMSR,1.1,
5,600,trial,0,93,93,93,trial,"['S', 'S', 'S', 'S', 'C', 'C', 'C', 'C', 'C', 'C', 'C', 'C', 'C', 'C', 'C', 'C', 'C', 'C', 'C', 'C']","[1704320, 1704897, 1705476, 1706089, 1706708, 1707298, 1707811, 1708357, 1708926, 1709457, 1709988, 1710536, 1711058, 1711621, 1712161, 1712730, 1713262, 1713804, 1714356, 1714925]","[1704403, 1704985, 1705574, 1706173, 1706779, 1707351, 1707867, 1708424, 1708988, 1709524, 1710047, 1710604, 1711149, 1711709, 1712256, 1712805, 1713354, 1713888, 1714441, 1715008]","[254, 8, 176, 152, 79, 172, 106, 60, 82, 89, 185, 0, 41, 37, 9, 66, 99, 52, 73, 166]","[1704325, 1704901, 1705481, 1706094, 1706714, 1707304, 1707816, 1708363, 1708932, 1709463, 1709993, 1710542, 1711064, 1711626, 1712167, 1712737, 1713269, 1713811, 1714362, 1714930]","[1702028, 1702628, 1703228, 1703828, 1704428, 1705028, 1705628, 1706228, 1706728, 1707318, 1707831, 1708377, 1708946, 1709477, 1710008, 1710556, 1711078, 1711641, 1712181, 1712750, 1713282, 1713824, 1714376, 1714946]",102,SB,L,R,ITMSR,1.1,
2,600,trial,0,94,94,94,trial,"['S', 'S', 'S', 'S', 'C', 'C', 'C', 'C', 'C', 'C', 'C', 'C', 'C', 'C', 'C', 'C', 'C', 'C', 'C', 'C']","[1722627, 1723194, 1723821, 1724395, 1725015, 1725596, 1726128, 1726691, 1727190, 1727748, 1728339, 1728878, 1729410, 1729995, 1730558, 1731100, 1731634, 1732199, 1732758, 1733309]","[1722700, 1723286, 1723893, 1724484, 1725099, 1725657, 1726206, 1726749, 1727279, 1727811, 1728408, 1728952, 1729489, 1730073, 1730628, 1731208, 1731713, 1732275, 1732839, 1733395]","[43, 65, 77, 58, 65, 25, 41, 5, 24, 5, 13, 5, 225, 223, 27, 250, 37, 24, 60, 7]","[1722631, 1723198, 1723824, 1724399, 1725018, 1725599, 1726132, 1726694, 1727194, 1727752, 1728343, 1728882, 1729414, 1729999, 1730563, 1731104, 1731638, 1732203, 1732761, 1733313]","[1720327, 1720927, 1721527, 1722127, 1722727, 1723327, 1723927, 1724527, 1725035, 1725616, 1726148, 1726711, 1727210, 1727768, 1728359, 1728898, 1729430, 1730015, 1730578, 1731120, 1731654, 1732219, 1732779, 1733329]",102,SB,L,R,ITMSR,1.1,
3,400,trial,0,95,95,95,trial,"['S', 'S', 'S', 'S', 'C', 'C', 'C', 'C', 'C', 'C', 'C', 'C', 'C', 'C', 'C', 'C', 'C', 'C', 'C', 'C']","[1740221, 1740643, 1741087, 1741508, 1741937, 1742362, 1742751, 1743144, 1743569, 1743986, 1744382, 1744775, 1745174, 1745555, 1745980, 1746362, 1746749, 1747162, 1747558, 1747976]","[1740301, 1740716, 1741152, 1741562, 1741998, 1742433, 1742841, 1743237, 1743660, 1744065, 1744463, 1744847, 1745251, 1745639, 1746060, 1746439, 1746828, 1747232, 1747633, 1748045]","[48, 19, 229, 233, 124, 178, 158, 93, 102, 50, 76, 86, 63, 41, 18, 86, 51, 114, 121, 165]","[1740225, 1740647, 1741090, 1741511, 1741942, 1742366, 1742756, 1743150, 1743575, 1743991, 1744388, 1744780, 1745179, 1745560, 1745986, 1746367, 1746754, 1747167, 1747563, 1747980]","[1738715, 1739115, 1739515, 1739915, 1740315, 1740716, 1741115, 1741515, 1741957, 1742382, 1742771, 1743164, 1743589, 1744006, 1744402, 1744795, 1745195, 1745575, 1746000, 1746382, 1746769, 1747182, 1747578, 1747996]",102,SB,L,R,ITMSR,1.1,
0,400,trial,0,96,96,96,trial,"['S', 'S', 'S', 'S', 'C', 'C', 'C', 'C', 'C', 'C', 'C', 'C', 'C', 'C', 'C', 'C', 'C', 'C', 'C', 'C']","[1754913, 1755337, 1755760, 1756151, 1756557, 1756915, 1757320, 1757731, 1758134, 1758548, 1758951, 1759332, 1759747, 1760131, 1760546, 1760934, 1761335, 1761747, 1762156, 1762597]","[1754991, 1755397, 1755827, 1756220, 1756621, 1756976, 1757379, 1757790, 1758204, 1758615, 1759015, 1759423, 1759823, 1760210, 1760606, 1761008, 1761403, 1761824, 1762248, 1762673]","[50, 51, 14, 19, 49, 43, 65, 48, 49, 30, 250, 39, 55, 50, 254, 209, 220, 226, 206, 179]","[1754917, 1755340, 1755764, 1756155, 1756561, 1756919, 1757324, 1757735, 1758138, 1758552, 1758955, 1759336, 1759751, 1760135, 1760550, 1760939, 1761340, 1761752, 1762161, 1762601]","[1753413, 1753814, 1754213, 1754613, 1755013, 1755413, 1755813, 1756213, 1756577, 1756935, 1757340, 1757751, 1758154, 1758568, 1758971, 1759352, 1759767, 1760151, 1760566, 1760954, 1761355, 1761767, 1762177, 1762617]",102,SB,L,R,ITMSR,1.1,
4,600,trial,0,97,97,97,trial,"['S', 'S', 'S', 'S', 'C', 'C', 'C', 'C', 'C', 'C', 'C', 'C', 'C', 'C', 'C', 'C', 'C', 'C', 'C', 'C']","[1770687, 1771260, 1771840, 1772437, 1773045, 1773591, 1774101, 1774670, 1775173, 1775707, 1776241, 1776745, 1777303, 1777871, 1778416, 1778941, 1779493, 1780038, 1780574, 1781101]","[1770769, 1771339, 1771900, 1772513, 1773113, 1773650, 1774173, 1774729, 1775244, 1775783, 1776297, 1776845, 1777369, 1777938, 1778476, 1779017, 1779557, 1780109, 1780643, 1781183]","[35, 7, 241, 247, 155, 220, 196, 140, 190, 208, 199, 238, 244, 240, 182, 218, 139, 171, 206, 138]","[1770691, 1771266, 1771844, 1772442, 1773050, 1773596, 1774105, 1774675, 1775178, 1775712, 1776245, 1776750, 1777307, 1777875, 1778421, 1778946, 1779499, 1780043, 1780579, 1781107]","[1768376, 1768976, 1769576, 1770176, 1770776, 1771376, 1771976, 1772576, 1773065, 1773612, 1774121, 1774690, 1775193, 1775727, 1776261, 1776765, 1777324, 1777891, 1778436, 1778961, 1779513, 1780058, 1780594, 1781122]",102,SB,L,R,ITMSR,1.1,
1,600,trial,0,98,98,98,trial,"['S', 'S', 'S', 'S', 'C', 'C', 'C', 'C', 'C', 'C', 'C', 'C', 'C', 'C', 'C', 'C', 'C', 'C', 'C', 'C']","[1789024, 1789598, 1790185, 1790797, 1791409, 1791967, 1792512, 1793065, 1793582, 1794121, 1794672, 1795213, 1795767, 1796326, 1796873, 1797430, 1797984, 1798525, 1799069, 1799599]","[1789093, 1789672, 1790244, 1790880, 1791488, 1792034, 1792582, 1793137, 1793666, 1794212, 1794740, 1795297, 1795840, 1796409, 1796944, 1797507, 1798056, 1798604, 1799152, 1799674]","[226, 197, 150, 87, 232, 30, 227, 238, 59, 69, 94, 99, 70, 92, 49, 65, 29, 39, 104, 159]","[1789029, 1789603, 1790189, 1790803, 1791416, 1791972, 1792518, 1793072, 1793587, 1794126, 1794676, 1795217, 1795771, 1796331, 1796878, 1797435, 1797989, 1798532, 1799073, 1799604]","[1786747, 1787347, 1787948, 1788547, 1789147, 1789747, 1790347, 1790947, 1791429, 1791987, 1792532, 1793085, 1793602, 1794141, 1794692, 1795233, 1795787, 1796346, 1796893, 1797450, 1798004, 1798545, 1799089, 1799619]",102,SB,L,R,ITMSR,1.1,
2,400,trial,0,99,99,99,trial,"['S', 'S', 'S', 'S', 'C', 'C', 'C', 'C', 'C', 'C', 'C', 'C', 'C', 'C', 'C', 'C', 'C', 'C', 'C', 'C']","[1806905, 1807296, 1807703, 1808118, 1808512, 1808926, 1809342, 1809755, 1810165, 1810568, 1810980, 1811371, 1811789, 1812180, 1812602, 1812978, 1813404, 1813793, 1814212, 1814600]","[1806959, 1807356, 1807776, 1808180, 1808592, 1808982, 1809393, 1809807, 1810237, 1810639, 1811054, 1811441, 1811860, 1812252, 1812671, 1813064, 1813477, 1813868, 1814288, 1814674]","[220, 149, 115, 111, 116, 86, 29, 14, 216, 19, 85, 86, 135, 108, 115, 116, 137, 132, 126, 153]","[1806909, 1807300, 1807708, 1808122, 1808517, 1808931, 1809347, 1809760, 1810171, 1810573, 1810987, 1811376, 1811794, 1812186, 1812608, 1812983, 1813408, 1813797, 1814216, 1814605]","[1805392, 1805792, 1806192, 1806593, 1806992, 1807392, 1807792, 1808192, 1808532, 1808946, 1809362, 1809775, 1810185, 1810588, 1811000, 1811391, 1811809, 1812200, 1812622, 1812998, 1813424, 1813813, 1814232, 1814620]",102,SB,L,R,ITMSR,1.1,
0,600,trial,0,100,100,100,trial,"['S', 'S', 'S', 'S', 'C', 'C', 'C', 'C', 'C', 'C', 'C', 'C', 'C', 'C', 'C', 'C', 'C', 'C', 'C', 'C']","[1822539, 1823134, 1823761, 1824355, 1824960, 1825509, 1826052, 1826590, 1827147, 1827691, 1828248, 1828802, 1829350, 1829931, 1830517, 1831060, 1831601, 1832121, 1832693, 1833271]","[1822618, 1823207, 1823826, 1824424, 1825033, 1825573, 1826117, 1826651, 1827211, 1827763, 1828318, 1828875, 1829430, 1830022, 1830589, 1831148, 1831685, 1832207, 1832775, 1833349]","[202, 151, 146, 129, 81, 115, 107, 85, 38, 97, 74, 203, 207, 205, 159, 216, 177, 194, 201, 186]","[1822544, 1823139, 1823765, 1824361, 1824966, 1825515, 1826057, 1826595, 1827153, 1827695, 1828253, 1828809, 1829355, 1829937, 1830522, 1831064, 1831606, 1832126, 1832697, 1833275]","[1820255, 1820855, 1821455, 1822055, 1822655, 1823255, 1823855, 1824455, 1824980, 1825529, 1826072, 1826610, 1827167, 1827712, 1828269, 1828823, 1829370, 1829951, 1830537, 1831080, 1831621, 1832141, 1832713, 1833291]",102,SB,L,R,ITMSR,1.1,
4,400,trial,0,101,101,101,trial,"['S', 'S', 'S', 'S', 'C', 'C', 'C', 'C', 'C', 'C', 'C', 'C', 'C', 'C', 'C', 'C', 'C', 'C', 'C', 'C']","[1840135, 1840534, 1840980, 1841358, 1841743, 1842123, 1842491, 1842889, 1843321, 1843739, 1844132, 1844551, 1845032, 1845428, 1845788, 1846168, 1846562, 1846934, 1847329, 1847710]","[1840220, 1840631, 1841033, 1841419, 1841806, 1842191, 1842582, 1842970, 1843380, 1843806, 1844209, 1844621, 1845088, 1845475, 1845855, 1846233, 1846625, 1847022, 1847412, 1847783]","[55, 248, 76, 99, 98, 89, 69, 64, 51, 33, 50, 68, 64, 67, 95, 38, 53, 5, 26, 235]","[1840138, 1840538, 1840985, 1841361, 1841746, 1842126, 1842495, 1842893, 1843324, 1843743, 1844135, 1844555, 1845037, 1845431, 1845791, 1846171, 1846566, 1846937, 1847333, 1847714]","[1838618, 1839017, 1839417, 1839817, 1840217, 1840617, 1841017, 1841417, 1841763, 1842143, 1842511, 1842909, 1843341, 1843759, 1844152, 1844571, 1845052, 1845448, 1845808, 1846189, 1846582, 1846955, 1847349, 1847730]",102,SB,L,R,ITMSR,1.1,
