pitch,ioi,event,.thisRepN,.thisTrialN,.thisN,.thisIndex,event,tap_types,tap_times,release_times,peak_pressures,peak_times,tone_times,subject,experimenter,register,handedness,experiment,version,
,,SPR,0,-1,-1,0,SPR,"['P', 'P', 'P', 'P', 'P', 'P', 'P', 'P', 'P', 'P', 'P', 'P', 'P', 'P', 'P', 'P', 'P', 'P', 'P', 'P', 'P', 'P', 'P', 'P', 'P', 'P', 'P', 'P', 'P', 'P']","[18716, 20684, 20879, 21078, 21330, 21566, 21818, 22070, 22292, 22525, 22778, 23029, 23268, 23511, 23748, 24014, 24247, 24513, 24788, 25053, 25273, 25509, 25747, 25970, 26186, 26450, 26681, 26905, 27143, 27356]","[20557, 20756, 20962, 21166, 21416, 21658, 21915, 22163, 22379, 22614, 22874, 23123, 23360, 23606, 23857, 24093, 24352, 24611, 24906, 25141, 25381, 25585, 25844, 26052, 26297, 26543, 26779, 26992, 27234, 27442]","[182, 27, 38, 237, 250, 219, 249, 232, 222, 197, 198, 255, 236, 189, 241, 25, 147, 249, 255, 187, 231, 159, 231, 219, 222, 168, 209, 95, 203, 121]","[20380, 20717, 20885, 21115, 21371, 21574, 21859, 22077, 22300, 22564, 22818, 23035, 23274, 23553, 23789, 24019, 24301, 24519, 24795, 25092, 25311, 25517, 25785, 25977, 26226, 26488, 26687, 26943, 27150, 27363]",,80,EM,U,R,ITMSR,1.1,
4,500,practice,0,0,0,0,practice,"['S', 'S', 'S', 'S', 'S', 'S', 'S', 'C', 'C', 'C', 'C', 'C', 'C', 'C', 'C', 'C', 'C', 'C', 'C', 'C', 'C', 'C', 'C']","[138884, 139411, 139956, 140474, 140990, 141486, 141966, 142425, 142920, 143427, 143936, 144468, 144990, 145496, 145999, 146485, 147002, 147503, 148014, 148507, 149006, 149486, 149997]","[138944, 139491, 140048, 140564, 141066, 141562, 142056, 142493, 143002, 143499, 144018, 144549, 145081, 145574, 146084, 146580, 147080, 147594, 148106, 148582, 149074, 149572, 150083]","[169, 227, 212, 115, 158, 161, 159, 78, 88, 40, 112, 150, 155, 174, 202, 173, 91, 202, 199, 125, 81, 162, 145]","[138902, 139444, 139993, 140506, 141025, 141518, 142001, 142455, 142952, 143456, 143966, 144498, 145019, 145525, 146029, 146514, 147026, 147536, 148046, 148537, 149029, 149515, 150027]","[138442, 138942, 139442, 139942, 140442, 140942, 141442, 141942, 142445, 142940, 143448, 143956, 144488, 145010, 145516, 146019, 146505, 147022, 147523, 148034, 148527, 149026, 149506, 150018]",80,EM,U,R,ITMSR,1.1,
2,500,practice,0,1,1,1,practice,"['S', 'S', 'S', 'S', 'S', 'S', 'S', 'C', 'C', 'C', 'C', 'C', 'C', 'C', 'C', 'C', 'C', 'C', 'C', 'C', 'C', 'C', 'C']","[155812, 156383, 156898, 157388, 157894, 158384, 158868, 159347, 159843, 160326, 160826, 161284, 161754, 162311, 162798, 163320, 163858, 164354, 164874, 165386, 165924, 166438, 166998]","[155894, 156468, 157017, 157479, 157992, 158491, 158965, 159433, 159920, 160411, 160896, 161352, 161832, 162392, 162870, 163380, 163914, 164418, 164943, 165466, 165998, 166514, 167068]","[161, 177, 207, 129, 122, 103, 133, 54, 97, 208, 152, 10, 246, 127, 246, 165, 166, 7, 246, 145, 243, 123, 57]","[155842, 156411, 156946, 157420, 157928, 158440, 158906, 159386, 159861, 160355, 160850, 161312, 161783, 162337, 162827, 163337, 163878, 164378, 164902, 165411, 165940, 166463, 167019]","[155420, 155920, 156420, 156920, 157420, 157920, 158420, 158920, 159367, 159863, 160346, 160846, 161304, 161774, 162331, 162818, 163340, 163878, 164374, 164894, 165406, 165944, 166458, 167018]",80,EM,U,R,ITMSR,1.1,
1,500,practice,0,2,2,2,practice,"['S', 'S', 'S', 'S', 'S', 'S', 'S', 'C', 'C', 'C', 'C', 'C', 'C', 'C', 'C', 'C', 'C', 'C', 'C', 'C', 'C', 'C', 'C']","[172669, 173255, 173782, 174327, 174845, 175334, 175839, 176333, 176826, 177349, 177854, 178408, 178917, 179394, 179932, 180438, 180981, 181467, 182002, 182501, 183002, 183535, 184031]","[172762, 173344, 173867, 174403, 174918, 175409, 175918, 176415, 176899, 177433, 177923, 178476, 178978, 179476, 180005, 180489, 181041, 181538, 182064, 182564, 183100, 183600, 184084]","[195, 211, 241, 189, 164, 179, 163, 184, 174, 191, 210, 125, 148, 241, 174, 137, 238, 179, 192, 233, 27, 246, 151]","[172715, 173279, 173810, 174350, 174873, 175354, 175872, 176361, 176849, 177379, 177879, 178434, 178938, 179424, 179957, 180453, 181007, 181490, 182022, 182525, 183031, 183559, 184048]","[172382, 172882, 173382, 173882, 174382, 174882, 175382, 175882, 176353, 176846, 177369, 177874, 178428, 178937, 179415, 179952, 180458, 181001, 181487, 182022, 182521, 183022, 183555, 184051]",80,EM,U,R,ITMSR,1.1,
5,500,practice,0,3,3,3,practice,"['B', 'S', 'S', 'S', 'S', 'S', 'S', 'S', 'C', 'C', 'C', 'C', 'C', 'C', 'C', 'C', 'C', 'C', 'C', 'C', 'C', 'C', 'C', 'C']","[189784, 190292, 190843, 191297, 191778, 192292, 192823, 193278, 193779, 194281, 194823, 195283, 195764, 196283, 196833, 197351, 197839, 198364, 198851, 199416, 199903, 200415, 200937, 201438]","[189821, 190364, 190914, 191360, 191839, 192348, 192878, 193343, 193847, 194351, 194879, 195343, 195823, 196348, 196885, 197402, 197900, 198428, 198923, 199480, 199983, 200471, 201005, 201507]","[240, 122, 153, 92, 73, 124, 113, 201, 209, 193, 106, 94, 120, 164, 92, 60, 124, 85, 125, 116, 124, 108, 71, 152]","[189784, 190316, 190864, 191318, 191798, 192307, 192843, 193296, 193803, 194298, 194844, 195303, 195784, 196307, 196853, 197367, 197864, 198384, 198875, 199438, 199931, 200430, 200960, 201461]","[189796, 190296, 190796, 191296, 191796, 192296, 192796, 193296, 193799, 194301, 194843, 195303, 195784, 196303, 196853, 197371, 197859, 198384, 198872, 199436, 199923, 200435, 200957, 201458]",80,EM,U,R,ITMSR,1.1,
0,500,practice,0,4,4,4,practice,"['S', 'S', 'S', 'S', 'S', 'S', 'S', 'C', 'C', 'C', 'C', 'C', 'C', 'C', 'C', 'C', 'C', 'C', 'C', 'C', 'C', 'C', 'C']","[207260, 207827, 208385, 208950, 209501, 210024, 210532, 211014, 211522, 212051, 212532, 213105, 213613, 214116, 214627, 215120, 215673, 216173, 216667, 217200, 217729, 218224, 218774]","[207331, 207856, 208447, 209006, 209548, 210080, 210596, 211081, 211582, 212114, 212596, 213154, 213636, 214176, 214679, 215193, 215723, 216229, 216731, 217252, 217773, 218262, 218846]","[38, 229, 8, 126, 127, 44, 233, 93, 138, 132, 38, 27, 138, 148, 121, 221, 140, 215, 249, 112, 85, 51, 61]","[207294, 207838, 208411, 208968, 209521, 210042, 210556, 211037, 211543, 212075, 212557, 213122, 213618, 214137, 214645, 215152, 215688, 216194, 216691, 217225, 217744, 218240, 218799]","[207070, 207570, 208070, 208570, 209070, 209570, 210070, 210570, 211034, 211543, 212071, 212552, 213125, 213634, 214136, 214647, 215140, 215693, 216194, 216687, 217220, 217749, 218244, 218795]",80,EM,U,R,ITMSR,1.1,
3,500,practice,0,5,5,5,practice,"['S', 'S', 'S', 'S', 'S', 'S', 'S', 'C', 'C', 'C', 'C', 'C', 'C', 'C', 'C', 'C', 'C', 'C', 'C', 'C', 'C', 'C', 'C']","[224758, 225334, 225936, 226455, 226936, 227471, 227983, 228454, 228978, 229486, 229995, 230478, 231033, 231563, 232076, 232561, 233091, 233610, 234104, 234669, 235164, 235655, 236175]","[224814, 225398, 226016, 226506, 226996, 227519, 228041, 228515, 229029, 229541, 230052, 230548, 231086, 231625, 232132, 232619, 233153, 233657, 234147, 234701, 235216, 235699, 236223]","[231, 227, 19, 45, 110, 242, 212, 215, 140, 12, 244, 91, 36, 26, 206, 203, 20, 249, 162, 112, 246, 179, 12]","[224777, 225351, 225966, 226470, 226955, 227488, 228004, 228474, 228995, 229502, 230016, 230498, 231050, 231584, 232094, 232578, 233114, 233631, 234124, 234679, 235186, 235672, 236195]","[224418, 224918, 225418, 225918, 226418, 226918, 227418, 227918, 228474, 228998, 229506, 230016, 230498, 231053, 231583, 232096, 232581, 233111, 233630, 234124, 234689, 235184, 235675, 236195]",80,EM,U,R,ITMSR,1.1,
5,400,trial,0,6,6,6,trial,"['S', 'S', 'S', 'S', 'S', 'S', 'S', 'S', 'C', 'C', 'C', 'C', 'C', 'C', 'C', 'C', 'C', 'C', 'C', 'C', 'C', 'C', 'C', 'C']","[298768, 299079, 299474, 299827, 300162, 300552, 300945, 301320, 301718, 302130, 302538, 302941, 303380, 303788, 304210, 304614, 305060, 305529, 305980, 306490, 306989, 307490, 308019, 308540]","[298817, 299133, 299517, 299878, 300213, 300601, 300996, 301380, 301769, 302182, 302599, 303012, 303444, 303844, 304257, 304681, 305118, 305581, 306040, 306565, 307067, 307544, 308078, 308597]","[0, 57, 153, 34, 74, 84, 113, 100, 58, 78, 86, 100, 49, 20, 251, 23, 229, 220, 255, 251, 209, 206, 233, 219]","[298789, 299099, 299493, 299847, 300182, 300569, 300961, 301336, 301732, 302147, 302556, 302962, 303400, 303805, 304227, 304635, 305081, 305545, 305998, 306510, 307007, 307506, 308036, 308558]","[298551, 298951, 299352, 299752, 300152, 300552, 300952, 301352, 301739, 302150, 302558, 302961, 303400, 303808, 304230, 304634, 305080, 305549, 306000, 306510, 307009, 307510, 308039, 308560]",80,EM,U,R,ITMSR,1.1,
4,600,trial,0,7,7,7,trial,"['S', 'S', 'S', 'S', 'S', 'S', 'S', 'C', 'C', 'C', 'C', 'C', 'C', 'C', 'C', 'C', 'C', 'C', 'C', 'C', 'C', 'C', 'C']","[314166, 314778, 315397, 316002, 316674, 317350, 318003, 318618, 319319, 319988, 320635, 321258, 321857, 322478, 323088, 323675, 324333, 324983, 325626, 326212, 326846, 327519, 328138]","[314228, 314853, 315467, 316076, 316737, 317410, 318074, 318664, 319367, 320016, 320695, 321335, 321953, 322570, 323139, 323753, 324402, 325053, 325700, 326313, 326928, 327607, 328207]","[24, 212, 220, 196, 113, 250, 25, 162, 23, 196, 60, 182, 157, 238, 9, 54, 156, 96, 172, 203, 19, 224, 195]","[314185, 314799, 315419, 316024, 316695, 317369, 318019, 318635, 319336, 319997, 320657, 321281, 321914, 322518, 323111, 323696, 324358, 325007, 325654, 326269, 326879, 327545, 328164]","[313877, 314477, 315077, 315677, 316277, 316877, 317477, 318077, 318638, 319339, 320008, 320655, 321278, 321878, 322498, 323108, 323695, 324354, 325003, 325646, 326232, 326866, 327539, 328158]",80,EM,U,R,ITMSR,1.1,
1,600,trial,0,8,8,8,trial,"['S', 'S', 'S', 'S', 'S', 'S', 'S', 'C', 'C', 'C', 'C', 'C', 'C', 'C', 'C', 'C', 'C', 'C', 'C', 'C', 'C', 'C', 'C']","[334051, 334717, 335381, 335992, 336586, 337202, 337855, 338418, 339041, 339632, 340259, 340846, 341486, 342144, 342729, 343297, 343888, 344449, 345129, 345732, 346306, 346889, 347515]","[334083, 334748, 335401, 336021, 336628, 337228, 337893, 338492, 339090, 339686, 340299, 340899, 341545, 342204, 342777, 343355, 343942, 344503, 345191, 345819, 346409, 346948, 347583]","[225, 206, 91, 233, 245, 11, 54, 78, 94, 113, 66, 65, 251, 246, 28, 55, 144, 67, 194, 68, 248, 184, 148]","[334066, 334730, 335388, 335996, 336604, 337207, 337870, 338440, 339058, 339652, 340279, 340866, 341508, 342166, 342749, 343322, 343909, 344466, 345164, 345759, 346379, 346914, 347540]","[333629, 334228, 334828, 335428, 336028, 336628, 337228, 337828, 338438, 339061, 339652, 340279, 340866, 341506, 342164, 342749, 343317, 343908, 344469, 345149, 345752, 346327, 346909, 347535]",80,EM,U,R,ITMSR,1.1,
1,400,trial,0,9,9,9,trial,"['S', 'S', 'S', 'S', 'S', 'C', 'C', 'C', 'C', 'C', 'C', 'C', 'C', 'C', 'C', 'C', 'C', 'C', 'C', 'C', 'C']","[353384, 353975, 354724, 355150, 355920, 356335, 356688, 357082, 357446, 357812, 358172, 358580, 358975, 359427, 359827, 360275, 360675, 361094, 361532, 361952, 362403]","[353404, 354040, 354780, 355198, 355959, 356368, 356739, 357126, 357484, 357871, 358227, 358639, 359032, 359470, 359883, 360322, 360727, 361144, 361578, 361999, 362437]","[113, 4, 253, 52, 14, 83, 131, 109, 82, 22, 244, 11, 238, 30, 208, 209, 130, 234, 12, 196, 42]","[353390, 354006, 354743, 355172, 355935, 356347, 356709, 357100, 357463, 357834, 358192, 358600, 358995, 359447, 359849, 360295, 360695, 361112, 361548, 361969, 362417]","[353195, 353593, 353993, 354393, 354793, 355193, 355593, 355993, 356355, 356708, 357102, 357466, 357832, 358192, 358600, 358995, 359447, 359847, 360295, 360695, 361114, 361552, 361972, 362423]",80,EM,U,R,ITMSR,1.1,
1,400,trial,0,10,10,10,trial,"['S', 'S', 'S', 'S', 'S', 'S', 'S', 'C', 'C', 'C', 'C', 'C', 'C', 'C', 'C', 'C', 'C', 'C', 'C', 'C', 'C', 'C', 'C']","[368210, 368611, 369060, 369508, 369943, 370329, 370731, 371141, 371527, 371935, 372378, 372797, 373215, 373655, 374066, 374483, 375111, 375478, 375922, 376317, 376744, 377144, 377548]","[368267, 368652, 369103, 369547, 369969, 370370, 370770, 371177, 371586, 371985, 372417, 372851, 373266, 373705, 374112, 374537, 375176, 375541, 375977, 376373, 376785, 377194, 377605]","[250, 50, 9, 34, 68, 77, 17, 206, 184, 154, 25, 102, 151, 139, 213, 243, 250, 16, 234, 216, 124, 221, 240]","[368239, 368627, 369079, 369524, 369953, 370345, 370749, 371161, 371551, 371952, 372398, 372818, 373232, 373676, 374082, 374503, 375137, 375501, 375942, 376338, 376761, 377161, 377564]","[367956, 368356, 368756, 369156, 369556, 369956, 370356, 370756, 371161, 371547, 371955, 372398, 372817, 373235, 373676, 374086, 374503, 375131, 375498, 375942, 376337, 376764, 377164, 377568]",80,EM,U,R,ITMSR,1.1,
3,400,trial,0,11,11,11,trial,"['S', 'S', 'S', 'S', 'S', 'S', 'C', 'C', 'C', 'C', 'C', 'C', 'C', 'C', 'C', 'C', 'C', 'C', 'C', 'C', 'C', 'C']","[383827, 384267, 384672, 385105, 385524, 385935, 386328, 386721, 387131, 387552, 387965, 388400, 388830, 389264, 389671, 390107, 390549, 390975, 391380, 391823, 392223, 392653]","[383903, 384303, 384722, 385155, 385575, 385978, 386373, 386781, 387187, 387608, 388040, 388476, 388904, 389326, 389738, 390188, 390628, 391047, 391455, 391885, 392297, 392723]","[242, 75, 237, 195, 240, 234, 237, 48, 69, 90, 97, 104, 89, 79, 91, 89, 90, 87, 91, 90, 88, 93]","[383864, 384282, 384694, 385123, 385542, 385950, 386343, 386741, 387148, 387569, 387989, 388421, 388851, 389280, 389691, 390124, 390567, 390991, 391403, 391839, 392243, 392674]","[383109, 383509, 383909, 384309, 384709, 385110, 385509, 385909, 386349, 386741, 387151, 387572, 387985, 388420, 388850, 389284, 389691, 390127, 390569, 390995, 391400, 391843, 392243, 392673]",80,EM,U,R,ITMSR,1.1,
0,600,trial,0,12,12,12,trial,"['S', 'S', 'S', 'S', 'S', 'S', 'S', 'S', 'C', 'C', 'C', 'C', 'C', 'C', 'C', 'C', 'C', 'C', 'C', 'C', 'C', 'C', 'C', 'C']","[398262, 398522, 399047, 399822, 400488, 401061, 401666, 402255, 402827, 403433, 404012, 404630, 405228, 405864, 406458, 407026, 407612, 408220, 408864, 409494, 410068, 410659, 411214, 411836]","[398302, 398568, 399112, 399908, 400600, 401189, 401771, 402367, 402953, 403571, 404137, 404737, 405342, 405966, 406574, 407154, 407726, 408323, 408975, 409604, 410191, 410779, 411344, 411947]","[213, 175, 43, 93, 39, 76, 61, 76, 92, 96, 43, 55, 65, 102, 81, 83, 66, 58, 53, 36, 47, 42, 18, 213]","[398277, 398537, 399072, 399848, 400555, 401085, 401695, 402288, 402849, 403461, 404081, 404664, 405252, 405891, 406479, 407094, 407657, 408247, 408900, 409543, 410129, 410710, 411242, 411910]","[398083, 398683, 399283, 399883, 400483, 401083, 401683, 402283, 402847, 403453, 404032, 404651, 405249, 405884, 406478, 407046, 407632, 408240, 408884, 409515, 410088, 410679, 411234, 411856]",80,EM,U,R,ITMSR,1.1,
1,600,trial,0,13,13,13,trial,"['S', 'S', 'S', 'S', 'S', 'S', 'S', 'C', 'C', 'C', 'C', 'C', 'C', 'C', 'C', 'C', 'C', 'C', 'C', 'C', 'C', 'C', 'C']","[417914, 418372, 419001, 419569, 420192, 420787, 421354, 421986, 422584, 423175, 423772, 424338, 424973, 425583, 426187, 426742, 427385, 428011, 428578, 429142, 429770, 430350, 430919]","[417958, 418429, 419111, 419701, 420297, 420855, 421419, 422069, 422677, 423269, 423874, 424442, 425071, 425687, 426277, 426856, 427482, 428106, 428691, 429279, 429864, 430458, 431037]","[71, 5, 101, 119, 134, 77, 51, 102, 94, 104, 102, 97, 121, 107, 108, 104, 99, 47, 64, 69, 63, 70, 90]","[417933, 418395, 419025, 419633, 420222, 420810, 421373, 422011, 422609, 423198, 423795, 424354, 424988, 425610, 426208, 426758, 427405, 428033, 428612, 429213, 429794, 430383, 430952]","[417251, 417850, 418450, 419050, 419650, 420250, 420850, 421450, 422006, 422604, 423195, 423792, 424358, 424993, 425603, 426207, 426762, 427405, 428032, 428598, 429162, 429790, 430370, 430939]",80,EM,U,R,ITMSR,1.1,
0,600,trial,0,14,14,14,trial,"['S', 'S', 'S', 'S', 'S', 'S', 'S', 'S', 'C', 'C', 'C', 'C', 'C', 'C', 'C', 'C', 'C', 'C', 'C', 'C', 'C', 'C', 'C', 'C']","[436820, 437185, 437755, 438413, 438989, 439556, 440153, 440779, 441382, 441952, 442533, 443189, 443759, 444389, 444972, 445574, 446166, 446760, 447367, 447965, 448576, 449254, 449859, 450443]","[436899, 437272, 437834, 438498, 439062, 439610, 440201, 440842, 441438, 442017, 442607, 443251, 443837, 444463, 445077, 445671, 446272, 446868, 447469, 448060, 448686, 449325, 449947, 450524]","[202, 31, 84, 89, 78, 88, 83, 97, 77, 83, 95, 86, 75, 106, 71, 52, 34, 253, 30, 55, 32, 204, 171, 239]","[436859, 437213, 437779, 438435, 439012, 439575, 440170, 440802, 441402, 441972, 442553, 443204, 443774, 444406, 445031, 445594, 446190, 446786, 447399, 447981, 448601, 449283, 449884, 450464]","[436653, 437253, 437853, 438453, 439053, 439653, 440253, 440853, 441402, 441972, 442553, 443209, 443779, 444409, 444992, 445594, 446186, 446780, 447387, 447985, 448596, 449274, 449880, 450463]",80,EM,U,R,ITMSR,1.1,
5,600,trial,0,15,15,15,trial,"['S', 'S', 'S', 'S', 'S', 'S', 'S', 'S', 'C', 'C', 'C', 'C', 'C', 'C', 'C', 'C', 'C', 'C', 'C', 'C', 'C', 'C', 'C', 'C']","[456223, 456604, 457232, 457837, 458422, 459024, 459625, 460211, 460775, 461412, 462023, 462655, 463201, 463813, 464466, 465092, 465737, 466358, 466908, 467501, 468084, 468678, 469288, 469877]","[456276, 456671, 457284, 457892, 458488, 459092, 459706, 460299, 460870, 461491, 462106, 462735, 463303, 463915, 464560, 465179, 465827, 466447, 467012, 467593, 468182, 468783, 469379, 469982]","[243, 55, 78, 75, 78, 94, 114, 114, 118, 119, 109, 61, 73, 78, 25, 75, 22, 243, 4, 255, 252, 216, 10, 1]","[456246, 456628, 457246, 457851, 458444, 459042, 459649, 460230, 460796, 461432, 462043, 462672, 463224, 463833, 464483, 465107, 465761, 466386, 466949, 467533, 468114, 468715, 469329, 469926]","[456054, 456654, 457254, 457854, 458455, 459054, 459654, 460254, 460795, 461432, 462043, 462675, 463221, 463833, 464486, 465112, 465757, 466378, 466928, 467521, 468104, 468698, 469308, 469897]",80,EM,U,R,ITMSR,1.1,
5,400,trial,0,16,16,16,trial,"['S', 'S', 'S', 'S', 'S', 'S', 'S', 'C', 'C', 'C', 'C', 'C', 'C', 'C', 'C', 'C', 'C', 'C', 'C', 'C', 'C', 'C', 'C']","[475543, 475954, 476392, 476823, 477248, 477700, 478093, 478497, 478878, 479293, 479709, 480125, 480581, 480962, 481394, 481856, 482277, 482734, 483181, 483589, 484072, 484495, 484946]","[475606, 476010, 476463, 476873, 477300, 477740, 478141, 478545, 478917, 479329, 479758, 480157, 480606, 481004, 481438, 481902, 482306, 482767, 483205, 483635, 484106, 484531, 484973]","[244, 158, 47, 45, 29, 128, 230, 216, 103, 103, 168, 40, 199, 221, 175, 81, 2, 11, 27, 52, 70, 11, 79]","[475574, 475972, 476421, 476844, 477271, 477714, 478110, 478513, 478892, 479303, 479729, 480139, 480592, 480978, 481409, 481873, 482288, 482743, 483190, 483605, 484087, 484510, 484960]","[475368, 475767, 476167, 476567, 476967, 477367, 477767, 478168, 478517, 478898, 479313, 479729, 480145, 480601, 480983, 481414, 481876, 482297, 482754, 483202, 483609, 484092, 484515, 484966]",80,EM,U,R,ITMSR,1.1,
0,400,trial,0,17,17,17,trial,"['S', 'S', 'S', 'S', 'S', 'S', 'S', 'C', 'C', 'C', 'C', 'C', 'C', 'C', 'C', 'C', 'C', 'C', 'C', 'C', 'C', 'C', 'C']","[490469, 490881, 491319, 491744, 492191, 492610, 492997, 493452, 493835, 494233, 494647, 495081, 495449, 495894, 496304, 496705, 497174, 497528, 497972, 498395, 498830, 499272, 499666]","[490522, 490953, 491375, 491788, 492220, 492646, 493038, 493472, 493868, 494270, 494687, 495108, 495489, 495928, 496324, 496748, 497214, 497584, 498034, 498420, 498857, 499305, 499722]","[157, 32, 1, 166, 79, 73, 142, 172, 62, 175, 73, 144, 36, 100, 255, 87, 146, 91, 110, 73, 0, 17, 100]","[490489, 490907, 491340, 491764, 492203, 492623, 493011, 493455, 493850, 494248, 494664, 495093, 495467, 495907, 496313, 496722, 497191, 497548, 497992, 498408, 498834, 499279, 499687]","[490281, 490681, 491081, 491481, 491881, 492281, 492681, 493081, 493472, 493855, 494253, 494667, 495101, 495469, 495915, 496324, 496726, 497195, 497548, 497992, 498415, 498850, 499292, 499686]",80,EM,U,R,ITMSR,1.1,
3,600,trial,0,18,18,18,trial,"['S', 'S', 'S', 'S', 'S', 'S', 'S', 'C', 'C', 'C', 'C', 'C', 'C', 'C', 'C', 'C', 'C', 'C', 'C', 'C', 'C', 'C', 'C']","[505608, 506152, 506759, 507386, 507986, 508561, 509165, 509759, 510345, 510982, 511636, 512258, 512874, 513454, 514077, 514617, 515252, 515872, 516468, 517018, 517687, 518293, 518894]","[505705, 506242, 506864, 507478, 508082, 508650, 509274, 509874, 510458, 511074, 511738, 512366, 512985, 513556, 514165, 514712, 515350, 515965, 516562, 517128, 517773, 518396, 518996]","[8, 65, 75, 74, 54, 56, 46, 47, 63, 238, 12, 20, 14, 237, 150, 64, 127, 129, 93, 160, 167, 16, 181]","[505678, 506178, 506783, 507407, 508016, 508584, 509194, 509783, 510367, 510999, 511670, 512307, 512914, 513482, 514110, 514669, 515309, 515924, 516500, 517044, 517723, 518358, 518915]","[505012, 505611, 506211, 506811, 507411, 508011, 508611, 509211, 509779, 510365, 511002, 511656, 512278, 512894, 513474, 514097, 514637, 515272, 515892, 516488, 517038, 517707, 518313, 518914]",80,EM,U,R,ITMSR,1.1,
2,600,trial,0,19,19,19,trial,"['S', 'S', 'S', 'S', 'S', 'S', 'S', 'S', 'C', 'C', 'C', 'C', 'C', 'C', 'C', 'C', 'C', 'C', 'C', 'C', 'C', 'C', 'C', 'C']","[524630, 524994, 525621, 526221, 526796, 527363, 527976, 528592, 529155, 529815, 530429, 531037, 531636, 532265, 532871, 533471, 534029, 534653, 535362, 535951, 536555, 537162, 537769, 538363]","[524680, 525071, 525704, 526297, 526860, 527435, 528047, 528650, 529229, 529878, 530504, 531123, 531727, 532356, 532960, 533567, 534140, 534753, 535444, 536038, 536651, 537268, 537876, 538435]","[82, 254, 60, 69, 41, 45, 51, 3, 236, 173, 250, 79, 146, 37, 92, 19, 59, 101, 5, 134, 159, 186, 177, 93]","[524650, 525018, 525646, 526241, 526818, 527384, 527998, 528614, 529180, 529836, 530459, 531053, 531670, 532295, 532929, 533542, 534103, 534716, 535391, 535987, 536621, 537234, 537820, 538378]","[524450, 525049, 525649, 526249, 526850, 527450, 528050, 528650, 529175, 529836, 530449, 531057, 531656, 532285, 532891, 533491, 534049, 534673, 535383, 535971, 536576, 537182, 537789, 538383]",80,EM,U,R,ITMSR,1.1,
4,400,trial,0,20,20,20,trial,"['S', 'S', 'S', 'S', 'S', 'S', 'S', 'C', 'C', 'C', 'C', 'C', 'C', 'C', 'C', 'C', 'C', 'C', 'C', 'C', 'C', 'C', 'C']","[543931, 544335, 544807, 545259, 545698, 546109, 546506, 546927, 547346, 547765, 548175, 548592, 549010, 549401, 549814, 550204, 550631, 551045, 551450, 551855, 552297, 552691, 553100]","[544006, 544391, 544852, 545299, 545724, 546142, 546554, 546972, 547379, 547806, 548213, 548626, 549044, 549425, 549847, 550240, 550662, 551086, 551487, 551887, 552324, 552731, 553139]","[32, 220, 172, 117, 199, 97, 243, 247, 52, 179, 166, 80, 133, 76, 47, 63, 45, 106, 117, 59, 139, 74, 166]","[543972, 544357, 544827, 545276, 545710, 546119, 546526, 546948, 547357, 547780, 548188, 548601, 549024, 549411, 549825, 550217, 550641, 551061, 551467, 551867, 552309, 552708, 553117]","[543791, 544191, 544591, 544991, 545391, 545792, 546191, 546591, 546947, 547366, 547785, 548195, 548612, 549030, 549421, 549834, 550224, 550651, 551065, 551470, 551875, 552317, 552711, 553120]",80,EM,U,R,ITMSR,1.1,
5,600,trial,0,21,21,21,trial,"['S', 'S', 'S', 'S', 'S', 'S', 'S', 'S', 'C', 'C', 'C', 'C', 'C', 'C', 'C', 'C', 'C', 'C', 'C', 'C', 'C', 'C', 'C', 'C']","[558590, 558935, 559613, 560240, 560835, 561446, 562019, 562663, 563136, 563815, 564468, 565042, 565637, 566242, 566769, 567458, 568052, 568663, 569206, 569780, 570345, 570970, 571567, 572109]","[558643, 559003, 559687, 560315, 560893, 561502, 562080, 562726, 563265, 563886, 564530, 565140, 565737, 566328, 566863, 567516, 568148, 568715, 569226, 569829, 570420, 571059, 571670, 572243]","[197, 47, 104, 104, 82, 59, 64, 37, 39, 219, 200, 245, 92, 7, 40, 199, 236, 139, 156, 185, 186, 173, 151, 102]","[558609, 558956, 559635, 560264, 560851, 561465, 562038, 562688, 563200, 563832, 564492, 565109, 565719, 566276, 566797, 567481, 568072, 568701, 569210, 569795, 570360, 570987, 571609, 572132]","[558439, 559038, 559638, 560238, 560838, 561438, 562038, 562638, 563156, 563835, 564488, 565062, 565657, 566262, 566789, 567478, 568072, 568683, 569226, 569800, 570365, 570990, 571587, 572129]",80,EM,U,R,ITMSR,1.1,
2,400,trial,0,22,22,22,trial,"['S', 'S', 'S', 'S', 'S', 'S', 'S', 'C', 'C', 'C', 'C', 'C', 'C', 'C', 'C', 'C', 'C', 'C', 'C', 'C', 'C', 'C', 'C']","[578116, 578545, 578874, 579281, 579704, 580089, 580499, 580897, 581337, 581727, 582120, 582519, 582949, 583384, 583790, 584223, 584634, 585086, 585496, 585934, 586341, 586785, 587191]","[578185, 578582, 578931, 579335, 579755, 580132, 580531, 580938, 581369, 581760, 582165, 582559, 582989, 583411, 583838, 584261, 584679, 585119, 585546, 585962, 586390, 586823, 587237]","[126, 107, 132, 146, 76, 27, 162, 16, 45, 45, 29, 230, 229, 56, 5, 50, 232, 79, 241, 163, 58, 18, 11]","[578147, 578557, 578896, 579303, 579725, 580109, 580502, 580912, 581345, 581734, 582140, 582530, 582966, 583396, 583802, 584231, 584649, 585097, 585512, 585945, 586351, 586800, 587207]","[577722, 578122, 578522, 578922, 579322, 579722, 580122, 580523, 580917, 581357, 581747, 582140, 582539, 582969, 583404, 583810, 584243, 584654, 585106, 585517, 585954, 586361, 586805, 587211]",80,EM,U,R,ITMSR,1.1,
2,600,trial,0,23,23,23,trial,"['S', 'S', 'S', 'S', 'S', 'S', 'S', 'S', 'C', 'C', 'C', 'C', 'C', 'C', 'C', 'C', 'C', 'C', 'C', 'C', 'C', 'C', 'C', 'C']","[592765, 593062, 593759, 594373, 594956, 595573, 596158, 596755, 597347, 597990, 598621, 599218, 599813, 600422, 601036, 601665, 602249, 602911, 603516, 604146, 604724, 605298, 605892, 606446]","[592818, 593134, 593826, 594437, 594995, 595614, 596213, 596837, 597424, 598063, 598681, 599311, 599908, 600508, 601076, 601737, 602295, 602961, 603563, 604230, 604815, 605394, 605977, 606551]","[204, 248, 65, 209, 88, 215, 145, 123, 23, 1, 241, 18, 29, 202, 29, 218, 17, 211, 28, 68, 119, 199, 166, 163]","[592789, 593088, 593783, 594402, 594969, 595594, 596180, 596779, 597370, 598012, 598647, 599281, 599835, 600470, 601058, 601690, 602266, 602938, 603536, 604203, 604752, 605330, 605928, 606497]","[592602, 593201, 593801, 594401, 595001, 595601, 596201, 596801, 597367, 598010, 598641, 599238, 599833, 600442, 601056, 601686, 602269, 602931, 603536, 604166, 604744, 605318, 605912, 606466]",80,EM,U,R,ITMSR,1.1,
3,600,trial,0,24,24,24,trial,"['S', 'S', 'S', 'S', 'S', 'S', 'S', 'S', 'C', 'C', 'C', 'C', 'C', 'C', 'C', 'C', 'C', 'C', 'C', 'C', 'C', 'C', 'C', 'C']","[612367, 612792, 613369, 613970, 614555, 615166, 615748, 616394, 616986, 617601, 618189, 618810, 619382, 620010, 620636, 621210, 621749, 622383, 622939, 623502, 624035, 624671, 625283, 625882]","[612395, 612830, 613410, 614014, 614623, 615215, 615808, 616442, 617034, 617646, 618233, 618864, 619447, 620049, 620697, 621272, 621833, 622435, 622980, 623574, 624133, 624751, 625374, 625988]","[137, 171, 71, 129, 17, 210, 16, 176, 221, 171, 146, 117, 161, 113, 39, 154, 89, 241, 30, 3, 38, 210, 234, 150]","[612386, 612809, 613382, 613991, 614581, 615184, 615770, 616413, 617006, 617618, 618205, 618833, 619404, 620024, 620656, 621236, 621770, 622413, 622959, 623531, 624087, 624714, 625345, 625935]","[612191, 612791, 613391, 613991, 614591, 615191, 615791, 616391, 617006, 617621, 618209, 618830, 619402, 620030, 620656, 621230, 621769, 622403, 622959, 623522, 624055, 624691, 625303, 625902]",80,EM,U,R,ITMSR,1.1,
4,600,trial,0,25,25,25,trial,"['S', 'S', 'S', 'S', 'S', 'S', 'S', 'S', 'C', 'C', 'C', 'C', 'C', 'C', 'C', 'C', 'C', 'C', 'C', 'C', 'C', 'C', 'C', 'C']","[631433, 631821, 632454, 633018, 633621, 634247, 634841, 635423, 636014, 636649, 637244, 637884, 638481, 639093, 639691, 640291, 640872, 641499, 642111, 642701, 643245, 643864, 644510, 645098]","[631487, 631905, 632496, 633059, 633670, 634305, 634898, 635480, 636079, 636698, 637313, 637979, 638555, 639174, 639781, 640385, 640924, 641588, 642177, 642775, 643297, 643921, 644566, 645164]","[78, 164, 166, 197, 175, 221, 38, 20, 247, 172, 232, 246, 21, 14, 230, 40, 158, 108, 105, 168, 31, 26, 163, 160]","[631457, 631855, 632466, 633034, 633643, 634272, 634864, 635446, 636037, 636669, 637265, 637917, 638503, 639127, 639714, 640323, 640889, 641522, 642127, 642735, 643261, 643885, 644524, 645126]","[631258, 631858, 632458, 633058, 633658, 634258, 634858, 635458, 636034, 636669, 637264, 637904, 638501, 639113, 639711, 640311, 640892, 641519, 642131, 642721, 643265, 643885, 644530, 645118]",80,EM,U,R,ITMSR,1.1,
0,400,trial,0,26,26,26,trial,"['S', 'S', 'S', 'S', 'S', 'S', 'S', 'C', 'C', 'C', 'C', 'C', 'C', 'C', 'C', 'C', 'C', 'C', 'C', 'C', 'C', 'C', 'C']","[650927, 651352, 651806, 652253, 652700, 653109, 653502, 653933, 654319, 654716, 655111, 655519, 655929, 656333, 656775, 657156, 657588, 658028, 658423, 658820, 659267, 659697, 660108]","[650976, 651406, 651856, 652320, 652740, 653146, 653555, 653997, 654365, 654764, 655161, 655570, 655973, 656378, 656807, 657204, 657638, 658076, 658497, 658913, 659337, 659756, 660177]","[29, 250, 9, 41, 51, 2, 207, 237, 136, 208, 196, 255, 131, 119, 157, 180, 207, 159, 13, 210, 202, 250, 250]","[650951, 651370, 651825, 652277, 652716, 653124, 653521, 653954, 654339, 654734, 655131, 655539, 655945, 656350, 656789, 657177, 657608, 658043, 658445, 658840, 659284, 659719, 660131]","[650752, 651151, 651551, 651951, 652351, 652751, 653151, 653551, 653954, 654339, 654736, 655131, 655539, 655949, 656353, 656795, 657176, 657608, 658049, 658443, 658840, 659288, 659717, 660128]",80,EM,U,R,ITMSR,1.1,
4,400,trial,0,27,27,27,trial,"['S', 'S', 'S', 'S', 'S', 'S', 'S', 'C', 'C', 'C', 'C', 'C', 'C', 'C', 'C', 'C', 'C', 'C', 'C', 'C', 'C', 'C', 'C']","[665920, 666321, 666783, 667216, 667658, 668072, 668529, 668930, 669335, 669735, 670151, 670556, 670956, 671352, 671773, 672160, 672583, 673022, 673419, 673837, 674274, 674660, 675068]","[665956, 666351, 666835, 667254, 667693, 668120, 668575, 668984, 669387, 669782, 670198, 670608, 671010, 671414, 671830, 672210, 672622, 673080, 673486, 673904, 674326, 674701, 675124]","[38, 159, 222, 124, 91, 224, 21, 214, 248, 150, 253, 239, 215, 122, 116, 160, 101, 104, 150, 207, 196, 77, 254]","[665936, 666335, 666802, 667231, 667674, 668093, 668548, 668951, 669356, 669755, 670171, 670576, 670979, 671372, 671793, 672180, 672598, 673039, 673439, 673857, 674294, 674676, 675091]","[665745, 666144, 666544, 666944, 667344, 667744, 668144, 668545, 668950, 669356, 669755, 670171, 670576, 670977, 671372, 671793, 672180, 672603, 673042, 673439, 673857, 674294, 674680, 675088]",80,EM,U,R,ITMSR,1.1,
3,400,trial,0,28,28,28,trial,"['S', 'S', 'S', 'S', 'S', 'S', 'S', 'S', 'C', 'C', 'C', 'C', 'C', 'C', 'C', 'C', 'C', 'C', 'C', 'C', 'C', 'C', 'C', 'C']","[680592, 680911, 681321, 681669, 682054, 682477, 682885, 683252, 683654, 684069, 684461, 684883, 685283, 685687, 686118, 686533, 686949, 687340, 687760, 688150, 688577, 688972, 689364, 689793]","[680662, 680987, 681368, 681730, 682125, 682545, 682945, 683319, 683705, 684114, 684524, 684929, 685337, 685736, 686170, 686590, 687010, 687411, 687828, 688221, 688651, 689058, 689428, 689849]","[6, 35, 232, 16, 56, 29, 16, 45, 11, 194, 1, 15, 30, 42, 22, 73, 59, 8, 251, 14, 28, 24, 247, 9]","[680622, 680939, 681338, 681690, 682076, 682499, 682904, 683274, 683670, 684085, 684478, 684900, 685297, 685704, 686134, 686553, 686969, 687357, 687777, 688166, 688598, 688992, 689384, 689810]","[680474, 680875, 681274, 681674, 682074, 682474, 682874, 683274, 683674, 684089, 684481, 684903, 685303, 685707, 686138, 686553, 686969, 687361, 687780, 688171, 688598, 688992, 689384, 689813]",80,EM,U,R,ITMSR,1.1,
2,400,trial,0,29,29,29,trial,"['S', 'S', 'S', 'S', 'S', 'S', 'S', 'S', 'C', 'C', 'C', 'C', 'C', 'C', 'C', 'C', 'C', 'C', 'C', 'C', 'C', 'C', 'C', 'C']","[695768, 696160, 696425, 696798, 697190, 697578, 697992, 698386, 698767, 699176, 699618, 700002, 700424, 700837, 701257, 701683, 702093, 702478, 702899, 703334, 703717, 704145, 704542, 704994]","[695812, 696220, 696491, 696861, 697245, 697632, 698051, 698446, 698835, 699247, 699687, 700081, 700519, 700912, 701332, 701765, 702173, 702592, 702986, 703397, 703799, 704208, 704617, 705061]","[152, 251, 9, 252, 224, 193, 213, 13, 242, 31, 215, 19, 20, 12, 46, 24, 27, 24, 43, 24, 58, 10, 21, 69]","[695785, 696179, 696445, 696816, 697209, 697597, 698011, 698405, 698784, 699197, 699640, 700023, 700445, 700859, 701278, 701704, 702114, 702498, 702932, 703354, 703741, 704165, 704565, 705015]","[695585, 695985, 696385, 696785, 697185, 697585, 697986, 698386, 698787, 699196, 699638, 700022, 700444, 700857, 701277, 701703, 702113, 702498, 702919, 703354, 703737, 704165, 704562, 705014]",80,EM,U,R,ITMSR,1.1,
5,600,trial,0,30,30,30,trial,"['S', 'S', 'S', 'S', 'S', 'S', 'S', 'S', 'C', 'C', 'C', 'C', 'C', 'C', 'C', 'C', 'C', 'C', 'C', 'C', 'C', 'C', 'C', 'C']","[718242, 718572, 719171, 719806, 720397, 721022, 721597, 722204, 722798, 723398, 724001, 724645, 725254, 725884, 726471, 727058, 727662, 728297, 728902, 729507, 730042, 730654, 731279, 731874]","[718270, 718649, 719266, 719908, 720484, 721097, 721675, 722288, 722882, 723493, 724094, 724731, 725356, 725989, 726587, 727186, 727791, 728423, 729041, 729652, 730276, 730834, 731410, 732042]","[13, 238, 85, 102, 84, 64, 96, 92, 125, 120, 122, 115, 121, 110, 119, 87, 86, 108, 97, 118, 125, 115, 108, 101]","[718246, 718601, 719199, 719834, 720418, 721043, 721618, 722227, 722820, 723422, 724021, 724667, 725294, 725907, 726495, 727121, 727687, 728330, 728946, 729578, 730133, 730747, 731301, 731961]","[718030, 718630, 719230, 719831, 720430, 721030, 721630, 722230, 722818, 723418, 724021, 724665, 725274, 725904, 726491, 727078, 727682, 728317, 728922, 729527, 730062, 730674, 731299, 731894]",80,EM,U,R,ITMSR,1.1,
4,400,trial,0,31,31,31,trial,"['S', 'S', 'S', 'S', 'S', 'S', 'S', 'S', 'C', 'C', 'C', 'C', 'C', 'C', 'C', 'C', 'C', 'C', 'C', 'C', 'C', 'C', 'C', 'C']","[737472, 737729, 738066, 738449, 738849, 739251, 739661, 740025, 740431, 740865, 741284, 741683, 742104, 742516, 742967, 743380, 743786, 744219, 744657, 745070, 745475, 745925, 746356, 746777]","[737526, 737795, 738139, 738506, 738897, 739300, 739718, 740087, 740494, 740932, 741338, 741746, 742160, 742584, 743031, 743475, 743865, 744307, 744720, 745156, 745567, 746000, 746450, 746859]","[151, 205, 38, 248, 186, 210, 196, 2, 34, 14, 237, 33, 4, 246, 16, 56, 59, 21, 44, 62, 45, 55, 75, 107]","[737492, 737753, 738086, 738467, 738867, 739270, 739680, 740045, 740452, 740882, 741300, 741703, 742121, 742533, 742987, 743402, 743806, 744236, 744674, 745088, 745495, 745945, 746373, 746798]","[737271, 737670, 738070, 738470, 738870, 739270, 739671, 740070, 740451, 740885, 741304, 741703, 742124, 742536, 742987, 743400, 743806, 744239, 744677, 745090, 745495, 745945, 746376, 746797]",80,EM,U,R,ITMSR,1.1,
1,400,trial,0,32,32,32,trial,"['S', 'S', 'S', 'S', 'S', 'S', 'S', 'S', 'C', 'C', 'C', 'C', 'C', 'C', 'C', 'C', 'C', 'C', 'C', 'C', 'C', 'C', 'C', 'C']","[752681, 752897, 753305, 753700, 754092, 754500, 754888, 755289, 755705, 756106, 756519, 756930, 757336, 757708, 758123, 758518, 758925, 759351, 759739, 760166, 760571, 761021, 761445, 761886]","[752708, 752949, 753379, 753762, 754162, 754556, 754963, 755339, 755767, 756165, 756593, 756998, 757414, 757791, 758183, 758580, 759001, 759413, 759820, 760243, 760659, 761079, 761501, 761938]","[172, 5, 16, 24, 60, 63, 70, 55, 58, 69, 55, 71, 87, 89, 60, 58, 64, 63, 99, 96, 92, 27, 53, 41]","[752692, 752917, 753328, 753722, 754114, 754520, 754908, 755306, 755725, 756123, 756539, 756947, 757356, 757729, 758139, 758534, 758941, 759366, 759759, 760186, 760591, 761041, 761460, 761902]","[752501, 752900, 753300, 753700, 754100, 754500, 754900, 755300, 755725, 756126, 756539, 756951, 757356, 757728, 758144, 758538, 758945, 759371, 759759, 760186, 760591, 761041, 761465, 761906]",80,EM,U,R,ITMSR,1.1,
5,400,trial,0,33,33,33,trial,"['S', 'S', 'S', 'S', 'S', 'S', 'S', 'S', 'C', 'C', 'C', 'C', 'C', 'C', 'C', 'C', 'C', 'C', 'C', 'C', 'C', 'C', 'C', 'C']","[767682, 768029, 768416, 768808, 769198, 769604, 770004, 770407, 770848, 771257, 771671, 772077, 772511, 772923, 773345, 773737, 774158, 774596, 774961, 775402, 775816, 776245, 776671, 777082]","[767736, 768090, 768480, 768859, 769263, 769662, 770075, 770470, 770908, 771321, 771731, 772146, 772564, 772982, 773414, 773798, 774220, 774654, 775041, 775476, 775891, 776302, 776739, 777139]","[13, 37, 44, 26, 81, 60, 80, 62, 60, 62, 22, 52, 9, 75, 47, 70, 61, 64, 74, 69, 85, 44, 73, 56]","[767706, 768049, 768435, 768826, 769216, 769619, 770023, 770424, 770866, 771278, 771688, 772093, 772529, 772939, 773361, 773754, 774173, 774610, 774978, 775422, 775836, 776259, 776688, 777096]","[767604, 768004, 768404, 768804, 769204, 769604, 770004, 770404, 770868, 771277, 771691, 772098, 772531, 772943, 773365, 773757, 774178, 774616, 774981, 775422, 775836, 776265, 776691, 777102]",80,EM,U,R,ITMSR,1.1,
2,600,trial,0,34,34,34,trial,"['S', 'S', 'S', 'S', 'S', 'S', 'S', 'S', 'C', 'C', 'C', 'C', 'C', 'C', 'C', 'C', 'C', 'C', 'C', 'C', 'C', 'C', 'C', 'C']","[782977, 783232, 783950, 784618, 785200, 785799, 786388, 787039, 787553, 788147, 788764, 789382, 789994, 790612, 791186, 791775, 792368, 792942, 793530, 794094, 794631, 795279, 795890, 796488]","[783031, 783302, 784037, 784706, 785272, 785865, 786467, 787098, 787642, 788209, 788822, 789460, 790055, 790670, 791254, 791861, 792451, 793047, 793629, 794207, 794757, 795373, 795964, 796605]","[88, 108, 126, 88, 29, 76, 78, 62, 71, 57, 52, 77, 76, 54, 71, 88, 68, 85, 57, 80, 66, 77, 64, 82]","[783000, 783257, 783978, 784637, 785217, 785819, 786411, 787057, 787573, 788162, 788781, 789408, 790014, 790632, 791206, 791802, 792389, 792969, 793552, 794118, 794651, 795305, 795911, 796551]","[782825, 783424, 784024, 784624, 785224, 785824, 786424, 787024, 787573, 788167, 788784, 789402, 790014, 790632, 791206, 791795, 792388, 792962, 793550, 794114, 794651, 795299, 795910, 796508]",80,EM,U,R,ITMSR,1.1,
0,600,trial,0,35,35,35,trial,"['S', 'S', 'S', 'S', 'S', 'S', 'S', 'S', 'C', 'C', 'C', 'C', 'C', 'C', 'C', 'C', 'C', 'C', 'C', 'C', 'C', 'C', 'C', 'C']","[802307, 802706, 803297, 803880, 804486, 805042, 805662, 806303, 806863, 807460, 808053, 808656, 809247, 809812, 810431, 811036, 811635, 812219, 812795, 813351, 813912, 814570, 815172, 815752]","[802331, 802777, 803377, 803978, 804570, 805118, 805739, 806374, 806930, 807546, 808124, 808728, 809323, 809910, 810484, 811107, 811700, 812310, 812864, 813444, 814003, 814658, 815248, 815846]","[136, 30, 39, 79, 75, 83, 99, 108, 119, 125, 120, 118, 123, 68, 97, 103, 81, 93, 75, 105, 69, 73, 77, 119]","[802319, 802729, 803313, 803900, 804506, 805058, 805679, 806319, 806881, 807482, 808070, 808673, 809268, 809857, 810448, 811053, 811655, 812242, 812815, 813375, 813932, 814585, 815188, 815766]","[802107, 802706, 803306, 803906, 804506, 805106, 805706, 806306, 806883, 807480, 808073, 808676, 809267, 809832, 810451, 811056, 811655, 812239, 812815, 813371, 813932, 814590, 815192, 815772]",80,EM,U,R,ITMSR,1.1,
4,600,trial,0,36,36,36,trial,"['S', 'S', 'S', 'S', 'S', 'S', 'S', 'S', 'C', 'C', 'C', 'C', 'C', 'C', 'C', 'C', 'C', 'C', 'C', 'C', 'C', 'C', 'C', 'C']","[821250, 821615, 822206, 822825, 823435, 824055, 824652, 825217, 825811, 826462, 827083, 827678, 828280, 828876, 829461, 830096, 830710, 831318, 831899, 832463, 833090, 833748, 834337, 834911]","[821306, 821685, 822255, 822875, 823484, 824112, 824720, 825291, 825880, 826518, 827163, 827778, 828382, 828993, 829573, 830192, 830824, 831450, 832007, 832567, 833185, 833853, 834457, 835078]","[4, 6, 30, 8, 3, 48, 96, 84, 79, 55, 95, 106, 90, 74, 92, 61, 70, 92, 92, 55, 60, 79, 84, 114]","[821271, 821639, 822223, 822842, 823454, 824075, 824670, 825231, 825826, 826476, 827099, 827695, 828297, 828892, 829478, 830111, 830727, 831338, 831920, 832510, 833126, 833773, 834394, 834991]","[821084, 821684, 822284, 822884, 823484, 824084, 824684, 825284, 825831, 826482, 827103, 827698, 828300, 828896, 829481, 830116, 830730, 831338, 831919, 832483, 833111, 833768, 834357, 834931]",80,EM,U,R,ITMSR,1.1,
0,400,trial,0,37,37,37,trial,"['S', 'S', 'S', 'S', 'S', 'S', 'S', 'S', 'C', 'C', 'C', 'C', 'C', 'C', 'C', 'C', 'C', 'C', 'C', 'C', 'C', 'C', 'C', 'C']","[840740, 841156, 841473, 841793, 842169, 842572, 842962, 843368, 843753, 844162, 844557, 844950, 845366, 845786, 846179, 846589, 846994, 847421, 847812, 848206, 848624, 849053, 849436, 849872]","[840782, 841220, 841539, 841856, 842240, 842652, 843035, 843441, 843823, 844231, 844637, 845019, 845430, 845838, 846259, 846667, 847073, 847491, 847881, 848293, 848703, 849140, 849530, 849957]","[19, 37, 51, 64, 75, 86, 84, 92, 95, 90, 112, 107, 95, 69, 75, 98, 113, 122, 115, 123, 122, 111, 131, 109]","[840758, 841171, 841498, 841811, 842188, 842594, 842981, 843385, 843770, 844182, 844578, 844974, 845381, 845800, 846195, 846609, 847010, 847441, 847828, 848227, 848644, 849070, 849458, 849892]","[840581, 840981, 841381, 841781, 842181, 842582, 842981, 843381, 843773, 844182, 844577, 844971, 845386, 845806, 846199, 846609, 847014, 847441, 847832, 848226, 848644, 849073, 849456, 849892]",80,EM,U,R,ITMSR,1.1,
4,600,trial,0,38,38,38,trial,"['S', 'S', 'S', 'S', 'S', 'S', 'S', 'S', 'C', 'C', 'C', 'C', 'C', 'C', 'C', 'C', 'C', 'C', 'C', 'C', 'C', 'C', 'C', 'C']","[855721, 855998, 856676, 857314, 857945, 858536, 859116, 859718, 860305, 860928, 861528, 862138, 862704, 863279, 863907, 864512, 865117, 865689, 866242, 866888, 867475, 868092, 868671, 869271]","[855764, 856083, 856777, 857433, 858056, 858649, 859226, 859817, 860388, 861019, 861615, 862227, 862776, 863371, 864001, 864620, 865214, 865811, 866373, 867014, 867605, 868186, 868765, 869360]","[24, 117, 126, 130, 125, 119, 142, 135, 139, 139, 115, 110, 107, 77, 105, 110, 91, 91, 114, 126, 104, 99, 95, 89]","[855739, 856018, 856697, 857333, 857962, 858556, 859137, 859738, 860322, 860946, 861545, 862155, 862725, 863296, 863941, 864532, 865129, 865756, 866273, 866923, 867495, 868113, 868696, 869306]","[855549, 856150, 856749, 857349, 857949, 858549, 859149, 859749, 860325, 860948, 861548, 862158, 862724, 863299, 863927, 864532, 865137, 865709, 866263, 866908, 867495, 868112, 868691, 869292]",80,EM,U,R,ITMSR,1.1,
1,600,trial,0,39,39,39,trial,"['S', 'S', 'S', 'S', 'S', 'S', 'S', 'S', 'C', 'C', 'C', 'C', 'C', 'C', 'C', 'C', 'C', 'C', 'C', 'C', 'C', 'C', 'C', 'C']","[874979, 875472, 876079, 876662, 877272, 877846, 878433, 879055, 879647, 880250, 880849, 881470, 882058, 882679, 883241, 883852, 884462, 885010, 885649, 886306, 887184, 887774, 888356, 888948]","[875067, 875603, 876232, 876809, 877407, 877941, 878508, 879156, 879769, 880381, 880974, 881567, 882154, 882786, 883343, 883946, 884549, 885123, 885761, 886437, 887288, 887888, 888471, 889078]","[53, 109, 136, 133, 147, 129, 53, 111, 128, 122, 124, 96, 104, 99, 105, 110, 109, 103, 111, 99, 118, 121, 122, 132]","[875014, 875540, 876168, 876734, 877342, 877877, 878452, 879087, 879684, 880278, 880887, 881505, 882088, 882699, 883261, 883868, 884491, 885046, 885675, 886326, 887224, 887819, 888388, 888994]","[874918, 875518, 876119, 876718, 877318, 877918, 878518, 879118, 879667, 880270, 880869, 881490, 882078, 882699, 883261, 883872, 884482, 885030, 885669, 886326, 887204, 887794, 888376, 888968]",80,EM,U,R,ITMSR,1.1,
3,400,trial,0,40,40,40,trial,"['S', 'S', 'S', 'S', 'S', 'S', 'S', 'S', 'C', 'C', 'C', 'C', 'C', 'C', 'C', 'C', 'C', 'C', 'C', 'C', 'C', 'C', 'C', 'C']","[894638, 895000, 895292, 895667, 896063, 896456, 896863, 897275, 897674, 898065, 898479, 898876, 899296, 899697, 900125, 900487, 900916, 901326, 901749, 902184, 902561, 902979, 903400, 903811]","[894729, 895081, 895357, 895727, 896115, 896525, 896926, 897345, 897741, 898142, 898541, 898949, 899357, 899789, 900201, 900572, 901005, 901416, 901843, 902263, 902651, 903078, 903489, 903902]","[54, 90, 97, 100, 78, 107, 76, 103, 90, 86, 74, 96, 76, 104, 105, 114, 103, 121, 99, 115, 110, 124, 116, 128]","[894673, 895025, 895311, 895687, 896081, 896475, 896880, 897295, 897691, 898086, 898495, 898893, 899312, 899717, 900148, 900507, 900933, 901346, 901769, 902201, 902578, 902995, 903416, 903831]","[894486, 894886, 895286, 895686, 896087, 896486, 896886, 897286, 897694, 898085, 898499, 898896, 899316, 899717, 900145, 900507, 900936, 901346, 901769, 902204, 902581, 903000, 903420, 903831]",80,EM,U,R,ITMSR,1.1,
0,600,trial,0,41,41,41,trial,"['S', 'S', 'S', 'S', 'S', 'S', 'S', 'S', 'C', 'C', 'C', 'C', 'C', 'C', 'C', 'C', 'C', 'C', 'C', 'C', 'C', 'C', 'C', 'C']","[909637, 910078, 910717, 911269, 911856, 912451, 913034, 913628, 914252, 914859, 915450, 916064, 916665, 917266, 917840, 918450, 919029, 919616, 920205, 920824, 921404, 922057, 922642, 923192]","[909714, 910190, 910809, 911364, 911960, 912563, 913146, 913746, 914362, 914972, 915550, 916170, 916782, 917374, 917959, 918560, 919151, 919742, 920331, 920945, 921533, 922166, 922762, 923338]","[10, 44, 78, 86, 98, 102, 92, 110, 100, 94, 93, 105, 123, 111, 105, 125, 109, 117, 124, 129, 125, 111, 113, 134]","[909664, 910100, 910739, 911288, 911877, 912474, 913058, 913654, 914272, 914879, 915470, 916079, 916688, 917283, 917857, 918471, 919049, 919653, 920235, 920844, 921421, 922077, 922683, 923213]","[909491, 910091, 910691, 911291, 911891, 912491, 913091, 913691, 914272, 914879, 915470, 916084, 916685, 917286, 917860, 918470, 919049, 919636, 920225, 920844, 921424, 922077, 922662, 923212]",80,EM,U,R,ITMSR,1.1,
2,600,trial,0,42,42,42,trial,"['S', 'S', 'S', 'S', 'S', 'S', 'S', 'S', 'C', 'C', 'C', 'C', 'C', 'C', 'C', 'C', 'C', 'C', 'C', 'C', 'C', 'C', 'C', 'C']","[928697, 929077, 929674, 930270, 930850, 931456, 932074, 932663, 933227, 933825, 934439, 935067, 935692, 936310, 936915, 937483, 938106, 938699, 939331, 939938, 940493, 941113, 941691, 942273]","[928782, 929199, 929794, 930375, 930921, 931540, 932162, 932754, 933315, 933925, 934530, 935173, 935805, 936433, 937066, 937598, 938219, 938835, 939440, 940043, 940624, 941245, 941886, 942470]","[11, 64, 133, 119, 39, 69, 98, 108, 103, 86, 96, 107, 121, 126, 98, 22, 50, 101, 108, 110, 84, 100, 104, 145]","[928719, 929138, 929700, 930294, 930873, 931480, 932099, 932686, 933253, 933863, 934461, 935095, 935716, 936339, 936940, 937525, 938129, 938723, 939355, 939965, 940572, 941133, 941713, 942295]","[928517, 929117, 929717, 930317, 930917, 931517, 932117, 932717, 933248, 933846, 934459, 935087, 935712, 936330, 936935, 937503, 938126, 938719, 939352, 939958, 940513, 941133, 941711, 942294]",80,EM,U,R,ITMSR,1.1,
4,400,trial,0,43,43,43,trial,"['B', 'S', 'S', 'S', 'S', 'S', 'S', 'S', 'C', 'C', 'C', 'C', 'C', 'C', 'C', 'C', 'C', 'C', 'C', 'C', 'C', 'C', 'C', 'C']","[947829, 948387, 948868, 949118, 949443, 949847, 950232, 950634, 951077, 951492, 951899, 952323, 952723, 953140, 953566, 953976, 954420, 954840, 955224, 955659, 956086, 956533, 956952, 957379]","[947971, 948463, 948926, 949165, 949513, 949913, 950308, 950695, 951144, 951550, 951966, 952383, 952787, 953204, 953627, 954058, 954506, 954934, 955326, 955750, 956193, 956647, 957054, 957486]","[219, 252, 165, 182, 27, 76, 89, 62, 77, 43, 50, 55, 35, 42, 47, 66, 66, 48, 72, 96, 89, 92, 79, 106]","[947936, 948417, 948892, 949138, 949468, 949867, 950255, 950651, 951097, 951508, 951919, 952343, 952739, 953157, 953583, 953999, 954440, 954857, 955246, 955679, 956104, 956553, 956975, 957402]","[947842, 948242, 948642, 949042, 949442, 949842, 950242, 950642, 951097, 951512, 951919, 952343, 952743, 953160, 953586, 953996, 954440, 954860, 955244, 955679, 956106, 956553, 956973, 957400]",80,EM,U,R,ITMSR,1.1,
2,400,trial,0,44,44,44,trial,"['S', 'S', 'S', 'S', 'S', 'S', 'S', 'S', 'C', 'C', 'C', 'C', 'C', 'C', 'C', 'C', 'C', 'C', 'C', 'C', 'C', 'C', 'C', 'C']","[963194, 963599, 963946, 964286, 964667, 965055, 965452, 965847, 966258, 966666, 967063, 967478, 967912, 968324, 968754, 969210, 969634, 970094, 970471, 970890, 971319, 971743, 972187, 972589]","[963258, 963663, 963999, 964339, 964725, 965107, 965505, 965908, 966315, 966705, 967112, 967526, 967968, 968393, 968813, 969277, 969725, 970151, 970539, 970960, 971379, 971811, 972254, 972662]","[248, 217, 227, 17, 3, 233, 224, 18, 209, 160, 234, 240, 37, 52, 50, 244, 67, 12, 10, 70, 59, 58, 34, 86]","[963221, 963621, 963966, 964304, 964685, 965072, 965471, 965867, 966278, 966682, 967080, 967495, 967932, 968344, 968771, 969226, 969655, 970109, 970487, 970910, 971335, 971763, 972196, 972607]","[963035, 963434, 963834, 964234, 964634, 965035, 965434, 965834, 966278, 966686, 967084, 967498, 967932, 968344, 968774, 969230, 969654, 970114, 970491, 970910, 971339, 971763, 972207, 972609]",80,EM,U,R,ITMSR,1.1,
1,400,trial,0,45,45,45,trial,"['S', 'S', 'S', 'S', 'S', 'S', 'S', 'S', 'C', 'C', 'C', 'C', 'C', 'C', 'C', 'C', 'C', 'C', 'C', 'C', 'C', 'C', 'C', 'C']","[978256, 978668, 979043, 979410, 979809, 980201, 980586, 980946, 981368, 981824, 982224, 982678, 983056, 983463, 983889, 984314, 984743, 985159, 985613, 986044, 986448, 986890, 987329, 987730]","[978353, 978770, 979130, 979490, 979901, 980292, 980701, 981051, 981463, 981892, 982308, 982743, 983152, 983577, 983992, 984407, 984823, 985253, 985697, 986115, 986532, 986983, 987400, 987814]","[45, 56, 46, 80, 87, 91, 111, 119, 74, 58, 72, 79, 67, 94, 88, 77, 66, 101, 85, 75, 91, 96, 94, 108]","[978314, 978701, 979070, 979434, 979828, 980226, 980617, 980980, 981385, 981840, 982244, 982696, 983076, 983487, 983909, 984332, 984764, 985182, 985629, 986058, 986465, 986910, 987350, 987750]","[978184, 978584, 978984, 979384, 979784, 980184, 980584, 980984, 981388, 981844, 982244, 982699, 983076, 983483, 983909, 984334, 984763, 985179, 985633, 986064, 986468, 986910, 987350, 987750]",80,EM,U,R,ITMSR,1.1,
5,400,trial,0,46,46,46,trial,"['S', 'S', 'S', 'S', 'S', 'S', 'S', 'S', 'C', 'C', 'C', 'C', 'C', 'C', 'C', 'C', 'C', 'C', 'C', 'C', 'C', 'C', 'C', 'C']","[993309, 993556, 993909, 994319, 994704, 995123, 995516, 995864, 996290, 996699, 997132, 997534, 997963, 998381, 998781, 999224, 999636, 1000074, 1000464, 1000906, 1001323, 1001731, 1002104, 1002562]","[993358, 993629, 993982, 994381, 994763, 995190, 995571, 995940, 996381, 996797, 997209, 997617, 998041, 998463, 998879, 999307, 999738, 1000166, 1000587, 1000997, 1001428, 1001872, 1002233, 1002664]","[132, 70, 76, 70, 84, 82, 80, 110, 69, 71, 61, 54, 43, 55, 84, 83, 71, 63, 91, 110, 105, 90, 120, 109]","[993329, 993581, 993926, 994333, 994719, 995140, 995530, 995886, 996311, 996721, 997149, 997554, 997983, 998398, 998806, 999252, 999652, 1000089, 1000484, 1000926, 1001354, 1001747, 1002134, 1002583]","[993104, 993504, 993904, 994305, 994704, 995104, 995504, 995904, 996311, 996719, 997152, 997554, 997983, 998402, 998801, 999244, 999656, 1000094, 1000484, 1000926, 1001344, 1001751, 1002124, 1002583]",80,EM,U,R,ITMSR,1.1,
3,400,trial,0,47,47,47,trial,"['S', 'S', 'S', 'S', 'S', 'S', 'S', 'C', 'C', 'C', 'C', 'C', 'C', 'C', 'C', 'C', 'C', 'C', 'C', 'C', 'C', 'C', 'C']","[1008587, 1009043, 1009413, 1009827, 1010243, 1010674, 1011093, 1011500, 1011870, 1012268, 1012684, 1013091, 1013511, 1013900, 1014338, 1014687, 1015132, 1015556, 1015973, 1016372, 1016768, 1017206, 1017616]","[1008714, 1009127, 1009516, 1009914, 1010298, 1010742, 1011150, 1011557, 1011934, 1012338, 1012748, 1013170, 1013594, 1014002, 1014417, 1014789, 1015226, 1015636, 1016056, 1016478, 1016849, 1017279, 1017692]","[101, 92, 121, 92, 67, 99, 83, 91, 83, 82, 72, 93, 88, 73, 78, 73, 86, 104, 91, 87, 85, 98, 108]","[1008646, 1009065, 1009441, 1009850, 1010258, 1010691, 1011107, 1011512, 1011886, 1012282, 1012699, 1013103, 1013527, 1013913, 1014352, 1014710, 1015146, 1015569, 1015989, 1016386, 1016783, 1017220, 1017632]","[1008291, 1008691, 1009091, 1009491, 1009891, 1010291, 1010691, 1011091, 1011520, 1011890, 1012288, 1012704, 1013111, 1013531, 1013920, 1014359, 1014707, 1015152, 1015576, 1015993, 1016392, 1016788, 1017226, 1017636]",80,EM,U,R,ITMSR,1.1,
3,600,trial,0,48,48,48,trial,"['S', 'S', 'S', 'S', 'S', 'S', 'S', 'S', 'C', 'C', 'C', 'C', 'C', 'C', 'C', 'C', 'C', 'C', 'C', 'C', 'C', 'C', 'C', 'C']","[1023158, 1023416, 1024107, 1024763, 1025354, 1025975, 1026597, 1027197, 1027779, 1028413, 1029033, 1029655, 1030242, 1030857, 1031487, 1032111, 1032693, 1033284, 1033912, 1034551, 1035153, 1035792, 1036383, 1036949]","[1023239, 1023491, 1024199, 1024864, 1025456, 1026058, 1026692, 1027288, 1027866, 1028504, 1029129, 1029778, 1030374, 1031010, 1031619, 1032238, 1032834, 1033434, 1034075, 1034681, 1035299, 1035918, 1036513, 1037087]","[66, 85, 117, 136, 122, 128, 118, 108, 122, 115, 117, 96, 99, 124, 103, 126, 126, 109, 116, 103, 114, 109, 99, 100]","[1023200, 1023443, 1024134, 1024787, 1025378, 1025992, 1026616, 1027218, 1027798, 1028429, 1029054, 1029680, 1030299, 1030933, 1031503, 1032131, 1032714, 1033367, 1033996, 1034627, 1035169, 1035808, 1036400, 1036966]","[1022998, 1023597, 1024197, 1024797, 1025397, 1025997, 1026597, 1027197, 1027800, 1028433, 1029053, 1029676, 1030262, 1030877, 1031507, 1032131, 1032713, 1033304, 1033932, 1034571, 1035173, 1035812, 1036403, 1036969]",80,EM,U,R,ITMSR,1.1,
3,600,trial,0,49,49,49,trial,"['S', 'S', 'S', 'S', 'S', 'S', 'S', 'S', 'C', 'C', 'C', 'C', 'C', 'C', 'C', 'C', 'C', 'C', 'C', 'C', 'C', 'C', 'C', 'C']","[1042457, 1042799, 1043384, 1043996, 1044613, 1045246, 1045860, 1046460, 1047033, 1047653, 1048261, 1048906, 1049507, 1050089, 1050654, 1051257, 1051878, 1052495, 1053107, 1053708, 1054274, 1054902, 1055539, 1056189]","[1042514, 1042913, 1043471, 1044102, 1044658, 1045305, 1045944, 1046533, 1047112, 1047752, 1048341, 1048990, 1049605, 1050199, 1050761, 1051352, 1052000, 1052633, 1053248, 1053849, 1054474, 1055055, 1055645, 1056313]","[164, 207, 241, 62, 192, 12, 61, 59, 67, 82, 75, 85, 80, 74, 40, 37, 49, 40, 59, 238, 43, 167, 189, 192]","[1042484, 1042828, 1043407, 1044021, 1044623, 1045265, 1045885, 1046475, 1047055, 1047675, 1048275, 1048921, 1049528, 1050113, 1050677, 1051270, 1051894, 1052513, 1053128, 1053719, 1054385, 1054994, 1055544, 1056204]","[1042285, 1042885, 1043485, 1044085, 1044685, 1045285, 1045885, 1046486, 1047053, 1047673, 1048281, 1048926, 1049527, 1050109, 1050674, 1051277, 1051898, 1052515, 1053127, 1053728, 1054295, 1054922, 1055559, 1056209]",80,EM,U,R,ITMSR,1.1,
0,400,trial,0,50,50,50,trial,"['S', 'S', 'S', 'S', 'S', 'S', 'S', 'S', 'C', 'C', 'C', 'C', 'C', 'C', 'C', 'C', 'C', 'C', 'C', 'C', 'C', 'C', 'C', 'C']","[1061878, 1062230, 1062563, 1062927, 1063308, 1063696, 1064077, 1064452, 1064840, 1065273, 1065682, 1066090, 1066509, 1066908, 1067314, 1067745, 1068169, 1068579, 1068972, 1069427, 1069829, 1070290, 1070667, 1071123]","[1061924, 1062304, 1062629, 1062983, 1063354, 1063756, 1064132, 1064498, 1064903, 1065314, 1065738, 1066139, 1066553, 1066955, 1067383, 1067819, 1068240, 1068667, 1069072, 1069501, 1069903, 1070362, 1070764, 1071196]","[221, 125, 183, 166, 11, 30, 94, 210, 98, 138, 85, 241, 81, 68, 144, 90, 165, 237, 14, 239, 248, 5, 2, 31]","[1061900, 1062260, 1062592, 1062949, 1063320, 1063721, 1064105, 1064471, 1064868, 1065288, 1065699, 1066105, 1066522, 1066925, 1067339, 1067762, 1068190, 1068611, 1068995, 1069450, 1069852, 1070313, 1070696, 1071148]","[1061702, 1062102, 1062501, 1062901, 1063301, 1063701, 1064101, 1064501, 1064860, 1065293, 1065702, 1066110, 1066529, 1066928, 1067334, 1067765, 1068189, 1068599, 1068992, 1069447, 1069849, 1070310, 1070687, 1071143]",80,EM,U,R,ITMSR,1.1,
2,400,trial,0,51,51,51,trial,"['S', 'S', 'S', 'S', 'S', 'S', 'S', 'C', 'C', 'C', 'C', 'C', 'C', 'C', 'C', 'C', 'C', 'C', 'C', 'C', 'C', 'C', 'C']","[1076872, 1077274, 1077695, 1078091, 1078510, 1078924, 1079318, 1079749, 1080167, 1080605, 1080997, 1081418, 1081853, 1082257, 1082676, 1083087, 1083512, 1083941, 1084370, 1084801, 1085239, 1085643, 1086046]","[1076959, 1077354, 1077741, 1078139, 1078562, 1078970, 1079377, 1079810, 1080214, 1080646, 1081064, 1081474, 1081920, 1082332, 1082735, 1083193, 1083593, 1084032, 1084448, 1084858, 1085284, 1085699, 1086102]","[214, 37, 183, 93, 117, 60, 113, 82, 90, 58, 106, 101, 156, 152, 85, 173, 128, 191, 177, 63, 125, 133, 143]","[1076899, 1077303, 1077712, 1078105, 1078523, 1078942, 1079344, 1079764, 1080182, 1080620, 1081022, 1081432, 1081871, 1082278, 1082691, 1083109, 1083532, 1083954, 1084393, 1084815, 1085248, 1085654, 1086058]","[1076530, 1076929, 1077329, 1077729, 1078129, 1078530, 1078930, 1079330, 1079769, 1080187, 1080625, 1081017, 1081438, 1081873, 1082277, 1082696, 1083107, 1083532, 1083961, 1084390, 1084821, 1085259, 1085663, 1086066]",80,EM,U,R,ITMSR,1.1,
5,600,trial,0,52,52,52,trial,"['S', 'S', 'S', 'S', 'S', 'S', 'S', 'S', 'C', 'C', 'C', 'C', 'C', 'C', 'C', 'C', 'C', 'C', 'C', 'C', 'C', 'C', 'C', 'C']","[1091726, 1092050, 1092689, 1093318, 1093934, 1094547, 1095145, 1095774, 1096321, 1096913, 1097534, 1098149, 1098769, 1099420, 1100016, 1100588, 1101186, 1101825, 1102416, 1103006, 1103598, 1104180, 1105246, 1105789]","[1091779, 1092109, 1092786, 1093450, 1093995, 1094588, 1095172, 1095816, 1096372, 1096966, 1097582, 1098186, 1098811, 1099487, 1100099, 1100668, 1101281, 1101908, 1102483, 1103092, 1103659, 1104284, 1105317, 1105930]","[204, 136, 71, 113, 17, 207, 59, 152, 161, 134, 175, 231, 56, 138, 123, 145, 133, 121, 172, 121, 142, 240, 52, 76]","[1091746, 1092076, 1092720, 1093340, 1093955, 1094555, 1095152, 1095787, 1096334, 1096933, 1097550, 1098164, 1098784, 1099443, 1100059, 1100627, 1101219, 1101859, 1102444, 1103035, 1103621, 1104257, 1105273, 1105816]","[1091586, 1092186, 1092786, 1093386, 1093986, 1094586, 1095186, 1095786, 1096341, 1096933, 1097554, 1098169, 1098789, 1099440, 1100036, 1100608, 1101206, 1101845, 1102436, 1103026, 1103618, 1104200, 1105266, 1105809]",80,EM,U,R,ITMSR,1.1,
1,600,trial,0,53,53,53,trial,"['S', 'S', 'S', 'S', 'S', 'S', 'S', 'S', 'C', 'C', 'C', 'C', 'C', 'C', 'C', 'C', 'C', 'C', 'C', 'C', 'C', 'C', 'C', 'C']","[1111585, 1111887, 1112495, 1113129, 1113739, 1114305, 1114930, 1115546, 1116113, 1116704, 1117314, 1117925, 1118501, 1119119, 1119742, 1120348, 1120915, 1121469, 1122071, 1122729, 1123247, 1123856, 1124450, 1125048]","[1111641, 1111977, 1112615, 1113221, 1113805, 1114380, 1114981, 1115611, 1116189, 1116794, 1117393, 1118016, 1118598, 1119207, 1119819, 1120450, 1121027, 1121573, 1122179, 1122848, 1123438, 1124002, 1124601, 1125221]","[82, 4, 60, 14, 223, 26, 221, 59, 65, 102, 92, 93, 84, 83, 79, 69, 50, 12, 46, 50, 84, 109, 112, 110]","[1111609, 1111919, 1112530, 1113163, 1113761, 1114329, 1114947, 1115566, 1116137, 1116733, 1117337, 1117948, 1118526, 1119140, 1119764, 1120369, 1120941, 1121494, 1122116, 1122754, 1123346, 1123939, 1124535, 1125131]","[1111419, 1112019, 1112620, 1113219, 1113819, 1114419, 1115019, 1115619, 1116133, 1116724, 1117334, 1117945, 1118521, 1119139, 1119762, 1120368, 1120935, 1121489, 1122092, 1122749, 1123267, 1123876, 1124470, 1125068]",80,EM,U,R,ITMSR,1.1,
4,600,trial,0,54,54,54,trial,"['S', 'S', 'S', 'S', 'S', 'S', 'S', 'S', 'C', 'C', 'C', 'C', 'C', 'C', 'C', 'C', 'C', 'C', 'C', 'C', 'C', 'C', 'C', 'C']","[1137035, 1137390, 1137980, 1138565, 1139166, 1139778, 1140381, 1141010, 1141594, 1142182, 1142837, 1143489, 1144105, 1144719, 1145321, 1145931, 1146556, 1147162, 1147782, 1148346, 1148974, 1149594, 1150219, 1150844]","[1137076, 1137457, 1138055, 1138636, 1139273, 1139878, 1140475, 1141100, 1141665, 1142238, 1142918, 1143568, 1144202, 1144850, 1145452, 1146040, 1146631, 1147224, 1147880, 1148476, 1149083, 1149709, 1150304, 1150955]","[239, 191, 16, 255, 28, 0, 41, 109, 110, 252, 52, 136, 37, 58, 65, 104, 86, 66, 23, 41, 47, 19, 61, 109]","[1137055, 1137417, 1138001, 1138588, 1139191, 1139799, 1140402, 1141036, 1141617, 1142202, 1142866, 1143524, 1144133, 1144747, 1145341, 1145951, 1146573, 1147179, 1147845, 1148366, 1149039, 1149616, 1150236, 1150867]","[1136850, 1137449, 1138050, 1138650, 1139250, 1139850, 1140450, 1141050, 1141614, 1142202, 1142857, 1143510, 1144125, 1144739, 1145341, 1145951, 1146576, 1147182, 1147802, 1148366, 1148994, 1149614, 1150239, 1150864]",80,EM,U,R,ITMSR,1.1,
2,600,trial,0,55,55,55,trial,"['S', 'S', 'S', 'S', 'S', 'S', 'S', 'S', 'C', 'C', 'C', 'C', 'C', 'C', 'C', 'C', 'C', 'C', 'C', 'C', 'C', 'C', 'C', 'C']","[1156648, 1157064, 1157622, 1158204, 1158818, 1159420, 1160034, 1160616, 1161231, 1161824, 1162396, 1163003, 1163577, 1164242, 1164809, 1165388, 1165968, 1166578, 1167195, 1167809, 1168332, 1168961, 1169584, 1170196]","[1156697, 1157120, 1157665, 1158248, 1158886, 1159497, 1160094, 1160685, 1161328, 1161940, 1162477, 1163061, 1163626, 1164318, 1164900, 1165468, 1166088, 1166684, 1167283, 1167888, 1168443, 1169083, 1169676, 1170293]","[191, 134, 155, 237, 151, 219, 206, 238, 239, 3, 194, 2, 183, 232, 217, 8, 41, 41, 124, 252, 44, 232, 236, 220]","[1156674, 1157089, 1157639, 1158219, 1158840, 1159443, 1160053, 1160637, 1161251, 1161847, 1162425, 1163026, 1163594, 1164270, 1164829, 1165410, 1165990, 1166598, 1167212, 1167830, 1168356, 1169037, 1169604, 1170216]","[1156492, 1157092, 1157692, 1158292, 1158892, 1159492, 1160092, 1160692, 1161251, 1161844, 1162416, 1163023, 1163597, 1164262, 1164829, 1165408, 1165988, 1166598, 1167215, 1167830, 1168352, 1168982, 1169604, 1170216]",80,EM,U,R,ITMSR,1.1,
1,600,trial,0,56,56,56,trial,"['S', 'S', 'S', 'S', 'S', 'S', 'S', 'S', 'C', 'C', 'C', 'C', 'C', 'C', 'C', 'C', 'C', 'C', 'C', 'C', 'C', 'C', 'C', 'C']","[1175698, 1176086, 1176639, 1177297, 1177920, 1178512, 1179121, 1179684, 1180258, 1180827, 1181470, 1182096, 1182675, 1183299, 1183885, 1184494, 1185075, 1185693, 1186312, 1186873, 1187459, 1188056, 1188647, 1189215]","[1175760, 1176163, 1176712, 1177354, 1177976, 1178559, 1179186, 1179755, 1180362, 1180913, 1181544, 1182173, 1182758, 1183392, 1183973, 1184572, 1185152, 1185734, 1186393, 1186962, 1187544, 1188161, 1188742, 1189344]","[56, 125, 228, 153, 132, 179, 34, 45, 74, 46, 11, 246, 12, 248, 163, 141, 134, 198, 170, 236, 242, 219, 30, 50]","[1175733, 1176118, 1176663, 1177318, 1177940, 1178528, 1179139, 1179704, 1180280, 1180847, 1181487, 1182116, 1182695, 1183314, 1183905, 1184516, 1185092, 1185707, 1186328, 1186893, 1187473, 1188076, 1188663, 1189231]","[1175550, 1176151, 1176750, 1177350, 1177950, 1178550, 1179150, 1179750, 1180278, 1180847, 1181490, 1182116, 1182695, 1183320, 1183905, 1184514, 1185095, 1185713, 1186332, 1186893, 1187479, 1188076, 1188667, 1189235]",80,EM,U,R,ITMSR,1.1,
0,600,trial,0,57,57,57,trial,"['S', 'S', 'S', 'S', 'S', 'S', 'S', 'C', 'C', 'C', 'C', 'C', 'C', 'C', 'C', 'C', 'C', 'C', 'C', 'C', 'C', 'C', 'C']","[1195538, 1196161, 1196769, 1197349, 1197949, 1198529, 1199137, 1199691, 1200312, 1200971, 1201596, 1202167, 1202736, 1203356, 1203970, 1204628, 1205210, 1205823, 1206417, 1206956, 1207560, 1208208, 1208793]","[1195601, 1196214, 1196830, 1197431, 1198040, 1198583, 1199196, 1199775, 1200386, 1201019, 1201636, 1202207, 1202792, 1203395, 1204016, 1204690, 1205260, 1205882, 1206489, 1207042, 1207657, 1208248, 1208867]","[31, 27, 54, 98, 66, 25, 71, 97, 83, 11, 163, 240, 27, 198, 247, 183, 209, 31, 249, 183, 255, 201, 165]","[1195560, 1196180, 1196787, 1197370, 1197967, 1198542, 1199154, 1199708, 1200327, 1200988, 1201608, 1202181, 1202753, 1203371, 1203986, 1204652, 1205227, 1205840, 1206437, 1206972, 1207582, 1208225, 1208813]","[1194992, 1195592, 1196192, 1196792, 1197392, 1197992, 1198593, 1199192, 1199711, 1200332, 1200991, 1201616, 1202187, 1202756, 1203376, 1203990, 1204648, 1205230, 1205843, 1206437, 1206976, 1207580, 1208228, 1208813]",80,EM,U,R,ITMSR,1.1,
0,400,trial,0,58,58,58,trial,"['S', 'S', 'S', 'S', 'S', 'S', 'S', 'S', 'C', 'C', 'C', 'C', 'C', 'C', 'C', 'C', 'C', 'C', 'C', 'C', 'C', 'C', 'C', 'C']","[1214623, 1215047, 1215309, 1215638, 1216050, 1216428, 1216827, 1217221, 1217617, 1218008, 1218421, 1218850, 1219246, 1219659, 1220038, 1220417, 1220860, 1221257, 1221650, 1222073, 1222456, 1222856, 1223255, 1223660]","[1214697, 1215104, 1215363, 1215706, 1216119, 1216481, 1216868, 1217265, 1217670, 1218060, 1218471, 1218899, 1219284, 1219704, 1220102, 1220478, 1220904, 1221308, 1221698, 1222114, 1222515, 1222912, 1223307, 1223703]","[53, 222, 30, 8, 24, 24, 208, 35, 41, 68, 47, 206, 252, 245, 21, 44, 0, 84, 65, 232, 59, 87, 97, 81]","[1214660, 1215071, 1215329, 1215660, 1216072, 1216445, 1216842, 1217239, 1217635, 1218024, 1218438, 1218867, 1219260, 1219675, 1220058, 1220434, 1220877, 1221270, 1221665, 1222085, 1222472, 1222873, 1223269, 1223673]","[1214468, 1214868, 1215268, 1215668, 1216068, 1216468, 1216868, 1217268, 1217637, 1218028, 1218441, 1218870, 1219266, 1219679, 1220058, 1220438, 1220880, 1221277, 1221670, 1222093, 1222476, 1222876, 1223275, 1223681]",80,EM,U,R,ITMSR,1.1,
2,600,trial,0,59,59,59,trial,"['S', 'S', 'S', 'S', 'S', 'S', 'S', 'S', 'C', 'C', 'C', 'C', 'C', 'C', 'C', 'C', 'C', 'C', 'C', 'C', 'C', 'C', 'C', 'C']","[1229128, 1229528, 1230166, 1230759, 1231352, 1231975, 1232561, 1233139, 1233714, 1234332, 1234959, 1235560, 1236136, 1236711, 1237303, 1237921, 1238524, 1239094, 1239651, 1240267, 1240860, 1241412, 1242045, 1242653]","[1229207, 1229635, 1230235, 1230815, 1231407, 1232002, 1232618, 1233241, 1233809, 1234393, 1235011, 1235610, 1236180, 1236754, 1237353, 1237993, 1238574, 1239193, 1239718, 1240355, 1240952, 1241523, 1242138, 1242757]","[47, 21, 50, 235, 171, 49, 19, 86, 113, 65, 42, 44, 194, 254, 41, 60, 44, 85, 87, 64, 35, 17, 61, 95]","[1229159, 1229554, 1230187, 1230779, 1231374, 1231986, 1232581, 1233158, 1233734, 1234355, 1234974, 1235580, 1236153, 1236726, 1237319, 1237941, 1238541, 1239114, 1239671, 1240288, 1240880, 1241438, 1242065, 1242673]","[1228994, 1229593, 1230193, 1230793, 1231393, 1231993, 1232593, 1233193, 1233734, 1234352, 1234979, 1235580, 1236156, 1236731, 1237323, 1237941, 1238544, 1239114, 1239671, 1240287, 1240880, 1241432, 1242065, 1242673]",80,EM,U,R,ITMSR,1.1,
1,400,trial,0,60,60,60,trial,"['S', 'S', 'S', 'S', 'S', 'S', 'S', 'C', 'C', 'C', 'C', 'C', 'C', 'C', 'C', 'C', 'C', 'C', 'C', 'C', 'C', 'C', 'C']","[1248797, 1249131, 1249520, 1249910, 1250325, 1250731, 1251123, 1251527, 1251942, 1252335, 1252761, 1253166, 1253557, 1253969, 1254367, 1254830, 1255243, 1255689, 1256064, 1256468, 1256891, 1257321, 1257715]","[1248835, 1249177, 1249562, 1249968, 1250387, 1250784, 1251182, 1251590, 1251992, 1252397, 1252809, 1253214, 1253620, 1254036, 1254443, 1254895, 1255312, 1255753, 1256134, 1256559, 1256962, 1257380, 1257767]","[138, 152, 95, 0, 236, 248, 246, 58, 35, 55, 9, 19, 69, 78, 82, 65, 63, 81, 91, 94, 94, 75, 57]","[1248818, 1249153, 1249538, 1249932, 1250350, 1250750, 1251143, 1251548, 1251959, 1252356, 1252782, 1253183, 1253577, 1253990, 1254387, 1254852, 1255265, 1255710, 1256085, 1256488, 1256909, 1257342, 1257732]","[1248358, 1248758, 1249158, 1249558, 1249958, 1250358, 1250758, 1251159, 1251547, 1251962, 1252355, 1252781, 1253186, 1253577, 1253989, 1254387, 1254850, 1255263, 1255709, 1256084, 1256488, 1256911, 1257341, 1257735]",80,EM,U,R,ITMSR,1.1,
4,400,trial,0,61,61,61,trial,"['S', 'S', 'S', 'S', 'S', 'S', 'S', 'C', 'C', 'C', 'C', 'C', 'C', 'C', 'C', 'C', 'C', 'C', 'C', 'C', 'C', 'C', 'C']","[1263488, 1263936, 1264335, 1264752, 1265163, 1265576, 1265976, 1266390, 1266821, 1267211, 1267646, 1268051, 1268436, 1268897, 1269288, 1269714, 1270135, 1270493, 1270899, 1271350, 1271784, 1272201, 1272611]","[1263539, 1263980, 1264393, 1264811, 1265222, 1265636, 1266037, 1266468, 1266891, 1267270, 1267696, 1268122, 1268521, 1268946, 1269359, 1269775, 1270215, 1270591, 1270966, 1271413, 1271841, 1272257, 1272655]","[197, 207, 30, 122, 188, 8, 30, 57, 36, 7, 8, 42, 44, 5, 67, 56, 41, 43, 44, 56, 14, 13, 7]","[1263514, 1263959, 1264362, 1264777, 1265184, 1265598, 1265996, 1266410, 1266841, 1267229, 1267662, 1268071, 1268460, 1268917, 1269312, 1269735, 1270158, 1270516, 1270921, 1271371, 1271801, 1272221, 1272627]","[1263216, 1263617, 1264016, 1264416, 1264816, 1265216, 1265616, 1266016, 1266410, 1266841, 1267231, 1267666, 1268071, 1268456, 1268917, 1269308, 1269734, 1270155, 1270513, 1270919, 1271370, 1271804, 1272221, 1272631]",80,EM,U,R,ITMSR,1.1,
2,400,trial,0,62,62,62,trial,"['S', 'S', 'S', 'S', 'S', 'S', 'S', 'S', 'C', 'C', 'C', 'C', 'C', 'C', 'C', 'C', 'C', 'C', 'C', 'C', 'C', 'C', 'C', 'C']","[1278153, 1278537, 1278900, 1279272, 1279677, 1280097, 1280477, 1280873, 1281274, 1281671, 1282077, 1282508, 1282906, 1283325, 1283712, 1284127, 1284536, 1284896, 1285355, 1285769, 1286158, 1286579, 1286994, 1287379]","[1278247, 1278612, 1278964, 1279340, 1279746, 1280154, 1280526, 1280920, 1281332, 1281723, 1282129, 1282561, 1282962, 1283388, 1283785, 1284194, 1284604, 1284986, 1285415, 1285823, 1286220, 1286649, 1287052, 1287437]","[137, 47, 47, 36, 28, 252, 6, 2, 13, 24, 36, 213, 242, 22, 254, 232, 29, 61, 214, 180, 33, 242, 247, 16]","[1278174, 1278563, 1278921, 1279295, 1279697, 1280116, 1280495, 1280892, 1281297, 1281687, 1282097, 1282528, 1282926, 1283347, 1283733, 1284150, 1284558, 1284921, 1285382, 1285790, 1286179, 1286600, 1287015, 1287399]","[1278090, 1278490, 1278891, 1279290, 1279690, 1280090, 1280490, 1280890, 1281294, 1281691, 1282097, 1282528, 1282926, 1283345, 1283732, 1284147, 1284556, 1284916, 1285376, 1285789, 1286178, 1286599, 1287014, 1287399]",80,EM,U,R,ITMSR,1.1,
4,600,trial,0,63,63,63,trial,"['S', 'S', 'S', 'S', 'S', 'S', 'S', 'C', 'C', 'C', 'C', 'C', 'C', 'C', 'C', 'C', 'C', 'C', 'C', 'C', 'C', 'C', 'C']","[1293456, 1294212, 1294824, 1295433, 1296068, 1296664, 1297289, 1297849, 1298435, 1299034, 1299586, 1300209, 1300803, 1301355, 1301926, 1302574, 1303185, 1303759, 1304346, 1304892, 1305475, 1306102, 1306711]","[1293570, 1294381, 1294925, 1295555, 1296144, 1296719, 1297349, 1297952, 1298516, 1299090, 1299688, 1300300, 1300931, 1301474, 1302034, 1302632, 1303264, 1303845, 1304448, 1305026, 1305581, 1306166, 1306806]","[98, 99, 50, 47, 235, 15, 6, 52, 18, 36, 42, 21, 63, 35, 2, 18, 219, 66, 85, 55, 45, 53, 86]","[1293497, 1294296, 1294845, 1295463, 1296091, 1296681, 1297306, 1297869, 1298452, 1299050, 1299609, 1300229, 1300826, 1301379, 1301943, 1302591, 1303212, 1303783, 1304369, 1304912, 1305491, 1306125, 1306728]","[1293119, 1293719, 1294319, 1294919, 1295519, 1296119, 1296719, 1297319, 1297869, 1298455, 1299054, 1299606, 1300229, 1300824, 1301376, 1301946, 1302594, 1303205, 1303779, 1304366, 1304912, 1305495, 1306122, 1306731]",80,EM,U,R,ITMSR,1.1,
2,400,trial,0,64,64,64,trial,"['S', 'S', 'S', 'S', 'S', 'S', 'S', 'S', 'C', 'C', 'C', 'C', 'C', 'C', 'C', 'C', 'C', 'C', 'C', 'C', 'C', 'C', 'C', 'C']","[1312272, 1312593, 1312922, 1313287, 1313671, 1314095, 1314472, 1314888, 1315297, 1315705, 1316141, 1316549, 1316968, 1317367, 1317785, 1318216, 1318641, 1319041, 1319459, 1319882, 1320300, 1320756, 1321152, 1321575]","[1312351, 1312669, 1312986, 1313352, 1313729, 1314139, 1314531, 1314931, 1315364, 1315761, 1316194, 1316609, 1317036, 1317437, 1317868, 1318281, 1318708, 1319105, 1319506, 1319956, 1320373, 1320809, 1321235, 1321655]","[198, 61, 82, 88, 72, 29, 65, 21, 40, 35, 45, 82, 71, 70, 82, 99, 96, 108, 63, 99, 93, 78, 95, 92]","[1312314, 1312620, 1312943, 1313308, 1313691, 1314111, 1314491, 1314904, 1315317, 1315725, 1316161, 1316572, 1316988, 1317389, 1317809, 1318238, 1318663, 1319061, 1319473, 1319903, 1320316, 1320772, 1321168, 1321590]","[1312115, 1312515, 1312915, 1313315, 1313715, 1314115, 1314515, 1314915, 1315317, 1315725, 1316161, 1316569, 1316988, 1317387, 1317805, 1318236, 1318661, 1319061, 1319479, 1319902, 1320321, 1320776, 1321172, 1321595]",80,EM,U,R,ITMSR,1.1,
0,600,trial,0,65,65,65,trial,"['S', 'S', 'S', 'S', 'S', 'S', 'S', 'S', 'C', 'C', 'C', 'C', 'C', 'C', 'C', 'C', 'C', 'C', 'C', 'C', 'C', 'C', 'C', 'C']","[1327171, 1327446, 1328095, 1328717, 1329350, 1329923, 1330506, 1331140, 1331727, 1332326, 1332948, 1333553, 1334159, 1334767, 1335334, 1335901, 1336457, 1337029, 1337634, 1338272, 1338867, 1339478, 1340056, 1340646]","[1327217, 1327592, 1328184, 1328797, 1329420, 1329996, 1330592, 1331222, 1331822, 1332417, 1333030, 1333641, 1334242, 1334850, 1335422, 1335983, 1336560, 1337168, 1337777, 1338374, 1338976, 1339554, 1340162, 1340756]","[196, 65, 55, 78, 73, 85, 99, 96, 104, 89, 65, 59, 47, 60, 77, 83, 87, 88, 99, 94, 113, 118, 96, 125]","[1327190, 1327471, 1328120, 1328735, 1329368, 1329941, 1330527, 1331162, 1331744, 1332340, 1332965, 1333567, 1334173, 1334782, 1335354, 1335918, 1336472, 1337044, 1337650, 1338292, 1338881, 1339494, 1340077, 1340662]","[1326984, 1327584, 1328184, 1328784, 1329384, 1329984, 1330584, 1331184, 1331747, 1332346, 1332968, 1333573, 1334179, 1334787, 1335354, 1335921, 1336477, 1337049, 1337654, 1338292, 1338887, 1339498, 1340077, 1340666]",80,EM,U,R,ITMSR,1.1,
1,400,trial,0,66,66,66,trial,"['S', 'S', 'S', 'S', 'S', 'S', 'S', 'S', 'C', 'C', 'C', 'C', 'C', 'C', 'C', 'C', 'C', 'C', 'C', 'C', 'C', 'C', 'C', 'C']","[1346216, 1346574, 1346900, 1347293, 1347708, 1348079, 1348473, 1348877, 1349287, 1349700, 1350095, 1350508, 1350925, 1351351, 1351771, 1352184, 1352572, 1353021, 1353420, 1353867, 1354274, 1354693, 1355074, 1355524]","[1346311, 1346664, 1346978, 1347360, 1347757, 1348128, 1348516, 1348930, 1349339, 1349760, 1350162, 1350583, 1351019, 1351439, 1351864, 1352288, 1352678, 1353090, 1353510, 1353932, 1354357, 1354785, 1355163, 1355612]","[4, 49, 74, 56, 244, 254, 238, 47, 42, 76, 84, 113, 109, 119, 132, 135, 124, 114, 115, 119, 122, 113, 116, 120]","[1346259, 1346601, 1346926, 1347315, 1347725, 1348098, 1348491, 1348896, 1349303, 1349720, 1350112, 1350524, 1350941, 1351371, 1351789, 1352204, 1352589, 1353036, 1353440, 1353879, 1354291, 1354705, 1355090, 1355541]","[1346096, 1346496, 1346896, 1347296, 1347696, 1348097, 1348496, 1348896, 1349307, 1349720, 1350115, 1350529, 1350945, 1351371, 1351791, 1352204, 1352592, 1353041, 1353440, 1353887, 1354294, 1354713, 1355095, 1355544]",80,EM,U,R,ITMSR,1.1,
5,600,trial,0,67,67,67,trial,"['B', 'S', 'S', 'S', 'S', 'S', 'S', 'S', 'C', 'C', 'C', 'C', 'C', 'C', 'C', 'C', 'C', 'C', 'C', 'C', 'C', 'C', 'C', 'C']","[1361087, 1361552, 1362220, 1362851, 1363458, 1364088, 1364689, 1365283, 1365812, 1366437, 1367044, 1367643, 1368249, 1368861, 1369461, 1370073, 1370685, 1371249, 1371906, 1372521, 1373060, 1373668, 1374343, 1374929]","[1361235, 1361644, 1362295, 1362898, 1363511, 1364143, 1364737, 1365325, 1365865, 1366507, 1367120, 1367724, 1368347, 1368975, 1369554, 1370155, 1370777, 1371369, 1372012, 1372615, 1373169, 1373762, 1374431, 1375060]","[162, 65, 4, 43, 170, 206, 235, 193, 157, 215, 174, 206, 217, 237, 245, 155, 186, 151, 172, 116, 140, 147, 136, 216]","[1361188, 1361575, 1362238, 1362869, 1363474, 1364108, 1364705, 1365299, 1365829, 1366462, 1367064, 1367665, 1368270, 1368940, 1369485, 1370099, 1370715, 1371272, 1371932, 1372549, 1373132, 1373693, 1374358, 1375014]","[1361098, 1361698, 1362298, 1362898, 1363499, 1364098, 1364698, 1365298, 1365832, 1366457, 1367064, 1367663, 1368269, 1368881, 1369481, 1370093, 1370705, 1371269, 1371926, 1372541, 1373080, 1373688, 1374363, 1374949]",80,EM,U,R,ITMSR,1.1,
3,600,trial,0,68,68,68,trial,"['S', 'S', 'S', 'S', 'S', 'S', 'S', 'S', 'C', 'C', 'C', 'C', 'C', 'C', 'C', 'C', 'C', 'C', 'C', 'C', 'C', 'C', 'C', 'C']","[1380689, 1381059, 1381673, 1382302, 1382877, 1383458, 1384037, 1384649, 1385267, 1385823, 1386470, 1387099, 1387714, 1388329, 1388945, 1389557, 1390145, 1390755, 1391339, 1391960, 1392557, 1393179, 1393780, 1394345]","[1380762, 1381142, 1381733, 1382337, 1382925, 1383501, 1384116, 1384702, 1385324, 1385914, 1386526, 1387167, 1387807, 1388420, 1389053, 1389674, 1390243, 1390852, 1391438, 1392068, 1392663, 1393288, 1393876, 1394484]","[23, 17, 78, 127, 23, 236, 84, 68, 89, 54, 69, 97, 82, 85, 90, 95, 107, 99, 14, 64, 53, 49, 93, 77]","[1380721, 1381088, 1381694, 1382318, 1382896, 1383475, 1384057, 1384668, 1385287, 1385843, 1386487, 1387120, 1387735, 1388349, 1388965, 1389578, 1390167, 1390777, 1391360, 1391981, 1392577, 1393203, 1393801, 1394430]","[1380548, 1381148, 1381748, 1382348, 1382948, 1383548, 1384148, 1384749, 1385287, 1385843, 1386490, 1387119, 1387735, 1388349, 1388965, 1389577, 1390166, 1390775, 1391360, 1391980, 1392577, 1393199, 1393800, 1394365]",80,EM,U,R,ITMSR,1.1,
4,400,trial,0,69,69,69,trial,"['S', 'S', 'S', 'S', 'S', 'S', 'S', 'S', 'C', 'C', 'C', 'C', 'C', 'C', 'C', 'C', 'C', 'C', 'C', 'C', 'C', 'C', 'C', 'C']","[1400274, 1400637, 1400930, 1401297, 1401702, 1402106, 1402501, 1402905, 1403321, 1403723, 1404507, 1404887, 1405314, 1405717, 1406110, 1406509, 1406911, 1407346, 1407753, 1408145, 1408583, 1408997, 1409397, 1409780]","[1400377, 1400700, 1400985, 1401349, 1401742, 1402149, 1402537, 1402931, 1403348, 1403755, 1404552, 1404960, 1405358, 1405776, 1406181, 1406588, 1406995, 1407406, 1407812, 1408201, 1408641, 1409053, 1409456, 1409867]","[52, 25, 49, 17, 147, 32, 50, 194, 151, 37, 229, 254, 251, 32, 63, 63, 58, 63, 63, 59, 41, 65, 80, 97]","[1400326, 1400664, 1400949, 1401316, 1401719, 1402124, 1402516, 1402918, 1403332, 1403738, 1404524, 1404907, 1405329, 1405734, 1406130, 1406529, 1406931, 1407367, 1407770, 1408160, 1408601, 1409017, 1409417, 1409802]","[1400130, 1400530, 1400930, 1401330, 1401730, 1402130, 1402530, 1402930, 1403341, 1403743, 1404527, 1404907, 1405334, 1405737, 1406130, 1406529, 1406931, 1407366, 1407773, 1408165, 1408603, 1409017, 1409417, 1409800]",80,EM,U,R,ITMSR,1.1,
3,400,trial,0,70,70,70,trial,"['S', 'S', 'S', 'S', 'S', 'S', 'S', 'C', 'C', 'C', 'C', 'C', 'C', 'C', 'C', 'C', 'C', 'C', 'C', 'C', 'C', 'C', 'C']","[1415746, 1416153, 1416560, 1416957, 1417366, 1417778, 1418181, 1418596, 1419010, 1419421, 1419832, 1420223, 1420648, 1421042, 1421461, 1421864, 1422272, 1422663, 1423074, 1423478, 1423891, 1424297, 1424712]","[1415793, 1416225, 1416634, 1417029, 1417436, 1417841, 1418241, 1418649, 1419068, 1419483, 1419889, 1420291, 1420706, 1421104, 1421531, 1421936, 1422352, 1422750, 1423170, 1423563, 1423970, 1424401, 1424800]","[194, 217, 202, 199, 177, 191, 194, 187, 23, 49, 25, 34, 34, 31, 68, 72, 82, 51, 84, 81, 78, 89, 102]","[1415764, 1416185, 1416593, 1416990, 1417393, 1417804, 1418206, 1418617, 1419033, 1419444, 1419849, 1420247, 1420668, 1421062, 1421484, 1421888, 1422295, 1422686, 1423102, 1423500, 1423911, 1424314, 1424736]","[1415421, 1415821, 1416221, 1416621, 1417021, 1417421, 1417821, 1418221, 1418616, 1419030, 1419441, 1419852, 1420243, 1420668, 1421062, 1421481, 1421884, 1422292, 1422683, 1423094, 1423498, 1423911, 1424317, 1424732]",80,EM,U,R,ITMSR,1.1,
5,600,trial,0,71,71,71,trial,"['S', 'S', 'S', 'S', 'S', 'S', 'S', 'S', 'C', 'C', 'C', 'C', 'C', 'C', 'C', 'C', 'C', 'C', 'C', 'C', 'C', 'C', 'C', 'C']","[1430507, 1430815, 1431470, 1432095, 1432721, 1433327, 1433936, 1434530, 1435118, 1435737, 1436379, 1437014, 1437633, 1438242, 1438825, 1439447, 1440089, 1440667, 1441270, 1441839, 1442447, 1443064, 1443678, 1444280]","[1430581, 1430896, 1431564, 1432190, 1432806, 1433415, 1434049, 1434655, 1435243, 1435850, 1436483, 1437117, 1437745, 1438355, 1438938, 1439554, 1440191, 1440800, 1441386, 1441974, 1442562, 1443154, 1443766, 1444396]","[5, 28, 88, 98, 83, 102, 106, 113, 132, 109, 97, 120, 116, 112, 103, 122, 107, 90, 47, 56, 81, 61, 68, 75]","[1430538, 1430840, 1431492, 1432119, 1432738, 1433349, 1433958, 1434551, 1435140, 1435758, 1436400, 1437034, 1437656, 1438264, 1438842, 1439469, 1440109, 1440747, 1441341, 1441859, 1442468, 1443084, 1443698, 1444297]","[1430370, 1430970, 1431570, 1432170, 1432770, 1433370, 1433970, 1434570, 1435138, 1435757, 1436399, 1437034, 1437654, 1438262, 1438845, 1439467, 1440109, 1440687, 1441290, 1441859, 1442467, 1443084, 1443698, 1444300]",80,EM,U,R,ITMSR,1.1,
0,400,trial,0,72,72,72,trial,"['B', 'S', 'S', 'S', 'S', 'S', 'S', 'S', 'C', 'C', 'C', 'C', 'C', 'C', 'C', 'C', 'C', 'C', 'C', 'C', 'C', 'C', 'C', 'C']","[1449996, 1450474, 1450842, 1451197, 1451613, 1452020, 1452409, 1452814, 1453202, 1453605, 1454023, 1454445, 1454843, 1455264, 1455683, 1456084, 1456485, 1456921, 1457346, 1457755, 1458144, 1458575, 1459001, 1459394]","[1450073, 1450592, 1450921, 1451267, 1451676, 1452079, 1452461, 1452866, 1453258, 1453657, 1454074, 1454492, 1454908, 1455323, 1455744, 1456133, 1456553, 1456999, 1457400, 1457814, 1458212, 1458657, 1459077, 1459489]","[4, 74, 77, 97, 105, 69, 249, 44, 56, 59, 42, 46, 100, 90, 62, 55, 90, 97, 76, 63, 84, 104, 93, 85]","[1449996, 1450514, 1450864, 1451215, 1451629, 1452035, 1452426, 1452828, 1453216, 1453620, 1454038, 1454458, 1454857, 1455280, 1455695, 1456097, 1456497, 1456935, 1457359, 1457768, 1458157, 1458589, 1459017, 1459411]","[1450009, 1450408, 1450808, 1451208, 1451608, 1452008, 1452408, 1452808, 1453222, 1453625, 1454043, 1454466, 1454863, 1455284, 1455704, 1456104, 1456505, 1456941, 1457367, 1457775, 1458164, 1458595, 1459021, 1459415]",80,EM,U,R,ITMSR,1.1,
3,600,trial,0,73,73,73,trial,"['S', 'S', 'S', 'S', 'S', 'S', 'S', 'S', 'C', 'C', 'C', 'C', 'C', 'C', 'C', 'C', 'C', 'C', 'C', 'C', 'C', 'C', 'C', 'C']","[1465278, 1465597, 1466246, 1466911, 1467494, 1468089, 1468684, 1469336, 1469940, 1470558, 1471156, 1471775, 1472402, 1472974, 1473531, 1474160, 1474751, 1475351, 1475963, 1476588, 1477145, 1477715, 1478370, 1478978]","[1465312, 1465699, 1466327, 1466932, 1467529, 1468142, 1468736, 1469390, 1469985, 1470610, 1471212, 1471819, 1472432, 1473042, 1473622, 1474236, 1474832, 1475407, 1476002, 1476630, 1477197, 1477793, 1478416, 1479027]","[145, 91, 193, 16, 85, 191, 190, 244, 7, 212, 166, 129, 68, 228, 44, 66, 207, 149, 215, 115, 224, 249, 18, 36]","[1465299, 1465630, 1466268, 1466921, 1467510, 1468110, 1468702, 1469353, 1469955, 1470574, 1471173, 1471795, 1472411, 1473004, 1473556, 1474181, 1474771, 1475372, 1475979, 1476603, 1477161, 1477737, 1478385, 1478991]","[1465148, 1465748, 1466348, 1466948, 1467548, 1468148, 1468748, 1469348, 1469960, 1470578, 1471176, 1471795, 1472422, 1472994, 1473551, 1474180, 1474771, 1475372, 1475983, 1476609, 1477165, 1477735, 1478390, 1478999]",80,EM,U,R,ITMSR,1.1,
1,600,trial,0,74,74,74,trial,"['S', 'S', 'S', 'S', 'S', 'S', 'S', 'S', 'C', 'C', 'C', 'C', 'C', 'C', 'C', 'C', 'C', 'C', 'C', 'C', 'C', 'C', 'C', 'C']","[1484482, 1484955, 1485580, 1486162, 1486757, 1487365, 1487947, 1488558, 1489128, 1489736, 1490377, 1490991, 1491592, 1492204, 1492784, 1493390, 1493989, 1494630, 1495216, 1495804, 1496521, 1497055, 1497665, 1498275]","[1484577, 1485060, 1485628, 1486204, 1486785, 1487398, 1487989, 1488594, 1489184, 1489784, 1490411, 1491028, 1491634, 1492262, 1492836, 1493428, 1494016, 1494682, 1495255, 1495871, 1496553, 1497153, 1497739, 1498388]","[177, 219, 0, 247, 62, 192, 6, 202, 42, 70, 244, 12, 13, 236, 16, 176, 82, 0, 157, 17, 14, 54, 80, 115]","[1484517, 1484986, 1485594, 1486178, 1486770, 1487378, 1487962, 1488570, 1489143, 1489752, 1490391, 1491005, 1491607, 1492221, 1492799, 1493405, 1494000, 1494647, 1495232, 1495821, 1496537, 1497075, 1497686, 1498291]","[1484440, 1485040, 1485640, 1486240, 1486840, 1487440, 1488040, 1488641, 1489148, 1489756, 1490397, 1491011, 1491612, 1492225, 1492804, 1493410, 1494009, 1494650, 1495236, 1495824, 1496541, 1497075, 1497686, 1498295]",80,EM,U,R,ITMSR,1.1,
5,400,trial,0,75,75,75,trial,"['S', 'S', 'S', 'S', 'S', 'S', 'S', 'C', 'C', 'C', 'C', 'C', 'C', 'C', 'C', 'C', 'C', 'C', 'C', 'C', 'C', 'C', 'C']","[1504204, 1504675, 1505074, 1505511, 1505949, 1506384, 1506771, 1507188, 1507585, 1508013, 1508425, 1508854, 1509250, 1509669, 1510098, 1510504, 1510955, 1511385, 1511815, 1512224, 1512640, 1513025, 1513461]","[1504275, 1504723, 1505122, 1505570, 1505989, 1506427, 1506830, 1507244, 1507642, 1508057, 1508484, 1508890, 1509295, 1509719, 1510155, 1510560, 1511026, 1511443, 1511864, 1512274, 1512700, 1513075, 1513506]","[45, 81, 150, 244, 128, 93, 16, 16, 250, 226, 22, 203, 15, 46, 21, 14, 64, 230, 12, 27, 55, 59, 21]","[1504237, 1504695, 1505089, 1505532, 1505968, 1506403, 1506794, 1507211, 1507605, 1508028, 1508446, 1508869, 1509263, 1509684, 1510115, 1510519, 1510975, 1511402, 1511830, 1512244, 1512653, 1513039, 1513475]","[1504015, 1504415, 1504815, 1505215, 1505615, 1506015, 1506415, 1506816, 1507208, 1507605, 1508033, 1508445, 1508874, 1509270, 1509689, 1510118, 1510524, 1510975, 1511405, 1511835, 1512244, 1512660, 1513046, 1513481]",80,EM,U,R,ITMSR,1.1,
5,400,trial,0,76,76,76,trial,"['S', 'S', 'S', 'S', 'S', 'S', 'S', 'S', 'C', 'C', 'C', 'C', 'C', 'C', 'C', 'C', 'C', 'C', 'C', 'C', 'C', 'C', 'C', 'C']","[1519224, 1519525, 1519886, 1520286, 1520683, 1521089, 1521499, 1521880, 1522283, 1522699, 1523100, 1523514, 1523916, 1524345, 1524741, 1525183, 1525561, 1525990, 1526435, 1526803, 1527239, 1527618, 1528027, 1528435]","[1519290, 1519594, 1519935, 1520319, 1520722, 1521132, 1521538, 1521927, 1522335, 1522749, 1523150, 1523560, 1523977, 1524401, 1524812, 1525233, 1525642, 1526069, 1526502, 1526890, 1527307, 1527693, 1528091, 1528495]","[207, 126, 204, 59, 154, 224, 130, 6, 251, 244, 17, 253, 232, 238, 16, 0, 14, 41, 32, 41, 48, 26, 29, 43]","[1519257, 1519557, 1519902, 1520299, 1520699, 1521104, 1521516, 1521899, 1522305, 1522721, 1523123, 1523531, 1523933, 1524365, 1524764, 1525200, 1525585, 1526010, 1526456, 1526827, 1527259, 1527639, 1528045, 1528452]","[1519073, 1519473, 1519874, 1520274, 1520674, 1521074, 1521474, 1521874, 1522304, 1522719, 1523120, 1523534, 1523936, 1524365, 1524761, 1525203, 1525581, 1526010, 1526455, 1526823, 1527259, 1527639, 1528047, 1528455]",80,EM,U,R,ITMSR,1.1,
3,400,trial,0,77,77,77,trial,"['S', 'S', 'S', 'S', 'S', 'S', 'S', 'S', 'C', 'C', 'C', 'C', 'C', 'C', 'C', 'C', 'C', 'C', 'C', 'C', 'C', 'C', 'C', 'C']","[1534368, 1534652, 1535014, 1535397, 1535821, 1536179, 1536574, 1536971, 1537340, 1537747, 1538159, 1538561, 1538945, 1539375, 1539784, 1540205, 1540580, 1541014, 1541403, 1541824, 1542218, 1542643, 1543024, 1543457]","[1534442, 1534734, 1535076, 1535443, 1535863, 1536224, 1536628, 1537012, 1537402, 1537785, 1538194, 1538599, 1538982, 1539416, 1539820, 1540252, 1540640, 1541058, 1541450, 1541871, 1542264, 1542679, 1543062, 1543489]","[202, 45, 37, 201, 230, 239, 61, 6, 63, 190, 58, 223, 193, 214, 130, 25, 52, 237, 26, 52, 48, 218, 233, 249]","[1534404, 1534682, 1535036, 1535415, 1535839, 1536195, 1536592, 1536988, 1537360, 1537764, 1538173, 1538577, 1538961, 1539392, 1539798, 1540222, 1540597, 1541031, 1541423, 1541840, 1542235, 1542657, 1543037, 1543469]","[1534211, 1534611, 1535011, 1535411, 1535811, 1536211, 1536611, 1537011, 1537360, 1537767, 1538179, 1538581, 1538965, 1539395, 1539804, 1540226, 1540600, 1541035, 1541423, 1541844, 1542238, 1542663, 1543044, 1543477]",80,EM,U,R,ITMSR,1.1,
1,400,trial,0,78,78,78,trial,"['S', 'S', 'S', 'S', 'S', 'S', 'S', 'S', 'C', 'C', 'C', 'C', 'C', 'C', 'C', 'C', 'C', 'C', 'C', 'C', 'C', 'C', 'C', 'C']","[1554443, 1554720, 1555081, 1555472, 1555866, 1556275, 1556669, 1557091, 1557482, 1557878, 1558300, 1558711, 1559145, 1559539, 1559981, 1560381, 1560769, 1561192, 1561614, 1562047, 1562438, 1562848, 1563284, 1563697]","[1554532, 1554790, 1555156, 1555524, 1555924, 1556326, 1556723, 1557146, 1557548, 1557927, 1558352, 1558763, 1559190, 1559596, 1560037, 1560449, 1560833, 1561248, 1561661, 1562094, 1562482, 1562915, 1563343, 1563756]","[146, 178, 5, 172, 128, 119, 199, 147, 221, 191, 249, 4, 232, 23, 47, 72, 88, 57, 36, 55, 82, 92, 101, 94]","[1554473, 1554746, 1555110, 1555492, 1555893, 1556298, 1556695, 1557111, 1557507, 1557898, 1558317, 1558722, 1559160, 1559556, 1559996, 1560398, 1560784, 1561208, 1561629, 1562062, 1562454, 1562863, 1563300, 1563714]","[1554275, 1554675, 1555075, 1555475, 1555875, 1556275, 1556675, 1557075, 1557502, 1557898, 1558320, 1558731, 1559165, 1559559, 1560001, 1560401, 1560790, 1561212, 1561634, 1562067, 1562458, 1562868, 1563304, 1563717]",80,EM,U,R,ITMSR,1.1,
0,400,trial,0,79,79,79,trial,"['S', 'S', 'S', 'S', 'S', 'S', 'S', 'S', 'C', 'C', 'C', 'C', 'C', 'C', 'C', 'C', 'C', 'C', 'C', 'C', 'C', 'C', 'C', 'C']","[1569654, 1569902, 1570280, 1570681, 1571077, 1571507, 1571906, 1572289, 1572664, 1573070, 1573505, 1573924, 1574301, 1574700, 1575144, 1575540, 1575923, 1576370, 1576745, 1577177, 1577564, 1577982, 1578427, 1578845]","[1569716, 1569956, 1570331, 1570727, 1571129, 1571552, 1571949, 1572334, 1572720, 1573121, 1573556, 1573978, 1574366, 1574762, 1575191, 1575592, 1576004, 1576426, 1576809, 1577223, 1577622, 1578034, 1578468, 1578901]","[6, 20, 2, 213, 250, 212, 201, 24, 44, 46, 39, 245, 92, 76, 56, 103, 9, 72, 82, 89, 91, 79, 35, 66]","[1569675, 1569923, 1570298, 1570699, 1571093, 1571523, 1571920, 1572303, 1572675, 1573083, 1573521, 1573941, 1574321, 1574720, 1575160, 1575560, 1575943, 1576387, 1576765, 1577189, 1577581, 1577998, 1578441, 1578860]","[1569502, 1569902, 1570302, 1570702, 1571102, 1571502, 1571902, 1572302, 1572684, 1573090, 1573525, 1573944, 1574321, 1574720, 1575164, 1575560, 1575943, 1576390, 1576765, 1577197, 1577584, 1578002, 1578447, 1578865]",80,EM,U,R,ITMSR,1.1,
2,600,trial,0,80,80,80,trial,"['S', 'S', 'S', 'S', 'S', 'S', 'S', 'S', 'C', 'C', 'C', 'C', 'C', 'C', 'C', 'C', 'C', 'C', 'C', 'C', 'C', 'C', 'C', 'C']","[1584365, 1584617, 1585276, 1585918, 1586509, 1587130, 1587722, 1588328, 1588912, 1589475, 1590067, 1590671, 1591320, 1591922, 1592528, 1593139, 1593722, 1594309, 1594943, 1595594, 1596174, 1596755, 1597344, 1597930]","[1584452, 1584694, 1585351, 1585968, 1586553, 1587170, 1587762, 1588380, 1588959, 1589558, 1590128, 1590724, 1591368, 1591981, 1592596, 1593210, 1593789, 1594374, 1595002, 1595648, 1596230, 1596809, 1597378, 1597966]","[209, 45, 84, 35, 38, 239, 27, 77, 71, 163, 63, 71, 90, 68, 45, 29, 246, 251, 65, 92, 93, 69, 253, 52]","[1584409, 1584643, 1585298, 1585937, 1586526, 1587144, 1587733, 1588343, 1588926, 1589490, 1590083, 1590685, 1591333, 1591937, 1592544, 1593151, 1593737, 1594322, 1594956, 1595611, 1596188, 1596772, 1597357, 1597943]","[1584222, 1584822, 1585422, 1586022, 1586622, 1587222, 1587822, 1588422, 1588932, 1589495, 1590087, 1590691, 1591341, 1591942, 1592548, 1593159, 1593742, 1594329, 1594963, 1595614, 1596194, 1596775, 1597364, 1597950]",80,EM,U,R,ITMSR,1.1,
1,400,trial,0,81,81,81,trial,"['S', 'S', 'S', 'S', 'S', 'S', 'S', 'C', 'C', 'C', 'C', 'C', 'C', 'C', 'C', 'C', 'C', 'C', 'C', 'C', 'C', 'C', 'C']","[1603495, 1603901, 1604350, 1604765, 1605193, 1605616, 1606020, 1606443, 1606820, 1607241, 1607655, 1608078, 1608489, 1608889, 1609299, 1609711, 1610130, 1610536, 1610942, 1611380, 1611794, 1612193, 1612602]","[1603545, 1603968, 1604391, 1604806, 1605233, 1605661, 1606062, 1606478, 1606864, 1607282, 1607693, 1608121, 1608528, 1608926, 1609335, 1609748, 1610174, 1610583, 1610991, 1611430, 1611852, 1612247, 1612656]","[186, 222, 148, 175, 164, 239, 249, 188, 239, 209, 31, 51, 253, 30, 23, 41, 81, 91, 110, 120, 129, 121, 125]","[1603517, 1603924, 1604366, 1604782, 1605210, 1605630, 1606034, 1606458, 1606836, 1607257, 1607668, 1608092, 1608504, 1608900, 1609312, 1609723, 1610143, 1610551, 1610956, 1611393, 1611810, 1612208, 1612616]","[1603278, 1603678, 1604078, 1604478, 1604878, 1605278, 1605678, 1606078, 1606463, 1606840, 1607261, 1607675, 1608098, 1608509, 1608909, 1609319, 1609731, 1610150, 1610556, 1610962, 1611400, 1611814, 1612213, 1612622]",80,EM,U,R,ITMSR,1.1,
1,600,trial,0,82,82,82,trial,"['B', 'S', 'S', 'S', 'S', 'S', 'S', 'S', 'C', 'C', 'C', 'C', 'C', 'C', 'C', 'C', 'C', 'C', 'C', 'C', 'C', 'C', 'C', 'C']","[1617960, 1618404, 1619072, 1619689, 1620317, 1620938, 1621530, 1622128, 1622733, 1623371, 1623983, 1624578, 1625207, 1625823, 1626421, 1627024, 1627602, 1628196, 1628858, 1629457, 1630040, 1630646, 1631250, 1631837]","[1618096, 1618493, 1619146, 1619773, 1620428, 1621038, 1621625, 1622196, 1622791, 1623417, 1624031, 1624638, 1625271, 1625897, 1626488, 1627108, 1627698, 1628276, 1628940, 1629533, 1630108, 1630702, 1631309, 1631917]","[22, 45, 78, 81, 116, 114, 134, 115, 122, 111, 120, 129, 133, 140, 128, 140, 148, 149, 150, 145, 151, 136, 138, 145]","[1618037, 1618428, 1619090, 1619705, 1620336, 1620955, 1621549, 1622147, 1622749, 1623387, 1623994, 1624595, 1625224, 1625839, 1626436, 1627042, 1627619, 1628212, 1628874, 1629472, 1630056, 1630659, 1631265, 1631853]","[1617972, 1618572, 1619172, 1619772, 1620372, 1620972, 1621572, 1622172, 1622753, 1623391, 1624003, 1624598, 1625227, 1625843, 1626441, 1627044, 1627622, 1628216, 1628878, 1629477, 1630060, 1630666, 1631270, 1631857]",80,EM,U,R,ITMSR,1.1,
2,400,trial,0,83,83,83,trial,"['S', 'S', 'S', 'S', 'S', 'S', 'S', 'S', 'C', 'C', 'C', 'C', 'C', 'C', 'C', 'C', 'C', 'C', 'C', 'C', 'C', 'C', 'C', 'C']","[1637571, 1637829, 1638141, 1638561, 1638964, 1639348, 1639769, 1640165, 1640585, 1640993, 1641384, 1641803, 1642238, 1642642, 1643054, 1643455, 1643892, 1644303, 1644674, 1645114, 1645555, 1645956, 1646396, 1646789]","[1637619, 1637896, 1638211, 1638626, 1639011, 1639405, 1639834, 1640235, 1640668, 1641058, 1641442, 1641885, 1642309, 1642721, 1643132, 1643542, 1643974, 1644392, 1644785, 1645216, 1645637, 1646036, 1646459, 1646865]","[126, 53, 180, 182, 69, 134, 33, 22, 11, 2, 21, 17, 50, 69, 82, 81, 112, 99, 125, 113, 128, 130, 122, 119]","[1637594, 1637847, 1638176, 1638589, 1638978, 1639372, 1639791, 1640188, 1640605, 1641015, 1641407, 1641826, 1642260, 1642662, 1643075, 1643471, 1643914, 1644321, 1644691, 1645130, 1645571, 1645969, 1646410, 1646804]","[1637398, 1637798, 1638198, 1638598, 1638999, 1639398, 1639798, 1640198, 1640605, 1641013, 1641404, 1641823, 1642258, 1642662, 1643074, 1643475, 1643912, 1644323, 1644694, 1645134, 1645575, 1645976, 1646416, 1646809]",80,EM,U,R,ITMSR,1.1,
5,600,trial,0,84,84,84,trial,"['B', 'S', 'S', 'S', 'S', 'S', 'S', 'S', 'C', 'C', 'C', 'C', 'C', 'C', 'C', 'C', 'C', 'C', 'C', 'C', 'C', 'C', 'C', 'C']","[1652293, 1652779, 1653429, 1654055, 1654645, 1655257, 1655868, 1656494, 1657108, 1657725, 1658363, 1658971, 1659575, 1660179, 1660797, 1661405, 1662008, 1662629, 1663208, 1663822, 1664404, 1665011, 1665615, 1666232]","[1652429, 1652859, 1653488, 1654120, 1654753, 1655376, 1656011, 1656619, 1657237, 1657848, 1658438, 1659097, 1659695, 1660351, 1660903, 1661508, 1662104, 1662779, 1663381, 1663961, 1664566, 1665289, 1665861, 1666410]","[23, 80, 112, 118, 132, 143, 152, 151, 149, 147, 148, 151, 131, 114, 92, 95, 87, 86, 47, 75, 87, 117, 90, 119]","[1652380, 1652797, 1653442, 1654069, 1654662, 1655274, 1655884, 1656514, 1657122, 1657742, 1658380, 1658987, 1659591, 1660196, 1660817, 1661425, 1662025, 1662649, 1663223, 1663844, 1664487, 1665180, 1665637, 1666312]","[1652305, 1652904, 1653505, 1654104, 1654704, 1655304, 1655904, 1656504, 1657128, 1657745, 1658383, 1658991, 1659595, 1660199, 1660817, 1661425, 1662028, 1662649, 1663228, 1663842, 1664424, 1665031, 1665635, 1666252]",80,EM,U,R,ITMSR,1.1,
5,400,trial,0,85,85,85,trial,"['S', 'S', 'S', 'S', 'S', 'S', 'S', 'C', 'C', 'C', 'C', 'C', 'C', 'C', 'C', 'C', 'C', 'C', 'C', 'C', 'C', 'C', 'C']","[1671924, 1672338, 1672772, 1673220, 1673623, 1674043, 1674436, 1674860, 1675267, 1675679, 1676111, 1676553, 1676953, 1677369, 1677796, 1678236, 1678679, 1679106, 1679551, 1679940, 1680342, 1680775, 1681226]","[1671983, 1672402, 1672851, 1673312, 1673713, 1674113, 1674516, 1674941, 1675377, 1675781, 1676205, 1676660, 1677071, 1677488, 1677918, 1678365, 1678818, 1679250, 1679680, 1680053, 1680491, 1680913, 1681357]","[47, 90, 105, 116, 123, 118, 122, 116, 128, 123, 126, 124, 125, 110, 127, 123, 129, 129, 139, 126, 151, 112, 132]","[1671943, 1672356, 1672791, 1673237, 1673641, 1674059, 1674454, 1674877, 1675288, 1675700, 1676127, 1676568, 1676969, 1677385, 1677816, 1678253, 1678699, 1679126, 1679568, 1679955, 1680421, 1680787, 1681247]","[1671641, 1672041, 1672441, 1672841, 1673241, 1673641, 1674041, 1674441, 1674881, 1675287, 1675699, 1676131, 1676573, 1676973, 1677389, 1677816, 1678256, 1678699, 1679126, 1679571, 1679960, 1680362, 1680795, 1681246]",80,EM,U,R,ITMSR,1.1,
0,600,trial,0,86,86,86,trial,"['S', 'S', 'S', 'S', 'S', 'S', 'S', 'S', 'C', 'C', 'C', 'C', 'C', 'C', 'C', 'C', 'C', 'C', 'C', 'C', 'C', 'C', 'C', 'C']","[1686723, 1686984, 1687641, 1688275, 1688851, 1689458, 1690060, 1690677, 1691240, 1691808, 1692435, 1693079, 1693717, 1694311, 1694893, 1695523, 1696177, 1696793, 1697372, 1697968, 1698549, 1699168, 1699789, 1700465]","[1686801, 1687101, 1687791, 1688484, 1689048, 1689658, 1690283, 1690832, 1691465, 1692107, 1692698, 1693236, 1693899, 1694574, 1695092, 1695637, 1696312, 1697022, 1697556, 1698131, 1698710, 1699443, 1699921, 1700664]","[68, 80, 102, 110, 123, 102, 119, 84, 120, 145, 112, 98, 96, 145, 85, 58, 100, 138, 76, 124, 85, 152, 99, 129]","[1686743, 1687005, 1687661, 1688380, 1688937, 1689539, 1690201, 1690763, 1691375, 1691958, 1692611, 1693095, 1693815, 1694499, 1695003, 1695543, 1696192, 1696948, 1697456, 1698059, 1698630, 1699356, 1699858, 1700550]","[1686545, 1687144, 1687744, 1688344, 1688944, 1689544, 1690144, 1690744, 1691260, 1691828, 1692455, 1693100, 1693737, 1694331, 1694913, 1695543, 1696197, 1696813, 1697392, 1697988, 1698569, 1699188, 1699809, 1700485]",80,EM,U,R,ITMSR,1.1,
5,400,trial,0,87,87,87,trial,"['S', 'S', 'S', 'S', 'S', 'S', 'S', 'S', 'C', 'C', 'C', 'C', 'C', 'C', 'C', 'C', 'C', 'C', 'C', 'C', 'C', 'C', 'C', 'C']","[1706392, 1706681, 1707016, 1707436, 1707842, 1708233, 1708637, 1709042, 1709443, 1709847, 1710285, 1710711, 1711098, 1711541, 1711966, 1712396, 1712824, 1713253, 1713680, 1714087, 1714501, 1714906, 1715238, 1715732]","[1706436, 1706756, 1707080, 1707499, 1707905, 1708307, 1708708, 1709115, 1709535, 1709949, 1710387, 1710819, 1711221, 1711669, 1712089, 1712541, 1712945, 1713360, 1713803, 1714195, 1714618, 1715079, 1715434, 1715851]","[243, 48, 86, 82, 101, 113, 97, 74, 89, 105, 96, 117, 95, 89, 105, 112, 122, 124, 99, 49, 89, 133, 86, 105]","[1706414, 1706701, 1707035, 1707452, 1707856, 1708249, 1708653, 1709059, 1709459, 1709863, 1710301, 1710727, 1711115, 1711556, 1711983, 1712417, 1712844, 1713269, 1713696, 1714111, 1714521, 1714992, 1715260, 1715755]","[1706221, 1706621, 1707021, 1707421, 1707821, 1708221, 1708621, 1709021, 1709463, 1709868, 1710305, 1710731, 1711118, 1711561, 1711986, 1712416, 1712844, 1713273, 1713700, 1714107, 1714521, 1714926, 1715258, 1715752]",80,EM,U,R,ITMSR,1.1,
5,600,trial,0,88,88,88,trial,"['S', 'S', 'S', 'S', 'S', 'S', 'S', 'S', 'C', 'C', 'C', 'C', 'C', 'C', 'C', 'C', 'C', 'C', 'C', 'C', 'C', 'C', 'C', 'C']","[1721325, 1721707, 1722392, 1723018, 1723621, 1724225, 1724836, 1725446, 1726048, 1726655, 1727289, 1727918, 1728533, 1729123, 1729778, 1730398, 1730999, 1731572, 1732160, 1732772, 1733379, 1733995, 1734632, 1735237]","[1721432, 1721807, 1722532, 1723137, 1723736, 1724366, 1724986, 1725603, 1726227, 1726840, 1727426, 1728039, 1728633, 1729288, 1729914, 1730524, 1731119, 1731760, 1732291, 1732922, 1733510, 1734217, 1734766, 1735427]","[111, 255, 96, 95, 108, 112, 91, 101, 87, 123, 60, 41, 52, 70, 44, 72, 45, 97, 22, 53, 58, 89, 13, 88]","[1721357, 1721734, 1722419, 1723036, 1723640, 1724246, 1724855, 1725463, 1726065, 1726740, 1727304, 1727938, 1728549, 1729144, 1729794, 1730418, 1731072, 1731677, 1732235, 1732794, 1733393, 1734124, 1734714, 1735343]","[1721284, 1721884, 1722484, 1723084, 1723684, 1724284, 1724884, 1725485, 1726068, 1726675, 1727309, 1727938, 1728553, 1729143, 1729798, 1730418, 1731019, 1731592, 1732180, 1732792, 1733399, 1734016, 1734652, 1735257]",80,EM,U,R,ITMSR,1.1,
2,400,trial,0,89,89,89,trial,"['S', 'S', 'S', 'S', 'S', 'S', 'S', 'S', 'C', 'C', 'C', 'C', 'C', 'C', 'C', 'C', 'C', 'C', 'C', 'C', 'C', 'C', 'C', 'C']","[1740935, 1741281, 1741596, 1741995, 1742410, 1742815, 1743230, 1743589, 1743981, 1744398, 1744819, 1745250, 1745648, 1746101, 1746529, 1746947, 1747386, 1747798, 1748209, 1748654, 1749071, 1749526, 1749880, 1750359]","[1741020, 1741370, 1741658, 1742065, 1742477, 1742877, 1743287, 1743641, 1744056, 1744476, 1744910, 1745341, 1745762, 1746208, 1746622, 1747046, 1747477, 1747891, 1748290, 1748742, 1749188, 1749694, 1750007, 1750463]","[255, 17, 77, 84, 94, 87, 82, 88, 124, 117, 127, 135, 141, 127, 137, 139, 140, 135, 130, 141, 133, 130, 108, 121]","[1740963, 1741307, 1741613, 1742014, 1742426, 1742829, 1743247, 1743605, 1743996, 1744413, 1744835, 1745264, 1745668, 1746118, 1746546, 1746959, 1747400, 1747812, 1748225, 1748671, 1749091, 1749542, 1749902, 1750375]","[1740787, 1741186, 1741586, 1741986, 1742386, 1742786, 1743186, 1743586, 1744002, 1744418, 1744839, 1745270, 1745668, 1746121, 1746549, 1746967, 1747406, 1747818, 1748229, 1748674, 1749091, 1749547, 1749900, 1750379]",80,EM,U,R,ITMSR,1.1,
