pitch,ioi,event,.thisRepN,.thisTrialN,.thisN,.thisIndex,event,tap_types,tap_times,release_times,peak_pressures,peak_times,tone_times,subject,experimenter,register,handedness,experiment,version,
,,SPR,0,-1,-1,0,SPR,"['P', 'P', 'P', 'P', 'P', 'P', 'P', 'P', 'P', 'P', 'P', 'P', 'P', 'P', 'P', 'P', 'P', 'P', 'P', 'P', 'P', 'P', 'P', 'P', 'P', 'P', 'P', 'P', 'P', 'P']","[49537, 50082, 50585, 51103, 51618, 52165, 52648, 53142, 53618, 54146, 54638, 55134, 55629, 56182, 56694, 57219, 57708, 58207, 58714, 59206, 59709, 60219, 60750, 61231, 61724, 62205, 62737, 63222, 63746, 64245]","[49639, 50182, 50681, 51210, 51713, 52260, 52747, 53240, 53710, 54242, 54738, 55224, 55716, 56274, 56774, 57309, 57794, 58289, 58801, 59301, 59794, 60302, 60837, 61326, 61805, 62295, 62829, 63325, 63835, 64343]","[48, 253, 51, 44, 19, 58, 52, 61, 69, 54, 66, 49, 82, 73, 229, 236, 254, 6, 38, 251, 0, 206, 190, 215, 255, 26, 208, 7, 181, 8]","[49542, 50087, 50590, 51155, 51665, 52171, 52698, 53186, 53660, 54191, 54642, 55179, 55673, 56186, 56701, 57261, 57750, 58246, 58754, 59252, 59714, 60226, 60758, 61286, 61730, 62211, 62744, 63229, 63797, 64252]",,100,SB,U,R,ITMSR,1.1,
5,500,practice,0,0,0,0,practice,"['S', 'S', 'S', 'S', 'S', 'S', 'S', 'C', 'C', 'C', 'C', 'C', 'C', 'C', 'C', 'C', 'C', 'C', 'C', 'C', 'C', 'C', 'C', 'C', 'C', 'C', 'C']","[130267, 130682, 131147, 131628, 132120, 132598, 133100, 133614, 133956, 134259, 134549, 134839, 135116, 135380, 150103, 150367, 150553, 150820, 151045, 151260, 151515, 151858, 152165, 152480, 152786, 153098, 153402]","[130371, 130806, 131255, 131724, 132206, 132692, 133193, 133704, 134032, 134333, 134622, 134910, 135180, 135449, 150179, 150429, 150631, 150892, 151122, 151343, 151590, 151934, 152238, 152543, 152858, 153161, 153465]","[38, 92, 87, 73, 72, 115, 91, 96, 111, 103, 99, 77, 54, 25, 147, 108, 75, 70, 41, 31, 31, 36, 37, 23, 67, 0, 237]","[130320, 130743, 131198, 131633, 132125, 132602, 133105, 133618, 133960, 134263, 134553, 134843, 135121, 135386, 150106, 150371, 150559, 150827, 151085, 151302, 151521, 151899, 152169, 152485, 152792, 153104, 153407]","[129719, 130219, 130718, 131218, 131718, 132218, 132718, 133218, 133634, 133976, 134279, 134569, 134859, 135136, 150123, 150573, 151065, 151535, 151878, 152185, 152500, 152806, 153118, 153422]",100,SB,U,R,ITMSR,1.1,
2,500,practice,0,1,1,1,practice,"['S', 'S', 'S', 'S', 'S', 'S', 'S', 'C', 'C', 'C', 'C', 'C', 'C', 'C', 'C', 'C', 'C', 'C', 'C', 'C', 'C', 'C', 'C']","[159370, 159796, 160297, 160788, 161266, 161765, 162241, 162747, 163148, 163496, 163822, 164149, 164473, 164794, 165102, 165412, 165720, 166020, 166310, 166623, 166927, 167208, 167502]","[159411, 159890, 160381, 160862, 161334, 161833, 162319, 162827, 163228, 163569, 163908, 164231, 164555, 164876, 165178, 165480, 165789, 166087, 166390, 166696, 167004, 167286, 167569]","[166, 72, 118, 33, 49, 47, 72, 83, 45, 102, 93, 71, 22, 33, 4, 246, 248, 252, 37, 242, 234, 39, 218]","[159377, 159800, 160302, 160793, 161270, 161770, 162245, 162751, 163153, 163501, 163826, 164153, 164477, 164798, 165107, 165419, 165725, 166025, 166316, 166628, 166932, 167214, 167507]","[158891, 159390, 159890, 160390, 160890, 161390, 161890, 162391, 162767, 163168, 163516, 163842, 164169, 164493, 164814, 165122, 165432, 165740, 166040, 166330, 166643, 166947, 167228, 167522]",100,SB,U,R,ITMSR,1.1,
1,500,practice,0,2,2,2,practice,"['S', 'S', 'S', 'S', 'S', 'S', 'S', 'S', 'C', 'C', 'C', 'C', 'C', 'C', 'C', 'C', 'C', 'C', 'C', 'C', 'C', 'C', 'C', 'C', 'C', 'C']","[173637, 174020, 174139, 174623, 175140, 175653, 176140, 176647, 177158, 177543, 177881, 178198, 178519, 178835, 179134, 179428, 179720, 179989, 180312, 180617, 180878, 181182, 181466, 181750, 182043, 182334]","[173708, 174059, 174210, 174699, 175216, 175730, 176226, 176724, 177249, 177616, 177959, 178277, 178604, 178908, 179208, 179500, 179792, 180069, 180377, 180685, 180952, 181254, 181535, 181822, 182110, 182407]","[211, 243, 192, 123, 139, 108, 92, 61, 96, 61, 72, 88, 66, 21, 5, 242, 242, 28, 42, 232, 46, 52, 60, 71, 66, 71]","[173668, 174029, 174168, 174626, 175143, 175657, 176144, 176651, 177161, 177548, 177885, 178202, 178524, 178839, 179138, 179432, 179724, 179994, 180317, 180622, 180883, 181186, 181470, 181754, 182047, 182338]","[173288, 173788, 174288, 174788, 175288, 175789, 176289, 176789, 177178, 177563, 177901, 178219, 178539, 178855, 179154, 179448, 179740, 180332, 180637, 181202, 181486, 181770, 182063, 182354]",100,SB,U,R,ITMSR,1.1,
3,500,practice,0,3,3,3,practice,"['S', 'S', 'S', 'S', 'S', 'S', 'S', 'C', 'C', 'C', 'C', 'C', 'C', 'C', 'C', 'C', 'C', 'C', 'C', 'C', 'C', 'C', 'C']","[188519, 189006, 189505, 189983, 190488, 190992, 191472, 191982, 192352, 192714, 193055, 193442, 193815, 194178, 194520, 194904, 195274, 195665, 196016, 196381, 196742, 197108, 197493]","[188582, 189074, 189587, 190072, 190582, 191072, 191569, 192075, 192439, 192800, 193135, 193533, 193900, 194259, 194614, 195000, 195383, 195757, 196121, 196476, 196837, 197212, 197592]","[9, 82, 99, 96, 100, 95, 83, 100, 93, 75, 81, 54, 31, 32, 54, 28, 39, 40, 62, 41, 74, 57, 64]","[188551, 189010, 189509, 189987, 190492, 190995, 191476, 191986, 192356, 192718, 193059, 193447, 193820, 194184, 194524, 194909, 195338, 195670, 196020, 196386, 196746, 197112, 197498]","[188122, 188622, 189122, 189622, 190123, 190622, 191122, 191622, 192002, 192372, 192734, 193075, 193462, 193836, 194198, 194540, 194924, 195294, 195685, 196036, 196401, 196762, 197128, 197513]",100,SB,U,R,ITMSR,1.1,
0,500,practice,0,4,4,4,practice,"['S', 'S', 'S', 'S', 'S', 'S', 'S', 'S', 'C', 'C', 'C', 'C', 'C', 'C', 'C', 'C', 'C', 'C', 'C', 'C', 'C', 'C', 'C', 'C']","[203541, 203904, 204311, 204779, 205266, 205764, 206230, 206715, 207203, 207672, 208146, 208635, 209112, 209575, 210040, 210514, 210985, 211457, 211935, 212402, 212831, 213298, 213778, 214257]","[203628, 203991, 204433, 204880, 205372, 205856, 206341, 206828, 207340, 207789, 208257, 208756, 209238, 209697, 210169, 210640, 211102, 211569, 212056, 212510, 212939, 213416, 213896, 214364]","[62, 117, 127, 109, 90, 60, 91, 72, 109, 72, 68, 93, 68, 75, 80, 94, 81, 68, 60, 36, 27, 51, 72, 56]","[203544, 203907, 204314, 204781, 205321, 205818, 206234, 206776, 207272, 207677, 208211, 208703, 209172, 209640, 210112, 210583, 211048, 211513, 211995, 212458, 212836, 213366, 213839, 214316]","[203243, 203743, 204243, 204743, 205243, 205743, 206243, 206743, 207223, 207692, 208166, 208655, 209132, 209595, 210060, 210534, 211005, 211477, 211955, 212422, 212851, 213318, 213798, 214277]",100,SB,U,R,ITMSR,1.1,
4,500,practice,0,5,5,5,practice,"['S', 'S', 'S', 'S', 'S', 'S', 'S', 'C', 'C', 'C', 'C', 'C', 'C', 'C', 'C', 'C', 'C', 'C', 'C', 'C', 'C', 'C', 'C']","[220149, 220817, 221307, 221790, 222297, 222788, 223294, 223817, 224280, 224753, 225245, 225743, 226194, 226710, 227156, 227636, 228150, 228605, 229080, 229563, 230028, 230522, 230985]","[220260, 220930, 221417, 221912, 222413, 222887, 223400, 223923, 224380, 224870, 225358, 225859, 226320, 226820, 227291, 227735, 228231, 228733, 229206, 229692, 230166, 230645, 231105]","[220, 75, 78, 78, 66, 71, 90, 88, 73, 96, 87, 73, 77, 53, 85, 40, 220, 45, 55, 59, 52, 44, 40]","[220216, 220880, 221365, 221854, 222365, 222793, 223299, 223821, 224285, 224815, 225304, 225811, 226269, 226774, 227235, 227697, 228157, 228672, 229148, 229633, 230113, 230587, 231048]","[219917, 220417, 220916, 221416, 221916, 222416, 222916, 223416, 223837, 224301, 224773, 225265, 225763, 226214, 226731, 227176, 227656, 228170, 228625, 229100, 229583, 230048, 230542, 231005]",100,SB,U,R,ITMSR,1.1,
4,400,trial,0,6,6,6,trial,"['S', 'S', 'S', 'S', 'S', 'S', 'S', 'S', 'C', 'C', 'C', 'C', 'C', 'C', 'C', 'C', 'C', 'C', 'C', 'C', 'C', 'C', 'C', 'C']","[271731, 272070, 272413, 272774, 273118, 273499, 273891, 274275, 274647, 274996, 275363, 275734, 276085, 276430, 276797, 277169, 277525, 277861, 278225, 278582, 278939, 279290, 279670, 280026]","[271838, 272164, 272505, 272866, 273204, 273585, 273975, 274365, 274745, 275078, 275448, 275822, 276170, 276506, 276870, 277250, 277595, 277964, 278309, 278668, 279023, 279380, 279748, 280097]","[49, 120, 109, 94, 88, 85, 77, 98, 107, 88, 84, 83, 71, 70, 54, 65, 59, 80, 70, 77, 79, 80, 59, 65]","[271735, 272073, 272416, 272778, 273122, 273503, 273895, 274278, 274650, 274999, 275367, 275737, 276090, 276434, 276801, 277173, 277529, 277865, 278230, 278586, 278942, 279294, 279674, 280031]","[271565, 271965, 272365, 272765, 273165, 273565, 273965, 274365, 274667, 275016, 275383, 275755, 276105, 276450, 276817, 277189, 277545, 277881, 278245, 278602, 278959, 279310, 279690, 280046]",100,SB,U,R,ITMSR,1.1,
2,400,trial,0,7,7,7,trial,"['S', 'S', 'S', 'S', 'S', 'S', 'S', 'S', 'C', 'C', 'C', 'C', 'C', 'C', 'C', 'C', 'C', 'C', 'C', 'C', 'C', 'C', 'C', 'C']","[285627, 285965, 286311, 286686, 287052, 287443, 287825, 288196, 288602, 288961, 289321, 289720, 290105, 290495, 290875, 291264, 291644, 292023, 292416, 292793, 293125, 293543, 293949, 294354]","[285706, 286040, 286392, 286766, 287144, 287520, 287918, 288277, 288674, 289033, 289419, 289806, 290188, 290586, 290956, 291351, 291727, 292120, 292502, 292898, 293242, 293634, 294046, 294440]","[227, 93, 75, 72, 68, 70, 40, 53, 80, 36, 83, 47, 70, 55, 42, 54, 49, 243, 41, 27, 248, 49, 25, 21]","[285664, 285969, 286315, 286690, 287056, 287449, 287831, 288200, 288606, 288966, 289327, 289724, 290109, 290500, 290879, 291269, 291649, 292029, 292421, 292799, 293199, 293549, 293954, 294360]","[285471, 285870, 286270, 286670, 287070, 287470, 287870, 288270, 288622, 288982, 289341, 289740, 290125, 290515, 290895, 291284, 291664, 292043, 292436, 292813, 293145, 293563, 293969, 294374]",100,SB,U,R,ITMSR,1.1,
0,600,trial,0,8,8,8,trial,"['S', 'S', 'S', 'S', 'S', 'S', 'S', 'S', 'C', 'C', 'C', 'C', 'C', 'C', 'C', 'C', 'C', 'C', 'C', 'C', 'C', 'C', 'C', 'C']","[299921, 300497, 300931, 301491, 302075, 302659, 303249, 303854, 304457, 305018, 305585, 306167, 306747, 307361, 307960, 308544, 309160, 309749, 310381, 310974, 311556, 312176, 312782, 313410]","[300020, 300592, 301059, 301669, 302277, 302824, 303405, 304008, 304589, 305173, 305743, 306327, 306890, 307486, 308079, 308688, 309331, 309897, 310542, 311104, 311718, 312328, 312932, 313551]","[6, 110, 81, 101, 82, 83, 87, 62, 54, 82, 66, 36, 33, 15, 215, 10, 32, 255, 37, 3, 9, 37, 41, 56]","[299925, 300502, 301007, 301495, 302166, 302747, 303340, 303932, 304532, 305112, 305674, 306251, 306753, 307424, 307968, 308550, 309265, 309817, 310474, 311038, 311636, 312267, 312864, 313492]","[299737, 300337, 300937, 301537, 302137, 302737, 303337, 303937, 304477, 305038, 305605, 306187, 306767, 307381, 307980, 308564, 309180, 309769, 310402, 310994, 311576, 312196, 312802, 313431]",100,SB,U,R,ITMSR,1.1,
1,600,trial,0,9,9,9,trial,"['S', 'S', 'S', 'S', 'S', 'S', 'S', 'S', 'C', 'C', 'C', 'C', 'C', 'C', 'C', 'C', 'C', 'C', 'C', 'C', 'C', 'C', 'C', 'C']","[319265, 319826, 320331, 320867, 321410, 322007, 322629, 323206, 323780, 324352, 324939, 325520, 326095, 326678, 327259, 327851, 328419, 329021, 329620, 330229, 330789, 331387, 332014, 332638]","[319383, 319913, 320449, 321007, 321584, 322167, 322783, 323346, 323900, 324495, 325096, 325654, 326201, 326807, 327394, 327983, 328576, 329149, 329774, 330373, 330935, 331524, 332145, 332761]","[131, 29, 18, 227, 237, 218, 17, 216, 22, 20, 7, 17, 197, 25, 233, 198, 240, 171, 240, 7, 24, 10, 242, 216]","[319316, 319831, 320335, 320942, 321489, 322012, 322634, 323211, 323785, 324358, 324945, 325526, 326099, 326684, 327333, 327857, 328425, 329101, 329699, 330319, 330880, 331468, 332089, 332709]","[319071, 319670, 320270, 320870, 321470, 322070, 322670, 323270, 323800, 324372, 324959, 325540, 326115, 326699, 327279, 327871, 328439, 329041, 329640, 330249, 330809, 331407, 332034, 332658]",100,SB,U,R,ITMSR,1.1,
1,600,trial,0,10,10,10,trial,"['S', 'S', 'S', 'S', 'S', 'S', 'C', 'C', 'C', 'C', 'C', 'C', 'C', 'C', 'C', 'C', 'C', 'C', 'C', 'C', 'C', 'C']","[339093, 339681, 340293, 340892, 341487, 342104, 342693, 343300, 343918, 344522, 345142, 345796, 346405, 347037, 347634, 348266, 348934, 349540, 350181, 350816, 351446, 352115]","[339215, 339789, 340404, 340996, 341598, 342215, 342807, 343441, 344041, 344645, 345257, 345903, 346524, 347147, 347749, 348383, 349045, 349673, 350300, 350945, 351586, 352234]","[39, 225, 43, 49, 37, 43, 42, 39, 16, 16, 240, 181, 193, 173, 235, 193, 154, 246, 235, 0, 246, 237]","[339097, 339686, 340298, 340897, 341492, 342109, 342697, 343305, 343924, 344527, 345148, 345852, 346469, 347100, 347640, 348335, 349002, 349621, 350246, 350893, 351525, 352120]","[337969, 338568, 339168, 339768, 340368, 340968, 341568, 342168, 342713, 343320, 343938, 344542, 345162, 345816, 346425, 347057, 347654, 348286, 348954, 349560, 350201, 350836, 351466, 352135]",100,SB,U,R,ITMSR,1.1,
2,600,trial,0,11,11,11,trial,"['S', 'S', 'S', 'S', 'S', 'C', 'C', 'C', 'C', 'C', 'C', 'C', 'C', 'C', 'C', 'C', 'C', 'C', 'C', 'C', 'C']","[359628, 360181, 360773, 361366, 361949, 362557, 363160, 363751, 364352, 364963, 365512, 366092, 366688, 367276, 367888, 368486, 369063, 369676, 370280, 370892, 371466]","[359748, 360318, 360899, 361489, 362094, 362726, 363367, 363912, 364510, 365186, 365757, 366329, 366943, 367543, 368214, 368804, 369304, 369925, 370487, 371158]","[123, 45, 16, 29, 248, 2, 5, 230, 234, 1, 251, 192, 225, 231, 253, 251, 3, 9, 249, 239]","[359700, 360185, 360778, 361371, 361954, 362563, 363286, 363846, 364358, 364968, 365518, 366098, 366694, 367428, 368113, 368717, 369227, 369854, 370412, 371068]","[357855, 358455, 359055, 359655, 360255, 360855, 361455, 362055, 362577, 363181, 363771, 364372, 364983, 365532, 366112, 366708, 367296, 367908, 368506, 369083, 369696, 370300, 370912, 371486]",100,SB,U,R,ITMSR,1.1,
5,400,trial,0,12,12,12,trial,"['S', 'S', 'S', 'S', 'S', 'S', 'C', 'C', 'C', 'C', 'C', 'C', 'C', 'C', 'C', 'C', 'C', 'C', 'C', 'C', 'C', 'C']","[377612, 377966, 378354, 378736, 379150, 379558, 379949, 380336, 380722, 381118, 381510, 381927, 382318, 382703, 383108, 383518, 383917, 384344, 384734, 385093, 385530, 385939]","[377694, 378059, 378445, 378823, 379238, 379661, 380041, 380432, 380815, 381210, 381596, 382010, 382394, 382782, 383188, 383585, 383990, 384403, 384803, 385174, 385608, 386020]","[215, 92, 46, 35, 70, 69, 251, 229, 238, 250, 231, 20, 24, 245, 223, 5, 25, 240, 23, 56, 230, 129]","[377618, 377970, 378359, 378741, 379155, 379563, 379954, 380342, 380728, 381123, 381517, 381932, 382323, 382708, 383114, 383524, 383922, 384349, 384738, 385097, 385536, 385946]","[376806, 377206, 377606, 378006, 378406, 378806, 379206, 379607, 379969, 380356, 380742, 381138, 381530, 381947, 382338, 382723, 383128, 383538, 383937, 384364, 384754, 385113, 385550, 385959]",100,SB,U,R,ITMSR,1.1,
2,600,trial,0,13,13,13,trial,"['S', 'S', 'S', 'S', 'S', 'S', 'S', 'S', 'C', 'C', 'C', 'C', 'C', 'C', 'C', 'C', 'C', 'C', 'C', 'C', 'C', 'C', 'C', 'C']","[391562, 391942, 392521, 393102, 393696, 394295, 394897, 395496, 396157, 396777, 397382, 397991, 398664, 399282, 399939, 400556, 401172, 401826, 402489, 403117, 403724, 404349, 404966, 405540]","[391669, 392169, 392711, 393329, 393976, 394631, 395258, 395849, 396552, 397151, 397728, 398377, 399030, 399693, 400318, 400968, 401573, 402166, 402795, 403479, 404074, 404715, 405342]","[158, 216, 33, 40, 18, 7, 13, 29, 27, 40, 46, 39, 34, 41, 63, 49, 56, 56, 19, 57, 39, 23, 42]","[391609, 391948, 392622, 393106, 393701, 394498, 395137, 395717, 396437, 397021, 397591, 398247, 398905, 399575, 400201, 400850, 401462, 402065, 402662, 403324, 403943, 404580, 405197]","[391403, 392003, 392603, 393203, 393803, 394403, 395003, 395603, 396177, 396797, 397402, 398011, 398684, 399302, 399960, 400576, 401192, 401846, 402509, 403137, 403744, 404369, 404986, 405560]",100,SB,U,R,ITMSR,1.1,
1,400,trial,0,14,14,14,trial,"['S', 'S', 'S', 'S', 'S', 'S', 'C', 'C', 'C', 'C', 'C', 'C', 'C', 'C', 'C', 'C', 'C', 'C', 'C', 'C', 'C', 'C']","[411979, 412281, 412654, 413060, 413463, 413861, 414277, 414737, 415126, 415511, 415905, 416275, 416658, 417059, 417464, 417851, 418254, 418703, 419069, 419463, 419840, 420212]","[411999, 412358, 412722, 413129, 413526, 413925, 414345, 414784, 415187, 415579, 415975, 416354, 416723, 417133, 417543, 417945, 418332, 418762, 419143, 419536, 419922, 420289]","[46, 204, 240, 212, 195, 150, 178, 103, 213, 241, 201, 223, 221, 213, 187, 186, 206, 202, 235, 192, 191, 206]","[411983, 412285, 412657, 413064, 413468, 413867, 414283, 414744, 415130, 415517, 415910, 416281, 416663, 417064, 417471, 417857, 418260, 418708, 419075, 419469, 419846, 420217]","[411101, 411500, 411900, 412300, 412700, 413101, 413501, 413901, 414297, 414757, 415147, 415532, 415925, 416295, 416678, 417079, 417484, 417871, 418274, 418723, 419089, 419483, 419860, 420232]",100,SB,U,R,ITMSR,1.1,
4,400,trial,0,15,15,15,trial,"['S', 'S', 'S', 'S', 'S', 'S', 'S', 'C', 'C', 'C', 'C', 'C', 'C', 'C', 'C', 'C', 'C', 'C', 'C', 'C', 'C', 'C', 'C']","[426366, 426745, 427107, 427469, 427874, 428268, 428623, 429040, 429424, 429799, 430197, 430608, 431007, 431399, 431807, 432195, 432594, 433015, 433423, 433808, 434228, 434650, 435017]","[426444, 426822, 427200, 427575, 427955, 428352, 428720, 429124, 429508, 429907, 430304, 430713, 431109, 431477, 431898, 432295, 432700, 433101, 433507, 433915, 434315, 434736, 435116]","[163, 157, 223, 207, 169, 196, 36, 245, 210, 187, 176, 184, 188, 147, 174, 199, 179, 207, 220, 155, 88, 145, 127]","[426375, 426752, 427113, 427475, 427880, 428274, 428627, 429045, 429430, 429805, 430202, 430613, 431013, 431406, 431812, 432200, 432601, 433020, 433428, 433814, 434235, 434656, 435024]","[425939, 426339, 426739, 427139, 427539, 427939, 428339, 428739, 429060, 429444, 429819, 430217, 430628, 431027, 431419, 431827, 432216, 432614, 433035, 433443, 433828, 434248, 434670, 435037]",100,SB,U,R,ITMSR,1.1,
1,400,trial,0,16,16,16,trial,"['S', 'S', 'S', 'S', 'S', 'S', 'S', 'C', 'C', 'C', 'C', 'C', 'C', 'C', 'C', 'C', 'C', 'C', 'C', 'C', 'C', 'C', 'C']","[441222, 441589, 441966, 442349, 442769, 443158, 443564, 443981, 444396, 444798, 445179, 445561, 445979, 446393, 446769, 447147, 447532, 447900, 448289, 448683, 449067, 449494, 449854]","[441271, 441657, 442045, 442448, 442857, 443257, 443653, 444055, 444468, 444869, 445252, 445640, 446042, 446455, 446832, 447218, 447597, 447980, 448339, 448750, 449140, 449563, 449928]","[40, 234, 158, 167, 119, 120, 25, 76, 93, 70, 86, 253, 248, 1, 17, 18, 71, 16, 8, 25, 110, 40, 84]","[441229, 441594, 441972, 442355, 442775, 443163, 443618, 443987, 444402, 444806, 445186, 445568, 445985, 446399, 446774, 447153, 447537, 447905, 448293, 448687, 449072, 449499, 449859]","[440812, 441212, 441612, 442012, 442413, 442813, 443213, 443613, 444001, 444417, 444818, 445199, 445581, 445999, 446413, 446789, 447167, 447552, 447920, 448309, 448703, 449087, 449514, 449874]",100,SB,U,R,ITMSR,1.1,
3,600,trial,0,17,17,17,trial,"['S', 'S', 'S', 'S', 'S', 'S', 'S', 'S', 'C', 'C', 'C', 'C', 'C', 'C', 'C', 'C', 'C', 'C', 'C', 'C', 'C', 'C', 'C', 'C']","[455345, 455655, 456247, 456847, 457436, 458011, 458651, 459257, 459916, 460494, 461068, 461686, 462295, 462887, 463538, 464126, 464721, 465291, 465890, 466497, 467093, 467685, 468248, 468824]","[455427, 455745, 456406, 457034, 457723, 458293, 458928, 459549, 460157, 460692, 461299, 461890, 462559, 463119, 463782, 464388, 465000, 465573, 466141, 466740, 467357, 467933, 468490, 468984]","[205, 202, 157, 252, 248, 9, 175, 142, 136, 158, 112, 32, 58, 51, 77, 246, 4, 32, 29, 18, 88, 231, 133, 191]","[455350, 455659, 456324, 456852, 457576, 458156, 458656, 459264, 459921, 460610, 461205, 461793, 462468, 463022, 463689, 464282, 464889, 465469, 466039, 466636, 467268, 467826, 468403, 468903]","[455173, 455772, 456372, 456972, 457572, 458172, 458772, 459372, 459936, 460514, 461088, 461706, 462315, 462907, 463558, 464146, 464741, 465311, 465910, 466518, 467113, 467705, 468269, 468844]",100,SB,U,R,ITMSR,1.1,
4,600,trial,0,18,18,18,trial,"['S', 'S', 'S', 'S', 'S', 'S', 'C', 'C', 'C', 'C', 'C', 'C', 'C', 'C', 'C', 'C', 'C', 'C', 'C', 'C', 'C', 'C']","[475662, 476244, 476861, 477467, 478064, 478686, 479308, 479886, 480534, 481133, 481715, 482329, 482922, 483522, 484126, 484724, 485326, 485946, 486549, 487119, 487755, 488356]","[475791, 476399, 476998, 477621, 478265, 478925, 479554, 480166, 480788, 481345, 481945, 482548, 483137, 483762, 484368, 484984, 485554, 486200, 486838, 487427, 488014, 488538]","[189, 21, 7, 245, 14, 245, 39, 59, 35, 248, 9, 241, 254, 243, 9, 246, 243, 246, 10, 25, 9, 9]","[475726, 476249, 476865, 477471, 478189, 478788, 479466, 480047, 480687, 481256, 481847, 482475, 482927, 483676, 484281, 484888, 485331, 485951, 486715, 487317, 487905, 488462]","[474563, 475162, 475762, 476362, 476962, 477562, 478162, 478763, 479328, 479906, 480555, 481154, 481735, 482349, 482942, 483543, 484146, 484744, 485346, 485966, 486569, 487139, 487775, 488376]",100,SB,U,R,ITMSR,1.1,
5,600,trial,0,19,19,19,trial,"['S', 'S', 'S', 'S', 'S', 'S', 'C', 'C', 'C', 'C', 'C', 'C', 'C', 'C', 'C', 'C', 'C', 'C', 'C', 'C', 'C', 'C']","[495242, 495796, 496381, 496992, 497581, 498177, 498794, 499379, 499977, 500583, 501214, 501834, 502448, 503063, 503651, 504261, 504862, 505502, 506124, 506693, 507297, 507913]","[495360, 495962, 496613, 497186, 497820, 498382, 499013, 499602, 500182, 500796, 501435, 502021, 502651, 503283, 503849, 504491, 505103, 505746, 506334, 506953, 507544, 508120]","[216, 252, 88, 36, 75, 16, 63, 54, 31, 253, 236, 233, 234, 230, 192, 208, 196, 126, 132, 174, 151, 165]","[495248, 495896, 496503, 497092, 497707, 498289, 498917, 499505, 500108, 500706, 501335, 501917, 502551, 503191, 503758, 504410, 505014, 505645, 506266, 506847, 507441, 508041]","[494104, 494703, 495303, 495903, 496503, 497103, 497703, 498304, 498814, 499399, 499997, 500603, 501234, 501854, 502468, 503084, 503671, 504281, 504882, 505522, 506144, 506713, 507317, 507933]",100,SB,U,R,ITMSR,1.1,
4,600,trial,0,20,20,20,trial,"['S', 'S', 'S', 'S', 'S', 'S', 'C', 'C', 'C', 'C', 'C', 'C', 'C', 'C', 'C', 'C', 'C', 'C', 'C', 'C', 'C', 'C']","[514955, 515468, 516065, 516679, 517283, 517912, 518512, 519120, 519762, 520377, 520956, 521577, 522177, 522824, 523430, 524070, 524675, 525314, 525908, 526528, 527096, 527769]","[515061, 515696, 516303, 516869, 517549, 518205, 518756, 519413, 520053, 520676, 521241, 521862, 522458, 523083, 523698, 524346, 524950, 525604, 526170, 526784, 527312, 527970]","[158, 27, 27, 236, 7, 28, 2, 64, 4, 50, 14, 8, 62, 26, 30, 30, 21, 1, 239, 242, 248, 236]","[514960, 515472, 516176, 516791, 517395, 518093, 518643, 519299, 519928, 520541, 521116, 521749, 522350, 522988, 523597, 524251, 524818, 525501, 526010, 526679, 527210, 527896]","[513713, 514312, 514912, 515512, 516112, 516712, 517312, 517912, 518532, 519140, 519782, 520397, 520976, 521597, 522198, 522844, 523450, 524090, 524695, 525334, 525928, 526548, 527116, 527789]",100,SB,U,R,ITMSR,1.1,
5,600,trial,0,21,21,21,trial,"['S', 'S', 'S', 'S', 'S', 'S', 'S', 'S', 'C', 'C', 'C', 'C', 'C', 'C', 'C', 'C', 'C', 'C', 'C', 'C', 'C', 'C', 'C', 'C']","[533701, 534175, 534716, 535306, 535906, 536551, 537124, 537710, 538285, 538902, 539504, 540103, 540729, 541306, 541915, 542515, 543157, 543751, 544369, 544944, 545566, 546169, 546750, 547329]","[533809, 534422, 535000, 535601, 536201, 536740, 537370, 537952, 538560, 539116, 539745, 540359, 540936, 541524, 542088, 542704, 543325, 543943, 544507, 545177, 545719, 546313, 546962, 547535]","[134, 26, 246, 252, 32, 249, 228, 204, 158, 173, 213, 185, 185, 196, 163, 218, 104, 191, 106, 245, 178, 127, 203, 233]","[533705, 534302, 534828, 535310, 536027, 536650, 537129, 537828, 538422, 539005, 539622, 540220, 540831, 541410, 542011, 542626, 543219, 543854, 544373, 545073, 545641, 546245, 546865, 547442]","[533521, 534121, 534721, 535321, 535921, 536521, 537121, 537721, 538305, 538923, 539524, 540123, 540749, 541326, 541935, 542535, 543177, 543771, 544389, 544964, 545586, 546189, 546770, 547349]",100,SB,U,R,ITMSR,1.1,
0,400,trial,0,22,22,22,trial,"['S', 'S', 'S', 'S', 'S', 'S', 'S', 'C', 'C', 'C', 'C', 'C', 'C', 'C', 'C', 'C', 'C', 'C', 'C', 'C', 'C', 'C', 'C']","[553521, 553875, 554213, 554570, 554949, 555330, 555716, 556090, 556449, 556809, 557165, 557555, 557934, 558313, 558681, 559088, 559488, 559887, 560239, 560635, 561037, 561440, 561858]","[553611, 553977, 554297, 554650, 555042, 555420, 555798, 556185, 556533, 556901, 557250, 557648, 558007, 558395, 558770, 559166, 559550, 559952, 560307, 560727, 561135, 561527, 561929]","[182, 241, 88, 137, 171, 131, 10, 113, 250, 133, 138, 148, 119, 103, 132, 211, 96, 79, 70, 30, 47, 52, 22]","[553524, 553880, 554218, 554575, 554953, 555334, 555720, 556095, 556454, 556815, 557169, 557560, 557939, 558317, 558686, 559094, 559493, 559892, 560243, 560640, 561040, 561444, 561862]","[553001, 553401, 553801, 554201, 554601, 555001, 555401, 555801, 556110, 556469, 556829, 557186, 557575, 557954, 558333, 558701, 559108, 559508, 559907, 560259, 560655, 561057, 561460, 561879]",100,SB,U,R,ITMSR,1.1,
3,400,trial,0,23,23,23,trial,"['S', 'S', 'S', 'S', 'S', 'S', 'C', 'C', 'C', 'C', 'C', 'C', 'C', 'C', 'C', 'C', 'C', 'C', 'C', 'C', 'C', 'C']","[567977, 568331, 568707, 569108, 569505, 569913, 570300, 570671, 571067, 571445, 571859, 572260, 572677, 573074, 573453, 573871, 574252, 574662, 575056, 575465, 575881, 576291]","[568074, 568418, 568803, 569197, 569615, 570016, 570402, 570765, 571184, 571568, 571950, 572347, 572760, 573159, 573544, 573947, 574358, 574749, 575166, 575560, 575954, 576368]","[105, 96, 44, 246, 0, 157, 91, 188, 5, 225, 228, 66, 86, 104, 104, 28, 151, 81, 240, 108, 177, 100]","[567981, 568335, 568759, 569114, 569510, 569918, 570305, 570677, 571126, 571517, 571908, 572266, 572682, 573078, 573500, 573874, 574296, 574714, 575112, 575470, 575886, 576296]","[567184, 567584, 567984, 568384, 568784, 569184, 569584, 569985, 570320, 570691, 571087, 571465, 571879, 572280, 572697, 573094, 573473, 573891, 574272, 574682, 575076, 575485, 575901, 576311]",100,SB,U,R,ITMSR,1.1,
0,400,trial,0,24,24,24,trial,"['S', 'S', 'S', 'S', 'S', 'S', 'S', 'C', 'C', 'C', 'C', 'C', 'C', 'C', 'C', 'C', 'C', 'C', 'C', 'C', 'C', 'C', 'C']","[582209, 582605, 583023, 583420, 583808, 584236, 584641, 585057, 585463, 585842, 586228, 586599, 586997, 587398, 587801, 588205, 588628, 589022, 589403, 589806, 590234, 590650, 591054]","[582303, 582695, 583097, 583519, 583901, 584333, 584744, 585154, 585551, 585949, 586324, 586706, 587090, 587504, 587908, 588290, 588692, 589128, 589507, 589922, 590330, 590743, 591139]","[93, 221, 108, 251, 68, 61, 47, 14, 26, 234, 251, 171, 215, 210, 254, 46, 154, 70, 167, 227, 126, 102, 16]","[582214, 582610, 583028, 583476, 583813, 584241, 584646, 585062, 585468, 585847, 586232, 586603, 587000, 587451, 587806, 588209, 588632, 589075, 589408, 589810, 590289, 590653, 591059]","[581883, 582283, 582683, 583084, 583483, 583883, 584283, 584683, 585077, 585483, 585862, 586248, 586619, 587017, 587418, 587821, 588225, 588648, 589042, 589423, 589826, 590254, 590670, 591074]",100,SB,U,R,ITMSR,1.1,
0,600,trial,0,25,25,25,trial,"['S', 'S', 'S', 'S', 'S', 'S', 'C', 'C', 'C', 'C', 'C', 'C', 'C', 'C', 'C', 'C', 'C', 'C', 'C', 'C', 'C', 'C']","[597979, 598521, 599092, 599701, 600286, 600857, 601485, 602041, 602667, 603286, 603966, 604570, 605228, 605887, 606560, 607191, 607834, 608457, 609045, 609665, 610242, 610807]","[598106, 598666, 599255, 599878, 600522, 601075, 601696, 602271, 602864, 603524, 604165, 604801, 605469, 606109, 606785, 607394, 608052, 608655, 609230, 609853, 610435, 611017]","[41, 111, 169, 117, 96, 106, 182, 184, 208, 194, 159, 123, 151, 90, 118, 138, 39, 239, 14, 125, 87, 155]","[597982, 598583, 599178, 599706, 600402, 601006, 601614, 602144, 602780, 603414, 604048, 604688, 605348, 606002, 606674, 607301, 607952, 608550, 609142, 609750, 610356, 610921]","[596777, 597378, 597978, 598578, 599178, 599778, 600378, 600978, 601505, 602061, 602687, 603307, 603986, 604590, 605248, 605907, 606580, 607211, 607854, 608477, 609065, 609685, 610263, 610827]",100,SB,U,R,ITMSR,1.1,
3,400,trial,0,26,26,26,trial,"['S', 'S', 'S', 'S', 'S', 'S', 'C', 'C', 'C', 'C', 'C', 'C', 'C', 'C', 'C', 'C', 'C', 'C', 'C', 'C', 'C', 'C']","[617163, 617479, 617840, 618269, 618659, 619033, 619480, 619894, 620282, 620681, 621073, 621466, 621857, 622251, 622623, 623028, 623424, 623817, 624188, 624584, 624960, 625336]","[617224, 617546, 617910, 618318, 618738, 619133, 619531, 619962, 620342, 620748, 621150, 621553, 621965, 622336, 622711, 623119, 623497, 623898, 624275, 624688, 625056, 625451]","[88, 54, 48, 3, 46, 213, 66, 84, 48, 6, 247, 6, 23, 200, 237, 188, 141, 179, 162, 205, 192, 211]","[617167, 617483, 617845, 618274, 618663, 619091, 619485, 619898, 620288, 620686, 621079, 621472, 621913, 622291, 622629, 623073, 623466, 623825, 624233, 624641, 625011, 625393]","[616313, 616713, 617113, 617513, 617913, 618313, 618713, 619113, 619500, 619914, 620302, 620701, 621093, 621486, 621877, 622271, 622643, 623048, 623444, 623837, 624208, 624604, 624980, 625356]",100,SB,U,R,ITMSR,1.1,
3,600,trial,0,27,27,27,trial,"['S', 'S', 'S', 'S', 'S', 'S', 'C', 'C', 'C', 'C', 'C', 'C', 'C', 'C', 'C', 'C', 'C', 'C', 'C', 'C', 'C', 'C']","[631954, 632532, 633160, 633753, 634417, 635006, 635608, 636184, 636804, 637437, 638022, 638616, 639218, 639807, 640402, 641042, 641650, 642215, 642798, 643449, 644035, 644635]","[632151, 632782, 633427, 634013, 634620, 635216, 635838, 636383, 637017, 637683, 638296, 638818, 639431, 640037, 640647, 641261, 641956, 642538, 643110, 643746, 644368]","[46, 42, 37, 47, 39, 49, 43, 36, 44, 35, 13, 220, 19, 7, 11, 20, 27, 48, 72, 74, 42]","[632067, 632681, 633305, 633903, 634532, 635127, 635731, 636290, 636936, 637583, 638161, 638714, 639340, 639941, 640551, 641169, 641804, 642391, 643006, 643637, 644259]","[630816, 631416, 632016, 632616, 633217, 633816, 634416, 635016, 635628, 636205, 636824, 637457, 638042, 638637, 639238, 639827, 640422, 641062, 641670, 642235, 642818, 643469, 644056, 644655]",100,SB,U,R,ITMSR,1.1,
2,400,trial,0,28,28,28,trial,"['S', 'S', 'S', 'S', 'S', 'S', 'C', 'C', 'C', 'C', 'C', 'C', 'C', 'C', 'C', 'C', 'C', 'C', 'C', 'C', 'C', 'C']","[651223, 651563, 651957, 652366, 652743, 653146, 653541, 653943, 654336, 654734, 655133, 655511, 655928, 656342, 656756, 657148, 657561, 657972, 658369, 658799, 659227, 659601]","[651287, 651658, 652050, 652452, 652851, 653242, 653624, 654016, 654427, 654840, 655240, 655627, 656028, 656447, 656873, 657262, 657649, 658082, 658480, 658907, 659320, 659717]","[59, 210, 167, 253, 249, 194, 212, 107, 155, 133, 106, 127, 151, 152, 160, 133, 168, 164, 122, 86, 80, 67]","[651229, 651569, 651963, 652371, 652748, 653152, 653546, 653949, 654342, 654741, 655140, 655517, 655934, 656348, 656761, 657154, 657567, 657978, 658376, 658805, 659232, 659665]","[650443, 650842, 651242, 651642, 652042, 652442, 652843, 653242, 653561, 653963, 654356, 654754, 655153, 655532, 655948, 656362, 656776, 657168, 657581, 657992, 658390, 658819, 659247, 659621]",100,SB,U,R,ITMSR,1.1,
5,400,trial,0,29,29,29,trial,"['S', 'S', 'S', 'S', 'S', 'S', 'S', 'C', 'C', 'C', 'C', 'C', 'C', 'C', 'C', 'C', 'C', 'C', 'C', 'C', 'C', 'C', 'C']","[665279, 665723, 666107, 666508, 666962, 667348, 667730, 668132, 668549, 668943, 669331, 669743, 670147, 670548, 670957, 671343, 671740, 672132, 672521, 672908, 673308, 673702, 674103]","[665373, 665807, 666206, 666585, 667040, 667440, 667830, 668223, 668637, 669025, 669422, 669826, 670228, 670627, 671021, 671421, 671818, 672220, 672615, 673011, 673406, 673793, 674184]","[91, 224, 222, 192, 174, 167, 154, 158, 130, 96, 137, 184, 135, 119, 56, 113, 131, 49, 25, 97, 96, 8, 123]","[665339, 665729, 666113, 666512, 666968, 667354, 667736, 668137, 668553, 668948, 669336, 669747, 670151, 670555, 670962, 671348, 671746, 672137, 672526, 672913, 673313, 673709, 674107]","[664965, 665365, 665765, 666165, 666565, 666966, 667365, 667765, 668152, 668569, 668963, 669351, 669763, 670168, 670568, 670978, 671363, 671760, 672152, 672541, 672928, 673328, 673722, 674123]",100,SB,U,R,ITMSR,1.1,
0,600,trial,0,30,30,30,trial,"['S', 'S', 'S', 'S', 'S', 'S', 'C', 'C', 'C', 'C', 'C', 'C', 'C', 'C', 'C', 'C', 'C', 'C', 'C', 'C', 'C', 'C']","[757668, 758215, 758807, 759401, 760024, 760670, 761293, 761906, 762531, 763162, 763793, 764377, 764995, 765621, 766243, 766900, 767515, 768140, 768780, 769412, 770043, 770691]","[757806, 758354, 758970, 759629, 760241, 760869, 761512, 762107, 762750, 763462, 764120, 764763, 765338, 765944, 766587, 767220, 767851, 768452, 769070, 769698, 770375]","[14, 243, 53, 56, 55, 59, 51, 42, 59, 77, 69, 37, 57, 1, 10, 28, 0, 7, 3, 7, 36]","[757733, 758285, 758889, 759544, 760133, 760767, 761422, 762010, 762660, 763316, 764017, 764505, 765185, 765822, 766445, 767089, 767687, 768324, 768919, 769585, 770238]","[756488, 757088, 757688, 758288, 758888, 759488, 760088, 760688, 761313, 761926, 762551, 763182, 763813, 764397, 765016, 765641, 766263, 766920, 767535, 768160, 768800, 769432, 770063, 770711]",100,SB,U,R,ITMSR,1.1,
4,400,trial,0,31,31,31,trial,"['S', 'S', 'S', 'S', 'S', 'S', 'C', 'C', 'C', 'C', 'C', 'C', 'C', 'C', 'C', 'C', 'C', 'C', 'C', 'C', 'C', 'C']","[777066, 777450, 777835, 778235, 778620, 779026, 779438, 779834, 780266, 780669, 781075, 781491, 781913, 782328, 782747, 783169, 783565, 784002, 784435, 784867, 785250, 785664]","[777134, 777518, 777908, 778307, 778702, 779098, 779524, 779921, 780351, 780777, 781184, 781599, 782007, 782409, 782832, 783260, 783663, 784094, 784521, 784952, 785333, 785741]","[251, 169, 224, 217, 232, 218, 217, 208, 209, 195, 211, 193, 233, 171, 205, 239, 196, 232, 195, 178, 155, 172]","[777070, 777456, 777839, 778241, 778625, 779031, 779442, 779839, 780271, 780675, 781079, 781496, 781918, 782333, 782753, 783174, 783571, 784007, 784441, 784872, 785255, 785669]","[776254, 776654, 777054, 777454, 777854, 778254, 778654, 779054, 779458, 779854, 780286, 780689, 781095, 781511, 781933, 782348, 782767, 783190, 783585, 784022, 784455, 784887, 785270, 785684]",100,SB,U,R,ITMSR,1.1,
4,400,trial,0,32,32,32,trial,"['S', 'S', 'S', 'S', 'S', 'S', 'C', 'C', 'C', 'C', 'C', 'C', 'C', 'C', 'C', 'C', 'C', 'C', 'C', 'C', 'C', 'C']","[791873, 792243, 792641, 793030, 793446, 793826, 794242, 794611, 795003, 795413, 795811, 796205, 796606, 797015, 797399, 797808, 798210, 798618, 799012, 799399, 799798, 800169]","[791927, 792306, 792713, 793105, 793522, 793901, 794312, 794689, 795094, 795497, 795898, 796289, 796669, 797085, 797484, 797872, 798277, 798691, 799109, 799497, 799892, 800288]","[192, 5, 227, 5, 112, 17, 199, 229, 180, 220, 185, 184, 202, 175, 176, 189, 200, 169, 169, 230, 221, 180]","[791877, 792247, 792646, 793035, 793453, 793831, 794247, 794616, 795009, 795418, 795816, 796210, 796611, 797021, 797405, 797813, 798215, 798623, 799019, 799405, 799803, 800175]","[791092, 791491, 791891, 792291, 792691, 793091, 793491, 793891, 794262, 794631, 795023, 795433, 795831, 796225, 796626, 797035, 797419, 797828, 798230, 798638, 799032, 799419, 799818, 800189]",100,SB,U,R,ITMSR,1.1,
3,600,trial,0,33,33,33,trial,"['S', 'S', 'S', 'S', 'S', 'S', 'C', 'C', 'C', 'C', 'C', 'C', 'C', 'C', 'C', 'C', 'C', 'C', 'C', 'C', 'C', 'C']","[807098, 807676, 808275, 808860, 809466, 810071, 810715, 811326, 811933, 812558, 813168, 813785, 814407, 815046, 815676, 816327, 816961, 817568, 818166, 818795, 819442, 820062]","[807263, 807895, 808506, 809122, 809712, 810301, 810980, 811636, 812243, 812882, 813506, 814152, 814767, 815322, 816018, 816662, 817277, 817940, 818548, 819172, 819793]","[45, 6, 252, 14, 233, 5, 17, 19, 253, 24, 5, 255, 8, 246, 223, 237, 249, 1, 249, 243, 4]","[807103, 807681, 808420, 809026, 809596, 810216, 810720, 811475, 812088, 812758, 813364, 814031, 814618, 815208, 815911, 816548, 817181, 817763, 818442, 819018, 819657]","[805879, 806479, 807079, 807680, 808280, 808880, 809480, 810080, 810735, 811346, 811953, 812578, 813188, 813805, 814427, 815066, 815696, 816347, 816982, 817588, 818186, 818816, 819462, 820082]",100,SB,U,R,ITMSR,1.1,
1,600,trial,0,34,34,34,trial,"['S', 'S', 'S', 'S', 'S', 'S', 'C', 'C', 'C', 'C', 'C', 'C', 'C', 'C', 'C', 'C', 'C', 'C', 'C', 'C', 'C', 'C']","[826798, 827375, 828000, 828618, 829207, 829877, 830471, 831067, 831650, 832280, 832905, 833541, 834161, 834774, 835386, 836018, 836627, 837213, 837859, 838473, 839073, 839686]","[827002, 827660, 828320, 828912, 829501, 830139, 830779, 831404, 832006, 832642, 833235, 833815, 834424, 835108, 835689, 836301, 836927, 837548, 838180, 838809, 839399, 839941]","[255, 224, 227, 251, 1, 240, 4, 2, 0, 11, 11, 242, 219, 239, 249, 187, 251, 253, 0, 245, 241, 246]","[826803, 827380, 828151, 828782, 829362, 830022, 830675, 831275, 831892, 832501, 833095, 833680, 834314, 834972, 835566, 836190, 836843, 837429, 838043, 838674, 839263, 839836]","[825654, 826253, 826853, 827453, 828053, 828653, 829253, 829853, 830491, 831087, 831670, 832301, 832925, 833561, 834181, 834794, 835406, 836038, 836647, 837233, 837879, 838493, 839093, 839706]",100,SB,U,R,ITMSR,1.1,
2,600,trial,0,35,35,35,trial,"['S', 'S', 'S', 'S', 'S', 'S', 'C', 'C', 'C', 'C', 'C', 'C', 'C', 'C', 'C', 'C', 'C', 'C', 'C', 'C', 'C', 'C']","[846340, 846908, 847523, 848131, 848732, 849323, 849937, 850544, 851144, 851735, 852333, 852924, 853539, 854169, 854768, 855383, 855983, 856605, 857240, 857823, 858418, 859004]","[846543, 847192, 847804, 848422, 849042, 849617, 850236, 850837, 851427, 852023, 852645, 853229, 853834, 854452, 855093, 855668, 856246, 856875, 857462, 858084, 858661, 859235]","[209, 246, 9, 15, 4, 15, 229, 247, 0, 254, 246, 10, 8, 221, 252, 221, 2, 241, 203, 235, 228, 198]","[846446, 846913, 847645, 848294, 848937, 849469, 850118, 850731, 851313, 851911, 852529, 853104, 853721, 854342, 854988, 855544, 856137, 856760, 857370, 857976, 858555, 859119]","[845150, 845749, 846349, 846949, 847549, 848149, 848749, 849349, 849957, 850564, 851164, 851756, 852354, 852944, 853559, 854189, 854788, 855403, 856003, 856625, 857261, 857843, 858438, 859024]",100,SB,U,R,ITMSR,1.1,
4,600,trial,0,36,36,36,trial,"['S', 'S', 'S', 'S', 'S', 'S', 'S', 'C', 'C', 'C', 'C', 'C', 'C', 'C', 'C', 'C', 'C', 'C', 'C', 'C', 'C', 'C', 'C']","[865354, 865915, 866510, 867097, 867701, 868312, 868924, 869513, 870137, 870721, 871323, 871933, 872546, 873167, 873812, 874368, 874917, 875567, 876158, 876760, 877332, 877930, 878554]","[865410, 866081, 866765, 867406, 867992, 868606, 869171, 869836, 870448, 871010, 871575, 872194, 872801, 873427, 874065, 874665, 875253, 875880, 876448, 877067, 877554, 878189, 878793]","[25, 83, 174, 209, 212, 207, 199, 233, 209, 232, 226, 0, 213, 195, 176, 215, 226, 229, 224, 214, 189, 202, 171]","[865360, 866014, 866651, 867266, 867855, 868455, 869047, 869711, 870323, 870899, 871462, 872079, 872685, 873313, 873939, 874568, 875109, 875741, 876334, 876967, 877470, 878102, 878692]","[864751, 865351, 865951, 866551, 867151, 867751, 868352, 868952, 869533, 870157, 870742, 871343, 871953, 872566, 873187, 873832, 874388, 874937, 875587, 876178, 876780, 877352, 877950, 878574]",100,SB,U,R,ITMSR,1.1,
1,600,trial,0,37,37,37,trial,"['S', 'S', 'S', 'S', 'S', 'S', 'C', 'C', 'C', 'C', 'C', 'C', 'C', 'C', 'C', 'C', 'C', 'C', 'C', 'C', 'C', 'C']","[885414, 885913, 886466, 887079, 887656, 888235, 888833, 889404, 890046, 890635, 891216, 891858, 892479, 893091, 893682, 894290, 894927, 895559, 896139, 896780, 897377, 898013]","[885480, 886039, 886664, 887252, 887838, 888435, 889026, 889652, 890279, 890831, 891438, 892106, 892695, 893314, 893919, 894535, 895196, 895817, 896369, 896976, 897614, 898248]","[80, 220, 9, 179, 98, 178, 218, 187, 227, 242, 249, 216, 144, 76, 159, 126, 154, 175, 181, 127, 170, 219]","[885446, 885979, 886572, 887170, 887744, 888346, 888950, 889528, 890200, 890742, 891342, 891998, 892601, 893196, 893790, 894409, 895077, 895684, 896288, 896885, 897492, 898130]","[884121, 884720, 885320, 885920, 886520, 887120, 887720, 888321, 888853, 889424, 890066, 890655, 891236, 891878, 892499, 893111, 893702, 894310, 894947, 895579, 896159, 896800, 897397, 898033]",100,SB,U,R,ITMSR,1.1,
5,600,trial,0,38,38,38,trial,"['S', 'S', 'S', 'S', 'S', 'S', 'C', 'C', 'C', 'C', 'C', 'C', 'C', 'C', 'C', 'C', 'C', 'C', 'C', 'C', 'C', 'C']","[904653, 905232, 905856, 906487, 907065, 907667, 908254, 908878, 909464, 910022, 910613, 911202, 911793, 912369, 912968, 913590, 914203, 914836, 915444, 916038, 916643, 917223]","[904842, 905513, 906175, 906787, 907353, 907944, 908528, 909143, 909740, 910266, 910888, 911439, 912018, 912612, 913255, 913799, 914447, 915094, 915748, 916324, 916975]","[216, 224, 32, 28, 14, 191, 209, 206, 229, 221, 227, 219, 212, 228, 233, 177, 178, 178, 192, 229, 174]","[904750, 905367, 905972, 906636, 907199, 907809, 908399, 909009, 909608, 910149, 910743, 911335, 911915, 912499, 913128, 913705, 914341, 914963, 915622, 916188, 916810]","[903500, 904099, 904699, 905299, 905900, 906499, 907099, 907699, 908274, 908898, 909485, 910042, 910633, 911222, 911813, 912389, 912988, 913610, 914223, 914856, 915464, 916058, 916663, 917243]",100,SB,U,R,ITMSR,1.1,
5,400,trial,0,39,39,39,trial,"['S', 'S', 'S', 'S', 'S', 'S', 'S', 'C', 'C', 'C', 'C', 'C', 'C', 'C', 'C', 'C', 'C', 'C', 'C', 'C', 'C', 'C', 'C']","[923361, 923822, 924148, 924538, 924949, 925339, 925735, 926106, 926489, 926882, 927272, 927705, 928113, 928498, 928910, 929335, 929734, 930128, 930544, 930912, 931281, 931678, 932072]","[923499, 923909, 924265, 924649, 925035, 925462, 925839, 926227, 926605, 926985, 927363, 927784, 928182, 928563, 928988, 929402, 929808, 930196, 930599, 930973, 931354, 931743, 932143]","[57, 154, 176, 146, 182, 184, 107, 113, 152, 103, 94, 101, 96, 122, 126, 105, 95, 126, 21, 179, 118, 36, 37]","[923437, 923826, 924154, 924544, 924953, 925344, 925742, 926175, 926494, 926888, 927280, 927710, 928119, 928503, 928915, 929341, 929740, 930135, 930551, 930918, 931288, 931683, 932079]","[922986, 923386, 923786, 924186, 924587, 924986, 925386, 925786, 926126, 926509, 926902, 927292, 927725, 928133, 928518, 928930, 929355, 929754, 930148, 930564, 930932, 931301, 931698, 932092]",100,SB,U,R,ITMSR,1.1,
0,400,trial,0,40,40,40,trial,"['S', 'S', 'S', 'S', 'S', 'S', 'C', 'C', 'C', 'C', 'C', 'C', 'C', 'C', 'C', 'C', 'C', 'C', 'C', 'C', 'C', 'C']","[938280, 938621, 939004, 939403, 939792, 940198, 940590, 941014, 941381, 941782, 942149, 942534, 942927, 943327, 943720, 944140, 944522, 944903, 945329, 945728, 946112, 946495]","[938342, 938698, 939092, 939481, 939867, 940262, 940673, 941077, 941453, 941840, 942222, 942606, 943009, 943401, 943793, 944198, 944542, 944980, 945392, 945805, 946192, 946582]","[167, 246, 13, 252, 224, 255, 200, 170, 198, 204, 199, 78, 106, 132, 168, 124, 166, 63, 112, 142, 185, 209]","[938285, 938626, 939009, 939408, 939798, 940204, 940595, 941018, 941387, 941788, 942154, 942541, 942934, 943332, 943725, 944146, 944527, 944910, 945335, 945733, 946117, 946500]","[937445, 937845, 938245, 938645, 939045, 939445, 939845, 940246, 940610, 941034, 941401, 941802, 942169, 942554, 942947, 943347, 943740, 944160, 944542, 944923, 945349, 945748, 946132, 946515]",100,SB,U,R,ITMSR,1.1,
0,400,trial,0,41,41,41,trial,"['S', 'S', 'S', 'S', 'S', 'S', 'S', 'C', 'C', 'C', 'C', 'C', 'C', 'C', 'C', 'C', 'C', 'C', 'C', 'C', 'C', 'C', 'C']","[952712, 953057, 953422, 953801, 954207, 954610, 954995, 955358, 955755, 956148, 956531, 956939, 957329, 957713, 958091, 958526, 958919, 959354, 959709, 960095, 960510, 960904, 961309]","[952764, 953131, 953507, 953903, 954265, 954685, 955060, 955449, 955826, 956243, 956637, 957036, 957424, 957792, 958193, 958619, 959006, 959425, 959790, 960192, 960607, 961007, 961418]","[104, 15, 173, 164, 68, 178, 162, 175, 183, 106, 71, 74, 83, 93, 86, 49, 34, 6, 34, 216, 186, 237, 216]","[952717, 953061, 953426, 953806, 954213, 954616, 955000, 955363, 955760, 956153, 956537, 956945, 957335, 957718, 958097, 958532, 958924, 959362, 959715, 960102, 960578, 960957, 961316]","[952220, 952621, 953021, 953421, 953821, 954221, 954621, 955021, 955378, 955776, 956168, 956551, 956959, 957349, 957733, 958111, 958546, 958939, 959374, 959729, 960115, 960530, 960924, 961329]",100,SB,U,R,ITMSR,1.1,
1,400,trial,0,42,42,42,trial,"['S', 'S', 'S', 'S', 'S', 'S', 'C', 'C', 'C', 'C', 'C', 'C', 'C', 'C', 'C', 'C', 'C', 'C', 'C', 'C', 'C', 'C']","[967650, 967998, 968392, 968749, 969175, 969574, 969985, 970392, 970780, 971166, 971560, 971925, 972323, 972729, 973134, 973540, 973948, 974319, 974706, 975094, 975511, 975926]","[967719, 968064, 968465, 968822, 969252, 969650, 970078, 970463, 970856, 971265, 971651, 972034, 972432, 972816, 973216, 973613, 974016, 974392, 974800, 975196, 975602, 976004]","[85, 47, 68, 98, 117, 107, 40, 71, 82, 59, 54, 4, 247, 254, 243, 207, 240, 218, 195, 218, 219, 6]","[967654, 968002, 968396, 968752, 969178, 969577, 969989, 970396, 970784, 971170, 971566, 971930, 972328, 972734, 973140, 973546, 973954, 974324, 974711, 975100, 975516, 975931]","[966833, 967233, 967633, 968033, 968433, 968834, 969234, 969634, 970005, 970413, 970800, 971186, 971580, 971945, 972343, 972749, 973154, 973560, 973968, 974339, 974726, 975114, 975532, 975946]",100,SB,U,R,ITMSR,1.1,
0,600,trial,0,43,43,43,trial,"['S', 'S', 'S', 'S', 'S', 'S', 'C', 'C', 'C', 'C', 'C', 'C', 'C', 'C', 'C', 'C', 'C', 'C', 'C', 'C', 'C', 'C']","[982758, 983310, 983886, 984484, 985121, 985814, 986389, 987006, 987608, 988207, 988820, 989423, 990066, 990688, 991265, 991869, 992517, 993120, 993731, 994339, 994983, 995608]","[982943, 983613, 984241, 984813, 985436, 986074, 986710, 987290, 987941, 988532, 989156, 989712, 990377, 990991, 991611, 992199, 992726, 993414, 994054, 994705, 995346]","[71, 97, 100, 92, 88, 72, 81, 57, 29, 63, 68, 61, 49, 53, 51, 62, 15, 2, 45, 42, 40]","[982850, 983486, 984121, 984693, 985307, 985955, 986593, 987167, 987747, 988404, 989028, 989577, 990266, 990878, 991458, 992055, 992630, 993283, 993950, 994546, 995228]","[981603, 982203, 982803, 983403, 984003, 984603, 985203, 985803, 986409, 987026, 987628, 988227, 988840, 989443, 990086, 990708, 991285, 991889, 992537, 993140, 993752, 994359, 995003, 995629]",100,SB,U,R,ITMSR,1.1,
3,400,trial,0,44,44,44,trial,"['S', 'S', 'S', 'S', 'C', 'C', 'C', 'C', 'C', 'C', 'C', 'C', 'C', 'C', 'C', 'C', 'C', 'C', 'C', 'C']","[1002869, 1003270, 1003651, 1004060, 1004435, 1004823, 1005219, 1005616, 1006013, 1006427, 1006800, 1007217, 1007635, 1008052, 1008451, 1008828, 1009257, 1009661, 1010035, 1010444]","[1002961, 1003356, 1003758, 1004152, 1004539, 1004906, 1005332, 1005724, 1006110, 1006511, 1006892, 1007310, 1007714, 1008148, 1008549, 1008945, 1009343, 1009726, 1010138, 1010535]","[61, 56, 47, 39, 36, 233, 235, 19, 43, 252, 15, 12, 12, 233, 243, 6, 5, 219, 93, 172]","[1002873, 1003274, 1003655, 1004064, 1004438, 1004828, 1005224, 1005621, 1006018, 1006432, 1006804, 1007222, 1007640, 1008057, 1008456, 1008833, 1009262, 1009666, 1010042, 1010449]","[1001305, 1001705, 1002105, 1002505, 1002905, 1003305, 1003705, 1004105, 1004455, 1004844, 1005239, 1005636, 1006033, 1006447, 1006820, 1007237, 1007655, 1008072, 1008472, 1008848, 1009277, 1009681, 1010055, 1010464]",100,SB,U,R,ITMSR,1.1,
2,400,trial,0,45,45,45,trial,"['S', 'S', 'S', 'S', 'S', 'S', 'S', 'C', 'C', 'C', 'C', 'C', 'C', 'C', 'C', 'C', 'C', 'C', 'C', 'C', 'C', 'C', 'C']","[1016373, 1016970, 1017347, 1017722, 1018132, 1018531, 1018954, 1019362, 1019770, 1020181, 1020555, 1020953, 1021361, 1021757, 1022171, 1022586, 1023002, 1023406, 1023818, 1024223, 1024612, 1025001, 1025384]","[1016393, 1017038, 1017436, 1017829, 1018236, 1018656, 1019055, 1019433, 1019848, 1020278, 1020647, 1021025, 1021443, 1021837, 1022256, 1022676, 1023084, 1023510, 1023897, 1024310, 1024686, 1025058, 1025482]","[61, 53, 72, 32, 24, 63, 35, 44, 57, 56, 246, 35, 48, 18, 21, 9, 16, 2, 211, 229, 164, 212, 230]","[1016374, 1016974, 1017350, 1017726, 1018136, 1018535, 1018957, 1019366, 1019774, 1020185, 1020559, 1020957, 1021364, 1021761, 1022176, 1022590, 1023006, 1023410, 1023823, 1024228, 1024617, 1025006, 1025388]","[1016155, 1016554, 1016954, 1017354, 1017754, 1018155, 1018554, 1018954, 1019382, 1019790, 1020201, 1020575, 1020973, 1021381, 1021777, 1022191, 1022606, 1023022, 1023426, 1023838, 1024243, 1024632, 1025021, 1025404]",100,SB,U,R,ITMSR,1.1,
3,600,trial,0,46,46,46,trial,"['S', 'S', 'S', 'S', 'S', 'S', 'C', 'C', 'C', 'C', 'C', 'C', 'C', 'C', 'C', 'C', 'C', 'C', 'C', 'C', 'C', 'C']","[1031982, 1032579, 1033170, 1033767, 1034341, 1034921, 1035528, 1036105, 1036688, 1037294, 1037889, 1038502, 1039131, 1039740, 1040352, 1040934, 1041592, 1042192, 1042779, 1043362, 1043990, 1044645]","[1032122, 1032817, 1033435, 1034070, 1034638, 1035237, 1035819, 1036403, 1036962, 1037578, 1038186, 1038816, 1039447, 1040103, 1040662, 1041293, 1041910, 1042524, 1043053, 1043739, 1044366]","[77, 107, 89, 75, 59, 76, 73, 81, 59, 29, 24, 38, 43, 28, 46, 39, 59, 48, 53, 57, 51]","[1031986, 1032582, 1033292, 1033771, 1034513, 1035141, 1035661, 1036273, 1036838, 1037450, 1038059, 1038704, 1039304, 1039912, 1040516, 1041142, 1041788, 1042403, 1042935, 1043618, 1044192]","[1030816, 1031416, 1032016, 1032616, 1033217, 1033816, 1034416, 1035016, 1035548, 1036125, 1036708, 1037314, 1037910, 1038522, 1039151, 1039760, 1040372, 1040954, 1041612, 1042212, 1042799, 1043382, 1044011, 1044665]",100,SB,U,R,ITMSR,1.1,
1,400,trial,0,47,47,47,trial,"['S', 'S', 'S', 'S', 'S', 'S', 'C', 'C', 'C', 'C', 'C', 'C', 'C', 'C', 'C', 'C', 'C', 'C', 'C', 'C', 'C', 'C']","[1051021, 1051350, 1051748, 1052124, 1052523, 1052909, 1053302, 1053701, 1054124, 1054532, 1054936, 1055325, 1055727, 1056120, 1056526, 1056898, 1057312, 1057734, 1058147, 1058567, 1058967, 1059346]","[1051086, 1051451, 1051847, 1052203, 1052605, 1052994, 1053385, 1053771, 1054191, 1054599, 1054996, 1055393, 1055802, 1056199, 1056605, 1057002, 1057386, 1057805, 1058221, 1058649, 1059054, 1059459]","[200, 32, 16, 239, 251, 243, 181, 182, 165, 161, 114, 219, 171, 164, 151, 86, 117, 36, 62, 64, 67, 39]","[1051025, 1051354, 1051752, 1052129, 1052527, 1052914, 1053306, 1053706, 1054129, 1054537, 1054940, 1055330, 1055731, 1056124, 1056530, 1056903, 1057318, 1057740, 1058152, 1058573, 1058972, 1059352]","[1050159, 1050558, 1050958, 1051358, 1051758, 1052158, 1052558, 1052958, 1053322, 1053721, 1054144, 1054552, 1054956, 1055345, 1055747, 1056140, 1056546, 1056918, 1057332, 1057754, 1058167, 1058587, 1058988, 1059366]",100,SB,U,R,ITMSR,1.1,
5,400,trial,0,48,48,48,trial,"['S', 'S', 'S', 'S', 'S', 'S', 'S', 'S', 'C', 'C', 'C', 'C', 'C', 'C', 'C', 'C', 'C', 'C', 'C', 'C', 'C', 'C', 'C', 'C']","[1065098, 1065416, 1065754, 1066102, 1066486, 1066865, 1067247, 1067635, 1068049, 1068405, 1068805, 1069199, 1069600, 1069985, 1070391, 1070792, 1071194, 1071574, 1072025, 1072438, 1072815, 1073212, 1073616, 1074011]","[1065236, 1065503, 1065840, 1066193, 1066570, 1066942, 1067319, 1067711, 1068122, 1068490, 1068883, 1069276, 1069667, 1070055, 1070470, 1070857, 1071265, 1071641, 1072072, 1072494, 1072874, 1073274, 1073665, 1074060]","[13, 235, 64, 130, 170, 70, 43, 116, 107, 79, 37, 41, 15, 99, 237, 95, 234, 217, 149, 220, 223, 208, 189, 137]","[1065138, 1065456, 1065760, 1066107, 1066491, 1066871, 1067252, 1067641, 1068055, 1068410, 1068812, 1069205, 1069606, 1069990, 1070436, 1070796, 1071199, 1071579, 1072030, 1072442, 1072821, 1073218, 1073622, 1074017]","[1064911, 1065311, 1065711, 1066112, 1066511, 1066911, 1067311, 1067711, 1068069, 1068425, 1068825, 1069219, 1069620, 1070005, 1070411, 1070812, 1071214, 1071594, 1072045, 1072458, 1072835, 1073232, 1073636, 1074031]",100,SB,U,R,ITMSR,1.1,
2,400,trial,0,49,49,49,trial,"['S', 'S', 'S', 'S', 'S', 'S', 'S', 'C', 'C', 'C', 'C', 'C', 'C', 'C', 'C', 'C', 'C', 'C', 'C', 'C', 'C', 'C', 'C']","[1079986, 1080369, 1080776, 1081142, 1081561, 1082007, 1082398, 1082802, 1083191, 1083561, 1083941, 1084336, 1084732, 1085154, 1085537, 1085974, 1086358, 1086747, 1087102, 1087457, 1087823, 1088223, 1088618]","[1080083, 1080463, 1080852, 1081280, 1081653, 1082082, 1082499, 1082877, 1083261, 1083638, 1084040, 1084427, 1084827, 1085227, 1085612, 1086050, 1086419, 1086814, 1087178, 1087570, 1087936, 1088295, 1088681]","[13, 103, 78, 3, 95, 57, 19, 62, 48, 63, 234, 10, 6, 177, 16, 181, 208, 189, 232, 175, 123, 168, 6]","[1080045, 1080413, 1080782, 1081231, 1081566, 1082012, 1082404, 1082808, 1083196, 1083568, 1083948, 1084342, 1084738, 1085159, 1085543, 1086012, 1086365, 1086753, 1087109, 1087463, 1087896, 1088228, 1088625]","[1079645, 1080044, 1080444, 1080844, 1081244, 1081645, 1082045, 1082445, 1082822, 1083211, 1083581, 1083961, 1084356, 1084752, 1085174, 1085557, 1085995, 1086379, 1086767, 1087122, 1087477, 1087843, 1088243, 1088638]",100,SB,U,R,ITMSR,1.1,
3,400,trial,0,50,50,50,trial,"['S', 'S', 'S', 'S', 'S', 'S', 'S', 'C', 'C', 'C', 'C', 'C', 'C', 'C', 'C', 'C', 'C', 'C', 'C', 'C', 'C', 'C', 'C']","[1094535, 1094916, 1095278, 1095686, 1096072, 1096466, 1096836, 1097224, 1097636, 1098028, 1098439, 1098852, 1099268, 1099676, 1100106, 1100518, 1100923, 1101323, 1101751, 1102182, 1102577, 1102983, 1103375]","[1094603, 1095004, 1095355, 1095754, 1096133, 1096557, 1096904, 1097321, 1097714, 1098121, 1098531, 1098932, 1099346, 1099787, 1100196, 1100601, 1101009, 1101419, 1101839, 1102253, 1102651, 1103083, 1103466]","[206, 18, 27, 11, 15, 9, 3, 243, 245, 46, 36, 19, 246, 13, 14, 249, 1, 215, 189, 202, 222, 243, 209]","[1094540, 1094920, 1095283, 1095690, 1096076, 1096471, 1096841, 1097228, 1097641, 1098032, 1098443, 1098857, 1099273, 1099681, 1100111, 1100523, 1100928, 1101329, 1101756, 1102188, 1102583, 1102988, 1103381]","[1094110, 1094510, 1094910, 1095310, 1095710, 1096110, 1096510, 1096910, 1097244, 1097656, 1098048, 1098459, 1098872, 1099288, 1099696, 1100126, 1100538, 1100943, 1101343, 1101771, 1102202, 1102597, 1103003, 1103395]",100,SB,U,R,ITMSR,1.1,
2,600,trial,0,51,51,51,trial,"['S', 'S', 'S', 'S', 'S', 'S', 'S', 'S', 'C', 'C', 'C', 'C', 'C', 'C', 'C', 'C', 'C', 'C', 'C', 'C', 'C', 'C', 'C', 'C']","[1109326, 1109620, 1110142, 1110788, 1111432, 1112014, 1112650, 1113308, 1113886, 1114512, 1115120, 1115716, 1116347, 1116966, 1117597, 1118184, 1118779, 1119406, 1120026, 1120687, 1121338, 1121960, 1122550, 1123210]","[1109392, 1109692, 1110260, 1111032, 1111734, 1112340, 1113001, 1113643, 1114236, 1114822, 1115466, 1116048, 1116659, 1117304, 1117885, 1118437, 1119123, 1119754, 1120380, 1121030, 1121708, 1122339, 1122954]","[248, 225, 251, 21, 33, 19, 204, 194, 208, 206, 210, 242, 226, 219, 252, 232, 233, 243, 237, 198, 201, 222, 231]","[1109331, 1109626, 1110149, 1110918, 1111615, 1112181, 1112655, 1113525, 1114105, 1114710, 1115319, 1115721, 1116515, 1116972, 1117786, 1118354, 1118980, 1119627, 1120273, 1120926, 1121624, 1122262, 1122831]","[1109133, 1109733, 1110333, 1110933, 1111533, 1112133, 1112733, 1113333, 1113906, 1114532, 1115140, 1115736, 1116367, 1116986, 1117617, 1118204, 1118799, 1119426, 1120046, 1120707, 1121358, 1121980, 1122570, 1123230]",100,SB,U,R,ITMSR,1.1,
5,600,trial,0,52,52,52,trial,"['S', 'S', 'S', 'S', 'S', 'S', 'C', 'C', 'C', 'C', 'C', 'C', 'C', 'C', 'C', 'C', 'C', 'C', 'C', 'C', 'C', 'C']","[1129988, 1130561, 1131154, 1131753, 1132380, 1133005, 1133592, 1134213, 1134828, 1135444, 1136068, 1136643, 1137272, 1137925, 1138549, 1139130, 1139685, 1140298, 1140942, 1141522, 1142157, 1142788]","[1130163, 1130798, 1131415, 1132037, 1132691, 1133281, 1133867, 1134502, 1135116, 1135751, 1136369, 1136963, 1137557, 1138098, 1138786, 1139337, 1139905, 1140487, 1141110, 1141735, 1142370, 1143032]","[70, 35, 25, 3, 23, 248, 228, 16, 234, 21, 1, 16, 21, 222, 33, 31, 251, 247, 249, 250, 251, 31]","[1129992, 1130565, 1131159, 1131758, 1132384, 1133010, 1133756, 1134217, 1134833, 1135450, 1136269, 1136850, 1137476, 1138017, 1138706, 1139256, 1139689, 1140416, 1141038, 1141665, 1142266, 1142950]","[1128779, 1129379, 1129979, 1130579, 1131180, 1131779, 1132379, 1132979, 1133613, 1134233, 1134849, 1135464, 1136088, 1136663, 1137292, 1137945, 1138569, 1139150, 1139705, 1140318, 1140962, 1141542, 1142177, 1142808]",100,SB,U,R,ITMSR,1.1,
4,600,trial,0,53,53,53,trial,"['S', 'S', 'S', 'S', 'S', 'S', 'C', 'C', 'C', 'C', 'C', 'C', 'C', 'C', 'C', 'C', 'C', 'C', 'C', 'C', 'C', 'C']","[1149533, 1150057, 1150671, 1151339, 1151881, 1152460, 1153048, 1153646, 1154219, 1154861, 1155444, 1156027, 1156617, 1157213, 1157820, 1158453, 1159044, 1159654, 1160212, 1160826, 1161423, 1162033]","[1149632, 1150194, 1150782, 1151452, 1152126, 1152691, 1153274, 1153880, 1154471, 1155045, 1155663, 1156213, 1156789, 1157364, 1158019, 1158587, 1159159, 1159780, 1160376, 1161010, 1161611, 1162233]","[253, 19, 11, 221, 9, 2, 245, 13, 5, 241, 31, 242, 221, 181, 6, 210, 180, 164, 249, 211, 240, 217]","[1149539, 1150062, 1150676, 1151344, 1151886, 1152465, 1153053, 1153796, 1154381, 1154956, 1155584, 1156124, 1156721, 1157301, 1157929, 1158529, 1159106, 1159733, 1160307, 1160919, 1161526, 1162159]","[1148339, 1148939, 1149539, 1150139, 1150739, 1151339, 1151939, 1152539, 1153069, 1153666, 1154239, 1154881, 1155464, 1156047, 1156637, 1157233, 1157840, 1158473, 1159064, 1159674, 1160232, 1160846, 1161443, 1162053]",100,SB,U,R,ITMSR,1.1,
4,600,trial,0,54,54,54,trial,"['S', 'S', 'S', 'S', 'S', 'S', 'S', 'S', 'C', 'C', 'C', 'C', 'C', 'C', 'C', 'C', 'C', 'C', 'C', 'C', 'C', 'C', 'C', 'C']","[1175170, 1175628, 1176185, 1176786, 1177405, 1178001, 1178591, 1179195, 1179797, 1180419, 1181032, 1181625, 1182234, 1182866, 1183449, 1184052, 1184610, 1185253, 1185871, 1186470, 1187119, 1187742, 1188336, 1188964]","[1175282, 1175837, 1176480, 1177120, 1177720, 1178286, 1178880, 1179472, 1180083, 1180695, 1181322, 1181901, 1182452, 1183130, 1183729, 1184317, 1184899, 1185546, 1186168, 1186779, 1187395, 1188021, 1188645]","[17, 243, 37, 44, 7, 6, 29, 27, 36, 9, 63, 43, 31, 45, 25, 38, 49, 56, 50, 65, 23, 51, 29]","[1175175, 1175633, 1176334, 1176968, 1177558, 1178167, 1178762, 1179351, 1179986, 1180549, 1181201, 1181780, 1182362, 1183022, 1183579, 1184201, 1184773, 1185429, 1186052, 1186651, 1187294, 1187902, 1188499]","[1175014, 1175614, 1176214, 1176814, 1177414, 1178014, 1178614, 1179214, 1179817, 1180439, 1181052, 1181645, 1182254, 1182886, 1183469, 1184072, 1184630, 1185273, 1185891, 1186490, 1187139, 1187762, 1188356, 1188984]",100,SB,U,R,ITMSR,1.1,
2,600,trial,0,55,55,55,trial,"['S', 'S', 'S', 'S', 'S', 'S', 'C', 'C', 'C', 'C', 'C', 'C', 'C', 'C', 'C', 'C', 'C', 'C', 'C', 'C', 'C', 'C']","[1195739, 1196344, 1196976, 1197571, 1198180, 1198818, 1199430, 1200017, 1200567, 1201166, 1201770, 1202349, 1202942, 1203532, 1204098, 1204729, 1205299, 1205898, 1206480, 1207073, 1207688, 1208315]","[1195852, 1196499, 1197146, 1197774, 1198381, 1198983, 1199563, 1200189, 1200733, 1201319, 1201938, 1202610, 1203177, 1203762, 1204386, 1204959, 1205577, 1206117, 1206737, 1207350, 1207932, 1208540]","[252, 253, 239, 3, 202, 162, 174, 141, 80, 227, 42, 220, 244, 219, 223, 242, 17, 238, 243, 245, 204, 240]","[1195744, 1196348, 1196981, 1197575, 1198185, 1198894, 1199436, 1200098, 1200655, 1201268, 1201865, 1202521, 1203093, 1203666, 1204264, 1204851, 1205465, 1206037, 1206640, 1207201, 1207814, 1208454]","[1194605, 1195205, 1195805, 1196405, 1197005, 1197605, 1198205, 1198806, 1199450, 1200037, 1200587, 1201186, 1201790, 1202369, 1202962, 1203552, 1204118, 1204749, 1205319, 1205918, 1206500, 1207093, 1207708, 1208335]",100,SB,U,R,ITMSR,1.1,
0,400,trial,0,56,56,56,trial,"['S', 'S', 'S', 'S', 'S', 'S', 'S', 'S', 'C', 'C', 'C', 'C', 'C', 'C', 'C', 'C', 'C', 'C', 'C', 'C', 'C', 'C', 'C', 'C']","[1214113, 1214494, 1214832, 1215131, 1215476, 1215864, 1216238, 1216607, 1216994, 1217361, 1217727, 1218101, 1218506, 1218893, 1219307, 1219651, 1220029, 1220383, 1220773, 1221189, 1221549, 1221947, 1222321, 1222682]","[1214162, 1214550, 1214852, 1215196, 1215562, 1215946, 1216320, 1216675, 1217079, 1217422, 1217801, 1218180, 1218576, 1218965, 1219364, 1219749, 1220110, 1220475, 1220849, 1221257, 1221623, 1221989, 1222388, 1222749]","[212, 180, 148, 176, 171, 153, 115, 139, 111, 109, 135, 130, 58, 38, 117, 91, 136, 7, 86, 242, 61, 64, 76, 77]","[1214118, 1214499, 1214837, 1215136, 1215480, 1215869, 1216244, 1216612, 1217000, 1217368, 1217732, 1218106, 1218511, 1218900, 1219313, 1219656, 1220034, 1220429, 1220780, 1221195, 1221555, 1221953, 1222326, 1222687]","[1213903, 1214302, 1214702, 1215102, 1215502, 1215902, 1216302, 1216702, 1217014, 1217381, 1217747, 1218121, 1218526, 1218913, 1219328, 1219672, 1220049, 1220403, 1220793, 1221209, 1221569, 1221967, 1222341, 1222702]",100,SB,U,R,ITMSR,1.1,
1,600,trial,0,57,57,57,trial,"['S', 'S', 'S', 'S', 'S', 'S', 'C', 'C', 'C', 'C', 'C', 'C', 'C', 'C', 'C', 'C', 'C', 'C', 'C', 'C', 'C', 'C']","[1229491, 1230034, 1230639, 1231246, 1231818, 1232457, 1233074, 1233627, 1234202, 1234793, 1235383, 1235950, 1236527, 1237112, 1237685, 1238319, 1238844, 1239404, 1239987, 1240555, 1241171, 1241775]","[1229579, 1230138, 1230775, 1231355, 1231940, 1232523, 1233202, 1233765, 1234340, 1234935, 1235496, 1236069, 1236636, 1237216, 1237811, 1238387, 1238992, 1239537, 1240102, 1240678, 1241280, 1241852]","[140, 202, 255, 154, 179, 107, 138, 115, 118, 138, 56, 94, 120, 68, 80, 56, 88, 55, 42, 107, 34, 246]","[1229497, 1230039, 1230643, 1231251, 1231823, 1232462, 1233080, 1233633, 1234208, 1234798, 1235389, 1235955, 1236532, 1237117, 1237691, 1238325, 1238935, 1239411, 1239993, 1240562, 1241178, 1241781]","[1228312, 1228912, 1229512, 1230112, 1230712, 1231312, 1231912, 1232513, 1233094, 1233647, 1234222, 1234813, 1235403, 1235970, 1236547, 1237132, 1237705, 1238339, 1238864, 1239425, 1240007, 1240576, 1241191, 1241795]",100,SB,U,R,ITMSR,1.1,
1,400,trial,0,58,58,58,trial,"['S', 'S', 'S', 'S', 'S', 'C', 'C', 'C', 'C', 'C', 'C', 'C', 'C', 'C', 'C', 'C', 'C', 'C', 'C', 'C', 'C']","[1248690, 1249071, 1249468, 1249828, 1250223, 1250592, 1251000, 1251384, 1251752, 1252107, 1252485, 1252893, 1253260, 1253630, 1254036, 1254413, 1254816, 1255206, 1255597, 1255975, 1256360]","[1248710, 1249162, 1249534, 1249902, 1250290, 1250680, 1251020, 1251440, 1251819, 1252186, 1252576, 1252989, 1253356, 1253745, 1254117, 1254504, 1254898, 1255303, 1255685, 1256070, 1256458]","[195, 253, 143, 180, 121, 152, 7, 59, 74, 84, 19, 252, 30, 249, 47, 84, 8, 16, 240, 251, 218]","[1248694, 1249075, 1249472, 1249832, 1250229, 1250596, 1251004, 1251390, 1251757, 1252112, 1252491, 1252897, 1253265, 1253638, 1254042, 1254418, 1254823, 1255214, 1255602, 1255982, 1256412]","[1247507, 1247907, 1248307, 1248707, 1249107, 1249507, 1249907, 1250307, 1250612, 1251020, 1251404, 1251772, 1252127, 1252505, 1252913, 1253280, 1253650, 1254056, 1254433, 1254836, 1255226, 1255617, 1255995, 1256380]",100,SB,U,R,ITMSR,1.1,
0,400,trial,0,59,59,59,trial,"['S', 'S', 'S', 'S', 'S', 'S', 'C', 'C', 'C', 'C', 'C', 'C', 'C', 'C', 'C', 'C', 'C', 'C', 'C', 'C', 'C', 'C']","[1262881, 1263272, 1263655, 1264079, 1264486, 1264880, 1265282, 1265670, 1266093, 1266481, 1266852, 1267248, 1267622, 1267988, 1268396, 1268780, 1269169, 1269551, 1269941, 1270331, 1270710, 1271080]","[1262949, 1263349, 1263750, 1264137, 1264560, 1264955, 1265346, 1265737, 1266143, 1266544, 1266948, 1267319, 1267710, 1268073, 1268467, 1268880, 1269264, 1269643, 1270005, 1270414, 1270785, 1271158]","[180, 185, 234, 142, 162, 130, 76, 93, 121, 96, 214, 31, 191, 21, 6, 195, 4, 19, 56, 47, 227, 38]","[1262886, 1263278, 1263661, 1264084, 1264491, 1264886, 1265287, 1265677, 1266098, 1266487, 1266860, 1267253, 1267629, 1267995, 1268402, 1268834, 1269175, 1269558, 1269947, 1270339, 1270717, 1271089]","[1262096, 1262496, 1262896, 1263296, 1263696, 1264096, 1264496, 1264897, 1265302, 1265690, 1266113, 1266501, 1266872, 1267268, 1267642, 1268008, 1268416, 1268800, 1269189, 1269571, 1269961, 1270351, 1270730, 1271100]",100,SB,U,R,ITMSR,1.1,
2,600,trial,0,60,60,60,trial,"['S', 'S', 'S', 'S', 'S', 'S', 'S', 'C', 'C', 'C', 'C', 'C', 'C', 'C', 'C', 'C', 'C', 'C', 'C', 'C', 'C', 'C', 'C']","[1277102, 1277826, 1278441, 1279064, 1279656, 1280222, 1280826, 1281468, 1282033, 1282646, 1283228, 1283826, 1284456, 1285081, 1285649, 1286298, 1286885, 1287476, 1288045, 1288623, 1289219, 1289866, 1290486]","[1277122, 1277982, 1278665, 1279308, 1279915, 1280515, 1281132, 1281752, 1282366, 1282910, 1283528, 1284103, 1284725, 1285334, 1285939, 1286550, 1287161, 1287731, 1288293, 1288930, 1289507, 1290147]","[234, 98, 47, 234, 0, 25, 4, 188, 153, 222, 226, 209, 227, 246, 223, 167, 192, 160, 191, 207, 217, 223]","[1277107, 1277830, 1278557, 1279069, 1279804, 1280371, 1280999, 1281626, 1282205, 1282808, 1283436, 1283982, 1284631, 1285218, 1285795, 1286418, 1287046, 1287620, 1288186, 1288833, 1289388, 1290046]","[1276699, 1277298, 1277898, 1278498, 1279098, 1279698, 1280299, 1280898, 1281488, 1282053, 1282666, 1283248, 1283846, 1284476, 1285101, 1285669, 1286318, 1286905, 1287496, 1288066, 1288643, 1289239, 1289886, 1290506]",100,SB,U,R,ITMSR,1.1,
2,400,trial,0,61,61,61,trial,"['S', 'S', 'S', 'S', 'S', 'S', 'S', 'C', 'C', 'C', 'C', 'C', 'C', 'C', 'C', 'C', 'C', 'C', 'C', 'C', 'C', 'C', 'C']","[1296421, 1296705, 1297042, 1297433, 1297790, 1298196, 1298576, 1298983, 1299343, 1299723, 1300107, 1300511, 1300937, 1301346, 1301741, 1302148, 1302552, 1302962, 1303351, 1303744, 1304145, 1304564, 1304973]","[1296475, 1296775, 1297125, 1297517, 1297893, 1298283, 1298672, 1299085, 1299442, 1299799, 1300188, 1300602, 1301002, 1301413, 1301823, 1302235, 1302649, 1303055, 1303458, 1303866, 1304260, 1304669, 1305082]","[199, 236, 253, 237, 3, 254, 217, 213, 199, 228, 253, 217, 210, 225, 217, 23, 177, 232, 223, 189, 241, 222, 160]","[1296424, 1296708, 1297046, 1297437, 1297796, 1298201, 1298581, 1298989, 1299348, 1299728, 1300111, 1300516, 1300942, 1301351, 1301746, 1302198, 1302558, 1302968, 1303356, 1303800, 1304151, 1304569, 1305027]","[1295882, 1296281, 1296681, 1297081, 1297481, 1297881, 1298281, 1298681, 1299003, 1299363, 1299743, 1300127, 1300531, 1300957, 1301366, 1301762, 1302168, 1302573, 1302982, 1303371, 1303764, 1304165, 1304584, 1304993]",100,SB,U,R,ITMSR,1.1,
3,400,trial,0,62,62,62,trial,"['S', 'S', 'S', 'S', 'S', 'S', 'C', 'C', 'C', 'C', 'C', 'C', 'C', 'C', 'C', 'C', 'C', 'C', 'C', 'C', 'C', 'C']","[1311349, 1311751, 1312153, 1312565, 1312932, 1313326, 1313700, 1314061, 1314417, 1314835, 1315214, 1315629, 1316015, 1316384, 1316741, 1317135, 1317534, 1317913, 1318262, 1318683, 1319129, 1319532]","[1311420, 1311843, 1312254, 1312638, 1313003, 1313398, 1313779, 1314147, 1314498, 1314905, 1315281, 1315682, 1316078, 1316464, 1316837, 1317212, 1317612, 1318008, 1318371, 1318774, 1319196, 1319608]","[202, 87, 20, 208, 206, 209, 199, 177, 178, 197, 175, 192, 124, 121, 117, 27, 115, 164, 0, 120, 200, 171]","[1311354, 1311755, 1312158, 1312569, 1312937, 1313332, 1313707, 1314066, 1314423, 1314840, 1315221, 1315635, 1316022, 1316390, 1316746, 1317180, 1317540, 1317920, 1318329, 1318689, 1319135, 1319538]","[1310565, 1310965, 1311365, 1311765, 1312165, 1312565, 1312965, 1313366, 1313720, 1314081, 1314437, 1314855, 1315234, 1315649, 1316035, 1316404, 1316761, 1317155, 1317554, 1317933, 1318282, 1318703, 1319149, 1319553]",100,SB,U,R,ITMSR,1.1,
2,400,trial,0,63,63,63,trial,"['S', 'S', 'S', 'S', 'S', 'S', 'C', 'C', 'C', 'C', 'C', 'C', 'C', 'C', 'C', 'C', 'C', 'C', 'C', 'C', 'C', 'C']","[1325685, 1326016, 1326381, 1326808, 1327156, 1327548, 1327961, 1328316, 1328688, 1329069, 1329457, 1329838, 1330242, 1330641, 1331028, 1331411, 1331752, 1332161, 1332532, 1332902, 1333260, 1333661]","[1325748, 1326080, 1326471, 1326866, 1327273, 1327634, 1328048, 1328402, 1328772, 1329158, 1329548, 1329923, 1330311, 1330708, 1331093, 1331480, 1331862, 1332235, 1332600, 1332993, 1333349, 1333745]","[229, 207, 220, 237, 7, 207, 224, 100, 173, 157, 131, 160, 168, 140, 133, 133, 154, 108, 127, 21, 62, 5]","[1325688, 1326021, 1326386, 1326813, 1327160, 1327553, 1327966, 1328323, 1328693, 1329074, 1329462, 1329844, 1330248, 1330648, 1331034, 1331417, 1331758, 1332167, 1332537, 1332909, 1333267, 1333667]","[1324887, 1325285, 1325685, 1326085, 1326485, 1326885, 1327285, 1327685, 1327981, 1328336, 1328708, 1329089, 1329477, 1329858, 1330263, 1330661, 1331048, 1331431, 1331772, 1332182, 1332552, 1332922, 1333280, 1333681]",100,SB,U,R,ITMSR,1.1,
1,400,trial,0,64,64,64,trial,"['S', 'S', 'S', 'S', 'S', 'S', 'S', 'C', 'C', 'C', 'C', 'C', 'C', 'C', 'C', 'C', 'C', 'C', 'C', 'C', 'C', 'C', 'C']","[1339406, 1339769, 1340175, 1340597, 1341028, 1341444, 1341842, 1342271, 1342648, 1343039, 1343441, 1343836, 1344246, 1344650, 1345027, 1345419, 1345792, 1346209, 1346613, 1347011, 1347396, 1347767, 1348177]","[1339456, 1339846, 1340255, 1340692, 1341117, 1341527, 1341935, 1342370, 1342772, 1343131, 1343538, 1343907, 1344320, 1344730, 1345122, 1345516, 1345894, 1346306, 1346717, 1347099, 1347491, 1347856, 1348250]","[7, 255, 166, 115, 66, 207, 242, 209, 237, 186, 199, 106, 126, 116, 169, 225, 198, 199, 112, 128, 68, 96, 205]","[1339413, 1339777, 1340181, 1340602, 1341033, 1341450, 1341849, 1342278, 1342654, 1343080, 1343449, 1343840, 1344253, 1344657, 1345032, 1345475, 1345848, 1346253, 1346681, 1347017, 1347431, 1347808, 1348183]","[1339076, 1339476, 1339876, 1340276, 1340676, 1341076, 1341476, 1341876, 1342291, 1342668, 1343059, 1343461, 1343856, 1344266, 1344670, 1345047, 1345439, 1345812, 1346229, 1346633, 1347032, 1347416, 1347787, 1348197]",100,SB,U,R,ITMSR,1.1,
4,400,trial,0,65,65,65,trial,"['S', 'S', 'S', 'S', 'S', 'S', 'S', 'C', 'C', 'C', 'C', 'C', 'C', 'C', 'C', 'C', 'C', 'C', 'C', 'C', 'C', 'C', 'C']","[1354019, 1354372, 1354726, 1355104, 1355501, 1355867, 1356249, 1356630, 1357010, 1357408, 1357810, 1358209, 1358612, 1359040, 1359448, 1359806, 1360195, 1360686, 1361085, 1361490, 1361886, 1362275, 1362633]","[1354083, 1354424, 1354792, 1355166, 1355577, 1355950, 1356321, 1356740, 1357110, 1357484, 1357889, 1358324, 1358726, 1359156, 1359546, 1359933, 1360348, 1360768, 1361173, 1361565, 1361961, 1362359, 1362767]","[183, 64, 172, 98, 196, 155, 167, 124, 175, 40, 3, 238, 34, 124, 60, 89, 101, 229, 255, 206, 254, 11, 48]","[1354027, 1354377, 1354732, 1355110, 1355506, 1355873, 1356253, 1356636, 1357016, 1357415, 1357816, 1358216, 1358684, 1359046, 1359454, 1359812, 1360307, 1360730, 1361092, 1361529, 1361935, 1362282, 1362716]","[1353530, 1353930, 1354330, 1354730, 1355130, 1355530, 1355930, 1356331, 1356650, 1357030, 1357428, 1357830, 1358229, 1358632, 1359060, 1359468, 1359826, 1360216, 1360706, 1361105, 1361510, 1361906, 1362295, 1362653]",100,SB,U,R,ITMSR,1.1,
5,600,trial,0,66,66,66,trial,"['S', 'S', 'S', 'S', 'S', 'S', 'S', 'C', 'C', 'C', 'C', 'C', 'C', 'C', 'C', 'C', 'C', 'C', 'C', 'C', 'C', 'C', 'C']","[1368734, 1369502, 1370116, 1370726, 1371335, 1371951, 1372530, 1373119, 1373698, 1374321, 1374937, 1375534, 1376147, 1376758, 1377356, 1377927, 1378562, 1379164, 1379757, 1380362, 1380956, 1381581, 1382192]","[1368798, 1369696, 1370365, 1371016, 1371603, 1372195, 1372837, 1373424, 1374028, 1374609, 1375204, 1375858, 1376467, 1377091, 1377654, 1378284, 1378895, 1379491, 1380025, 1380648, 1381268, 1381840]","[120, 43, 68, 56, 64, 223, 39, 12, 37, 23, 244, 254, 234, 0, 228, 240, 247, 27, 3, 235, 238, 228]","[1368740, 1369507, 1370242, 1370885, 1371445, 1372105, 1372722, 1373317, 1373859, 1374496, 1375074, 1375761, 1376350, 1376950, 1377534, 1378152, 1378784, 1379364, 1379920, 1380535, 1381112, 1381739]","[1368380, 1368979, 1369579, 1370179, 1370779, 1371379, 1371979, 1372579, 1373139, 1373718, 1374341, 1374957, 1375554, 1376167, 1376778, 1377376, 1377947, 1378582, 1379184, 1379777, 1380382, 1380976, 1381601, 1382212]",100,SB,U,R,ITMSR,1.1,
0,600,trial,0,67,67,67,trial,"['S', 'S', 'S', 'S', 'S', 'S', 'S', 'C', 'C', 'C', 'C', 'C', 'C', 'C', 'C', 'C', 'C', 'C', 'C', 'C', 'C', 'C', 'C']","[1388324, 1388920, 1389521, 1390126, 1390739, 1391375, 1392009, 1392608, 1393238, 1393848, 1394449, 1395046, 1395649, 1396239, 1396806, 1397419, 1398000, 1398580, 1399176, 1399756, 1400407, 1400991, 1401555]","[1388375, 1389099, 1389699, 1390412, 1391059, 1391719, 1392307, 1392883, 1393460, 1394149, 1394705, 1395350, 1395948, 1396508, 1397093, 1397663, 1398312, 1398858, 1399431, 1400058, 1400650, 1401302]","[97, 28, 22, 47, 50, 41, 43, 30, 211, 30, 4, 19, 46, 35, 33, 250, 23, 27, 31, 31, 28, 31]","[1388329, 1389016, 1389611, 1390258, 1390923, 1391536, 1392183, 1392757, 1393360, 1394024, 1394588, 1395208, 1395838, 1396382, 1396975, 1397570, 1398202, 1398748, 1399330, 1399928, 1400548, 1401204]","[1387836, 1388436, 1389036, 1389636, 1390236, 1390836, 1391436, 1392036, 1392628, 1393258, 1393868, 1394469, 1395066, 1395670, 1396259, 1396826, 1397439, 1398020, 1398600, 1399196, 1399776, 1400427, 1401011, 1401575]",100,SB,U,R,ITMSR,1.1,
5,400,trial,0,68,68,68,trial,"['S', 'S', 'S', 'S', 'S', 'S', 'C', 'C', 'C', 'C', 'C', 'C', 'C', 'C', 'C', 'C', 'C', 'C', 'C', 'C', 'C', 'C']","[1407817, 1408181, 1408587, 1408990, 1409386, 1409796, 1410174, 1410628, 1411008, 1411416, 1411831, 1412258, 1412669, 1413066, 1413501, 1413920, 1414340, 1414775, 1415178, 1415612, 1416032, 1416466]","[1407855, 1408238, 1408650, 1409069, 1409469, 1409876, 1410273, 1410704, 1411119, 1411516, 1411956, 1412372, 1412783, 1413193, 1413624, 1414040, 1414450, 1414889, 1415324, 1415712, 1416158, 1416581]","[150, 219, 185, 233, 213, 184, 187, 195, 185, 186, 173, 135, 80, 142, 173, 119, 65, 129, 141, 98, 94, 94]","[1407822, 1408186, 1408592, 1408995, 1409391, 1409801, 1410180, 1410634, 1411014, 1411421, 1411837, 1412326, 1412730, 1413154, 1413508, 1413982, 1414347, 1414844, 1415258, 1415672, 1416104, 1416527]","[1407025, 1407425, 1407825, 1408225, 1408625, 1409026, 1409426, 1409826, 1410194, 1410648, 1411028, 1411436, 1411851, 1412278, 1412689, 1413086, 1413521, 1413940, 1414360, 1414795, 1415198, 1415632, 1416052, 1416486]",100,SB,U,R,ITMSR,1.1,
3,400,trial,0,69,69,69,trial,"['S', 'S', 'S', 'S', 'S', 'S', 'S', 'C', 'C', 'C', 'C', 'C', 'C', 'C', 'C', 'C', 'C', 'C', 'C', 'C', 'C', 'C', 'C']","[1422678, 1423019, 1423411, 1423844, 1424243, 1424635, 1425038, 1425436, 1425839, 1426259, 1426682, 1427067, 1427490, 1427903, 1428276, 1428734, 1429165, 1429569, 1429975, 1430371, 1430774, 1431203, 1431576]","[1422772, 1423100, 1423490, 1423937, 1424329, 1424726, 1425127, 1425529, 1425955, 1426367, 1426769, 1427164, 1427589, 1427980, 1428392, 1428814, 1429244, 1429664, 1430059, 1430470, 1430882, 1431288, 1431697]","[146, 106, 184, 168, 107, 120, 160, 146, 170, 170, 96, 92, 97, 10, 129, 12, 247, 38, 237, 33, 47, 235, 94]","[1422684, 1423026, 1423416, 1423849, 1424249, 1424689, 1425044, 1425495, 1425899, 1426321, 1426735, 1427121, 1427549, 1427942, 1428352, 1428768, 1429209, 1429621, 1430027, 1430421, 1430835, 1431242, 1431641]","[1422253, 1422653, 1423053, 1423453, 1423853, 1424253, 1424653, 1425053, 1425456, 1425859, 1426279, 1426702, 1427087, 1427510, 1427923, 1428296, 1428754, 1429185, 1429590, 1429995, 1430391, 1430794, 1431223, 1431597]",100,SB,U,R,ITMSR,1.1,
5,400,trial,0,70,70,70,trial,"['S', 'S', 'S', 'S', 'S', 'S', 'C', 'C', 'C', 'C', 'C', 'C', 'C', 'C', 'C', 'C', 'C', 'C', 'C', 'C', 'C', 'C']","[1438161, 1438561, 1438979, 1439384, 1439806, 1440199, 1440596, 1441009, 1441401, 1441811, 1442206, 1442643, 1443065, 1443465, 1443879, 1444273, 1444651, 1445064, 1445471, 1445857, 1446255, 1446667]","[1438256, 1438680, 1439109, 1439517, 1439943, 1440330, 1440695, 1441100, 1441526, 1441911, 1442290, 1442726, 1443155, 1443562, 1443978, 1444364, 1444772, 1445167, 1445562, 1445976, 1446380, 1446824]","[55, 115, 94, 235, 133, 96, 34, 21, 154, 29, 150, 233, 205, 244, 193, 233, 32, 225, 218, 234, 214, 37]","[1438224, 1438567, 1439048, 1439453, 1439886, 1440277, 1440658, 1441052, 1441473, 1441857, 1442255, 1442684, 1443113, 1443523, 1443914, 1444314, 1444727, 1445107, 1445516, 1445913, 1446312, 1446752]","[1437392, 1437792, 1438192, 1438593, 1438992, 1439392, 1439792, 1440192, 1440616, 1441029, 1441421, 1441831, 1442226, 1442663, 1443085, 1443485, 1443899, 1444293, 1444671, 1445084, 1445491, 1445877, 1446275, 1446687]",100,SB,U,R,ITMSR,1.1,
4,600,trial,0,71,71,71,trial,"['S', 'S', 'S', 'S', 'S', 'S', 'S', 'C', 'C', 'C', 'C', 'C', 'C', 'C', 'C', 'C', 'C', 'C', 'C', 'C', 'C', 'C', 'C']","[1452533, 1453392, 1453954, 1454562, 1455163, 1455759, 1456354, 1456977, 1457615, 1458221, 1458834, 1459439, 1460043, 1460667, 1461314, 1461951, 1462583, 1463180, 1463799, 1464423, 1465035, 1465683, 1466342]","[1452610, 1453551, 1454197, 1454820, 1455415, 1455972, 1456623, 1457239, 1457842, 1458482, 1459043, 1459635, 1460307, 1460929, 1461539, 1462185, 1462771, 1463406, 1464075, 1464669, 1465315, 1465896, 1466550]","[253, 12, 14, 190, 214, 222, 255, 241, 202, 201, 146, 145, 173, 195, 140, 144, 142, 151, 183, 180, 173, 175, 128]","[1452566, 1453398, 1454060, 1454656, 1455312, 1455870, 1456518, 1457131, 1457755, 1458393, 1458949, 1459568, 1460211, 1460831, 1461452, 1462097, 1462686, 1463332, 1463931, 1464581, 1465195, 1465824, 1466457]","[1452217, 1452817, 1453417, 1454017, 1454617, 1455217, 1455817, 1456417, 1456997, 1457635, 1458241, 1458854, 1459459, 1460063, 1460687, 1461335, 1461971, 1462603, 1463200, 1463819, 1464443, 1465055, 1465703, 1466362]",100,SB,U,R,ITMSR,1.1,
0,600,trial,0,72,72,72,trial,"['S', 'S', 'S', 'S', 'S', 'S', 'C', 'C', 'C', 'C', 'C', 'C', 'C', 'C', 'C', 'C', 'C', 'C', 'C', 'C', 'C', 'C']","[1472883, 1473475, 1474103, 1474681, 1475287, 1475912, 1476544, 1477117, 1477719, 1478345, 1478967, 1479608, 1480204, 1480813, 1481390, 1482077, 1482745, 1483415, 1484019, 1484646, 1485289, 1485946]","[1473047, 1473682, 1474304, 1474867, 1475511, 1476076, 1476674, 1477355, 1477955, 1478541, 1479155, 1479758, 1480372, 1480999, 1481603, 1482272, 1482895, 1483577, 1484195, 1484824, 1485487, 1486090]","[210, 179, 213, 137, 125, 54, 14, 101, 127, 96, 88, 17, 80, 21, 57, 50, 204, 6, 35, 79, 75, 173]","[1472888, 1473592, 1474223, 1474782, 1475412, 1476006, 1476618, 1477270, 1477868, 1478474, 1479086, 1479692, 1480299, 1480913, 1481531, 1482182, 1482836, 1483501, 1484111, 1484765, 1485392, 1486015]","[1471750, 1472350, 1472950, 1473550, 1474150, 1474750, 1475350, 1475950, 1476564, 1477137, 1477739, 1478365, 1478987, 1479628, 1480224, 1480834, 1481410, 1482097, 1482765, 1483436, 1484039, 1484666, 1485309, 1485966]",100,SB,U,R,ITMSR,1.1,
3,600,trial,0,73,73,73,trial,"['S', 'S', 'S', 'S', 'S', 'S', 'S', 'C', 'C', 'C', 'C', 'C', 'C', 'C', 'C', 'C', 'C', 'C', 'C', 'C', 'C', 'C', 'C']","[1491818, 1492425, 1493019, 1493661, 1494257, 1494855, 1495468, 1496058, 1496670, 1497298, 1497914, 1498520, 1499136, 1499724, 1500357, 1500952, 1501552, 1502150, 1502756, 1503372, 1503996, 1504622, 1505224]","[1491838, 1492537, 1493169, 1493789, 1494440, 1495009, 1495641, 1496242, 1496787, 1497489, 1498072, 1498698, 1499325, 1499900, 1500520, 1501133, 1501755, 1502368, 1502941, 1503622, 1504219, 1504858, 1505478]","[239, 27, 248, 167, 184, 145, 149, 175, 93, 127, 85, 46, 157, 150, 41, 104, 101, 207, 172, 151, 181, 226, 226]","[1491822, 1492429, 1493023, 1493667, 1494361, 1494861, 1495575, 1496172, 1496737, 1497424, 1498008, 1498631, 1499261, 1499840, 1500453, 1501070, 1501672, 1502279, 1502852, 1503545, 1504113, 1504782, 1505373]","[1491278, 1491878, 1492478, 1493079, 1493678, 1494278, 1494878, 1495478, 1496078, 1496690, 1497318, 1497934, 1498541, 1499156, 1499744, 1500377, 1500973, 1501572, 1502170, 1502776, 1503392, 1504016, 1504642, 1505244]",100,SB,U,R,ITMSR,1.1,
3,600,trial,0,74,74,74,trial,"['S', 'S', 'S', 'S', 'S', 'S', 'S', 'C', 'C', 'C', 'C', 'C', 'C', 'C', 'C', 'C', 'C', 'C', 'C', 'C', 'C', 'C', 'C']","[1511170, 1511698, 1512333, 1512956, 1513551, 1514166, 1514795, 1515418, 1516046, 1516651, 1517274, 1517897, 1518510, 1519079, 1519706, 1520319, 1520940, 1521531, 1522167, 1522786, 1523397, 1524042, 1524660]","[1511293, 1511950, 1512641, 1513260, 1513900, 1514487, 1515104, 1515741, 1516357, 1516911, 1517548, 1518127, 1518798, 1519446, 1520057, 1520649, 1521126, 1521776, 1522482, 1523116, 1523747, 1524401]","[149, 188, 212, 213, 237, 223, 202, 196, 243, 215, 194, 201, 200, 212, 250, 231, 213, 221, 220, 235, 229, 227]","[1511175, 1511832, 1512529, 1513124, 1513761, 1514391, 1515004, 1515616, 1516232, 1516810, 1517425, 1518038, 1518668, 1519263, 1519954, 1520541, 1521054, 1521672, 1522360, 1522985, 1523607, 1524279]","[1510629, 1511228, 1511828, 1512428, 1513028, 1513628, 1514228, 1514828, 1515438, 1516066, 1516672, 1517294, 1517917, 1518530, 1519099, 1519726, 1520339, 1520960, 1521551, 1522187, 1522806, 1523417, 1524062, 1524680]",100,SB,U,R,ITMSR,1.1,
1,600,trial,0,75,75,75,trial,"['S', 'S', 'S', 'S', 'S', 'S', 'C', 'C', 'C', 'C', 'C', 'C', 'C', 'C', 'C', 'C', 'C', 'C', 'C', 'C', 'C', 'C']","[1531360, 1531976, 1532570, 1533180, 1533810, 1534400, 1534968, 1535582, 1536192, 1536799, 1537388, 1538060, 1538668, 1539265, 1539866, 1540488, 1541108, 1541735, 1542402, 1543023, 1543598, 1544178]","[1531610, 1532153, 1532771, 1533383, 1533973, 1534615, 1535205, 1535824, 1536436, 1537013, 1537612, 1538242, 1538894, 1539513, 1540125, 1540703, 1541326, 1541972, 1542614, 1543233, 1543836, 1544421]","[74, 40, 239, 12, 3, 5, 237, 229, 230, 239, 214, 197, 220, 10, 24, 5, 220, 240, 192, 220, 6, 235]","[1531490, 1532073, 1532652, 1533288, 1533892, 1534526, 1535091, 1535710, 1536320, 1536928, 1537516, 1538167, 1538791, 1539426, 1540028, 1540620, 1541244, 1541909, 1542516, 1543130, 1543762, 1544324]","[1530205, 1530805, 1531405, 1532005, 1532605, 1533205, 1533805, 1534405, 1534988, 1535602, 1536212, 1536819, 1537409, 1538080, 1538689, 1539286, 1539886, 1540508, 1541128, 1541755, 1542422, 1543043, 1543618, 1544198]",100,SB,U,R,ITMSR,1.1,
4,400,trial,0,76,76,76,trial,"['S', 'S', 'S', 'S', 'S', 'S', 'C', 'C', 'C', 'C', 'C', 'C', 'C', 'C', 'C', 'C', 'C', 'C', 'C', 'C', 'C', 'C']","[1550732, 1551071, 1551466, 1551844, 1552249, 1552671, 1553068, 1553435, 1553817, 1554214, 1554596, 1554956, 1555330, 1555704, 1556076, 1556463, 1556856, 1557263, 1557653, 1558039, 1558448, 1558820]","[1550786, 1551147, 1551562, 1551933, 1552329, 1552740, 1553154, 1553538, 1553900, 1554295, 1554677, 1555058, 1555423, 1555817, 1556206, 1556600, 1556986, 1557379, 1557770, 1558159, 1558558, 1558933]","[4, 244, 50, 243, 249, 197, 5, 254, 171, 157, 186, 158, 137, 174, 155, 157, 170, 143, 125, 106, 102, 33]","[1550736, 1551076, 1551470, 1551849, 1552254, 1552676, 1553073, 1553439, 1553854, 1554220, 1554603, 1554961, 1555378, 1555748, 1556147, 1556539, 1556924, 1557324, 1557710, 1558104, 1558506, 1558883]","[1549915, 1550315, 1550715, 1551115, 1551515, 1551916, 1552315, 1552715, 1553088, 1553455, 1553837, 1554234, 1554616, 1554976, 1555350, 1555724, 1556097, 1556483, 1556876, 1557283, 1557673, 1558060, 1558468, 1558840]",100,SB,U,R,ITMSR,1.1,
5,600,trial,0,77,77,77,trial,"['S', 'S', 'S', 'S', 'S', 'S', 'S', 'C', 'C', 'C', 'C', 'C', 'C', 'C', 'C', 'C', 'C', 'C', 'C', 'C', 'C', 'C', 'C']","[1565074, 1565827, 1566444, 1567020, 1567629, 1568198, 1568803, 1569393, 1570006, 1570625, 1571246, 1571826, 1572448, 1573061, 1573705, 1574284, 1574846, 1575478, 1576069, 1576680, 1577302, 1577886, 1578484]","[1565094, 1565944, 1566594, 1567308, 1567831, 1568436, 1569098, 1569681, 1570291, 1570865, 1571491, 1572057, 1572684, 1573330, 1573954, 1574581, 1575138, 1575787, 1576367, 1576954, 1577564, 1578177, 1578741]","[97, 7, 38, 22, 30, 20, 32, 23, 16, 5, 48, 34, 38, 23, 39, 52, 71, 51, 68, 42, 41, 70, 78]","[1565079, 1565832, 1566448, 1567024, 1567729, 1568289, 1568911, 1569548, 1570149, 1570753, 1571362, 1571946, 1572557, 1573192, 1573855, 1574458, 1575011, 1575645, 1576241, 1576829, 1577420, 1578050, 1578636]","[1564608, 1565207, 1565807, 1566407, 1567007, 1567607, 1568207, 1568807, 1569413, 1570026, 1570646, 1571266, 1571846, 1572468, 1573081, 1573725, 1574304, 1574866, 1575498, 1576089, 1576700, 1577322, 1577906, 1578504]",100,SB,U,R,ITMSR,1.1,
0,600,trial,0,78,78,78,trial,"['S', 'S', 'S', 'S', 'S', 'S', 'S', 'C', 'C', 'C', 'C', 'C', 'C', 'C', 'C', 'C', 'C', 'C', 'C', 'C', 'C', 'C', 'C']","[1588272, 1588828, 1589450, 1590042, 1590650, 1591264, 1591858, 1592468, 1593041, 1593622, 1594227, 1594801, 1595433, 1596033, 1596652, 1597238, 1597832, 1598467, 1599042, 1599679, 1600304, 1600931, 1601590]","[1588292, 1588958, 1589571, 1590225, 1590873, 1591469, 1592050, 1592664, 1593264, 1593841, 1594448, 1595029, 1595606, 1596240, 1596865, 1597479, 1598060, 1598724, 1599299, 1599982, 1600590, 1601187, 1601832]","[160, 217, 174, 231, 226, 189, 161, 226, 2, 0, 8, 33, 10, 236, 235, 8, 248, 224, 10, 10, 11, 9, 208]","[1588278, 1588834, 1589456, 1590047, 1590656, 1591380, 1591969, 1592585, 1593169, 1593762, 1594359, 1594954, 1595529, 1596142, 1596771, 1597411, 1597953, 1598639, 1599192, 1599875, 1600477, 1601080, 1601724]","[1587717, 1588317, 1588917, 1589517, 1590117, 1590717, 1591317, 1591917, 1592488, 1593061, 1593643, 1594247, 1594821, 1595453, 1596053, 1596673, 1597258, 1597852, 1598487, 1599063, 1599699, 1600324, 1600951, 1601610]",100,SB,U,R,ITMSR,1.1,
3,600,trial,0,79,79,79,trial,"['S', 'S', 'S', 'S', 'S', 'S', 'C', 'C', 'C', 'C', 'C', 'C', 'C', 'C', 'C', 'C', 'C', 'C', 'C', 'C', 'C', 'C']","[1608175, 1608736, 1609356, 1609932, 1610545, 1611167, 1611759, 1612367, 1612954, 1613536, 1614106, 1614711, 1615285, 1615869, 1616473, 1617056, 1617623, 1618233, 1618841, 1619430, 1620054, 1620688]","[1608288, 1608928, 1609485, 1610128, 1610707, 1611363, 1611972, 1612531, 1613133, 1613741, 1614277, 1614852, 1615429, 1616020, 1616646, 1617218, 1617803, 1618456, 1619021, 1619642, 1620291, 1620848]","[48, 247, 14, 69, 26, 67, 55, 12, 21, 63, 33, 253, 9, 11, 19, 15, 229, 244, 225, 234, 16, 216]","[1608179, 1608740, 1609360, 1610052, 1610625, 1611275, 1611879, 1612459, 1613041, 1613650, 1614203, 1614780, 1615369, 1615951, 1616569, 1617139, 1617726, 1618361, 1618950, 1619568, 1620198, 1620788]","[1606966, 1607565, 1608165, 1608765, 1609365, 1609965, 1610565, 1611165, 1611779, 1612387, 1612974, 1613556, 1614126, 1614731, 1615305, 1615889, 1616493, 1617076, 1617643, 1618253, 1618861, 1619450, 1620074, 1620708]",100,SB,U,R,ITMSR,1.1,
2,600,trial,0,80,80,80,trial,"['S', 'S', 'S', 'S', 'S', 'S', 'C', 'C', 'C', 'C', 'C', 'C', 'C', 'C', 'C', 'C', 'C', 'C', 'C', 'C', 'C', 'C']","[1627524, 1628105, 1628665, 1629285, 1629884, 1630498, 1631107, 1631711, 1632322, 1632923, 1633559, 1634147, 1634703, 1635260, 1635820, 1636411, 1636999, 1637564, 1638134, 1638696, 1639287, 1639876]","[1627671, 1628288, 1628851, 1629455, 1630086, 1630701, 1631296, 1631890, 1632523, 1633118, 1633693, 1634268, 1634866, 1635425, 1636025, 1636595, 1637163, 1637762, 1638430, 1638975, 1639582, 1640143]","[229, 227, 214, 60, 190, 227, 244, 226, 228, 197, 172, 143, 213, 3, 7, 231, 193, 225, 250, 14, 1, 29]","[1627529, 1628109, 1628672, 1629289, 1629985, 1630503, 1631112, 1631716, 1632425, 1633017, 1633630, 1634224, 1634785, 1635355, 1635950, 1636517, 1637087, 1637690, 1638287, 1638858, 1639475, 1640043]","[1626334, 1626934, 1627534, 1628134, 1628734, 1629334, 1629934, 1630534, 1631127, 1631731, 1632343, 1632943, 1633580, 1634167, 1634723, 1635280, 1635841, 1636431, 1637019, 1637584, 1638154, 1638716, 1639307, 1639896]",100,SB,U,R,ITMSR,1.1,
2,400,trial,0,81,81,81,trial,"['S', 'S', 'S', 'S', 'S', 'S', 'S', 'C', 'C', 'C', 'C', 'C', 'C', 'C', 'C', 'C', 'C', 'C', 'C', 'C', 'C', 'C', 'C']","[1646143, 1646428, 1646781, 1647161, 1647563, 1647970, 1648339, 1648752, 1649131, 1649507, 1649887, 1650268, 1650652, 1651047, 1651437, 1651827, 1652203, 1652605, 1652972, 1653392, 1653798, 1654182, 1654552]","[1646191, 1646487, 1646858, 1647245, 1647644, 1648048, 1648441, 1648838, 1649207, 1649611, 1649984, 1650362, 1650755, 1651146, 1651526, 1651913, 1652294, 1652689, 1653074, 1653467, 1653870, 1654249, 1654631]","[217, 40, 198, 141, 222, 135, 143, 119, 66, 90, 104, 124, 122, 16, 43, 229, 204, 61, 220, 155, 146, 184, 122]","[1646148, 1646434, 1646787, 1647167, 1647567, 1647976, 1648346, 1648758, 1649138, 1649513, 1649895, 1650274, 1650659, 1651055, 1651444, 1651835, 1652253, 1652613, 1653032, 1653400, 1653801, 1654191, 1654555]","[1645608, 1646008, 1646408, 1646808, 1647208, 1647608, 1648008, 1648408, 1648772, 1649152, 1649527, 1649907, 1650288, 1650672, 1651067, 1651458, 1651847, 1652224, 1652625, 1652993, 1653412, 1653818, 1654202, 1654573]",100,SB,U,R,ITMSR,1.1,
4,600,trial,0,82,82,82,trial,"['S', 'S', 'S', 'S', 'S', 'S', 'C', 'C', 'C', 'C', 'C', 'C', 'C', 'C', 'C', 'C', 'C', 'C', 'C', 'C', 'C', 'C']","[1661411, 1661981, 1662572, 1663212, 1663763, 1664364, 1664966, 1665529, 1666131, 1666747, 1667339, 1667973, 1668575, 1669149, 1669744, 1670367, 1671003, 1671653, 1672263, 1672807, 1673426, 1674039]","[1661616, 1662279, 1662872, 1663401, 1664018, 1664618, 1665209, 1665774, 1666345, 1667011, 1667618, 1668192, 1668784, 1669348, 1669978, 1670568, 1671214, 1671883, 1672488, 1673075, 1673705, 1674307]","[99, 67, 77, 243, 50, 64, 60, 53, 241, 31, 37, 25, 26, 250, 251, 220, 172, 241, 248, 6, 10, 35]","[1661414, 1661985, 1662753, 1663334, 1663923, 1664512, 1665111, 1665670, 1666259, 1666912, 1667489, 1668110, 1668703, 1669262, 1669884, 1670495, 1671129, 1671796, 1672401, 1672956, 1673577, 1674215]","[1660180, 1660780, 1661380, 1661980, 1662580, 1663180, 1663780, 1664380, 1664986, 1665549, 1666151, 1666767, 1667359, 1667993, 1668595, 1669169, 1669764, 1670387, 1671023, 1671673, 1672283, 1672827, 1673446, 1674059]",100,SB,U,R,ITMSR,1.1,
3,400,trial,0,83,83,83,trial,"['S', 'S', 'S', 'S', 'S', 'S', 'C', 'C', 'C', 'C', 'C', 'C', 'C', 'C', 'C', 'C', 'C', 'C', 'C', 'C', 'C', 'C']","[1680416, 1680789, 1681198, 1681587, 1681969, 1682379, 1682762, 1683163, 1683558, 1683940, 1684339, 1684757, 1685183, 1685582, 1685984, 1686423, 1686819, 1687229, 1687669, 1688068, 1688489, 1688935]","[1680478, 1680897, 1681290, 1681675, 1682058, 1682468, 1682876, 1683266, 1683674, 1684066, 1684477, 1684891, 1685326, 1685722, 1686135, 1686543, 1686947, 1687386, 1687821, 1688260, 1688656, 1689099]","[24, 161, 28, 144, 91, 147, 38, 247, 231, 63, 57, 56, 82, 60, 72, 59, 67, 123, 119, 123, 118, 120]","[1680421, 1680795, 1681204, 1681594, 1681975, 1682386, 1682770, 1683170, 1683563, 1683947, 1684346, 1684764, 1685191, 1685590, 1685991, 1686495, 1686898, 1687331, 1687766, 1688168, 1688583, 1689028]","[1679631, 1680031, 1680431, 1680831, 1681231, 1681631, 1682031, 1682432, 1682782, 1683183, 1683578, 1683960, 1684359, 1684777, 1685203, 1685602, 1686004, 1686444, 1686839, 1687249, 1687689, 1688088, 1688509, 1688955]",100,SB,U,R,ITMSR,1.1,
0,400,trial,0,84,84,84,trial,"['S', 'S', 'S', 'S', 'S', 'S', 'S', 'C', 'C', 'C', 'C', 'C', 'C', 'C', 'C', 'C', 'C', 'C', 'C', 'C', 'C', 'C', 'C']","[1694924, 1695311, 1695749, 1696149, 1696551, 1696954, 1697342, 1697732, 1698116, 1698508, 1698896, 1699309, 1699701, 1700140, 1700566, 1700947, 1701348, 1701732, 1702120, 1702525, 1702875, 1703284, 1703677]","[1694991, 1695396, 1695863, 1696269, 1696673, 1697055, 1697444, 1697835, 1698253, 1698641, 1699033, 1699423, 1699817, 1700236, 1700640, 1701032, 1701430, 1701823, 1702202, 1702608, 1702988, 1703391, 1703773]","[203, 37, 28, 251, 246, 210, 167, 162, 185, 149, 148, 120, 110, 109, 88, 37, 26, 10, 244, 105, 25, 30, 2]","[1694929, 1695315, 1695754, 1696153, 1696555, 1696959, 1697347, 1697738, 1698122, 1698581, 1698960, 1699351, 1699707, 1700147, 1700572, 1700992, 1701355, 1701790, 1702158, 1702532, 1702931, 1703336, 1703737]","[1694592, 1694991, 1695391, 1695791, 1696191, 1696591, 1696991, 1697391, 1697752, 1698136, 1698528, 1698916, 1699330, 1699721, 1700160, 1700586, 1700967, 1701368, 1701752, 1702140, 1702545, 1702895, 1703304, 1703697]",100,SB,U,R,ITMSR,1.1,
2,600,trial,0,85,85,85,trial,"['S', 'S', 'S', 'S', 'S', 'S', 'S', 'C', 'C', 'C', 'C', 'C', 'C', 'C', 'C', 'C', 'C', 'C', 'C', 'C', 'C', 'C', 'C']","[1709714, 1710445, 1711044, 1711661, 1712247, 1712869, 1713482, 1714058, 1714634, 1715224, 1715821, 1716391, 1716980, 1717554, 1718162, 1718778, 1719384, 1719990, 1720529, 1721114, 1721712, 1722328, 1722948]","[1709753, 1710601, 1711272, 1711906, 1712517, 1713139, 1713796, 1714352, 1714898, 1715488, 1716074, 1716680, 1717214, 1717764, 1718376, 1718998, 1719627, 1720209, 1720793, 1721368, 1721999, 1722604, 1723206]","[227, 225, 34, 16, 75, 12, 75, 58, 37, 11, 3, 250, 250, 219, 226, 220, 213, 213, 224, 219, 218, 237, 238]","[1709719, 1710528, 1711161, 1711756, 1712405, 1712960, 1713695, 1714221, 1714785, 1715367, 1715947, 1716570, 1717113, 1717650, 1718273, 1718894, 1719482, 1720096, 1720656, 1721246, 1721872, 1722469, 1723077]","[1709307, 1709907, 1710508, 1711107, 1711707, 1712307, 1712907, 1713507, 1714078, 1714654, 1715245, 1715842, 1716411, 1717000, 1717574, 1718182, 1718798, 1719404, 1720010, 1720549, 1721134, 1721732, 1722348, 1722968]",100,SB,U,R,ITMSR,1.1,
1,400,trial,0,86,86,86,trial,"['S', 'S', 'S', 'S', 'S', 'S', 'C', 'C', 'C', 'C', 'C', 'C', 'C', 'C', 'C', 'C', 'C', 'C', 'C', 'C', 'C', 'C']","[1729500, 1729853, 1730266, 1730691, 1731095, 1731485, 1731854, 1732259, 1732654, 1733041, 1733444, 1733853, 1734272, 1734684, 1735058, 1735476, 1735883, 1736313, 1736676, 1737096, 1737522, 1737935]","[1729549, 1729924, 1730336, 1730748, 1731197, 1731582, 1731968, 1732346, 1732754, 1733150, 1733545, 1733944, 1734350, 1734771, 1735152, 1735562, 1735967, 1736378, 1736759, 1737168, 1737604, 1738023]","[32, 28, 41, 246, 216, 168, 210, 178, 204, 178, 167, 122, 113, 217, 133, 31, 87, 235, 69, 65, 1, 55]","[1729504, 1729858, 1730271, 1730695, 1731100, 1731530, 1731922, 1732265, 1732659, 1733048, 1733450, 1733857, 1734277, 1734691, 1735064, 1735482, 1735890, 1736321, 1736683, 1737103, 1737528, 1737942]","[1728709, 1729110, 1729509, 1729909, 1730309, 1730709, 1731109, 1731509, 1731874, 1732279, 1732674, 1733061, 1733464, 1733873, 1734292, 1734704, 1735078, 1735496, 1735903, 1736333, 1736696, 1737116, 1737542, 1737955]",100,SB,U,R,ITMSR,1.1,
1,600,trial,0,87,87,87,trial,"['S', 'S', 'S', 'S', 'S', 'S', 'S', 'S', 'C', 'C', 'C', 'C', 'C', 'C', 'C', 'C', 'C', 'C', 'C', 'C', 'C', 'C', 'C', 'C']","[1743529, 1743841, 1744521, 1745168, 1745747, 1746365, 1746990, 1747557, 1748158, 1748742, 1749342, 1749937, 1750596, 1751184, 1751785, 1752383, 1752992, 1753598, 1754193, 1754818, 1755460, 1756096, 1756685, 1757335]","[1743586, 1744156, 1744816, 1745441, 1746046, 1746668, 1747216, 1747840, 1748432, 1749017, 1749606, 1750207, 1750838, 1751470, 1752064, 1752668, 1753311, 1753912, 1754525, 1755143, 1755822, 1756438, 1757068]","[190, 240, 226, 235, 1, 242, 206, 225, 213, 208, 209, 208, 252, 219, 253, 234, 250, 246, 237, 238, 255, 9, 250]","[1743535, 1743846, 1744526, 1745315, 1745918, 1746544, 1747116, 1747717, 1748271, 1748899, 1749483, 1750082, 1750750, 1751329, 1751957, 1752559, 1753153, 1753793, 1754354, 1754990, 1755668, 1756269, 1756881]","[1743362, 1743962, 1744562, 1745162, 1745762, 1746362, 1746962, 1747562, 1748178, 1748762, 1749362, 1749957, 1750616, 1751204, 1751805, 1752403, 1753012, 1753618, 1754213, 1754839, 1755480, 1756116, 1756705, 1757356]",100,SB,U,R,ITMSR,1.1,
0,400,trial,0,88,88,88,trial,"['S', 'S', 'S', 'S', 'S', 'S', 'C', 'C', 'C', 'C', 'C', 'C', 'C', 'C', 'C', 'C', 'C', 'C', 'C', 'C', 'C', 'C']","[1763756, 1764166, 1764542, 1764904, 1765355, 1765724, 1766140, 1766569, 1766936, 1767313, 1767716, 1768088, 1768477, 1768812, 1769214, 1769619, 1770024, 1770411, 1770816, 1771226, 1771628, 1772050]","[1763841, 1764259, 1764637, 1765053, 1765423, 1765796, 1766225, 1766652, 1767030, 1767421, 1767818, 1768203, 1768588, 1768947, 1769321, 1769693, 1770115, 1770498, 1770904, 1771304, 1771724, 1772114]","[145, 240, 209, 181, 105, 166, 153, 156, 178, 199, 103, 175, 135, 201, 102, 151, 95, 90, 85, 105, 78, 64]","[1763763, 1764171, 1764547, 1764910, 1765363, 1765730, 1766146, 1766577, 1766943, 1767319, 1767772, 1768156, 1768484, 1768892, 1769223, 1769625, 1770032, 1770418, 1770855, 1771234, 1771677, 1772058]","[1762966, 1763366, 1763766, 1764166, 1764567, 1764966, 1765366, 1765766, 1766160, 1766589, 1766957, 1767333, 1767736, 1768109, 1768497, 1768833, 1769234, 1769639, 1770044, 1770431, 1770836, 1771246, 1771649, 1772070]",100,SB,U,R,ITMSR,1.1,
3,400,trial,0,89,89,89,trial,"['S', 'S', 'S', 'S', 'S', 'S', 'C', 'C', 'C', 'C', 'C', 'C', 'C', 'C', 'C', 'C', 'C', 'C', 'C', 'C', 'C', 'C']","[1778315, 1778696, 1779120, 1779535, 1779931, 1780314, 1780729, 1781079, 1781521, 1781910, 1782333, 1782728, 1783139, 1783508, 1783899, 1784356, 1784784, 1785176, 1785594, 1785998, 1786420, 1786829]","[1778391, 1778781, 1779207, 1779610, 1780011, 1780401, 1780815, 1781193, 1781596, 1782003, 1782402, 1782819, 1783222, 1783625, 1784010, 1784451, 1784865, 1785293, 1785668, 1786090, 1786496, 1786899]","[173, 113, 154, 103, 16, 156, 42, 88, 66, 12, 225, 181, 1, 13, 16, 3, 252, 0, 216, 212, 148, 175]","[1778322, 1778702, 1779125, 1779542, 1779939, 1780320, 1780737, 1781086, 1781528, 1781917, 1782339, 1782734, 1783145, 1783515, 1783906, 1784361, 1784792, 1785182, 1785601, 1786004, 1786428, 1786836]","[1777550, 1777950, 1778350, 1778750, 1779150, 1779550, 1779950, 1780350, 1780749, 1781099, 1781541, 1781931, 1782353, 1782748, 1783159, 1783528, 1783919, 1784376, 1784804, 1785196, 1785614, 1786018, 1786440, 1786849]",100,SB,U,R,ITMSR,1.1,
2,400,trial,0,90,90,90,trial,"['S', 'S', 'S', 'S', 'S', 'S', 'S', 'C', 'C', 'C', 'C', 'C', 'C', 'C', 'C', 'C', 'C', 'C', 'C', 'C', 'C', 'C', 'C']","[1792914, 1793292, 1793701, 1794116, 1794531, 1794928, 1795346, 1795729, 1796109, 1796471, 1796823, 1797201, 1797556, 1797917, 1798297, 1798652, 1799030, 1799380, 1799743, 1800091, 1800487, 1800865, 1801242]","[1792986, 1793369, 1793796, 1794216, 1794619, 1795043, 1795440, 1795870, 1796232, 1796574, 1796943, 1797282, 1797665, 1798013, 1798388, 1798756, 1799106, 1799467, 1799831, 1800187, 1800572, 1800944, 1801341]","[207, 214, 5, 19, 31, 27, 53, 26, 239, 243, 240, 221, 148, 200, 185, 148, 148, 181, 163, 91, 141, 225, 0]","[1792918, 1793298, 1793707, 1794121, 1794535, 1794933, 1795350, 1795733, 1796114, 1796476, 1796827, 1797207, 1797563, 1797923, 1798302, 1798660, 1799036, 1799387, 1799748, 1800099, 1800495, 1800873, 1801303]","[1792602, 1793002, 1793402, 1793802, 1794202, 1794603, 1795002, 1795402, 1795749, 1796129, 1796491, 1796843, 1797221, 1797576, 1797937, 1798317, 1798672, 1799050, 1799400, 1799763, 1800111, 1800507, 1800885, 1801262]",100,SB,U,R,ITMSR,1.1,
4,400,trial,0,91,91,91,trial,"['S', 'S', 'S', 'S', 'S', 'S', 'C', 'C', 'C', 'C', 'C', 'C', 'C', 'C', 'C', 'C', 'C', 'C', 'C', 'C', 'C', 'C']","[1807787, 1808186, 1808556, 1808983, 1809408, 1809776, 1810205, 1810620, 1811034, 1811417, 1811761, 1812163, 1812546, 1812979, 1813406, 1813785, 1814172, 1814557, 1814941, 1815329, 1815699, 1816105]","[1807912, 1808279, 1808668, 1809075, 1809503, 1809890, 1810287, 1810690, 1811109, 1811510, 1811899, 1812226, 1812625, 1813056, 1813478, 1813858, 1814259, 1814659, 1815053, 1815432, 1815794, 1816235]","[114, 110, 166, 142, 148, 95, 147, 67, 88, 111, 235, 33, 36, 188, 149, 40, 26, 26, 97, 93, 71, 36]","[1807793, 1808192, 1808562, 1808990, 1809414, 1809784, 1810211, 1810625, 1811039, 1811424, 1811826, 1812170, 1812551, 1812985, 1813412, 1813791, 1814177, 1814563, 1814948, 1815335, 1815707, 1816112]","[1807013, 1807413, 1807813, 1808214, 1808613, 1809013, 1809413, 1809813, 1810225, 1810640, 1811054, 1811437, 1811781, 1812184, 1812567, 1812999, 1813426, 1813805, 1814192, 1814577, 1814961, 1815349, 1815719, 1816125]",100,SB,U,R,ITMSR,1.1,
