pitch,ioi,event,.thisRepN,.thisTrialN,.thisN,.thisIndex,event,tap_types,tap_times,release_times,peak_pressures,peak_times,tone_times,subject,experimenter,register,handedness,experiment,version
,,SPR,0,-1,-1,0,SPR,"['P', 'P', 'P', 'P', 'P', 'P', 'P', 'P', 'P', 'P', 'P', 'P', 'P', 'P', 'P', 'P', 'P', 'P', 'P', 'P', 'P', 'P', 'P', 'P', 'P', 'P', 'P', 'P', 'P', 'P']","[55247, 55936, 56642, 57344, 58027, 58719, 59420, 60084, 60736, 61440, 62092, 62793, 63415, 64115, 64776, 65425, 66096, 66765, 67375, 67979, 68662, 69288, 69932, 70577, 71269, 71918, 72591, 73193, 73803, 74502]","[55442, 56095, 56801, 57437, 58195, 58899, 59597, 60230, 60929, 61598, 62315, 62943, 63545, 64253, 64917, 65567, 66228, 66875, 67515, 68083, 68749, 69371, 70009, 70691, 71390, 72049, 72704, 73334, 73925, 74595]","[6, 254, 2, 42, 17, 38, 34, 40, 244, 42, 192, 78, 29, 47, 63, 44, 218, 239, 26, 144, 228, 47, 12, 42, 167, 73, 80, 73, 86, 74]","[55254, 55941, 56648, 57350, 58033, 58725, 59508, 60090, 60743, 61446, 62099, 62797, 63421, 64120, 64781, 65431, 66103, 66771, 67380, 67986, 68669, 69295, 69937, 70583, 71276, 71924, 72596, 73198, 73808, 74508]",,60,EM,L,R,ITMSR,1.1
3,500,practice,0,0,0,0,practice,"['S', 'S', 'S', 'S', 'S', 'S', 'S', 'C', 'C', 'C', 'C', 'C', 'C', 'C', 'C', 'C', 'C', 'C', 'C', 'C', 'C', 'C', 'C']","[156003, 156381, 156846, 157340, 157824, 158343, 158829, 159339, 159830, 160325, 160760, 161289, 161742, 162237, 162726, 163214, 163701, 164175, 164674, 165129, 165644, 166137, 166592]","[156098, 156532, 156991, 157484, 158000, 158483, 158991, 159483, 159947, 160424, 160897, 161376, 161851, 162340, 162821, 163305, 163789, 164250, 164765, 165228, 165726, 166232, 166712]","[105, 113, 110, 127, 77, 130, 130, 127, 103, 121, 121, 126, 77, 108, 107, 92, 89, 115, 93, 22, 88, 101, 39]","[156008, 156386, 156850, 157343, 157828, 158347, 158833, 159343, 159834, 160328, 160764, 161293, 161747, 162241, 162731, 163218, 163706, 164179, 164678, 165134, 165649, 166141, 166661]","[155377, 155877, 156377, 156877, 157377, 157877, 158377, 158877, 159360, 159850, 160345, 160780, 161309, 161762, 162257, 162746, 163234, 163721, 164195, 164695, 165149, 165664, 166157, 166612]",60,EM,L,R,ITMSR,1.1
1,500,practice,0,1,1,1,practice,"['S', 'S', 'S', 'S', 'S', 'S', 'S', 'C', 'C', 'C', 'C', 'C', 'C', 'C', 'C', 'C', 'C', 'C', 'C', 'C', 'C', 'C', 'C']","[172881, 173390, 173871, 174373, 174880, 175364, 175880, 176385, 176879, 177397, 177910, 178425, 178905, 179427, 179952, 180459, 180965, 181446, 181952, 182450, 182963, 183440, 183942]","[172950, 173473, 173953, 174445, 174956, 175432, 175956, 176464, 176958, 177461, 178017, 178508, 178996, 179497, 180016, 180535, 181045, 181530, 182028, 182524, 183042, 183535, 184024]","[63, 84, 63, 91, 85, 55, 51, 65, 26, 49, 230, 33, 33, 67, 69, 122, 68, 118, 101, 71, 85, 19, 65]","[172887, 173394, 173875, 174377, 174884, 175369, 175885, 176390, 176884, 177401, 177966, 178430, 178909, 179431, 179956, 180464, 180970, 181450, 181956, 182453, 182968, 183445, 183946]","[172409, 172909, 173409, 173910, 174409, 174909, 175409, 175909, 176405, 176899, 177417, 177930, 178445, 178925, 179447, 179972, 180480, 180985, 181466, 181972, 182470, 182983, 183460, 183962]",60,EM,L,R,ITMSR,1.1
0,500,practice,0,2,2,2,practice,"['S', 'S', 'S', 'S', 'S', 'S', 'S', 'C', 'C', 'C', 'C', 'C', 'C', 'C', 'C', 'C', 'C', 'C', 'C', 'C', 'C', 'C', 'C']","[189750, 190236, 190753, 191262, 191740, 192261, 192774, 193252, 193744, 194253, 194757, 195217, 195750, 196232, 196715, 197200, 197664, 198192, 198687, 199180, 199639, 200169, 200680]","[189828, 190327, 190824, 191341, 191827, 192339, 192859, 193335, 193842, 194333, 194831, 195320, 195836, 196320, 196787, 197268, 197749, 198266, 198771, 199237, 199713, 200228, 200755]","[103, 110, 88, 63, 89, 128, 80, 66, 19, 57, 72, 29, 60, 76, 66, 76, 43, 72, 180, 78, 2, 63, 27]","[189755, 190240, 190757, 191267, 191746, 192265, 192780, 193257, 193750, 194258, 194761, 195223, 195756, 196237, 196721, 197206, 197669, 198197, 198694, 199185, 199645, 200173, 200685]","[189280, 189780, 190280, 190780, 191280, 191780, 192280, 192780, 193272, 193764, 194273, 194777, 195237, 195770, 196252, 196736, 197220, 197684, 198212, 198707, 199200, 199659, 200189, 200700]",60,EM,L,R,ITMSR,1.1
5,500,practice,0,3,3,3,practice,"['S', 'S', 'S', 'S', 'S', 'S', 'S', 'C', 'C', 'C', 'C', 'C', 'C', 'C', 'C', 'C', 'C', 'C', 'C', 'C', 'C', 'C', 'C']","[206738, 207258, 207765, 208271, 208758, 209258, 209768, 210294, 210780, 211266, 211781, 212248, 212762, 213228, 213729, 214248, 214718, 215222, 215699, 216184, 216662, 217136, 217640]","[206817, 207347, 207844, 208347, 208844, 209335, 209863, 210362, 210867, 211345, 211865, 212335, 212838, 213320, 213792, 214305, 214809, 215282, 215760, 216256, 216737, 217203, 217724]","[46, 91, 84, 50, 67, 77, 37, 86, 64, 63, 39, 26, 65, 40, 45, 70, 79, 86, 68, 84, 75, 81, 70]","[206744, 207262, 207769, 208276, 208763, 209262, 209774, 210298, 210785, 211271, 211786, 212254, 212766, 213233, 213735, 214253, 214723, 215227, 215703, 216188, 216667, 217141, 217646]","[206312, 206811, 207311, 207811, 208311, 208812, 209311, 209811, 210314, 210800, 211287, 211801, 212269, 212782, 213249, 213749, 214268, 214738, 215242, 215719, 216204, 216682, 217156, 217660]",60,EM,L,R,ITMSR,1.1
4,500,practice,0,4,4,4,practice,"['S', 'S', 'S', 'S', 'S', 'S', 'S', 'C', 'C', 'C', 'C', 'C', 'C', 'C', 'C', 'C', 'C', 'C', 'C', 'C', 'C', 'C', 'C']","[223688, 224193, 224699, 225206, 225685, 226198, 226709, 227210, 227725, 228208, 228698, 229182, 229692, 230170, 230668, 231161, 231659, 232140, 232623, 233117, 233628, 234086, 234596]","[223764, 224271, 224769, 225270, 225762, 226256, 226782, 227302, 227795, 228303, 228769, 229267, 229754, 230260, 230742, 231239, 231735, 232221, 232707, 233197, 233703, 234173, 234696]","[96, 54, 106, 72, 25, 42, 27, 86, 98, 19, 89, 68, 88, 235, 36, 76, 93, 60, 67, 40, 67, 45, 76]","[223693, 224199, 224703, 225211, 225690, 226203, 226714, 227214, 227729, 228213, 228702, 229187, 229697, 230216, 230673, 231166, 231664, 232145, 232627, 233122, 233633, 234091, 234601]","[223268, 223768, 224268, 224769, 225268, 225768, 226268, 226768, 227230, 227745, 228228, 228718, 229202, 229712, 230190, 230688, 231181, 231680, 232160, 232643, 233137, 233648, 234106, 234616]",60,EM,L,R,ITMSR,1.1
2,500,practice,0,5,5,5,practice,"['S', 'S', 'S', 'S', 'S', 'S', 'S', 'C', 'C', 'C', 'C', 'C', 'C', 'C', 'C', 'C', 'C', 'C', 'C', 'C', 'C', 'C', 'C']","[240635, 241133, 241617, 242096, 242620, 243125, 243617, 244132, 244630, 245100, 245625, 246123, 246596, 247081, 247647, 248171, 248676, 249148, 249619, 250141, 250613, 251108, 251637]","[240719, 241219, 241698, 242187, 242699, 243187, 243708, 244215, 244700, 245180, 245699, 246216, 246683, 247183, 247720, 248263, 248753, 249243, 249710, 250221, 250713, 251199, 251688]","[85, 113, 108, 42, 97, 102, 95, 71, 80, 35, 108, 85, 77, 76, 248, 38, 51, 83, 94, 100, 99, 104, 108]","[240640, 241137, 241622, 242102, 242625, 243129, 243621, 244137, 244635, 245105, 245630, 246128, 246600, 247087, 247653, 248176, 248682, 249152, 249623, 250145, 250618, 251113, 251641]","[240156, 240655, 241155, 241655, 242155, 242655, 243155, 243655, 244152, 244651, 245121, 245645, 246144, 246616, 247101, 247667, 248192, 248696, 249168, 249639, 250161, 250633, 251128, 251657]",60,EM,L,R,ITMSR,1.1
2,400,trial,0,6,6,6,trial,"['S', 'S', 'S', 'S', 'S', 'S', 'S', 'C', 'C', 'C', 'C', 'C', 'C', 'C', 'C', 'C', 'C', 'C', 'C', 'C', 'C', 'C', 'C']","[299256, 299744, 300103, 300414, 300770, 301185, 301595, 301984, 302385, 302753, 303156, 303516, 303930, 304310, 304702, 305090, 305485, 305860, 306239, 306618, 307014, 307396, 307774]","[299352, 299813, 300175, 300485, 300863, 301265, 301662, 302074, 302461, 302851, 303250, 303627, 304014, 304409, 304796, 305198, 305569, 305947, 306345, 306694, 307105, 307473, 307863]","[99, 108, 97, 131, 134, 132, 142, 145, 136, 90, 76, 99, 136, 125, 105, 122, 116, 131, 124, 113, 87, 79, 67]","[299261, 299748, 300108, 300419, 300773, 301189, 301599, 301988, 302389, 302757, 303161, 303521, 303934, 304314, 304707, 305094, 305489, 305864, 306243, 306622, 307019, 307401, 307779]","[298839, 299238, 299638, 300038, 300438, 300838, 301238, 301638, 302004, 302405, 302773, 303176, 303536, 303950, 304330, 304722, 305111, 305505, 305880, 306259, 306638, 307034, 307416, 307794]",60,EM,L,R,ITMSR,1.1
0,400,trial,0,7,7,7,trial,"['S', 'S', 'S', 'S', 'S', 'S', 'S', 'C', 'C', 'C', 'C', 'C', 'C', 'C', 'C', 'C', 'C', 'C', 'C', 'C', 'C', 'C', 'C']","[314007, 314351, 314712, 315121, 315516, 315924, 316301, 316701, 317097, 317476, 317921, 318287, 318705, 319091, 319475, 319847, 320253, 320642, 321013, 321417, 321823, 322216, 322605]","[314068, 314414, 314795, 315198, 315599, 316002, 316406, 316791, 317199, 317566, 317995, 318413, 318797, 319200, 319586, 319943, 320366, 320747, 321112, 321496, 321911, 322320, 322682]","[99, 123, 143, 136, 131, 141, 126, 131, 105, 105, 106, 119, 99, 130, 134, 136, 86, 134, 139, 126, 135, 41, 109]","[314012, 314355, 314716, 315125, 315521, 315926, 316304, 316704, 317102, 317480, 317925, 318290, 318711, 319095, 319479, 319850, 320259, 320645, 321016, 321421, 321826, 322222, 322609]","[313524, 313924, 314324, 314724, 315124, 315524, 315924, 316324, 316721, 317117, 317496, 317941, 318307, 318725, 319111, 319495, 319867, 320273, 320662, 321033, 321437, 321843, 322236, 322625]",60,EM,L,R,ITMSR,1.1
0,600,trial,0,8,8,8,trial,"['S', 'S', 'S', 'S', 'S', 'S', 'S', 'C', 'C', 'C', 'C', 'C', 'C', 'C', 'C', 'C', 'C', 'C', 'C', 'C', 'C', 'C', 'C']","[329026, 329548, 330117, 330720, 331283, 331890, 332485, 333103, 333696, 334308, 334922, 335516, 336119, 336733, 337363, 337945, 338524, 339099, 339716, 340286, 340856, 341478, 342069]","[329046, 329620, 330182, 330798, 331351, 331958, 332555, 333171, 333760, 334384, 334991, 335578, 336192, 336800, 337411, 338013, 338607, 339174, 339777, 340338, 340926, 341535, 342160]","[231, 106, 115, 123, 125, 120, 120, 108, 117, 125, 131, 133, 133, 128, 120, 132, 133, 139, 137, 120, 135, 131, 129]","[329033, 329552, 330120, 330724, 331287, 331894, 332490, 333107, 333700, 334312, 334926, 335520, 336122, 336737, 337368, 337949, 338528, 339102, 339720, 340290, 340860, 341482, 342074]","[328298, 328898, 329498, 330098, 330698, 331298, 331898, 332498, 333123, 333716, 334328, 334942, 335536, 336139, 336753, 337383, 337965, 338544, 339119, 339736, 340306, 340876, 341498, 342089]",60,EM,L,R,ITMSR,1.1
5,600,trial,0,9,9,9,trial,"['S', 'S', 'S', 'S', 'S', 'S', 'C', 'C', 'C', 'C', 'C', 'C', 'C', 'C', 'C', 'C', 'C', 'C', 'C', 'C', 'C', 'C']","[349037, 349664, 350233, 350830, 351444, 352039, 352656, 353234, 353846, 354446, 355030, 355618, 356215, 356796, 357389, 357959, 358586, 359186, 359757, 360318, 360888, 361459]","[349133, 349750, 350313, 350920, 351538, 352134, 352733, 353348, 353943, 354527, 355102, 355701, 356315, 356880, 357464, 358043, 358681, 359270, 359843, 360417, 360980, 361543]","[98, 101, 96, 131, 125, 115, 112, 125, 119, 99, 140, 138, 121, 113, 124, 118, 102, 122, 118, 127, 142, 147]","[349041, 349669, 350237, 350834, 351449, 352044, 352660, 353239, 353850, 354450, 355033, 355622, 356219, 356800, 357393, 357963, 358591, 359190, 359762, 360323, 360891, 361462]","[347854, 348454, 349054, 349655, 350254, 350854, 351454, 352054, 352676, 353254, 353866, 354466, 355050, 355638, 356235, 356816, 357409, 357979, 358606, 359206, 359777, 360338, 360908, 361479]",60,EM,L,R,ITMSR,1.1
1,400,trial,0,10,10,10,trial,"['S', 'S', 'S', 'S', 'C', 'C', 'C', 'C', 'C', 'C', 'C', 'C', 'C', 'C', 'C', 'C', 'C', 'C', 'C', 'C']","[368694, 369082, 369474, 369909, 370302, 370700, 371109, 371483, 371891, 372279, 372669, 373084, 373489, 373861, 374260, 374636, 375061, 375453, 375824, 376219]","[368785, 369170, 369579, 370007, 370411, 370804, 371194, 371589, 371978, 372382, 372763, 373159, 373587, 373946, 374352, 374720, 375163, 375572, 375938, 376334]","[134, 141, 147, 144, 139, 126, 136, 131, 118, 116, 126, 140, 129, 98, 129, 114, 125, 147, 123, 135]","[368698, 369085, 369477, 369912, 370307, 370704, 371113, 371487, 371895, 372284, 372673, 373087, 373493, 373866, 374264, 374641, 375065, 375457, 375829, 376222]","[367129, 367529, 367929, 368329, 368729, 369129, 369529, 369929, 370322, 370720, 371129, 371503, 371911, 372299, 372689, 373104, 373509, 373881, 374280, 374657, 375081, 375473, 375844, 376239]",60,EM,L,R,ITMSR,1.1
1,600,trial,0,11,11,11,trial,"['S', 'S', 'S', 'S', 'S', 'S', 'S', 'C', 'C', 'C', 'C', 'C', 'C', 'C', 'C', 'C', 'C', 'C', 'C', 'C', 'C', 'C', 'C']","[382364, 383072, 383692, 384286, 384883, 385475, 386054, 386674, 387272, 387864, 388499, 389101, 389728, 390324, 390895, 391474, 392086, 392659, 393254, 393848, 394444, 395032, 395599]","[382454, 383162, 383776, 384399, 384988, 385580, 386168, 386765, 387372, 388003, 388614, 389214, 389855, 390458, 391020, 391607, 392209, 392772, 393399, 393982, 394580, 395174, 395719]","[106, 121, 130, 142, 121, 104, 105, 103, 112, 101, 128, 116, 117, 119, 108, 97, 103, 105, 98, 72, 79, 44, 105]","[382368, 383076, 383696, 384290, 384888, 385480, 386059, 386678, 387276, 387868, 388503, 389105, 389732, 390328, 390899, 391479, 392090, 392665, 393259, 393852, 394449, 395037, 395603]","[381900, 382500, 383100, 383700, 384301, 384901, 385501, 386101, 386694, 387292, 387885, 388519, 389122, 389748, 390344, 390915, 391494, 392107, 392679, 393274, 393868, 394464, 395053, 395619]",60,EM,L,R,ITMSR,1.1
0,600,trial,0,12,12,12,trial,"['S', 'S', 'S', 'S', 'C', 'C', 'C', 'C', 'C', 'C', 'C', 'C', 'C', 'C', 'C', 'C', 'C', 'C', 'C', 'C']","[403601, 404198, 404766, 405379, 405911, 406526, 407135, 407772, 408357, 408896, 409519, 410142, 410692, 411293, 411862, 412445, 413065, 413638, 414146, 414754]","[403712, 404317, 404874, 405474, 406051, 406647, 407250, 407865, 408455, 409010, 409621, 410240, 410821, 411408, 411977, 412559, 413160, 413748, 414281, 414876]","[151, 108, 86, 70, 235, 104, 91, 94, 112, 106, 121, 81, 85, 51, 83, 70, 26, 36, 90, 52]","[403604, 404203, 404771, 405384, 405998, 406531, 407139, 407777, 408361, 408901, 409523, 410147, 410697, 411298, 411867, 412451, 413071, 413643, 414150, 414760]","[401203, 401803, 402403, 403003, 403603, 404203, 404803, 405403, 405932, 406546, 407155, 407792, 408377, 408916, 409539, 410162, 410712, 411313, 411882, 412465, 413085, 413658, 414167, 414774]",60,EM,L,R,ITMSR,1.1
3,600,trial,0,13,13,13,trial,"['S', 'S', 'S', 'S', 'C', 'C', 'C', 'C', 'C', 'C', 'C', 'C', 'C', 'C', 'C', 'C', 'C', 'C', 'C', 'C']","[422721, 423324, 423931, 424540, 425154, 425766, 426384, 426995, 427596, 428224, 428851, 429472, 430060, 430668, 431273, 431937, 432515, 433112, 433702, 434329]","[422832, 423452, 424075, 424667, 425282, 425903, 426501, 427128, 427735, 428361, 428988, 429611, 430223, 430821, 431509, 432105, 432680, 433280, 433858, 434501]","[83, 55, 79, 100, 55, 68, 87, 119, 87, 109, 115, 120, 81, 109, 132, 124, 78, 136, 128, 129]","[422725, 423329, 423937, 424544, 425226, 425772, 426390, 426999, 427600, 428228, 428855, 429476, 430065, 430672, 431277, 431941, 432520, 433116, 433707, 434333]","[420353, 420952, 421552, 422152, 422752, 423352, 423952, 424552, 425175, 425786, 426404, 427015, 427616, 428244, 428871, 429492, 430081, 430688, 431293, 431958, 432535, 433132, 433722, 434349]",60,EM,L,R,ITMSR,1.1
4,600,trial,0,14,14,14,trial,"['S', 'S', 'S', 'S', 'S', 'S', 'C', 'C', 'C', 'C', 'C', 'C', 'C', 'C', 'C', 'C', 'C', 'C', 'C', 'C', 'C', 'C']","[440943, 441547, 442102, 442694, 443296, 443895, 444509, 445107, 445688, 446322, 446957, 447576, 448118, 448756, 449364, 449945, 450522, 451102, 451727, 452319, 452875, 453439]","[441060, 441683, 442225, 442809, 443432, 444019, 444619, 445244, 445825, 446450, 447079, 447705, 448267, 448921, 449494, 450081, 450679, 451252, 451881, 452472, 453045, 453583]","[137, 130, 126, 99, 130, 117, 119, 103, 83, 106, 148, 129, 106, 140, 124, 126, 120, 121, 130, 105, 95, 134]","[440947, 441551, 442105, 442699, 443300, 443900, 444513, 445111, 445693, 446326, 446960, 447580, 448123, 448760, 449369, 449948, 450527, 451106, 451731, 452323, 452880, 453442]","[439778, 440378, 440978, 441578, 442178, 442778, 443378, 443978, 444529, 445127, 445708, 446342, 446978, 447596, 448138, 448776, 449384, 449965, 450542, 451122, 451747, 452339, 452895, 453459]",60,EM,L,R,ITMSR,1.1
1,600,trial,0,15,15,15,trial,"['S', 'S', 'S', 'S', 'S', 'S', 'C', 'C', 'C', 'C', 'C', 'C', 'C', 'C', 'C', 'C', 'C', 'C', 'C', 'C', 'C', 'C']","[460005, 460658, 461250, 461838, 462429, 463019, 463624, 464242, 464843, 465428, 465995, 466597, 467196, 467835, 468433, 468979, 469534, 470159, 470790, 471392, 471955, 472547]","[460136, 460801, 461355, 461953, 462541, 463144, 463732, 464378, 464939, 465525, 466109, 466722, 467287, 467938, 468558, 469131, 469659, 470300, 470916, 471492, 472088, 472691]","[111, 139, 117, 124, 120, 102, 94, 39, 76, 79, 97, 111, 100, 98, 78, 56, 78, 111, 103, 80, 86, 63]","[460009, 460661, 461256, 461842, 462433, 463023, 463628, 464248, 464848, 465432, 465999, 466603, 467202, 467840, 468439, 468984, 469538, 470163, 470795, 471397, 471960, 472551]","[458856, 459456, 460056, 460656, 461256, 461856, 462456, 463056, 463644, 464262, 464863, 465448, 466015, 466617, 467216, 467855, 468453, 468999, 469554, 470179, 470810, 471412, 471975, 472567]",60,EM,L,R,ITMSR,1.1
2,600,trial,0,16,16,16,trial,"['S', 'S', 'S', 'S', 'S', 'S', 'C', 'C', 'C', 'C', 'C', 'C', 'C', 'C', 'C', 'C', 'C', 'C', 'C', 'C', 'C', 'C']","[479478, 480066, 480673, 481276, 481881, 482484, 483080, 483715, 484324, 484905, 485494, 486068, 486633, 487227, 487803, 488391, 488941, 489555, 490117, 490657, 491231, 491822]","[479613, 480178, 480817, 481422, 482021, 482609, 483217, 483847, 484463, 485032, 485628, 486206, 486770, 487353, 487917, 488481, 489033, 489646, 490208, 490760, 491351, 491933]","[96, 89, 127, 82, 110, 130, 123, 123, 28, 111, 82, 80, 92, 92, 95, 55, 58, 98, 100, 108, 64, 83]","[479482, 480070, 480677, 481282, 481885, 482487, 483084, 483719, 484397, 484911, 485499, 486073, 486637, 487232, 487808, 488396, 488946, 489560, 490121, 490661, 491237, 491827]","[478331, 478931, 479532, 480131, 480731, 481331, 481931, 482531, 483100, 483735, 484344, 484925, 485514, 486088, 486653, 487247, 487823, 488411, 488962, 489575, 490137, 490677, 491251, 491842]",60,EM,L,R,ITMSR,1.1
2,600,trial,0,17,17,17,trial,"['S', 'S', 'S', 'S', 'S', 'S', 'S', 'C', 'C', 'C', 'C', 'C', 'C', 'C', 'C', 'C', 'C', 'C', 'C', 'C', 'C', 'C', 'C']","[497998, 498613, 499232, 499816, 500411, 501007, 501610, 502235, 502833, 503436, 504007, 504629, 505231, 505809, 506406, 507021, 507620, 508191, 508773, 509337, 509953, 510597, 511177]","[498124, 498749, 499353, 499949, 500538, 501142, 501733, 502361, 502962, 503563, 504150, 504761, 505388, 505958, 506577, 507142, 507777, 508344, 508905, 509471, 510090, 510742, 511338]","[92, 85, 66, 112, 98, 39, 51, 83, 76, 46, 59, 52, 32, 84, 65, 53, 41, 79, 37, 239, 5, 240, 129]","[498002, 498617, 499237, 499820, 500415, 501013, 501615, 502239, 502838, 503441, 504012, 504634, 505236, 505815, 506412, 507026, 507625, 508195, 508778, 509342, 509959, 510602, 511183]","[497491, 498092, 498691, 499291, 499891, 500491, 501091, 501691, 502255, 502853, 503456, 504027, 504649, 505251, 505829, 506426, 507041, 507640, 508211, 508793, 509357, 509973, 510617, 511197]",60,EM,L,R,ITMSR,1.1
1,400,trial,0,18,18,18,trial,"['S', 'S', 'S', 'S', 'C', 'C', 'C', 'C', 'C', 'C', 'C', 'C', 'C', 'C', 'C', 'C', 'C', 'C', 'C', 'C']","[518509, 518887, 519263, 519680, 520075, 520477, 520900, 521299, 521669, 522060, 522465, 522849, 523234, 523667, 524073, 524492, 524880, 525263, 525636, 526044]","[518606, 518983, 519379, 519781, 520188, 520595, 521016, 521418, 521791, 522164, 522557, 522942, 523344, 523764, 524207, 524606, 525021, 525400, 525773, 526163]","[47, 86, 49, 37, 40, 208, 238, 221, 240, 121, 0, 168, 208, 138, 12, 180, 228, 171, 3, 6]","[518515, 518891, 519270, 519687, 520081, 520485, 520907, 521306, 521675, 522067, 522471, 522856, 523310, 523674, 524170, 524500, 524886, 525336, 525641, 526050]","[516909, 517309, 517709, 518109, 518509, 518909, 519309, 519709, 520095, 520497, 520920, 521319, 521689, 522080, 522485, 522869, 523254, 523687, 524093, 524512, 524900, 525283, 525656, 526064]",60,EM,L,R,ITMSR,1.1
3,400,trial,0,19,19,19,trial,"['S', 'S', 'S', 'S', 'S', 'S', 'S', 'C', 'C', 'C', 'C', 'C', 'C', 'C', 'C', 'C', 'C', 'C', 'C', 'C', 'C', 'C', 'C']","[532040, 532380, 532729, 533111, 533511, 533879, 534296, 534704, 535079, 535463, 535859, 536237, 536645, 537012, 537370, 537762, 538175, 538555, 538976, 539384, 539771, 540134, 540510]","[532127, 532470, 532834, 533213, 533645, 533995, 534429, 534820, 535200, 535573, 535957, 536349, 536744, 537142, 537489, 537876, 538294, 538693, 539089, 539506, 539891, 540231, 540615]","[65, 86, 117, 58, 83, 66, 46, 49, 62, 18, 8, 24, 38, 177, 231, 41, 247, 244, 36, 189, 237, 5, 233]","[532044, 532385, 532732, 533117, 533516, 533884, 534302, 534709, 535085, 535471, 535865, 536242, 536651, 537088, 537376, 537768, 538182, 538562, 538982, 539443, 539777, 540139, 540515]","[531593, 531993, 532393, 532793, 533193, 533593, 533993, 534393, 534724, 535099, 535483, 535879, 536257, 536665, 537032, 537390, 537782, 538195, 538575, 538996, 539404, 539791, 540154, 540530]",60,EM,L,R,ITMSR,1.1
5,400,trial,0,20,20,20,trial,"['S', 'S', 'S', 'S', 'C', 'C', 'C', 'C', 'C', 'C', 'C', 'C', 'C', 'C', 'C', 'C', 'C', 'C', 'C', 'C']","[547581, 547987, 548355, 548745, 549152, 549545, 549933, 550317, 550712, 551119, 551487, 551883, 552288, 552673, 553053, 553426, 553836, 554222, 554621, 555008]","[547665, 548077, 548459, 548842, 549254, 549656, 550024, 550408, 550825, 551223, 551617, 552009, 552407, 552791, 553164, 553543, 553954, 554321, 554720, 555110]","[103, 77, 77, 69, 60, 57, 53, 26, 255, 38, 201, 253, 28, 66, 250, 201, 4, 254, 12, 243]","[547586, 547991, 548360, 548750, 549157, 549552, 549939, 550322, 550717, 551126, 551492, 551888, 552293, 552678, 553058, 553432, 553841, 554227, 554627, 555013]","[545996, 546395, 546795, 547195, 547595, 547995, 548396, 548795, 549172, 549565, 549953, 550337, 550732, 551139, 551507, 551903, 552308, 552693, 553073, 553446, 553857, 554242, 554641, 555028]",60,EM,L,R,ITMSR,1.1
3,600,trial,0,21,21,21,trial,"['S', 'S', 'S', 'S', 'S', 'S', 'C', 'C', 'C', 'C', 'C', 'C', 'C', 'C', 'C', 'C', 'C', 'C', 'C', 'C', 'C', 'C']","[561865, 562524, 563101, 563698, 564298, 564951, 565526, 566124, 566705, 567273, 567888, 568471, 569111, 569722, 570305, 570914, 571548, 572154, 572733, 573303, 573904, 574485]","[561961, 562630, 563210, 563812, 564418, 565049, 565634, 566248, 566813, 567382, 568010, 568593, 569252, 569882, 570455, 571074, 571680, 572269, 572866, 573435, 574066, 574649]","[50, 25, 48, 191, 9, 136, 0, 179, 228, 225, 186, 159, 144, 16, 208, 23, 49, 13, 244, 14, 211, 178]","[561871, 562529, 563107, 563704, 564304, 564959, 565532, 566131, 566711, 567279, 567896, 568544, 569194, 569729, 570311, 570920, 571553, 572160, 572739, 573308, 573908, 574576]","[560743, 561343, 561943, 562543, 563143, 563743, 564343, 564943, 565547, 566145, 566725, 567293, 567908, 568492, 569132, 569742, 570326, 570934, 571568, 572174, 572753, 573323, 573924, 574505]",60,EM,L,R,ITMSR,1.1
3,400,trial,0,22,22,22,trial,"['S', 'S', 'S', 'S', 'S', 'S', 'S', 'C', 'C', 'C', 'C', 'C', 'C', 'C', 'C', 'C', 'C', 'C', 'C', 'C', 'C', 'C', 'C']","[580425, 580762, 581104, 581497, 581920, 582308, 582699, 583087, 583511, 583895, 584281, 584679, 585065, 585465, 585859, 586259, 586642, 587036, 587413, 587808, 588216, 588582, 588986]","[580542, 580840, 581185, 581603, 582017, 582397, 582799, 583213, 583627, 584020, 584412, 584770, 585176, 585569, 585970, 586385, 586771, 587161, 587520, 587921, 588324, 588731, 589123]","[254, 116, 116, 102, 91, 79, 110, 101, 99, 78, 82, 81, 66, 15, 246, 6, 64, 37, 4, 8, 234, 238, 253]","[580492, 580766, 581108, 581501, 581925, 582315, 582704, 583092, 583516, 583901, 584286, 584683, 585070, 585472, 585865, 586265, 586647, 587042, 587419, 587814, 588222, 588675, 588992]","[579937, 580337, 580738, 581138, 581538, 581938, 582338, 582738, 583107, 583531, 583915, 584301, 584699, 585085, 585485, 585879, 586279, 586662, 587056, 587433, 587828, 588236, 588602, 589006]",60,EM,L,R,ITMSR,1.1
4,600,trial,0,23,23,23,trial,"['S', 'S', 'S', 'S', 'S', 'S', 'C', 'C', 'C', 'C', 'C', 'C', 'C', 'C', 'C', 'C', 'C', 'C', 'C', 'C', 'C', 'C']","[595796, 596417, 596966, 597547, 598165, 598782, 599426, 600050, 600630, 601197, 601785, 602360, 602960, 603545, 604095, 604690, 605292, 605862, 606477, 607063, 607621, 608205]","[595903, 596541, 597086, 597632, 598280, 598901, 599546, 600153, 600721, 601303, 601878, 602451, 603067, 603656, 604210, 604820, 605459, 605992, 606599, 607207, 607768, 608345]","[46, 58, 25, 255, 6, 29, 239, 210, 172, 197, 3, 18, 194, 204, 28, 244, 28, 37, 255, 25, 23, 17]","[595803, 596422, 596972, 597553, 598172, 598789, 599432, 600057, 600637, 601204, 601791, 602366, 602968, 603553, 604101, 604695, 605297, 605869, 606483, 607068, 607626, 608211]","[594660, 595259, 595859, 596459, 597059, 597659, 598259, 598859, 599446, 600070, 600650, 601218, 601805, 602380, 602980, 603565, 604115, 604710, 605313, 605882, 606497, 607083, 607641, 608225]",60,EM,L,R,ITMSR,1.1
4,400,trial,0,24,24,24,trial,"['S', 'S', 'S', 'S', 'C', 'C', 'C', 'C', 'C', 'C', 'C', 'C', 'C', 'C', 'C', 'C', 'C', 'C', 'C', 'C']","[615214, 615599, 615996, 616379, 616768, 617178, 617571, 617984, 618394, 618790, 619182, 619596, 619993, 620384, 620755, 621136, 621548, 621920, 622334, 622739]","[615311, 615707, 616086, 616488, 616883, 617289, 617680, 618088, 618517, 618932, 619297, 619713, 620120, 620494, 620857, 621262, 621656, 622060, 622451, 622871]","[78, 91, 113, 50, 74, 61, 57, 55, 16, 49, 63, 47, 58, 38, 80, 252, 249, 42, 12, 51]","[615219, 615604, 616000, 616384, 616773, 617184, 617576, 617989, 618400, 618796, 619187, 619601, 619998, 620390, 620761, 621143, 621555, 621926, 622341, 622744]","[613652, 614052, 614452, 614852, 615252, 615652, 616052, 616452, 616788, 617198, 617591, 618004, 618414, 618810, 619202, 619616, 620013, 620404, 620775, 621156, 621569, 621940, 622354, 622759]",60,EM,L,R,ITMSR,1.1
0,400,trial,0,25,25,25,trial,"['S', 'S', 'S', 'S', 'C', 'C', 'C', 'C', 'C', 'C', 'C', 'C', 'C', 'C', 'C', 'C', 'C', 'C', 'C', 'C']","[630076, 630497, 630916, 631275, 631642, 632090, 632492, 632910, 633287, 633693, 634064, 634466, 634844, 635244, 635638, 636015, 636395, 636794, 637156, 637513]","[630180, 630594, 631003, 631386, 631745, 632205, 632610, 633014, 633406, 633795, 634195, 634607, 634998, 635384, 635752, 636109, 636495, 636900, 637259, 637604]","[90, 83, 50, 112, 83, 81, 75, 74, 88, 79, 31, 52, 83, 96, 105, 67, 103, 57, 67, 63]","[630081, 630502, 630922, 631279, 631647, 632095, 632497, 632915, 633292, 633697, 634071, 634471, 634849, 635248, 635642, 636020, 636398, 636800, 637161, 637518]","[628497, 628897, 629297, 629697, 630097, 630497, 630897, 631298, 631662, 632110, 632512, 632930, 633307, 633713, 634084, 634486, 634864, 635265, 635658, 636035, 636416, 636814, 637176, 637533]",60,EM,L,R,ITMSR,1.1
2,400,trial,0,26,26,26,trial,"['S', 'S', 'S', 'S', 'S', 'S', 'S', 'C', 'C', 'C', 'C', 'C', 'C', 'C', 'C', 'C', 'C', 'C', 'C', 'C', 'C', 'C', 'C']","[643793, 644087, 644430, 644862, 645274, 645678, 646054, 646465, 646844, 647248, 647634, 648038, 648445, 648847, 649210, 649620, 650012, 650404, 650778, 651174, 651571, 651929, 652347]","[643871, 644192, 644531, 644960, 645392, 645779, 646164, 646596, 646941, 647380, 647762, 648165, 648550, 648939, 649316, 649725, 650127, 650496, 650874, 651268, 651667, 652039, 652439]","[75, 84, 75, 93, 175, 199, 230, 71, 164, 175, 147, 81, 203, 238, 208, 96, 49, 26, 189, 92, 150, 173, 187]","[643798, 644092, 644435, 644867, 645329, 645685, 646061, 646470, 646883, 647257, 647641, 648043, 648453, 648853, 649218, 649625, 650017, 650411, 650785, 651180, 651577, 651937, 652354]","[643292, 643692, 644092, 644492, 644892, 645293, 645693, 646093, 646486, 646864, 647268, 647654, 648058, 648465, 648867, 649230, 649640, 650032, 650424, 650798, 651194, 651591, 651949, 652367]",60,EM,L,R,ITMSR,1.1
5,400,trial,0,27,27,27,trial,"['S', 'S', 'S', 'S', 'C', 'C', 'C', 'C', 'C', 'C', 'C', 'C', 'C', 'C', 'C', 'C', 'C', 'C', 'C', 'C']","[659268, 659682, 660065, 660452, 660830, 661258, 661630, 662042, 662414, 662842, 663205, 663587, 663977, 664403, 664810, 665193, 665561, 666000, 666378, 666752]","[659345, 659790, 660201, 660570, 660967, 661381, 661775, 662161, 662536, 662944, 663335, 663703, 664091, 664489, 664915, 665302, 665659, 666084, 666501, 666848]","[19, 247, 234, 149, 62, 175, 142, 189, 26, 216, 186, 186, 52, 216, 170, 211, 229, 207, 144, 224]","[659275, 659689, 660073, 660513, 660835, 661266, 661714, 662049, 662419, 662849, 663281, 663595, 663982, 664411, 664862, 665199, 665567, 666007, 666385, 666758]","[657682, 658082, 658482, 658882, 659282, 659682, 660082, 660482, 660850, 661278, 661650, 662062, 662434, 662862, 663225, 663607, 663997, 664423, 664830, 665213, 665581, 666020, 666398, 666772]",60,EM,L,R,ITMSR,1.1
5,600,trial,0,28,28,28,trial,"['S', 'S', 'S', 'S', 'S', 'S', 'C', 'C', 'C', 'C', 'C', 'C', 'C', 'C', 'C', 'C', 'C', 'C', 'C', 'C', 'C', 'C']","[673644, 674293, 674845, 675434, 676078, 676674, 677252, 677803, 678386, 678967, 679565, 680112, 680671, 681227, 681760, 682310, 682857, 683396, 683974, 684527, 685047, 685597]","[673745, 674418, 674961, 675571, 676182, 676807, 677400, 677937, 678532, 679110, 679682, 680252, 680823, 681340, 681888, 682400, 682983, 683509, 684076, 684626, 685168, 685722]","[235, 228, 188, 209, 42, 171, 142, 137, 174, 218, 159, 67, 129, 234, 86, 108, 29, 240, 77, 148, 119, 5]","[673690, 674300, 674853, 675441, 676084, 676681, 677260, 677812, 678393, 678974, 679612, 680119, 680678, 681235, 681768, 682317, 682933, 683463, 683981, 684535, 685052, 685604]","[672516, 673116, 673716, 674316, 674916, 675516, 676116, 676716, 677272, 677823, 678406, 678987, 679585, 680132, 680691, 681247, 681780, 682330, 682877, 683416, 683994, 684547, 685067, 685617]",60,EM,L,R,ITMSR,1.1
4,400,trial,0,29,29,29,trial,"['S', 'S', 'S', 'S', 'C', 'C', 'C', 'C', 'C', 'C', 'C', 'C', 'C', 'C', 'C', 'C', 'C', 'C', 'C', 'C']","[692599, 693032, 693437, 693849, 694263, 694656, 695037, 695462, 695865, 696230, 696633, 696999, 697393, 697812, 698177, 698611, 699002, 699417, 699761, 700157]","[692717, 693150, 693538, 693964, 694379, 694786, 695158, 695578, 695989, 696391, 696760, 697112, 697513, 697918, 698294, 698747, 699128, 699523, 699881, 700264]","[197, 225, 200, 113, 155, 99, 89, 76, 52, 74, 35, 105, 156, 6, 52, 71, 96, 80, 85, 129]","[692606, 693039, 693443, 693857, 694270, 694725, 695046, 695471, 695872, 696302, 696640, 697006, 697399, 697822, 698248, 698619, 699012, 699463, 699820, 700166]","[691080, 691480, 691880, 692280, 692680, 693080, 693480, 693880, 694283, 694676, 695057, 695482, 695885, 696250, 696653, 697019, 697413, 697832, 698198, 698631, 699022, 699437, 699781, 700177]",60,EM,L,R,ITMSR,1.1
2,600,trial,0,30,30,30,trial,"['S', 'S', 'S', 'S', 'S', 'S', 'C', 'C', 'C', 'C', 'C', 'C', 'C', 'C', 'C', 'C', 'C', 'C', 'C', 'C', 'C', 'C']","[716740, 717314, 717927, 718538, 719160, 719715, 720304, 720862, 721485, 722092, 722681, 723245, 723840, 724402, 724997, 725545, 726156, 726755, 727298, 727867, 728458, 729048]","[716867, 717473, 718063, 718700, 719296, 719872, 720437, 720995, 721600, 722217, 722809, 723389, 723954, 724515, 725117, 725687, 726275, 726883, 727435, 728020, 728625, 729190]","[47, 73, 70, 47, 33, 76, 6, 16, 212, 125, 145, 233, 221, 226, 200, 220, 6, 201, 214, 14, 139, 238]","[716746, 717319, 717931, 718544, 719166, 719719, 720309, 720867, 721491, 722100, 722690, 723251, 723846, 724408, 725003, 725552, 726161, 726761, 727304, 727872, 728464, 729053]","[715554, 716154, 716754, 717355, 717954, 718554, 719154, 719754, 720324, 720882, 721505, 722112, 722701, 723265, 723860, 724422, 725017, 725565, 726176, 726775, 727318, 727887, 728478, 729068]",60,EM,L,R,ITMSR,1.1
4,400,trial,0,31,31,31,trial,"['S', 'S', 'S', 'S', 'C', 'C', 'C', 'C', 'C', 'C', 'C', 'C', 'C', 'C', 'C', 'C', 'C', 'C', 'C', 'C']","[736330, 736733, 737156, 737579, 737991, 738348, 738764, 739143, 739537, 739959, 740357, 740745, 741153, 741532, 741928, 742307, 742717, 743133, 743514, 743882]","[736431, 736841, 737252, 737659, 738077, 738468, 738844, 739265, 739665, 740069, 740486, 740844, 741266, 741646, 742028, 742469, 742872, 743259, 743655, 744018]","[215, 253, 194, 12, 216, 193, 130, 170, 212, 156, 174, 206, 186, 74, 71, 178, 138, 212, 15, 79]","[736336, 736738, 737162, 737583, 737997, 738354, 738771, 739149, 739543, 739965, 740364, 740752, 741159, 741540, 741934, 742394, 742724, 743139, 743611, 743888]","[734788, 735188, 735588, 735988, 736388, 736788, 737188, 737588, 738011, 738368, 738784, 739163, 739557, 739979, 740377, 740765, 741173, 741552, 741948, 742327, 742737, 743153, 743534, 743902]",60,EM,L,R,ITMSR,1.1
2,600,trial,0,32,32,32,trial,"['S', 'S', 'S', 'S', 'S', 'S', 'C', 'C', 'C', 'C', 'C', 'C', 'C', 'C', 'C', 'C', 'C', 'C', 'C', 'C', 'C', 'C']","[750695, 751332, 751890, 752496, 753103, 753672, 754266, 754845, 755452, 756043, 756628, 757215, 757788, 758375, 758932, 759519, 760096, 760656, 761240, 761798, 762396, 763008]","[750804, 751444, 752027, 752657, 753265, 753839, 754423, 755018, 755612, 756189, 756786, 757413, 757949, 758536, 759090, 759671, 760252, 760830, 761364, 761958, 762542, 763142]","[122, 59, 238, 231, 240, 135, 154, 68, 130, 151, 80, 32, 62, 98, 95, 84, 9, 60, 160, 49, 241, 82]","[750703, 751339, 751896, 752500, 753110, 753680, 754273, 754948, 755460, 756050, 756636, 757223, 757795, 758383, 758939, 759527, 760103, 760664, 761305, 761805, 762464, 763016]","[749545, 750145, 750745, 751345, 751945, 752545, 753145, 753745, 754286, 754865, 755472, 756063, 756648, 757235, 757808, 758395, 758952, 759539, 760116, 760676, 761261, 761818, 762416, 763028]",60,EM,L,R,ITMSR,1.1
0,600,trial,0,33,33,33,trial,"['S', 'S', 'S', 'S', 'C', 'C', 'C', 'C', 'C', 'C', 'C', 'C', 'C', 'C', 'C', 'C', 'C', 'C', 'C', 'C']","[771059, 771649, 772257, 772896, 773463, 774023, 774619, 775224, 775840, 776462, 777068, 777645, 778177, 778727, 779312, 779857, 780437, 781018, 781611, 782166]","[771178, 771789, 772372, 773015, 773578, 774135, 774707, 775346, 775947, 776553, 777157, 777752, 778338, 778866, 779429, 779982, 780547, 781127, 781694, 782281]","[218, 222, 125, 51, 73, 85, 217, 15, 6, 39, 223, 148, 39, 196, 78, 241, 106, 49, 229, 140]","[771066, 771656, 772265, 772905, 773470, 774031, 774630, 775266, 775891, 776472, 777077, 777689, 778250, 778733, 779320, 779867, 780442, 781025, 781618, 782173]","[768722, 769323, 769922, 770522, 771122, 771722, 772322, 772922, 773483, 774043, 774639, 775244, 775860, 776482, 777089, 777665, 778198, 778747, 779332, 779877, 780457, 781038, 781631, 782186]",60,EM,L,R,ITMSR,1.1
1,600,trial,0,34,34,34,trial,"['S', 'S', 'S', 'S', 'S', 'S', 'C', 'C', 'C', 'C', 'C', 'C', 'C', 'C', 'C', 'C', 'C', 'C', 'C', 'C', 'C', 'C']","[789089, 789716, 790372, 790916, 791474, 792065, 792700, 793238, 793843, 794413, 795019, 795619, 796181, 796774, 797385, 798004, 798594, 799134, 799732, 800317, 800902, 801478]","[789239, 789855, 790497, 791027, 791607, 792169, 792823, 793371, 793996, 794550, 795131, 795747, 796272, 796868, 797471, 798099, 798725, 799268, 799854, 800463, 801036, 801599]","[199, 191, 41, 247, 254, 34, 30, 14, 12, 192, 232, 236, 57, 15, 119, 195, 146, 184, 189, 211, 240, 250]","[789096, 789723, 790376, 790921, 791479, 792071, 792707, 793244, 793849, 794480, 795025, 795625, 796186, 796780, 797392, 798011, 798601, 799141, 799738, 800323, 800908, 801484]","[787932, 788532, 789132, 789732, 790332, 790932, 791532, 792132, 792720, 793259, 793863, 794433, 795039, 795639, 796201, 796794, 797405, 798024, 798614, 799154, 799752, 800337, 800922, 801498]",60,EM,L,R,ITMSR,1.1
0,600,trial,0,35,35,35,trial,"['S', 'S', 'S', 'S', 'S', 'S', 'C', 'C', 'C', 'C', 'C', 'C', 'C', 'C', 'C', 'C', 'C', 'C', 'C', 'C', 'C', 'C']","[808073, 808708, 809308, 809894, 810507, 811130, 811729, 812285, 812878, 813464, 814006, 814588, 815147, 815765, 816327, 816933, 817503, 818070, 818621, 819191, 819738, 820297]","[808201, 808821, 809437, 810057, 810636, 811245, 811848, 812411, 812988, 813566, 814102, 814698, 815253, 815860, 816452, 817021, 817626, 818154, 818712, 819286, 819820, 820375]","[48, 182, 184, 233, 216, 212, 253, 5, 232, 120, 174, 159, 196, 0, 147, 33, 193, 20, 205, 196, 247, 185]","[808082, 808715, 809315, 809901, 810514, 811138, 811737, 812293, 812886, 813470, 814013, 814596, 815154, 815771, 816334, 816940, 817510, 818076, 818628, 819198, 819744, 820304]","[806951, 807550, 808151, 808750, 809350, 809950, 810550, 811150, 811749, 812305, 812898, 813485, 814026, 814608, 815167, 815785, 816347, 816953, 817523, 818091, 818641, 819211, 819758, 820317]",60,EM,L,R,ITMSR,1.1
5,400,trial,0,36,36,36,trial,"['S', 'S', 'S', 'S', 'S', 'S', 'S', 'C', 'C', 'C', 'C', 'C', 'C', 'C', 'C', 'C', 'C', 'C', 'C', 'C', 'C', 'C', 'C']","[826485, 826885, 827253, 827662, 828092, 828478, 828856, 829279, 829666, 830078, 830476, 830888, 831283, 831708, 832122, 832519, 832888, 833280, 833701, 834085, 834489, 834887, 835282]","[826574, 826972, 827359, 827774, 828192, 828599, 828971, 829389, 829778, 830180, 830602, 830993, 831388, 831810, 832247, 832630, 833013, 833417, 833816, 834228, 834617, 835000, 835436]","[214, 251, 56, 36, 255, 21, 188, 134, 96, 140, 192, 224, 197, 132, 159, 156, 163, 107, 93, 107, 36, 27, 98]","[826493, 826890, 827257, 827667, 828098, 828483, 828862, 829286, 829673, 830085, 830482, 830894, 831289, 831714, 832129, 832524, 832894, 833285, 833757, 834092, 834495, 834952, 835355]","[826097, 826498, 826898, 827298, 827698, 828098, 828498, 828898, 829299, 829686, 830098, 830496, 830908, 831303, 831728, 832142, 832539, 832908, 833300, 833721, 834105, 834509, 834907, 835302]",60,EM,L,R,ITMSR,1.1
2,400,trial,0,37,37,37,trial,"['S', 'S', 'S', 'S', 'C', 'C', 'C', 'C', 'C', 'C', 'C', 'C', 'C', 'C', 'C', 'C', 'C', 'C', 'C', 'C']","[842456, 842858, 843266, 843672, 844088, 844493, 844865, 845247, 845661, 846045, 846433, 846826, 847229, 847626, 848014, 848381, 848774, 849181, 849550, 849940]","[842574, 842992, 843393, 843819, 844233, 844625, 845008, 845411, 845805, 846180, 846571, 846958, 847346, 847752, 848144, 848495, 848902, 849304, 849674, 850054]","[237, 183, 212, 97, 94, 79, 6, 117, 137, 121, 112, 62, 168, 105, 156, 171, 211, 153, 193, 225]","[842463, 842866, 843273, 843680, 844150, 844503, 844944, 845346, 845668, 846053, 846441, 846834, 847236, 847635, 848021, 848391, 848780, 849189, 849557, 849946]","[840932, 841332, 841732, 842132, 842532, 842932, 843332, 843732, 844108, 844513, 844886, 845267, 845681, 846065, 846453, 846846, 847249, 847646, 848034, 848401, 848794, 849201, 849570, 849960]",60,EM,L,R,ITMSR,1.1
3,600,trial,0,38,38,38,trial,"['S', 'S', 'S', 'S', 'S', 'S', 'S', 'C', 'C', 'C', 'C', 'C', 'C', 'C', 'C', 'C', 'C', 'C', 'C', 'C', 'C', 'C', 'C']","[855937, 856666, 857310, 857880, 858477, 859078, 859648, 860230, 860803, 861331, 861859, 862359, 862876, 863442, 863971, 864523, 865086, 865627, 866176, 866742, 867292, 867842, 868400]","[856035, 856770, 857406, 858002, 858589, 859197, 859798, 860367, 860915, 861430, 861962, 862465, 862960, 863542, 864082, 864635, 865192, 865748, 866290, 866848, 867408, 867984, 868530]","[60, 44, 240, 204, 197, 136, 254, 248, 165, 195, 199, 220, 92, 238, 83, 238, 194, 152, 34, 52, 78, 118, 95]","[855942, 856672, 857317, 857887, 858484, 859087, 859654, 860236, 860809, 861336, 861865, 862365, 862883, 863449, 863978, 864529, 865093, 865634, 866184, 866749, 867300, 867849, 868406]","[855577, 856176, 856776, 857376, 857976, 858576, 859176, 859777, 860250, 860823, 861351, 861879, 862380, 862896, 863462, 863991, 864543, 865106, 865647, 866196, 866762, 867312, 867862, 868420]",60,EM,L,R,ITMSR,1.1
5,600,trial,0,39,39,39,trial,"['S', 'S', 'S', 'S', 'S', 'S', 'C', 'C', 'C', 'C', 'C', 'C', 'C', 'C', 'C', 'C', 'C', 'C', 'C', 'C', 'C', 'C']","[875069, 875670, 876280, 876852, 877443, 878081, 878638, 879226, 879838, 880450, 881010, 881547, 882142, 882711, 883312, 883885, 884426, 884987, 885624, 886195, 886785, 887323]","[875183, 875805, 876432, 877025, 877623, 878244, 878814, 879387, 879975, 880576, 881168, 881700, 882276, 882849, 883425, 884023, 884567, 885160, 885777, 886335, 886927, 887464]","[239, 238, 238, 241, 206, 195, 228, 161, 121, 79, 165, 203, 166, 191, 233, 49, 88, 138, 59, 143, 82, 128]","[875075, 875675, 876286, 876858, 877450, 878088, 878644, 879234, 879846, 880516, 881018, 881553, 882149, 882718, 883322, 883893, 884434, 884995, 885633, 886202, 886793, 887330]","[873926, 874526, 875126, 875726, 876326, 876926, 877527, 878126, 878658, 879246, 879858, 880471, 881030, 881567, 882162, 882732, 883332, 883905, 884446, 885007, 885644, 886215, 886805, 887343]",60,EM,L,R,ITMSR,1.1
4,600,trial,0,40,40,40,trial,"['S', 'S', 'S', 'S', 'C', 'C', 'C', 'C', 'C', 'C', 'C', 'C', 'C', 'C', 'C', 'C', 'C', 'C', 'C', 'C']","[895437, 896052, 896637, 897272, 897899, 898488, 899074, 899691, 900268, 900843, 901459, 902081, 902669, 903214, 903769, 904388, 904997, 905562, 906136, 906748]","[895591, 896251, 896800, 897429, 898045, 898649, 899209, 899817, 900417, 900997, 901611, 902220, 902804, 903364, 903919, 904553, 905150, 905740, 906276, 906885]","[155, 198, 70, 254, 255, 228, 251, 15, 81, 44, 125, 114, 8, 129, 184, 151, 93, 163, 141, 41]","[895443, 896059, 896722, 897352, 897981, 898576, 899150, 899699, 900276, 900852, 901467, 902089, 902737, 903222, 903847, 904496, 905007, 905570, 906144, 906757]","[893127, 893727, 894327, 894927, 895527, 896128, 896728, 897328, 897920, 898508, 899094, 899712, 900288, 900864, 901479, 902102, 902689, 903234, 903789, 904408, 905017, 905582, 906157, 906768]",60,EM,L,R,ITMSR,1.1
4,400,trial,0,41,41,41,trial,"['S', 'S', 'S', 'S', 'C', 'C', 'C', 'C', 'C', 'C', 'C', 'C', 'C', 'C', 'C', 'C', 'C', 'C', 'C', 'C']","[914117, 914519, 914906, 915328, 915695, 916110, 916507, 916915, 917317, 917703, 918112, 918515, 918929, 919328, 919694, 920092, 920486, 920898, 921245, 921637]","[914216, 914624, 915006, 915433, 915809, 916218, 916610, 917031, 917435, 917847, 918241, 918660, 919066, 919459, 919801, 920208, 920593, 921003, 921366, 921774]","[51, 251, 79, 108, 231, 13, 6, 18, 184, 19, 217, 162, 71, 187, 33, 202, 124, 218, 117, 174]","[914126, 914525, 914913, 915335, 915703, 916117, 916516, 916923, 917324, 917787, 918121, 918525, 919013, 919404, 919702, 920152, 920495, 920943, 921253, 921708]","[912561, 912961, 913361, 913761, 914161, 914562, 914962, 915362, 915715, 916130, 916527, 916935, 917337, 917723, 918132, 918535, 918949, 919348, 919714, 920112, 920506, 920919, 921265, 921657]",60,EM,L,R,ITMSR,1.1
2,400,trial,0,42,42,42,trial,"['S', 'S', 'S', 'S', 'C', 'C', 'C', 'C', 'C', 'C', 'C', 'C', 'C', 'C', 'C', 'C', 'C', 'C', 'C', 'C']","[928817, 929218, 929614, 929976, 930398, 930795, 931198, 931575, 931986, 932379, 932779, 933157, 933538, 933968, 934338, 934730, 935118, 935471, 935883, 936279]","[928918, 929329, 929731, 930087, 930539, 930904, 931289, 931696, 932112, 932519, 932881, 933271, 933676, 934062, 934431, 934861, 935231, 935631, 936028, 936431]","[116, 182, 152, 39, 143, 248, 238, 251, 49, 123, 102, 109, 109, 90, 146, 12, 140, 153, 227, 155]","[928823, 929226, 929623, 929983, 930405, 930802, 931206, 931642, 932060, 932459, 932788, 933200, 933614, 933977, 934347, 934738, 935124, 935569, 935963, 936287]","[927269, 927668, 928068, 928468, 928868, 929268, 929668, 930068, 930418, 930816, 931218, 931595, 932006, 932399, 932799, 933177, 933558, 933988, 934359, 934750, 935138, 935491, 935903, 936299]",60,EM,L,R,ITMSR,1.1
0,400,trial,0,43,43,43,trial,"['S', 'S', 'S', 'S', 'C', 'C', 'C', 'C', 'C', 'C', 'C', 'C', 'C', 'C', 'C', 'C', 'C', 'C', 'C', 'C', 'C']","[943326, 943719, 944105, 944548, 944926, 945293, 945704, 946078, 946502, 946866, 947316, 947703, 947811, 948107, 948474, 948850, 949245, 949649, 950037, 950380, 950786]","[943432, 943862, 944228, 944668, 945049, 945431, 945822, 946212, 946627, 947020, 947441, 947731, 947881, 948229, 948574, 948976, 949336, 949771, 950163, 950519, 950907]","[63, 107, 22, 114, 73, 34, 93, 18, 192, 228, 229, 237, 86, 125, 253, 4, 143, 183, 226, 255, 79]","[943334, 943727, 944112, 944556, 944934, 945300, 945712, 946149, 946510, 946940, 947372, 947712, 947828, 948118, 948483, 948858, 949254, 949657, 950047, 950389, 950793]","[941788, 942188, 942588, 942988, 943388, 943789, 944189, 944589, 944946, 945313, 945724, 946098, 946522, 946886, 947336, 947723, 948127, 948494, 948870, 949265, 949669, 950057, 950401, 950806]",60,EM,L,R,ITMSR,1.1
4,600,trial,0,44,44,44,trial,"['S', 'S', 'S', 'S', 'C', 'C', 'C', 'C', 'C', 'C', 'C', 'C', 'C', 'C', 'C', 'C', 'C', 'C', 'C', 'C']","[958955, 959543, 960155, 960721, 961331, 961948, 962520, 963100, 963666, 964272, 964800, 965373, 965947, 966514, 967094, 967677, 968272, 968832, 969391, 969954]","[959083, 959666, 960274, 960870, 961474, 962069, 962649, 963206, 963804, 964343, 964900, 965486, 966056, 966621, 967202, 967811, 968416, 968983, 969549, 970115]","[254, 46, 195, 216, 206, 221, 106, 208, 38, 170, 92, 169, 227, 65, 172, 39, 45, 45, 72, 142]","[958961, 959548, 960162, 960729, 961338, 962000, 962526, 963106, 963746, 964278, 964807, 965380, 965953, 966520, 967139, 967686, 968354, 968840, 969399, 969961]","[956584, 957185, 957784, 958384, 958984, 959584, 960184, 960784, 961351, 961968, 962540, 963120, 963686, 964292, 964820, 965393, 965967, 966534, 967114, 967697, 968292, 968852, 969411, 969974]",60,EM,L,R,ITMSR,1.1
3,600,trial,0,45,45,45,trial,"['S', 'S', 'S', 'S', 'C', 'C', 'C', 'C', 'C', 'C', 'C', 'C', 'C', 'C', 'C', 'C', 'C', 'C', 'C', 'C']","[977704, 978270, 978894, 979502, 980123, 980704, 981299, 981899, 982495, 983063, 983647, 984261, 984860, 985444, 986028, 986629, 987241, 987807, 988408, 989009]","[977809, 978421, 979035, 979648, 980244, 980841, 981429, 982040, 982644, 983227, 983801, 984403, 984989, 985583, 986190, 986781, 987381, 987991, 988546, 989151]","[225, 23, 249, 243, 252, 208, 118, 58, 120, 224, 233, 157, 245, 249, 52, 71, 145, 129, 234, 191]","[977711, 978276, 978900, 979508, 980129, 980710, 981306, 981970, 982572, 983070, 983653, 984309, 984866, 985450, 986036, 986637, 987248, 987915, 988414, 989017]","[975355, 975955, 976556, 977155, 977755, 978355, 978955, 979555, 980143, 980724, 981319, 981919, 982515, 983084, 983667, 984281, 984880, 985464, 986048, 986649, 987261, 987827, 988428, 989029]",60,EM,L,R,ITMSR,1.1
0,400,trial,0,46,46,46,trial,"['S', 'S', 'S', 'S', 'C', 'C', 'C', 'C', 'C', 'C', 'C', 'C', 'C', 'C', 'C', 'C', 'C', 'C', 'C', 'C']","[996172, 996608, 997010, 997434, 997782, 998193, 998575, 998970, 999364, 999771, 1000181, 1000601, 1000992, 1001352, 1001726, 1002129, 1002511, 1002866, 1003228, 1003642]","[996279, 996731, 997141, 997534, 997908, 998310, 998694, 999090, 999497, 999884, 1000295, 1000672, 1001099, 1001438, 1001821, 1002224, 1002608, 1002969, 1003343, 1003720]","[218, 243, 198, 194, 221, 206, 163, 199, 216, 179, 176, 90, 212, 150, 203, 207, 198, 195, 93, 239]","[996178, 996613, 997016, 997441, 997788, 998199, 998582, 998976, 999370, 999778, 1000187, 1000609, 1000998, 1001359, 1001733, 1002136, 1002518, 1002873, 1003235, 1003650]","[994628, 995028, 995428, 995828, 996228, 996628, 997028, 997428, 997803, 998213, 998595, 998990, 999384, 999791, 1000201, 1000621, 1001012, 1001372, 1001746, 1002149, 1002531, 1002886, 1003248, 1003662]",60,EM,L,R,ITMSR,1.1
1,400,trial,0,47,47,47,trial,"['S', 'S', 'S', 'S', 'C', 'C', 'C', 'C', 'C', 'C', 'C', 'C', 'C', 'C', 'C', 'C', 'C', 'C', 'C', 'C']","[1010874, 1011294, 1011688, 1012071, 1012456, 1012837, 1013211, 1013568, 1013941, 1014306, 1014709, 1015077, 1015516, 1015883, 1016238, 1016628, 1017010, 1017383, 1017768, 1018127]","[1010985, 1011409, 1011826, 1012186, 1012566, 1012951, 1013314, 1013657, 1014073, 1014420, 1014839, 1015196, 1015615, 1015997, 1016351, 1016726, 1017112, 1017508, 1017882, 1018264]","[238, 225, 164, 241, 180, 10, 228, 143, 240, 27, 123, 172, 124, 151, 160, 164, 131, 157, 137, 153]","[1010919, 1011300, 1011763, 1012077, 1012463, 1012843, 1013218, 1013608, 1013947, 1014311, 1014772, 1015135, 1015524, 1015889, 1016245, 1016635, 1017017, 1017391, 1017776, 1018191]","[1009362, 1009762, 1010162, 1010562, 1010962, 1011362, 1011762, 1012162, 1012476, 1012857, 1013231, 1013588, 1013961, 1014326, 1014729, 1015097, 1015536, 1015903, 1016258, 1016648, 1017030, 1017403, 1017788, 1018147]",60,EM,L,R,ITMSR,1.1
1,600,trial,0,48,48,48,trial,"['S', 'S', 'S', 'S', 'C', 'C', 'C', 'C', 'C', 'C', 'C', 'C', 'C', 'C', 'C', 'C', 'C', 'C', 'C', 'C']","[1026053, 1026623, 1027230, 1027834, 1028471, 1029069, 1029682, 1030248, 1030806, 1031386, 1031955, 1032507, 1033058, 1033612, 1034188, 1034729, 1035309, 1035840, 1036377, 1036963]","[1026152, 1026737, 1027348, 1027957, 1028587, 1029179, 1029773, 1030345, 1030912, 1031486, 1032059, 1032591, 1033174, 1033731, 1034304, 1034862, 1035411, 1035944, 1036482, 1037056]","[22, 210, 25, 41, 84, 67, 46, 32, 11, 213, 248, 205, 242, 183, 122, 39, 194, 202, 244, 219]","[1026057, 1026629, 1027235, 1027838, 1028475, 1029073, 1029687, 1030253, 1030811, 1031393, 1031961, 1032513, 1033064, 1033619, 1034196, 1034735, 1035315, 1035848, 1036383, 1036971]","[1023674, 1024274, 1024874, 1025474, 1026074, 1026674, 1027274, 1027874, 1028491, 1029089, 1029702, 1030268, 1030827, 1031406, 1031975, 1032527, 1033078, 1033632, 1034208, 1034749, 1035329, 1035860, 1036397, 1036983]",60,EM,L,R,ITMSR,1.1
1,400,trial,0,49,49,49,trial,"['S', 'S', 'S', 'S', 'C', 'C', 'C', 'C', 'C', 'C', 'C', 'C', 'C', 'C', 'C', 'C', 'C', 'C', 'C', 'C']","[1043875, 1044274, 1044674, 1045084, 1045485, 1045848, 1046189, 1046600, 1047003, 1047413, 1047825, 1048233, 1048628, 1049001, 1049388, 1049808, 1050200, 1050611, 1051017, 1051421]","[1043972, 1044379, 1044785, 1045183, 1045585, 1045934, 1046312, 1046704, 1047102, 1047538, 1047930, 1048352, 1048754, 1049151, 1049554, 1049945, 1050328, 1050736, 1051139, 1051544]","[201, 205, 173, 203, 76, 248, 250, 150, 140, 152, 145, 135, 114, 121, 82, 111, 133, 156, 206, 188]","[1043880, 1044279, 1044681, 1045091, 1045493, 1045884, 1046197, 1046644, 1047010, 1047420, 1047833, 1048242, 1048637, 1049077, 1049479, 1049817, 1050207, 1050618, 1051089, 1051490]","[1042336, 1042736, 1043136, 1043536, 1043936, 1044336, 1044737, 1045136, 1045506, 1045868, 1046209, 1046620, 1047023, 1047433, 1047845, 1048253, 1048648, 1049021, 1049408, 1049828, 1050220, 1050631, 1051037, 1051441]",60,EM,L,R,ITMSR,1.1
5,400,trial,0,50,50,50,trial,"['S', 'S', 'S', 'S', 'C', 'C', 'C', 'C', 'C', 'C', 'C', 'C', 'C', 'C', 'C', 'C', 'C', 'C', 'C', 'C']","[1058635, 1059026, 1059434, 1059836, 1060218, 1060610, 1061003, 1061401, 1061810, 1062187, 1062578, 1062962, 1063359, 1063795, 1064185, 1064589, 1064993, 1065358, 1065748, 1066101]","[1058740, 1059141, 1059557, 1059980, 1060371, 1060731, 1061129, 1061520, 1061936, 1062319, 1062705, 1063075, 1063487, 1063889, 1064318, 1064715, 1065118, 1065475, 1065868, 1066219]","[145, 172, 181, 195, 127, 117, 71, 109, 4, 64, 8, 80, 87, 109, 195, 71, 30, 75, 188, 238]","[1058641, 1059035, 1059442, 1059845, 1060227, 1060619, 1061011, 1061409, 1061819, 1062196, 1062588, 1062971, 1063431, 1063806, 1064278, 1064665, 1065061, 1065412, 1065755, 1066151]","[1057078, 1057478, 1057879, 1058278, 1058678, 1059078, 1059478, 1059878, 1060238, 1060630, 1061023, 1061421, 1061830, 1062207, 1062598, 1062982, 1063379, 1063815, 1064205, 1064609, 1065013, 1065378, 1065768, 1066121]",60,EM,L,R,ITMSR,1.1
3,400,trial,0,51,51,51,trial,"['S', 'S', 'S', 'S', 'C', 'C', 'C', 'C', 'C', 'C', 'C', 'C', 'C', 'C', 'C', 'C', 'C', 'C', 'C', 'C']","[1073019, 1073441, 1073835, 1074213, 1074599, 1075007, 1075352, 1075717, 1076106, 1076492, 1076874, 1077272, 1077671, 1078050, 1078448, 1078820, 1079204, 1079603, 1079994, 1080379]","[1073112, 1073565, 1073937, 1074337, 1074748, 1075109, 1075452, 1075816, 1076208, 1076594, 1076998, 1077392, 1077791, 1078154, 1078558, 1078929, 1079329, 1079720, 1080093, 1080501]","[18, 134, 212, 81, 100, 81, 190, 180, 195, 18, 218, 220, 13, 247, 170, 37, 40, 82, 44, 60]","[1073028, 1073451, 1073846, 1074222, 1074607, 1075015, 1075396, 1075729, 1076149, 1076501, 1076932, 1077331, 1077682, 1078091, 1078458, 1078829, 1079215, 1079612, 1080002, 1080387]","[1071525, 1071924, 1072324, 1072724, 1073124, 1073524, 1073924, 1074324, 1074619, 1075027, 1075373, 1075737, 1076126, 1076512, 1076894, 1077293, 1077691, 1078070, 1078468, 1078840, 1079224, 1079623, 1080014, 1080399]",60,EM,L,R,ITMSR,1.1
5,600,trial,0,52,52,52,trial,"['S', 'S', 'S', 'S', 'C', 'C', 'C', 'C', 'C', 'C', 'C', 'C', 'C', 'C', 'C', 'C', 'C', 'C', 'C', 'C']","[1088495, 1089103, 1089658, 1090252, 1090866, 1091422, 1091972, 1092578, 1093117, 1093694, 1094278, 1094847, 1095428, 1095964, 1096556, 1097151, 1097742, 1098276, 1098829, 1099421]","[1088602, 1089226, 1089796, 1090396, 1091021, 1091554, 1092091, 1092704, 1093236, 1093814, 1094394, 1094988, 1095563, 1096100, 1096706, 1097312, 1097892, 1098413, 1098954, 1099553]","[138, 158, 118, 161, 152, 167, 81, 88, 67, 192, 123, 47, 140, 136, 44, 219, 254, 15, 27, 139]","[1088502, 1089111, 1089666, 1090258, 1090873, 1091430, 1091980, 1092585, 1093125, 1093700, 1094284, 1094854, 1095434, 1095971, 1096565, 1097232, 1097750, 1098284, 1098838, 1099428]","[1086184, 1086783, 1087383, 1087983, 1088583, 1089183, 1089783, 1090383, 1090886, 1091442, 1091992, 1092598, 1093137, 1093714, 1094298, 1094867, 1095448, 1095984, 1096577, 1097171, 1097762, 1098296, 1098849, 1099441]",60,EM,L,R,ITMSR,1.1
3,400,trial,0,53,53,53,trial,"['S', 'S', 'S', 'S', 'C', 'C', 'C', 'C', 'C', 'C', 'C', 'C', 'C', 'C', 'C', 'C', 'C', 'C', 'C', 'C']","[1106628, 1107015, 1107423, 1107802, 1108221, 1108609, 1108988, 1109382, 1109757, 1110142, 1110532, 1110939, 1111324, 1111698, 1112069, 1112466, 1112873, 1113275, 1113619, 1114000]","[1106738, 1107145, 1107551, 1107948, 1108341, 1108727, 1109103, 1109502, 1109868, 1110281, 1110640, 1111083, 1111507, 1111835, 1112233, 1112607, 1113038, 1113394, 1113746, 1114130]","[180, 202, 217, 197, 165, 157, 52, 119, 149, 50, 26, 53, 143, 93, 97, 58, 183, 245, 103, 110]","[1106636, 1107023, 1107430, 1107809, 1108230, 1108617, 1108999, 1109391, 1109766, 1110153, 1110541, 1110948, 1111331, 1111706, 1112076, 1112474, 1112881, 1113339, 1113627, 1114007]","[1105083, 1105483, 1105883, 1106283, 1106683, 1107083, 1107483, 1107884, 1108241, 1108629, 1109008, 1109402, 1109777, 1110162, 1110552, 1110959, 1111344, 1111718, 1112089, 1112486, 1112893, 1113295, 1113639, 1114020]",60,EM,L,R,ITMSR,1.1
5,400,trial,0,54,54,54,trial,"['S', 'S', 'S', 'S', 'C', 'C', 'C', 'C', 'C', 'C', 'C', 'C', 'C', 'C', 'C', 'C', 'C', 'C', 'C', 'C']","[1123306, 1123712, 1124118, 1124527, 1124923, 1125295, 1125696, 1126090, 1126482, 1126893, 1127287, 1127632, 1128030, 1128416, 1128809, 1129179, 1129579, 1129979, 1130369, 1130741]","[1123439, 1123856, 1124267, 1124682, 1125067, 1125432, 1125815, 1126221, 1126628, 1127031, 1127447, 1127783, 1128195, 1128572, 1128942, 1129321, 1129729, 1130122, 1130492, 1130872]","[219, 207, 191, 133, 147, 106, 150, 104, 80, 89, 81, 173, 150, 110, 147, 168, 167, 101, 91, 124]","[1123374, 1123719, 1124126, 1124610, 1124931, 1125303, 1125704, 1126159, 1126561, 1126901, 1127385, 1127719, 1128118, 1128425, 1128818, 1129187, 1129586, 1130073, 1130431, 1130749]","[1121795, 1122195, 1122595, 1122995, 1123395, 1123795, 1124195, 1124595, 1124943, 1125315, 1125716, 1126110, 1126502, 1126914, 1127307, 1127652, 1128050, 1128436, 1128829, 1129199, 1129600, 1129999, 1130389, 1130761]",60,EM,L,R,ITMSR,1.1
2,600,trial,0,55,55,55,trial,"['S', 'S', 'S', 'S', 'S', 'S', 'S', 'C', 'C', 'C', 'C', 'C', 'C', 'C', 'C', 'C', 'C', 'C', 'C', 'C', 'C', 'C', 'C']","[1137092, 1137528, 1138119, 1138685, 1139281, 1139904, 1140487, 1141056, 1141676, 1142251, 1142827, 1143419, 1143970, 1144542, 1145150, 1145750, 1146335, 1146894, 1147470, 1148061, 1148654, 1149239, 1149814]","[1137112, 1137627, 1138243, 1138805, 1139410, 1140036, 1140618, 1141231, 1141796, 1142409, 1142955, 1143544, 1144126, 1144706, 1145302, 1145900, 1146498, 1147089, 1147638, 1148238, 1148809, 1149394, 1149967]","[25, 65, 0, 157, 151, 158, 4, 131, 26, 91, 75, 100, 26, 172, 86, 223, 75, 86, 32, 145, 54, 58, 50]","[1137096, 1137533, 1138126, 1138693, 1139288, 1139911, 1140551, 1141152, 1141686, 1142343, 1142876, 1143477, 1144056, 1144625, 1145221, 1145759, 1146344, 1147004, 1147480, 1148069, 1148663, 1149248, 1149824]","[1136347, 1136947, 1137547, 1138147, 1138747, 1139347, 1139947, 1140547, 1141076, 1141696, 1142272, 1142847, 1143439, 1143990, 1144562, 1145170, 1145771, 1146355, 1146914, 1147490, 1148081, 1148674, 1149259, 1149834]",60,EM,L,R,ITMSR,1.1
4,400,trial,0,56,56,56,trial,"['S', 'S', 'S', 'S', 'C', 'C', 'C', 'C', 'C', 'C', 'C', 'C', 'C', 'C', 'C', 'C', 'C', 'C', 'C', 'C']","[1156762, 1157156, 1157538, 1157908, 1158325, 1158687, 1159074, 1159470, 1159846, 1160276, 1160668, 1161005, 1161428, 1161808, 1162200, 1162580, 1162972, 1163358, 1163731, 1164116]","[1156871, 1157276, 1157646, 1158021, 1158460, 1158799, 1159169, 1159572, 1159950, 1160372, 1160811, 1161153, 1161553, 1161955, 1162333, 1162699, 1163060, 1163492, 1163854, 1164236]","[160, 92, 104, 90, 37, 187, 209, 198, 199, 28, 85, 10, 238, 47, 8, 86, 68, 45, 94, 100]","[1156769, 1157166, 1157547, 1157915, 1158397, 1158695, 1159083, 1159512, 1159896, 1160285, 1160743, 1161092, 1161438, 1161900, 1162274, 1162589, 1162981, 1163367, 1163740, 1164125]","[1155223, 1155623, 1156023, 1156423, 1156824, 1157224, 1157624, 1158024, 1158345, 1158707, 1159094, 1159490, 1159866, 1160296, 1160688, 1161025, 1161448, 1161828, 1162220, 1162600, 1162992, 1163378, 1163751, 1164136]",60,EM,L,R,ITMSR,1.1
1,600,trial,0,57,57,57,trial,"['S', 'S', 'S', 'S', 'S', 'S', 'C', 'C', 'C', 'C', 'C', 'C', 'C', 'C', 'C', 'C', 'C', 'C', 'C', 'C', 'C', 'C']","[1171051, 1171629, 1172234, 1172851, 1173437, 1174030, 1174591, 1175151, 1175717, 1176302, 1176875, 1177434, 1177995, 1178527, 1179052, 1179621, 1180184, 1180747, 1181317, 1181867, 1182382, 1182907]","[1171173, 1171771, 1172381, 1172971, 1173559, 1174151, 1174725, 1175244, 1175845, 1176416, 1177004, 1177560, 1178113, 1178640, 1179184, 1179723, 1180298, 1180872, 1181404, 1181969, 1182493, 1182998]","[165, 140, 114, 108, 93, 253, 79, 94, 59, 227, 80, 10, 40, 11, 215, 159, 252, 128, 55, 22, 204, 180]","[1171103, 1171636, 1172240, 1172858, 1173443, 1174038, 1174598, 1175161, 1175786, 1176343, 1176932, 1177498, 1178003, 1178535, 1179130, 1179666, 1180229, 1180754, 1181325, 1181876, 1182390, 1182914]","[1169917, 1170516, 1171117, 1171717, 1172317, 1172917, 1173517, 1174117, 1174611, 1175171, 1175737, 1176322, 1176895, 1177454, 1178015, 1178547, 1179072, 1179641, 1180205, 1180767, 1181337, 1181887, 1182402, 1182927]",60,EM,L,R,ITMSR,1.1
4,400,trial,0,58,58,58,trial,"['S', 'S', 'S', 'S', 'C', 'C', 'C', 'C', 'C', 'C', 'C', 'C', 'C', 'C', 'C', 'C', 'C', 'C', 'C', 'C']","[1189844, 1190261, 1190701, 1191097, 1191498, 1191898, 1192292, 1192694, 1193088, 1193480, 1193869, 1194235, 1194651, 1195053, 1195474, 1195865, 1196260, 1196632, 1197026, 1197426]","[1189956, 1190384, 1190810, 1191207, 1191615, 1192019, 1192431, 1192828, 1193206, 1193607, 1193963, 1194355, 1194780, 1195179, 1195592, 1195999, 1196382, 1196752, 1197167, 1197516]","[250, 191, 247, 132, 95, 127, 223, 78, 108, 72, 24, 210, 255, 188, 59, 90, 33, 16, 44, 230]","[1189851, 1190268, 1190706, 1191105, 1191505, 1191905, 1192355, 1192702, 1193096, 1193488, 1193877, 1194244, 1194719, 1195125, 1195482, 1195873, 1196320, 1196638, 1197034, 1197479]","[1188332, 1188732, 1189132, 1189532, 1189933, 1190333, 1190733, 1191133, 1191518, 1191918, 1192312, 1192714, 1193108, 1193500, 1193889, 1194255, 1194671, 1195073, 1195494, 1195885, 1196280, 1196652, 1197046, 1197446]",60,EM,L,R,ITMSR,1.1
4,600,trial,0,59,59,59,trial,"['S', 'S', 'S', 'S', 'S', 'S', 'C', 'C', 'C', 'C', 'C', 'C', 'C', 'C', 'C', 'C', 'C', 'C', 'C', 'C', 'C', 'C']","[1204389, 1204947, 1205529, 1206122, 1206735, 1207346, 1207920, 1208514, 1209114, 1209689, 1210289, 1210890, 1211439, 1212015, 1212590, 1213197, 1213796, 1214382, 1214952, 1215513, 1216116, 1216709]","[1204501, 1205065, 1205659, 1206277, 1206888, 1207508, 1208092, 1208663, 1209271, 1209841, 1210443, 1211062, 1211585, 1212152, 1212745, 1213340, 1213917, 1214523, 1215106, 1215669, 1216272, 1216873]","[115, 198, 157, 121, 31, 45, 126, 154, 104, 160, 166, 104, 126, 83, 88, 231, 167, 106, 93, 241, 80, 108]","[1204398, 1204954, 1205537, 1206187, 1206744, 1207414, 1207927, 1208521, 1209122, 1209696, 1210297, 1210898, 1211447, 1212023, 1212682, 1213294, 1213801, 1214388, 1215032, 1215624, 1216198, 1216715]","[1203212, 1203812, 1204412, 1205012, 1205612, 1206212, 1206812, 1207412, 1207940, 1208535, 1209134, 1209709, 1210309, 1210910, 1211459, 1212035, 1212610, 1213217, 1213816, 1214402, 1214972, 1215533, 1216136, 1216729]",60,EM,L,R,ITMSR,1.1
5,600,trial,0,60,60,60,trial,"['S', 'S', 'S', 'S', 'C', 'C', 'C', 'C', 'C', 'C', 'C', 'C', 'C', 'C', 'C', 'C', 'C', 'C', 'C', 'C']","[1224685, 1225304, 1225922, 1226509, 1227116, 1227714, 1228237, 1228826, 1229411, 1230015, 1230590, 1231170, 1231727, 1232313, 1232890, 1233411, 1234046, 1234665, 1235256, 1235857]","[1224809, 1225426, 1226066, 1226655, 1227249, 1227846, 1228401, 1228964, 1229572, 1230161, 1230727, 1231331, 1231881, 1232445, 1233017, 1233569, 1234173, 1234780, 1235374, 1235974]","[183, 128, 147, 239, 239, 184, 174, 179, 124, 133, 13, 119, 104, 133, 44, 36, 86, 205, 119, 157]","[1224693, 1225312, 1225930, 1226516, 1227123, 1227722, 1228246, 1228833, 1229419, 1230022, 1230602, 1231176, 1231733, 1232321, 1232897, 1233420, 1234055, 1234672, 1235263, 1235864]","[1222350, 1222950, 1223550, 1224151, 1224750, 1225350, 1225950, 1226550, 1227137, 1227735, 1228257, 1228846, 1229431, 1230035, 1230610, 1231191, 1231747, 1232333, 1232910, 1233431, 1234066, 1234685, 1235276, 1235877]",60,EM,L,R,ITMSR,1.1
2,400,trial,0,61,61,61,trial,"['S', 'S', 'S', 'S', 'S', 'S', 'S', 'C', 'C', 'C', 'C', 'C', 'C', 'C', 'C', 'C', 'C', 'C', 'C', 'C', 'C', 'C', 'C']","[1241995, 1242342, 1242665, 1243073, 1243457, 1243853, 1244253, 1244667, 1245047, 1245471, 1245861, 1246273, 1246658, 1247054, 1247427, 1247839, 1248246, 1248618, 1249029, 1249387, 1249787, 1250147, 1250546]","[1242091, 1242413, 1242756, 1243191, 1243575, 1243968, 1244369, 1244769, 1245161, 1245573, 1245996, 1246404, 1246764, 1247181, 1247560, 1247956, 1248388, 1248744, 1249152, 1249513, 1249894, 1250266, 1250675]","[218, 194, 27, 51, 209, 213, 185, 238, 236, 193, 37, 38, 105, 166, 90, 53, 84, 77, 36, 35, 147, 31, 91]","[1242002, 1242348, 1242672, 1243079, 1243464, 1243859, 1244259, 1244675, 1245053, 1245478, 1245936, 1246358, 1246666, 1247062, 1247435, 1247846, 1248254, 1248626, 1249038, 1249458, 1249796, 1250154, 1250554]","[1241528, 1241927, 1242328, 1242728, 1243128, 1243528, 1243928, 1244328, 1244687, 1245067, 1245491, 1245881, 1246294, 1246679, 1247074, 1247448, 1247859, 1248266, 1248638, 1249049, 1249408, 1249807, 1250167, 1250566]",60,EM,L,R,ITMSR,1.1
0,400,trial,0,62,62,62,trial,"['S', 'S', 'S', 'S', 'S', 'S', 'C', 'C', 'C', 'C', 'C', 'C', 'C', 'C', 'C', 'C', 'C', 'C', 'C', 'C', 'C', 'C']","[1256816, 1257244, 1257658, 1258044, 1258434, 1258838, 1259234, 1259651, 1260073, 1260469, 1260860, 1261246, 1261624, 1262036, 1262429, 1262841, 1263245, 1263634, 1264033, 1264436, 1264812, 1265173]","[1256899, 1257353, 1257776, 1258166, 1258570, 1258934, 1259369, 1259757, 1260214, 1260606, 1260986, 1261390, 1261773, 1262193, 1262566, 1262982, 1263355, 1263780, 1264154, 1264540, 1264916, 1265286]","[197, 228, 222, 201, 222, 205, 218, 169, 124, 108, 98, 184, 136, 125, 146, 139, 75, 109, 78, 65, 16, 76]","[1256822, 1257250, 1257664, 1258051, 1258441, 1258844, 1259240, 1259657, 1260082, 1260539, 1260868, 1261325, 1261704, 1262124, 1262435, 1262850, 1263296, 1263641, 1264096, 1264444, 1264822, 1265181]","[1256093, 1256493, 1256893, 1257293, 1257693, 1258093, 1258493, 1258893, 1259254, 1259671, 1260093, 1260489, 1260880, 1261266, 1261644, 1262056, 1262449, 1262861, 1263265, 1263654, 1264053, 1264456, 1264832, 1265193]",60,EM,L,R,ITMSR,1.1
5,400,trial,0,63,63,63,trial,"['S', 'S', 'S', 'S', 'C', 'C', 'C', 'C', 'C', 'C', 'C', 'C', 'C', 'C', 'C', 'C', 'C', 'C', 'C', 'C']","[1272053, 1272450, 1272834, 1273255, 1273671, 1274074, 1274447, 1274797, 1275200, 1275597, 1276007, 1276413, 1276803, 1277187, 1277555, 1277954, 1278334, 1278707, 1279125, 1279516]","[1272156, 1272549, 1272958, 1273394, 1273786, 1274218, 1274580, 1274924, 1275346, 1275727, 1276166, 1276548, 1276926, 1277294, 1277680, 1278069, 1278461, 1278838, 1279238, 1279655]","[197, 148, 99, 116, 92, 154, 97, 66, 111, 102, 140, 128, 171, 160, 197, 209, 187, 159, 150, 200]","[1272059, 1272457, 1272842, 1273264, 1273679, 1274081, 1274455, 1274806, 1275207, 1275660, 1276090, 1276421, 1276811, 1277195, 1277562, 1277961, 1278342, 1278715, 1279132, 1279598]","[1270518, 1270918, 1271318, 1271718, 1272118, 1272518, 1272919, 1273318, 1273691, 1274094, 1274467, 1274817, 1275220, 1275617, 1276027, 1276433, 1276823, 1277207, 1277575, 1277974, 1278354, 1278727, 1279145, 1279536]",60,EM,L,R,ITMSR,1.1
2,600,trial,0,64,64,64,trial,"['S', 'S', 'S', 'S', 'S', 'S', 'C', 'C', 'C', 'C', 'C', 'C', 'C', 'C', 'C', 'C', 'C', 'C', 'C', 'C', 'C', 'C']","[1286208, 1286843, 1287476, 1288056, 1288665, 1289246, 1289849, 1290420, 1290974, 1291559, 1292129, 1292729, 1293283, 1293831, 1294402, 1294999, 1295626, 1296228, 1296819, 1297397, 1297938, 1298504]","[1286325, 1286990, 1287586, 1288190, 1288780, 1289382, 1289964, 1290526, 1291104, 1291679, 1292256, 1292856, 1293440, 1293966, 1294551, 1295141, 1295746, 1296345, 1296945, 1297530, 1298105, 1298660]","[177, 202, 137, 146, 176, 212, 130, 95, 58, 35, 125, 156, 153, 140, 145, 92, 124, 134, 20, 34, 137, 131]","[1286215, 1286921, 1287483, 1288062, 1288671, 1289251, 1289858, 1290428, 1291041, 1291568, 1292136, 1292735, 1293290, 1293838, 1294409, 1295006, 1295634, 1296235, 1296893, 1297405, 1298048, 1298511]","[1285104, 1285704, 1286304, 1286904, 1287504, 1288104, 1288705, 1289304, 1289869, 1290440, 1290994, 1291579, 1292149, 1292749, 1293303, 1293851, 1294423, 1295020, 1295646, 1296248, 1296839, 1297417, 1297958, 1298524]",60,EM,L,R,ITMSR,1.1
3,400,trial,0,65,65,65,trial,"['S', 'S', 'S', 'S', 'C', 'C', 'C', 'C', 'C', 'C', 'C', 'C', 'C', 'C', 'C', 'C', 'C', 'C', 'C', 'C']","[1305584, 1306010, 1306408, 1306812, 1307241, 1307644, 1308030, 1308422, 1308835, 1309237, 1309637, 1310023, 1310431, 1310783, 1311210, 1311612, 1312003, 1312402, 1312794, 1313186]","[1305691, 1306137, 1306545, 1306929, 1307370, 1307759, 1308167, 1308553, 1308944, 1309346, 1309779, 1310144, 1310570, 1310926, 1311356, 1311749, 1312125, 1312523, 1312917, 1313292]","[132, 48, 84, 69, 16, 39, 24, 230, 3, 39, 219, 231, 49, 88, 121, 100, 119, 107, 114, 201]","[1305592, 1306018, 1306417, 1306820, 1307250, 1307696, 1308105, 1308487, 1308881, 1309280, 1309723, 1310080, 1310440, 1310857, 1311218, 1311691, 1312010, 1312409, 1312802, 1313195]","[1304074, 1304474, 1304875, 1305274, 1305674, 1306074, 1306474, 1306874, 1307261, 1307664, 1308050, 1308442, 1308855, 1309257, 1309657, 1310043, 1310451, 1310803, 1311230, 1311632, 1312023, 1312422, 1312814, 1313206]",60,EM,L,R,ITMSR,1.1
1,400,trial,0,66,66,66,trial,"['S', 'S', 'S', 'S', 'C', 'C', 'C', 'C', 'C', 'C', 'C', 'C', 'C', 'C', 'C', 'C', 'C', 'C', 'C', 'C']","[1320454, 1320863, 1321277, 1321679, 1322097, 1322490, 1322898, 1323292, 1323694, 1324086, 1324462, 1324868, 1325252, 1325673, 1326052, 1326429, 1326813, 1327220, 1327623, 1328008]","[1320588, 1320980, 1321402, 1321801, 1322201, 1322613, 1323006, 1323408, 1323809, 1324210, 1324594, 1324991, 1325394, 1325799, 1326197, 1326578, 1326996, 1327373, 1327768, 1328137]","[149, 101, 99, 130, 96, 94, 102, 80, 17, 95, 60, 84, 111, 119, 89, 85, 115, 125, 116, 109]","[1320536, 1320870, 1321284, 1321688, 1322106, 1322499, 1322905, 1323300, 1323739, 1324131, 1324532, 1324876, 1325259, 1325681, 1326143, 1326505, 1326920, 1327307, 1327706, 1328016]","[1318923, 1319322, 1319723, 1320122, 1320522, 1320922, 1321322, 1321722, 1322117, 1322510, 1322918, 1323312, 1323714, 1324106, 1324482, 1324888, 1325272, 1325693, 1326072, 1326449, 1326833, 1327240, 1327643, 1328028]",60,EM,L,R,ITMSR,1.1
1,400,trial,0,67,67,67,trial,"['S', 'S', 'S', 'S', 'C', 'C', 'C', 'C', 'C', 'C', 'C', 'C', 'C', 'C', 'C', 'C', 'C', 'C', 'C', 'C']","[1334933, 1335372, 1335788, 1336180, 1336603, 1336998, 1337392, 1337793, 1338198, 1338563, 1338970, 1339326, 1339726, 1340128, 1340550, 1340916, 1341318, 1341712, 1342108, 1342475]","[1335043, 1335495, 1335921, 1336302, 1336731, 1337123, 1337524, 1337884, 1338302, 1338692, 1339089, 1339429, 1339866, 1340238, 1340661, 1341050, 1341456, 1341851, 1342221, 1342609]","[21, 92, 164, 96, 122, 82, 88, 7, 45, 55, 85, 57, 123, 83, 139, 108, 82, 82, 114, 129]","[1334992, 1335379, 1335796, 1336188, 1336610, 1337066, 1337400, 1337802, 1338206, 1338643, 1338978, 1339334, 1339735, 1340189, 1340557, 1340923, 1341390, 1341788, 1342115, 1342482]","[1333448, 1333848, 1334248, 1334648, 1335048, 1335448, 1335848, 1336248, 1336623, 1337018, 1337412, 1337814, 1338218, 1338584, 1338990, 1339346, 1339746, 1340148, 1340570, 1340936, 1341338, 1341732, 1342128, 1342495]",60,EM,L,R,ITMSR,1.1
1,600,trial,0,68,68,68,trial,"['S', 'S', 'S', 'S', 'S', 'S', 'C', 'C', 'C', 'C', 'C', 'C', 'C', 'C', 'C', 'C', 'C', 'C', 'C', 'C', 'C', 'C']","[1349216, 1349864, 1350418, 1351006, 1351583, 1352176, 1352782, 1353355, 1353925, 1354497, 1355009, 1355578, 1356161, 1356745, 1357289, 1357855, 1358418, 1358993, 1359569, 1360138, 1360730, 1361302]","[1349324, 1349986, 1350558, 1351146, 1351755, 1352350, 1352940, 1353494, 1354078, 1354634, 1355127, 1355717, 1356296, 1356877, 1357453, 1357993, 1358567, 1359165, 1359722, 1360268, 1360884, 1361451]","[72, 26, 133, 175, 204, 219, 252, 213, 116, 52, 27, 47, 247, 78, 33, 79, 36, 94, 133, 94, 170, 44]","[1349222, 1349870, 1350487, 1351015, 1351589, 1352183, 1352787, 1353361, 1353933, 1354506, 1355017, 1355587, 1356170, 1356814, 1357296, 1357862, 1358428, 1358999, 1359578, 1360146, 1360737, 1361310]","[1348080, 1348680, 1349280, 1349880, 1350480, 1351080, 1351681, 1352280, 1352802, 1353375, 1353945, 1354517, 1355029, 1355598, 1356181, 1356765, 1357309, 1357875, 1358438, 1359013, 1359589, 1360158, 1360750, 1361323]",60,EM,L,R,ITMSR,1.1
3,600,trial,0,69,69,69,trial,"['S', 'S', 'S', 'S', 'C', 'C', 'C', 'C', 'C', 'C', 'C', 'C', 'C', 'C', 'C', 'C', 'C', 'C', 'C', 'C']","[1368998, 1369566, 1370200, 1370822, 1371406, 1371964, 1372539, 1373109, 1373692, 1374263, 1374827, 1375377, 1375973, 1376561, 1377171, 1377759, 1378350, 1378883, 1379447, 1380057]","[1369120, 1369741, 1370360, 1371001, 1371586, 1372127, 1372673, 1373240, 1373813, 1374429, 1374984, 1375531, 1376128, 1376719, 1377345, 1377926, 1378510, 1379060, 1379642, 1380230]","[187, 147, 188, 214, 82, 169, 162, 151, 64, 55, 146, 104, 19, 102, 143, 114, 63, 94, 125, 64]","[1369057, 1369637, 1370206, 1370829, 1371414, 1371972, 1372547, 1373117, 1373702, 1374330, 1374834, 1375385, 1376049, 1376641, 1377178, 1377766, 1378359, 1378890, 1379453, 1380064]","[1366685, 1367284, 1367884, 1368484, 1369084, 1369684, 1370285, 1370885, 1371426, 1371984, 1372559, 1373129, 1373712, 1374283, 1374848, 1375397, 1375993, 1376581, 1377191, 1377779, 1378370, 1378904, 1379467, 1380077]",60,EM,L,R,ITMSR,1.1
3,600,trial,0,70,70,70,trial,"['S', 'S', 'S', 'S', 'C', 'C', 'C', 'C', 'C', 'C', 'C', 'C', 'C', 'C', 'C', 'C', 'C', 'C', 'C', 'C']","[1388010, 1388600, 1389225, 1389802, 1390397, 1390967, 1391570, 1392155, 1392731, 1393289, 1393871, 1394479, 1395060, 1395602, 1396202, 1396775, 1397377, 1397952, 1398478, 1399062]","[1388180, 1388805, 1389402, 1389988, 1390561, 1391138, 1391718, 1392295, 1392876, 1393440, 1394008, 1394642, 1395211, 1395742, 1396363, 1396936, 1397518, 1398133, 1398690, 1399249]","[236, 201, 218, 100, 110, 115, 120, 130, 63, 46, 44, 69, 79, 21, 49, 71, 173, 108, 79, 89]","[1388103, 1388709, 1389233, 1389911, 1390404, 1391038, 1391578, 1392215, 1392805, 1393297, 1393880, 1394486, 1395067, 1395611, 1396281, 1396784, 1397422, 1398044, 1398583, 1399156]","[1385684, 1386285, 1386885, 1387485, 1388085, 1388685, 1389285, 1389885, 1390417, 1390987, 1391590, 1392175, 1392751, 1393309, 1393891, 1394499, 1395080, 1395622, 1396222, 1396795, 1397397, 1397972, 1398498, 1399083]",60,EM,L,R,ITMSR,1.1
2,400,trial,0,71,71,71,trial,"['S', 'S', 'S', 'S', 'C', 'C', 'C', 'C', 'C', 'C', 'C', 'C', 'C', 'C', 'C', 'C', 'C', 'C', 'C', 'C']","[1406368, 1406785, 1407190, 1407606, 1408032, 1408416, 1408812, 1409176, 1409576, 1409998, 1410425, 1410812, 1411209, 1411549, 1411949, 1412314, 1412684, 1413114, 1413500, 1413896]","[1406481, 1406880, 1407303, 1407736, 1408145, 1408541, 1408923, 1409323, 1409753, 1410137, 1410580, 1410960, 1411338, 1411675, 1412066, 1412425, 1412803, 1413234, 1413629, 1414012]","[25, 19, 14, 5, 242, 217, 244, 248, 251, 33, 17, 45, 25, 20, 49, 247, 208, 252, 219, 217]","[1406374, 1406790, 1407195, 1407611, 1408037, 1408422, 1408818, 1409248, 1409674, 1410003, 1410504, 1410818, 1411214, 1411595, 1411953, 1412360, 1412736, 1413164, 1413507, 1413938]","[1404843, 1405241, 1405641, 1406041, 1406441, 1406841, 1407241, 1407641, 1408052, 1408436, 1408832, 1409197, 1409596, 1410018, 1410445, 1410832, 1411229, 1411569, 1411970, 1412334, 1412704, 1413134, 1413520, 1413916]",60,EM,L,R,ITMSR,1.1
5,600,trial,0,72,72,72,trial,"['S', 'S', 'S', 'S', 'S', 'S', 'C', 'C', 'C', 'C', 'C', 'C', 'C', 'C', 'C', 'C', 'C', 'C', 'C', 'C', 'C', 'C']","[1420747, 1421389, 1422009, 1422623, 1423201, 1423767, 1424408, 1424972, 1425534, 1426116, 1426718, 1427326, 1427899, 1428467, 1429024, 1429610, 1430203, 1430788, 1431339, 1431939, 1432549, 1433126]","[1420891, 1421551, 1422164, 1422760, 1423338, 1423910, 1424546, 1425118, 1425683, 1426276, 1426834, 1427468, 1428028, 1428581, 1429170, 1429742, 1430330, 1430922, 1431482, 1432073, 1432686, 1433268]","[202, 12, 36, 66, 43, 89, 51, 33, 230, 8, 39, 15, 10, 114, 41, 35, 63, 0, 45, 191, 29, 224]","[1420753, 1421395, 1422015, 1422628, 1423207, 1423771, 1424413, 1424977, 1425602, 1426121, 1426723, 1427332, 1427905, 1428475, 1429029, 1429615, 1430208, 1430794, 1431344, 1431996, 1432554, 1433133]","[1419655, 1420254, 1420854, 1421454, 1422054, 1422654, 1423254, 1423854, 1424429, 1424992, 1425554, 1426136, 1426738, 1427346, 1427919, 1428487, 1429044, 1429630, 1430223, 1430808, 1431359, 1431959, 1432569, 1433146]",60,EM,L,R,ITMSR,1.1
4,600,trial,0,73,73,73,trial,"['S', 'S', 'S', 'S', 'S', 'C', 'C', 'C', 'C', 'C', 'C', 'C', 'C', 'C', 'C', 'C', 'C', 'C', 'C', 'C', 'C']","[1440611, 1441258, 1441876, 1442526, 1443072, 1443647, 1444222, 1444834, 1445413, 1445960, 1446511, 1447107, 1447673, 1448247, 1448824, 1449417, 1450007, 1450598, 1451128, 1451737, 1452326]","[1440758, 1441422, 1442057, 1442668, 1443254, 1443816, 1444371, 1444953, 1445555, 1446131, 1446671, 1447285, 1447816, 1448431, 1448990, 1449591, 1450193, 1450782, 1451341, 1451913, 1452497]","[247, 43, 63, 67, 245, 4, 211, 180, 183, 191, 184, 211, 220, 143, 191, 234, 214, 194, 179, 198, 224]","[1440709, 1441263, 1441882, 1442532, 1443078, 1443652, 1444291, 1444841, 1445421, 1445966, 1446518, 1447113, 1447680, 1448365, 1448830, 1449507, 1450014, 1450693, 1451254, 1451744, 1452333]","[1438916, 1439516, 1440116, 1440716, 1441316, 1441916, 1442516, 1443117, 1443667, 1444242, 1444854, 1445433, 1445980, 1446531, 1447128, 1447693, 1448267, 1448844, 1449437, 1450028, 1450618, 1451148, 1451757, 1452346]",60,EM,L,R,ITMSR,1.1
0,600,trial,0,74,74,74,trial,"['S', 'S', 'S', 'S', 'C', 'C', 'C', 'C', 'C', 'C', 'C', 'C', 'C', 'C', 'C', 'C', 'C', 'C', 'C', 'C']","[1460150, 1460738, 1461340, 1461911, 1462519, 1463132, 1463731, 1464278, 1464865, 1465446, 1466011, 1466577, 1467168, 1467734, 1468282, 1468879, 1469445, 1470000, 1470580, 1471151]","[1460281, 1460902, 1461513, 1462071, 1462668, 1463308, 1463908, 1464448, 1465027, 1465609, 1466206, 1466737, 1467343, 1467894, 1468423, 1469008, 1469576, 1470149, 1470716, 1471328]","[7, 23, 246, 224, 186, 193, 241, 40, 191, 145, 194, 123, 230, 224, 206, 182, 222, 228, 16, 250]","[1460155, 1460743, 1461346, 1461917, 1462526, 1463139, 1463737, 1464283, 1464871, 1465452, 1466017, 1466668, 1467174, 1467740, 1468289, 1468886, 1469451, 1470005, 1470585, 1471157]","[1457761, 1458360, 1458960, 1459560, 1460160, 1460760, 1461360, 1461960, 1462539, 1463152, 1463751, 1464298, 1464885, 1465466, 1466031, 1466597, 1467188, 1467754, 1468302, 1468899, 1469465, 1470020, 1470600, 1471171]",60,EM,L,R,ITMSR,1.1
0,400,trial,0,75,75,75,trial,"['S', 'S', 'S', 'S', 'C', 'C', 'C', 'C', 'C', 'C', 'C', 'C', 'C', 'C', 'C', 'C', 'C', 'C', 'C', 'C']","[1478160, 1478571, 1478987, 1479384, 1479798, 1480158, 1480572, 1480995, 1481372, 1481752, 1482169, 1482559, 1482946, 1483334, 1483705, 1484123, 1484532, 1484886, 1485285, 1485671]","[1478290, 1478711, 1479130, 1479501, 1479927, 1480325, 1480715, 1481155, 1481532, 1481920, 1482327, 1482722, 1483083, 1483475, 1483866, 1484253, 1484684, 1485047, 1485426, 1485816]","[43, 50, 53, 38, 46, 19, 20, 22, 253, 251, 249, 6, 253, 3, 236, 236, 25, 230, 241, 31]","[1478165, 1478576, 1478991, 1479388, 1479803, 1480164, 1480579, 1481001, 1481378, 1481759, 1482175, 1482564, 1482952, 1483339, 1483711, 1484129, 1484538, 1484893, 1485292, 1485677]","[1476627, 1477027, 1477427, 1477827, 1478227, 1478627, 1479027, 1479427, 1479818, 1480178, 1480592, 1481015, 1481392, 1481773, 1482189, 1482579, 1482967, 1483354, 1483725, 1484143, 1484552, 1484906, 1485305, 1485691]",60,EM,L,R,ITMSR,1.1
0,600,trial,0,76,76,76,trial,"['S', 'S', 'S', 'S', 'S', 'S', 'C', 'C', 'C', 'C', 'C', 'C', 'C', 'C', 'C', 'C', 'C', 'C', 'C', 'C', 'C', 'C']","[1492769, 1493224, 1493823, 1494409, 1494955, 1495544, 1496163, 1496726, 1497303, 1497882, 1498461, 1499012, 1499584, 1500154, 1500693, 1501280, 1501860, 1502369, 1502949, 1503534, 1504117, 1504681]","[1492847, 1493359, 1493955, 1494566, 1495118, 1495713, 1496335, 1496855, 1497434, 1498007, 1498601, 1499154, 1499729, 1500295, 1500851, 1501452, 1502020, 1502529, 1503122, 1503697, 1504257, 1504836]","[229, 14, 230, 221, 198, 173, 182, 130, 152, 226, 188, 202, 234, 190, 194, 234, 141, 158, 195, 246, 250, 222]","[1492776, 1493230, 1493829, 1494415, 1494961, 1495550, 1496170, 1496734, 1497368, 1497888, 1498468, 1499019, 1499591, 1500162, 1500700, 1501286, 1501952, 1502452, 1502956, 1503540, 1504123, 1504688]","[1491460, 1492060, 1492660, 1493260, 1493860, 1494460, 1495060, 1495660, 1496183, 1496747, 1497323, 1497902, 1498481, 1499032, 1499604, 1500174, 1500713, 1501300, 1501880, 1502389, 1502969, 1503554, 1504137, 1504701]",60,EM,L,R,ITMSR,1.1
3,400,trial,0,77,77,77,trial,"['S', 'S', 'S', 'S', 'C', 'C', 'C', 'C', 'C', 'C', 'C', 'C', 'C', 'C', 'C', 'C', 'C', 'C', 'C', 'C']","[1511828, 1512236, 1512656, 1513066, 1513455, 1513857, 1514260, 1514671, 1515071, 1515458, 1515836, 1516220, 1516614, 1517010, 1517395, 1517784, 1518198, 1518578, 1518984, 1519367]","[1511947, 1512360, 1512782, 1513193, 1513597, 1513990, 1514395, 1514797, 1515197, 1515586, 1515957, 1516342, 1516732, 1517142, 1517515, 1517907, 1518326, 1518726, 1519092, 1519505]","[173, 175, 205, 218, 149, 148, 210, 229, 30, 235, 212, 221, 251, 245, 185, 229, 59, 182, 210, 196]","[1511835, 1512242, 1512663, 1513073, 1513461, 1513863, 1514267, 1514677, 1515076, 1515463, 1515842, 1516226, 1516620, 1517016, 1517403, 1517790, 1518206, 1518585, 1518990, 1519372]","[1510320, 1510720, 1511120, 1511520, 1511920, 1512321, 1512720, 1513120, 1513475, 1513877, 1514280, 1514691, 1515091, 1515479, 1515856, 1516240, 1516634, 1517030, 1517415, 1517804, 1518218, 1518598, 1519004, 1519387]",60,EM,L,R,ITMSR,1.1
2,400,trial,0,78,78,78,trial,"['S', 'S', 'S', 'S', 'S', 'S', 'C', 'C', 'C', 'C', 'C', 'C', 'C', 'C', 'C', 'C', 'C', 'C', 'C', 'C', 'C', 'C']","[1527243, 1527688, 1528105, 1528525, 1528915, 1529277, 1529684, 1530099, 1530479, 1530863, 1531261, 1531628, 1532049, 1532446, 1532815, 1533216, 1533602, 1533993, 1534361, 1534773, 1535135, 1535525]","[1527377, 1527811, 1528236, 1528672, 1529066, 1529432, 1529835, 1530225, 1530632, 1531021, 1531422, 1531783, 1532222, 1532620, 1532979, 1533409, 1533779, 1534159, 1534517, 1534940, 1535313, 1535696]","[24, 239, 249, 231, 211, 175, 203, 219, 208, 198, 222, 220, 254, 19, 227, 0, 253, 2, 203, 236, 219, 232]","[1527248, 1527693, 1528169, 1528595, 1529008, 1529338, 1529693, 1530105, 1530558, 1530937, 1531331, 1531698, 1532130, 1532537, 1532895, 1533319, 1533689, 1534082, 1534368, 1534869, 1535232, 1535617]","[1526544, 1526944, 1527344, 1527744, 1528144, 1528544, 1528944, 1529345, 1529704, 1530119, 1530499, 1530883, 1531281, 1531649, 1532069, 1532466, 1532835, 1533236, 1533622, 1534013, 1534381, 1534793, 1535155, 1535545]",60,EM,L,R,ITMSR,1.1
3,400,trial,0,79,79,79,trial,"['S', 'S', 'S', 'S', 'S', 'S', 'C', 'C', 'C', 'C', 'C', 'C', 'C', 'C', 'C', 'C', 'C', 'C', 'C', 'C', 'C', 'C']","[1541740, 1542159, 1542558, 1542981, 1543362, 1543738, 1544145, 1544529, 1544899, 1545288, 1545670, 1546058, 1546461, 1546862, 1547243, 1547664, 1548049, 1548430, 1548857, 1549237, 1549604, 1550021]","[1541869, 1542323, 1542703, 1543136, 1543544, 1543933, 1544348, 1544709, 1545060, 1545449, 1545841, 1546224, 1546604, 1547029, 1547418, 1547812, 1548244, 1548668, 1549019, 1549418, 1549787, 1550194]","[225, 195, 218, 165, 232, 208, 222, 4, 205, 201, 168, 197, 196, 6, 7, 238, 198, 32, 23, 13, 3, 26]","[1541783, 1542167, 1542620, 1543058, 1543433, 1543827, 1544262, 1544632, 1544979, 1545351, 1545761, 1546160, 1546532, 1546955, 1547345, 1547731, 1548180, 1548575, 1548948, 1549332, 1549694, 1550113]","[1541028, 1541427, 1541827, 1542227, 1542627, 1543027, 1543427, 1543827, 1544165, 1544549, 1544920, 1545308, 1545690, 1546078, 1546481, 1546882, 1547264, 1547684, 1548069, 1548450, 1548877, 1549257, 1549624, 1550041]",60,EM,L,R,ITMSR,1.1
5,400,trial,0,80,80,80,trial,"['S', 'S', 'S', 'S', 'S', 'S', 'C', 'C', 'C', 'C', 'C', 'C', 'C', 'C', 'C', 'C', 'C', 'C', 'C', 'C', 'C', 'C']","[1556221, 1556645, 1557053, 1557437, 1557833, 1558216, 1558629, 1559027, 1559416, 1559812, 1560180, 1560579, 1560948, 1561334, 1561729, 1562121, 1562511, 1562887, 1563261, 1563635, 1564043, 1564460]","[1556338, 1556796, 1557210, 1557595, 1557997, 1558381, 1558798, 1559208, 1559580, 1559955, 1560338, 1560734, 1561096, 1561478, 1561862, 1562256, 1562654, 1563018, 1563387, 1563787, 1564185, 1564612]","[227, 248, 199, 238, 209, 127, 174, 117, 118, 164, 196, 167, 165, 130, 185, 32, 49, 50, 10, 115, 197, 130]","[1556286, 1556653, 1557060, 1557506, 1557901, 1558288, 1558710, 1559035, 1559425, 1559820, 1560187, 1560586, 1560954, 1561402, 1561736, 1562188, 1562571, 1562895, 1563270, 1563739, 1564049, 1564467]","[1555485, 1555885, 1556285, 1556685, 1557085, 1557485, 1557885, 1558285, 1558649, 1559047, 1559436, 1559832, 1560200, 1560599, 1560968, 1561354, 1561749, 1562141, 1562531, 1562907, 1563281, 1563655, 1564063, 1564480]",60,EM,L,R,ITMSR,1.1
0,400,trial,0,81,81,81,trial,"['S', 'S', 'S', 'S', 'S', 'S', 'C', 'C', 'C', 'C', 'C', 'C', 'C', 'C', 'C', 'C', 'C', 'C', 'C', 'C', 'C', 'C']","[1570580, 1571011, 1571428, 1571829, 1572219, 1572597, 1572992, 1573396, 1573787, 1574178, 1574585, 1574985, 1575369, 1575779, 1576148, 1576552, 1576924, 1577319, 1577711, 1578107, 1578491, 1578886]","[1570724, 1571138, 1571565, 1571971, 1572333, 1572724, 1573112, 1573533, 1573933, 1574316, 1574730, 1575138, 1575500, 1575914, 1576250, 1576697, 1577047, 1577457, 1577840, 1578244, 1578635, 1579024]","[65, 176, 158, 167, 224, 217, 189, 223, 132, 178, 177, 174, 148, 92, 182, 228, 172, 246, 13, 1, 7, 236]","[1570672, 1571019, 1571435, 1571836, 1572226, 1572603, 1572999, 1573403, 1573795, 1574188, 1574593, 1574993, 1575377, 1575788, 1576157, 1576559, 1576932, 1577326, 1577716, 1578114, 1578498, 1578892]","[1569878, 1570277, 1570677, 1571077, 1571477, 1571877, 1572277, 1572677, 1573012, 1573416, 1573807, 1574198, 1574605, 1575005, 1575389, 1575799, 1576168, 1576572, 1576944, 1577339, 1577731, 1578127, 1578511, 1578906]",60,EM,L,R,ITMSR,1.1
5,600,trial,0,82,82,82,trial,"['S', 'S', 'S', 'S', 'S', 'S', 'C', 'C', 'C', 'C', 'C', 'C', 'C', 'C', 'C', 'C', 'C', 'C', 'C', 'C', 'C', 'C']","[1585353, 1585984, 1586587, 1587217, 1587778, 1588350, 1588947, 1589554, 1590119, 1590706, 1591302, 1591868, 1592457, 1593057, 1593648, 1594204, 1594788, 1595354, 1595926, 1596514, 1597096, 1597660]","[1585499, 1586181, 1586771, 1587389, 1587969, 1588531, 1589123, 1589710, 1590312, 1590899, 1591483, 1592040, 1592646, 1593240, 1593846, 1594365, 1594981, 1595497, 1596098, 1596699, 1597282, 1597852]","[227, 0, 216, 218, 117, 167, 231, 228, 183, 194, 197, 218, 206, 12, 233, 201, 225, 253, 255, 58, 255, 221]","[1585359, 1585989, 1586594, 1587224, 1587787, 1588358, 1588955, 1589561, 1590221, 1590713, 1591309, 1591875, 1592463, 1593062, 1593655, 1594211, 1594795, 1595360, 1595931, 1596519, 1597103, 1597667]","[1584224, 1584824, 1585424, 1586024, 1586624, 1587224, 1587824, 1588424, 1588967, 1589574, 1590139, 1590726, 1591322, 1591888, 1592477, 1593077, 1593668, 1594224, 1594808, 1595374, 1595947, 1596534, 1597116, 1597680]",60,EM,L,R,ITMSR,1.1
2,600,trial,0,83,83,83,trial,"['S', 'S', 'S', 'S', 'S', 'S', 'C', 'C', 'C', 'C', 'C', 'C', 'C', 'C', 'C', 'C', 'C', 'C', 'C', 'C', 'C', 'C']","[1604485, 1605084, 1605706, 1606317, 1606903, 1607514, 1608132, 1608727, 1609315, 1609872, 1610466, 1611056, 1611633, 1612283, 1612823, 1613380, 1613972, 1614493, 1615098, 1615637, 1616179, 1616780]","[1604604, 1605233, 1605831, 1606448, 1607037, 1607639, 1608281, 1608886, 1609444, 1609998, 1610580, 1611173, 1611755, 1612374, 1612950, 1613512, 1614083, 1614646, 1615218, 1615787, 1616303, 1616900]","[139, 191, 96, 219, 244, 197, 52, 215, 120, 183, 114, 103, 77, 1, 103, 181, 83, 13, 54, 233, 20, 154]","[1604491, 1605091, 1605714, 1606323, 1606965, 1607521, 1608189, 1608800, 1609365, 1609879, 1610516, 1611105, 1611641, 1612290, 1612887, 1613387, 1614017, 1614498, 1615155, 1615644, 1616187, 1616787]","[1603344, 1603944, 1604544, 1605144, 1605744, 1606344, 1606944, 1607544, 1608152, 1608748, 1609335, 1609892, 1610486, 1611076, 1611653, 1612303, 1612844, 1613400, 1613992, 1614513, 1615118, 1615657, 1616199, 1616800]",60,EM,L,R,ITMSR,1.1
5,400,trial,0,84,84,84,trial,"['S', 'S', 'S', 'S', 'C', 'C', 'C', 'C', 'C', 'C', 'C', 'C', 'C', 'C', 'C', 'C', 'C', 'C', 'C', 'C']","[1624018, 1624430, 1624877, 1625280, 1625673, 1626073, 1626499, 1626914, 1627298, 1627676, 1628109, 1628488, 1628897, 1629302, 1629668, 1630056, 1630494, 1630906, 1631289, 1631663]","[1624139, 1624570, 1625006, 1625406, 1625790, 1626205, 1626602, 1627044, 1627441, 1627828, 1628249, 1628668, 1629042, 1629452, 1629826, 1630220, 1630650, 1631056, 1631433, 1631840]","[72, 80, 250, 137, 73, 153, 232, 82, 31, 41, 47, 141, 64, 123, 118, 65, 122, 100, 51, 106]","[1624061, 1624491, 1624938, 1625350, 1625745, 1626141, 1626507, 1626923, 1627370, 1627683, 1628180, 1628585, 1628967, 1629372, 1629757, 1630163, 1630563, 1630989, 1631366, 1631758]","[1622488, 1622888, 1623288, 1623688, 1624088, 1624488, 1624888, 1625288, 1625693, 1626093, 1626519, 1626934, 1627318, 1627696, 1628129, 1628508, 1628917, 1629322, 1629688, 1630076, 1630514, 1630926, 1631309, 1631683]",60,EM,L,R,ITMSR,1.1
3,600,trial,0,85,85,85,trial,"['S', 'S', 'S', 'S', 'S', 'S', 'S', 'C', 'C', 'C', 'C', 'C', 'C', 'C', 'C', 'C', 'C', 'C', 'C', 'C', 'C', 'C', 'C']","[1637488, 1638200, 1638870, 1639489, 1640099, 1640668, 1641256, 1641863, 1642403, 1642994, 1643586, 1644198, 1644765, 1645332, 1645914, 1646489, 1647075, 1647636, 1648203, 1648780, 1649382, 1649976, 1650548]","[1637601, 1638328, 1639001, 1639616, 1640240, 1640816, 1641410, 1642014, 1642548, 1643119, 1643716, 1644327, 1644925, 1645475, 1646058, 1646643, 1647201, 1647771, 1648387, 1648948, 1649548, 1650140, 1650715]","[236, 6, 217, 147, 107, 81, 157, 149, 77, 68, 167, 125, 171, 96, 64, 70, 142, 103, 129, 230, 228, 210, 195]","[1637495, 1638206, 1638876, 1639496, 1640108, 1640675, 1641347, 1641869, 1642411, 1643001, 1643593, 1644251, 1644772, 1645339, 1645922, 1646496, 1647081, 1647643, 1648301, 1648785, 1649388, 1650071, 1650621]","[1637153, 1637753, 1638353, 1638953, 1639554, 1640154, 1640754, 1641354, 1641883, 1642423, 1643014, 1643607, 1644218, 1644785, 1645352, 1645934, 1646509, 1647095, 1647656, 1648223, 1648800, 1649402, 1649996, 1650568]",60,EM,L,R,ITMSR,1.1
2,400,trial,0,86,86,86,trial,"['S', 'S', 'S', 'S', 'C', 'C', 'C', 'C', 'C', 'C', 'C', 'C', 'C', 'C', 'C', 'C', 'C', 'C', 'C', 'C']","[1657737, 1658164, 1658555, 1658949, 1659359, 1659779, 1660191, 1660578, 1660985, 1661389, 1661817, 1662237, 1662632, 1663016, 1663411, 1663770, 1664189, 1664591, 1664977, 1665421]","[1657845, 1658297, 1658672, 1659085, 1659482, 1659916, 1660312, 1660718, 1661101, 1661491, 1661923, 1662337, 1662738, 1663142, 1663491, 1663898, 1664275, 1664693, 1665084, 1665531]","[246, 213, 5, 18, 252, 238, 242, 255, 245, 246, 233, 224, 209, 227, 157, 209, 147, 153, 30, 201]","[1657743, 1658169, 1658560, 1658954, 1659365, 1659785, 1660196, 1660584, 1660991, 1661394, 1661824, 1662243, 1662639, 1663023, 1663417, 1663833, 1664195, 1664599, 1664986, 1665427]","[1656206, 1656606, 1657006, 1657406, 1657806, 1658206, 1658606, 1659006, 1659379, 1659799, 1660211, 1660598, 1661005, 1661409, 1661837, 1662257, 1662652, 1663036, 1663431, 1663790, 1664209, 1664611, 1664997, 1665441]",60,EM,L,R,ITMSR,1.1
1,400,trial,0,87,87,87,trial,"['S', 'S', 'S', 'S', 'C', 'C', 'C', 'C', 'C', 'C', 'C', 'C', 'C', 'C', 'C', 'C', 'C', 'C', 'C', 'C']","[1672450, 1672889, 1673298, 1673719, 1674141, 1674562, 1674934, 1675337, 1675721, 1676054, 1676472, 1676891, 1677271, 1677671, 1678053, 1678435, 1678843, 1679233, 1679629, 1680011]","[1672598, 1673004, 1673410, 1673870, 1674274, 1674672, 1675071, 1675470, 1675853, 1676174, 1676596, 1677005, 1677393, 1677777, 1678193, 1678577, 1678966, 1679372, 1679755, 1680139]","[142, 172, 237, 143, 212, 200, 50, 145, 152, 50, 150, 147, 204, 158, 101, 161, 207, 197, 188, 218]","[1672541, 1672895, 1673305, 1673728, 1674147, 1674568, 1675016, 1675344, 1675727, 1676122, 1676479, 1676898, 1677277, 1677678, 1678120, 1678442, 1678850, 1679239, 1679636, 1680016]","[1670969, 1671368, 1671768, 1672168, 1672568, 1672968, 1673368, 1673768, 1674161, 1674583, 1674954, 1675357, 1675741, 1676075, 1676492, 1676911, 1677291, 1677691, 1678073, 1678455, 1678863, 1679253, 1679649, 1680031]",60,EM,L,R,ITMSR,1.1
0,400,trial,0,88,88,88,trial,"['S', 'S', 'S', 'S', 'C', 'C', 'C', 'C', 'C', 'C', 'C', 'C', 'C', 'C', 'C', 'C', 'C', 'C', 'C', 'C']","[1686907, 1687306, 1687682, 1688074, 1688462, 1688859, 1689256, 1689635, 1690011, 1690395, 1690786, 1691202, 1691591, 1691981, 1692391, 1692748, 1693150, 1693518, 1693902, 1694292]","[1687022, 1687460, 1687829, 1688219, 1688603, 1689003, 1689381, 1689773, 1690145, 1690531, 1690918, 1691328, 1691740, 1692146, 1692514, 1692889, 1693287, 1693679, 1694039, 1694441]","[34, 11, 234, 211, 166, 210, 191, 218, 178, 148, 173, 143, 35, 101, 102, 165, 211, 113, 112, 168]","[1686913, 1687311, 1687688, 1688082, 1688470, 1688866, 1689264, 1689643, 1690018, 1690403, 1690793, 1691209, 1691663, 1691988, 1692447, 1692755, 1693156, 1693524, 1693971, 1694300]","[1685344, 1685744, 1686145, 1686544, 1686944, 1687344, 1687744, 1688144, 1688482, 1688879, 1689276, 1689655, 1690031, 1690415, 1690806, 1691223, 1691611, 1692001, 1692411, 1692768, 1693170, 1693538, 1693922, 1694312]",60,EM,L,R,ITMSR,1.1
3,400,trial,0,89,89,89,trial,"['S', 'S', 'S', 'S', 'S', 'S', 'C', 'C', 'C', 'C', 'C', 'C', 'C', 'C', 'C', 'C', 'C', 'C', 'C', 'C', 'C', 'C']","[1700383, 1700800, 1701210, 1701613, 1702002, 1702407, 1702792, 1703187, 1703577, 1703965, 1704355, 1704737, 1705137, 1705536, 1705904, 1706283, 1706706, 1707087, 1707469, 1707885, 1708280, 1708644]","[1700462, 1700924, 1701313, 1701740, 1702133, 1702539, 1702933, 1703321, 1703729, 1704105, 1704482, 1704890, 1705259, 1705648, 1706037, 1706426, 1706831, 1707228, 1707636, 1707999, 1708412, 1708772]","[46, 56, 46, 223, 19, 33, 18, 229, 6, 184, 195, 196, 126, 139, 155, 93, 103, 80, 254, 34, 152, 92]","[1700388, 1700805, 1701215, 1701619, 1702007, 1702412, 1702797, 1703194, 1703583, 1704046, 1704363, 1704743, 1705183, 1705543, 1705911, 1706342, 1706760, 1707169, 1707572, 1707921, 1708288, 1708651]","[1699649, 1700049, 1700449, 1700849, 1701250, 1701650, 1702050, 1702450, 1702812, 1703207, 1703597, 1703985, 1704375, 1704757, 1705157, 1705556, 1705924, 1706303, 1706726, 1707107, 1707489, 1707906, 1708300, 1708664]",60,EM,L,R,ITMSR,1.1
3,600,trial,0,90,90,90,trial,"['S', 'S', 'S', 'S', 'S', 'S', 'C', 'C', 'C', 'C', 'C', 'C', 'C', 'C', 'C', 'C', 'C', 'C', 'C', 'C', 'C', 'C']","[1715330, 1715997, 1716617, 1717239, 1717807, 1718416, 1718998, 1719566, 1720134, 1720709, 1721295, 1721879, 1722444, 1723011, 1723575, 1724152, 1724715, 1725309, 1725890, 1726482, 1727037, 1727604]","[1715463, 1716161, 1716744, 1717372, 1717949, 1718573, 1719147, 1719724, 1720290, 1720896, 1721433, 1722001, 1722582, 1723153, 1723729, 1724289, 1724848, 1725442, 1726036, 1726623, 1727193, 1727750]","[201, 212, 243, 158, 197, 248, 231, 207, 180, 200, 166, 240, 21, 176, 230, 225, 208, 152, 170, 161, 185, 202]","[1715393, 1716003, 1716623, 1717246, 1717814, 1718422, 1719004, 1719572, 1720141, 1720715, 1721303, 1721885, 1722449, 1723017, 1723582, 1724158, 1724720, 1725316, 1725897, 1726489, 1727043, 1727610]","[1714267, 1714867, 1715467, 1716067, 1716667, 1717267, 1717867, 1718467, 1719018, 1719586, 1720154, 1720729, 1721315, 1721900, 1722464, 1723031, 1723595, 1724172, 1724735, 1725329, 1725911, 1726502, 1727057, 1727624]",60,EM,L,R,ITMSR,1.1
1,600,trial,0,91,91,91,trial,"['S', 'S', 'S', 'S', 'C', 'C', 'C', 'C', 'C', 'C', 'C', 'C', 'C', 'C', 'C', 'C', 'C', 'C', 'C', 'C']","[1735593, 1736296, 1736905, 1737490, 1738077, 1738646, 1739255, 1739821, 1740418, 1740983, 1741568, 1742179, 1742738, 1743338, 1743891, 1744449, 1745067, 1745634, 1746181, 1746757]","[1735748, 1736452, 1737053, 1737671, 1738233, 1738781, 1739404, 1739965, 1740567, 1741148, 1741717, 1742325, 1742901, 1743471, 1744067, 1744654, 1745239, 1745814, 1746372, 1746944]","[151, 121, 83, 71, 232, 24, 50, 144, 66, 97, 20, 45, 43, 1, 54, 112, 72, 90, 161, 150]","[1735675, 1736371, 1736913, 1737498, 1738161, 1738654, 1739264, 1739880, 1740494, 1741081, 1741632, 1742235, 1742810, 1743410, 1743986, 1744456, 1745163, 1745745, 1746187, 1746847]","[1733359, 1733958, 1734558, 1735158, 1735758, 1736358, 1736958, 1737559, 1738097, 1738667, 1739275, 1739841, 1740438, 1741003, 1741588, 1742199, 1742758, 1743358, 1743911, 1744470, 1745087, 1745654, 1746201, 1746777]",60,EM,L,R,ITMSR,1.1
4,600,trial,0,92,92,92,trial,"['S', 'S', 'S', 'S', 'S', 'S', 'C', 'C', 'C', 'C', 'C', 'C', 'C', 'C', 'C', 'C', 'C', 'C', 'C', 'C', 'C', 'C']","[1753200, 1753803, 1754452, 1755070, 1755694, 1756298, 1756861, 1757446, 1758046, 1758626, 1759227, 1759848, 1760444, 1761015, 1761622, 1762201, 1762763, 1763348, 1763918, 1764499, 1765102, 1765690]","[1753350, 1753984, 1754605, 1755248, 1755865, 1756455, 1757030, 1757643, 1758208, 1758837, 1759422, 1760027, 1760617, 1761200, 1761823, 1762401, 1762959, 1763521, 1764118, 1764756, 1765275, 1765875]","[84, 149, 166, 202, 145, 98, 45, 107, 94, 140, 140, 149, 160, 145, 216, 155, 173, 121, 191, 220, 82, 178]","[1753273, 1753809, 1754459, 1755166, 1755770, 1756379, 1756930, 1757549, 1758151, 1758726, 1759235, 1759941, 1760532, 1761110, 1761736, 1762207, 1762769, 1763355, 1763924, 1764505, 1765179, 1765698]","[1752118, 1752717, 1753317, 1753917, 1754517, 1755117, 1755717, 1756317, 1756881, 1757466, 1758066, 1758646, 1759247, 1759868, 1760464, 1761035, 1761642, 1762221, 1762783, 1763368, 1763938, 1764519, 1765122, 1765710]",60,EM,L,R,ITMSR,1.1
0,600,trial,0,93,93,93,trial,"['S', 'S', 'S', 'S', 'S', 'S', 'C', 'C', 'C', 'C', 'C', 'C', 'C', 'C', 'C', 'C', 'C', 'C', 'C', 'C', 'C', 'C']","[1772223, 1772837, 1773502, 1774064, 1774645, 1775254, 1775886, 1776501, 1777124, 1777705, 1778258, 1778837, 1779440, 1780042, 1780610, 1781186, 1781815, 1782373, 1782925, 1783516, 1784096, 1784700]","[1772370, 1772994, 1773629, 1774210, 1774769, 1775388, 1776031, 1776650, 1777244, 1777845, 1778419, 1778991, 1779579, 1780187, 1780745, 1781351, 1781910, 1782497, 1783069, 1783666, 1784258, 1784850]","[176, 198, 160, 197, 138, 142, 96, 154, 135, 215, 177, 212, 178, 202, 212, 147, 189, 116, 158, 159, 200, 202]","[1772229, 1772845, 1773509, 1774071, 1774652, 1775261, 1775893, 1776508, 1777131, 1777712, 1778265, 1778843, 1779447, 1780048, 1780617, 1781194, 1781821, 1782380, 1782931, 1783522, 1784101, 1784707]","[1771140, 1771739, 1772339, 1772939, 1773539, 1774139, 1774739, 1775339, 1775906, 1776521, 1777144, 1777725, 1778278, 1778857, 1779460, 1780062, 1780630, 1781207, 1781835, 1782393, 1782945, 1783536, 1784116, 1784720]",60,EM,L,R,ITMSR,1.1
1,600,trial,0,94,94,94,trial,"['S', 'S', 'S', 'S', 'S', 'S', 'C', 'C', 'C', 'C', 'C', 'C', 'C', 'C', 'C', 'C', 'C', 'C', 'C', 'C', 'C', 'C']","[1791492, 1792102, 1792651, 1793226, 1793852, 1794455, 1795022, 1795584, 1796137, 1796726, 1797309, 1797878, 1798450, 1799040, 1799623, 1800163, 1800762, 1801372, 1801923, 1802500, 1803064, 1803681]","[1791608, 1792249, 1792799, 1793387, 1794003, 1794611, 1795183, 1795748, 1796297, 1796882, 1797458, 1798018, 1798593, 1799160, 1799764, 1800325, 1800899, 1801521, 1802070, 1802618, 1803183, 1803823]","[156, 18, 21, 5, 36, 43, 224, 173, 188, 199, 164, 209, 200, 151, 137, 96, 97, 127, 79, 172, 172, 193]","[1791500, 1792107, 1792656, 1793231, 1793857, 1794459, 1795105, 1795589, 1796144, 1796731, 1797315, 1797884, 1798456, 1799046, 1799630, 1800247, 1800769, 1801379, 1801929, 1802506, 1803070, 1803686]","[1790338, 1790938, 1791538, 1792138, 1792738, 1793338, 1793938, 1794538, 1795042, 1795604, 1796157, 1796746, 1797329, 1797898, 1798470, 1799060, 1799643, 1800183, 1800782, 1801392, 1801944, 1802520, 1803084, 1803701]",60,EM,L,R,ITMSR,1.1
4,400,trial,0,95,95,95,trial,"['S', 'S', 'S', 'S', 'C', 'C', 'C', 'C', 'C', 'C', 'C', 'C', 'C', 'C', 'C', 'C', 'C', 'C', 'C', 'C']","[1810593, 1810981, 1811394, 1811782, 1812200, 1812590, 1813011, 1813411, 1813817, 1814226, 1814618, 1815004, 1815409, 1815801, 1816221, 1816599, 1816994, 1817417, 1817816, 1818232]","[1810711, 1811121, 1811524, 1811923, 1812321, 1812728, 1813142, 1813561, 1813935, 1814354, 1814764, 1815156, 1815549, 1815942, 1816344, 1816749, 1817142, 1817550, 1817982, 1818378]","[67, 22, 39, 25, 244, 226, 251, 228, 243, 178, 164, 244, 212, 215, 249, 239, 252, 233, 221, 210]","[1810598, 1810985, 1811399, 1811788, 1812205, 1812597, 1813016, 1813486, 1813823, 1814297, 1814625, 1815009, 1815416, 1815877, 1816226, 1816605, 1816999, 1817423, 1817909, 1818313]","[1809039, 1809438, 1809838, 1810238, 1810638, 1811038, 1811438, 1811838, 1812220, 1812610, 1813031, 1813431, 1813837, 1814246, 1814638, 1815024, 1815429, 1815821, 1816241, 1816620, 1817014, 1817437, 1817836, 1818252]",60,EM,L,R,ITMSR,1.1
4,600,trial,0,96,96,96,trial,"['S', 'S', 'S', 'S', 'S', 'S', 'C', 'C', 'C', 'C', 'C', 'C', 'C', 'C', 'C', 'C', 'C', 'C', 'C', 'C', 'C', 'C']","[1824685, 1825316, 1825909, 1826502, 1827079, 1827724, 1828322, 1828897, 1829482, 1830091, 1830692, 1831270, 1831852, 1832427, 1833016, 1833624, 1834226, 1834808, 1835387, 1835987, 1836594, 1837156]","[1824832, 1825520, 1826104, 1826706, 1827333, 1827950, 1828509, 1829106, 1829678, 1830279, 1830861, 1831427, 1832024, 1832608, 1833206, 1833834, 1834383, 1834985, 1835551, 1836178, 1836751, 1837345]","[101, 152, 129, 168, 109, 167, 175, 178, 153, 156, 158, 161, 252, 4, 245, 168, 195, 170, 75, 45, 120, 117]","[1824758, 1825324, 1826011, 1826509, 1827177, 1827836, 1828413, 1829011, 1829487, 1830152, 1830699, 1831276, 1831859, 1832432, 1833021, 1833631, 1834294, 1834907, 1835474, 1836078, 1836662, 1837163]","[1823581, 1824180, 1824780, 1825380, 1825980, 1826580, 1827180, 1827780, 1828342, 1828917, 1829502, 1830111, 1830712, 1831290, 1831872, 1832448, 1833036, 1833645, 1834246, 1834828, 1835407, 1836007, 1836614, 1837176]",60,EM,L,R,ITMSR,1.1
