pitch,ioi,event,.thisRepN,.thisTrialN,.thisN,.thisIndex,event,tap_types,tap_times,release_times,peak_pressures,peak_times,tone_times,subject,experimenter,register,handedness,experiment,version,
,,SPR,0,-1,-1,0,SPR,"['P', 'P', 'P', 'P', 'P', 'P', 'P', 'P', 'P', 'P', 'P', 'P', 'P', 'P', 'P', 'P', 'P', 'P', 'P', 'P', 'P', 'P', 'P', 'P', 'P', 'P', 'P', 'P', 'P', 'P']","[35415, 37678, 38213, 38720, 39248, 39778, 40336, 40866, 41398, 41939, 42470, 42999, 43497, 44021, 44518, 45056, 45601, 46108, 46602, 47118, 47622, 48135, 48633, 49186, 49644, 50154, 50680, 51149, 51633, 52146]","[35487, 37766, 38318, 38822, 39367, 39896, 40439, 40965, 41507, 42064, 42570, 43105, 43635, 44126, 44646, 45162, 45681, 46185, 46706, 47243, 47749, 48254, 48775, 49300, 49767, 50268, 50767, 51265, 51735, 52231]","[91, 153, 132, 96, 123, 115, 115, 95, 75, 117, 107, 121, 121, 106, 113, 59, 80, 111, 93, 114, 99, 135, 121, 100, 121, 105, 28, 90, 112, 92]","[35417, 37682, 38217, 38726, 39252, 39783, 40340, 40870, 41402, 41944, 42475, 43003, 43501, 44026, 44525, 45060, 45607, 46111, 46640, 47124, 47686, 48188, 48638, 49242, 49650, 50161, 50688, 51155, 51640, 52152]",,56,SB,L,R,ITMSR,1.0,
4,500,practice,0,0,0,0,practice,"['S', 'S', 'S', 'S', 'S', 'S', 'S', 'C', 'C', 'C', 'C', 'C', 'C', 'C', 'C', 'C', 'C', 'C', 'C', 'C', 'C', 'C', 'C']","[105527, 105918, 106340, 106840, 107317, 107788, 108262, 108779, 109248, 109702, 110190, 110693, 111190, 111684, 112184, 112690, 113167, 113661, 114148, 114625, 115154, 115635, 116132]","[105623, 106035, 106448, 106940, 107429, 107913, 108384, 108892, 109363, 109818, 110312, 110827, 111323, 111833, 112338, 112827, 113331, 113807, 114295, 114802, 115326, 115814, 116294]","[125, 148, 61, 80, 95, 94, 103, 90, 88, 76, 62, 68, 71, 85, 69, 77, 90, 67, 101, 75, 57, 74, 77]","[105531, 105921, 106377, 106840, 107318, 107792, 108264, 108783, 109250, 109704, 110193, 110697, 111194, 111688, 112187, 112693, 113170, 113664, 114151, 114628, 115159, 115717, 116135]","[104841, 105339, 105839, 106340, 106840, 107339, 107839, 108340, 108818, 109287, 109741, 110228, 110732, 111228, 111722, 112223, 112729, 113206, 113699, 114187, 114664, 115192, 115674, 116170]",56,SB,L,R,ITMSR,1.0,
1,500,practice,0,1,1,1,practice,"['S', 'S', 'S', 'S', 'S', 'S', 'C', 'C', 'C', 'C', 'C', 'C', 'C', 'C', 'C', 'C', 'C', 'C', 'C', 'C', 'C', 'C']","[122418, 122914, 123449, 123947, 124441, 124943, 125451, 125953, 126473, 126939, 127453, 127973, 128478, 128991, 129505, 130022, 130507, 130991, 131536, 132028, 132533, 133030]","[122535, 123052, 123565, 124080, 124570, 125063, 125573, 126096, 126603, 127084, 127593, 128103, 128609, 129116, 129622, 130132, 130629, 131124, 131660, 132151, 132628, 133140]","[131, 128, 104, 94, 92, 102, 69, 48, 77, 66, 34, 37, 31, 34, 5, 199, 108, 138, 151, 123, 74, 136]","[122421, 122917, 123452, 123951, 124445, 124946, 125454, 125955, 126475, 126941, 127456, 127976, 128481, 128994, 129508, 130024, 130510, 130993, 131538, 132031, 132536, 133033]","[121497, 121998, 122498, 122997, 123498, 123998, 124497, 124997, 125491, 125992, 126513, 126979, 127493, 128013, 128518, 129031, 129545, 130062, 130546, 131031, 131575, 132068, 132573, 133069]",56,SB,L,R,ITMSR,1.0,
5,500,practice,0,2,2,2,practice,"['B', 'S', 'S', 'S', 'S', 'S', 'S', 'C', 'C', 'C', 'C', 'C', 'C', 'C', 'C', 'C', 'C', 'C', 'C', 'C', 'C', 'C', 'C']","[138500, 138996, 139540, 140027, 140527, 141028, 141528, 142466, 142958, 143493, 143991, 144482, 144959, 145483, 145991, 146453, 146964, 147494, 147963, 148482, 148975, 149471, 149980]","[138604, 139141, 139641, 140136, 140656, 141161, 141630, 142585, 143092, 143617, 144131, 144648, 145141, 145664, 146177, 146662, 147167, 147690, 148176, 148665, 149155, 149682, 150163]","[246, 97, 31, 25, 92, 33, 33, 99, 67, 55, 40, 36, 51, 44, 31, 25, 221, 180, 153, 111, 141, 241, 85]","[138535, 139000, 139544, 140049, 140527, 141083, 141528, 142470, 142963, 143497, 143994, 144485, 144962, 145487, 145996, 146456, 146969, 147500, 147969, 148486, 148978, 149477, 149985]","[138527, 139028, 139528, 140027, 140527, 141028, 141528, 142027, 142507, 142998, 143534, 144031, 144523, 145000, 145523, 146031, 146494, 147005, 147534, 148003, 148523, 149015, 149512, 150021]",56,SB,L,R,ITMSR,1.0,
3,500,practice,0,3,3,3,practice,"['S', 'S', 'S', 'S', 'S', 'S', 'C', 'C', 'C', 'C', 'C', 'C', 'C', 'C', 'C', 'C', 'C', 'C', 'C', 'C', 'C', 'C']","[156737, 157260, 157808, 158305, 158804, 159304, 159776, 160294, 160803, 161304, 161783, 162308, 162820, 163321, 163812, 164355, 164840, 165353, 165854, 166336, 166874, 167351]","[156879, 157449, 157976, 158472, 158962, 159463, 159937, 160462, 160990, 161497, 161995, 162489, 162979, 163488, 163987, 164501, 165022, 165535, 166037, 166534, 167037, 167547]","[12, 27, 189, 152, 140, 120, 241, 245, 237, 212, 194, 169, 176, 204, 207, 177, 199, 204, 141, 121, 164, 81]","[156740, 157263, 157812, 158366, 158804, 159363, 159779, 160297, 160806, 161307, 161786, 162311, 162824, 163325, 163815, 164358, 164844, 165356, 165858, 166428, 166878, 167356]","[155803, 156304, 156804, 157303, 157804, 158305, 158804, 159304, 159816, 160334, 160843, 161345, 161823, 162349, 162861, 163361, 163853, 164396, 164881, 165394, 165895, 166377, 166915, 167392]",56,SB,L,R,ITMSR,1.0,
0,500,practice,0,4,4,4,practice,"['S', 'S', 'S', 'S', 'S', 'S', 'S', 'C', 'C', 'C', 'C', 'C', 'C', 'C', 'C', 'C', 'C', 'C', 'C', 'C', 'C', 'C', 'C']","[173135, 173759, 174259, 174771, 175270, 175762, 176259, 176734, 177222, 177725, 178234, 178742, 179240, 179755, 180243, 180769, 181277, 181763, 182289, 182818, 183319, 183846, 184388]","[173294, 173869, 174388, 174899, 175410, 175899, 176382, 176845, 177315, 177815, 178312, 178810, 179322, 179843, 180346, 180859, 181373, 181883, 182401, 182915, 183417, 183957, 184481]","[68, 29, 51, 37, 42, 46, 216, 51, 57, 55, 31, 7, 243, 25, 4, 0, 7, 31, 13, 251, 227, 253, 230]","[173142, 173797, 174259, 174775, 175273, 175766, 176315, 176738, 177226, 177729, 178238, 178747, 179246, 179759, 180247, 180774, 181282, 181767, 182293, 182822, 183324, 183851, 184394]","[172759, 173258, 173759, 174259, 174758, 175258, 175759, 176259, 176775, 177262, 177766, 178275, 178783, 179280, 179795, 180284, 180809, 181317, 181804, 182330, 182858, 183360, 183886, 184428]",56,SB,L,R,ITMSR,1.0,
2,500,practice,0,5,5,5,practice,"['S', 'S', 'S', 'S', 'S', 'S', 'S', 'C', 'C', 'C', 'C', 'C', 'C', 'C', 'C', 'C', 'C', 'C', 'C', 'C', 'C', 'C', 'C']","[190274, 190862, 191414, 191930, 192455, 192969, 193480, 193989, 194495, 194994, 195502, 196011, 196521, 197032, 197529, 198051, 198596, 199084, 199550, 200092, 200642, 201140, 201645]","[190399, 190990, 191532, 192030, 192586, 193118, 193633, 194135, 194610, 195113, 195632, 196155, 196649, 197164, 197690, 198211, 198734, 199225, 199711, 200220, 200771, 201298, 201793]","[42, 247, 28, 135, 17, 0, 208, 207, 12, 18, 20, 33, 21, 42, 65, 34, 4, 254, 29, 5, 249, 251, 10]","[190278, 190868, 191419, 191974, 192460, 192974, 193485, 193994, 194499, 194998, 195507, 196015, 196526, 197037, 197533, 198055, 198600, 199090, 199555, 200098, 200647, 201144, 201650]","[189955, 190453, 190954, 191454, 191953, 192453, 192954, 193454, 194029, 194536, 195035, 195543, 196051, 196561, 197072, 197569, 198091, 198636, 199124, 199590, 200132, 200683, 201181, 201686]",56,SB,L,R,ITMSR,1.0,
0,400,trial,0,6,6,6,trial,"['S', 'S', 'S', 'S', 'S', 'S', 'C', 'C', 'C', 'C', 'C', 'C', 'C', 'C', 'C', 'C', 'C', 'C', 'C', 'C', 'C', 'C']","[258547, 259058, 259695, 260098, 260495, 260893, 261314, 261706, 262080, 262459, 262839, 263207, 263587, 263957, 264331, 264695, 265076, 265440, 265806, 266175, 266550, 266926]","[258652, 259167, 259801, 260197, 260596, 260997, 261395, 261804, 262182, 262568, 262940, 263310, 263687, 264050, 264417, 264775, 265141, 265538, 265893, 266262, 266635, 267003]","[122, 56, 134, 148, 105, 129, 75, 56, 36, 44, 24, 20, 237, 212, 160, 194, 204, 232, 226, 111, 215, 129]","[258550, 259063, 259698, 260102, 260498, 260896, 261318, 261709, 262083, 262463, 262843, 263211, 263592, 263961, 264336, 264699, 265080, 265445, 265810, 266181, 266554, 266932]","[258198, 258596, 258997, 259396, 259796, 260197, 260596, 260997, 261355, 261746, 262121, 262500, 262880, 263247, 263627, 263998, 264372, 264735, 265116, 265481, 265846, 266216, 266591, 266967]",56,SB,L,R,ITMSR,1.0,
3,400,trial,0,7,7,7,trial,"['S', 'S', 'S', 'S', 'C', 'C', 'C', 'C', 'C', 'C', 'C', 'C', 'C', 'C', 'C', 'C', 'C', 'C', 'C', 'C']","[274129, 274524, 274930, 275331, 275722, 276112, 276491, 276913, 277308, 277726, 278096, 278475, 278883, 279251, 279644, 280100, 280451, 280808, 281189, 281534]","[274202, 274606, 275021, 275448, 275822, 276191, 276573, 277004, 277396, 277806, 278193, 278569, 278965, 279347, 279756, 280176, 280539, 280911, 281274, 281638]","[83, 75, 43, 34, 22, 245, 14, 166, 123, 147, 2, 30, 216, 40, 104, 35, 123, 49, 64, 232]","[274132, 274527, 274934, 275335, 275725, 276115, 276494, 276919, 277314, 277731, 278103, 278482, 278889, 279257, 279649, 280105, 280456, 280813, 281194, 281540]","[272649, 273048, 273448, 273849, 274248, 274649, 275049, 275448, 275763, 276153, 276532, 276954, 277349, 277767, 278136, 278515, 278924, 279291, 279685, 280140, 280492, 280849, 281230, 281575]",56,SB,L,R,ITMSR,1.0,
3,600,trial,0,8,8,8,trial,"['S', 'S', 'S', 'S', 'C', 'C', 'C', 'C', 'C', 'C', 'C', 'C', 'C', 'C', 'C', 'C', 'C', 'C', 'C', 'C']","[289647, 290211, 290841, 291431, 292031, 292553, 293094, 293675, 294205, 294702, 295244, 295827, 296346, 296888, 297407, 297932, 298488, 299040, 299612, 300127]","[289777, 290337, 290953, 291577, 292179, 292740, 293287, 293837, 294374, 294886, 295420, 295989, 296519, 297049, 297601, 298130, 298665, 299225, 299836, 300343]","[10, 56, 61, 23, 41, 15, 50, 47, 51, 59, 55, 48, 49, 245, 252, 5, 19, 11, 4, 220]","[289651, 290215, 290844, 291435, 292035, 292658, 293098, 293679, 294209, 294804, 295248, 295830, 296350, 296971, 297411, 297936, 298582, 299044, 299615, 300131]","[287377, 287977, 288577, 289177, 289777, 290377, 290977, 291577, 292072, 292593, 293135, 293715, 294246, 294743, 295284, 295868, 296386, 296929, 297448, 297972, 298528, 299080, 299653, 300168]",56,SB,L,R,ITMSR,1.0,
2,600,trial,0,9,9,9,trial,"['S', 'S', 'S', 'S', 'C', 'C', 'C', 'C', 'C', 'C', 'C', 'C', 'C', 'C', 'C', 'C', 'C', 'C', 'C', 'C']","[308083, 308709, 309309, 309924, 310561, 311148, 311727, 312328, 312923, 313517, 314146, 314725, 315322, 315932, 316533, 317112, 317693, 318314, 318888, 319458]","[308243, 308861, 309468, 310090, 310686, 311290, 311885, 312513, 313089, 313710, 314331, 314933, 315535, 316129, 316717, 317250, 317876, 318438, 319060, 319648]","[75, 74, 48, 53, 64, 74, 116, 86, 99, 58, 94, 85, 78, 60, 49, 19, 34, 3, 5, 48]","[308087, 308712, 309397, 309927, 310565, 311151, 311731, 312429, 313009, 313607, 314236, 314826, 315423, 315935, 316623, 317195, 317698, 318385, 318979, 319552]","[305776, 306376, 306976, 307576, 308176, 308776, 309377, 309977, 310601, 311189, 311768, 312369, 312964, 313558, 314186, 314766, 315363, 315972, 316573, 317153, 317733, 318355, 318928, 319499]",56,SB,L,R,ITMSR,1.0,
0,400,trial,0,10,10,10,trial,"['S', 'S', 'S', 'S', 'C', 'C', 'C', 'C', 'C', 'C', 'C', 'C', 'C', 'C', 'C', 'C', 'C', 'C', 'C', 'C']","[326347, 326771, 327191, 327585, 328012, 328415, 328828, 329213, 329613, 329997, 330384, 330789, 331183, 331549, 331963, 332371, 332767, 333159, 333572, 333936]","[326446, 326871, 327282, 327682, 328094, 328504, 328920, 329310, 329698, 330082, 330472, 330874, 331268, 331660, 332055, 332471, 332863, 333276, 333668, 334070]","[54, 12, 81, 67, 66, 63, 75, 61, 7, 236, 239, 240, 10, 111, 191, 162, 248, 239, 162, 203]","[326350, 326774, 327193, 327588, 328015, 328418, 328832, 329217, 329616, 330000, 330388, 330792, 331185, 331610, 331967, 332376, 332770, 333162, 333576, 333939]","[324846, 325245, 325646, 326045, 326446, 326846, 327245, 327646, 328052, 328456, 328868, 329253, 329654, 330038, 330425, 330829, 331224, 331589, 332004, 332411, 332808, 333200, 333613, 333976]",56,SB,L,R,ITMSR,1.0,
1,400,trial,0,11,11,11,trial,"['S', 'S', 'S', 'S', 'C', 'C', 'C', 'C', 'C', 'C', 'C', 'C', 'C', 'C', 'C', 'C', 'C', 'C', 'C', 'C']","[341267, 341644, 342029, 342430, 342839, 343193, 343569, 343980, 344347, 344756, 345145, 345536, 345927, 346329, 346744, 347133, 347529, 347912, 348314, 348713]","[341371, 341755, 342130, 342515, 342908, 343274, 343654, 344067, 344444, 344839, 345238, 345632, 346029, 346425, 346850, 347247, 347611, 348027, 348429, 348811]","[92, 37, 41, 252, 211, 10, 235, 221, 171, 96, 115, 116, 155, 91, 97, 64, 246, 38, 23, 58]","[341270, 341648, 342033, 342433, 342843, 343196, 343572, 343983, 344350, 344760, 345149, 345540, 345931, 346333, 346749, 347138, 347534, 347917, 348318, 348718]","[339755, 340155, 340554, 340955, 341355, 341755, 342156, 342555, 342879, 343232, 343609, 344019, 344386, 344796, 345185, 345576, 345966, 346369, 346783, 347172, 347569, 347952, 348353, 348752]",56,SB,L,R,ITMSR,1.0,
4,600,trial,0,12,12,12,trial,"['S', 'S', 'S', 'S', 'C', 'C', 'C', 'C', 'C', 'C', 'C', 'C', 'C', 'C', 'C', 'C', 'C', 'C', 'C', 'C']","[356575, 357181, 357811, 358437, 359008, 359608, 360208, 360772, 361366, 361976, 362569, 363149, 363749, 364351, 364940, 365563, 366135, 366686, 367253, 367854]","[356727, 357342, 357971, 358554, 359176, 359764, 360352, 360932, 361523, 362096, 362674, 363286, 363897, 364516, 365122, 365751, 366327, 366910, 367504, 368071]","[201, 241, 241, 216, 227, 234, 37, 24, 20, 172, 196, 228, 213, 133, 174, 67, 222, 205, 213, 153]","[356579, 357271, 357901, 358447, 359013, 359695, 360292, 360867, 361450, 362045, 362632, 363241, 363839, 364463, 365039, 365662, 366237, 366785, 367377, 367969]","[354272, 354872, 355472, 356072, 356671, 357271, 357871, 358471, 359047, 359647, 360247, 360810, 361405, 362014, 362607, 363188, 363788, 364390, 364979, 365601, 366174, 366725, 367292, 367892]",56,SB,L,R,ITMSR,1.0,
4,400,trial,0,13,13,13,trial,"['S', 'S', 'S', 'S', 'C', 'C', 'C', 'C', 'C', 'C', 'C', 'C', 'C', 'C', 'C', 'C', 'C', 'C', 'C', 'C']","[374717, 375148, 375560, 375945, 376349, 376758, 377185, 377602, 378007, 378408, 378801, 379208, 379632, 380056, 380457, 380877, 381301, 381728, 382100, 382515]","[374822, 375252, 375658, 376052, 376464, 376897, 377318, 377758, 378166, 378566, 378969, 379390, 379810, 380233, 380648, 381042, 381454, 381857, 382259, 382673]","[84, 76, 104, 39, 5, 209, 255, 4, 7, 17, 233, 246, 235, 8, 232, 189, 92, 119, 147, 179]","[374724, 375179, 375568, 375973, 376357, 376765, 377260, 377683, 378087, 378488, 378883, 379295, 379718, 380151, 380544, 380963, 381381, 381735, 382183, 382597]","[373224, 373622, 374023, 374422, 374822, 375223, 375622, 376023, 376387, 376797, 377224, 377640, 378046, 378446, 378840, 379246, 379670, 380095, 380495, 380915, 381339, 381766, 382139, 382554]",56,SB,L,R,ITMSR,1.0,
2,600,trial,0,14,14,14,trial,"['S', 'S', 'S', 'S', 'C', 'C', 'C', 'C', 'C', 'C', 'C', 'C', 'C', 'C', 'C', 'C', 'C', 'C', 'C', 'C']","[390435, 391045, 391668, 392292, 392916, 393525, 394129, 394750, 395351, 395918, 396514, 397107, 397698, 398303, 398918, 399517, 400113, 400727, 401350, 401948]","[390591, 391206, 391835, 392446, 393077, 393696, 394316, 394920, 395526, 396131, 396699, 397294, 397897, 398484, 399054, 399691, 400282, 400901, 401516, 402120]","[52, 38, 240, 249, 254, 216, 12, 26, 57, 175, 44, 26, 39, 222, 230, 82, 129, 166, 52, 162]","[390521, 391123, 391759, 392376, 392999, 393623, 394225, 394844, 395454, 396055, 396605, 397192, 397791, 398387, 398971, 399601, 400202, 400807, 401440, 402029]","[388148, 388747, 389347, 389947, 390547, 391147, 391746, 392346, 392956, 393566, 394170, 394790, 395392, 395959, 396555, 397148, 397739, 398344, 398958, 399557, 400153, 400768, 401390, 401988]",56,SB,L,R,ITMSR,1.0,
0,600,trial,0,15,15,15,trial,"['S', 'S', 'S', 'S', 'C', 'C', 'C', 'C', 'C', 'C', 'C', 'C', 'C', 'C', 'C', 'C', 'C', 'C', 'C', 'C']","[409995, 410621, 411213, 411838, 412459, 413047, 413596, 414185, 414776, 415360, 415941, 416559, 417145, 417729, 418313, 418913, 419527, 420155, 420752, 421344]","[410158, 410770, 411359, 411969, 412584, 413193, 413766, 414364, 414960, 415554, 416139, 416759, 417340, 417905, 418485, 419108, 419728, 420325, 420968, 421541]","[127, 88, 61, 27, 25, 54, 95, 107, 96, 106, 109, 114, 106, 100, 55, 81, 75, 65, 81, 97]","[410071, 410694, 411293, 411918, 412531, 413132, 413691, 414282, 414872, 415472, 416044, 416679, 417241, 417819, 418420, 419030, 419622, 420233, 420867, 421438]","[407718, 408317, 408918, 409518, 410118, 410718, 411318, 411918, 412499, 413087, 413636, 414226, 414817, 415400, 415981, 416600, 417185, 417770, 418354, 418954, 419567, 420196, 420793, 421385]",56,SB,L,R,ITMSR,1.0,
5,400,trial,0,16,16,16,trial,"['S', 'S', 'S', 'S', 'C', 'C', 'C', 'C', 'C', 'C', 'C', 'C', 'C', 'C', 'C', 'C', 'C', 'C', 'C', 'C']","[428267, 428698, 429113, 429520, 429923, 430342, 430769, 431192, 431597, 432013, 432446, 432859, 433273, 433693, 434124, 434552, 434971, 435405, 435795, 436197]","[428408, 428825, 429249, 429644, 430046, 430441, 430845, 431271, 431676, 432096, 432527, 432929, 433352, 433769, 434203, 434635, 435048, 435481, 435901, 436315]","[158, 161, 143, 167, 154, 136, 122, 134, 127, 136, 124, 132, 131, 120, 99, 86, 94, 92, 104, 75]","[428271, 428701, 429117, 429524, 429926, 430346, 430773, 431196, 431601, 432017, 432450, 432862, 433277, 433697, 434128, 434557, 434976, 435409, 435799, 436202]","[426760, 427159, 427559, 427960, 428359, 428760, 429160, 429559, 429964, 430383, 430810, 431233, 431638, 432054, 432487, 432900, 433313, 433733, 434164, 434592, 435011, 435445, 435835, 436238]",56,SB,L,R,ITMSR,1.0,
3,400,trial,0,17,17,17,trial,"['S', 'S', 'S', 'S', 'S', 'C', 'C', 'C', 'C', 'C', 'C', 'C', 'C', 'C', 'C', 'C', 'C', 'C', 'C', 'C', 'C']","[441690, 443212, 443637, 444042, 444440, 444845, 445270, 445683, 446080, 446466, 446907, 447310, 447704, 448118, 448507, 448892, 449295, 449689, 450104, 450509, 450899]","[441808, 443338, 443751, 444142, 444555, 444957, 445392, 445805, 446203, 446595, 447024, 447435, 447845, 448224, 448635, 449038, 449461, 449831, 450247, 450647, 451052]","[209, 62, 77, 45, 16, 5, 9, 22, 242, 242, 231, 243, 251, 252, 244, 211, 211, 241, 253, 187, 228]","[441690, 443215, 443641, 444046, 444443, 444849, 445273, 445686, 446083, 446469, 446911, 447313, 447708, 448122, 448510, 448896, 449298, 449693, 450107, 450512, 450903]","[441690, 442090, 442489, 442890, 443289, 443689, 444090, 444489, 444886, 445310, 445723, 446120, 446507, 446948, 447350, 447745, 448158, 448547, 448932, 449336, 449729, 450145, 450549, 450939]",56,SB,L,R,ITMSR,1.0,
3,600,trial,0,18,18,18,trial,"['S', 'S', 'S', 'S', 'S', 'C', 'C', 'C', 'C', 'C', 'C', 'C', 'C', 'C', 'C', 'C', 'C', 'C', 'C', 'C', 'C']","[458320, 458927, 459556, 460120, 460759, 461352, 461929, 462513, 463069, 463622, 464254, 464849, 465446, 466016, 466561, 467143, 467733, 468326, 468915, 469494, 470088]","[458476, 459087, 459695, 460285, 460893, 461492, 462092, 462684, 463251, 463826, 464437, 465015, 465623, 466208, 466792, 467354, 467939, 468526, 469096, 469697, 470269]","[95, 122, 100, 100, 58, 27, 71, 76, 68, 63, 33, 7, 40, 53, 58, 43, 18, 7, 19, 6, 11]","[458324, 458931, 459559, 460125, 460829, 461429, 462003, 462601, 463160, 463737, 464347, 464942, 465549, 466107, 466708, 467246, 467845, 468433, 469003, 469578, 470173]","[456652, 457252, 457852, 458452, 459053, 459653, 460253, 460853, 461392, 461970, 462554, 463110, 463663, 464294, 464889, 465486, 466057, 466601, 467183, 467774, 468367, 468956, 469534, 470128]",56,SB,L,R,ITMSR,1.0,
4,400,trial,0,19,19,19,trial,"['S', 'S', 'S', 'S', 'C', 'C', 'C', 'C', 'C', 'C', 'C', 'C', 'C', 'C', 'C', 'C', 'C', 'C', 'C', 'C']","[477072, 477534, 477973, 478373, 478785, 479230, 479649, 480061, 480479, 480905, 481337, 481757, 482182, 482582, 482992, 483441, 483904, 484284, 484672, 485086]","[477194, 477649, 478097, 478509, 478929, 479358, 479793, 480223, 480647, 481062, 481495, 481918, 482324, 482751, 483168, 483551, 484012, 484424, 484814, 485236]","[33, 61, 39, 32, 18, 245, 244, 12, 22, 27, 52, 55, 34, 63, 67, 53, 35, 74, 46, 47]","[477076, 477538, 477976, 478375, 478860, 479304, 479655, 480142, 480558, 480983, 481415, 481841, 482252, 482670, 483072, 483450, 483912, 484288, 484677, 485163]","[475574, 475973, 476374, 476774, 477173, 477574, 477973, 478373, 478824, 479268, 479687, 480100, 480518, 480944, 481376, 481796, 482221, 482621, 483031, 483479, 483943, 484323, 484711, 485125]",56,SB,L,R,ITMSR,1.0,
5,400,trial,0,20,20,20,trial,"['S', 'S', 'S', 'S', 'C', 'C', 'C', 'C', 'C', 'C', 'C', 'C', 'C', 'C', 'C', 'C', 'C', 'C', 'C', 'C']","[492366, 492783, 493208, 493615, 494023, 494418, 494795, 495209, 495614, 496015, 496430, 496828, 497234, 497644, 498022, 498406, 498792, 499208, 499600, 499996]","[492505, 492931, 493353, 493745, 494158, 494580, 494980, 495370, 495764, 496165, 496546, 496947, 497362, 497770, 498164, 498529, 498942, 499362, 499758, 500124]","[112, 116, 107, 109, 104, 117, 105, 86, 84, 76, 57, 47, 82, 89, 76, 48, 67, 48, 51, 40]","[492444, 492868, 493283, 493685, 494031, 494428, 494878, 495293, 495703, 496093, 496438, 496837, 497240, 497652, 498101, 498415, 498800, 499216, 499677, 500069]","[490868, 491269, 491669, 492068, 492469, 492868, 493268, 493669, 494063, 494458, 494835, 495250, 495654, 496056, 496471, 496869, 497274, 497685, 498063, 498447, 498833, 499249, 499641, 500036]",56,SB,L,R,ITMSR,1.0,
1,600,trial,0,21,21,21,trial,"['S', 'S', 'S', 'S', 'S', 'S', 'C', 'C', 'C', 'C', 'C', 'C', 'C', 'C', 'C', 'C', 'C', 'C', 'C', 'C', 'C', 'C']","[506579, 507239, 507881, 508494, 509083, 509709, 510324, 510904, 511499, 512109, 512701, 513244, 513807, 514397, 514973, 515563, 516150, 516731, 517340, 517905, 518516, 519073]","[506747, 507392, 508032, 508640, 509241, 509858, 510464, 511045, 511644, 512229, 512819, 513412, 513983, 514565, 515131, 515720, 516295, 516915, 517510, 518105, 518700, 519264]","[57, 53, 85, 58, 73, 81, 86, 81, 102, 91, 89, 88, 113, 116, 121, 115, 126, 116, 103, 92, 92, 61]","[506665, 507323, 507962, 508503, 509162, 509793, 510396, 510982, 511577, 512118, 512709, 513253, 513815, 514404, 514980, 515572, 516158, 516814, 517348, 517913, 518596, 519080]","[505584, 506184, 506784, 507384, 507984, 508584, 509185, 509785, 510363, 510944, 511539, 512149, 512741, 513284, 513847, 514437, 515012, 515603, 516190, 516770, 517380, 517945, 518555, 519112]",56,SB,L,R,ITMSR,1.0,
2,400,trial,0,22,22,22,trial,"['S', 'S', 'S', 'S', 'C', 'C', 'C', 'C', 'C', 'C', 'C', 'C', 'C', 'C', 'C', 'C', 'C', 'C', 'C', 'C']","[526061, 526465, 526861, 527262, 527672, 528098, 528515, 528896, 529315, 529714, 530089, 530500, 530924, 531345, 531718, 532105, 532535, 532948, 533344, 533764]","[526188, 526593, 526990, 527383, 527785, 528200, 528628, 529019, 529422, 529840, 530237, 530632, 531043, 531453, 531858, 532240, 532640, 533060, 533470, 533873]","[101, 101, 85, 54, 220, 203, 13, 239, 246, 4, 252, 244, 248, 168, 180, 162, 192, 190, 199, 196]","[526069, 526496, 526869, 527269, 527681, 528105, 528523, 528974, 529323, 529777, 530165, 530509, 530932, 531415, 531727, 532113, 532542, 533018, 533352, 533773]","[524554, 524952, 525352, 525753, 526152, 526553, 526953, 527352, 527713, 528139, 528556, 528936, 529355, 529755, 530129, 530540, 530965, 531386, 531759, 532146, 532576, 532988, 533385, 533805]",56,SB,L,R,ITMSR,1.0,
1,400,trial,0,23,23,23,trial,"['S', 'S', 'S', 'S', 'C', 'C', 'C', 'C', 'C', 'C', 'C', 'C', 'C', 'C', 'C', 'C', 'C', 'C', 'C', 'C']","[540615, 541034, 541431, 541848, 542262, 542692, 543100, 543497, 543920, 544315, 544720, 545106, 545514, 545934, 546320, 546723, 547107, 547506, 547891, 548282]","[540737, 541137, 541538, 541953, 542350, 542779, 543188, 543591, 544009, 544421, 544820, 545206, 545606, 546021, 546420, 546812, 547210, 547602, 547962, 548322]","[234, 252, 22, 232, 229, 68, 225, 145, 185, 167, 162, 202, 203, 136, 10, 141, 186, 132, 178, 61]","[540623, 541041, 541440, 541855, 542270, 542699, 543107, 543505, 543925, 544324, 544728, 545114, 545521, 545942, 546326, 546731, 547113, 547514, 547896, 548284]","[539138, 539538, 539937, 540338, 540737, 541137, 541538, 541937, 542302, 542732, 543139, 543537, 543960, 544355, 544759, 545145, 545554, 545974, 546360, 546762, 547146, 547546, 547931, 548322]",56,SB,L,R,ITMSR,1.0,
5,600,trial,0,24,24,24,trial,"['S', 'S', 'S', 'S', 'C', 'C', 'C', 'C', 'C', 'C', 'C', 'C', 'C', 'C', 'C', 'C', 'C', 'C', 'C', 'C']","[556348, 556950, 557545, 558133, 558731, 559290, 559837, 560387, 560963, 561528, 562099, 562685, 563257, 563831, 564423, 564994, 565593, 566169, 566742, 567332]","[556463, 557049, 557622, 558212, 558801, 559375, 559949, 560522, 561095, 561685, 562239, 562839, 563420, 564013, 564594, 565153, 565731, 566349, 566920, 567505]","[23, 252, 186, 97, 173, 247, 212, 38, 58, 71, 73, 85, 94, 113, 104, 74, 67, 53, 61, 68]","[556357, 556957, 557553, 558142, 558741, 559299, 559846, 560471, 561044, 561618, 562178, 562768, 563347, 563935, 564511, 565074, 565600, 566254, 566750, 567416]","[554049, 554649, 555249, 555849, 556449, 557049, 557649, 558249, 558772, 559331, 559878, 560428, 561004, 561568, 562140, 562725, 563298, 563871, 564463, 565035, 565634, 566209, 566782, 567372]",56,SB,L,R,ITMSR,1.0,
4,600,trial,0,25,25,25,trial,"['B', 'S', 'S', 'S', 'S', 'S', 'S', 'C', 'C', 'C', 'C', 'C', 'C', 'C', 'C', 'C', 'C', 'C', 'C', 'C', 'C', 'C', 'C']","[572863, 573959, 574566, 575157, 575769, 576376, 576966, 577579, 578182, 578808, 579397, 579989, 580579, 581222, 581786, 582386, 582968, 583579, 584181, 584766, 585375, 586004, 586571]","[572907, 574116, 574725, 575320, 575897, 576508, 577132, 577747, 578338, 578956, 579527, 580146, 580726, 581350, 581932, 582544, 583129, 583716, 584322, 584906, 585499, 586115, 586704]","[56, 121, 123, 97, 71, 33, 79, 75, 85, 40, 13, 31, 45, 4, 27, 27, 38, 246, 229, 6, 248, 173, 216]","[572863, 574039, 574654, 575243, 575839, 576455, 577049, 577679, 578266, 578886, 579473, 580080, 580658, 581293, 581866, 582480, 583059, 583656, 584262, 584842, 585452, 586075, 586645]","[572890, 573489, 574089, 574689, 575289, 575889, 576489, 577088, 577617, 578221, 578846, 579435, 580028, 580618, 581261, 581824, 582424, 583007, 583617, 584219, 584805, 585413, 586043, 586609]",56,SB,L,R,ITMSR,1.0,
2,400,trial,0,26,26,26,trial,"['S', 'S', 'S', 'S', 'C', 'C', 'C', 'C', 'C', 'C', 'C', 'C', 'C', 'C', 'C', 'C', 'C', 'C', 'C', 'C']","[593527, 593930, 594335, 594734, 595173, 595594, 595982, 596362, 596748, 597141, 597527, 597895, 598279, 598707, 599116, 599498, 599885, 600258, 600623, 601038]","[593603, 594002, 594401, 594788, 595227, 595649, 596043, 596431, 596825, 597230, 597627, 598004, 598390, 598790, 599183, 599571, 599975, 600361, 600725, 601135]","[129, 139, 133, 130, 95, 91, 128, 107, 88, 76, 71, 87, 70, 53, 59, 32, 54, 79, 58, 56]","[593530, 593934, 594338, 594737, 595176, 595597, 595984, 596365, 596751, 597145, 597530, 597897, 598282, 598711, 599119, 599502, 599889, 600261, 600626, 601042]","[592036, 592436, 592835, 593235, 593636, 594035, 594436, 594836, 595214, 595635, 596023, 596403, 596789, 597182, 597568, 597936, 598320, 598748, 599156, 599538, 599925, 600299, 600664, 601078]",56,SB,L,R,ITMSR,1.0,
5,600,trial,0,27,27,27,trial,"['S', 'S', 'S', 'S', 'S', 'S', 'C', 'C', 'C', 'C', 'C', 'C', 'C', 'C', 'C', 'C', 'C', 'C', 'C', 'C', 'C', 'C']","[607563, 608185, 608774, 609364, 609951, 610532, 611115, 611686, 612225, 612784, 613351, 613913, 614473, 615058, 615612, 616177, 616773, 617318, 617875, 618436, 618982, 619546]","[607662, 608268, 608876, 609448, 610042, 610611, 611191, 611775, 612341, 612919, 613500, 614076, 614630, 615209, 615787, 616335, 616912, 617470, 618033, 618603, 619146, 619728]","[116, 101, 104, 90, 77, 28, 47, 53, 61, 54, 83, 110, 92, 104, 91, 94, 79, 76, 86, 55, 56, 60]","[607566, 608188, 608777, 609368, 609953, 610536, 611118, 611689, 612228, 612787, 613354, 613916, 614475, 615061, 615615, 616179, 616776, 617321, 617878, 618440, 618985, 619550]","[606512, 607112, 607712, 608312, 608912, 609512, 610112, 610711, 611155, 611727, 612265, 612825, 613392, 613953, 614513, 615099, 615653, 616217, 616813, 617359, 617916, 618476, 619023, 619586]",56,SB,L,R,ITMSR,1.0,
1,600,trial,0,28,28,28,trial,"['S', 'S', 'S', 'S', 'C', 'C', 'C', 'C', 'C', 'C', 'C', 'C', 'C', 'C', 'C', 'C', 'C', 'C', 'C', 'C']","[627339, 627936, 628561, 629159, 629771, 630379, 630951, 631547, 632131, 632718, 633302, 633887, 634481, 635076, 635646, 636219, 636831, 637444, 638051, 638620]","[627449, 628035, 628644, 629261, 629862, 630466, 631043, 631639, 632222, 632825, 633423, 634027, 634609, 635203, 635809, 636381, 636959, 637556, 638164, 638724]","[76, 72, 15, 175, 158, 186, 110, 91, 102, 36, 93, 220, 206, 163, 252, 13, 163, 167, 133, 196]","[627396, 627942, 628568, 629207, 629779, 630423, 630960, 631590, 632141, 632786, 633377, 633962, 634556, 635083, 635737, 636307, 636907, 637508, 638107, 638686]","[625036, 625636, 626236, 626836, 627435, 628035, 628635, 629235, 629811, 630419, 630990, 631586, 632171, 632758, 633341, 633926, 634520, 635115, 635685, 636259, 636870, 637484, 638091, 638659]",56,SB,L,R,ITMSR,1.0,
0,600,trial,0,29,29,29,trial,"['S', 'S', 'S', 'S', 'S', 'S', 'C', 'C', 'C', 'C', 'C', 'C', 'C', 'C', 'C', 'C', 'C', 'C', 'C', 'C', 'C', 'C']","[645389, 645991, 646588, 647192, 647775, 648366, 648955, 649541, 650114, 650712, 651303, 651863, 652421, 652999, 653598, 654185, 654810, 655383, 655976, 656571, 657166, 657744]","[645521, 646123, 646723, 647350, 647922, 648514, 649110, 649708, 650279, 650843, 651389, 651947, 652534, 653087, 653670, 654269, 654875, 655480, 656070, 656680, 657247, 657784]","[71, 51, 9, 61, 51, 4, 212, 9, 25, 249, 146, 181, 229, 114, 227, 223, 118, 116, 152, 125, 29, 25]","[645469, 646065, 646664, 647273, 647852, 648453, 649046, 649625, 650204, 650792, 651309, 651867, 652426, 653003, 653602, 654192, 654815, 655388, 655980, 656576, 657173, 657748]","[644296, 644896, 645496, 646096, 646696, 647297, 647897, 648497, 648995, 649581, 650155, 650753, 651343, 651904, 652462, 653039, 653638, 654226, 654851, 655424, 656017, 656612, 657207, 657784]",56,SB,L,R,ITMSR,1.0,
2,600,trial,0,30,30,30,trial,"['S', 'S', 'S', 'S', 'C', 'C', 'C', 'C', 'C', 'C', 'C', 'C', 'C', 'C', 'C', 'C', 'C', 'C', 'C', 'C']","[669127, 669737, 670369, 670941, 671576, 672180, 672752, 673358, 673942, 674527, 675110, 675680, 676289, 676864, 677443, 678027, 678618, 679236, 679835, 680406]","[669235, 669829, 670460, 671053, 671694, 672284, 672864, 673469, 674059, 674663, 675251, 675826, 676415, 676985, 677562, 678142, 678745, 679355, 679947, 680538]","[87, 71, 71, 63, 19, 21, 65, 24, 80, 69, 100, 60, 89, 88, 50, 0, 55, 25, 35, 77]","[669184, 669785, 670405, 671000, 671642, 672235, 672811, 673415, 673998, 674604, 675187, 675760, 676356, 676940, 677506, 678098, 678696, 679307, 679903, 680478]","[666828, 667428, 668028, 668628, 669229, 669829, 670429, 671029, 671617, 672221, 672792, 673398, 673983, 674568, 675150, 675721, 676330, 676904, 677484, 678068, 678659, 679276, 679875, 680446]",56,SB,L,R,ITMSR,1.0,
0,600,trial,0,31,31,31,trial,"['S', 'S', 'S', 'S', 'S', 'C', 'C', 'C', 'C', 'C', 'C', 'C', 'C', 'C', 'C', 'C', 'C', 'C', 'C', 'C', 'C']","[687594, 688221, 688837, 689447, 690041, 690651, 691261, 691866, 692442, 693057, 693642, 694221, 694809, 695439, 696022, 696586, 697166, 697799, 698405, 699009, 699587]","[687710, 688316, 688911, 689507, 690122, 690734, 691354, 691957, 692532, 693136, 693719, 694306, 694898, 695505, 696111, 696672, 697283, 697899, 698493, 699077, 699673]","[63, 105, 60, 67, 20, 36, 95, 41, 247, 227, 188, 245, 222, 172, 167, 108, 252, 184, 171, 160, 114]","[687659, 688267, 688842, 689455, 690092, 690699, 691311, 691915, 692488, 693099, 693683, 694264, 694857, 695480, 696075, 696637, 697233, 697850, 698456, 699049, 699638]","[685891, 686491, 687091, 687691, 688291, 688891, 689491, 690092, 690692, 691302, 691906, 692483, 693098, 693683, 694261, 694849, 695480, 696062, 696627, 697206, 697839, 698445, 699049, 699628]",56,SB,L,R,ITMSR,1.0,
4,400,trial,0,32,32,32,trial,"['S', 'S', 'S', 'S', 'C', 'C', 'C', 'C', 'C', 'C', 'C', 'C', 'C', 'C', 'C', 'C', 'C', 'C', 'C', 'C']","[706482, 706894, 707294, 707684, 708082, 708484, 708877, 709256, 709663, 710076, 710484, 710843, 711215, 711627, 712019, 712402, 712803, 713219, 713614, 714001]","[706578, 706982, 707371, 707771, 708161, 708562, 708954, 709343, 709741, 710155, 710556, 710920, 711303, 711725, 712114, 712495, 712896, 713297, 713704, 714096]","[145, 104, 91, 9, 227, 172, 195, 146, 124, 120, 27, 105, 13, 22, 31, 209, 146, 141, 160, 216]","[706485, 706899, 707298, 707689, 708085, 708487, 708880, 709262, 709668, 710081, 710489, 710882, 711221, 711632, 712024, 712407, 712808, 713221, 713616, 714003]","[704970, 705370, 705770, 706170, 706571, 706970, 707371, 707771, 708120, 708523, 708916, 709295, 709701, 710115, 710522, 710882, 711254, 711665, 712057, 712440, 712842, 713257, 713653, 714040]",56,SB,L,R,ITMSR,1.0,
1,400,trial,0,33,33,33,trial,"['S', 'S', 'S', 'S', 'C', 'C', 'C', 'C', 'C', 'C', 'C', 'C', 'C', 'C', 'C', 'C', 'C', 'C', 'C', 'C']","[721155, 721575, 721999, 722438, 722818, 723226, 723681, 724078, 724494, 724908, 725278, 725677, 726081, 726482, 726859, 727294, 727736, 728136, 728508, 728886]","[721236, 721670, 722081, 722489, 722888, 723301, 723727, 724137, 724547, 724969, 725341, 725737, 726146, 726557, 726932, 727354, 727777, 728178, 728562, 728939]","[255, 12, 51, 47, 41, 43, 96, 113, 87, 87, 86, 78, 61, 60, 34, 13, 241, 26, 107, 152]","[721159, 721580, 722003, 722442, 722822, 723230, 723684, 724081, 724498, 724912, 725281, 725681, 726085, 726486, 726863, 727299, 727741, 728140, 728514, 728892]","[719670, 720069, 720470, 720870, 721269, 721670, 722069, 722469, 722857, 723265, 723721, 724117, 724534, 724947, 725317, 725716, 726121, 726521, 726898, 727333, 727776, 728175, 728548, 728926]",56,SB,L,R,ITMSR,1.0,
4,600,trial,0,34,34,34,trial,"['S', 'S', 'S', 'S', 'S', 'S', 'C', 'C', 'C', 'C', 'C', 'C', 'C', 'C', 'C', 'C', 'C', 'C', 'C', 'C', 'C', 'C']","[735565, 736164, 736778, 737392, 737979, 738593, 739198, 739823, 740414, 741027, 741608, 742195, 742782, 743340, 743958, 744561, 745161, 745737, 746280, 746895, 747541, 748143]","[735702, 736288, 736897, 737488, 738067, 738657, 739279, 739890, 740483, 741091, 741686, 742290, 742909, 743477, 744037, 744647, 745248, 745850, 746408, 747004, 747632, 748236]","[109, 87, 62, 15, 245, 217, 187, 203, 186, 192, 219, 201, 159, 140, 91, 126, 98, 79, 222, 23, 60, 57]","[735569, 736225, 736780, 737395, 737982, 738596, 739202, 739827, 740417, 741030, 741611, 742198, 742786, 743343, 743962, 744566, 745165, 745742, 746284, 746900, 747544, 748148]","[734448, 735047, 735647, 736247, 736847, 737447, 738048, 738648, 739236, 739861, 740453, 741065, 741647, 742234, 742820, 743378, 743997, 744599, 745199, 745776, 746318, 746934, 747580, 748181]",56,SB,L,R,ITMSR,1.0,
2,400,trial,0,35,35,35,trial,"['S', 'S', 'S', 'S', 'C', 'C', 'C', 'C', 'C', 'C', 'C', 'C', 'C', 'C', 'C', 'C', 'C', 'C', 'C', 'C']","[755323, 755743, 756163, 756559, 756974, 757396, 757837, 758238, 758654, 759084, 759492, 759921, 760351, 760745, 761160, 761566, 761945, 762372, 762809, 763223]","[755400, 755829, 756237, 756633, 757036, 757462, 757892, 758303, 758715, 759142, 759557, 759983, 760406, 760813, 761220, 761672, 762065, 762480, 762902, 763323]","[50, 133, 129, 147, 112, 92, 64, 18, 16, 238, 34, 254, 16, 14, 4, 28, 183, 225, 250, 254]","[755329, 755747, 756167, 756563, 756977, 757401, 757842, 758242, 758658, 759088, 759496, 759926, 760355, 760750, 761165, 761570, 761951, 762377, 762813, 763227]","[753830, 754230, 754629, 755030, 755430, 755829, 756230, 756630, 757014, 757437, 757877, 758279, 758694, 759124, 759532, 759961, 760391, 760785, 761200, 761607, 761986, 762413, 762850, 763264]",56,SB,L,R,ITMSR,1.0,
0,400,trial,0,36,36,36,trial,"['S', 'S', 'S', 'S', 'C', 'C', 'C', 'C', 'C', 'C', 'C', 'C', 'C', 'C', 'C', 'C', 'C', 'C', 'C', 'C']","[770253, 770704, 771080, 771475, 771891, 772283, 772687, 773067, 773464, 773875, 774274, 774677, 775143, 775521, 775950, 776323, 776710, 777091, 777465, 777892]","[770334, 770763, 771150, 771551, 771964, 772354, 772747, 773144, 773548, 773947, 774339, 774754, 775184, 775562, 775991, 776364, 776766, 777164, 777542, 777955]","[39, 97, 140, 23, 23, 212, 207, 187, 160, 125, 18, 12, 166, 102, 139, 41, 124, 32, 102, 242]","[770258, 770729, 771119, 771478, 771895, 772287, 772691, 773070, 773468, 773880, 774278, 774682, 775147, 775526, 775953, 776329, 776715, 777096, 777470, 777899]","[768704, 769103, 769504, 769903, 770304, 770704, 771103, 771504, 771932, 772324, 772727, 773107, 773505, 773915, 774315, 774718, 775184, 775562, 775991, 776364, 776751, 777132, 777505, 777932]",56,SB,L,R,ITMSR,1.0,
4,400,trial,0,37,37,37,trial,"['S', 'S', 'S', 'S', 'C', 'C', 'C', 'C', 'C', 'C', 'C', 'C', 'C', 'C', 'C', 'C', 'C', 'C', 'C', 'C']","[785097, 785495, 785888, 786319, 786733, 787108, 787494, 787906, 788276, 788675, 789066, 789450, 789871, 790297, 790671, 791054, 791418, 791778, 792159, 792544]","[785215, 785629, 786009, 786423, 786833, 787219, 787627, 788016, 788390, 788786, 789167, 789560, 789968, 790396, 790778, 791160, 791516, 791885, 792258, 792628]","[76, 93, 75, 36, 232, 217, 243, 184, 145, 140, 113, 141, 43, 103, 84, 76, 82, 24, 227, 196]","[785159, 785560, 785948, 786360, 786785, 787172, 787573, 787972, 788339, 788747, 789124, 789517, 789911, 790343, 790729, 791113, 791460, 791841, 792168, 792552]","[783583, 783981, 784381, 784782, 785181, 785582, 785982, 786381, 786771, 787146, 787532, 787945, 788315, 788714, 789104, 789488, 789909, 790335, 790710, 791093, 791456, 791817, 792198, 792583]",56,SB,L,R,ITMSR,1.0,
3,400,trial,0,38,38,38,trial,"['S', 'S', 'S', 'S', 'C', 'C', 'C', 'C', 'C', 'C', 'C', 'C', 'C', 'C', 'C', 'C', 'C', 'C', 'C', 'C']","[799436, 799849, 800252, 800644, 801027, 801440, 801842, 802239, 802631, 803047, 803445, 803831, 804218, 804622, 805022, 805429, 805838, 806270, 806644, 807040]","[799558, 799959, 800359, 800711, 801103, 801521, 801941, 802329, 802733, 803154, 803559, 803944, 804343, 804751, 805134, 805528, 805919, 806331, 806725, 807145]","[25, 167, 109, 235, 104, 239, 72, 174, 57, 110, 54, 91, 98, 123, 90, 25, 241, 179, 162, 241]","[799504, 799855, 800289, 800654, 801035, 801481, 801885, 802284, 802680, 803109, 803504, 803890, 804282, 804692, 805081, 805488, 805878, 806276, 806650, 807096]","[797959, 798358, 798758, 799159, 799558, 799959, 800359, 800758, 801068, 801480, 801883, 802280, 802671, 803088, 803485, 803871, 804258, 804663, 805062, 805470, 805878, 806310, 806684, 807080]",56,SB,L,R,ITMSR,1.0,
3,400,trial,0,39,39,39,trial,"['S', 'S', 'S', 'S', 'C', 'C', 'C', 'C', 'C', 'C', 'C', 'C', 'C', 'C', 'C', 'C', 'C', 'C', 'C', 'C']","[813947, 814343, 814728, 815170, 815541, 815933, 816336, 816711, 817081, 817510, 817861, 818240, 818632, 819046, 819398, 819773, 820144, 820545, 820942, 821348]","[814065, 814472, 814857, 815253, 815655, 816068, 816444, 816833, 817221, 817611, 817983, 818350, 818720, 819132, 819506, 819892, 820263, 820664, 821058, 821448]","[218, 247, 240, 83, 149, 230, 200, 159, 238, 204, 230, 253, 14, 15, 0, 37, 245, 217, 247, 223]","[814013, 814420, 814801, 815205, 815597, 816017, 816392, 816771, 817159, 817561, 817921, 818293, 818679, 819087, 819460, 819834, 820201, 820612, 821007, 821397]","[812452, 812853, 813252, 813652, 814053, 814452, 814853, 815253, 815582, 815974, 816376, 816751, 817122, 817551, 817901, 818281, 818672, 819087, 819438, 819814, 820185, 820586, 820982, 821389]",56,SB,L,R,ITMSR,1.0,
5,600,trial,0,40,40,40,trial,"['S', 'S', 'S', 'S', 'S', 'S', 'C', 'C', 'C', 'C', 'C', 'C', 'C', 'C', 'C', 'C', 'C', 'C', 'C', 'C', 'C', 'C']","[828033, 828618, 829272, 829895, 830530, 831116, 831694, 832256, 832818, 833367, 833940, 834501, 835080, 835658, 836243, 836795, 837348, 837915, 838504, 839068, 839648, 840236]","[828121, 828700, 829353, 829989, 830581, 831176, 831749, 832335, 832914, 833474, 834064, 834630, 835214, 835780, 836359, 836929, 837509, 838077, 838686, 839243, 839818, 840396]","[158, 230, 59, 137, 51, 153, 100, 22, 142, 135, 189, 195, 98, 42, 248, 119, 215, 125, 65, 99, 11, 58]","[828069, 828658, 829276, 829935, 830536, 831122, 831703, 832263, 832825, 833428, 834010, 834577, 835156, 835721, 836248, 836872, 837445, 838000, 838611, 839181, 839750, 840331]","[827018, 827617, 828217, 828817, 829417, 830017, 830617, 831217, 831734, 832296, 832859, 833408, 833981, 834541, 835121, 835698, 836284, 836836, 837389, 837955, 838545, 839108, 839689, 840276]",56,SB,L,R,ITMSR,1.0,
4,600,trial,0,41,41,41,trial,"['S', 'S', 'S', 'S', 'C', 'C', 'C', 'C', 'C', 'C', 'C', 'C', 'C', 'C', 'C', 'C', 'C', 'C', 'C', 'C']","[847998, 848592, 849223, 849864, 850458, 851018, 851627, 852198, 852783, 853367, 853915, 854467, 855014, 855616, 856187, 856738, 857340, 857937, 858521, 859072]","[848130, 848688, 849315, 849933, 850537, 851140, 851708, 852345, 852948, 853558, 854098, 854664, 855243, 855802, 856413, 856968, 857547, 858125, 858725, 859273]","[76, 40, 62, 224, 66, 74, 57, 12, 88, 95, 87, 63, 56, 51, 67, 46, 219, 217, 209, 220]","[848001, 848600, 849276, 849872, 850465, 851087, 851665, 852285, 852873, 853472, 854026, 854568, 855163, 855724, 856298, 856870, 857438, 858035, 858616, 859166]","[845759, 846357, 846957, 847557, 848157, 848757, 849357, 849957, 850496, 851056, 851665, 852237, 852822, 853405, 853953, 854506, 855053, 855655, 856225, 856776, 857378, 857975, 858559, 859111]",56,SB,L,R,ITMSR,1.0,
5,400,trial,0,42,42,42,trial,"['S', 'S', 'S', 'S', 'C', 'C', 'C', 'C', 'C', 'C', 'C', 'C', 'C', 'C', 'C', 'C', 'C', 'C', 'C', 'C']","[866432, 866853, 867247, 867646, 868052, 868461, 868873, 869257, 869673, 870069, 870459, 870861, 871270, 871683, 872098, 872489, 872918, 873325, 873734, 874131]","[866531, 866930, 867331, 867731, 868115, 868532, 868928, 869338, 869763, 870170, 870571, 870975, 871382, 871797, 872218, 872606, 873030, 873440, 873840, 874261]","[154, 113, 78, 45, 52, 45, 227, 3, 0, 226, 240, 246, 230, 224, 220, 230, 198, 202, 185, 211]","[866435, 866857, 867251, 867650, 868057, 868465, 868879, 869262, 869679, 870074, 870463, 870866, 871275, 871689, 872103, 872496, 872922, 873329, 873739, 874135]","[864930, 865331, 865730, 866130, 866531, 866930, 867331, 867731, 868092, 868502, 868914, 869298, 869713, 870110, 870500, 870901, 871311, 871724, 872138, 872529, 872958, 873366, 873775, 874172]",56,SB,L,R,ITMSR,1.0,
1,600,trial,0,43,43,43,trial,"['S', 'S', 'S', 'S', 'C', 'C', 'C', 'C', 'C', 'C', 'C', 'C', 'C', 'C', 'C', 'C', 'C', 'C', 'C', 'C']","[882085, 882678, 883305, 883902, 884515, 885123, 885709, 886262, 886836, 887438, 888012, 888567, 889101, 889682, 890296, 890864, 891450, 892037, 892614, 893174]","[882217, 882813, 883414, 884067, 884666, 885253, 885854, 886454, 887034, 887629, 888165, 888738, 889311, 889860, 890462, 891040, 891619, 892184, 892778, 893344]","[160, 156, 130, 145, 152, 139, 147, 143, 135, 125, 125, 109, 108, 99, 97, 105, 83, 85, 78, 66]","[882151, 882751, 883352, 884014, 884598, 885193, 885788, 886377, 886950, 887544, 888101, 888660, 889247, 889780, 890395, 890971, 891550, 892121, 892709, 893264]","[879813, 880413, 881013, 881613, 882213, 882813, 883414, 884014, 884554, 885163, 885748, 886301, 886876, 887478, 888051, 888606, 889141, 889721, 890336, 890903, 891490, 892077, 892653, 893213]",56,SB,L,R,ITMSR,1.0,
5,600,trial,0,44,44,44,trial,"['S', 'S', 'S', 'S', 'C', 'C', 'C', 'C', 'C', 'C', 'C', 'C', 'C', 'C', 'C', 'C', 'C', 'C', 'C', 'C']","[901292, 901877, 902487, 903100, 903710, 904314, 904914, 905540, 906145, 906746, 907355, 907953, 908566, 909153, 909771, 910368, 910988, 911579, 912176, 912773]","[901457, 902057, 902675, 903242, 903882, 904477, 905086, 905714, 906297, 906903, 907529, 908143, 908762, 909377, 909991, 910579, 911193, 911806, 912368, 912924]","[126, 100, 114, 49, 151, 112, 90, 91, 86, 77, 99, 84, 49, 38, 12, 33, 20, 51, 37, 215]","[901392, 901981, 902600, 903178, 903813, 904415, 905026, 905639, 906234, 906846, 907455, 908067, 908691, 909293, 909913, 910520, 911111, 911722, 912276, 912867]","[898976, 899575, 900175, 900775, 901376, 901976, 902576, 903176, 903750, 904354, 904954, 905580, 906185, 906786, 907396, 907994, 908607, 909194, 909811, 910408, 911029, 911620, 912217, 912814]",56,SB,L,R,ITMSR,1.0,
3,600,trial,0,45,45,45,trial,"['S', 'S', 'S', 'S', 'C', 'C', 'C', 'C', 'C', 'C', 'C', 'C', 'C', 'C', 'C', 'C', 'C', 'C', 'C', 'C']","[920558, 921181, 921834, 922433, 923031, 923627, 924258, 924879, 925490, 926048, 926611, 927260, 927820, 928442, 929018, 929639, 930287, 930883, 931500, 932140]","[920753, 921335, 921979, 922570, 923180, 923788, 924400, 925032, 925636, 926243, 926814, 927408, 928005, 928637, 929284, 929895, 930459, 931110, 931701, 932318]","[139, 101, 85, 113, 115, 77, 14, 49, 166, 249, 66, 216, 24, 239, 44, 43, 12, 10, 245, 247]","[920653, 921270, 921909, 922506, 923114, 923724, 924340, 924967, 925589, 926162, 926742, 927354, 927928, 928563, 929176, 929800, 930381, 931025, 931609, 932239]","[918234, 918834, 919434, 920034, 920634, 921234, 921834, 922433, 923072, 923668, 924299, 924919, 925531, 926089, 926652, 927300, 927860, 928483, 929058, 929680, 930327, 930924, 931540, 932180]",56,SB,L,R,ITMSR,1.0,
1,400,trial,0,46,46,46,trial,"['S', 'S', 'S', 'S', 'C', 'C', 'C', 'C', 'C', 'C', 'C', 'C', 'C', 'C', 'C', 'C', 'C', 'C', 'C', 'C']","[939084, 939505, 939935, 940362, 940756, 941180, 941599, 942028, 942406, 942829, 943260, 943653, 944022, 944439, 944859, 945275, 945690, 946098, 946496, 946912]","[939233, 939651, 940063, 940491, 940902, 941325, 941724, 942163, 942554, 942970, 943399, 943785, 944146, 944572, 944972, 945385, 945829, 946228, 946627, 947034]","[108, 75, 50, 68, 121, 103, 93, 91, 85, 66, 54, 47, 6, 59, 12, 44, 64, 40, 31, 27]","[939089, 939581, 940012, 940433, 940836, 941260, 941663, 942104, 942488, 942909, 943341, 943728, 944081, 944510, 944909, 945323, 945766, 946151, 946567, 946964]","[937604, 938004, 938403, 938804, 939203, 939603, 940004, 940403, 940795, 941219, 941638, 942067, 942445, 942869, 943299, 943692, 944062, 944479, 944899, 945314, 945729, 946138, 946536, 946952]",56,SB,L,R,ITMSR,1.0,
0,400,trial,0,47,47,47,trial,"['S', 'S', 'S', 'S', 'C', 'C', 'C', 'C', 'C', 'C', 'C', 'C', 'C', 'C', 'C', 'C', 'C', 'C', 'C', 'C']","[954255, 954665, 955063, 955459, 955864, 956250, 956639, 957033, 957452, 957845, 958223, 958613, 959003, 959419, 959813, 960192, 960571, 960984, 961394, 961789]","[954385, 954798, 955196, 955594, 955988, 956391, 956768, 957169, 957588, 957973, 958351, 958754, 959140, 959544, 959930, 960320, 960671, 961110, 961507, 961909]","[120, 85, 102, 91, 21, 33, 31, 31, 35, 3, 3, 14, 252, 221, 195, 192, 169, 230, 156, 179]","[954327, 954738, 955138, 955530, 955933, 956335, 956707, 957110, 957527, 957916, 958289, 958692, 959081, 959485, 959870, 960259, 960621, 961057, 961441, 961855]","[952764, 953163, 953564, 953964, 954364, 954765, 955164, 955565, 955905, 956291, 956680, 957074, 957493, 957886, 958264, 958654, 959043, 959460, 959853, 960233, 960612, 961025, 961434, 961829]",56,SB,L,R,ITMSR,1.0,
1,600,trial,0,48,48,48,trial,"['S', 'S', 'S', 'S', 'C', 'C', 'C', 'C', 'C', 'C', 'C', 'C', 'C', 'C', 'C', 'C', 'C', 'C', 'C', 'C']","[969566, 970184, 970806, 971439, 972009, 972587, 973178, 973764, 974353, 974941, 975574, 976185, 976756, 977338, 977889, 978509, 979107, 979707, 980287, 980902]","[969694, 970271, 970897, 971517, 972142, 972724, 973315, 973894, 974479, 975078, 975719, 976311, 976919, 977529, 978099, 978689, 979271, 979866, 980449, 981047]","[94, 18, 241, 54, 151, 10, 28, 18, 228, 185, 38, 24, 6, 59, 74, 19, 28, 246, 202, 175]","[969635, 970234, 970865, 971471, 972100, 972679, 973268, 973854, 974440, 975030, 975672, 976267, 976863, 977458, 978024, 978620, 979213, 979802, 980380, 980998]","[967293, 967894, 968494, 969094, 969694, 970294, 970894, 971494, 972049, 972626, 973217, 973803, 974393, 974981, 975613, 976225, 976795, 977378, 977929, 978548, 979146, 979746, 980327, 980941]",56,SB,L,R,ITMSR,1.0,
3,600,trial,0,49,49,49,trial,"['S', 'S', 'S', 'S', 'C', 'C', 'C', 'C', 'C', 'C', 'C', 'C', 'C', 'C', 'C', 'C', 'C', 'C', 'C', 'C']","[988548, 989155, 989797, 990388, 990986, 991585, 992171, 992765, 993408, 993980, 994587, 995167, 995773, 996377, 996981, 997580, 998205, 998780, 999372, 999998]","[988643, 989244, 989887, 990490, 991081, 991667, 992264, 992878, 993514, 994092, 994689, 995297, 995900, 996499, 997080, 997675, 998308, 998885, 999496, 1000079]","[70, 244, 165, 179, 144, 206, 186, 242, 227, 179, 81, 250, 220, 214, 90, 121, 238, 98, 171, 127]","[988595, 989211, 989845, 990438, 991044, 991628, 992218, 992845, 993470, 994051, 994658, 995251, 995851, 996458, 997042, 997636, 998265, 998839, 999453, 1000004]","[986288, 986887, 987487, 988087, 988687, 989287, 989887, 990486, 991027, 991626, 992211, 992805, 993448, 994021, 994627, 995208, 995814, 996417, 997021, 997620, 998246, 998820, 999412, 1000039]",56,SB,L,R,ITMSR,1.0,
0,600,trial,0,50,50,50,trial,"['S', 'S', 'S', 'S', 'C', 'C', 'C', 'C', 'C', 'C', 'C', 'C', 'C', 'C', 'C', 'C', 'C', 'C', 'C', 'C']","[1007824, 1008455, 1009030, 1009626, 1010277, 1010836, 1011417, 1012012, 1012601, 1013191, 1013786, 1014386, 1014976, 1015563, 1016563, 1017119, 1017706, 1018277, 1018873, 1019451]","[1007913, 1008504, 1009057, 1009646, 1010318, 1010877, 1011470, 1012052, 1012651, 1013231, 1013852, 1014463, 1015050, 1015631, 1016630, 1017195, 1017769, 1018317, 1018938, 1019492]","[71, 63, 16, 77, 202, 192, 153, 91, 146, 30, 16, 138, 227, 81, 243, 159, 79, 234, 253, 6]","[1007826, 1008457, 1009032, 1009630, 1010280, 1010839, 1011419, 1012014, 1012604, 1013195, 1013790, 1014435, 1014981, 1015574, 1016566, 1017123, 1017710, 1018284, 1018876, 1019459]","[1005505, 1006103, 1006703, 1007303, 1007903, 1008503, 1009103, 1009703, 1010318, 1010877, 1011458, 1012052, 1012641, 1013231, 1013826, 1014426, 1015017, 1015604, 1016603, 1017159, 1017747, 1018317, 1018913, 1019492]",56,SB,L,R,ITMSR,1.0,
2,600,trial,0,51,51,51,trial,"['S', 'S', 'S', 'S', 'C', 'C', 'C', 'C', 'C', 'C', 'C', 'C', 'C', 'C', 'C', 'C', 'C', 'C', 'C', 'C']","[1027247, 1027848, 1028440, 1029071, 1029642, 1030252, 1030828, 1031410, 1032041, 1032591, 1033203, 1033747, 1034343, 1034956, 1035517, 1036055, 1036695, 1037285, 1037858, 1038456]","[1027353, 1027928, 1028531, 1029160, 1029745, 1030355, 1030942, 1031507, 1032119, 1032676, 1033253, 1033841, 1034420, 1035044, 1035619, 1036153, 1036789, 1037356, 1037929, 1038496]","[100, 41, 13, 50, 216, 201, 153, 98, 51, 56, 199, 172, 138, 141, 182, 227, 124, 96, 172, 12]","[1027310, 1027887, 1028486, 1029124, 1029712, 1030309, 1030905, 1031476, 1032089, 1032645, 1033220, 1033815, 1034346, 1035006, 1035522, 1036057, 1036743, 1037330, 1037898, 1038458]","[1024911, 1025511, 1026111, 1026710, 1027310, 1027910, 1028510, 1029110, 1029683, 1030293, 1030868, 1031450, 1032082, 1032632, 1033243, 1033788, 1034384, 1034996, 1035557, 1036096, 1036736, 1037326, 1037898, 1038496]",56,SB,L,R,ITMSR,1.0,
2,400,trial,0,52,52,52,trial,"['S', 'S', 'S', 'S', 'C', 'C', 'C', 'C', 'C', 'C', 'C', 'C', 'C', 'C', 'C', 'C', 'C', 'C', 'C', 'C']","[1045321, 1045726, 1046150, 1046574, 1046972, 1047387, 1047814, 1048218, 1048624, 1049063, 1049486, 1049890, 1050295, 1050691, 1051100, 1051489, 1051922, 1052326, 1052748, 1053137]","[1045415, 1045839, 1046240, 1046644, 1047045, 1047447, 1047871, 1048306, 1048715, 1049141, 1049551, 1049973, 1050388, 1050773, 1051181, 1051578, 1051997, 1052407, 1052827, 1053216]","[109, 88, 0, 137, 138, 3, 233, 190, 186, 135, 92, 181, 3, 205, 134, 161, 117, 117, 99, 231]","[1045377, 1045781, 1046200, 1046614, 1047013, 1047428, 1047822, 1048261, 1048665, 1049105, 1049495, 1049899, 1050351, 1050732, 1051143, 1051535, 1051963, 1052367, 1052756, 1053146]","[1043841, 1044240, 1044639, 1045040, 1045440, 1045839, 1046240, 1046639, 1047013, 1047428, 1047855, 1048258, 1048665, 1049104, 1049527, 1049930, 1050336, 1050732, 1051141, 1051530, 1051963, 1052366, 1052788, 1053177]",56,SB,L,R,ITMSR,1.0,
5,400,trial,0,53,53,53,trial,"['S', 'S', 'S', 'S', 'C', 'C', 'C', 'C', 'C', 'C', 'C', 'C', 'C', 'C', 'C', 'C', 'C', 'C', 'C', 'C']","[1060159, 1060572, 1060968, 1061369, 1061790, 1062197, 1062605, 1063001, 1063403, 1063782, 1064199, 1064588, 1064981, 1065362, 1065779, 1066160, 1066532, 1066942, 1067347, 1067755]","[1060254, 1060679, 1061080, 1061480, 1061863, 1062274, 1062671, 1063061, 1063458, 1063843, 1064256, 1064650, 1065042, 1065419, 1065820, 1066214, 1066579, 1066986, 1067387, 1067805]","[39, 46, 53, 83, 60, 223, 180, 105, 92, 41, 77, 97, 148, 112, 7, 132, 143, 77, 67, 196]","[1060214, 1060577, 1060973, 1061373, 1061794, 1062203, 1062611, 1063008, 1063409, 1063788, 1064206, 1064595, 1064987, 1065369, 1065785, 1066165, 1066539, 1066949, 1067355, 1067764]","[1058679, 1059080, 1059479, 1059879, 1060280, 1060679, 1061080, 1061480, 1061830, 1062238, 1062645, 1063042, 1063444, 1063823, 1064240, 1064629, 1065022, 1065403, 1065820, 1066201, 1066572, 1066983, 1067387, 1067796]",56,SB,L,R,ITMSR,1.0,
4,600,trial,0,54,54,54,trial,"['S', 'S', 'S', 'S', 'C', 'C', 'C', 'C', 'C', 'C', 'C', 'C', 'C', 'C', 'C', 'C', 'C', 'C', 'C', 'C']","[1117803, 1118440, 1119023, 1119648, 1120232, 1120815, 1121403, 1121999, 1122593, 1123166, 1123745, 1124288, 1124886, 1125476, 1126056, 1126625, 1127184, 1127773, 1128392, 1128964]","[1117947, 1118540, 1119157, 1119732, 1120377, 1120957, 1121560, 1122150, 1122740, 1123308, 1123928, 1124477, 1125042, 1125650, 1126212, 1126820, 1127353, 1127992, 1128585, 1129136]","[95, 98, 101, 68, 93, 109, 93, 103, 33, 247, 38, 134, 99, 71, 97, 75, 19, 61, 255, 38]","[1117881, 1118444, 1119096, 1119653, 1120320, 1120906, 1121503, 1122086, 1122598, 1123171, 1123868, 1124392, 1124978, 1125580, 1126157, 1126750, 1127297, 1127918, 1128397, 1128968]","[1115518, 1116118, 1116718, 1117318, 1117918, 1118518, 1119118, 1119718, 1120271, 1120854, 1121441, 1122037, 1122631, 1123205, 1123783, 1124327, 1124925, 1125515, 1126094, 1126664, 1127223, 1127812, 1128430, 1129003]",56,SB,L,R,ITMSR,1.0,
1,400,trial,0,55,55,55,trial,"['S', 'S', 'S', 'S', 'C', 'C', 'C', 'C', 'C', 'C', 'C', 'C', 'C', 'C', 'C', 'C', 'C', 'C', 'C', 'C']","[1136069, 1136521, 1136962, 1137363, 1137750, 1138189, 1138593, 1138983, 1139372, 1139772, 1140190, 1140572, 1140959, 1141379, 1141766, 1142160, 1142562, 1142977, 1143356, 1143742]","[1136178, 1136624, 1137039, 1137461, 1137850, 1138271, 1138683, 1139065, 1139460, 1139879, 1140295, 1140673, 1141078, 1141477, 1141885, 1142290, 1142673, 1143077, 1143476, 1143844]","[116, 92, 49, 28, 54, 30, 244, 20, 237, 240, 244, 205, 180, 197, 227, 230, 179, 149, 167, 107]","[1136122, 1136579, 1136962, 1137366, 1137792, 1138198, 1138598, 1138990, 1139377, 1139778, 1140193, 1140574, 1140961, 1141383, 1141769, 1142244, 1142633, 1143041, 1143428, 1143808]","[1134563, 1134962, 1135363, 1135763, 1136162, 1136563, 1136962, 1137362, 1137789, 1138229, 1138632, 1139022, 1139411, 1139812, 1140230, 1140612, 1140999, 1141419, 1141806, 1142200, 1142601, 1143017, 1143396, 1143782]",56,SB,L,R,ITMSR,1.0,
0,600,trial,0,56,56,56,trial,"['S', 'S', 'S', 'S', 'C', 'C', 'C', 'C', 'C', 'C', 'C', 'C', 'C', 'C', 'C', 'C', 'C', 'C', 'C', 'C']","[1151536, 1152141, 1152757, 1153344, 1153922, 1154513, 1155143, 1155746, 1156317, 1156876, 1157457, 1158057, 1158638, 1159240, 1159825, 1160380, 1160940, 1161535, 1162158, 1162710]","[1151650, 1152259, 1152869, 1153442, 1154026, 1154626, 1155231, 1155833, 1156417, 1157000, 1157603, 1158188, 1158775, 1159375, 1159947, 1160536, 1161111, 1161659, 1162258, 1162828]","[123, 79, 75, 0, 84, 29, 128, 155, 130, 211, 40, 48, 68, 35, 8, 251, 254, 220, 120, 230]","[1151609, 1152215, 1152820, 1153386, 1153984, 1154578, 1155183, 1155787, 1156375, 1156951, 1157551, 1158137, 1158718, 1159324, 1159897, 1160466, 1161041, 1161605, 1162166, 1162771]","[1149210, 1149809, 1150409, 1151009, 1151609, 1152209, 1152809, 1153410, 1153963, 1154553, 1155183, 1155786, 1156358, 1156917, 1157497, 1158097, 1158678, 1159280, 1159866, 1160421, 1160981, 1161576, 1162199, 1162750]",56,SB,L,R,ITMSR,1.0,
4,400,trial,0,57,57,57,trial,"['S', 'S', 'S', 'S', 'C', 'C', 'C', 'C', 'C', 'C', 'C', 'C', 'C', 'C', 'C', 'C', 'C', 'C', 'C', 'C']","[1169736, 1170141, 1170565, 1170967, 1171380, 1171781, 1172180, 1172579, 1172989, 1173394, 1173791, 1174187, 1174587, 1174979, 1175383, 1175780, 1176186, 1176603, 1176991, 1177413]","[1169848, 1170247, 1170662, 1171084, 1171491, 1171891, 1172314, 1172688, 1173095, 1173501, 1173902, 1174309, 1174711, 1175108, 1175528, 1175904, 1176306, 1176719, 1177115, 1177512]","[92, 63, 65, 123, 133, 112, 121, 72, 85, 99, 91, 89, 85, 65, 87, 64, 74, 86, 70, 31]","[1169786, 1170199, 1170608, 1171026, 1171443, 1171846, 1172250, 1172638, 1173046, 1173441, 1173851, 1174254, 1174652, 1175046, 1175463, 1175851, 1176257, 1176667, 1177060, 1177463]","[1168247, 1168648, 1169047, 1169447, 1169848, 1170247, 1170648, 1171048, 1171419, 1171819, 1172218, 1172618, 1173027, 1173433, 1173829, 1174225, 1174626, 1175018, 1175421, 1175819, 1176224, 1176641, 1177029, 1177451]",56,SB,L,R,ITMSR,1.0,
5,400,trial,0,58,58,58,trial,"['S', 'S', 'S', 'S', 'C', 'C', 'C', 'C', 'C', 'C', 'C', 'C', 'C', 'C', 'C', 'C', 'C', 'C', 'C', 'C']","[1184230, 1184641, 1185062, 1185453, 1185853, 1186253, 1186650, 1187049, 1187427, 1187812, 1188244, 1188633, 1189037, 1189419, 1189790, 1190181, 1190608, 1190956, 1191347, 1191740]","[1184366, 1184766, 1185172, 1185566, 1185965, 1186365, 1186748, 1187162, 1187562, 1187940, 1188354, 1188762, 1189143, 1189535, 1189921, 1190315, 1190702, 1191069, 1191474, 1191860]","[15, 248, 154, 146, 152, 191, 177, 175, 225, 232, 189, 242, 192, 185, 224, 223, 149, 160, 237, 202]","[1184308, 1184707, 1185125, 1185507, 1185914, 1186315, 1186700, 1187109, 1187500, 1187875, 1188300, 1188709, 1189087, 1189477, 1189862, 1190251, 1190650, 1191011, 1191403, 1191802]","[1182768, 1183167, 1183566, 1183967, 1184366, 1184766, 1185167, 1185566, 1185894, 1186293, 1186691, 1187090, 1187468, 1187853, 1188285, 1188673, 1189078, 1189459, 1189830, 1190221, 1190648, 1190996, 1191388, 1191781]",56,SB,L,R,ITMSR,1.0,
5,600,trial,0,59,59,59,trial,"['S', 'S', 'S', 'S', 'C', 'C', 'C', 'C', 'C', 'C', 'C', 'C', 'C', 'C', 'C', 'C', 'C', 'C', 'C', 'C']","[1199401, 1200007, 1200610, 1201219, 1201844, 1202441, 1203030, 1203604, 1204190, 1204767, 1205342, 1205907, 1206463, 1207054, 1207613, 1208163, 1208751, 1209347, 1209921, 1210451]","[1199564, 1200154, 1200754, 1201354, 1201972, 1202606, 1203176, 1203742, 1204311, 1204880, 1205463, 1206028, 1206617, 1207218, 1207791, 1208356, 1208934, 1209518, 1210091, 1210628]","[112, 89, 77, 67, 64, 87, 60, 36, 44, 31, 20, 32, 73, 78, 113, 76, 94, 36, 43, 67]","[1199485, 1200091, 1200680, 1201284, 1201925, 1202529, 1203118, 1203687, 1204261, 1204826, 1205409, 1205972, 1206542, 1207137, 1207710, 1208246, 1208841, 1209442, 1210009, 1210544]","[1197155, 1197755, 1198355, 1198955, 1199554, 1200154, 1200754, 1201354, 1201885, 1202482, 1203070, 1203645, 1204231, 1204807, 1205383, 1205948, 1206504, 1207095, 1207654, 1208204, 1208792, 1209388, 1209962, 1210491]",56,SB,L,R,ITMSR,1.0,
3,400,trial,0,60,60,60,trial,"['S', 'S', 'S', 'S', 'C', 'C', 'C', 'C', 'C', 'C', 'C', 'C', 'C', 'C', 'C', 'C', 'C', 'C', 'C', 'C']","[1217692, 1218157, 1218588, 1218919, 1219308, 1219708, 1220124, 1220516, 1220927, 1221349, 1221740, 1222152, 1222558, 1222951, 1223339, 1223743, 1224144, 1224560, 1224923, 1225294]","[1217836, 1218222, 1218671, 1219048, 1219444, 1219826, 1220231, 1220624, 1221030, 1221449, 1221849, 1222253, 1222657, 1223045, 1223441, 1223845, 1224244, 1224647, 1225018, 1225398]","[100, 142, 247, 33, 36, 117, 89, 12, 35, 54, 169, 49, 189, 215, 245, 25, 207, 221, 147, 192]","[1217765, 1218199, 1218635, 1218989, 1219379, 1219768, 1220185, 1220572, 1220985, 1221407, 1221795, 1222208, 1222603, 1222994, 1223404, 1223809, 1224205, 1224617, 1224976, 1225348]","[1216189, 1216588, 1216989, 1217388, 1217788, 1218189, 1218588, 1218989, 1219349, 1219748, 1220164, 1220556, 1220968, 1221390, 1221781, 1222193, 1222598, 1222991, 1223379, 1223784, 1224184, 1224600, 1224964, 1225334]",56,SB,L,R,ITMSR,1.0,
1,600,trial,0,61,61,61,trial,"['S', 'S', 'S', 'S', 'C', 'C', 'C', 'C', 'C', 'C', 'C', 'C', 'C', 'C', 'C', 'C', 'C', 'C', 'C', 'C']","[1233057, 1233674, 1234270, 1234887, 1235478, 1236063, 1236631, 1237200, 1237825, 1238393, 1238946, 1239539, 1240120, 1240693, 1241297, 1241874, 1242415, 1242987, 1243581, 1244150]","[1233209, 1233804, 1234425, 1235007, 1235598, 1236197, 1236780, 1237356, 1237956, 1238532, 1239099, 1239685, 1240257, 1240827, 1241410, 1241985, 1242571, 1243109, 1243692, 1244257]","[139, 100, 104, 161, 247, 27, 43, 74, 74, 60, 48, 75, 13, 17, 234, 4, 15, 199, 100, 199]","[1233146, 1233746, 1234363, 1234972, 1235555, 1236147, 1236721, 1237288, 1237904, 1238473, 1239027, 1239631, 1240211, 1240776, 1241369, 1241932, 1242504, 1243065, 1243649, 1244203]","[1230796, 1231396, 1231996, 1232596, 1233197, 1233797, 1234397, 1234997, 1235518, 1236103, 1236671, 1237239, 1237865, 1238432, 1238985, 1239578, 1240160, 1240732, 1241336, 1241914, 1242455, 1243027, 1243621, 1244189]",56,SB,L,R,ITMSR,1.0,
1,600,trial,0,62,62,62,trial,"['S', 'S', 'S', 'S', 'C', 'C', 'C', 'C', 'C', 'C', 'C', 'C', 'C', 'C', 'C', 'C', 'C', 'C', 'C', 'C']","[1251779, 1252400, 1253014, 1253663, 1254283, 1254909, 1255521, 1256103, 1256691, 1257288, 1257856, 1258469, 1259586, 1260177, 1260745, 1261304, 1261883, 1262466, 1263007, 1263605]","[1251927, 1252527, 1253138, 1253756, 1254383, 1254989, 1255600, 1256185, 1256778, 1257393, 1257992, 1258596, 1259646, 1260253, 1260831, 1261399, 1261993, 1262560, 1263118, 1263696]","[33, 25, 236, 218, 114, 97, 108, 81, 182, 175, 176, 135, 44, 184, 16, 55, 249, 15, 252, 205]","[1251854, 1252461, 1253018, 1253667, 1254292, 1254918, 1255529, 1256113, 1256699, 1257296, 1257864, 1258476, 1259597, 1260218, 1260754, 1261312, 1261890, 1262475, 1263015, 1263613]","[1249519, 1250119, 1250719, 1251319, 1251919, 1252519, 1253120, 1253720, 1254323, 1254948, 1255561, 1256142, 1256730, 1257327, 1257895, 1258509, 1259626, 1260217, 1260784, 1261343, 1261923, 1262505, 1263046, 1263644]",56,SB,L,R,ITMSR,1.0,
2,400,trial,0,63,63,63,trial,"['S', 'S', 'S', 'S', 'C', 'C', 'C', 'C', 'C', 'C', 'C', 'C', 'C', 'C', 'C', 'C', 'C', 'C', 'C', 'C']","[1270831, 1271239, 1271647, 1272051, 1272445, 1272863, 1273285, 1273674, 1274080, 1274528, 1274927, 1275303, 1275719, 1276137, 1276532, 1276959, 1277351, 1277734, 1278158, 1278575]","[1270950, 1271366, 1271755, 1272162, 1272564, 1272981, 1273419, 1273821, 1274207, 1274634, 1275042, 1275431, 1275836, 1276226, 1276664, 1277103, 1277524, 1277894, 1278318, 1278738]","[79, 80, 44, 22, 67, 42, 78, 86, 49, 36, 11, 33, 14, 229, 18, 13, 39, 44, 57, 58]","[1270896, 1271243, 1271719, 1272120, 1272512, 1272930, 1273362, 1273756, 1274152, 1274586, 1274988, 1275377, 1275792, 1276182, 1276604, 1277032, 1277452, 1277830, 1278258, 1278671]","[1269320, 1269720, 1270120, 1270519, 1270920, 1271319, 1271719, 1272120, 1272485, 1272903, 1273325, 1273714, 1274121, 1274568, 1274968, 1275343, 1275759, 1276178, 1276572, 1276999, 1277391, 1277774, 1278198, 1278615]",56,SB,L,R,ITMSR,1.0,
2,400,trial,0,64,64,64,trial,"['S', 'S', 'S', 'S', 'C', 'C', 'C', 'C', 'C', 'C', 'C', 'C', 'C', 'C', 'C', 'C', 'C', 'C', 'C', 'C']","[1285521, 1285897, 1286297, 1286675, 1287053, 1287504, 1287885, 1288266, 1288636, 1289046, 1289432, 1289823, 1290206, 1290612, 1291015, 1291401, 1291805, 1292218, 1292589, 1292961]","[1285638, 1286037, 1286454, 1286849, 1287212, 1287621, 1288023, 1288419, 1288790, 1289184, 1289571, 1289961, 1290347, 1290726, 1291130, 1291513, 1291922, 1292322, 1292706, 1293084]","[104, 71, 96, 101, 95, 40, 70, 72, 61, 50, 50, 94, 37, 22, 19, 31, 11, 5, 241, 187]","[1285577, 1285975, 1286377, 1286767, 1287142, 1287572, 1287962, 1288356, 1288725, 1289128, 1289511, 1289895, 1290292, 1290678, 1291072, 1291463, 1291881, 1292277, 1292649, 1293033]","[1284001, 1284401, 1284801, 1285201, 1285602, 1286001, 1286402, 1286802, 1287094, 1287544, 1287925, 1288306, 1288677, 1289086, 1289473, 1289864, 1290247, 1290652, 1291056, 1291442, 1291845, 1292259, 1292630, 1293001]",56,SB,L,R,ITMSR,1.0,
3,400,trial,0,65,65,65,trial,"['C', 'C', 'C', 'C', 'C', 'C', 'C', 'C', 'C', 'C', 'C', 'C', 'C', 'C', 'C', 'C']","[1301424, 1301795, 1302172, 1302546, 1302928, 1303320, 1303716, 1304119, 1304493, 1304892, 1305264, 1305658, 1306081, 1306434, 1306787, 1307176]","[1301526, 1301906, 1302287, 1302658, 1303062, 1303448, 1303836, 1304245, 1304629, 1305029, 1305416, 1305825, 1306206, 1306590, 1306963, 1307352]","[90, 78, 83, 83, 76, 30, 35, 71, 53, 62, 52, 63, 31, 41, 35, 41]","[1301477, 1301855, 1302225, 1302600, 1303005, 1303379, 1303783, 1304187, 1304559, 1304971, 1305345, 1305742, 1306138, 1306516, 1306876, 1307276]","[1298334, 1298735, 1299135, 1299534, 1299935, 1300334, 1300734, 1301135, 1301465, 1301835, 1302212, 1302587, 1302969, 1303361, 1303756, 1304160, 1304534, 1304933, 1305305, 1305699, 1306122, 1306475, 1306827, 1307216]",56,SB,L,R,ITMSR,1.0,
5,600,trial,0,66,66,66,trial,"['S', 'S', 'S', 'S', 'C', 'C', 'C', 'C', 'C', 'C', 'C', 'C', 'C', 'C', 'C', 'C', 'C', 'C', 'C', 'C']","[1314856, 1315456, 1316035, 1316628, 1317192, 1317743, 1318342, 1318962, 1319529, 1320102, 1320716, 1321270, 1321807, 1322386, 1322991, 1323579, 1324141, 1324701, 1325266, 1325841]","[1314981, 1315565, 1316164, 1316750, 1317325, 1317901, 1318464, 1319058, 1319617, 1320205, 1320765, 1321353, 1321929, 1322509, 1323102, 1323691, 1324266, 1324828, 1325426, 1326020]","[57, 75, 24, 237, 199, 249, 215, 21, 44, 59, 243, 94, 123, 243, 229, 169, 148, 138, 249, 3]","[1314925, 1315516, 1316118, 1316708, 1317282, 1317849, 1318423, 1319027, 1319575, 1320168, 1320724, 1321318, 1321883, 1322459, 1323063, 1323652, 1324218, 1324785, 1325367, 1325941]","[1312548, 1313148, 1313748, 1314349, 1314949, 1315549, 1316149, 1316749, 1317232, 1317783, 1318382, 1319003, 1319570, 1320142, 1320757, 1321311, 1321847, 1322427, 1323031, 1323620, 1324182, 1324741, 1325306, 1325882]",56,SB,L,R,ITMSR,1.0,
2,600,trial,0,67,67,67,trial,"['S', 'S', 'S', 'S', 'S', 'S', 'C', 'C', 'C', 'C', 'C', 'C', 'C', 'C', 'C', 'C', 'C', 'C', 'C', 'C', 'C', 'C']","[1332718, 1333343, 1333942, 1334542, 1335128, 1335746, 1336310, 1336901, 1337489, 1338079, 1338661, 1339238, 1339811, 1340393, 1340954, 1341580, 1342159, 1342721, 1343316, 1343923, 1344490, 1345041]","[1332851, 1333436, 1334036, 1334636, 1335201, 1335812, 1336383, 1336984, 1337573, 1338163, 1338749, 1339324, 1339916, 1340484, 1341061, 1341664, 1342267, 1342841, 1343420, 1344023, 1344633, 1345190]","[181, 170, 183, 171, 146, 179, 125, 145, 143, 142, 172, 128, 96, 98, 113, 86, 74, 37, 28, 239, 215, 69]","[1332721, 1333346, 1333944, 1334544, 1335130, 1335748, 1336312, 1336905, 1337493, 1338083, 1338664, 1339241, 1339815, 1340397, 1340958, 1341584, 1342164, 1342725, 1343321, 1343927, 1344568, 1345116]","[1331637, 1332236, 1332836, 1333436, 1334036, 1334636, 1335236, 1335836, 1336350, 1336941, 1337530, 1338120, 1338701, 1339279, 1339851, 1340434, 1340994, 1341621, 1342199, 1342761, 1343356, 1343964, 1344531, 1345082]",56,SB,L,R,ITMSR,1.0,
3,600,trial,0,68,68,68,trial,"['S', 'S', 'S', 'S', 'C', 'C', 'C', 'C', 'C', 'C', 'C', 'C', 'C', 'C', 'C', 'C', 'C', 'C', 'C', 'C']","[1352812, 1353391, 1353999, 1354583, 1355159, 1355744, 1356312, 1356877, 1357435, 1358050, 1358627, 1359190, 1359761, 1360359, 1360955, 1361553, 1362094, 1362648, 1363233, 1363798]","[1352942, 1353507, 1354106, 1354711, 1355273, 1355872, 1356459, 1357015, 1357590, 1358193, 1358782, 1359344, 1359907, 1360510, 1361095, 1361684, 1362275, 1362825, 1363379, 1363921]","[161, 170, 147, 142, 149, 145, 165, 143, 145, 131, 133, 114, 98, 112, 120, 111, 87, 109, 103, 103]","[1352876, 1353394, 1354002, 1354645, 1355167, 1355810, 1356401, 1356884, 1357518, 1358134, 1358714, 1359271, 1359765, 1360442, 1361035, 1361561, 1362102, 1362737, 1363309, 1363863]","[1350507, 1351106, 1351706, 1352306, 1352906, 1353506, 1354106, 1354706, 1355200, 1355785, 1356353, 1356917, 1357475, 1358091, 1358667, 1359230, 1359802, 1360400, 1360996, 1361594, 1362135, 1362689, 1363273, 1363838]",56,SB,L,R,ITMSR,1.0,
4,600,trial,0,69,69,69,trial,"['S', 'S', 'S', 'S', 'C', 'C', 'C', 'C', 'C', 'C', 'C', 'C', 'C', 'C', 'C', 'C', 'C', 'C', 'C', 'C']","[1371791, 1372402, 1373035, 1373638, 1374242, 1374809, 1375370, 1375968, 1376583, 1377173, 1377753, 1378321, 1378931, 1379531, 1380099, 1380628, 1381229, 1381838, 1382412, 1382974]","[1371935, 1372518, 1373129, 1373739, 1374359, 1374921, 1375512, 1376112, 1376720, 1377289, 1377893, 1378481, 1379104, 1379670, 1380271, 1380803, 1381417, 1381995, 1382582, 1383115]","[146, 161, 166, 159, 159, 148, 138, 123, 136, 131, 131, 136, 150, 129, 136, 150, 122, 108, 88, 93]","[1371794, 1372404, 1373038, 1373641, 1374245, 1374812, 1375373, 1375971, 1376586, 1377176, 1377756, 1378324, 1378934, 1379534, 1380103, 1380631, 1381232, 1381842, 1382416, 1382977]","[1369502, 1370101, 1370701, 1371301, 1371901, 1372502, 1373102, 1373702, 1374280, 1374848, 1375409, 1376007, 1376621, 1377212, 1377792, 1378360, 1378969, 1379569, 1380137, 1380667, 1381268, 1381876, 1382451, 1383013]",56,SB,L,R,ITMSR,1.0,
5,400,trial,0,70,70,70,trial,"['S', 'S', 'S', 'S', 'C', 'C', 'C', 'C', 'C', 'C', 'C', 'C', 'C', 'C', 'C', 'C', 'C', 'C', 'C', 'C']","[1390068, 1390492, 1390902, 1391303, 1391717, 1392140, 1392555, 1392958, 1393370, 1393771, 1394157, 1394591, 1394998, 1395411, 1395831, 1396258, 1396677, 1397091, 1397516, 1397884]","[1390156, 1390557, 1390960, 1391369, 1391771, 1392190, 1392618, 1393025, 1393434, 1393861, 1394247, 1394667, 1395079, 1395502, 1395921, 1396354, 1396739, 1397152, 1397573, 1397951]","[119, 128, 125, 127, 122, 106, 121, 91, 97, 109, 87, 74, 85, 82, 84, 38, 28, 45, 23, 47]","[1390071, 1390495, 1390904, 1391306, 1391720, 1392143, 1392557, 1392960, 1393372, 1393774, 1394160, 1394594, 1395001, 1395415, 1395835, 1396261, 1396680, 1397095, 1397520, 1397889]","[1388557, 1388956, 1389357, 1389757, 1390156, 1390557, 1390956, 1391356, 1391758, 1392181, 1392595, 1392999, 1393411, 1393812, 1394198, 1394631, 1395039, 1395451, 1395871, 1396298, 1396717, 1397132, 1397557, 1397924]",56,SB,L,R,ITMSR,1.0,
1,400,trial,0,71,71,71,trial,"['S', 'S', 'S', 'S', 'C', 'C', 'C', 'C', 'C', 'C', 'C', 'C', 'C', 'C', 'C', 'C', 'C', 'C', 'C', 'C']","[1405076, 1405463, 1405873, 1406284, 1406686, 1407086, 1407471, 1407881, 1408295, 1408687, 1409107, 1409503, 1409925, 1410315, 1410722, 1411140, 1411551, 1411962, 1412354, 1412790]","[1405178, 1405575, 1405983, 1406377, 1406776, 1407172, 1407570, 1408006, 1408430, 1408826, 1409233, 1409648, 1410037, 1410440, 1410850, 1411284, 1411686, 1412102, 1412511, 1412918]","[137, 143, 111, 97, 92, 42, 36, 61, 73, 52, 49, 7, 29, 29, 18, 249, 246, 246, 27, 10]","[1405080, 1405467, 1405934, 1406339, 1406726, 1407125, 1407527, 1407951, 1408366, 1408755, 1409182, 1409572, 1409989, 1410381, 1410794, 1411223, 1411622, 1412042, 1412446, 1412854]","[1403574, 1403973, 1404374, 1404774, 1405173, 1405574, 1405973, 1406373, 1406726, 1407125, 1407510, 1407921, 1408334, 1408727, 1409146, 1409543, 1409965, 1410355, 1410761, 1411179, 1411591, 1412001, 1412393, 1412830]",56,SB,L,R,ITMSR,1.0,
3,600,trial,0,72,72,72,trial,"['S', 'S', 'S', 'S', 'C', 'C', 'C', 'C', 'C', 'C', 'C', 'C', 'C', 'C', 'C', 'C', 'C', 'C', 'C', 'C']","[1420545, 1421158, 1421763, 1422365, 1422942, 1423522, 1424079, 1424632, 1425219, 1425796, 1426369, 1426894, 1427443, 1428014, 1428570, 1429152, 1429716, 1430272, 1430861, 1431353]","[1420688, 1421255, 1421874, 1422459, 1423053, 1423627, 1424193, 1424749, 1425327, 1425904, 1426477, 1427006, 1427550, 1428129, 1428701, 1429252, 1429834, 1430384, 1430960, 1431496]","[159, 147, 99, 80, 95, 98, 70, 45, 21, 40, 248, 151, 46, 0, 143, 205, 191, 190, 217, 246]","[1420603, 1421161, 1421826, 1422369, 1422947, 1423526, 1424084, 1424636, 1425225, 1425801, 1426375, 1426900, 1427448, 1428018, 1428577, 1429157, 1429722, 1430276, 1430866, 1431356]","[1418256, 1418856, 1419456, 1420055, 1420655, 1421255, 1421855, 1422455, 1422983, 1423562, 1424119, 1424672, 1425260, 1425837, 1426410, 1426934, 1427483, 1428055, 1428611, 1429192, 1429756, 1430312, 1430901, 1431394]",56,SB,L,R,ITMSR,1.0,
4,400,trial,0,73,73,73,trial,"['S', 'S', 'S', 'S', 'C', 'C', 'C', 'C', 'C', 'C', 'C', 'C', 'C', 'C', 'C', 'C', 'C', 'C', 'C', 'C']","[1438554, 1438945, 1439328, 1439745, 1440167, 1440588, 1440993, 1441356, 1441771, 1442132, 1442525, 1442927, 1443310, 1443722, 1444144, 1444532, 1444939, 1445318, 1445767, 1446156]","[1438656, 1439030, 1439409, 1439813, 1440235, 1440648, 1441032, 1441431, 1441847, 1442233, 1442611, 1443022, 1443411, 1443810, 1444231, 1444615, 1445013, 1445403, 1445827, 1446221]","[68, 60, 14, 183, 191, 80, 232, 169, 11, 110, 184, 80, 153, 81, 51, 70, 68, 28, 16, 247]","[1438558, 1438949, 1439332, 1439749, 1440173, 1440591, 1440998, 1441359, 1441775, 1442138, 1442529, 1442932, 1443318, 1443728, 1444150, 1444538, 1444947, 1445322, 1445772, 1446162]","[1437009, 1437409, 1437808, 1438209, 1438609, 1439008, 1439409, 1439808, 1440205, 1440626, 1441032, 1441394, 1441810, 1442170, 1442564, 1442965, 1443348, 1443761, 1444183, 1444571, 1444977, 1445356, 1445806, 1446195]",56,SB,L,R,ITMSR,1.0,
2,600,trial,0,74,74,74,trial,"['S', 'S', 'S', 'S', 'C', 'C', 'C', 'C', 'C', 'C', 'C', 'C', 'C', 'C', 'C', 'C', 'C', 'C', 'C', 'C']","[1454181, 1454767, 1455381, 1455953, 1456537, 1457091, 1457661, 1458247, 1458816, 1459369, 1459916, 1460453, 1461017, 1461581, 1462129, 1462645, 1463207, 1463783, 1464314, 1464867]","[1454327, 1454902, 1455483, 1456065, 1456630, 1457191, 1457751, 1458338, 1458899, 1459461, 1460005, 1460549, 1461106, 1461669, 1462217, 1462737, 1463312, 1463864, 1464406, 1464970]","[110, 105, 57, 71, 30, 6, 238, 150, 124, 109, 128, 64, 27, 82, 96, 116, 139, 28, 6, 124]","[1454266, 1454840, 1455437, 1455958, 1456588, 1457150, 1457667, 1458306, 1458865, 1459432, 1459922, 1460516, 1461024, 1461587, 1462137, 1462651, 1463213, 1463837, 1464320, 1464929]","[1451866, 1452466, 1453066, 1453666, 1454266, 1454866, 1455466, 1456065, 1456577, 1457132, 1457701, 1458287, 1458856, 1459409, 1459956, 1460494, 1461057, 1461621, 1462169, 1462685, 1463247, 1463824, 1464354, 1464907]",56,SB,L,R,ITMSR,1.0,
0,600,trial,0,75,75,75,trial,"['S', 'S', 'S', 'S', 'C', 'C', 'C', 'C', 'C', 'C', 'C', 'C', 'C', 'C', 'C', 'C', 'C', 'C', 'C', 'C']","[1472904, 1473505, 1474131, 1474732, 1475295, 1475907, 1476518, 1477124, 1477684, 1478263, 1478813, 1479398, 1479997, 1480592, 1481192, 1481783, 1482373, 1482933, 1483525, 1484076]","[1473013, 1473587, 1474186, 1474780, 1475375, 1475964, 1476588, 1477189, 1477746, 1478328, 1478894, 1479498, 1480074, 1480669, 1481274, 1481848, 1482466, 1483051, 1483644, 1484203]","[139, 137, 149, 18, 214, 113, 43, 198, 17, 155, 212, 50, 75, 36, 132, 121, 137, 247, 230, 31]","[1472963, 1473508, 1474151, 1474732, 1475298, 1475912, 1476524, 1477132, 1477690, 1478269, 1478862, 1479463, 1480002, 1480602, 1481197, 1481785, 1482439, 1483022, 1483602, 1484170]","[1470531, 1471131, 1471731, 1472331, 1472931, 1473531, 1474131, 1474732, 1475336, 1475948, 1476558, 1477165, 1477725, 1478303, 1478853, 1479439, 1480038, 1480633, 1481233, 1481824, 1482414, 1482974, 1483566, 1484116]",56,SB,L,R,ITMSR,1.0,
0,400,trial,0,76,76,76,trial,"['S', 'S', 'S', 'S', 'C', 'C', 'C', 'C', 'C', 'C', 'C', 'C', 'C', 'C', 'C', 'C', 'C', 'C', 'C', 'C']","[1491104, 1491481, 1491881, 1492253, 1492669, 1493104, 1493496, 1493883, 1494284, 1494695, 1495112, 1495533, 1495952, 1496355, 1496778, 1497180, 1497567, 1497990, 1498389, 1498786]","[1491197, 1491562, 1491955, 1492325, 1492734, 1493169, 1493562, 1493959, 1494367, 1494791, 1495200, 1495619, 1496025, 1496451, 1496849, 1497261, 1497646, 1498070, 1498475, 1498873]","[147, 149, 113, 76, 81, 55, 62, 39, 46, 63, 59, 71, 50, 13, 70, 41, 33, 45, 49, 65]","[1491108, 1491484, 1491886, 1492258, 1492672, 1493109, 1493501, 1493890, 1494289, 1494699, 1495116, 1495537, 1495957, 1496359, 1496784, 1497185, 1497572, 1497994, 1498394, 1498790]","[1489586, 1489985, 1490385, 1490786, 1491185, 1491586, 1491986, 1492385, 1492710, 1493144, 1493536, 1493923, 1494325, 1494735, 1495152, 1495574, 1495993, 1496395, 1496818, 1497221, 1497608, 1498031, 1498430, 1498826]",56,SB,L,R,ITMSR,1.0,
0,400,trial,0,77,77,77,trial,"['S', 'S', 'S', 'S', 'C', 'C', 'C', 'C', 'C', 'C', 'C', 'C', 'C', 'C', 'C', 'C', 'C', 'C', 'C', 'C']","[1505923, 1506334, 1506746, 1507145, 1507525, 1507944, 1508360, 1508783, 1509190, 1509624, 1510031, 1510465, 1510872, 1511291, 1511695, 1512108, 1512513, 1512933, 1513327, 1513715]","[1506015, 1506423, 1506857, 1507232, 1507606, 1508021, 1508448, 1508881, 1509301, 1509711, 1510122, 1510569, 1510972, 1511378, 1511791, 1512219, 1512626, 1513025, 1513428, 1513819]","[116, 131, 119, 90, 53, 43, 43, 212, 214, 238, 235, 202, 199, 195, 255, 168, 170, 218, 215, 232]","[1505931, 1506336, 1506749, 1507149, 1507529, 1507948, 1508364, 1508829, 1509193, 1509628, 1510034, 1510468, 1510876, 1511297, 1511698, 1512111, 1512517, 1512938, 1513330, 1513718]","[1504457, 1504858, 1505258, 1505657, 1506058, 1506457, 1506857, 1507258, 1507565, 1507985, 1508401, 1508824, 1509230, 1509664, 1510072, 1510506, 1510913, 1511331, 1511736, 1512148, 1512554, 1512974, 1513367, 1513755]",56,SB,L,R,ITMSR,1.0,
1,400,trial,0,78,78,78,trial,"['S', 'S', 'S', 'S', 'C', 'C', 'C', 'C', 'C', 'C', 'C', 'C', 'C', 'C', 'C', 'C', 'C', 'C', 'C', 'C']","[1634586, 1634977, 1635357, 1635755, 1636153, 1636598, 1636987, 1637399, 1637778, 1638188, 1638606, 1639044, 1639459, 1639844, 1640213, 1640639, 1641052, 1641452, 1641852, 1642240]","[1634690, 1635093, 1635468, 1635865, 1636249, 1636691, 1637106, 1637525, 1637929, 1638326, 1638727, 1639128, 1639555, 1639954, 1640339, 1640755, 1641176, 1641594, 1641985, 1642370]","[95, 63, 58, 53, 88, 174, 170, 58, 37, 47, 13, 218, 232, 196, 174, 208, 227, 249, 5, 13]","[1634643, 1635046, 1635361, 1635758, 1636217, 1636658, 1637065, 1637468, 1637866, 1638268, 1638673, 1639084, 1639517, 1639910, 1640281, 1640708, 1641118, 1641536, 1641933, 1642316]","[1633121, 1633520, 1633921, 1634321, 1634720, 1635121, 1635520, 1635920, 1636193, 1636637, 1637026, 1637439, 1637818, 1638227, 1638645, 1639084, 1639498, 1639883, 1640253, 1640679, 1641092, 1641492, 1641891, 1642279]",56,SB,L,R,ITMSR,1.0,
4,400,trial,0,79,79,79,trial,"['S', 'S', 'S', 'S', 'C', 'C', 'C', 'C', 'C', 'C', 'C', 'C', 'C', 'C', 'C', 'C', 'C', 'C', 'C', 'C']","[1649555, 1649939, 1650312, 1650699, 1651098, 1651522, 1651940, 1652329, 1652749, 1653170, 1653588, 1653947, 1654362, 1654776, 1655173, 1655573, 1655985, 1656386, 1656801, 1657174]","[1649640, 1650015, 1650412, 1650839, 1651225, 1651649, 1652068, 1652490, 1652884, 1653281, 1653700, 1654083, 1654484, 1654890, 1655310, 1655713, 1656116, 1656508, 1656895, 1657294]","[144, 141, 129, 104, 102, 94, 100, 75, 71, 95, 88, 69, 87, 88, 103, 99, 84, 72, 93, 93]","[1649560, 1649943, 1650316, 1650770, 1651178, 1651594, 1652009, 1652424, 1652822, 1653176, 1653595, 1653954, 1654370, 1654785, 1655256, 1655662, 1655995, 1656463, 1656805, 1657179]","[1648039, 1648440, 1648839, 1649240, 1649640, 1650039, 1650440, 1650839, 1651136, 1651561, 1651979, 1652368, 1652788, 1653209, 1653626, 1653986, 1654401, 1654814, 1655212, 1655612, 1656024, 1656425, 1656840, 1657212]",56,SB,L,R,ITMSR,1.0,
5,400,trial,0,80,80,80,trial,"['S', 'S', 'S', 'S', 'C', 'C', 'C', 'C', 'C', 'C', 'C', 'C', 'C', 'C', 'C', 'C', 'C', 'C', 'C', 'C']","[1664037, 1664428, 1664824, 1665226, 1665643, 1666061, 1666478, 1666881, 1667296, 1667700, 1668111, 1668504, 1668904, 1669304, 1669704, 1670137, 1670544, 1670929, 1671330, 1671705]","[1664149, 1664548, 1664906, 1665306, 1665720, 1666145, 1666566, 1666990, 1667411, 1667824, 1668228, 1668634, 1669035, 1669450, 1669857, 1670242, 1670653, 1671061, 1671468, 1671851]","[157, 152, 119, 134, 129, 123, 125, 138, 104, 124, 95, 135, 142, 145, 157, 142, 129, 155, 158, 162]","[1664046, 1664484, 1664832, 1665232, 1665649, 1666068, 1666485, 1666888, 1667351, 1667759, 1668171, 1668557, 1668966, 1669365, 1669762, 1670185, 1670587, 1671001, 1671387, 1671766]","[1662550, 1662949, 1663348, 1663749, 1664149, 1664548, 1664949, 1665348, 1665684, 1666102, 1666519, 1666922, 1667337, 1667740, 1668152, 1668545, 1668944, 1669345, 1669744, 1670177, 1670585, 1670970, 1671370, 1671745]",56,SB,L,R,ITMSR,1.0,
1,400,trial,0,81,81,81,trial,"['S', 'S', 'S', 'S', 'C', 'C', 'C', 'C', 'C', 'C', 'C', 'C', 'C', 'C', 'C', 'C', 'C', 'C', 'C', 'C']","[1678948, 1679362, 1679745, 1680149, 1680534, 1680958, 1681357, 1681770, 1682183, 1682604, 1683007, 1683376, 1683769, 1684196, 1684599, 1684995, 1685402, 1685790, 1686164, 1686534]","[1679059, 1679460, 1679859, 1680260, 1680636, 1681046, 1681444, 1681854, 1682272, 1682683, 1683094, 1683478, 1683877, 1684296, 1684706, 1685111, 1685506, 1685906, 1686282, 1686644]","[94, 110, 124, 104, 95, 74, 58, 49, 63, 39, 7, 230, 25, 22, 29, 46, 15, 12, 55, 53]","[1679000, 1679372, 1679754, 1680158, 1680544, 1680968, 1681362, 1681779, 1682192, 1682614, 1683015, 1683383, 1683822, 1684204, 1684608, 1685004, 1685457, 1685844, 1686217, 1686583]","[1677460, 1677859, 1678260, 1678659, 1679059, 1679460, 1679859, 1680260, 1680574, 1680998, 1681396, 1681810, 1682223, 1682643, 1683047, 1683416, 1683809, 1684236, 1684638, 1685035, 1685441, 1685829, 1686204, 1686574]",56,SB,L,R,ITMSR,1.0,
5,600,trial,0,82,82,82,trial,"['S', 'S', 'S', 'S', 'C', 'C', 'C', 'C', 'C', 'C', 'C', 'C', 'C', 'C', 'C', 'C', 'C', 'C', 'C', 'C']","[1694215, 1694823, 1695421, 1696045, 1696686, 1697281, 1697868, 1698445, 1699037, 1699634, 1700206, 1700777, 1701347, 1701951, 1702522, 1703088, 1703672, 1704232, 1704815, 1705358]","[1694330, 1694932, 1695536, 1696140, 1696771, 1697350, 1697934, 1698537, 1699133, 1699739, 1700311, 1700899, 1701478, 1702064, 1702641, 1703214, 1703792, 1704373, 1704972, 1705509]","[99, 85, 62, 70, 6, 228, 111, 44, 48, 65, 94, 112, 112, 89, 75, 105, 75, 147, 134, 169]","[1694274, 1694875, 1695486, 1696095, 1696731, 1697321, 1697876, 1698486, 1699079, 1699687, 1700264, 1700835, 1701426, 1702012, 1702589, 1703168, 1703727, 1704287, 1704899, 1705435]","[1691968, 1692567, 1693167, 1693767, 1694367, 1694967, 1695567, 1696167, 1696727, 1697321, 1697908, 1698486, 1699078, 1699675, 1700246, 1700817, 1701388, 1701992, 1702562, 1703129, 1703712, 1704272, 1704855, 1705399]",56,SB,L,R,ITMSR,1.0,
1,600,trial,0,83,83,83,trial,"['S', 'S', 'S', 'S', 'S', 'C', 'C', 'C', 'C', 'C', 'C', 'C', 'C', 'C', 'C', 'C', 'C', 'C', 'C', 'C', 'C']","[1712704, 1713301, 1713848, 1714469, 1715044, 1715621, 1716174, 1716743, 1717342, 1717936, 1718530, 1719113, 1719737, 1720298, 1720851, 1721436, 1722038, 1722592, 1723148, 1723717, 1724255]","[1712845, 1713418, 1713987, 1714587, 1715187, 1715767, 1716334, 1716903, 1717488, 1718073, 1718663, 1719230, 1719842, 1720435, 1720988, 1721572, 1722165, 1722719, 1723290, 1723879, 1724425]","[71, 87, 96, 106, 136, 130, 143, 122, 103, 75, 77, 203, 8, 63, 57, 59, 60, 63, 98, 102, 135]","[1712787, 1713352, 1713934, 1714523, 1715131, 1715703, 1716269, 1716833, 1717432, 1718011, 1718615, 1719184, 1719803, 1720377, 1720935, 1721513, 1722115, 1722664, 1723237, 1723816, 1724339]","[1710987, 1711587, 1712187, 1712787, 1713387, 1713987, 1714587, 1715187, 1715660, 1716213, 1716783, 1717382, 1717976, 1718569, 1719152, 1719777, 1720338, 1720891, 1721476, 1722078, 1722632, 1723188, 1723756, 1724295]",56,SB,L,R,ITMSR,1.0,
3,400,trial,0,84,84,84,trial,"['S', 'S', 'S', 'S', 'S', 'C', 'C', 'C', 'C', 'C', 'C', 'C', 'C', 'C', 'C', 'C', 'C', 'C', 'C', 'C', 'C']","[1731016, 1731421, 1731810, 1732200, 1732609, 1733056, 1733463, 1733864, 1734248, 1734634, 1735016, 1735422, 1735822, 1736243, 1736642, 1737052, 1737439, 1737825, 1738229, 1738618, 1738994]","[1731135, 1731537, 1731927, 1732317, 1732719, 1733174, 1733572, 1733980, 1734379, 1734766, 1735164, 1735575, 1735984, 1736401, 1736805, 1737202, 1737609, 1737994, 1738375, 1738775, 1739149]","[175, 159, 154, 154, 137, 153, 136, 152, 160, 141, 145, 153, 153, 162, 153, 139, 159, 163, 156, 165, 170]","[1731066, 1731481, 1731868, 1732257, 1732662, 1733109, 1733512, 1733919, 1734301, 1734689, 1735072, 1735506, 1735908, 1736313, 1736731, 1737110, 1737529, 1737908, 1738287, 1738683, 1739066]","[1729606, 1730007, 1730407, 1730806, 1731207, 1731606, 1732006, 1732407, 1733097, 1733504, 1733905, 1734289, 1734675, 1735057, 1735462, 1735863, 1736284, 1736683, 1737093, 1737480, 1737866, 1738269, 1738658, 1739034]",56,SB,L,R,ITMSR,1.0,
3,600,trial,0,85,85,85,trial,"['S', 'S', 'S', 'S', 'C', 'C', 'C', 'C', 'C', 'C', 'C', 'C', 'C', 'C', 'C', 'C', 'C', 'C', 'C', 'C']","[1746882, 1747430, 1748013, 1748582, 1749114, 1749658, 1750205, 1750734, 1751277, 1751828, 1752415, 1752970, 1753506, 1754028, 1754547, 1755062, 1755613, 1756172, 1756705, 1757197]","[1747054, 1747575, 1748171, 1748722, 1749252, 1749820, 1750351, 1750873, 1751411, 1751984, 1752543, 1753088, 1753632, 1754144, 1754716, 1755240, 1755762, 1756310, 1756862, 1757378]","[163, 141, 151, 130, 127, 146, 129, 118, 119, 129, 83, 91, 90, 63, 111, 108, 106, 95, 107, 126]","[1746960, 1747515, 1748111, 1748663, 1749193, 1749747, 1750288, 1750816, 1751360, 1751917, 1752495, 1753034, 1753572, 1754097, 1754658, 1755180, 1755703, 1756251, 1756787, 1757292]","[1744655, 1745255, 1745855, 1746454, 1747054, 1747654, 1748254, 1748854, 1749154, 1749698, 1750246, 1750774, 1751318, 1751869, 1752456, 1753011, 1753546, 1754068, 1754588, 1755103, 1755654, 1756213, 1756745, 1757238]",56,SB,L,R,ITMSR,1.0,
4,600,trial,0,86,86,86,trial,"['S', 'S', 'S', 'S', 'S', 'C', 'C', 'C', 'C', 'C', 'C', 'C', 'C', 'C', 'C', 'C', 'C', 'C', 'C', 'C', 'C']","[1764453, 1765007, 1765572, 1766120, 1766675, 1767260, 1767818, 1768377, 1768924, 1769489, 1770059, 1770589, 1771151, 1771738, 1772285, 1772828, 1773377, 1773948, 1774514, 1775078, 1775608]","[1764606, 1765166, 1765746, 1766300, 1766840, 1767406, 1767974, 1768552, 1769106, 1769638, 1770218, 1770764, 1771319, 1771887, 1772455, 1772996, 1773553, 1774128, 1774690, 1775266, 1775816]","[147, 148, 159, 156, 142, 143, 134, 151, 146, 120, 135, 129, 106, 111, 99, 111, 98, 126, 120, 96, 165]","[1764546, 1765089, 1765677, 1766221, 1766764, 1767345, 1767896, 1768469, 1769027, 1769577, 1770147, 1770694, 1771243, 1771814, 1772389, 1772902, 1773463, 1774026, 1774588, 1775176, 1775689]","[1762747, 1763346, 1763946, 1764546, 1765146, 1765746, 1766346, 1766946, 1767299, 1767857, 1768416, 1768963, 1769528, 1770097, 1770628, 1771190, 1771777, 1772323, 1772866, 1773416, 1773986, 1774553, 1775117, 1775646]",56,SB,L,R,ITMSR,1.0,
2,600,trial,0,87,87,87,trial,"['S', 'S', 'S', 'S', 'S', 'S', 'C', 'C', 'C', 'C', 'C', 'C', 'C', 'C', 'C', 'C', 'C', 'C', 'C', 'C', 'C', 'C']","[1782096, 1782679, 1783300, 1783954, 1784553, 1785132, 1785724, 1786335, 1786916, 1787485, 1788082, 1788692, 1789257, 1789826, 1790360, 1790938, 1791556, 1792118, 1792678, 1793253, 1793805, 1794342]","[1782241, 1782840, 1783458, 1784080, 1784673, 1785259, 1785874, 1786470, 1787057, 1787644, 1788214, 1788801, 1789382, 1789949, 1790502, 1791087, 1791661, 1792226, 1792807, 1793409, 1794007]","[132, 146, 135, 140, 153, 156, 165, 165, 136, 102, 67, 236, 220, 6, 49, 33, 251, 237, 140, 45, 84]","[1782171, 1782758, 1783394, 1784014, 1784611, 1785202, 1785790, 1786409, 1787002, 1787576, 1788153, 1788758, 1789320, 1789887, 1790439, 1791027, 1791616, 1792183, 1792763, 1793339, 1793900]","[1781041, 1781640, 1782240, 1782840, 1783440, 1784040, 1784640, 1785239, 1785764, 1786376, 1786956, 1787526, 1788123, 1788733, 1789297, 1789867, 1790401, 1790979, 1791596, 1792158, 1792718, 1793294, 1793846, 1794382]",56,SB,L,R,ITMSR,1.0,
1,600,trial,0,88,88,88,trial,"['S', 'S', 'S', 'S', 'S', 'C', 'C', 'C', 'C', 'C', 'C', 'C', 'C', 'C', 'C', 'C', 'C', 'C', 'C', 'C', 'C']","[1801640, 1802147, 1802720, 1803300, 1803898, 1804503, 1805083, 1805655, 1806215, 1806806, 1807380, 1807939, 1808484, 1809065, 1809635, 1810177, 1810738, 1811312, 1811907, 1812478, 1813022]","[1801764, 1802288, 1802855, 1803441, 1804041, 1804627, 1805216, 1805809, 1806361, 1806922, 1807474, 1808053, 1808615, 1809188, 1809784, 1810344, 1810900, 1811450, 1812015, 1812603, 1813164]","[129, 123, 120, 123, 99, 100, 113, 87, 84, 55, 73, 65, 73, 95, 115, 113, 92, 110, 88, 58, 94]","[1801700, 1802205, 1802724, 1803302, 1803901, 1804507, 1805154, 1805735, 1806218, 1806809, 1807383, 1807942, 1808487, 1809118, 1809638, 1810180, 1810741, 1811316, 1811910, 1812483, 1813026]","[1799840, 1800440, 1801040, 1801640, 1802241, 1802841, 1803441, 1804041, 1804542, 1805122, 1805694, 1806255, 1806845, 1807420, 1807979, 1808524, 1809104, 1809675, 1810216, 1810778, 1811351, 1811947, 1812517, 1813061]",56,SB,L,R,ITMSR,1.0,
2,400,trial,0,89,89,89,trial,"['S', 'S', 'S', 'S', 'C', 'C', 'C', 'C', 'C', 'C', 'C', 'C', 'C', 'C', 'C', 'C', 'C', 'C', 'C', 'C']","[1820030, 1820449, 1820850, 1821254, 1821655, 1822098, 1822496, 1822866, 1823283, 1823672, 1824064, 1824472, 1824912, 1825312, 1825718, 1826109, 1826518, 1826914, 1827330, 1827705]","[1820118, 1820522, 1820918, 1821319, 1821724, 1822160, 1822565, 1822950, 1823356, 1823754, 1824153, 1824564, 1824992, 1825394, 1825793, 1826201, 1826607, 1827015, 1827412, 1827802]","[170, 156, 137, 139, 135, 121, 112, 93, 100, 93, 113, 96, 110, 92, 85, 97, 92, 63, 21, 235]","[1820033, 1820452, 1820854, 1821257, 1821659, 1822102, 1822499, 1822869, 1823287, 1823677, 1824068, 1824476, 1824915, 1825317, 1825722, 1826113, 1826522, 1826920, 1827335, 1827713]","[1818560, 1818959, 1819360, 1819759, 1820160, 1820560, 1820959, 1821360, 1821696, 1822139, 1822536, 1822907, 1823324, 1823713, 1824105, 1824513, 1824953, 1825352, 1825759, 1826150, 1826558, 1826955, 1827371, 1827745]",56,SB,L,R,ITMSR,1.0,
3,400,trial,0,90,90,90,trial,"['S', 'S', 'S', 'S', 'C', 'C', 'C', 'C', 'C', 'C', 'C', 'C', 'C', 'C', 'C', 'C', 'C', 'C', 'C', 'C']","[1834971, 1835373, 1835787, 1836173, 1836560, 1836983, 1837398, 1837768, 1838162, 1838541, 1838931, 1839300, 1839681, 1840049, 1840455, 1840872, 1841261, 1841643, 1842027, 1842407]","[1835081, 1835450, 1835882, 1836282, 1836672, 1837097, 1837493, 1837887, 1838290, 1838663, 1839042, 1839427, 1839793, 1840189, 1840570, 1840986, 1841389, 1841770, 1842151, 1842507]","[107, 120, 63, 95, 78, 66, 70, 64, 86, 72, 60, 48, 80, 62, 73, 74, 93, 74, 88, 98]","[1834975, 1835376, 1835792, 1836178, 1836565, 1836988, 1837403, 1837773, 1838167, 1838550, 1838939, 1839306, 1839688, 1840055, 1840461, 1840879, 1841268, 1841650, 1842033, 1842414]","[1833482, 1833881, 1834281, 1834682, 1835081, 1835482, 1835882, 1836281, 1836601, 1837024, 1837438, 1837808, 1838202, 1838581, 1838971, 1839340, 1839722, 1840090, 1840495, 1840913, 1841302, 1841684, 1842068, 1842448]",56,SB,L,R,ITMSR,1.0,
0,600,trial,0,91,91,91,trial,"['S', 'S', 'S', 'S', 'S', 'C', 'C', 'C', 'C', 'C', 'C', 'C', 'C', 'C', 'C', 'C', 'C', 'C', 'C', 'C', 'C']","[1849848, 1850383, 1850996, 1851589, 1852199, 1852813, 1853422, 1853979, 1854525, 1855099, 1855679, 1856268, 1856830, 1857416, 1858004, 1858572, 1859167, 1859751, 1860320, 1860904, 1861467]","[1849897, 1850465, 1851073, 1851661, 1852259, 1852867, 1853490, 1854078, 1854616, 1855196, 1855720, 1856337, 1856871, 1857483, 1858072, 1858667, 1859246, 1859834, 1860391, 1860981, 1861523]","[211, 167, 142, 127, 142, 73, 47, 40, 35, 9, 226, 203, 192, 140, 169, 205, 191, 210, 46, 37, 235]","[1849870, 1850386, 1851001, 1851593, 1852203, 1852819, 1853425, 1853982, 1854530, 1855106, 1855684, 1856271, 1856836, 1857420, 1858009, 1858574, 1859170, 1859756, 1860325, 1860909, 1861469]","[1848049, 1848648, 1849248, 1849848, 1850448, 1851048, 1851649, 1852249, 1852854, 1853462, 1854019, 1854566, 1855139, 1855720, 1856309, 1856871, 1857457, 1858044, 1858613, 1859208, 1859791, 1860361, 1860944, 1861508]",56,SB,L,R,ITMSR,1.0,
4,400,trial,0,92,92,92,trial,"['S', 'S', 'S', 'S', 'C', 'C', 'C', 'C', 'C', 'C', 'C', 'C', 'C', 'C', 'C', 'C', 'C', 'C', 'C', 'C']","[1868382, 1868787, 1869178, 1869593, 1869985, 1870410, 1870809, 1871190, 1871593, 1872012, 1872422, 1872826, 1873229, 1873619, 1874022, 1874432, 1874835, 1875257, 1875641, 1876024]","[1868475, 1868877, 1869247, 1869667, 1870073, 1870504, 1870907, 1871300, 1871715, 1872123, 1872516, 1872915, 1873321, 1873718, 1874121, 1874515, 1874933, 1875325, 1875727, 1876115]","[169, 152, 118, 119, 140, 131, 148, 152, 136, 125, 125, 102, 67, 46, 82, 46, 62, 33, 32, 38]","[1868385, 1868790, 1869182, 1869597, 1869990, 1870414, 1870812, 1871194, 1871596, 1872016, 1872427, 1872830, 1873234, 1873624, 1874028, 1874437, 1874837, 1875260, 1875644, 1876028]","[1866912, 1867313, 1867712, 1868112, 1868513, 1868912, 1869313, 1869713, 1870023, 1870448, 1870848, 1871228, 1871632, 1872051, 1872460, 1872865, 1873267, 1873657, 1874061, 1874470, 1874874, 1875296, 1875680, 1876063]",56,SB,L,R,ITMSR,1.0,
2,400,trial,0,93,93,93,trial,"['S', 'S', 'S', 'S', 'C', 'C', 'C', 'C', 'C', 'C', 'C', 'C', 'C', 'C', 'C', 'C', 'C', 'C', 'C', 'C']","[1883305, 1883707, 1884088, 1884456, 1884873, 1885294, 1885704, 1886087, 1886458, 1886873, 1887270, 1887675, 1888095, 1888479, 1888878, 1889258, 1889686, 1890083, 1890500, 1890844]","[1883412, 1883811, 1884212, 1884611, 1884997, 1885407, 1885815, 1886205, 1886604, 1887007, 1887401, 1887784, 1888195, 1888598, 1888977, 1889370, 1889782, 1890174, 1890571, 1890938]","[77, 105, 114, 112, 131, 85, 100, 106, 74, 68, 18, 253, 4, 11, 26, 252, 29, 230, 140, 212]","[1883312, 1883713, 1884096, 1884464, 1884879, 1885301, 1885712, 1886093, 1886529, 1886953, 1887275, 1887678, 1888101, 1888481, 1888885, 1889324, 1889689, 1890088, 1890505, 1890848]","[1881812, 1882212, 1882611, 1883012, 1883412, 1883811, 1884212, 1884611, 1884913, 1885334, 1885745, 1886128, 1886498, 1886913, 1887310, 1887716, 1888136, 1888520, 1888918, 1889299, 1889727, 1890123, 1890540, 1890884]",56,SB,L,R,ITMSR,1.0,
4,600,trial,0,94,94,94,trial,"['S', 'S', 'S', 'S', 'C', 'C', 'C', 'C', 'C', 'C', 'C', 'C', 'C', 'C', 'C', 'C', 'C', 'C', 'C', 'C']","[1898478, 1899108, 1899703, 1900308, 1900862, 1901409, 1901947, 1902501, 1903079, 1903629, 1904196, 1904772, 1905330, 1905881, 1906437, 1906998, 1907551, 1908131, 1908671, 1909226]","[1898592, 1899192, 1899768, 1900368, 1900926, 1901484, 1902026, 1902589, 1903159, 1903744, 1904284, 1904888, 1905426, 1905992, 1906549, 1907112, 1907679, 1908245, 1908813, 1909359]","[151, 154, 139, 149, 96, 115, 121, 71, 48, 72, 102, 101, 103, 74, 67, 89, 107, 120, 136, 155]","[1898481, 1899112, 1899705, 1900309, 1900864, 1901413, 1901953, 1902503, 1903081, 1903632, 1904200, 1904777, 1905332, 1905882, 1906439, 1907002, 1907555, 1908136, 1908674, 1909229]","[1896193, 1896792, 1897392, 1897992, 1898592, 1899192, 1899792, 1900392, 1900901, 1901448, 1901985, 1902539, 1903118, 1903668, 1904234, 1904811, 1905369, 1905920, 1906476, 1907037, 1907590, 1908169, 1908710, 1909265]",56,SB,L,R,ITMSR,1.0,
0,600,trial,0,95,95,95,trial,"['S', 'S', 'S', 'S', 'S', 'C', 'C', 'C', 'C', 'C', 'C', 'C', 'C', 'C', 'C', 'C', 'C', 'C', 'C', 'C', 'C']","[1916611, 1917207, 1917767, 1918389, 1918980, 1919565, 1920135, 1920719, 1921311, 1921896, 1922472, 1923047, 1923617, 1924193, 1924794, 1925357, 1925944, 1926495, 1927055, 1927601, 1928126]","[1916699, 1917274, 1917841, 1918459, 1919048, 1919625, 1920214, 1920797, 1921390, 1921966, 1922550, 1923149, 1923709, 1924282, 1924835, 1925452, 1926021, 1926536, 1927096, 1927642, 1928231]","[134, 123, 88, 121, 129, 93, 78, 35, 22, 64, 7, 19, 242, 213, 111, 127, 101, 82, 135, 167, 157]","[1916613, 1917210, 1917769, 1918392, 1918983, 1919567, 1920137, 1920721, 1921313, 1921898, 1922475, 1923050, 1923620, 1924196, 1924798, 1925360, 1925947, 1926498, 1927059, 1927604, 1928129]","[1914900, 1915499, 1916098, 1916698, 1917298, 1917898, 1918498, 1919098, 1919605, 1920176, 1920759, 1921351, 1921937, 1922512, 1923088, 1923657, 1924234, 1924835, 1925398, 1925985, 1926536, 1927096, 1927642, 1928167]",56,SB,L,R,ITMSR,1.0,
0,400,trial,0,96,96,96,trial,"['S', 'S', 'S', 'S', 'C', 'C', 'C', 'C', 'C', 'C', 'C', 'C', 'C', 'C', 'C', 'C', 'C', 'C', 'C', 'C']","[1935228, 1935640, 1936038, 1936424, 1936816, 1937242, 1937649, 1938030, 1938422, 1938854, 1939263, 1939649, 1940075, 1940474, 1940879, 1941310, 1941701, 1942106, 1942484, 1942853]","[1935338, 1935732, 1936149, 1936560, 1936948, 1937366, 1937762, 1938161, 1938546, 1938950, 1939371, 1939757, 1940169, 1940585, 1940987, 1941410, 1941816, 1942228, 1942604, 1942949]","[147, 111, 129, 135, 98, 65, 37, 58, 39, 175, 105, 150, 197, 154, 185, 136, 50, 90, 115, 166]","[1935233, 1935645, 1936045, 1936489, 1936883, 1937307, 1937655, 1938096, 1938490, 1938898, 1939269, 1939657, 1940082, 1940482, 1940887, 1941319, 1941709, 1942113, 1942492, 1942860]","[1933786, 1934186, 1934585, 1934986, 1935385, 1935785, 1936186, 1936585, 1936857, 1937283, 1937689, 1938070, 1938462, 1938894, 1939304, 1939690, 1940116, 1940514, 1940920, 1941351, 1941741, 1942147, 1942524, 1942893]",56,SB,L,R,ITMSR,1.0,
0,400,trial,0,97,97,97,trial,"['S', 'S', 'S', 'S', 'C', 'C', 'C', 'C', 'C', 'C', 'C', 'C', 'C', 'C', 'C', 'C', 'C', 'C', 'C', 'C']","[1950068, 1950449, 1950853, 1951259, 1951670, 1952091, 1952494, 1952910, 1953310, 1953688, 1954075, 1954498, 1954921, 1955336, 1955724, 1956121, 1956504, 1956886, 1957297, 1957649]","[1950155, 1950523, 1950912, 1951315, 1951711, 1952149, 1952560, 1952951, 1953350, 1953729, 1954115, 1954539, 1954978, 1955393, 1955789, 1956186, 1956567, 1956958, 1957338, 1957714]","[155, 153, 108, 92, 105, 83, 54, 45, 2, 45, 3, 1, 54, 53, 53, 48, 7, 221, 240, 11]","[1950071, 1950452, 1950856, 1951261, 1951672, 1952093, 1952496, 1952912, 1953313, 1953690, 1954077, 1954501, 1954923, 1955338, 1955726, 1956123, 1956507, 1956889, 1957299, 1957651]","[1948557, 1948955, 1949356, 1949756, 1950155, 1950556, 1950956, 1951356, 1951711, 1952132, 1952534, 1952951, 1953350, 1953729, 1954115, 1954539, 1954962, 1955377, 1955765, 1956161, 1956545, 1956927, 1957338, 1957690]",56,SB,L,R,ITMSR,1.0,
2,600,trial,0,98,98,98,trial,"['S', 'S', 'S', 'S', 'S', 'C', 'C', 'C', 'C', 'C', 'C', 'C', 'C', 'C', 'C', 'C', 'C', 'C', 'C', 'C', 'C']","[1965172, 1965749, 1966347, 1966954, 1967568, 1968160, 1968762, 1969334, 1969905, 1970488, 1971056, 1971668, 1972219, 1972762, 1973308, 1973864, 1974448, 1975054, 1975614, 1976172, 1976709]","[1965272, 1965849, 1966449, 1967049, 1967651, 1968236, 1968846, 1969418, 1969996, 1970575, 1971155, 1971768, 1972323, 1972879, 1973443, 1974026, 1974601, 1975165, 1975743, 1976315, 1976850]","[140, 126, 151, 123, 121, 113, 52, 65, 39, 211, 5, 11, 255, 242, 47, 61, 61, 21, 89, 99, 123]","[1965176, 1965754, 1966352, 1966992, 1967606, 1968162, 1968803, 1969376, 1969907, 1970531, 1971059, 1971676, 1972284, 1972765, 1973387, 1973968, 1974539, 1975121, 1975696, 1976262, 1976782]","[1963450, 1964049, 1964649, 1965249, 1965849, 1966449, 1967049, 1967649, 1968200, 1968802, 1969375, 1969945, 1970529, 1971096, 1971708, 1972259, 1972802, 1973349, 1973905, 1974489, 1975095, 1975655, 1976213, 1976750]",56,SB,L,R,ITMSR,1.0,
5,600,trial,0,99,99,99,trial,"['S', 'S', 'S', 'S', 'S', 'C', 'C', 'C', 'C', 'C', 'C', 'C', 'C', 'C', 'C', 'C', 'C', 'C', 'C', 'C', 'C']","[1984227, 1984846, 1985491, 1986073, 1986626, 1987182, 1987768, 1988323, 1988903, 1989474, 1990021, 1990579, 1991159, 1991747, 1992320, 1992888, 1993442, 1994007, 1994591, 1995154, 1995680]","[1984317, 1984927, 1985562, 1986144, 1986711, 1987273, 1987887, 1988451, 1989007, 1989599, 1990160, 1990730, 1991297, 1991868, 1992463, 1993026, 1993589, 1994159, 1994734, 1995296, 1995803]","[180, 179, 149, 114, 159, 154, 113, 112, 44, 62, 89, 104, 87, 93, 94, 81, 82, 72, 53, 57, 92]","[1984229, 1984849, 1985495, 1986073, 1986629, 1987185, 1987773, 1988328, 1988912, 1989480, 1990116, 1990672, 1991247, 1991814, 1992412, 1992968, 1993530, 1994099, 1994676, 1995245, 1995687]","[1982473, 1983073, 1983673, 1984273, 1984873, 1985473, 1986073, 1986673, 1987222, 1987809, 1988364, 1988943, 1989515, 1990062, 1990620, 1991199, 1991788, 1992360, 1992929, 1993483, 1994048, 1994632, 1995195, 1995720]",56,SB,L,R,ITMSR,1.0,
