pitch,ioi,event,.thisRepN,.thisTrialN,.thisN,.thisIndex,event,tap_types,tap_times,release_times,peak_pressures,peak_times,tone_times,subject,experimenter,register,handedness,experiment,version
,,SPR,0,-1,-1,0,SPR,"['P', 'P', 'P', 'P', 'P', 'P', 'P', 'P', 'P', 'P', 'P', 'P', 'P', 'P', 'P', 'P', 'P', 'P', 'P', 'P', 'P', 'P', 'P', 'P', 'P', 'P', 'P', 'P', 'P', 'P']","[14935, 15581, 16252, 16892, 17460, 18015, 18570, 19131, 19681, 20195, 20695, 21209, 21706, 22211, 22719, 22951, 23222, 23730, 24232, 24712, 25182, 25654, 26143, 26601, 27045, 27479, 27923, 28394, 28872, 29345]","[15032, 15674, 16331, 16990, 17541, 18121, 18630, 19303, 19859, 20406, 20987, 21398, 21865, 22405, 22871, 22990, 23486, 23910, 24392, 24857, 25428, 25958, 26417, 26830, 27318, 27756, 28188, 28658, 29120, 29603]","[114, 120, 112, 128, 102, 127, 103, 115, 117, 147, 127, 114, 105, 111, 100, 238, 114, 129, 129, 117, 152, 131, 116, 72, 89, 56, 106, 103, 88, 114]","[14941, 15587, 16259, 16899, 17466, 18021, 18575, 19137, 19688, 20200, 20701, 21214, 21712, 22216, 22724, 22957, 23228, 23735, 24238, 24718, 25188, 25660, 26148, 26608, 27052, 27485, 27929, 28399, 28878, 29350]",,65,EM,L,R,ITMSR,1.1
0,500,practice,0,0,0,0,practice,"['S', 'S', 'S', 'S', 'S', 'S', 'S', 'C', 'C', 'C', 'C', 'C', 'C', 'C', 'C', 'C', 'C', 'C', 'C', 'C', 'C', 'C', 'C']","[108397, 108897, 109411, 109918, 110411, 110921, 111414, 111901, 112385, 112893, 113377, 113905, 114404, 114915, 115419, 115935, 116450, 116989, 117485, 117997, 118499, 118994, 119497]","[108483, 108975, 109491, 109975, 110474, 110974, 111467, 111963, 112456, 112961, 113453, 113978, 114509, 115013, 115545, 116038, 116499, 117033, 117553, 118063, 118566, 119066, 119576]","[155, 203, 171, 175, 159, 169, 180, 175, 172, 182, 185, 173, 180, 176, 163, 170, 177, 160, 177, 187, 182, 168, 169]","[108401, 108901, 109416, 109923, 110416, 110926, 111419, 111906, 112391, 112899, 113383, 113910, 114409, 114921, 115424, 115941, 116455, 116994, 117490, 118002, 118505, 119000, 119502]","[107929, 108429, 108930, 109430, 109930, 110430, 110930, 111430, 111921, 112405, 112913, 113397, 113925, 114424, 114935, 115439, 115955, 116470, 117009, 117506, 118018, 118519, 119014, 119517]",65,EM,L,R,ITMSR,1.1
3,500,practice,0,1,1,1,practice,"['S', 'S', 'S', 'S', 'S', 'S', 'C', 'C', 'C', 'C', 'C', 'C', 'C', 'C', 'C', 'C', 'C', 'C', 'C', 'C', 'C', 'C']","[125839, 126312, 126813, 127326, 127805, 128316, 128835, 129356, 129857, 130349, 130881, 131408, 131913, 132430, 132978, 133502, 134023, 134529, 135064, 135581, 136092, 136623]","[125879, 126418, 126994, 127542, 127988, 128443, 128911, 129477, 129943, 130496, 131030, 131571, 132154, 132719, 133291, 133819, 134305, 134781, 135354, 135905, 136453]","[128, 199, 155, 152, 164, 172, 182, 163, 148, 149, 154, 146, 175, 163, 156, 167, 172, 166, 156, 164, 140]","[125844, 126316, 126819, 127332, 127810, 128321, 128840, 129362, 129862, 130354, 130887, 131414, 131918, 132435, 132983, 133507, 134028, 134534, 135069, 135586, 136099]","[124866, 125366, 125867, 126366, 126866, 127366, 127866, 128366, 128856, 129376, 129878, 130369, 130902, 131428, 131933, 132450, 132998, 133522, 134043, 134549, 135085, 135601, 136112, 136643]",65,EM,L,R,ITMSR,1.1
4,500,practice,0,2,2,2,practice,"['C', 'C', 'C', 'C', 'C', 'C', 'C', 'C', 'C', 'C', 'C', 'C', 'C', 'C', 'C', 'C']","[146020, 146521, 147022, 147542, 148047, 148567, 149071, 149568, 150089, 150597, 151087, 151560, 152039, 152551, 153070, 153610]","[146181, 146797, 147212, 147723, 148234, 148783, 149361, 149897, 150354, 150885, 151393, 151813, 152404, 152879, 153416]","[174, 157, 105, 108, 136, 138, 158, 173, 135, 154, 147, 135, 142, 136, 138]","[146025, 146525, 147028, 147547, 148050, 148572, 149075, 149572, 150094, 150601, 151091, 151564, 152043, 152555, 153074]","[142048, 142548, 143048, 143548, 144048, 144548, 145048, 145548, 146040, 146541, 147042, 147562, 148067, 148587, 149091, 149588, 150109, 150617, 151107, 151580, 152059, 152571, 153090, 153630]",65,EM,L,R,ITMSR,1.1
5,500,practice,0,3,3,3,practice,"['S', 'S', 'S', 'S', 'S', 'S', 'S', 'C', 'C', 'C', 'C', 'C', 'C', 'C', 'C', 'C', 'C', 'C', 'C', 'C', 'C', 'C', 'C']","[159531, 160020, 160531, 161045, 161517, 162035, 162526, 163052, 163558, 164066, 164581, 165079, 165620, 166114, 166623, 167093, 167553, 168075, 168584, 169099, 169572, 170049, 170551]","[159763, 160288, 160838, 161301, 161822, 162294, 162764, 163378, 163912, 164413, 164901, 165423, 165919, 166432, 166943, 167420, 167892, 168385, 168876, 169385, 169892, 170360]","[152, 176, 143, 135, 161, 157, 164, 152, 154, 154, 161, 157, 160, 171, 161, 170, 154, 147, 143, 144, 154, 126]","[159536, 160025, 160535, 161049, 161522, 162039, 162530, 163056, 163564, 164070, 164586, 165084, 165624, 166118, 166628, 167097, 167558, 168080, 168588, 169104, 169576, 170055]","[159076, 159576, 160076, 160576, 161076, 161576, 162076, 162576, 163073, 163578, 164086, 164601, 165099, 165640, 166134, 166643, 167113, 167573, 168095, 168604, 169119, 169592, 170070, 170571]",65,EM,L,R,ITMSR,1.1
2,500,practice,0,4,4,4,practice,"['S', 'S', 'S', 'S', 'S', 'S', 'C', 'C', 'C', 'C', 'C', 'C', 'C', 'C', 'C', 'C', 'C', 'C', 'C', 'C', 'C', 'C']","[176850, 177336, 177819, 178333, 178872, 179375, 179869, 180348, 180887, 181401, 181922, 182429, 182920, 183449, 183965, 184459, 184970, 185481, 185974, 186497, 187001, 187461]","[177054, 177612, 178141, 178688, 179102, 179644, 180066, 180629, 181206, 181721, 182220, 182744, 183231, 183748, 184252, 184763, 185253, 185737, 186226, 186755, 187226]","[155, 155, 141, 143, 141, 169, 159, 147, 140, 144, 151, 141, 121, 128, 143, 95, 66, 129, 102, 80, 101]","[176856, 177340, 177824, 178338, 178877, 179379, 179876, 180354, 180892, 181405, 181927, 182433, 182925, 183454, 183969, 184465, 184976, 185486, 185979, 186503, 187006]","[175873, 176372, 176872, 177372, 177872, 178372, 178872, 179373, 179889, 180368, 180908, 181421, 181942, 182449, 182940, 183469, 183985, 184479, 184990, 185501, 185994, 186517, 187021, 187481]",65,EM,L,R,ITMSR,1.1
1,500,practice,0,5,5,5,practice,"['S', 'S', 'S', 'S', 'C', 'C', 'C', 'C', 'C', 'C', 'C', 'C', 'C', 'C', 'C', 'C', 'C', 'C', 'C', 'C']","[194782, 195304, 195801, 196325, 196850, 197339, 197850, 198359, 198887, 199394, 199924, 200451, 200969, 201484, 202018, 202534, 203069, 203601, 204096, 204640]","[194955, 195544, 196076, 196614, 197125, 197650, 198126, 198653, 199187, 199710, 200217, 200697, 201224, 201808, 202293, 202864, 203399, 203876, 204371]","[161, 147, 146, 131, 123, 127, 101, 97, 86, 84, 112, 55, 51, 92, 37, 58, 85, 78, 50]","[194786, 195308, 195805, 196330, 196855, 197343, 197856, 198364, 198892, 199400, 199929, 200601, 200975, 201489, 202184, 202541, 203075, 203608, 204254]","[192843, 193343, 193843, 194343, 194843, 195343, 195843, 196343, 196870, 197359, 197870, 198379, 198907, 199414, 199944, 200471, 200989, 201504, 202038, 202554, 203089, 203621, 204116, 204660]",65,EM,L,R,ITMSR,1.1
4,600,trial,0,6,6,6,trial,"['S', 'S', 'S', 'S', 'S', 'S', 'S', 'C', 'C', 'C', 'C', 'C', 'C', 'C', 'C', 'C', 'C', 'C', 'C', 'C', 'C', 'C', 'C']","[313457, 314178, 314765, 315444, 316021, 316602, 317219, 317830, 318469, 319080, 319727, 320340, 320963, 321583, 322207, 322827, 323449, 324051, 324662, 325286, 325892, 326521, 327162]","[313548, 314343, 315122, 315777, 316343, 316961, 317623, 318253, 318867, 319451, 320045, 320719, 321337, 321932, 322570, 323236, 323818, 324422, 325038, 325645, 326239, 326862]","[161, 171, 153, 165, 118, 135, 74, 85, 85, 59, 77, 97, 83, 41, 34, 23, 29, 11, 12, 1, 19, 45]","[313462, 314183, 314769, 315448, 316026, 316607, 317225, 317835, 318474, 319323, 319733, 320347, 320969, 321588, 322449, 323123, 323676, 324286, 324924, 325500, 326096, 326678]","[313053, 313652, 314252, 314852, 315452, 316052, 316652, 317252, 317850, 318489, 319100, 319747, 320360, 320984, 321603, 322227, 322847, 323469, 324071, 324682, 325306, 325912, 326541, 327182]",65,EM,L,R,ITMSR,1.1
5,600,trial,0,7,7,7,trial,"['S', 'S', 'S', 'S', 'S', 'S', 'C', 'C', 'C', 'C', 'C', 'C', 'C', 'C', 'C', 'C', 'C', 'C', 'C', 'C', 'C', 'C']","[334018, 334578, 335219, 335835, 336434, 337015, 337615, 338224, 338821, 339412, 340011, 340578, 341168, 341773, 342355, 343009, 343626, 344204, 344806, 345376, 345988, 346596]","[334257, 334938, 335560, 336177, 336737, 337403, 337982, 338579, 339161, 339766, 340362, 340928, 341545, 342073, 342703, 343279, 343910, 344542, 345143, 345716, 346328]","[102, 121, 102, 74, 119, 86, 47, 26, 55, 49, 53, 61, 243, 244, 22, 252, 33, 216, 255, 239, 173]","[334024, 334584, 335224, 335841, 336439, 337020, 337622, 338229, 339036, 339688, 340246, 340798, 341462, 341939, 342609, 343208, 343833, 344411, 345029, 345636, 346164]","[332861, 333461, 334061, 334661, 335261, 335861, 336461, 337061, 337635, 338244, 338841, 339432, 340031, 340598, 341188, 341793, 342375, 343029, 343646, 344224, 344826, 345396, 346008, 346616]",65,EM,L,R,ITMSR,1.1
0,600,trial,0,8,8,8,trial,"['S', 'S', 'S', 'S', 'S', 'S', 'C', 'C', 'C', 'C', 'C', 'C', 'C', 'C', 'C', 'C', 'C', 'C', 'C', 'C', 'C', 'C']","[353496, 354104, 354749, 355325, 355924, 356510, 357105, 357746, 358340, 358898, 359486, 360082, 360646, 361248, 361878, 362458, 363043, 363624, 364205, 364772, 365393, 365984]","[353771, 354441, 355054, 355634, 356261, 356842, 357465, 358040, 358636, 359244, 359790, 360397, 360955, 361497, 362178, 362737, 363291, 363931, 364531, 365122, 365692]","[22, 76, 77, 63, 103, 214, 202, 189, 82, 97, 129, 78, 64, 62, 31, 97, 94, 11, 156, 170, 103]","[353605, 354109, 354754, 355332, 356171, 356516, 357317, 357914, 358392, 359116, 359593, 360232, 360772, 361379, 362076, 362568, 363186, 363868, 364342, 364898, 365546]","[352374, 352973, 353573, 354173, 354774, 355373, 355973, 356573, 357125, 357766, 358360, 358918, 359506, 360102, 360666, 361268, 361899, 362478, 363063, 363644, 364225, 364792, 365413, 366004]",65,EM,L,R,ITMSR,1.1
2,400,trial,0,9,9,9,trial,"['S', 'S', 'S', 'S', 'S', 'S', 'S', 'C', 'C', 'C', 'C', 'C', 'C', 'C', 'C', 'C', 'C', 'C', 'C', 'C', 'C', 'C', 'C', 'C']","[372263, 372600, 372922, 373329, 373712, 374098, 374503, 374885, 374985, 375299, 375664, 376066, 376460, 376858, 377278, 377669, 378054, 378445, 378820, 379204, 379597, 379990, 380375, 380741]","[372475, 372707, 373071, 373442, 373793, 374189, 374558, 374905, 375005, 375394, 375756, 376172, 376539, 376960, 377387, 377815, 378180, 378570, 378950, 379350, 379731, 380107, 380490, 380870]","[47, 29, 161, 157, 90, 57, 58, 109, 126, 94, 26, 173, 64, 226, 42, 211, 215, 243, 214, 152, 169, 201, 147, 176]","[372269, 372644, 372926, 373334, 373718, 374105, 374508, 374890, 374985, 375304, 375669, 376122, 376470, 376864, 377323, 377755, 378129, 378452, 378907, 379287, 379670, 380035, 380431, 380749]","[371756, 372155, 372555, 372955, 373355, 373755, 374155, 374555, 374905, 375319, 375684, 376086, 376480, 376878, 377298, 377689, 378074, 378465, 378840, 379224, 379617, 380010, 380395, 380761]",65,EM,L,R,ITMSR,1.1
3,600,trial,0,10,10,10,trial,"['S', 'S', 'S', 'S', 'C', 'C', 'C', 'C', 'C', 'C', 'C', 'C', 'C', 'C', 'C', 'C', 'C', 'C', 'C', 'C']","[388562, 389185, 389756, 390363, 390972, 391534, 392123, 392723, 393309, 393885, 394458, 395089, 395678, 396276, 396860, 397471, 398048, 398623, 399202, 399807]","[388760, 389486, 390060, 390691, 391292, 391861, 392422, 393012, 393653, 394212, 394790, 395412, 396015, 396592, 397193, 397811, 398402, 398929, 399590]","[108, 58, 248, 3, 7, 224, 187, 7, 247, 241, 14, 15, 15, 193, 7, 195, 201, 207, 240]","[388568, 389190, 389763, 390497, 391164, 391645, 392250, 392849, 393472, 394105, 394661, 395274, 395921, 396500, 397111, 397710, 398253, 398825, 399498]","[386213, 386813, 387414, 388013, 388613, 389213, 389813, 390413, 390992, 391554, 392143, 392743, 393329, 393905, 394478, 395109, 395698, 396296, 396880, 397491, 398068, 398643, 399222, 399827]",65,EM,L,R,ITMSR,1.1
1,400,trial,0,11,11,11,trial,"['S', 'S', 'S', 'S', 'C', 'C', 'C', 'C', 'C', 'C', 'C', 'C', 'C', 'C', 'C', 'C', 'C', 'C', 'C', 'C']","[406677, 407077, 407518, 407887, 408274, 408650, 409079, 409462, 409833, 410194, 410576, 410953, 411343, 411709, 412063, 412468, 412873, 413265, 413645, 414012]","[406771, 407205, 407586, 407973, 408368, 408775, 409166, 409552, 409929, 410310, 410690, 411044, 411459, 411815, 412165, 412581, 412973, 413358, 413754, 414129]","[89, 101, 52, 70, 56, 38, 5, 40, 169, 197, 194, 243, 199, 219, 196, 247, 222, 179, 201, 202]","[406681, 407081, 407522, 407892, 408281, 408655, 409085, 409466, 409838, 410200, 410583, 410959, 411402, 411715, 412068, 412521, 412879, 413273, 413652, 414019]","[405153, 405553, 405953, 406353, 406753, 407153, 407554, 407954, 408294, 408670, 409099, 409482, 409853, 410214, 410596, 410973, 411363, 411729, 412083, 412488, 412893, 413285, 413665, 414032]",65,EM,L,R,ITMSR,1.1
2,600,trial,0,12,12,12,trial,"['S', 'S', 'S', 'S', 'S', 'S', 'C', 'C', 'C', 'C', 'C', 'C', 'C', 'C', 'C', 'C', 'C', 'C', 'C', 'C', 'C', 'C']","[420803, 421421, 422012, 422630, 423230, 423821, 424434, 425022, 425590, 426242, 426858, 427494, 428080, 428709, 429305, 429892, 430495, 431130, 431772, 432342, 432949, 433587]","[421080, 421777, 422372, 422980, 423554, 424176, 424766, 425363, 425959, 426585, 427217, 427816, 428437, 429009, 429641, 430264, 430917, 431475, 432096, 432711, 433243]","[87, 75, 31, 14, 12, 182, 245, 234, 77, 6, 235, 157, 31, 201, 236, 220, 229, 254, 220, 37, 74]","[420807, 421426, 422019, 422635, 423235, 424009, 424669, 425253, 425820, 426423, 427019, 427704, 428316, 428907, 429555, 430182, 430831, 431372, 431987, 432609, 433123]","[419646, 420246, 420846, 421446, 422046, 422646, 423246, 423846, 424454, 425042, 425610, 426262, 426878, 427514, 428100, 428729, 429325, 429912, 430515, 431150, 431792, 432362, 432969, 433607]",65,EM,L,R,ITMSR,1.1
4,600,trial,0,13,13,13,trial,"['S', 'S', 'S', 'S', 'S', 'S', 'S', 'C', 'C', 'C', 'C', 'C', 'C', 'C', 'C', 'C', 'C', 'C', 'C', 'C', 'C', 'C', 'C']","[439728, 440414, 440998, 441619, 442186, 442780, 443393, 443973, 444614, 445212, 445797, 446370, 446957, 447559, 448159, 448760, 449415, 450019, 450605, 451213, 451807, 452374, 452976]","[440080, 440722, 441309, 441939, 442552, 443111, 443699, 444362, 444908, 445533, 446086, 446731, 447269, 447898, 448449, 449120, 449732, 450375, 451015, 451590, 452134, 452728]","[111, 86, 52, 57, 65, 63, 0, 46, 38, 248, 243, 14, 28, 208, 35, 79, 199, 10, 35, 255, 40, 76]","[439733, 440419, 441194, 441850, 442444, 443006, 443617, 444266, 444811, 445451, 445977, 446649, 447156, 447813, 448355, 449024, 449636, 450272, 450907, 451417, 452007, 452553]","[439251, 439852, 440451, 441051, 441651, 442251, 442851, 443451, 443993, 444634, 445232, 445817, 446390, 446978, 447579, 448179, 448780, 449435, 450039, 450625, 451233, 451827, 452395, 452996]",65,EM,L,R,ITMSR,1.1
2,600,trial,0,14,14,14,trial,"['S', 'S', 'S', 'S', 'S', 'S', 'S', 'C', 'C', 'C', 'C', 'C', 'C', 'C', 'C', 'C', 'C', 'C', 'C', 'C', 'C', 'C', 'C']","[459301, 459874, 460442, 461056, 461628, 462242, 462844, 463477, 464101, 464714, 465295, 465910, 466492, 467084, 467702, 468296, 468957, 469526, 470138, 470746, 471302, 471901, 472483]","[459553, 460175, 460824, 461385, 461962, 462578, 463230, 463862, 464463, 465020, 465667, 466219, 466825, 467409, 467992, 468689, 469249, 469877, 470471, 471023, 471661, 472214]","[107, 69, 86, 53, 85, 45, 51, 70, 22, 62, 30, 52, 75, 94, 103, 113, 252, 68, 53, 89, 102, 68]","[459443, 459881, 460726, 461300, 461842, 462493, 463052, 463754, 464296, 464925, 465545, 466049, 466731, 467257, 467903, 468485, 469156, 469734, 470338, 470945, 471486, 472030]","[458721, 459321, 459921, 460521, 461121, 461721, 462321, 462921, 463497, 464121, 464734, 465315, 465930, 466512, 467104, 467722, 468316, 468977, 469547, 470158, 470766, 471322, 471921, 472503]",65,EM,L,R,ITMSR,1.1
3,400,trial,0,15,15,15,trial,"['S', 'S', 'S', 'S', 'S', 'S', 'S', 'C', 'C', 'C', 'C', 'C', 'C', 'C', 'C', 'C', 'C', 'C', 'C', 'C', 'C', 'C', 'C']","[478482, 478732, 479115, 479511, 479898, 480321, 480709, 481106, 481467, 481871, 482272, 482682, 483075, 483471, 483893, 484321, 484713, 485097, 485527, 485933, 486319, 486686, 487085]","[478540, 478886, 479271, 479714, 480102, 480522, 480918, 481252, 481704, 482052, 482479, 482874, 483225, 483678, 484105, 484507, 484939, 485335, 485731, 486113, 486434, 486882, 487285]","[204, 118, 115, 75, 89, 98, 81, 61, 54, 52, 22, 10, 19, 247, 18, 238, 245, 54, 23, 27, 63, 223, 210]","[478492, 478813, 479120, 479517, 479904, 480327, 480809, 481187, 481473, 481963, 482403, 482772, 483081, 483571, 484004, 484413, 484844, 485215, 485655, 486035, 486373, 486781, 487145]","[477939, 478339, 478739, 479139, 479539, 479939, 480339, 480739, 481126, 481487, 481891, 482292, 482702, 483095, 483491, 483913, 484341, 484733, 485117, 485548, 485953, 486339, 486706, 487105]",65,EM,L,R,ITMSR,1.1
1,600,trial,0,16,16,16,trial,"['S', 'S', 'S', 'S', 'S', 'S', 'C', 'C', 'C', 'C', 'C', 'C', 'C', 'C', 'C', 'C', 'C', 'C', 'C', 'C', 'C', 'C']","[493717, 494347, 494951, 495527, 496137, 496746, 497405, 497925, 498500, 499100, 499692, 500296, 500843, 501407, 502031, 502626, 503181, 503777, 504372, 504965, 505523, 506175]","[494042, 494676, 495281, 495911, 496522, 497129, 497777, 498279, 498845, 499380, 499976, 500533, 501157, 501764, 502306, 502921, 503516, 504090, 504687, 505284, 505896]","[72, 58, 35, 76, 45, 25, 219, 116, 66, 51, 15, 191, 39, 52, 65, 24, 42, 28, 49, 3, 25]","[493883, 494565, 495193, 495773, 496423, 497015, 497496, 498129, 498685, 499277, 499842, 500448, 500995, 501563, 502205, 502798, 503377, 503964, 504532, 505151, 505715]","[492593, 493193, 493793, 494393, 494993, 495593, 496193, 496793, 497425, 497945, 498520, 499120, 499713, 500316, 500864, 501427, 502051, 502646, 503201, 503797, 504392, 504985, 505543, 506195]",65,EM,L,R,ITMSR,1.1
0,400,trial,0,17,17,17,trial,"['S', 'S', 'S', 'S', 'C', 'C', 'C', 'C', 'C', 'C', 'C', 'C', 'C', 'C', 'C', 'C', 'C', 'C', 'C', 'C', 'C']","[513302, 513699, 514112, 514507, 514917, 515308, 515714, 516116, 516510, 516912, 517314, 517749, 518153, 518525, 518909, 519315, 519415, 519721, 520110, 520543, 520934]","[513423, 513802, 514285, 514723, 515141, 515517, 515892, 516307, 516675, 517084, 517475, 517848, 518295, 518665, 519046, 519335, 519442, 519867, 520239, 520670, 521049]","[121, 113, 123, 102, 109, 44, 21, 57, 16, 23, 25, 255, 25, 9, 232, 14, 178, 33, 254, 45, 19]","[513308, 513704, 514117, 514512, 514923, 515402, 515795, 516121, 516600, 516964, 517414, 517800, 518160, 518531, 518915, 519320, 519415, 519777, 520183, 520608, 520981]","[511764, 512164, 512564, 512964, 513364, 513764, 514164, 514564, 514937, 515329, 515734, 516136, 516530, 516932, 517335, 517769, 518173, 518545, 518929, 519335, 519741, 520130, 520563, 520954]",65,EM,L,R,ITMSR,1.1
0,600,trial,0,18,18,18,trial,"['S', 'S', 'S', 'S', 'S', 'S', 'C', 'C', 'C', 'C', 'C', 'C', 'C', 'C', 'C', 'C', 'C', 'C', 'C', 'C', 'C', 'C']","[527546, 528168, 528744, 529295, 529918, 530518, 531181, 531788, 532401, 532994, 533616, 534195, 534817, 535414, 536009, 536613, 537220, 537826, 538416, 539040, 539618, 540219]","[527671, 528316, 529003, 529561, 530244, 530889, 531535, 532146, 532712, 533347, 533924, 534569, 535135, 535715, 536347, 536932, 537516, 538136, 538752, 539377, 539986]","[96, 73, 117, 82, 13, 66, 90, 89, 122, 17, 116, 108, 105, 107, 92, 86, 78, 70, 43, 92, 98]","[527552, 528176, 528750, 529378, 529925, 530742, 531186, 531997, 532521, 533104, 533788, 534443, 534993, 535555, 536197, 536837, 537398, 538049, 538625, 539231, 539768]","[526382, 526982, 527582, 528182, 528782, 529382, 529982, 530582, 531202, 531808, 532421, 533014, 533636, 534215, 534837, 535434, 536029, 536633, 537240, 537846, 538436, 539060, 539638, 540239]",65,EM,L,R,ITMSR,1.1
5,400,trial,0,19,19,19,trial,"['S', 'S', 'S', 'S', 'S', 'S', 'S', 'C', 'C', 'C', 'C', 'C', 'C', 'C', 'C', 'C', 'C', 'C', 'C', 'C', 'C', 'C', 'C']","[546095, 546453, 546851, 547248, 547628, 548052, 548458, 548918, 549367, 549766, 550150, 550529, 550907, 551284, 551693, 552110, 552498, 552900, 553321, 553744, 554138, 554529, 554948]","[546226, 546675, 547098, 547466, 547885, 548298, 548698, 549132, 549552, 549955, 550330, 550724, 551092, 551493, 551908, 552300, 552694, 553125, 553517, 553922, 554321, 554747, 555140]","[106, 138, 129, 96, 97, 87, 97, 97, 122, 115, 119, 105, 104, 98, 114, 122, 112, 108, 106, 29, 76, 94, 106]","[546100, 546458, 546855, 547253, 547633, 548179, 548609, 548974, 549435, 549860, 550215, 550534, 551003, 551415, 551776, 552192, 552589, 552905, 553417, 553793, 554249, 554647, 555028]","[545644, 546043, 546443, 546843, 547244, 547643, 548043, 548443, 548938, 549387, 549786, 550170, 550549, 550927, 551304, 551713, 552130, 552518, 552920, 553341, 553764, 554158, 554549, 554968]",65,EM,L,R,ITMSR,1.1
5,400,trial,0,20,20,20,trial,"['S', 'S', 'S', 'S', 'S', 'S', 'S', 'C', 'C', 'C', 'C', 'C', 'C', 'C', 'C', 'C', 'C', 'C', 'C', 'C', 'C', 'C', 'C']","[561158, 561538, 561913, 562300, 562707, 563113, 563524, 563907, 564291, 564738, 565131, 565539, 565912, 566340, 566745, 567154, 567555, 567944, 568325, 568733, 569166, 569562, 569992]","[561309, 561691, 562066, 562479, 562933, 563334, 563704, 564140, 564502, 564894, 565296, 565678, 566065, 566471, 566889, 567282, 567665, 568107, 568487, 568915, 569303, 569719, 570133]","[128, 98, 74, 89, 88, 79, 81, 64, 73, 5, 247, 52, 56, 22, 31, 134, 221, 239, 241, 234, 22, 55, 79]","[561252, 561544, 561921, 562382, 562819, 563250, 563619, 564000, 564417, 564789, 565227, 565602, 565975, 566402, 566824, 567209, 567592, 567994, 568417, 568825, 569174, 569641, 570072]","[560751, 561152, 561551, 561951, 562351, 562751, 563151, 563551, 563928, 564312, 564758, 565151, 565559, 565933, 566360, 566765, 567174, 567575, 567964, 568345, 568753, 569186, 569582, 570012]",65,EM,L,R,ITMSR,1.1
1,600,trial,0,21,21,21,trial,"['S', 'S', 'S', 'S', 'S', 'S', 'C', 'C', 'C', 'C', 'C', 'C', 'C', 'C', 'C', 'C', 'C', 'C', 'C', 'C', 'C', 'C']","[576742, 577283, 577906, 578510, 579108, 579703, 580304, 580887, 581476, 582052, 582660, 583263, 583849, 584429, 584995, 585604, 586208, 586801, 587360, 587957, 588541, 589114]","[576973, 577649, 578263, 578882, 579483, 580019, 580663, 581235, 581803, 582417, 583027, 583591, 584160, 584772, 585372, 585911, 586509, 587108, 587710, 588273, 588856]","[92, 84, 82, 68, 50, 64, 41, 42, 69, 94, 48, 211, 7, 5, 77, 72, 101, 128, 109, 95, 123]","[576747, 577290, 578155, 578771, 579390, 579935, 580559, 581014, 581675, 582217, 582786, 583379, 583994, 584566, 585137, 585760, 586364, 586919, 587533, 588160, 588718]","[575561, 576161, 576761, 577361, 577961, 578562, 579162, 579762, 580324, 580908, 581496, 582072, 582680, 583283, 583869, 584450, 585015, 585624, 586228, 586821, 587380, 587977, 588561, 589134]",65,EM,L,R,ITMSR,1.1
4,400,trial,0,22,22,22,trial,"['S', 'S', 'S', 'S', 'C', 'C', 'C', 'C', 'C', 'C', 'C', 'C', 'C', 'C', 'C', 'C', 'C', 'C', 'C', 'C']","[596451, 596852, 597254, 597668, 598074, 598496, 598927, 599344, 599725, 600169, 600573, 600984, 601376, 601780, 602221, 602613, 603046, 603444, 603900, 604310]","[596633, 597067, 597469, 597918, 598286, 598699, 599120, 599517, 599944, 600352, 600749, 601142, 601563, 601968, 602384, 602782, 603231, 603618, 604056, 604455]","[107, 122, 108, 124, 137, 121, 94, 113, 132, 84, 93, 8, 80, 67, 61, 83, 21, 60, 43, 36]","[596456, 596944, 597388, 597774, 598201, 598595, 599022, 599420, 599834, 600227, 600669, 601068, 601469, 601868, 602300, 602707, 603103, 603547, 603953, 604378]","[594900, 595300, 595700, 596100, 596500, 596900, 597300, 597700, 598094, 598516, 598947, 599364, 599745, 600189, 600593, 601005, 601396, 601800, 602242, 602633, 603066, 603464, 603920, 604331]",65,EM,L,R,ITMSR,1.1
4,400,trial,0,23,23,23,trial,"['S', 'S', 'S', 'S', 'S', 'S', 'S', 'C', 'C', 'C', 'C', 'C', 'C', 'C', 'C', 'C', 'C', 'C', 'C', 'C', 'C', 'C', 'C']","[610339, 610696, 611106, 611511, 611888, 612307, 612709, 613088, 613471, 613869, 614304, 614679, 615056, 615451, 615831, 616228, 616630, 617017, 617402, 617802, 618214, 618619, 619004]","[610470, 610883, 611302, 611691, 612090, 612487, 612856, 613264, 613652, 614059, 614452, 614857, 615245, 615629, 616019, 616402, 616814, 617228, 617598, 617992, 618411, 618825, 619218]","[104, 112, 85, 112, 91, 54, 188, 47, 36, 66, 239, 63, 53, 63, 61, 38, 51, 53, 52, 91, 88, 94, 65]","[610393, 610702, 611190, 611605, 612003, 612389, 612764, 613177, 613560, 613979, 614372, 614771, 615156, 615547, 615919, 616326, 616734, 617143, 617493, 617901, 618327, 618717, 619085]","[609915, 610315, 610715, 611116, 611515, 611915, 612315, 612715, 613108, 613491, 613890, 614324, 614700, 615076, 615471, 615852, 616248, 616650, 617037, 617422, 617822, 618234, 618639, 619024]",65,EM,L,R,ITMSR,1.1
0,400,trial,0,24,24,24,trial,"['S', 'S', 'S', 'S', 'S', 'S', 'S', 'C', 'C', 'C', 'C', 'C', 'C', 'C', 'C', 'C', 'C', 'C', 'C', 'C', 'C', 'C', 'C']","[624997, 625453, 625861, 626251, 626648, 627030, 627435, 627843, 628221, 628637, 629031, 629416, 629819, 630234, 630630, 631019, 631394, 631796, 632200, 632649, 633024, 633427, 633849]","[625234, 625664, 626049, 626455, 626824, 627239, 627632, 628036, 628416, 628838, 629198, 629611, 630026, 630423, 630800, 631200, 631586, 631992, 632415, 632815, 633222, 633600, 633976]","[103, 75, 78, 66, 70, 91, 84, 66, 85, 113, 62, 111, 84, 81, 39, 27, 19, 238, 83, 52, 94, 74, 139]","[625069, 625531, 625943, 626317, 626717, 627140, 627502, 627937, 628307, 628737, 629101, 629521, 629916, 630344, 630721, 631119, 631510, 631917, 632303, 632728, 633129, 633524, 633902]","[624680, 625080, 625480, 625880, 626280, 626680, 627080, 627480, 627863, 628241, 628657, 629051, 629436, 629839, 630254, 630650, 631040, 631414, 631816, 632220, 632669, 633044, 633447, 633869]",65,EM,L,R,ITMSR,1.1
3,400,trial,0,25,25,25,trial,"['S', 'S', 'S', 'S', 'C', 'C', 'C', 'C', 'C', 'C', 'C', 'C', 'C', 'C', 'C', 'C', 'C', 'C', 'C', 'C']","[640913, 641298, 641723, 642129, 642539, 642969, 643382, 643794, 644202, 644630, 645041, 645449, 645868, 646309, 646729, 647129, 647537, 647891, 648337, 648728]","[641104, 641511, 641927, 642365, 642785, 643203, 643607, 644001, 644417, 644845, 645255, 645669, 646083, 646516, 646920, 647335, 647711, 648111, 648499, 648905]","[93, 112, 104, 124, 97, 105, 105, 106, 108, 107, 116, 110, 103, 88, 98, 89, 33, 56, 217, 26]","[640972, 641386, 641813, 642227, 642657, 643066, 643509, 643903, 644320, 644722, 645145, 645548, 645967, 646391, 646822, 647225, 647639, 648009, 648423, 648822]","[639371, 639771, 640172, 640571, 640971, 641371, 641771, 642171, 642560, 642989, 643402, 643814, 644222, 644651, 645061, 645469, 645889, 646329, 646749, 647149, 647557, 647911, 648357, 648749]",65,EM,L,R,ITMSR,1.1
3,600,trial,0,26,26,26,trial,"['S', 'S', 'S', 'S', 'C', 'C', 'C', 'C', 'C', 'C', 'C', 'C', 'C', 'C', 'C', 'C', 'C', 'C', 'C', 'C']","[656423, 657012, 657634, 658234, 658839, 659471, 660071, 660674, 661262, 661842, 662466, 663062, 663625, 664255, 664849, 665404, 666025, 666659, 667239, 667840]","[656711, 657363, 657982, 658590, 659229, 659832, 660442, 660993, 661572, 662230, 662802, 663389, 664014, 664568, 665166, 665816, 666376, 666955, 667599]","[99, 105, 106, 111, 107, 83, 63, 40, 95, 102, 53, 71, 104, 51, 115, 73, 77, 107, 76]","[656593, 657250, 657845, 658472, 659072, 659592, 660272, 660840, 661462, 662039, 662685, 663203, 663877, 664413, 664964, 665647, 666220, 666812, 667460]","[654100, 654700, 655300, 655900, 656500, 657100, 657700, 658300, 658860, 659491, 660091, 660695, 661282, 661862, 662487, 663083, 663645, 664275, 664869, 665424, 666045, 666679, 667259, 667860]",65,EM,L,R,ITMSR,1.1
5,600,trial,0,27,27,27,trial,"['S', 'S', 'S', 'S', 'C', 'C', 'C', 'C', 'C', 'C', 'C', 'C', 'C', 'C', 'C', 'C', 'C', 'C', 'C', 'C']","[675907, 676558, 677131, 677737, 678342, 678967, 679569, 680170, 680786, 681380, 682017, 682724, 683335, 683918, 684508, 685078, 685663, 686243, 686867, 687464]","[676286, 676922, 677520, 678135, 678736, 679334, 679918, 680554, 681135, 681760, 682396, 682963, 683667, 684254, 684811, 685422, 685992, 686612, 687150]","[36, 241, 8, 28, 37, 16, 6, 236, 250, 22, 142, 122, 163, 207, 252, 45, 63, 11, 8]","[676147, 676683, 677347, 677986, 678610, 679200, 679808, 680445, 681016, 681655, 682284, 682896, 683547, 684129, 684692, 685279, 685875, 686521, 687051]","[673505, 674105, 674705, 675305, 675905, 676505, 677105, 677705, 678362, 678987, 679589, 680190, 680806, 681400, 682037, 682744, 683355, 683938, 684528, 685099, 685683, 686263, 686887, 687484]",65,EM,L,R,ITMSR,1.1
1,400,trial,0,28,28,28,trial,"['S', 'S', 'S', 'S', 'S', 'S', 'C', 'C', 'C', 'C', 'C', 'C', 'C', 'C', 'C', 'C', 'C', 'C', 'C', 'C', 'C', 'C']","[693911, 694312, 694727, 695109, 695521, 695944, 696351, 696735, 697134, 697543, 697981, 698388, 698814, 699217, 699630, 700013, 700431, 700838, 701241, 701633, 702045, 702435]","[694032, 694490, 694873, 695301, 695712, 696180, 696546, 696965, 697329, 697779, 698152, 698607, 699000, 699404, 699816, 700211, 700628, 701039, 701428, 701817, 702235, 702654]","[51, 207, 19, 10, 196, 50, 250, 223, 253, 238, 245, 236, 202, 210, 242, 225, 246, 246, 222, 238, 230, 255]","[693916, 694319, 694734, 695115, 695529, 695950, 696444, 696742, 697245, 697710, 698066, 698479, 698919, 699296, 699687, 700072, 700525, 700943, 701351, 701720, 702051, 702550]","[693167, 693567, 693967, 694367, 694767, 695168, 695567, 695967, 696371, 696755, 697154, 697563, 698001, 698408, 698834, 699237, 699650, 700034, 700451, 700858, 701261, 701654, 702065, 702455]",65,EM,L,R,ITMSR,1.1
2,400,trial,0,29,29,29,trial,"['S', 'S', 'S', 'S', 'C', 'C', 'C', 'C', 'C', 'C', 'C', 'C', 'C', 'C', 'C', 'C', 'C', 'C', 'C', 'C']","[709551, 709931, 710333, 710720, 711122, 711513, 711924, 712344, 712764, 713138, 713524, 713929, 714304, 714700, 715111, 715516, 715913, 716301, 716690, 717122]","[709645, 710063, 710483, 710875, 711282, 711719, 712113, 712531, 712913, 713325, 713712, 714138, 714491, 714912, 715288, 715714, 716093, 716528, 716914, 717338]","[64, 76, 94, 67, 42, 41, 202, 242, 12, 2, 19, 9, 192, 211, 166, 237, 236, 194, 10, 23]","[709556, 709937, 710338, 710726, 711129, 711519, 711932, 712349, 712770, 713145, 713529, 713935, 714312, 714828, 715205, 715523, 715994, 716396, 716820, 717239]","[707979, 708378, 708779, 709178, 709578, 709978, 710378, 710778, 711142, 711533, 711944, 712365, 712784, 713158, 713544, 713949, 714324, 714720, 715131, 715536, 715933, 716321, 716710, 717143]",65,EM,L,R,ITMSR,1.1
0,600,trial,0,30,30,30,trial,"['S', 'S', 'S', 'S', 'S', 'S', 'S', 'C', 'C', 'C', 'C', 'C', 'C', 'C', 'C', 'C', 'C', 'C', 'C', 'C', 'C', 'C', 'C']","[751157, 751969, 752604, 753183, 753739, 754379, 754975, 755579, 756185, 756776, 757345, 757944, 758545, 759157, 759736, 760308, 760933, 761529, 762110, 762715, 763313, 763923, 764488]","[751243, 752195, 752920, 753505, 754121, 754749, 755391, 755966, 756539, 757113, 757713, 758366, 758951, 759521, 760066, 760706, 761271, 761874, 762429, 763036, 763639, 764212]","[118, 100, 43, 250, 246, 252, 4, 248, 227, 210, 208, 227, 221, 204, 183, 1, 220, 250, 253, 3, 164, 212]","[751161, 751974, 752610, 753189, 753925, 754386, 754981, 755720, 756438, 756950, 757557, 758133, 758862, 759365, 759951, 760617, 761128, 761793, 762118, 762941, 763506, 764096]","[750830, 751429, 752029, 752629, 753229, 753829, 754429, 755030, 755599, 756205, 756796, 757365, 757964, 758565, 759177, 759756, 760328, 760953, 761549, 762130, 762735, 763333, 763943, 764508]",65,EM,L,R,ITMSR,1.1
4,400,trial,0,31,31,31,trial,"['S', 'S', 'S', 'S', 'C', 'C', 'C', 'C', 'C', 'C', 'C', 'C', 'C', 'C', 'C', 'C', 'C', 'C', 'C', 'C']","[771860, 772216, 772606, 772984, 773396, 773779, 774203, 774614, 775018, 775397, 775838, 776254, 776686, 777112, 777515, 777896, 778330, 778707, 779101, 779511]","[772007, 772404, 772781, 773161, 773598, 773991, 774383, 774787, 775191, 775572, 775986, 776413, 776803, 777279, 777682, 778079, 778502, 778893, 779301, 779682]","[155, 131, 95, 53, 100, 80, 41, 65, 54, 41, 39, 47, 242, 88, 58, 79, 87, 85, 86, 64]","[771864, 772220, 772614, 772993, 773462, 773905, 774263, 774693, 775110, 775460, 775905, 776335, 776695, 777165, 777597, 777971, 778391, 778827, 779210, 779593]","[770252, 770652, 771052, 771452, 771852, 772252, 772653, 773053, 773416, 773799, 774223, 774634, 775038, 775417, 775858, 776274, 776706, 777133, 777535, 777916, 778350, 778727, 779121, 779531]",65,EM,L,R,ITMSR,1.1
4,600,trial,0,32,32,32,trial,"['S', 'S', 'S', 'S', 'S', 'S', 'C', 'C', 'C', 'C', 'C', 'C', 'C', 'C', 'C', 'C', 'C', 'C', 'C', 'C', 'C', 'C']","[786112, 786662, 787278, 787860, 788481, 789068, 789642, 790252, 790853, 791459, 792050, 792653, 793246, 793809, 794422, 795026, 795609, 796224, 796839, 797478, 798072, 798671]","[786360, 787005, 787595, 788230, 788849, 789406, 790008, 790573, 791195, 791763, 792375, 792984, 793572, 794138, 794774, 795381, 795958, 796524, 797189, 797846, 798397]","[66, 36, 63, 102, 57, 75, 61, 38, 53, 56, 64, 66, 77, 87, 94, 81, 79, 93, 64, 108, 107]","[786118, 786848, 787457, 788033, 788747, 789271, 789880, 790436, 791044, 791644, 792268, 792851, 793466, 794009, 794626, 795274, 795833, 796403, 797066, 797668, 798297]","[784924, 785524, 786124, 786724, 787324, 787924, 788525, 789125, 789662, 790273, 790873, 791479, 792070, 792673, 793266, 793829, 794442, 795046, 795629, 796244, 796859, 797498, 798092, 798691]",65,EM,L,R,ITMSR,1.1
5,600,trial,0,33,33,33,trial,"['S', 'S', 'S', 'S', 'S', 'S', 'C', 'C', 'C', 'C', 'C', 'C', 'C', 'C', 'C', 'C', 'C', 'C', 'C', 'C', 'C', 'C']","[805194, 805784, 806397, 807006, 807619, 808221, 808832, 809408, 810004, 810647, 811204, 811801, 812376, 812967, 813562, 814138, 814723, 815337, 815933, 816514, 817087, 817692]","[805483, 806092, 806782, 807373, 807987, 808552, 809140, 809732, 810290, 810893, 811578, 812129, 812715, 813303, 813944, 814489, 815112, 815649, 816253, 816822, 817439]","[255, 15, 231, 19, 244, 6, 42, 29, 181, 252, 45, 46, 69, 69, 73, 73, 49, 63, 81, 105, 62]","[805354, 805985, 806547, 807205, 807888, 808425, 809016, 809598, 810204, 810797, 811457, 812004, 812584, 813205, 813846, 814360, 814989, 815534, 816149, 816690, 817292]","[804047, 804647, 805248, 805848, 806448, 807048, 807648, 808248, 808852, 809428, 810024, 810668, 811224, 811821, 812396, 812987, 813582, 814158, 814743, 815357, 815953, 816534, 817107, 817712]",65,EM,L,R,ITMSR,1.1
0,600,trial,0,34,34,34,trial,"['S', 'S', 'S', 'S', 'S', 'S', 'C', 'C', 'C', 'C', 'C', 'C', 'C', 'C', 'C', 'C', 'C', 'C', 'C', 'C', 'C', 'C']","[824254, 824833, 825464, 826028, 826627, 827231, 827880, 828480, 829067, 829637, 830239, 830834, 831432, 832022, 832616, 833204, 833799, 834407, 835010, 835592, 836184, 836766]","[824543, 825187, 825785, 826364, 826990, 827587, 828246, 828835, 829373, 830019, 830593, 831197, 831793, 832314, 832933, 833509, 834073, 834660, 835254, 835860, 836467]","[20, 31, 39, 41, 28, 39, 24, 14, 73, 70, 59, 88, 84, 68, 68, 39, 59, 18, 14, 68, 54]","[824455, 825077, 825664, 826218, 826880, 827441, 828087, 828693, 829256, 829871, 830460, 831021, 831592, 832187, 832809, 833395, 833975, 834568, 835112, 835744, 836341]","[823100, 823700, 824300, 824900, 825500, 826100, 826700, 827300, 827900, 828500, 829087, 829657, 830259, 830854, 831452, 832043, 832636, 833224, 833819, 834427, 835031, 835612, 836204, 836786]",65,EM,L,R,ITMSR,1.1
4,400,trial,0,35,35,35,trial,"['S', 'S', 'S', 'S', 'S', 'S', 'S', 'C', 'C', 'C', 'C', 'C', 'C', 'C', 'C', 'C', 'C', 'C', 'C', 'C', 'C', 'C', 'C']","[842954, 843276, 843649, 844024, 844418, 844861, 845296, 845637, 846002, 846369, 846775, 847204, 847607, 847998, 848354, 848763, 849185, 849579, 849941, 850320, 850703, 851103, 851536]","[843105, 843427, 843846, 844220, 844639, 845095, 845477, 845856, 846243, 846581, 847010, 847385, 847756, 848208, 848552, 848955, 849366, 849770, 850173, 850539, 850917, 851323, 851740]","[227, 78, 24, 250, 56, 31, 205, 9, 0, 249, 138, 190, 30, 32, 253, 186, 205, 170, 212, 184, 212, 19, 201]","[843017, 843339, 843659, 844130, 844504, 845004, 845347, 845715, 846107, 846489, 846925, 847288, 847713, 848123, 848459, 848890, 849289, 849693, 850058, 850449, 850836, 851240, 851612]","[842456, 842856, 843256, 843656, 844056, 844456, 844856, 845256, 845657, 846022, 846389, 846795, 847224, 847627, 848018, 848374, 848783, 849205, 849599, 849961, 850340, 850723, 851123, 851556]",65,EM,L,R,ITMSR,1.1
3,400,trial,0,36,36,36,trial,"['S', 'S', 'S', 'S', 'S', 'S', 'S', 'C', 'C', 'C', 'C', 'C', 'C', 'C', 'C', 'C', 'C', 'C', 'C', 'C', 'C', 'C', 'C']","[857807, 858089, 858465, 858873, 859258, 859645, 860032, 860462, 860856, 861265, 861644, 862044, 862429, 862852, 863216, 863648, 864045, 864466, 864884, 865267, 865695, 866079, 866523]","[857968, 858274, 858706, 859106, 859506, 859873, 860285, 860685, 861105, 861484, 861878, 862240, 862682, 863059, 863460, 863833, 864262, 864676, 865060, 865497, 865864, 866310, 866715]","[5, 76, 62, 26, 30, 23, 48, 28, 26, 255, 254, 254, 15, 235, 26, 2, 246, 31, 3, 238, 35, 246, 206]","[857814, 858096, 858472, 859025, 859383, 859764, 860129, 860551, 860953, 861367, 861736, 862136, 862513, 862959, 863321, 863730, 864163, 864563, 864963, 865392, 865787, 866193, 866617]","[857296, 857696, 858096, 858497, 858896, 859296, 859696, 860096, 860482, 860876, 861285, 861664, 862064, 862449, 862872, 863236, 863668, 864065, 864486, 864904, 865287, 865715, 866099, 866543]",65,EM,L,R,ITMSR,1.1
4,600,trial,0,37,37,37,trial,"['S', 'S', 'S', 'S', 'S', 'S', 'C', 'C', 'C', 'C', 'C', 'C', 'C', 'C', 'C', 'C', 'C', 'C', 'C', 'C', 'C', 'C']","[873017, 873626, 874221, 874781, 875406, 876035, 876640, 877216, 877818, 878423, 879020, 879617, 880233, 880821, 881409, 882048, 882626, 883236, 883838, 884411, 885040, 885658]","[873294, 873926, 874571, 875174, 875759, 876390, 876998, 877591, 878179, 878747, 879382, 879954, 880531, 881139, 881730, 882344, 882965, 883604, 884190, 884830, 885373]","[68, 4, 233, 233, 233, 230, 31, 2, 255, 232, 25, 25, 248, 248, 3, 237, 235, 71, 198, 253, 196]","[873099, 873791, 874375, 874964, 875651, 876269, 876890, 877443, 878020, 878607, 879267, 879825, 880395, 880996, 881601, 882241, 882810, 883513, 884093, 884574, 885276]","[871869, 872469, 873069, 873669, 874269, 874869, 875469, 876069, 876660, 877236, 877838, 878443, 879040, 879637, 880253, 880841, 881429, 882068, 882647, 883256, 883858, 884431, 885060, 885678]",65,EM,L,R,ITMSR,1.1
3,600,trial,0,38,38,38,trial,"['S', 'S', 'S', 'S', 'S', 'S', 'C', 'C', 'C', 'C', 'C', 'C', 'C', 'C', 'C', 'C', 'C', 'C', 'C', 'C', 'C', 'C']","[892420, 892976, 893613, 894211, 894831, 895412, 896021, 896634, 897244, 897782, 898386, 898989, 899593, 900192, 900811, 901429, 901999, 902597, 903146, 903696, 907354, 907911]","[892643, 893310, 893973, 894606, 895156, 895748, 896367, 896950, 897521, 898129, 898740, 899328, 899973, 900548, 901152, 901777, 902406, 903013, 903616, 907109, 907680]","[217, 250, 245, 227, 17, 245, 25, 131, 108, 221, 209, 152, 236, 7, 230, 230, 210, 219, 236, 5, 163]","[892508, 893204, 893832, 894398, 895031, 895632, 896206, 896771, 897412, 898003, 898566, 899196, 899855, 900439, 901022, 901628, 902289, 902850, 903483, 905673, 907429]","[891278, 891878, 892478, 893078, 893678, 894278, 894878, 895478, 896041, 896654, 897264, 897802, 898406, 899009, 899613, 900212, 900831, 901449, 902019, 902617, 903166, 903716, 907374, 907931]",65,EM,L,R,ITMSR,1.1
2,600,trial,0,39,39,39,trial,"['S', 'S', 'S', 'S', 'S', 'S', 'S', 'C', 'C', 'C', 'C', 'C', 'C', 'C', 'C', 'C', 'C', 'C', 'C', 'C', 'C', 'C', 'C']","[913960, 914586, 915196, 915805, 916384, 917003, 917598, 918245, 918836, 919439, 920016, 920595, 921187, 921787, 922384, 922975, 923546, 924154, 924743, 925358, 925981, 926592, 927193]","[914293, 914980, 915564, 916178, 916774, 917312, 918008, 918554, 919177, 919750, 920321, 920931, 921539, 922104, 922799, 923373, 923941, 924460, 925108, 925689, 926305, 926937]","[42, 28, 252, 242, 162, 226, 198, 63, 70, 116, 179, 147, 117, 220, 144, 87, 70, 53, 111, 139, 180, 196]","[913967, 914591, 915203, 915811, 916391, 917261, 917604, 918425, 918844, 919613, 920184, 920839, 921372, 921793, 922391, 923281, 923804, 924372, 924971, 925549, 925988, 926778]","[913447, 914048, 914648, 915248, 915848, 916448, 917048, 917648, 918265, 918856, 919459, 920036, 920615, 921207, 921807, 922404, 922995, 923566, 924174, 924763, 925378, 926001, 926612, 927213]",65,EM,L,R,ITMSR,1.1
2,400,trial,0,40,40,40,trial,"['S', 'S', 'S', 'S', 'S', 'S', 'S', 'C', 'C', 'C', 'C', 'C', 'C', 'C', 'C', 'C', 'C', 'C', 'C', 'C', 'C', 'C', 'C']","[933272, 933561, 933905, 934324, 934732, 935142, 935528, 935928, 936312, 936710, 937123, 937497, 937875, 938270, 938683, 939087, 939458, 939891, 940276, 940702, 941073, 941451, 941843]","[933401, 933741, 934134, 934564, 934952, 935399, 935759, 936158, 936536, 936951, 937314, 937707, 938086, 938469, 938862, 939253, 939622, 940027, 940441, 940834, 941199, 941600, 942000]","[173, 177, 142, 162, 150, 28, 189, 60, 88, 155, 234, 78, 23, 59, 101, 76, 94, 253, 125, 54, 223, 74, 150]","[933279, 933567, 934052, 934331, 934813, 935329, 935689, 935936, 936440, 936718, 937213, 937590, 937951, 938379, 938754, 939166, 939554, 939954, 940370, 940760, 941080, 941544, 941939]","[932766, 933166, 933566, 933966, 934366, 934766, 935166, 935566, 935948, 936332, 936730, 937143, 937517, 937895, 938290, 938703, 939107, 939479, 939911, 940296, 940722, 941093, 941471, 941863]",65,EM,L,R,ITMSR,1.1
0,400,trial,0,41,41,41,trial,"['S', 'S', 'S', 'S', 'S', 'S', 'C', 'C', 'C', 'C', 'C', 'C', 'C', 'C', 'C', 'C', 'C', 'C', 'C', 'C', 'C', 'C']","[948094, 948450, 948856, 949228, 949666, 950076, 950499, 950887, 951267, 951654, 952035, 952410, 952804, 953204, 953600, 953980, 954368, 954774, 955159, 955528, 955921, 956321]","[948199, 948612, 949039, 949429, 949864, 950277, 950679, 951055, 951444, 951806, 952188, 952570, 952971, 953348, 953725, 954120, 954468, 954890, 955288, 955688, 956082, 956470]","[8, 174, 209, 16, 186, 233, 209, 192, 156, 105, 124, 144, 86, 81, 59, 75, 75, 127, 50, 128, 172, 145]","[948100, 948458, 948864, 949331, 949772, 950171, 950590, 950978, 951274, 951665, 952131, 952419, 952907, 953294, 953670, 953988, 954377, 954847, 955168, 955537, 956002, 956413]","[947307, 947706, 948106, 948506, 948907, 949306, 949706, 950106, 950519, 950907, 951287, 951674, 952055, 952430, 952824, 953224, 953620, 954000, 954388, 954795, 955180, 955548, 955941, 956341]",65,EM,L,R,ITMSR,1.1
3,400,trial,0,42,42,42,trial,"['S', 'S', 'S', 'S', 'S', 'S', 'S', 'C', 'C', 'C', 'C', 'C', 'C', 'C', 'C', 'C', 'C', 'C', 'C', 'C', 'C', 'C', 'C']","[962338, 962726, 963118, 963530, 963922, 964299, 964691, 965093, 965480, 965901, 966277, 966701, 967071, 967472, 967905, 968322, 968700, 969084, 969463, 969847, 970263, 970660, 971041]","[962513, 962898, 963324, 963722, 964112, 964505, 964895, 965279, 965673, 966059, 966452, 966856, 967244, 967636, 968050, 968474, 968860, 969256, 969667, 970028, 970420, 970802, 971202]","[46, 25, 13, 0, 2, 213, 238, 27, 7, 223, 231, 221, 230, 188, 255, 213, 188, 195, 179, 211, 185, 144, 180]","[962397, 962733, 963125, 963538, 964004, 964404, 964780, 965170, 965588, 965987, 966364, 966780, 967144, 967574, 967961, 968384, 968792, 969187, 969580, 969943, 970354, 970742, 971131]","[961942, 962342, 962742, 963142, 963543, 963942, 964342, 964742, 965113, 965500, 965921, 966297, 966721, 967091, 967492, 967925, 968342, 968720, 969104, 969483, 969867, 970284, 970680, 971061]",65,EM,L,R,ITMSR,1.1
3,600,trial,0,43,43,43,trial,"['S', 'S', 'S', 'S', 'S', 'S', 'C', 'C', 'C', 'C', 'C', 'C', 'C', 'C', 'C', 'C', 'C', 'C', 'C', 'C', 'C', 'C']","[977953, 978526, 979149, 979732, 980344, 980959, 981585, 982170, 982781, 983358, 983933, 984504, 985100, 985678, 986243, 986846, 987386, 987991, 988577, 989162, 989753, 990373]","[978225, 978860, 979528, 980128, 980697, 981343, 981932, 982520, 983103, 983707, 984279, 984813, 985408, 986004, 986629, 987275, 987798, 988380, 988942, 989531, 990140]","[34, 21, 247, 213, 16, 2, 214, 245, 218, 248, 206, 219, 239, 255, 37, 14, 21, 34, 20, 46, 51]","[978051, 978698, 979307, 979894, 980534, 981116, 981789, 982401, 982985, 983513, 984171, 984702, 985232, 985810, 986550, 986987, 987640, 988275, 988811, 989343, 989916]","[976762, 977362, 977963, 978562, 979162, 979762, 980362, 980962, 981605, 982190, 982801, 983378, 983953, 984524, 985120, 985698, 986263, 986866, 987406, 988011, 988597, 989182, 989773, 990393]",65,EM,L,R,ITMSR,1.1
1,400,trial,0,44,44,44,trial,"['S', 'S', 'S', 'S', 'C', 'C', 'C', 'C', 'C', 'C', 'C', 'C', 'C', 'C', 'C', 'C', 'C', 'C', 'C', 'C']","[997310, 997705, 998136, 998539, 998955, 999332, 999738, 1000142, 1000559, 1000978, 1001369, 1001754, 1002147, 1002534, 1002944, 1003342, 1003740, 1004157, 1004553, 1004958]","[997489, 997926, 998331, 998758, 999164, 999558, 999921, 1000331, 1000755, 1001144, 1001541, 1001923, 1002343, 1002722, 1003117, 1003509, 1003894, 1004345, 1004751, 1005150]","[60, 65, 87, 21, 11, 38, 42, 0, 27, 25, 14, 246, 254, 219, 232, 202, 227, 15, 40, 34]","[997316, 997813, 998225, 998601, 999041, 999441, 999834, 1000229, 1000652, 1001049, 1001455, 1001826, 1002257, 1002637, 1003027, 1003435, 1003820, 1004271, 1004667, 1005061]","[995748, 996148, 996548, 996948, 997348, 997748, 998148, 998548, 998975, 999352, 999758, 1000162, 1000579, 1000998, 1001389, 1001774, 1002167, 1002554, 1002964, 1003362, 1003760, 1004177, 1004573, 1004978]",65,EM,L,R,ITMSR,1.1
2,400,trial,0,45,45,45,trial,"['S', 'S', 'S', 'S', 'C', 'C', 'C', 'C', 'C', 'C', 'C', 'C', 'C', 'C', 'C', 'C', 'C', 'C', 'C', 'C']","[1012039, 1012443, 1012840, 1013256, 1013659, 1014053, 1014437, 1014862, 1015269, 1015671, 1016061, 1016466, 1016872, 1017280, 1017675, 1018049, 1018448, 1018853, 1019260, 1019654]","[1012224, 1012618, 1013019, 1013426, 1013851, 1014231, 1014652, 1015016, 1015449, 1015827, 1016238, 1016628, 1017043, 1017424, 1017824, 1018201, 1018617, 1018994, 1019407, 1019798]","[49, 36, 14, 57, 24, 211, 232, 60, 127, 171, 142, 76, 32, 40, 13, 37, 107, 88, 114, 36]","[1012046, 1012518, 1012903, 1013332, 1013746, 1014151, 1014548, 1014961, 1015360, 1015744, 1016147, 1016535, 1016960, 1017366, 1017758, 1018105, 1018544, 1018926, 1019325, 1019730]","[1010520, 1010918, 1011318, 1011718, 1012118, 1012518, 1012918, 1013318, 1013679, 1014073, 1014457, 1014882, 1015289, 1015691, 1016081, 1016486, 1016892, 1017300, 1017695, 1018070, 1018468, 1018873, 1019280, 1019674]",65,EM,L,R,ITMSR,1.1
5,400,trial,0,46,46,46,trial,"['S', 'S', 'S', 'S', 'C', 'C', 'C', 'C', 'C', 'C', 'C', 'C', 'C', 'C', 'C', 'C', 'C', 'C', 'C', 'C']","[1026634, 1027047, 1027470, 1027883, 1028329, 1028717, 1029131, 1029494, 1029912, 1030285, 1030701, 1031131, 1031559, 1031952, 1032320, 1032761, 1033166, 1033554, 1033937, 1034355]","[1026798, 1027269, 1027670, 1028120, 1028504, 1028926, 1029303, 1029694, 1030067, 1030484, 1030861, 1031255, 1031650, 1032124, 1032510, 1032903, 1033350, 1033749, 1034128, 1034552]","[20, 31, 41, 72, 98, 102, 70, 15, 246, 242, 106, 250, 150, 33, 249, 0, 48, 26, 182, 242]","[1026718, 1027165, 1027567, 1027948, 1028403, 1028826, 1029217, 1029600, 1029985, 1030387, 1030754, 1031192, 1031605, 1032032, 1032428, 1032835, 1033257, 1033652, 1034044, 1034464]","[1025076, 1025476, 1025876, 1026276, 1026676, 1027076, 1027476, 1027876, 1028349, 1028738, 1029151, 1029514, 1029933, 1030305, 1030721, 1031151, 1031579, 1031972, 1032340, 1032781, 1033186, 1033574, 1033957, 1034375]",65,EM,L,R,ITMSR,1.1
2,600,trial,0,47,47,47,trial,"['S', 'S', 'S', 'S', 'S', 'S', 'C', 'C', 'C', 'C', 'C', 'C', 'C', 'C', 'C', 'C', 'C', 'C', 'C', 'C', 'C', 'C']","[1041169, 1041789, 1042390, 1042994, 1043617, 1044201, 1044802, 1045386, 1045977, 1046566, 1047205, 1047796, 1048359, 1048941, 1049509, 1050090, 1050678, 1051270, 1051877, 1052450, 1053025, 1053583]","[1041498, 1042143, 1042763, 1043439, 1044039, 1044587, 1045158, 1045745, 1046358, 1046970, 1047532, 1048120, 1048733, 1049289, 1049897, 1050457, 1051105, 1051659, 1052233, 1052809, 1053379]","[49, 253, 25, 18, 0, 18, 9, 234, 232, 11, 238, 245, 246, 219, 255, 244, 237, 1, 239, 33, 249]","[1041289, 1041965, 1042607, 1043154, 1043792, 1044377, 1044926, 1045496, 1046198, 1046834, 1047386, 1047936, 1048486, 1049160, 1049768, 1050321, 1050810, 1051469, 1052130, 1052682, 1053221]","[1040017, 1040617, 1041217, 1041817, 1042417, 1043017, 1043617, 1044217, 1044823, 1045406, 1045997, 1046586, 1047225, 1047816, 1048379, 1048962, 1049529, 1050110, 1050698, 1051290, 1051897, 1052470, 1053045, 1053603]",65,EM,L,R,ITMSR,1.1
0,400,trial,0,48,48,48,trial,"['S', 'S', 'S', 'S', 'S', 'S', 'C', 'C', 'C', 'C', 'C', 'C', 'C', 'C', 'C', 'C', 'C', 'C', 'C', 'C', 'C', 'C']","[1060029, 1060462, 1060888, 1061285, 1061705, 1062106, 1062507, 1062916, 1063312, 1063657, 1064037, 1064433, 1064836, 1065232, 1065617, 1065993, 1066401, 1066785, 1067156, 1067544, 1067932, 1068325]","[1060233, 1060686, 1061125, 1061515, 1061941, 1062333, 1062701, 1063107, 1063499, 1063859, 1064223, 1064624, 1064996, 1065373, 1065778, 1066165, 1066572, 1066966, 1067350, 1067720, 1068116, 1068531]","[138, 77, 55, 77, 76, 91, 84, 84, 73, 83, 34, 22, 215, 240, 248, 222, 255, 8, 33, 243, 20, 29]","[1060033, 1060468, 1061002, 1061414, 1061828, 1062204, 1062607, 1063011, 1063411, 1063755, 1064141, 1064523, 1064920, 1065299, 1065698, 1066085, 1066489, 1066873, 1067261, 1067644, 1068028, 1068447]","[1059286, 1059685, 1060085, 1060485, 1060885, 1061285, 1061685, 1062085, 1062528, 1062936, 1063332, 1063677, 1064057, 1064453, 1064856, 1065252, 1065637, 1066013, 1066421, 1066805, 1067176, 1067565, 1067952, 1068345]",65,EM,L,R,ITMSR,1.1
5,400,trial,0,49,49,49,trial,"['S', 'S', 'S', 'S', 'S', 'S', 'C', 'C', 'C', 'C', 'C', 'C', 'C', 'C', 'C', 'C', 'C', 'C', 'C', 'C', 'C', 'C']","[1074430, 1074829, 1075236, 1075658, 1076039, 1076415, 1076817, 1077211, 1077605, 1078003, 1078409, 1078805, 1079193, 1079589, 1079973, 1080407, 1080786, 1081174, 1081614, 1082049, 1082479, 1082868]","[1074638, 1075058, 1075477, 1075893, 1076260, 1076640, 1077058, 1077443, 1077829, 1078205, 1078594, 1078989, 1079379, 1079758, 1080168, 1080546, 1081005, 1081384, 1081788, 1082217, 1082650, 1083052]","[94, 54, 100, 56, 56, 65, 76, 60, 68, 22, 0, 239, 247, 172, 203, 124, 248, 16, 218, 15, 38, 32]","[1074438, 1074837, 1075243, 1075740, 1076146, 1076513, 1076908, 1077325, 1077715, 1078102, 1078500, 1078899, 1079272, 1079656, 1080087, 1080469, 1080902, 1081288, 1081699, 1082124, 1082551, 1082963]","[1073665, 1074063, 1074463, 1074863, 1075263, 1075663, 1076063, 1076463, 1076837, 1077231, 1077625, 1078023, 1078429, 1078825, 1079213, 1079609, 1079993, 1080427, 1080806, 1081194, 1081634, 1082070, 1082499, 1082888]",65,EM,L,R,ITMSR,1.1
5,600,trial,0,50,50,50,trial,"['S', 'S', 'S', 'S', 'S', 'S', 'S', 'C', 'C', 'C', 'C', 'C', 'C', 'C', 'C', 'C', 'C', 'C', 'C', 'C', 'C', 'C', 'C']","[1088614, 1089398, 1090016, 1090658, 1091213, 1091814, 1092393, 1093081, 1093683, 1094291, 1094843, 1095457, 1096046, 1096649, 1097241, 1097841, 1098423, 1098967, 1099606, 1100220, 1100847, 1101485, 1102068]","[1089029, 1089715, 1090339, 1090934, 1091603, 1092160, 1092770, 1093427, 1093981, 1094558, 1095214, 1095821, 1096396, 1096976, 1097550, 1098195, 1098776, 1099354, 1099940, 1100612, 1101126, 1101719]","[104, 134, 166, 79, 107, 107, 69, 52, 33, 216, 51, 36, 63, 71, 56, 47, 60, 87, 16, 65, 68, 240]","[1088620, 1089403, 1090021, 1090740, 1091423, 1092045, 1092582, 1093187, 1093883, 1094444, 1095011, 1095564, 1096226, 1096868, 1097392, 1098119, 1098529, 1099136, 1099768, 1100375, 1101025, 1101580]","[1088276, 1088876, 1089476, 1090076, 1090676, 1091276, 1091876, 1092476, 1093101, 1093703, 1094311, 1094863, 1095477, 1096066, 1096669, 1097261, 1097861, 1098443, 1098987, 1099626, 1100240, 1100867, 1101505, 1102088]",65,EM,L,R,ITMSR,1.1
1,600,trial,0,51,51,51,trial,"['S', 'S', 'S', 'S', 'C', 'C', 'C', 'C', 'C', 'C', 'C', 'C', 'C', 'C', 'C', 'C', 'C', 'C', 'C', 'C']","[1110011, 1110591, 1111162, 1111825, 1112394, 1112956, 1113549, 1114140, 1114755, 1115315, 1115904, 1116494, 1117086, 1117691, 1118208, 1118811, 1119355, 1119942, 1120538, 1121097]","[1110326, 1110935, 1111444, 1112228, 1112759, 1113330, 1113904, 1114536, 1115088, 1115663, 1116230, 1116849, 1117516, 1117945, 1118610, 1119112, 1119648, 1120275, 1120805]","[85, 108, 64, 55, 75, 102, 99, 110, 96, 102, 95, 98, 95, 119, 76, 106, 92, 91, 239]","[1110018, 1110597, 1111351, 1111940, 1112670, 1113175, 1113762, 1114447, 1114975, 1115511, 1116096, 1116674, 1117218, 1117822, 1118373, 1118966, 1119527, 1120114, 1120694]","[1107620, 1108220, 1108820, 1109421, 1110021, 1110621, 1111221, 1111821, 1112414, 1112976, 1113569, 1114160, 1114775, 1115335, 1115924, 1116514, 1117106, 1117711, 1118228, 1118831, 1119375, 1119962, 1120558, 1121117]",65,EM,L,R,ITMSR,1.1
1,400,trial,0,52,52,52,trial,"['S', 'S', 'S', 'S', 'C', 'C', 'C', 'C', 'C', 'C', 'C', 'C', 'C', 'C', 'C', 'C', 'C', 'C', 'C', 'C', 'C']","[1128207, 1128605, 1129015, 1129387, 1129803, 1130177, 1130585, 1130967, 1131361, 1131740, 1132126, 1132520, 1132949, 1133323, 1133704, 1134099, 1134199, 1134486, 1134867, 1135252, 1135650]","[1128311, 1128811, 1129187, 1129586, 1129955, 1130399, 1130754, 1131120, 1131515, 1131873, 1132286, 1132729, 1133105, 1133519, 1133869, 1134119, 1134219, 1134628, 1135023, 1135418, 1135825]","[111, 64, 62, 52, 21, 75, 32, 46, 202, 1, 32, 26, 33, 234, 238, 170, 60, 255, 240, 12, 38]","[1128212, 1128611, 1129021, 1129393, 1129810, 1130183, 1130592, 1130974, 1131367, 1131746, 1132132, 1132526, 1132954, 1133330, 1133710, 1134105, 1134199, 1134494, 1134874, 1135259, 1135656]","[1126629, 1127029, 1127429, 1127829, 1128229, 1128629, 1129029, 1129430, 1129823, 1130198, 1130605, 1130987, 1131381, 1131760, 1132146, 1132540, 1132969, 1133343, 1133724, 1134119, 1134507, 1134887, 1135272, 1135670]",65,EM,L,R,ITMSR,1.1
1,600,trial,0,53,53,53,trial,"['S', 'S', 'S', 'S', 'S', 'S', 'C', 'C', 'C', 'C', 'C', 'C', 'C', 'C', 'C', 'C', 'C', 'C', 'C', 'C', 'C', 'C']","[1142332, 1142920, 1143535, 1144097, 1144719, 1145309, 1145958, 1146558, 1147138, 1147720, 1148322, 1148914, 1149474, 1150065, 1150641, 1151216, 1151817, 1152389, 1152964, 1153523, 1154119, 1154699]","[1142530, 1143259, 1143876, 1144450, 1145033, 1145617, 1146238, 1146880, 1147427, 1148067, 1148730, 1149289, 1149845, 1150390, 1150982, 1151627, 1152137, 1152758, 1153315, 1153886, 1154445]","[138, 148, 124, 75, 93, 64, 78, 88, 38, 67, 68, 18, 11, 42, 62, 60, 255, 26, 22, 252, 33]","[1142336, 1142924, 1143540, 1144103, 1144725, 1145314, 1145963, 1146563, 1147145, 1147725, 1148328, 1148921, 1149757, 1150072, 1150647, 1151222, 1151824, 1152395, 1152971, 1153699, 1154126]","[1141148, 1141748, 1142348, 1142948, 1143548, 1144148, 1144749, 1145349, 1145978, 1146578, 1147158, 1147740, 1148342, 1148934, 1149494, 1150085, 1150661, 1151236, 1151837, 1152409, 1152984, 1153543, 1154139, 1154719]",65,EM,L,R,ITMSR,1.1
3,400,trial,0,54,54,54,trial,"['S', 'S', 'S', 'S', 'S', 'S', 'C', 'C', 'C', 'C', 'C', 'C', 'C', 'C', 'C', 'C', 'C', 'C', 'C', 'C', 'C', 'C']","[1184502, 1184875, 1185295, 1185733, 1186100, 1186485, 1186896, 1187301, 1187683, 1188064, 1188480, 1188868, 1189256, 1189639, 1190059, 1190472, 1190848, 1191235, 1191633, 1192075, 1192460, 1192840]","[1184640, 1185035, 1185502, 1185929, 1186301, 1186697, 1187063, 1187515, 1187878, 1188294, 1188636, 1189045, 1189460, 1189830, 1190243, 1190650, 1191055, 1191454, 1191851, 1192236, 1192629, 1193035]","[165, 104, 128, 110, 70, 58, 114, 75, 45, 56, 7, 36, 41, 51, 72, 77, 95, 64, 96, 28, 65, 75]","[1184506, 1184881, 1185300, 1185738, 1186106, 1186491, 1186902, 1187307, 1187801, 1188069, 1188552, 1188874, 1189366, 1189747, 1190065, 1190567, 1190956, 1191387, 1191740, 1192131, 1192551, 1192943]","[1183707, 1184106, 1184506, 1184906, 1185306, 1185707, 1186106, 1186506, 1186916, 1187321, 1187703, 1188084, 1188500, 1188888, 1189276, 1189659, 1190079, 1190492, 1190868, 1191256, 1191653, 1192095, 1192480, 1192860]",65,EM,L,R,ITMSR,1.1
5,400,trial,0,55,55,55,trial,"['S', 'S', 'S', 'S', 'S', 'S', 'C', 'C', 'C', 'C', 'C', 'C', 'C', 'C', 'C', 'C', 'C', 'C', 'C', 'C', 'C', 'C']","[1198943, 1199356, 1199758, 1200155, 1200567, 1200943, 1201398, 1201788, 1202206, 1202648, 1203036, 1203414, 1203803, 1204205, 1204632, 1205086, 1205504, 1205905, 1206287, 1206681, 1207110, 1207514]","[1199155, 1199555, 1199969, 1200424, 1200800, 1201178, 1201605, 1202001, 1202429, 1202827, 1203231, 1203630, 1204012, 1204401, 1204857, 1205258, 1205684, 1206129, 1206537, 1206913, 1207287, 1207750]","[141, 67, 63, 112, 75, 90, 61, 86, 115, 103, 75, 53, 71, 47, 28, 56, 51, 77, 104, 101, 94, 131]","[1198947, 1199364, 1199764, 1200160, 1200572, 1200949, 1201404, 1201918, 1202212, 1202653, 1203147, 1203523, 1203917, 1204310, 1204640, 1205094, 1205563, 1206020, 1206445, 1206796, 1207189, 1207587]","[1198206, 1198606, 1199006, 1199406, 1199806, 1200206, 1200606, 1201006, 1201418, 1201808, 1202226, 1202668, 1203056, 1203434, 1203823, 1204226, 1204653, 1205106, 1205524, 1205925, 1206307, 1206701, 1207130, 1207534]",65,EM,L,R,ITMSR,1.1
2,400,trial,0,56,56,56,trial,"['S', 'S', 'S', 'S', 'S', 'S', 'C', 'C', 'C', 'C', 'C', 'C', 'C', 'C', 'C', 'C', 'C', 'C', 'C', 'C', 'C', 'C']","[1213816, 1214200, 1214612, 1214998, 1215395, 1215810, 1216223, 1216620, 1217026, 1217415, 1217798, 1218172, 1218563, 1218964, 1219368, 1219767, 1220174, 1220547, 1220942, 1221346, 1221712, 1222103]","[1213965, 1214409, 1214834, 1215207, 1215634, 1216028, 1216442, 1216819, 1217211, 1217593, 1217964, 1218372, 1218746, 1219138, 1219525, 1219886, 1220345, 1220717, 1221137, 1221489, 1221870, 1222275]","[127, 90, 103, 80, 57, 73, 68, 51, 35, 55, 82, 23, 34, 24, 8, 71, 13, 22, 34, 20, 232, 6]","[1213821, 1214206, 1214618, 1215004, 1215401, 1215816, 1216229, 1216716, 1217032, 1217421, 1217803, 1218286, 1218655, 1219055, 1219436, 1219774, 1220180, 1220640, 1221039, 1221353, 1221799, 1222110]","[1213053, 1213452, 1213852, 1214253, 1214653, 1215053, 1215453, 1215853, 1216243, 1216641, 1217046, 1217435, 1217818, 1218192, 1218583, 1218984, 1219388, 1219787, 1220194, 1220568, 1220962, 1221366, 1221732, 1222123]",65,EM,L,R,ITMSR,1.1
3,400,trial,0,57,57,57,trial,"['S', 'S', 'S', 'S', 'S', 'S', 'C', 'C', 'C', 'C', 'C', 'C', 'C', 'C', 'C', 'C', 'C', 'C', 'C', 'C', 'C', 'C']","[1228250, 1228628, 1229040, 1229423, 1229837, 1230245, 1230665, 1231083, 1231538, 1231932, 1232306, 1232691, 1233088, 1233496, 1233899, 1234296, 1234689, 1235083, 1235510, 1235896, 1236283, 1236705]","[1228335, 1228825, 1229212, 1229636, 1230043, 1230467, 1230854, 1231255, 1231695, 1232136, 1232502, 1232875, 1233273, 1233679, 1234072, 1234462, 1234869, 1235288, 1235683, 1236083, 1236459, 1236898]","[126, 86, 66, 36, 35, 79, 61, 20, 3, 17, 39, 36, 45, 44, 29, 55, 73, 78, 61, 81, 90, 77]","[1228255, 1228634, 1229046, 1229429, 1229844, 1230251, 1230671, 1231089, 1231635, 1232036, 1232415, 1232786, 1233181, 1233502, 1233987, 1234375, 1234778, 1235179, 1235592, 1235902, 1236288, 1236794]","[1227484, 1227884, 1228284, 1228684, 1229084, 1229485, 1229885, 1230285, 1230685, 1231104, 1231558, 1231952, 1232326, 1232711, 1233108, 1233516, 1233920, 1234316, 1234709, 1235103, 1235530, 1235916, 1236303, 1236725]",65,EM,L,R,ITMSR,1.1
1,600,trial,0,58,58,58,trial,"['S', 'S', 'S', 'S', 'S', 'S', 'C', 'C', 'C', 'C', 'C', 'C', 'C', 'C', 'C', 'C', 'C', 'C', 'C', 'C', 'C', 'C']","[1243262, 1243896, 1244487, 1245057, 1245671, 1246269, 1246888, 1247459, 1248033, 1248613, 1249202, 1249786, 1250356, 1250946, 1251527, 1252104, 1252690, 1253308, 1253881, 1254478, 1255079, 1255626]","[1243521, 1244229, 1244882, 1245481, 1246028, 1246631, 1247230, 1247800, 1248428, 1248957, 1249552, 1250107, 1250737, 1251282, 1251877, 1252449, 1253061, 1253613, 1254206, 1254766, 1255380]","[115, 120, 111, 88, 117, 69, 133, 49, 95, 47, 51, 86, 46, 25, 13, 5, 250, 24, 31, 51, 45]","[1243268, 1243901, 1244492, 1245063, 1245676, 1246274, 1246894, 1247597, 1248037, 1248809, 1249207, 1249792, 1250520, 1250952, 1251660, 1252110, 1252864, 1253517, 1254016, 1254652, 1255233]","[1242134, 1242734, 1243334, 1243934, 1244534, 1245134, 1245734, 1246334, 1246908, 1247479, 1248053, 1248633, 1249222, 1249806, 1250376, 1250966, 1251547, 1252124, 1252710, 1253328, 1253901, 1254498, 1255099, 1255646]",65,EM,L,R,ITMSR,1.1
0,400,trial,0,59,59,59,trial,"['S', 'S', 'S', 'S', 'S', 'S', 'S', 'C', 'C', 'C', 'C', 'C', 'C', 'C', 'C', 'C', 'C', 'C', 'C', 'C', 'C', 'C', 'C']","[1261766, 1262143, 1262550, 1262955, 1263328, 1263718, 1264119, 1264559, 1264968, 1265364, 1265771, 1266190, 1266574, 1266960, 1267361, 1267789, 1268179, 1268570, 1268965, 1269361, 1269749, 1270141, 1270550]","[1261959, 1262311, 1262759, 1263154, 1263533, 1263894, 1264338, 1264747, 1265156, 1265539, 1265932, 1266397, 1266793, 1267145, 1267572, 1267960, 1268364, 1268739, 1269126, 1269513, 1269910, 1270302, 1270703]","[120, 108, 147, 130, 118, 61, 93, 99, 100, 94, 46, 117, 79, 76, 117, 95, 61, 69, 104, 95, 53, 101, 78]","[1261770, 1262148, 1262555, 1262960, 1263332, 1263724, 1264124, 1264564, 1264973, 1265371, 1265776, 1266194, 1266580, 1266966, 1267365, 1267794, 1268279, 1268576, 1268969, 1269366, 1269754, 1270146, 1270555]","[1261366, 1261766, 1262167, 1262566, 1262966, 1263366, 1263766, 1264166, 1264579, 1264988, 1265384, 1265792, 1266210, 1266594, 1266980, 1267381, 1267809, 1268199, 1268590, 1268985, 1269381, 1269769, 1270161, 1270571]",65,EM,L,R,ITMSR,1.1
0,400,trial,0,60,60,60,trial,"['S', 'S', 'S', 'S', 'S', 'S', 'C', 'C', 'C', 'C', 'C', 'C', 'C', 'C', 'C', 'C', 'C', 'C', 'C', 'C', 'C', 'C']","[1277083, 1277520, 1277926, 1278328, 1278736, 1279122, 1279512, 1279894, 1280283, 1280653, 1281067, 1281444, 1281823, 1282234, 1282625, 1282997, 1283407, 1283776, 1284159, 1284547, 1284941, 1285340]","[1277245, 1277689, 1278136, 1278557, 1278938, 1279293, 1279686, 1280068, 1280436, 1280803, 1281216, 1281567, 1281965, 1282358, 1282763, 1283125, 1283529, 1283926, 1284308, 1284685, 1285086, 1285477]","[94, 137, 139, 113, 121, 68, 75, 99, 15, 32, 55, 38, 71, 100, 70, 49, 52, 31, 16, 75, 53, 82]","[1277088, 1277526, 1277930, 1278333, 1278741, 1279129, 1279518, 1279899, 1280289, 1280659, 1281123, 1281449, 1281829, 1282239, 1282631, 1283003, 1283415, 1283862, 1284166, 1284553, 1285021, 1285344]","[1276361, 1276761, 1277161, 1277561, 1277961, 1278361, 1278761, 1279161, 1279533, 1279915, 1280303, 1280673, 1281087, 1281464, 1281843, 1282254, 1282646, 1283017, 1283427, 1283796, 1284179, 1284568, 1284961, 1285360]",65,EM,L,R,ITMSR,1.1
3,600,trial,0,61,61,61,trial,"['S', 'S', 'S', 'S', 'S', 'S', 'C', 'C', 'C', 'C', 'C', 'C', 'C', 'C', 'C', 'C', 'C', 'C', 'C', 'C', 'C', 'C']","[1291880, 1292456, 1293071, 1293642, 1294230, 1294819, 1295405, 1295995, 1296586, 1297177, 1297778, 1298361, 1298974, 1299572, 1300132, 1300742, 1301363, 1301927, 1302516, 1303107, 1303696, 1304350]","[1292165, 1292834, 1293429, 1294025, 1294584, 1295152, 1295815, 1296413, 1296992, 1297571, 1298138, 1298734, 1299330, 1299877, 1300531, 1301109, 1301687, 1302278, 1302865, 1303445, 1304046, 1304581]","[105, 66, 71, 44, 27, 161, 5, 52, 43, 52, 33, 49, 55, 225, 70, 244, 23, 84, 45, 26, 33, 255]","[1291885, 1292463, 1293077, 1293936, 1294440, 1295005, 1295640, 1296263, 1296770, 1297433, 1297993, 1298626, 1299235, 1299732, 1300432, 1300998, 1301548, 1302177, 1302725, 1303305, 1303923, 1304421]","[1290695, 1291295, 1291895, 1292495, 1293095, 1293696, 1294296, 1294896, 1295425, 1296015, 1296606, 1297197, 1297798, 1298381, 1298994, 1299592, 1300152, 1300762, 1301383, 1301947, 1302536, 1303128, 1303716, 1304370]",65,EM,L,R,ITMSR,1.1
1,600,trial,0,62,62,62,trial,"['S', 'S', 'S', 'S', 'S', 'S', 'C', 'C', 'C', 'C', 'C', 'C', 'C', 'C', 'C', 'C', 'C', 'C', 'C', 'C', 'C', 'C']","[1311102, 1311647, 1312265, 1312885, 1313499, 1314093, 1314713, 1315299, 1315876, 1316489, 1317069, 1317661, 1318325, 1318890, 1319473, 1320032, 1320603, 1321209, 1321776, 1322326, 1322898, 1323487]","[1311392, 1312066, 1312680, 1313355, 1313913, 1314512, 1315094, 1315684, 1316290, 1316847, 1317432, 1318044, 1318607, 1319261, 1319847, 1320381, 1320998, 1321519, 1322112, 1322690, 1323216]","[23, 33, 31, 4, 253, 24, 51, 46, 49, 59, 66, 65, 231, 58, 1, 35, 59, 40, 51, 60, 56]","[1311109, 1311791, 1312545, 1312892, 1313666, 1314336, 1314956, 1315548, 1316073, 1316711, 1317306, 1317903, 1318510, 1319122, 1319758, 1320212, 1320864, 1321377, 1321984, 1322550, 1323071]","[1309947, 1310547, 1311148, 1311747, 1312347, 1312947, 1313547, 1314147, 1314733, 1315319, 1315896, 1316509, 1317089, 1317681, 1318345, 1318910, 1319493, 1320052, 1320623, 1321229, 1321796, 1322346, 1322918, 1323507]",65,EM,L,R,ITMSR,1.1
5,600,trial,0,63,63,63,trial,"['S', 'S', 'S', 'S', 'S', 'S', 'C', 'C', 'C', 'C', 'C', 'C', 'C', 'C', 'C', 'C', 'C', 'C', 'C', 'C', 'C', 'C']","[1330385, 1330994, 1331627, 1332191, 1332802, 1333385, 1334023, 1334630, 1335181, 1335744, 1336335, 1336868, 1337452, 1338042, 1338645, 1339189, 1339764, 1340359, 1340957, 1341512, 1342074, 1342688]","[1330737, 1331419, 1332017, 1332606, 1333150, 1333782, 1334408, 1334945, 1335528, 1336108, 1336682, 1337252, 1337763, 1338403, 1338964, 1339533, 1340127, 1340699, 1341257, 1341834, 1342439]","[92, 84, 44, 33, 53, 76, 0, 154, 15, 7, 22, 36, 39, 236, 247, 6, 32, 197, 20, 251, 254]","[1330390, 1330999, 1331633, 1332327, 1333073, 1333391, 1334326, 1334756, 1335404, 1335944, 1336573, 1337092, 1337637, 1338048, 1338829, 1339393, 1339769, 1340580, 1340963, 1341676, 1342081]","[1329267, 1329867, 1330467, 1331067, 1331667, 1332268, 1332867, 1333467, 1334043, 1334650, 1335201, 1335764, 1336355, 1336888, 1337473, 1338062, 1338665, 1339209, 1339784, 1340379, 1340977, 1341532, 1342094, 1342708]",65,EM,L,R,ITMSR,1.1
5,400,trial,0,64,64,64,trial,"['S', 'S', 'S', 'S', 'S', 'S', 'C', 'C', 'C', 'C', 'C', 'C', 'C', 'C', 'C', 'C', 'C', 'C', 'C', 'C', 'C', 'C']","[1349343, 1349677, 1350054, 1350416, 1350796, 1351174, 1351579, 1351960, 1352345, 1352706, 1353091, 1353467, 1353853, 1354206, 1354580, 1354989, 1355379, 1355749, 1356138, 1356555, 1356934, 1357316]","[1349443, 1349853, 1350214, 1350553, 1350897, 1351294, 1351702, 1352121, 1352502, 1352866, 1353252, 1353628, 1354004, 1354390, 1354791, 1355155, 1355513, 1355890, 1356299, 1356692, 1357100, 1357457]","[142, 101, 58, 195, 66, 198, 237, 231, 226, 216, 147, 129, 89, 108, 111, 102, 20, 7, 174, 225, 77, 184]","[1349348, 1349683, 1350060, 1350473, 1350805, 1351181, 1351586, 1351966, 1352351, 1352712, 1353183, 1353546, 1353934, 1354309, 1354720, 1355046, 1355432, 1355757, 1356226, 1356606, 1357038, 1357325]","[1348459, 1348859, 1349259, 1349659, 1350060, 1350459, 1350859, 1351259, 1351599, 1351981, 1352365, 1352726, 1353111, 1353487, 1353873, 1354226, 1354600, 1355010, 1355399, 1355769, 1356158, 1356575, 1356954, 1357336]",65,EM,L,R,ITMSR,1.1
2,600,trial,0,65,65,65,trial,"['S', 'S', 'S', 'S', 'S', 'S', 'C', 'C', 'C', 'C', 'C', 'C', 'C', 'C', 'C', 'C', 'C', 'C', 'C', 'C', 'C', 'C']","[1363800, 1364378, 1365002, 1365586, 1366196, 1366769, 1367408, 1368000, 1368572, 1369147, 1369738, 1370336, 1370959, 1371549, 1372143, 1372715, 1373287, 1373847, 1374427, 1375002, 1375590, 1376167]","[1364066, 1364750, 1365381, 1366030, 1366595, 1367227, 1367825, 1368391, 1368941, 1369526, 1370077, 1370708, 1371300, 1371851, 1372478, 1373060, 1373611, 1374187, 1374746, 1375350, 1375883]","[105, 107, 68, 10, 5, 234, 50, 184, 230, 235, 243, 243, 121, 230, 115, 225, 206, 168, 208, 167, 245]","[1363805, 1364383, 1365007, 1365592, 1366202, 1367094, 1367413, 1368312, 1368879, 1369427, 1369969, 1370499, 1371233, 1371725, 1372410, 1372990, 1373432, 1374048, 1374433, 1375184, 1375756]","[1362639, 1363239, 1363840, 1364440, 1365040, 1365640, 1366240, 1366840, 1367428, 1368020, 1368592, 1369167, 1369758, 1370356, 1370979, 1371569, 1372163, 1372735, 1373307, 1373868, 1374447, 1375022, 1375610, 1376187]",65,EM,L,R,ITMSR,1.1
3,600,trial,0,66,66,66,trial,"['S', 'S', 'S', 'S', 'S', 'S', 'C', 'C', 'C', 'C', 'C', 'C', 'C', 'C', 'C', 'C', 'C', 'C', 'C', 'C', 'C', 'C']","[1382764, 1383332, 1383973, 1384577, 1385185, 1385788, 1386396, 1386977, 1387568, 1388135, 1388710, 1389317, 1389876, 1390462, 1391072, 1391648, 1392199, 1392735, 1393325, 1393900, 1394487, 1395004]","[1383035, 1383741, 1384330, 1384938, 1385497, 1386087, 1386780, 1387329, 1387918, 1388489, 1389018, 1389606, 1390248, 1390799, 1391386, 1391929, 1392555, 1393067, 1393693, 1394179, 1394797]","[20, 15, 50, 15, 32, 179, 159, 210, 209, 215, 228, 217, 246, 7, 4, 212, 234, 246, 191, 191, 78]","[1382769, 1383339, 1383979, 1384582, 1385191, 1385795, 1386557, 1387147, 1387575, 1388334, 1388909, 1389477, 1389999, 1390737, 1391217, 1391809, 1392432, 1392923, 1393536, 1394061, 1394582]","[1381629, 1382228, 1382829, 1383429, 1384029, 1384629, 1385229, 1385829, 1386416, 1386997, 1387588, 1388155, 1388730, 1389337, 1389896, 1390482, 1391092, 1391668, 1392219, 1392755, 1393345, 1393921, 1394507, 1395024]",65,EM,L,R,ITMSR,1.1
0,600,trial,0,67,67,67,trial,"['S', 'S', 'S', 'S', 'S', 'S', 'C', 'C', 'C', 'C', 'C', 'C', 'C', 'C', 'C', 'C', 'C', 'C', 'C', 'C', 'C', 'C']","[1401809, 1402497, 1403104, 1403675, 1404322, 1404921, 1405492, 1406060, 1406647, 1407235, 1407851, 1408405, 1408969, 1409569, 1410154, 1410722, 1411292, 1411880, 1412464, 1413026, 1413611, 1414221]","[1402286, 1402829, 1403475, 1404088, 1404685, 1405267, 1405803, 1406440, 1406957, 1407579, 1408168, 1408735, 1409332, 1409863, 1410476, 1411060, 1411638, 1412215, 1412783, 1413364, 1413923]","[74, 89, 97, 57, 61, 18, 220, 251, 231, 240, 114, 2, 199, 156, 180, 209, 203, 217, 213, 196, 173]","[1401816, 1402502, 1403109, 1403681, 1404328, 1404926, 1405659, 1406265, 1406844, 1407241, 1407859, 1408412, 1409170, 1409722, 1410316, 1410898, 1411426, 1412072, 1412679, 1413250, 1413765]","[1400721, 1401321, 1401921, 1402521, 1403121, 1403721, 1404321, 1404921, 1405512, 1406081, 1406667, 1407255, 1407872, 1408425, 1408989, 1409589, 1410174, 1410742, 1411312, 1411900, 1412484, 1413046, 1413632, 1414241]",65,EM,L,R,ITMSR,1.1
5,600,trial,0,68,68,68,trial,"['S', 'S', 'S', 'S', 'S', 'S', 'C', 'C', 'C', 'C', 'C', 'C', 'C', 'C', 'C', 'C', 'C', 'C', 'C', 'C', 'C', 'C']","[1420918, 1421513, 1422141, 1422721, 1423335, 1423937, 1424528, 1425079, 1425625, 1426199, 1426779, 1427356, 1427929, 1428497, 1429091, 1429657, 1430227, 1430815, 1431420, 1432023, 1432607, 1433214]","[1421253, 1421894, 1422497, 1423079, 1423695, 1424252, 1424850, 1425379, 1425948, 1426490, 1427088, 1427696, 1428283, 1428859, 1429424, 1430011, 1430588, 1431194, 1431780, 1432380, 1432966]","[4, 80, 50, 95, 52, 232, 4, 182, 193, 226, 201, 185, 222, 219, 229, 252, 227, 217, 221, 158, 189]","[1420921, 1421518, 1422146, 1422725, 1423341, 1423942, 1424633, 1425242, 1425781, 1426350, 1426970, 1427600, 1428196, 1428752, 1429257, 1429873, 1430437, 1431033, 1431586, 1432029, 1432612]","[1419793, 1420393, 1420993, 1421593, 1422193, 1422793, 1423393, 1423993, 1424548, 1425099, 1425645, 1426220, 1426799, 1427376, 1427949, 1428517, 1429111, 1429677, 1430247, 1430835, 1431440, 1432043, 1432627, 1433234]",65,EM,L,R,ITMSR,1.1
4,600,trial,0,69,69,69,trial,"['S', 'S', 'S', 'S', 'S', 'S', 'S', 'C', 'C', 'C', 'C', 'C', 'C', 'C', 'C', 'C', 'C', 'C', 'C', 'C', 'C', 'C', 'C']","[1439339, 1439885, 1440468, 1441121, 1441707, 1442276, 1442903, 1443565, 1444118, 1444696, 1445257, 1445801, 1446385, 1446987, 1447570, 1448153, 1448740, 1449327, 1449922, 1450517, 1451094, 1451687, 1452271]","[1439621, 1440231, 1440839, 1441420, 1442024, 1442644, 1443295, 1443885, 1444482, 1445058, 1445588, 1446191, 1446763, 1447281, 1447902, 1448524, 1449091, 1449695, 1450258, 1450864, 1451428, 1452006]","[68, 81, 39, 105, 86, 74, 247, 173, 80, 211, 226, 254, 170, 246, 196, 187, 252, 188, 188, 12, 242, 26]","[1439344, 1439890, 1440474, 1441126, 1441711, 1442281, 1442908, 1443570, 1444123, 1444962, 1445504, 1446091, 1446647, 1446991, 1447575, 1448400, 1448745, 1449332, 1450131, 1450522, 1451099, 1451694]","[1438775, 1439375, 1439975, 1440575, 1441175, 1441775, 1442375, 1442975, 1443586, 1444139, 1444716, 1445277, 1445821, 1446405, 1447007, 1447590, 1448173, 1448760, 1449347, 1449943, 1450537, 1451114, 1451707, 1452291]",65,EM,L,R,ITMSR,1.1
4,400,trial,0,70,70,70,trial,"['S', 'S', 'S', 'S', 'S', 'S', 'S', 'C', 'C', 'C', 'C', 'C', 'C', 'C', 'C', 'C', 'C', 'C', 'C', 'C', 'C', 'C', 'C']","[1458259, 1458561, 1458928, 1459333, 1459696, 1460101, 1460495, 1460931, 1461303, 1461682, 1462061, 1462445, 1462815, 1463214, 1463626, 1464003, 1464389, 1464773, 1465152, 1465550, 1465923, 1466301, 1466683]","[1458404, 1458766, 1459136, 1459512, 1459950, 1460323, 1460758, 1461151, 1461559, 1461889, 1462306, 1462646, 1463017, 1463400, 1463753, 1464162, 1464553, 1464953, 1465352, 1465708, 1466098, 1466475, 1466903]","[128, 120, 142, 39, 124, 135, 147, 73, 42, 43, 54, 6, 177, 146, 141, 116, 149, 211, 211, 232, 1, 16, 42]","[1458265, 1458565, 1458933, 1459407, 1459701, 1460105, 1460499, 1460936, 1461431, 1461805, 1462067, 1462566, 1462903, 1463221, 1463632, 1464010, 1464486, 1464780, 1465158, 1465556, 1465929, 1466308, 1466688]","[1457748, 1458148, 1458548, 1458948, 1459348, 1459748, 1460148, 1460548, 1460952, 1461323, 1461702, 1462081, 1462465, 1462835, 1463234, 1463646, 1464024, 1464409, 1464793, 1465172, 1465570, 1465944, 1466321, 1466703]",65,EM,L,R,ITMSR,1.1
2,600,trial,0,71,71,71,trial,"['S', 'S', 'S', 'S', 'S', 'S', 'S', 'S', 'C', 'C', 'C', 'C', 'C', 'C', 'C', 'C', 'C', 'C', 'C', 'C', 'C', 'C', 'C', 'C']","[1472520, 1472831, 1473299, 1473851, 1474465, 1475047, 1475657, 1476277, 1476873, 1477448, 1477983, 1478573, 1479137, 1479696, 1480272, 1480877, 1481505, 1482075, 1482640, 1483189, 1483745, 1484319, 1484903, 1485499]","[1472542, 1473045, 1473650, 1474244, 1474792, 1475398, 1476026, 1476628, 1477224, 1477806, 1478369, 1478937, 1479528, 1480084, 1480648, 1481253, 1481842, 1482393, 1482971, 1483560, 1484132, 1484711, 1485248]","[35, 134, 156, 136, 108, 140, 115, 64, 70, 88, 61, 41, 38, 78, 74, 250, 67, 75, 39, 61, 69, 57, 50]","[1472524, 1472835, 1473303, 1473855, 1474469, 1475052, 1475662, 1476452, 1476878, 1477454, 1478163, 1478579, 1479447, 1479895, 1480479, 1480883, 1481723, 1482291, 1482766, 1483473, 1483921, 1484593, 1485137]","[1472103, 1472703, 1473303, 1473903, 1474503, 1475103, 1475703, 1476303, 1476893, 1477468, 1478003, 1478593, 1479157, 1479716, 1480292, 1480897, 1481525, 1482095, 1482660, 1483209, 1483765, 1484339, 1484923, 1485519]",65,EM,L,R,ITMSR,1.1
4,600,trial,0,72,72,72,trial,"['S', 'S', 'S', 'S', 'S', 'S', 'C', 'C', 'C', 'C', 'C', 'C', 'C', 'C', 'C', 'C', 'C', 'C', 'C', 'C', 'C', 'C']","[1492336, 1492904, 1493573, 1494158, 1494746, 1495350, 1495984, 1496554, 1497103, 1497674, 1498253, 1498820, 1499409, 1499973, 1500568, 1501121, 1501705, 1502264, 1502830, 1503406, 1503989, 1504566]","[1492605, 1493302, 1493933, 1494503, 1495097, 1495710, 1496339, 1496860, 1497413, 1497972, 1498591, 1499158, 1499709, 1500346, 1500888, 1501496, 1502091, 1502645, 1503163, 1503728, 1504339]","[162, 109, 94, 99, 111, 119, 95, 77, 105, 80, 62, 50, 47, 78, 56, 67, 65, 74, 65, 43, 39]","[1492339, 1492910, 1493578, 1494163, 1494751, 1495354, 1495989, 1496755, 1497288, 1497829, 1498460, 1499003, 1499579, 1499978, 1500759, 1501380, 1501953, 1502472, 1503068, 1503569, 1504230]","[1491244, 1491843, 1492443, 1493043, 1493643, 1494243, 1494843, 1495443, 1496004, 1496574, 1497123, 1497694, 1498273, 1498840, 1499429, 1499993, 1500589, 1501142, 1501725, 1502284, 1502850, 1503426, 1504009, 1504586]",65,EM,L,R,ITMSR,1.1
1,400,trial,0,73,73,73,trial,"['S', 'S', 'S', 'S', 'S', 'S', 'C', 'C', 'C', 'C', 'C', 'C', 'C', 'C', 'C', 'C', 'C', 'C', 'C', 'C', 'C', 'C']","[1510757, 1511161, 1511566, 1511956, 1512351, 1512747, 1513172, 1513572, 1513970, 1514351, 1514741, 1515127, 1515528, 1515905, 1516308, 1516683, 1517065, 1517458, 1517840, 1518230, 1518666, 1519036]","[1510955, 1511400, 1511776, 1512163, 1512567, 1512954, 1513368, 1513764, 1514150, 1514516, 1514925, 1515296, 1515667, 1516054, 1516453, 1516873, 1517227, 1517584, 1517939, 1518362, 1518779, 1519193]","[127, 89, 69, 136, 98, 85, 67, 218, 183, 76, 177, 229, 169, 192, 236, 0, 192, 210, 223, 30, 63, 145]","[1510762, 1511166, 1511664, 1512038, 1512441, 1512844, 1513241, 1513657, 1514054, 1514406, 1514844, 1515209, 1515537, 1515982, 1516315, 1516782, 1517148, 1517465, 1517847, 1518237, 1518678, 1519044]","[1510010, 1510410, 1510810, 1511211, 1511610, 1512010, 1512410, 1512810, 1513192, 1513592, 1513990, 1514371, 1514761, 1515147, 1515548, 1515925, 1516328, 1516703, 1517085, 1517478, 1517860, 1518251, 1518686, 1519056]",65,EM,L,R,ITMSR,1.1
1,400,trial,0,74,74,74,trial,"['S', 'S', 'S', 'S', 'S', 'S', 'C', 'C', 'C', 'C', 'C', 'C', 'C', 'C', 'C', 'C', 'C', 'C', 'C', 'C', 'C', 'C']","[1525581, 1525990, 1526389, 1526761, 1527165, 1527579, 1528002, 1528369, 1528759, 1529141, 1529523, 1529913, 1530307, 1530693, 1531088, 1531454, 1531839, 1532225, 1532593, 1532976, 1533371, 1533730]","[1525693, 1526076, 1526504, 1526925, 1527325, 1527740, 1528153, 1528559, 1528929, 1529309, 1529653, 1530076, 1530468, 1530845, 1531203, 1531566, 1531953, 1532345, 1532735, 1533103, 1533462, 1533847]","[148, 134, 148, 125, 78, 114, 68, 125, 83, 22, 62, 80, 56, 48, 157, 192, 204, 163, 126, 179, 118, 180]","[1525585, 1525994, 1526393, 1526766, 1527173, 1527584, 1528009, 1528374, 1528765, 1529147, 1529529, 1529919, 1530313, 1530699, 1531138, 1531503, 1531847, 1532282, 1532601, 1532983, 1533378, 1533736]","[1524823, 1525222, 1525622, 1526022, 1526422, 1526822, 1527222, 1527622, 1528023, 1528389, 1528779, 1529161, 1529543, 1529933, 1530328, 1530713, 1531108, 1531474, 1531859, 1532246, 1532613, 1532996, 1533391, 1533750]",65,EM,L,R,ITMSR,1.1
0,600,trial,0,75,75,75,trial,"['S', 'S', 'S', 'S', 'S', 'S', 'C', 'C', 'C', 'C', 'C', 'C', 'C', 'C', 'C', 'C', 'C', 'C', 'C', 'C', 'C', 'C']","[1540427, 1541019, 1541633, 1542188, 1542828, 1543418, 1544004, 1544552, 1545104, 1545639, 1546196, 1546749, 1547310, 1547856, 1548514, 1549087, 1549593, 1550100, 1550612, 1551133, 1551664, 1552226]","[1540728, 1541379, 1541945, 1542568, 1543168, 1543767, 1544295, 1544888, 1545432, 1545932, 1546519, 1547080, 1547612, 1548204, 1548857, 1549396, 1549902, 1550401, 1550886, 1551400, 1551929, 1552492]","[130, 116, 96, 36, 62, 62, 104, 116, 40, 250, 47, 50, 48, 212, 115, 3, 212, 214, 230, 7, 16, 21]","[1540431, 1541023, 1541638, 1542193, 1542833, 1543425, 1544009, 1544556, 1545109, 1545825, 1546202, 1546755, 1547315, 1547862, 1548567, 1549090, 1549596, 1550103, 1550616, 1551136, 1551667, 1552229]","[1539267, 1539866, 1540466, 1541066, 1541666, 1542266, 1542866, 1543467, 1544024, 1544572, 1545124, 1545659, 1546216, 1546769, 1547330, 1547876, 1548534, 1549107, 1549613, 1550120, 1550632, 1551153, 1551684, 1552246]",65,EM,L,R,ITMSR,1.1
4,400,trial,0,76,76,76,trial,"['S', 'S', 'S', 'S', 'S', 'S', 'S', 'C', 'C', 'C', 'C', 'C', 'C', 'C', 'C', 'C', 'C', 'C', 'C', 'C', 'C', 'C', 'C']","[1558419, 1558717, 1559086, 1559488, 1559852, 1560278, 1560695, 1561133, 1561530, 1561936, 1562305, 1562719, 1563130, 1563593, 1563990, 1564360, 1564724, 1565128, 1565491, 1565867, 1566258, 1566672, 1567075]","[1558515, 1558843, 1559218, 1559615, 1560048, 1560465, 1560928, 1561361, 1561742, 1562096, 1562475, 1562885, 1563273, 1563714, 1564146, 1564544, 1564940, 1565295, 1565700, 1566041, 1566425, 1566793, 1567183]","[116, 136, 137, 136, 141, 136, 120, 112, 123, 47, 105, 52, 18, 104, 156, 14, 143, 141, 252, 219, 28, 23, 35]","[1558423, 1558720, 1559089, 1559491, 1559856, 1560282, 1560699, 1561138, 1561534, 1561943, 1562310, 1562723, 1563134, 1563661, 1564046, 1564364, 1564823, 1565176, 1565495, 1565872, 1566262, 1566676, 1567077]","[1557971, 1558371, 1558771, 1559171, 1559571, 1559971, 1560371, 1560771, 1561153, 1561550, 1561956, 1562326, 1562739, 1563150, 1563613, 1564010, 1564380, 1564744, 1565148, 1565511, 1565887, 1566278, 1566692, 1567095]",65,EM,L,R,ITMSR,1.1
2,400,trial,0,77,77,77,trial,"['S', 'S', 'S', 'S', 'S', 'S', 'C', 'C', 'C', 'C', 'C', 'C', 'C', 'C', 'C', 'C', 'C', 'C', 'C', 'C', 'C', 'C']","[1573269, 1573667, 1574063, 1574439, 1574847, 1575270, 1575714, 1576123, 1576511, 1576871, 1577290, 1577661, 1578068, 1578462, 1578852, 1579250, 1579642, 1580019, 1580404, 1580818, 1581211, 1581627]","[1573353, 1573779, 1574231, 1574638, 1575037, 1575507, 1575924, 1576330, 1576687, 1577136, 1577469, 1577810, 1578183, 1578482, 1578872, 1579307, 1579720, 1580133, 1580492, 1580892, 1581294, 1581700]","[133, 148, 162, 124, 157, 139, 141, 132, 118, 60, 81, 0, 157, 44, 191, 104, 126, 86, 107, 154, 130, 155]","[1573273, 1573670, 1574066, 1574444, 1574850, 1575274, 1575717, 1576127, 1576515, 1576877, 1577295, 1577666, 1578074, 1578468, 1578857, 1579254, 1579645, 1580023, 1580409, 1580821, 1581215, 1581631]","[1572521, 1572921, 1573321, 1573721, 1574121, 1574521, 1574921, 1575321, 1575734, 1576143, 1576531, 1576891, 1577310, 1577681, 1578088, 1578482, 1578872, 1579270, 1579662, 1580039, 1580424, 1580838, 1581231, 1581647]",65,EM,L,R,ITMSR,1.1
0,400,trial,0,78,78,78,trial,"['S', 'S', 'S', 'S', 'S', 'S', 'S', 'C', 'C', 'C', 'C', 'C', 'C', 'C', 'C', 'C', 'C', 'C', 'C', 'C', 'C', 'C', 'C']","[1593643, 1594040, 1594443, 1594846, 1595251, 1595636, 1596049, 1596468, 1596838, 1597236, 1597630, 1598021, 1598394, 1598776, 1599187, 1599588, 1600014, 1600404, 1600800, 1601176, 1601554, 1601937, 1602321]","[1593768, 1594205, 1594648, 1595067, 1595422, 1595831, 1596243, 1596623, 1597030, 1597396, 1597794, 1598187, 1598555, 1598921, 1599367, 1599727, 1600158, 1600559, 1600979, 1601379, 1601742, 1602140, 1602520]","[121, 127, 131, 127, 91, 94, 96, 104, 96, 69, 79, 56, 65, 86, 50, 58, 157, 20, 52, 34, 66, 47, 69]","[1593648, 1594044, 1594448, 1594850, 1595256, 1595641, 1596054, 1596472, 1596844, 1597241, 1597635, 1598027, 1598399, 1598780, 1599193, 1599593, 1600022, 1600410, 1600806, 1601183, 1601661, 1602035, 1602395]","[1593285, 1593686, 1594085, 1594485, 1594885, 1595285, 1595685, 1596085, 1596488, 1596858, 1597256, 1597650, 1598041, 1598414, 1598796, 1599207, 1599608, 1600034, 1600424, 1600820, 1601197, 1601574, 1601957, 1602341]",65,EM,L,R,ITMSR,1.1
3,400,trial,0,79,79,79,trial,"['S', 'S', 'S', 'S', 'S', 'S', 'C', 'C', 'C', 'C', 'C', 'C', 'C', 'C', 'C', 'C', 'C', 'C', 'C', 'C', 'C', 'C']","[1608646, 1609024, 1609421, 1609848, 1610253, 1610639, 1611053, 1611425, 1611821, 1612206, 1612601, 1612985, 1613362, 1613760, 1614176, 1614557, 1614936, 1615336, 1615747, 1616116, 1616510, 1616907]","[1608738, 1609140, 1609555, 1609992, 1610386, 1610758, 1611160, 1611570, 1611953, 1612335, 1612727, 1613109, 1613478, 1613868, 1614296, 1614718, 1615109, 1615497, 1615873, 1616279, 1616662, 1617044]","[166, 155, 167, 172, 155, 172, 128, 160, 140, 150, 128, 130, 137, 148, 153, 114, 127, 111, 143, 120, 129, 111]","[1608649, 1609028, 1609425, 1609852, 1610257, 1610642, 1611058, 1611429, 1611825, 1612210, 1612605, 1612990, 1613367, 1613764, 1614180, 1614562, 1614941, 1615341, 1615751, 1616120, 1616515, 1616911]","[1607901, 1608301, 1608701, 1609101, 1609501, 1609901, 1610301, 1610701, 1611073, 1611445, 1611841, 1612226, 1612621, 1613005, 1613382, 1613780, 1614196, 1614577, 1614956, 1615356, 1615767, 1616136, 1616530, 1616927]",65,EM,L,R,ITMSR,1.1
2,400,trial,0,80,80,80,trial,"['S', 'S', 'S', 'S', 'S', 'S', 'C', 'C', 'C', 'C', 'C', 'C', 'C', 'C', 'C', 'C', 'C', 'C', 'C', 'C', 'C', 'C']","[1623392, 1623789, 1624192, 1624604, 1625004, 1625434, 1625833, 1626234, 1626616, 1627009, 1627438, 1627832, 1628246, 1628639, 1629042, 1629452, 1629876, 1630271, 1630702, 1631116, 1631542, 1631941]","[1623461, 1623845, 1624255, 1624701, 1625105, 1625509, 1625864, 1626270, 1626659, 1627057, 1627483, 1627879, 1628296, 1628686, 1629097, 1629511, 1629896, 1630309, 1630747, 1631145, 1631576, 1631990]","[180, 179, 183, 157, 140, 147, 175, 186, 173, 161, 173, 159, 163, 148, 176, 178, 165, 185, 186, 180, 192, 195]","[1623395, 1623792, 1624195, 1624608, 1625009, 1625439, 1625836, 1626236, 1626619, 1627013, 1627441, 1627836, 1628250, 1628644, 1629045, 1629455, 1629879, 1630274, 1630706, 1631119, 1631545, 1631944]","[1622649, 1623049, 1623449, 1623849, 1624249, 1624649, 1625049, 1625449, 1625853, 1626254, 1626636, 1627029, 1627458, 1627852, 1628266, 1628659, 1629062, 1629472, 1629896, 1630291, 1630722, 1631136, 1631562, 1631961]",65,EM,L,R,ITMSR,1.1
2,600,trial,0,81,81,81,trial,"['S', 'S', 'S', 'S', 'S', 'S', 'S', 'C', 'C', 'C', 'C', 'C', 'C', 'C', 'C', 'C', 'C', 'C', 'C', 'C', 'C', 'C', 'C']","[1638470, 1638900, 1639497, 1640110, 1640666, 1641297, 1641865, 1642468, 1643027, 1643601, 1644171, 1644771, 1645350, 1645911, 1646457, 1647011, 1647610, 1648168, 1648743, 1649319, 1649917, 1650479, 1651020]","[1638535, 1638931, 1639519, 1640133, 1640711, 1641317, 1641895, 1642509, 1643075, 1643624, 1644195, 1644817, 1645370, 1645949, 1646513, 1647067, 1647642, 1648215, 1648800, 1649382, 1649975, 1650541, 1651093]","[192, 185, 188, 183, 196, 187, 178, 174, 178, 156, 69, 69, 149, 185, 175, 161, 171, 182, 179, 184, 188, 181, 194]","[1638473, 1638903, 1639499, 1640113, 1640668, 1641300, 1641868, 1642472, 1643030, 1643603, 1644172, 1644775, 1645353, 1645914, 1646460, 1647014, 1647614, 1648172, 1648746, 1649323, 1649921, 1650482, 1651022]","[1637696, 1638295, 1638895, 1639495, 1640095, 1640695, 1641295, 1641895, 1642488, 1643047, 1643621, 1644191, 1644791, 1645370, 1645931, 1646477, 1647031, 1647630, 1648188, 1648763, 1649339, 1649937, 1650499, 1651040]",65,EM,L,R,ITMSR,1.1
3,400,trial,0,82,82,82,trial,"['S', 'S', 'S', 'S', 'S', 'S', 'S', 'C', 'C', 'C', 'C', 'C', 'C', 'C', 'C', 'C', 'C', 'C', 'C', 'C', 'C', 'C', 'C']","[1657026, 1657353, 1657709, 1658103, 1658505, 1658909, 1659307, 1659719, 1660139, 1660523, 1660930, 1661327, 1661718, 1662133, 1662538, 1662960, 1663308, 1663696, 1664111, 1664537, 1664931, 1665333, 1665742]","[1657097, 1657403, 1657779, 1658147, 1658525, 1658944, 1659344, 1659774, 1660160, 1660568, 1660989, 1661383, 1661777, 1662160, 1662576, 1663008, 1663391, 1663767, 1664160, 1664588, 1664974, 1665377, 1665785]","[190, 182, 177, 179, 177, 183, 185, 179, 181, 182, 165, 148, 167, 180, 177, 169, 163, 169, 173, 166, 185, 158, 172]","[1657029, 1657356, 1657712, 1658106, 1658508, 1658912, 1659310, 1659723, 1660142, 1660526, 1660933, 1661331, 1661721, 1662136, 1662541, 1662963, 1663311, 1663700, 1664115, 1664541, 1664935, 1665336, 1665745]","[1656532, 1656932, 1657332, 1657732, 1658132, 1658532, 1658932, 1659332, 1659739, 1660160, 1660544, 1660950, 1661347, 1661739, 1662153, 1662558, 1662980, 1663328, 1663716, 1664131, 1664557, 1664951, 1665353, 1665762]",65,EM,L,R,ITMSR,1.1
1,400,trial,0,83,83,83,trial,"['S', 'S', 'S', 'S', 'S', 'S', 'C', 'C', 'C', 'C', 'C', 'C', 'C', 'C', 'C', 'C', 'C', 'C', 'C', 'C', 'C', 'C']","[1671824, 1672255, 1672667, 1673057, 1673446, 1673847, 1674279, 1674653, 1675037, 1675411, 1675814, 1676225, 1676614, 1677021, 1677429, 1677826, 1678217, 1678617, 1679044, 1679424, 1679828, 1680230]","[1671891, 1672281, 1672687, 1673100, 1673489, 1673911, 1674323, 1674697, 1675104, 1675490, 1675868, 1676270, 1676653, 1677073, 1677485, 1677872, 1678279, 1678684, 1679089, 1679486, 1679878, 1680289]","[162, 185, 187, 175, 163, 164, 167, 157, 157, 156, 169, 161, 163, 153, 148, 156, 162, 166, 166, 166, 171, 171]","[1671827, 1672258, 1672670, 1673060, 1673449, 1673851, 1674284, 1674657, 1675041, 1675415, 1675817, 1676228, 1676618, 1677025, 1677433, 1677830, 1678221, 1678621, 1679047, 1679428, 1679832, 1680234]","[1671099, 1671498, 1671898, 1672298, 1672698, 1673098, 1673498, 1673899, 1674299, 1674673, 1675057, 1675431, 1675834, 1676246, 1676634, 1677041, 1677449, 1677846, 1678237, 1678637, 1679064, 1679444, 1679848, 1680250]",65,EM,L,R,ITMSR,1.1
3,600,trial,0,84,84,84,trial,"['S', 'S', 'S', 'S', 'S', 'S', 'S', 'C', 'C', 'C', 'C', 'C', 'C', 'C', 'C', 'C', 'C', 'C', 'C', 'C', 'C', 'C', 'C']","[1685952, 1686728, 1687325, 1687912, 1688542, 1689149, 1689728, 1690298, 1690876, 1691453, 1692036, 1692616, 1693191, 1693736, 1694302, 1694901, 1695466, 1696048, 1696646, 1697210, 1697792, 1698363, 1698947]","[1686007, 1686791, 1687345, 1687984, 1688562, 1689181, 1689766, 1690370, 1690896, 1691517, 1692097, 1692679, 1693211, 1693796, 1694358, 1694948, 1695535, 1696068, 1696714, 1697249, 1697851, 1698430, 1698993]","[130, 191, 166, 173, 150, 140, 171, 184, 170, 180, 173, 181, 149, 186, 180, 181, 176, 146, 168, 176, 183, 167, 187]","[1685956, 1686731, 1687329, 1687916, 1688545, 1689153, 1689731, 1690301, 1690880, 1691456, 1692040, 1692619, 1693195, 1693740, 1694305, 1694905, 1695469, 1696052, 1696650, 1697214, 1697795, 1698367, 1698950]","[1685583, 1686183, 1686784, 1687384, 1687984, 1688584, 1689184, 1689784, 1690318, 1690896, 1691473, 1692056, 1692636, 1693211, 1693756, 1694322, 1694921, 1695486, 1696068, 1696666, 1697230, 1697812, 1698383, 1698967]",65,EM,L,R,ITMSR,1.1
2,400,trial,0,85,85,85,trial,"['S', 'S', 'S', 'S', 'S', 'S', 'C', 'C', 'C', 'C', 'C', 'C', 'C', 'C', 'C', 'C', 'C', 'C', 'C', 'C', 'C', 'C']","[1705302, 1705689, 1706076, 1706461, 1706866, 1707325, 1707720, 1708095, 1708514, 1708921, 1709317, 1709740, 1710160, 1710570, 1710996, 1711405, 1711816, 1712231, 1712673, 1713080, 1713496, 1713924]","[1705371, 1705742, 1706133, 1706501, 1706911, 1707365, 1707746, 1708133, 1708547, 1708941, 1709358, 1709784, 1710205, 1710590, 1711016, 1711449, 1711836, 1712275, 1712693, 1713100, 1713546, 1713968]","[157, 163, 156, 178, 179, 179, 173, 179, 185, 169, 175, 175, 171, 185, 179, 162, 165, 159, 165, 174, 167, 175]","[1705305, 1705692, 1706079, 1706463, 1706869, 1707328, 1707723, 1708098, 1708517, 1708925, 1709320, 1709744, 1710164, 1710573, 1710999, 1711408, 1711820, 1712235, 1712676, 1713084, 1713500, 1713927]","[1704529, 1704928, 1705328, 1705729, 1706128, 1706528, 1706928, 1707328, 1707740, 1708115, 1708534, 1708941, 1709337, 1709760, 1710180, 1710590, 1711016, 1711425, 1711836, 1712251, 1712693, 1713100, 1713516, 1713944]",65,EM,L,R,ITMSR,1.1
5,600,trial,0,86,86,86,trial,"['S', 'S', 'S', 'S', 'S', 'S', 'S', 'C', 'C', 'C', 'C', 'C', 'C', 'C', 'C', 'C', 'C', 'C', 'C', 'C', 'C', 'C', 'C']","[1719875, 1720617, 1721243, 1721859, 1722426, 1723008, 1723638, 1724273, 1724819, 1725375, 1726007, 1726592, 1727177, 1727771, 1728346, 1728907, 1729471, 1730050, 1730582, 1731162, 1731727, 1732286, 1732882]","[1719923, 1720637, 1721263, 1721915, 1722470, 1723071, 1723658, 1724317, 1724883, 1725438, 1726028, 1726616, 1727198, 1727793, 1728369, 1728947, 1729491, 1730070, 1730603, 1731202, 1731786, 1732320, 1732916]","[176, 156, 168, 178, 176, 182, 180, 186, 193, 183, 157, 156, 152, 145, 142, 158, 150, 161, 139, 170, 130, 137, 159]","[1719878, 1720622, 1721246, 1721863, 1722429, 1723010, 1723641, 1724275, 1724822, 1725378, 1726010, 1726595, 1727181, 1727774, 1728350, 1728911, 1729475, 1730053, 1730586, 1731164, 1731731, 1732289, 1732886]","[1719513, 1720113, 1720713, 1721313, 1721913, 1722513, 1723113, 1723713, 1724293, 1724839, 1725395, 1726027, 1726612, 1727197, 1727791, 1728366, 1728927, 1729491, 1730070, 1730603, 1731182, 1731747, 1732306, 1732902]",65,EM,L,R,ITMSR,1.1
1,400,trial,0,87,87,87,trial,"['S', 'S', 'S', 'S', 'S', 'S', 'C', 'C', 'C', 'C', 'C', 'C', 'C', 'C', 'C', 'C', 'C', 'C', 'C', 'C', 'C', 'C']","[1739282, 1739724, 1740131, 1740477, 1740871, 1741294, 1741710, 1742123, 1742532, 1742938, 1743350, 1743741, 1744154, 1744560, 1744982, 1745352, 1745784, 1746203, 1746627, 1747042, 1747444, 1747879]","[1739337, 1739770, 1740155, 1740506, 1740911, 1741342, 1741734, 1742146, 1742553, 1742977, 1743374, 1743787, 1744192, 1744603, 1745005, 1745412, 1745837, 1746235, 1746658, 1747067, 1747479, 1747926]","[149, 171, 151, 145, 165, 165, 174, 144, 142, 124, 117, 107, 143, 125, 145, 152, 141, 140, 132, 144, 148, 143]","[1739287, 1739727, 1740135, 1740481, 1740876, 1741297, 1741713, 1742129, 1742537, 1742943, 1743355, 1743748, 1744158, 1744564, 1744986, 1745355, 1745788, 1746207, 1746632, 1747046, 1747448, 1747883]","[1738506, 1738906, 1739307, 1739706, 1740106, 1740506, 1740906, 1741306, 1741730, 1742143, 1742552, 1742958, 1743370, 1743761, 1744174, 1744580, 1745002, 1745372, 1745804, 1746223, 1746648, 1747062, 1747464, 1747899]",65,EM,L,R,ITMSR,1.1
0,600,trial,0,88,88,88,trial,"['S', 'S', 'S', 'S', 'S', 'S', 'S', 'C', 'C', 'C', 'C', 'C', 'C', 'C', 'C', 'C', 'C', 'C', 'C', 'C', 'C', 'C', 'C']","[1753912, 1754650, 1755262, 1755888, 1756473, 1757080, 1757677, 1758274, 1758898, 1759469, 1760056, 1760654, 1761268, 1761855, 1762435, 1763015, 1763606, 1764169, 1764781, 1765384, 1765949, 1766513, 1767111]","[1753953, 1754698, 1755288, 1755913, 1756534, 1757113, 1757702, 1758332, 1758923, 1759515, 1760083, 1760688, 1761307, 1761899, 1762499, 1763063, 1763656, 1764218, 1764813, 1765431, 1766000, 1766556, 1767157]","[162, 162, 163, 167, 182, 172, 175, 162, 168, 171, 170, 178, 166, 178, 173, 178, 170, 164, 181, 180, 174, 159, 178]","[1753916, 1754655, 1755268, 1755892, 1756478, 1757084, 1757680, 1758277, 1758901, 1759474, 1760060, 1760657, 1761272, 1761860, 1762439, 1763019, 1763609, 1764172, 1764784, 1765387, 1765953, 1766517, 1767115]","[1753507, 1754107, 1754707, 1755308, 1755907, 1756507, 1757107, 1757707, 1758295, 1758918, 1759490, 1760076, 1760674, 1761288, 1761875, 1762455, 1763035, 1763627, 1764189, 1764801, 1765404, 1765969, 1766533, 1767131]",65,EM,L,R,ITMSR,1.1
4,400,trial,0,89,89,89,trial,"['S', 'S', 'S', 'S', 'S', 'S', 'C', 'C', 'C', 'C', 'C', 'C', 'C', 'C', 'C', 'C', 'C', 'C', 'C', 'C', 'C', 'C']","[1773708, 1774077, 1774498, 1774882, 1775291, 1775710, 1776126, 1776522, 1776919, 1777318, 1777718, 1778099, 1778507, 1778914, 1779334, 1779735, 1780140, 1780535, 1780956, 1781343, 1781747, 1782174]","[1773734, 1774115, 1774531, 1774908, 1775318, 1775738, 1776158, 1776567, 1776969, 1777367, 1777777, 1778143, 1778552, 1778964, 1779398, 1779811, 1780199, 1780614, 1781021, 1781435, 1781851, 1782276]","[153, 161, 183, 123, 106, 147, 174, 140, 126, 117, 118, 107, 130, 132, 144, 53, 98, 79, 104, 103, 73, 12]","[1773712, 1774081, 1774500, 1774886, 1775296, 1775714, 1776130, 1776526, 1776923, 1777323, 1777723, 1778104, 1778511, 1778918, 1779338, 1779741, 1780145, 1780541, 1780961, 1781348, 1781752, 1782180]","[1772929, 1773328, 1773728, 1774128, 1774528, 1774928, 1775328, 1775728, 1776146, 1776542, 1776940, 1777338, 1777738, 1778119, 1778527, 1778934, 1779354, 1779756, 1780160, 1780555, 1780976, 1781363, 1781767, 1782194]",65,EM,L,R,ITMSR,1.1
5,400,trial,0,90,90,90,trial,"['S', 'S', 'S', 'S', 'S', 'S', 'S', 'C', 'C', 'C', 'C', 'C', 'C', 'C', 'C', 'C', 'C', 'C', 'C', 'C', 'C', 'C', 'C', 'C']","[1788233, 1788613, 1789009, 1789383, 1789768, 1790158, 1790557, 1791007, 1791391, 1791818, 1792212, 1792607, 1793016, 1793413, 1793806, 1793906, 1794222, 1794610, 1795023, 1795424, 1795825, 1796234, 1796634, 1797022]","[1788302, 1788676, 1789071, 1789443, 1789825, 1790243, 1790652, 1791072, 1791479, 1791887, 1792276, 1792681, 1793086, 1793487, 1793826, 1793926, 1794301, 1794720, 1795126, 1795546, 1795950, 1796334, 1796727, 1797124]","[145, 165, 154, 131, 97, 91, 125, 102, 131, 102, 127, 107, 100, 118, 235, 94, 84, 100, 105, 102, 105, 77, 101, 104]","[1788237, 1788617, 1789014, 1789387, 1789773, 1790162, 1790561, 1791011, 1791395, 1791822, 1792217, 1792611, 1793020, 1793417, 1793811, 1793906, 1794227, 1794615, 1795028, 1795429, 1795829, 1796238, 1796639, 1797027]","[1787855, 1788255, 1788655, 1789056, 1789455, 1789855, 1790255, 1790655, 1791027, 1791411, 1791838, 1792232, 1792627, 1793036, 1793433, 1793826, 1794242, 1794630, 1795043, 1795444, 1795845, 1796254, 1796654, 1797042]",65,EM,L,R,ITMSR,1.1
0,600,trial,0,91,91,91,trial,"['S', 'S', 'S', 'S', 'S', 'S', 'S', 'C', 'C', 'C', 'C', 'C', 'C', 'C', 'C', 'C', 'C', 'C', 'C', 'C', 'C', 'C', 'C']","[1802840, 1803651, 1804261, 1804892, 1805467, 1806038, 1806640, 1807241, 1807842, 1808453, 1809039, 1809648, 1810248, 1810847, 1811419, 1812022, 1812618, 1813201, 1813784, 1814414, 1815050, 1815653, 1816259]","[1803280, 1804020, 1804314, 1804913, 1805490, 1806091, 1806694, 1807303, 1807895, 1808501, 1809064, 1809677, 1810276, 1810904, 1811491, 1812080, 1812662, 1813255, 1813852, 1814458, 1815087, 1815715, 1816293]","[135, 182, 164, 150, 176, 179, 179, 188, 184, 176, 177, 186, 186, 197, 180, 176, 158, 187, 176, 176, 176, 192, 179]","[1802844, 1803654, 1804266, 1804894, 1805471, 1806043, 1806644, 1807245, 1807846, 1808457, 1809041, 1809652, 1810250, 1810851, 1811421, 1812027, 1812622, 1813206, 1813786, 1814417, 1815053, 1815657, 1816264]","[1802489, 1803089, 1803689, 1804290, 1804890, 1805490, 1806090, 1806690, 1807261, 1807862, 1808473, 1809059, 1809668, 1810268, 1810867, 1811439, 1812042, 1812638, 1813221, 1813805, 1814434, 1815070, 1815673, 1816280]",65,EM,L,R,ITMSR,1.1
4,600,trial,0,92,92,92,trial,"['S', 'S', 'S', 'S', 'S', 'S', 'S', 'C', 'C', 'C', 'C', 'C', 'C', 'C', 'C', 'C', 'C', 'C', 'C', 'C', 'C', 'C', 'C']","[1822053, 1822821, 1823382, 1824025, 1824572, 1825197, 1825806, 1826414, 1826970, 1827529, 1828107, 1828719, 1829299, 1829892, 1830480, 1831084, 1831651, 1832233, 1832815, 1833456, 1834037, 1834582, 1835136]","[1822132, 1822841, 1823403, 1824088, 1824638, 1825219, 1825826, 1826436, 1826991, 1827589, 1828157, 1828742, 1829349, 1829950, 1830550, 1831105, 1831715, 1832292, 1832839, 1833519, 1834093, 1834641, 1835225]","[188, 150, 189, 166, 167, 170, 163, 174, 175, 156, 130, 165, 165, 159, 138, 174, 162, 157, 163, 149, 158, 161, 136]","[1822056, 1822825, 1823385, 1824030, 1824577, 1825202, 1825811, 1826419, 1826975, 1827534, 1828113, 1828724, 1829304, 1829897, 1830486, 1831089, 1831656, 1832238, 1832819, 1833461, 1834042, 1834587, 1835141]","[1821666, 1822266, 1822866, 1823466, 1824066, 1824666, 1825266, 1825866, 1826434, 1826990, 1827549, 1828127, 1828739, 1829319, 1829912, 1830500, 1831104, 1831671, 1832253, 1832835, 1833476, 1834057, 1834602, 1835156]",65,EM,L,R,ITMSR,1.1
5,600,trial,0,93,93,93,trial,"['S', 'S', 'S', 'S', 'S', 'S', 'S', 'C', 'C', 'C', 'C', 'C', 'C', 'C', 'C', 'C', 'C', 'C', 'C', 'C', 'C', 'C', 'C']","[1841247, 1841884, 1842505, 1843105, 1843686, 1844307, 1844904, 1845528, 1846120, 1846707, 1847302, 1847889, 1848468, 1849072, 1849655, 1850267, 1850862, 1851435, 1852021, 1852610, 1853213, 1853839, 1854460]","[1841297, 1841918, 1842558, 1843167, 1843755, 1844331, 1844974, 1845551, 1846146, 1846727, 1847336, 1847909, 1848524, 1849128, 1849729, 1850306, 1850933, 1851456, 1852041, 1852631, 1853303, 1853934, 1854480]","[154, 171, 175, 187, 177, 164, 167, 163, 137, 145, 169, 157, 162, 169, 168, 147, 141, 143, 147, 128, 129, 150, 65]","[1841251, 1841887, 1842509, 1843108, 1843690, 1844313, 1844909, 1845532, 1846124, 1846710, 1847305, 1847892, 1848472, 1849077, 1849659, 1850271, 1850867, 1851439, 1852024, 1852615, 1853218, 1853843, 1854466]","[1840758, 1841358, 1841958, 1842558, 1843159, 1843758, 1844358, 1844958, 1845549, 1846140, 1846727, 1847322, 1847909, 1848488, 1849092, 1849675, 1850287, 1850882, 1851455, 1852041, 1852631, 1853233, 1853859, 1854480]",65,EM,L,R,ITMSR,1.1
0,400,trial,0,94,94,94,trial,"['S', 'S', 'S', 'S', 'S', 'S', 'S', 'C', 'C', 'C', 'C', 'C', 'C', 'C', 'C', 'C', 'C', 'C', 'C', 'C', 'C', 'C', 'C']","[1860487, 1860866, 1861269, 1861633, 1862047, 1862443, 1862824, 1863239, 1863632, 1864029, 1864412, 1864813, 1865200, 1865602, 1866015, 1866413, 1866798, 1867180, 1867544, 1867968, 1868350, 1868752, 1869142]","[1860569, 1860919, 1861289, 1861669, 1862071, 1862465, 1862865, 1863271, 1863655, 1864049, 1864438, 1864858, 1865244, 1865648, 1866035, 1866459, 1866844, 1867247, 1867610, 1868018, 1868391, 1868802, 1869212]","[129, 164, 160, 178, 171, 160, 158, 169, 171, 141, 162, 169, 136, 141, 139, 138, 120, 128, 127, 140, 143, 143, 61]","[1860491, 1860870, 1861271, 1861636, 1862051, 1862446, 1862829, 1863243, 1863636, 1864034, 1864416, 1864817, 1865204, 1865606, 1866019, 1866417, 1866802, 1867184, 1867548, 1867971, 1868355, 1868756, 1869148]","[1860069, 1860469, 1860869, 1861269, 1861669, 1862069, 1862469, 1862870, 1863259, 1863652, 1864049, 1864432, 1864834, 1865220, 1865622, 1866035, 1866433, 1866818, 1867200, 1867565, 1867988, 1868370, 1868772, 1869162]",65,EM,L,R,ITMSR,1.1
