pitch,ioi,event,.thisRepN,.thisTrialN,.thisN,.thisIndex,event,tap_types,tap_times,release_times,peak_pressures,peak_times,tone_times,subject,experimenter,register,handedness,experiment,version,
,,SPR,0,-1,-1,0,SPR,"['P', 'P', 'P', 'P', 'P', 'P', 'P', 'P', 'P', 'P', 'P', 'P', 'P', 'P', 'P', 'P', 'P', 'P', 'P', 'P', 'P', 'P', 'P', 'P', 'P', 'P', 'P', 'P', 'P', 'P']","[36050, 36456, 36887, 37312, 37716, 38141, 38551, 38966, 39355, 39779, 40188, 40573, 40983, 41356, 41731, 42103, 42510, 42894, 43293, 43672, 44053, 44414, 44826, 45184, 45586, 46011, 46379, 46742, 47129, 47510]","[36159, 36573, 36977, 37421, 37837, 38225, 38597, 39036, 39438, 39865, 40272, 40663, 41052, 41457, 41822, 42203, 42586, 42915, 43364, 43692, 44143, 44498, 44921, 45274, 45700, 46087, 46498, 46840, 47251, 47614]","[9, 74, 27, 1, 79, 33, 20, 20, 16, 12, 248, 184, 16, 47, 118, 62, 43, 8, 5, 193, 29, 176, 17, 57, 109, 94, 134, 85, 102, 116]","[36057, 36460, 36892, 37317, 37722, 38146, 38555, 38969, 39359, 39783, 40193, 40578, 40987, 41360, 41735, 42107, 42514, 42897, 43297, 43675, 44056, 44419, 44829, 45190, 45591, 46015, 46383, 46747, 47133, 47514]",,51,SB,L,R,ITMSR,1.0,
0,500,practice,0,0,0,0,practice,"['S', 'S', 'S', 'S', 'S', 'S', 'S', 'C', 'C', 'C', 'C', 'C', 'C', 'C', 'C', 'C', 'C', 'C', 'C', 'C', 'C', 'C', 'C']","[143548, 144053, 144563, 145120, 145618, 146114, 146608, 147100, 147586, 148076, 148559, 149045, 149511, 150010, 150484, 150959, 151427, 151906, 152401, 152877, 153349, 153826, 154311]","[143657, 144186, 144721, 145269, 145774, 146276, 146746, 147231, 147714, 148200, 148699, 149177, 149659, 150149, 150612, 151110, 151599, 152084, 152562, 153037, 153508, 153984, 154466]","[2, 88, 106, 39, 149, 145, 136, 133, 140, 141, 136, 148, 150, 156, 155, 160, 164, 166, 158, 161, 165, 166, 164]","[143555, 144058, 144568, 145125, 145623, 146118, 146612, 147104, 147590, 148080, 148563, 149049, 149515, 150014, 150489, 150963, 151431, 151910, 152406, 152881, 153353, 153830, 154315]","[143159, 143657, 144157, 144658, 145158, 145657, 146157, 146658, 147140, 147627, 148117, 148599, 149086, 149552, 150050, 150524, 151000, 151468, 151947, 152441, 152918, 153390, 153867, 154351]",51,SB,L,R,ITMSR,1.0,
5,500,practice,0,1,1,1,practice,"['S', 'S', 'S', 'S', 'S', 'S', 'C', 'C', 'C', 'C', 'C', 'C', 'C', 'C', 'C', 'C', 'C', 'C', 'C', 'C', 'C', 'C']","[160608, 161104, 161616, 162130, 162629, 163134, 163665, 164160, 164668, 165169, 165684, 166209, 166689, 167191, 167683, 168189, 168698, 169186, 169680, 170192, 170662, 171140]","[160735, 161238, 161751, 162274, 162767, 163274, 163801, 164297, 164819, 165313, 165828, 166360, 166859, 167351, 167844, 168354, 168846, 169357, 169864, 170361, 170847, 171369]","[81, 129, 127, 120, 146, 156, 137, 142, 157, 150, 154, 136, 146, 150, 164, 158, 143, 152, 153, 158, 157, 161]","[160613, 161108, 161622, 162135, 162633, 163138, 163671, 164164, 164672, 165173, 165688, 166213, 166693, 167195, 167687, 168194, 168702, 169190, 169684, 170196, 170667, 171143]","[159683, 160183, 160683, 161182, 161683, 162183, 162682, 163182, 163705, 164201, 164709, 165210, 165725, 166250, 166729, 167232, 167724, 168229, 168738, 169227, 169720, 170232, 170702, 171181]",51,SB,L,R,ITMSR,1.0,
4,500,practice,0,2,2,2,practice,"['S', 'S', 'S', 'S', 'S', 'S', 'S', 'S', 'C', 'C', 'C', 'C', 'C', 'C', 'C', 'C', 'C', 'C', 'C', 'C', 'C', 'C', 'C', 'C']","[177137, 177480, 177824, 178313, 178816, 179323, 179836, 180321, 180841, 181352, 181865, 182343, 182832, 183329, 183820, 184306, 184833, 185309, 185784, 186259, 186748, 187268, 187748, 188206]","[177265, 177596, 177982, 178482, 179004, 179535, 180019, 180498, 181032, 181538, 182026, 182526, 183004, 183478, 184018, 184516, 185013, 185481, 185959, 186413, 186918, 187408, 187902, 188353]","[124, 103, 127, 146, 147, 146, 141, 138, 144, 157, 158, 149, 162, 163, 144, 166, 124, 141, 148, 143, 143, 150, 138, 137]","[177196, 177524, 177879, 178380, 178820, 179328, 179842, 180325, 180845, 181356, 181869, 182347, 182836, 183332, 183823, 184310, 184836, 185313, 185787, 186263, 186753, 187271, 187752, 188210]","[176874, 177375, 177874, 178374, 178875, 179375, 179874, 180374, 180880, 181391, 181904, 182381, 182871, 183367, 183859, 184344, 184871, 185348, 185823, 186298, 186786, 187307, 187787, 188244]",51,SB,L,R,ITMSR,1.0,
3,500,practice,0,3,3,3,practice,"['S', 'S', 'S', 'S', 'S', 'S', 'C', 'C', 'C', 'C', 'C', 'C', 'C', 'C', 'C', 'C', 'C', 'C', 'C', 'C', 'C', 'C']","[194897, 195385, 195900, 196404, 196940, 197433, 197945, 198436, 198919, 199393, 199872, 200369, 200848, 201341, 201807, 202327, 202764, 203244, 203713, 204205, 204651, 205144]","[195016, 195500, 196026, 196539, 197069, 197574, 198070, 198576, 199070, 199550, 200026, 200498, 200991, 201440, 201954, 202430, 202899, 203369, 203850, 204316, 204816, 205284]","[63, 95, 122, 133, 130, 127, 152, 140, 143, 113, 117, 120, 121, 113, 134, 107, 122, 127, 128, 130, 134, 144]","[194941, 195429, 195904, 196408, 196944, 197437, 197949, 198439, 198923, 199397, 199876, 200373, 200852, 201347, 201811, 202332, 202768, 203298, 203716, 204209, 204655, 205148]","[193987, 194488, 194988, 195487, 195988, 196488, 196987, 197487, 197986, 198476, 198960, 199434, 199913, 200410, 200889, 201381, 201847, 202368, 202805, 203285, 203754, 204246, 204692, 205185]",51,SB,L,R,ITMSR,1.0,
1,500,practice,0,4,4,4,practice,"['S', 'S', 'S', 'S', 'S', 'S', 'S', 'C', 'C', 'C', 'C', 'C', 'C', 'C', 'C', 'C', 'C', 'C', 'C', 'C', 'C', 'C', 'C']","[211032, 211533, 212066, 212576, 213065, 213551, 214072, 214546, 215050, 215532, 215993, 216449, 216919, 217392, 217859, 218318, 218786, 219259, 219712, 220228, 220675, 221115, 221574]","[211155, 211662, 212213, 212758, 213232, 213725, 214269, 214755, 215239, 215685, 216138, 216622, 217084, 217539, 218004, 218469, 218927, 219397, 219855, 220362, 220812, 221255, 221703]","[114, 152, 143, 170, 156, 167, 141, 157, 132, 143, 136, 138, 135, 123, 122, 144, 137, 138, 120, 137, 117, 140, 125]","[211075, 211537, 212069, 212579, 213068, 213554, 214075, 214549, 215054, 215536, 215996, 216453, 216923, 217396, 217863, 218321, 218790, 219262, 219716, 220232, 220679, 221118, 221577]","[210637, 211137, 211638, 212137, 212637, 213138, 213638, 214137, 214586, 215090, 215572, 216033, 216488, 216958, 217432, 217899, 218357, 218825, 219298, 219752, 220267, 220715, 221155, 221614]",51,SB,L,R,ITMSR,1.0,
2,500,practice,0,5,5,5,practice,"['S', 'S', 'S', 'S', 'S', 'S', 'S', 'C', 'C', 'C', 'C', 'C', 'C', 'C', 'C', 'C', 'C', 'C', 'C', 'C', 'C', 'C', 'C']","[227602, 228068, 228585, 229086, 229595, 230091, 230594, 231095, 231576, 232048, 232499, 232976, 233452, 233935, 234390, 234865, 235386, 235834, 236288, 236750, 237216, 237665, 238143]","[227723, 228221, 228764, 229264, 229772, 230259, 230749, 231276, 231733, 232190, 232637, 233140, 233576, 234078, 234530, 235041, 235495, 235966, 236405, 236896, 237325, 237769, 238271]","[92, 148, 145, 140, 155, 140, 156, 139, 146, 144, 148, 150, 145, 141, 129, 150, 105, 134, 100, 149, 111, 113, 103]","[227658, 228071, 228589, 229090, 229598, 230094, 230597, 231098, 231579, 232052, 232503, 232980, 233455, 233938, 234394, 234869, 235390, 235837, 236292, 236753, 237220, 237669, 238147]","[227159, 227657, 228158, 228658, 229157, 229657, 230158, 230658, 231136, 231617, 232088, 232540, 233017, 233493, 233975, 234431, 234905, 235426, 235875, 236328, 236790, 237256, 237706, 238184]",51,SB,L,R,ITMSR,1.0,
3,600,trial,0,6,6,6,trial,"['S', 'S', 'S', 'S', 'S', 'S', 'S', 'C', 'C', 'C', 'C', 'C', 'C', 'C', 'C', 'C', 'C', 'C', 'C', 'C', 'C', 'C', 'C']","[284547, 285227, 285899, 286498, 287101, 287683, 288288, 288875, 289502, 290107, 290682, 291266, 291820, 292406, 292974, 293500, 294091, 294666, 295230, 295767, 296364, 296942, 297481]","[284653, 285348, 286057, 286672, 287263, 287865, 288501, 289113, 289678, 290282, 290899, 291438, 291992, 292582, 293173, 293731, 294293, 294878, 295437, 295986, 296542, 297145, 297667]","[96, 105, 140, 138, 136, 151, 148, 165, 151, 162, 159, 122, 160, 145, 166, 151, 166, 168, 154, 151, 146, 145, 156]","[284552, 285232, 285903, 286502, 287107, 287687, 288291, 288879, 289506, 290110, 290686, 291270, 291823, 292410, 292978, 293505, 294094, 294669, 295233, 295770, 296367, 296945, 297484]","[284140, 284740, 285340, 285940, 286540, 287140, 287740, 288340, 288916, 289543, 290148, 290722, 291307, 291861, 292447, 293014, 293540, 294131, 294707, 295271, 295808, 296404, 296982, 297522]",51,SB,L,R,ITMSR,1.0,
0,400,trial,0,7,7,7,trial,"['S', 'S', 'S', 'S', 'S', 'C', 'C', 'C', 'C', 'C', 'C', 'C', 'C', 'C', 'C', 'C', 'C', 'C', 'C', 'C', 'C']","[304233, 304645, 305042, 305455, 305839, 306252, 306630, 306990, 307406, 307815, 308213, 308583, 308946, 309343, 309726, 310118, 310509, 310862, 311250, 311636, 312027]","[304320, 304736, 305144, 305561, 305920, 306345, 306724, 307091, 307504, 307911, 308290, 308675, 309039, 309447, 309817, 310200, 310578, 310957, 311348, 311731, 312104]","[151, 159, 153, 155, 122, 159, 132, 103, 129, 90, 98, 75, 111, 127, 132, 151, 135, 156, 148, 147, 151]","[304237, 304648, 305045, 305458, 305843, 306255, 306634, 306995, 307410, 307820, 308218, 308589, 308952, 309347, 309731, 310121, 310514, 310866, 311255, 311641, 312030]","[303120, 303519, 303920, 304320, 304719, 305120, 305519, 305920, 306292, 306670, 307031, 307446, 307856, 308253, 308624, 308986, 309384, 309767, 310159, 310550, 310902, 311290, 311676, 312068]",51,SB,L,R,ITMSR,1.0,
1,600,trial,0,8,8,8,trial,"['S', 'S', 'S', 'S', 'S', 'S', 'S', 'C', 'C', 'C', 'C', 'C', 'C', 'C', 'C', 'C', 'C', 'C', 'C', 'C', 'C', 'C', 'C']","[317916, 318648, 319294, 319906, 320547, 321147, 321698, 322258, 322870, 323447, 324006, 324619, 325191, 325743, 326284, 326836, 327389, 327940, 328476, 329018, 329567, 330106, 330659]","[317990, 318763, 319443, 320041, 320632, 321249, 321815, 322386, 322961, 323573, 324139, 324739, 325316, 325865, 326417, 326975, 327526, 328069, 328595, 329146, 329671, 330213, 330758]","[62, 147, 154, 160, 47, 15, 160, 157, 138, 143, 152, 127, 135, 129, 125, 153, 132, 150, 152, 116, 141, 116, 163]","[317921, 318652, 319298, 319910, 320578, 321175, 321702, 322263, 322874, 323451, 324011, 324623, 325195, 325747, 326288, 326840, 327393, 327943, 328479, 329022, 329571, 330110, 330663]","[317547, 318147, 318747, 319347, 319947, 320547, 321147, 321747, 322297, 322910, 323486, 324045, 324659, 325230, 325782, 326324, 326876, 327429, 327980, 328515, 329058, 329607, 330145, 330698]",51,SB,L,R,ITMSR,1.0,
0,600,trial,0,9,9,9,trial,"['S', 'S', 'S', 'S', 'S', 'S', 'S', 'C', 'C', 'C', 'C', 'C', 'C', 'C', 'C', 'C', 'C', 'C', 'C', 'C', 'C', 'C', 'C']","[337064, 337545, 338142, 338780, 339442, 340014, 340588, 341190, 341807, 342405, 342949, 343556, 344144, 344681, 345241, 345843, 346415, 346974, 347534, 348092, 348668, 349252, 349801]","[337179, 337679, 338322, 338942, 339574, 340156, 340748, 341327, 341928, 342519, 343078, 343700, 344272, 344816, 345366, 345980, 346541, 347104, 347676, 348239, 348793, 349382, 349925]","[129, 163, 152, 146, 105, 165, 150, 156, 146, 140, 136, 133, 134, 126, 127, 119, 115, 110, 140, 129, 127, 119, 81]","[337070, 337548, 338146, 338785, 339489, 340018, 340592, 341194, 341811, 342409, 342953, 343560, 344148, 344685, 345246, 345848, 346469, 346979, 347538, 348163, 348674, 349257, 349807]","[336443, 337043, 337643, 338242, 338842, 339442, 340042, 340642, 341230, 341848, 342446, 342989, 343597, 344184, 344722, 345281, 345883, 346456, 347015, 347575, 348133, 348708, 349292, 349842]",51,SB,L,R,ITMSR,1.0,
4,400,trial,0,10,10,10,trial,"['S', 'S', 'S', 'S', 'S', 'S', 'S', 'C', 'C', 'C', 'C', 'C', 'C', 'C', 'C', 'C', 'C', 'C', 'C', 'C', 'C', 'C', 'C']","[355863, 356310, 356691, 357146, 357545, 357954, 358364, 358773, 359152, 359555, 359917, 360298, 360687, 361077, 361439, 361815, 362185, 362546, 362894, 363289, 363685, 364057, 364416]","[355975, 356378, 356788, 357246, 357634, 358037, 358447, 358847, 359237, 359645, 360016, 360397, 360766, 361168, 361537, 361924, 362283, 362644, 362988, 363383, 363751, 364143, 364504]","[109, 114, 122, 136, 120, 142, 74, 140, 151, 138, 133, 131, 134, 127, 150, 150, 136, 139, 124, 149, 142, 141, 135]","[355868, 356314, 356696, 357149, 357551, 357958, 358369, 358776, 359156, 359559, 359921, 360302, 360690, 361081, 361443, 361818, 362189, 362549, 362899, 363293, 363689, 364061, 364420]","[355635, 356033, 356433, 356834, 357233, 357634, 358034, 358433, 358811, 359190, 359593, 359956, 360337, 360725, 361115, 361478, 361853, 362223, 362585, 362933, 363327, 363723, 364095, 364454]",51,SB,L,R,ITMSR,1.0,
0,600,trial,0,11,11,11,trial,"['S', 'S', 'S', 'S', 'S', 'S', 'S', 'C', 'C', 'C', 'C', 'C', 'C', 'C', 'C', 'C', 'C', 'C', 'C', 'C', 'C', 'C', 'C']","[370553, 371326, 371951, 372604, 373149, 373755, 374350, 374952, 375570, 376169, 376755, 377327, 377925, 378517, 379129, 379738, 380334, 380888, 381433, 381999, 382566, 383152, 383721]","[370660, 371456, 372081, 372718, 373315, 373890, 374508, 375093, 375702, 376323, 376891, 377473, 378063, 378669, 379298, 379880, 380476, 381028, 381587, 382134, 382715, 383290, 383867]","[92, 160, 173, 150, 151, 154, 160, 151, 172, 153, 159, 146, 147, 159, 163, 149, 177, 169, 161, 175, 174, 151, 150]","[370558, 371331, 371954, 372640, 373152, 373758, 374353, 374957, 375573, 376223, 376758, 377331, 377929, 378520, 379132, 379742, 380337, 380891, 381436, 382002, 382569, 383156, 383724]","[370204, 370804, 371404, 372004, 372604, 373204, 373805, 374405, 374992, 375611, 376210, 376796, 377367, 377965, 378558, 379169, 379779, 380375, 380929, 381473, 382040, 382607, 383193, 383762]",51,SB,L,R,ITMSR,1.0,
3,600,trial,0,12,12,12,trial,"['S', 'S', 'S', 'S', 'S', 'S', 'C', 'C', 'C', 'C', 'C', 'C', 'C', 'C', 'C', 'C', 'C', 'C', 'C', 'C', 'C', 'C']","[390239, 390784, 391433, 392008, 392616, 393219, 393854, 394477, 395070, 395699, 396316, 396914, 397526, 398141, 398709, 399329, 399919, 400533, 401102, 401718, 402326, 402883]","[390354, 390924, 391580, 392164, 392775, 393373, 394014, 394593, 395195, 395816, 396438, 397042, 397639, 398264, 398840, 399456, 400049, 400652, 401217, 401844, 402452, 403012]","[144, 152, 176, 153, 167, 168, 174, 164, 156, 169, 164, 157, 165, 145, 146, 159, 168, 164, 155, 142, 153, 166]","[390243, 390853, 391435, 392100, 392620, 393222, 393858, 394481, 395074, 395702, 396320, 396917, 397529, 398201, 398778, 399333, 399922, 400536, 401106, 401721, 402330, 402886]","[389100, 389700, 390300, 390900, 391500, 392100, 392700, 393300, 393894, 394518, 395111, 395740, 396356, 396954, 397566, 398182, 398749, 399370, 399960, 400574, 401142, 401759, 402367, 402924]",51,SB,L,R,ITMSR,1.0,
3,400,trial,0,13,13,13,trial,"['S', 'S', 'S', 'S', 'S', 'S', 'S', 'C', 'C', 'C', 'C', 'C', 'C', 'C', 'C', 'C', 'C', 'C', 'C', 'C', 'C', 'C', 'C']","[408931, 409267, 409561, 409969, 410329, 410768, 411160, 411550, 411934, 412321, 412695, 413075, 413450, 413861, 414226, 414627, 414989, 415395, 415759, 416128, 416487, 416862, 417234]","[409052, 409324, 409649, 410053, 410412, 410844, 411241, 411642, 411996, 412408, 412765, 413165, 413514, 413928, 414303, 414709, 415053, 415473, 415842, 416217, 416568, 416952, 417301]","[145, 107, 132, 154, 164, 157, 140, 183, 95, 154, 148, 179, 148, 147, 169, 176, 132, 141, 131, 190, 125, 118, 123]","[408976, 409271, 409565, 409972, 410333, 410772, 411164, 411552, 411939, 412324, 412698, 413078, 413453, 413865, 414229, 414630, 414993, 415398, 415763, 416130, 416491, 416866, 417239]","[408440, 408841, 409240, 409640, 410041, 410440, 410841, 411241, 411590, 411974, 412361, 412736, 413116, 413491, 413901, 414267, 414667, 415030, 415435, 415800, 416168, 416528, 416903, 417274]",51,SB,L,R,ITMSR,1.0,
0,400,trial,0,14,14,14,trial,"['S', 'S', 'S', 'S', 'S', 'S', 'S', 'C', 'C', 'C', 'C', 'C', 'C', 'C', 'C', 'C', 'C', 'C', 'C', 'C', 'C', 'C', 'C']","[423263, 423772, 424162, 424569, 424981, 425372, 425785, 426192, 426616, 426975, 427374, 427769, 428137, 428557, 428937, 429323, 429684, 430064, 430434, 430788, 431209, 431568, 431920]","[423330, 423843, 424245, 424652, 425064, 425464, 425851, 426292, 426664, 427052, 427439, 427850, 428200, 428605, 428984, 429398, 429749, 430119, 430491, 430864, 431253, 431621, 431989]","[85, 160, 165, 180, 166, 166, 166, 188, 132, 115, 147, 180, 88, 137, 140, 191, 138, 144, 155, 187, 135, 143, 124]","[423268, 423775, 424165, 424572, 424984, 425375, 425787, 426195, 426620, 426979, 427377, 427771, 428141, 428561, 428941, 429326, 429688, 430068, 430437, 430790, 431213, 431571, 431924]","[423041, 423440, 423839, 424240, 424640, 425039, 425440, 425839, 426232, 426656, 427016, 427414, 427809, 428178, 428598, 428978, 429364, 429724, 430104, 430475, 430828, 431250, 431608, 431961]",51,SB,L,R,ITMSR,1.0,
5,600,trial,0,15,15,15,trial,"['S', 'S', 'S', 'S', 'S', 'S', 'C', 'C', 'C', 'C', 'C', 'C', 'C', 'C', 'C', 'C', 'C', 'C', 'C', 'C', 'C', 'C']","[438607, 439188, 439851, 440416, 440997, 441577, 442198, 442761, 443328, 443882, 444434, 444987, 445544, 446100, 446625, 447188, 447727, 448258, 448783, 449331, 449858, 450390]","[438768, 439370, 440007, 440616, 441184, 441792, 442376, 442972, 443524, 444101, 444662, 445196, 445733, 446296, 446826, 447365, 447915, 448436, 448967, 449498, 450021, 450555]","[149, 188, 69, 184, 178, 186, 180, 181, 174, 163, 179, 157, 180, 178, 176, 168, 168, 157, 174, 171, 179, 178]","[438610, 439191, 439924, 440418, 440999, 441580, 442201, 442764, 443331, 443885, 444437, 444990, 445547, 446102, 446628, 447192, 447729, 448261, 448785, 449334, 449860, 450393]","[437475, 438075, 438675, 439275, 439874, 440474, 441074, 441674, 442238, 442802, 443369, 443923, 444475, 445028, 445585, 446141, 446665, 447228, 447767, 448299, 448824, 449372, 449899, 450430]",51,SB,L,R,ITMSR,1.0,
3,400,trial,0,16,16,16,trial,"['S', 'S', 'S', 'S', 'S', 'S', 'S', 'C', 'C', 'C', 'C', 'C', 'C', 'C', 'C', 'C', 'C', 'C', 'C', 'C', 'C', 'C', 'C']","[456254, 456563, 456934, 457363, 457736, 458158, 458561, 458983, 459359, 459753, 460140, 460530, 460918, 461305, 461680, 462073, 462454, 462825, 463214, 463584, 463983, 464351, 464720]","[456339, 456640, 457039, 457465, 457803, 458240, 458640, 459071, 459436, 459841, 460213, 460628, 460977, 461372, 461761, 462145, 462521, 462902, 463295, 463665, 464040, 464416, 464785]","[99, 133, 160, 158, 147, 141, 142, 162, 159, 158, 168, 170, 157, 137, 164, 170, 131, 96, 133, 167, 104, 117, 131]","[456258, 456567, 456937, 457367, 457740, 458162, 458565, 458986, 459362, 459757, 460143, 460533, 460921, 461309, 461683, 462076, 462457, 462829, 463217, 463587, 463987, 464355, 464724]","[455839, 456240, 456640, 457039, 457440, 457839, 458240, 458640, 459024, 459400, 459794, 460181, 460570, 460958, 461345, 461720, 462113, 462494, 462866, 463254, 463625, 464023, 464392, 464760]",51,SB,L,R,ITMSR,1.0,
4,400,trial,0,17,17,17,trial,"['S', 'S', 'S', 'S', 'S', 'S', 'S', 'C', 'C', 'C', 'C', 'C', 'C', 'C', 'C', 'C', 'C', 'C', 'C', 'C', 'C', 'C', 'C']","[470601, 470889, 471289, 471672, 472060, 472456, 472880, 473281, 473676, 474050, 474429, 474810, 475195, 475560, 475931, 476312, 476695, 477060, 477424, 477797, 478156, 478516, 478903]","[470666, 470970, 471372, 471777, 472155, 472554, 472954, 473379, 473743, 474130, 474501, 474873, 475243, 475643, 475999, 476399, 476761, 477131, 477515, 477891, 478245, 478608, 478983]","[124, 152, 155, 169, 153, 157, 116, 141, 115, 106, 108, 160, 100, 92, 70, 155, 30, 15, 101, 146, 76, 83, 124]","[470606, 470892, 471292, 471674, 472064, 472459, 472884, 473285, 473680, 474055, 474433, 474813, 475200, 475565, 475936, 476315, 476701, 477066, 477428, 477801, 478161, 478521, 478907]","[470156, 470554, 470955, 471355, 471754, 472155, 472554, 472954, 473320, 473714, 474089, 474468, 474849, 475234, 475598, 475969, 476351, 476734, 477099, 477462, 477836, 478194, 478555, 478942]",51,SB,L,R,ITMSR,1.0,
5,400,trial,0,18,18,18,trial,"['S', 'S', 'S', 'S', 'S', 'S', 'S', 'C', 'C', 'C', 'C', 'C', 'C', 'C', 'C', 'C', 'C', 'C', 'C', 'C', 'C', 'C', 'C']","[484555, 484990, 485404, 485803, 486224, 486597, 487003, 487420, 487811, 488189, 488593, 488974, 489369, 489732, 490113, 490503, 490862, 491270, 491624, 491979, 492375, 492752, 493124]","[484682, 485086, 485483, 485882, 486295, 486682, 487083, 487512, 487885, 488290, 488664, 489058, 489450, 489811, 490204, 490596, 490969, 491323, 491695, 492084, 492452, 492837, 493211]","[138, 150, 121, 140, 49, 96, 115, 161, 130, 118, 132, 154, 106, 133, 156, 159, 125, 117, 146, 160, 125, 138, 140]","[484558, 484994, 485408, 485807, 486228, 486601, 487006, 487424, 487815, 488194, 488597, 488977, 489374, 489736, 490117, 490506, 490866, 491274, 491628, 491982, 492379, 492756, 493128]","[484284, 484682, 485083, 485483, 485882, 486283, 486682, 487083, 487460, 487852, 488229, 488634, 489015, 489409, 489773, 490153, 490544, 490902, 491311, 491665, 492019, 492416, 492792, 493164]",51,SB,L,R,ITMSR,1.0,
1,400,trial,0,19,19,19,trial,"['S', 'S', 'S', 'S', 'S', 'S', 'S', 'C', 'C', 'C', 'C', 'C', 'C', 'C', 'C', 'C', 'C', 'C', 'C', 'C', 'C', 'C', 'C']","[499198, 499693, 500075, 500482, 500900, 501298, 501687, 502072, 502481, 502862, 503239, 503626, 504028, 504397, 504779, 505152, 505545, 505887, 506269, 506648, 507038, 507406, 507752]","[499283, 499780, 500172, 500592, 500988, 501400, 501781, 502175, 502580, 502967, 503336, 503714, 504103, 504500, 504870, 505270, 505621, 505974, 506360, 506749, 507118, 507497, 507852]","[103, 166, 136, 158, 156, 166, 136, 155, 135, 129, 128, 152, 131, 159, 159, 169, 129, 151, 164, 158, 158, 167, 161]","[499203, 499697, 500079, 500486, 500903, 501301, 501691, 502075, 502486, 502866, 503243, 503629, 504032, 504401, 504782, 505155, 505549, 505891, 506272, 506651, 507041, 507409, 507755]","[498953, 499352, 499752, 500153, 500552, 500953, 501353, 501752, 502112, 502520, 502901, 503278, 503665, 504068, 504436, 504818, 505192, 505584, 505926, 506308, 506688, 507077, 507446, 507792]",51,SB,L,R,ITMSR,1.0,
5,600,trial,0,20,20,20,trial,"['S', 'S', 'S', 'S', 'S', 'S', 'S', 'S', 'C', 'C', 'C', 'C', 'C', 'C', 'C', 'C', 'C', 'C', 'C', 'C', 'C', 'C', 'C', 'C']","[513648, 514157, 514608, 515204, 515804, 516372, 516953, 517529, 518146, 518748, 519343, 519929, 520515, 521116, 521667, 522265, 522824, 523381, 523940, 524535, 525090, 525621, 526220, 526781]","[513764, 514266, 514804, 515405, 516015, 516587, 517144, 517642, 518235, 518832, 519458, 520038, 520611, 521205, 521801, 522382, 522958, 523509, 524068, 524648, 525224, 525770, 526356, 526932]","[141, 137, 154, 133, 119, 153, 167, 163, 84, 126, 122, 136, 141, 107, 134, 149, 152, 134, 119, 144, 144, 142, 149, 152]","[513695, 514161, 514612, 515204, 515871, 516375, 516956, 517532, 518151, 518752, 519347, 519933, 520519, 521120, 521671, 522268, 522827, 523385, 524005, 524538, 525094, 525625, 526223, 526784]","[513404, 514003, 514604, 515204, 515804, 516404, 517004, 517604, 518187, 518789, 519384, 519969, 520556, 521156, 521708, 522305, 522864, 523421, 523980, 524575, 525130, 525662, 526261, 526822]",51,SB,L,R,ITMSR,1.0,
5,400,trial,0,21,21,21,trial,"['S', 'S', 'S', 'S', 'S', 'S', 'S', 'C', 'C', 'C', 'C', 'C', 'C', 'C', 'C', 'C', 'C', 'C', 'C', 'C', 'C', 'C', 'C']","[532703, 533045, 533539, 533980, 534377, 534790, 535221, 535603, 535987, 536356, 536737, 537127, 537502, 537872, 538245, 538611, 539006, 539369, 539727, 540067, 540459, 540810, 541188]","[532812, 533103, 533604, 534044, 534440, 534850, 535288, 535688, 536051, 536420, 536808, 537194, 537568, 537944, 538317, 538670, 539091, 539446, 539810, 540160, 540542, 540903, 541283]","[44, 47, 151, 149, 141, 153, 117, 148, 53, 113, 109, 116, 124, 90, 90, 24, 57, 57, 62, 71, 69, 60, 64]","[532754, 533050, 533542, 533984, 534380, 534793, 535226, 535606, 535993, 536360, 536742, 537133, 537506, 537877, 538251, 538617, 539012, 539375, 539735, 540072, 540464, 540816, 541229]","[532489, 532888, 533288, 533689, 534088, 534489, 534889, 535288, 535644, 536028, 536396, 536777, 537167, 537542, 537913, 538286, 538651, 539046, 539410, 539767, 540107, 540499, 540851, 541229]",51,SB,L,R,ITMSR,1.0,
4,600,trial,0,22,22,22,trial,"['S', 'S', 'S', 'S', 'S', 'S', 'S', 'S', 'C', 'C', 'C', 'C', 'C', 'C', 'C', 'C', 'C', 'C', 'C', 'C', 'C', 'C', 'C', 'C']","[547167, 547450, 548110, 548723, 549334, 549922, 550552, 551168, 551737, 552308, 552913, 553512, 554097, 554676, 555275, 555846, 556444, 557017, 557616, 558256, 558841, 559419, 559998, 560572]","[547280, 547612, 548301, 548897, 549493, 550064, 550690, 551300, 551871, 552460, 553058, 553648, 554242, 554832, 555419, 556013, 556581, 557177, 557782, 558424, 558994, 559577, 560149, 560721]","[95, 100, 138, 131, 128, 121, 110, 93, 107, 133, 108, 125, 123, 116, 126, 118, 120, 149, 139, 139, 138, 146, 128, 156]","[547219, 547456, 548114, 548793, 549406, 549991, 550604, 551213, 551806, 552382, 552985, 553572, 554148, 554728, 555338, 555929, 556448, 557086, 557679, 558333, 558904, 559482, 560067, 560642]","[546992, 547591, 548191, 548791, 549391, 549991, 550591, 551191, 551776, 552346, 552951, 553550, 554135, 554715, 555314, 555884, 556482, 557056, 557655, 558295, 558879, 559458, 560036, 560611]",51,SB,L,R,ITMSR,1.0,
2,600,trial,0,23,23,23,trial,"['S', 'S', 'S', 'S', 'S', 'S', 'S', 'S', 'C', 'C', 'C', 'C', 'C', 'C', 'C', 'C', 'C', 'C', 'C', 'C', 'C', 'C', 'C', 'C']","[566474, 566813, 567369, 568009, 568610, 569196, 569814, 570457, 571031, 571615, 572171, 572785, 573402, 574061, 574694, 575283, 575824, 576399, 576984, 577567, 578140, 578696, 579275, 579843]","[566619, 566999, 567517, 568175, 568794, 569382, 569991, 570604, 571181, 571785, 572321, 572891, 573497, 574119, 574752, 575376, 575919, 576525, 577095, 577695, 578266, 578827, 579399, 579986]","[101, 149, 148, 152, 140, 138, 141, 127, 130, 147, 131, 134, 100, 92, 143, 114, 95, 86, 106, 141, 167, 124, 153, 177]","[566568, 566887, 567430, 568075, 568614, 569200, 569818, 570506, 571035, 571619, 572244, 572789, 573407, 574065, 574697, 575287, 575830, 576460, 577036, 577571, 578143, 578770, 579279, 579846]","[566257, 566856, 567456, 568056, 568656, 569256, 569857, 570457, 571072, 571656, 572212, 572825, 573443, 574102, 574735, 575324, 575864, 576440, 577025, 577607, 578181, 578737, 579315, 579884]",51,SB,L,R,ITMSR,1.0,
1,400,trial,0,24,24,24,trial,"['S', 'S', 'S', 'S', 'S', 'S', 'C', 'C', 'C', 'C', 'C', 'C', 'C', 'C', 'C', 'C', 'C', 'C', 'C', 'C', 'C', 'C']","[586300, 586678, 587098, 587461, 587881, 588280, 588693, 589066, 589447, 589819, 590177, 590528, 590863, 591249, 591628, 592005, 592367, 592721, 593089, 593451, 593829, 594170]","[586389, 586789, 587198, 587556, 587990, 588390, 588782, 589150, 589541, 589919, 590242, 590594, 590939, 591325, 591719, 592088, 592456, 592831, 593172, 593547, 593923, 594277]","[152, 157, 153, 149, 145, 132, 160, 150, 163, 123, 142, 132, 107, 103, 112, 116, 122, 128, 112, 153, 134, 117]","[586304, 586681, 587101, 587464, 587884, 588284, 588696, 589070, 589450, 589824, 590180, 590532, 590867, 591253, 591632, 592010, 592371, 592726, 593093, 593454, 593833, 594174]","[585589, 585990, 586389, 586789, 587190, 587589, 587990, 588390, 588733, 589106, 589487, 589858, 590217, 590568, 590903, 591289, 591668, 592045, 592406, 592760, 593129, 593490, 593868, 594209]",51,SB,L,R,ITMSR,1.0,
2,400,trial,0,25,25,25,trial,"['S', 'S', 'S', 'S', 'S', 'S', 'S', 'S', 'C', 'C', 'C', 'C', 'C', 'C', 'C', 'C', 'C', 'C', 'C', 'C', 'C', 'C', 'C', 'C']","[600104, 600407, 600729, 601102, 601480, 601886, 602278, 602662, 603056, 603433, 603802, 604194, 604554, 604929, 605309, 605681, 606042, 606414, 606768, 607160, 607519, 607903, 608254, 608642]","[600201, 600521, 600841, 601207, 601591, 601981, 602370, 602745, 603154, 603537, 603901, 604273, 604635, 605015, 605401, 605787, 606131, 606486, 606857, 607240, 607611, 607976, 608343, 608732]","[79, 98, 137, 136, 114, 130, 101, 132, 146, 132, 118, 130, 130, 110, 118, 113, 135, 130, 149, 114, 117, 140, 151, 121]","[600109, 600411, 600732, 601105, 601484, 601890, 602284, 602667, 603060, 603438, 603806, 604198, 604558, 604933, 605314, 605686, 606046, 606418, 606771, 607164, 607523, 607906, 608258, 608646]","[599929, 600330, 600729, 601129, 601530, 601929, 602330, 602730, 603097, 603473, 603842, 604234, 604595, 604969, 605349, 605721, 606083, 606454, 606809, 607201, 607559, 607943, 608294, 608683]",51,SB,L,R,ITMSR,1.0,
4,600,trial,0,26,26,26,trial,"['S', 'S', 'S', 'S', 'S', 'S', 'S', 'C', 'C', 'C', 'C', 'C', 'C', 'C', 'C', 'C', 'C', 'C', 'C', 'C', 'C', 'C', 'C']","[614543, 615184, 615889, 616530, 617105, 617748, 618339, 618990, 619624, 620250, 620925, 621560, 622184, 622814, 623461, 624049, 624697, 625353, 625972, 626596, 627221, 627894, 628519]","[614657, 615314, 615996, 616654, 617238, 617879, 618483, 619131, 619765, 620406, 621052, 621684, 622296, 622956, 623579, 624154, 624811, 625481, 626110, 626719, 627349, 628015, 628614]","[77, 126, 139, 144, 156, 151, 146, 129, 122, 127, 129, 137, 128, 108, 100, 143, 130, 110, 125, 67, 121, 122, 114]","[614547, 615188, 615894, 616534, 617108, 617751, 618343, 618994, 619696, 620341, 620930, 621564, 622188, 622893, 623515, 624053, 624701, 625357, 626039, 626665, 627288, 627899, 628524]","[614195, 614795, 615395, 615995, 616595, 617194, 617794, 618394, 619028, 619663, 620289, 620963, 621598, 622223, 622853, 623500, 624088, 624736, 625391, 626011, 626634, 627260, 627933, 628557]",51,SB,L,R,ITMSR,1.0,
1,600,trial,0,27,27,27,trial,"['S', 'S', 'S', 'S', 'S', 'S', 'S', 'C', 'C', 'C', 'C', 'C', 'C', 'C', 'C', 'C', 'C', 'C', 'C', 'C', 'C', 'C', 'C']","[634498, 635139, 635737, 636254, 636851, 637508, 638070, 638648, 639222, 639800, 640420, 641039, 641629, 642174, 642760, 643342, 643912, 644473, 645032, 645596, 646172, 646716, 647284]","[634618, 635248, 635822, 636375, 636962, 637601, 638190, 638747, 639312, 639882, 640521, 641139, 641739, 642293, 642872, 643476, 644030, 644583, 645153, 645721, 646301, 646855, 647411]","[150, 116, 133, 157, 128, 141, 125, 145, 130, 138, 150, 156, 106, 146, 135, 139, 121, 134, 121, 135, 135, 133, 139]","[634550, 635143, 635761, 636257, 636855, 637511, 638074, 638652, 639226, 639804, 640423, 641042, 641672, 642178, 642763, 643346, 643916, 644477, 645037, 645600, 646176, 646719, 647287]","[633936, 634536, 635137, 635737, 636337, 636937, 637537, 638137, 638688, 639261, 639840, 640459, 641079, 641669, 642213, 642799, 643382, 643951, 644512, 645071, 645636, 646211, 646756, 647323]",51,SB,L,R,ITMSR,1.0,
2,400,trial,0,28,28,28,trial,"['S', 'S', 'S', 'S', 'S', 'S', 'C', 'C', 'C', 'C', 'C', 'C', 'C', 'C', 'C', 'C', 'C', 'C', 'C', 'C', 'C', 'C']","[653287, 653754, 654173, 654555, 654972, 655377, 655759, 656154, 656545, 656914, 657289, 657669, 658030, 658411, 658791, 659160, 659538, 659910, 660285, 660668, 661045, 661391]","[653353, 653859, 654260, 654659, 655059, 655460, 655832, 656225, 656612, 656985, 657358, 657745, 658102, 658473, 658851, 659226, 659599, 659984, 660355, 660736, 661120, 661465]","[15, 131, 140, 155, 139, 130, 128, 109, 116, 112, 142, 137, 125, 119, 147, 123, 109, 132, 146, 127, 164, 117]","[653291, 653758, 654177, 654558, 654976, 655380, 655763, 656158, 656548, 656918, 657292, 657673, 658034, 658415, 658794, 659163, 659543, 659914, 660288, 660672, 661047, 661395]","[652659, 653060, 653460, 653859, 654260, 654659, 655059, 655460, 655800, 656194, 656585, 656955, 657330, 657710, 658070, 658452, 658832, 659201, 659578, 659950, 660326, 660709, 661086, 661432]",51,SB,L,R,ITMSR,1.0,
2,600,trial,0,29,29,29,trial,"['S', 'S', 'S', 'S', 'S', 'S', 'S', 'C', 'C', 'C', 'C', 'C', 'C', 'C', 'C', 'C', 'C', 'C', 'C', 'C', 'C', 'C', 'C']","[667757, 668137, 668793, 669428, 670086, 670628, 671256, 671797, 672407, 673005, 673607, 674208, 674791, 675408, 676000, 676614, 677200, 677771, 678391, 678981, 679598, 680218, 680821]","[667860, 668414, 669010, 669594, 670220, 670780, 671381, 671932, 672534, 673124, 673724, 674325, 674915, 675516, 676124, 676715, 677311, 677892, 678506, 679106, 679701, 680324, 680932]","[145, 148, 178, 144, 192, 171, 175, 165, 157, 172, 159, 161, 146, 161, 180, 175, 150, 159, 157, 161, 160, 157, 165]","[667758, 668141, 668796, 669481, 670088, 670629, 671259, 671800, 672411, 673007, 673610, 674211, 674795, 675411, 676003, 676617, 677203, 677774, 678394, 678985, 679601, 680221, 680824]","[667030, 667628, 668228, 668828, 669428, 670028, 670628, 671228, 671838, 672448, 673046, 673647, 674248, 674832, 675448, 676040, 676655, 677240, 677812, 678431, 679021, 679639, 680258, 680861]",51,SB,L,R,ITMSR,1.0,
4,400,trial,0,30,30,30,trial,"['S', 'S', 'S', 'S', 'S', 'S', 'S', 'C', 'C', 'C', 'C', 'C', 'C', 'C', 'C', 'C', 'C', 'C', 'C', 'C', 'C', 'C', 'C']","[703328, 703654, 704000, 704432, 704823, 705192, 705618, 706034, 706416, 706790, 707148, 707512, 707889, 708292, 708644, 709005, 709379, 709743, 710094, 710481, 710839, 711199, 711547]","[703433, 703731, 704113, 704546, 704930, 705313, 705715, 706103, 706480, 706874, 707234, 707591, 707987, 708366, 708719, 709085, 709454, 709831, 710181, 710555, 710910, 711289, 711629]","[50, 135, 141, 146, 128, 156, 134, 139, 150, 138, 156, 152, 154, 139, 154, 154, 156, 165, 164, 166, 159, 146, 154]","[703385, 703657, 704004, 704435, 704827, 705196, 705623, 706038, 706419, 706793, 707152, 707515, 707892, 708296, 708648, 709008, 709383, 709746, 710097, 710484, 710842, 711203, 711550]","[702913, 703313, 703714, 704113, 704514, 704914, 705313, 705714, 706072, 706454, 706829, 707186, 707551, 707928, 708330, 708682, 709044, 709417, 709781, 710132, 710519, 710878, 711237, 711585]",51,SB,L,R,ITMSR,1.0,
3,600,trial,0,31,31,31,trial,"['S', 'S', 'S', 'S', 'S', 'S', 'C', 'C', 'C', 'C', 'C', 'C', 'C', 'C', 'C', 'C', 'C', 'C', 'C', 'C', 'C', 'C']","[718423, 718732, 719251, 719853, 720448, 721040, 721630, 722226, 722807, 723364, 723965, 724517, 725061, 725637, 726205, 726754, 727306, 727854, 728386, 728953, 729519, 730067]","[718553, 718893, 719477, 720084, 720710, 721315, 721909, 722477, 723065, 723622, 724184, 724715, 725325, 725879, 726457, 726959, 727539, 728074, 728623, 729157, 729725, 730274]","[146, 167, 166, 156, 157, 168, 152, 150, 155, 121, 112, 103, 146, 133, 155, 143, 145, 139, 129, 121, 138, 140]","[718427, 718735, 719255, 719856, 720452, 721043, 721633, 722229, 722810, 723368, 723970, 724523, 725064, 725641, 726208, 726758, 727309, 727857, 728390, 728957, 729523, 730071]","[716906, 717505, 718105, 718705, 719305, 719905, 720505, 721105, 721671, 722267, 722847, 723404, 724005, 724557, 725101, 725678, 726246, 726795, 727347, 727895, 728427, 728993, 729560, 730107]",51,SB,L,R,ITMSR,1.0,
4,600,trial,0,32,32,32,trial,"['S', 'S', 'S', 'S', 'S', 'S', 'S', 'C', 'C', 'C', 'C', 'C', 'C', 'C', 'C', 'C', 'C', 'C', 'C', 'C', 'C', 'C', 'C']","[736252, 736782, 737399, 737996, 738653, 739234, 739828, 740440, 741011, 741590, 742139, 742715, 743250, 743842, 744406, 744961, 745504, 746040, 746585, 747106, 747661, 748208, 748756]","[736404, 736962, 737618, 738275, 738793, 739316, 739952, 740619, 741182, 741781, 742350, 742978, 743489, 744050, 744609, 745182, 745671, 746231, 746766, 747309, 747840, 748385, 748925]","[58, 136, 126, 139, 117, 97, 140, 132, 141, 147, 146, 140, 143, 137, 132, 143, 149, 139, 76, 128, 146, 125, 143]","[736319, 736787, 737403, 738000, 738657, 739239, 739832, 740443, 741014, 741593, 742144, 742719, 743255, 743845, 744409, 744965, 745507, 746043, 746698, 747110, 747665, 748212, 748760]","[735695, 736294, 736894, 737495, 738095, 738695, 739295, 739895, 740478, 741050, 741628, 742177, 742754, 743288, 743880, 744444, 744999, 745542, 746079, 746624, 747145, 747700, 748247, 748794]",51,SB,L,R,ITMSR,1.0,
1,400,trial,0,33,33,33,trial,"['S', 'S', 'S', 'S', 'S', 'S', 'S', 'S', 'C', 'C', 'C', 'C', 'C', 'C', 'C', 'C', 'C', 'C', 'C', 'C', 'C', 'C', 'C', 'C']","[754466, 754753, 755026, 755400, 755799, 756217, 756576, 756979, 757407, 757813, 758197, 758606, 758971, 759360, 759732, 760127, 760510, 760920, 761307, 761680, 762066, 762438, 762801, 763205]","[754595, 754842, 755123, 755514, 755908, 756272, 756636, 757041, 757446, 757861, 758241, 758650, 759018, 759417, 759795, 760176, 760558, 760960, 761347, 761732, 762119, 762481, 762853, 763249]","[40, 62, 128, 135, 136, 66, 94, 114, 129, 152, 143, 146, 143, 139, 151, 146, 154, 137, 156, 144, 128, 159, 158, 146]","[754472, 754758, 755031, 755404, 755803, 756224, 756581, 756983, 757411, 757816, 758200, 758609, 758974, 759363, 759736, 760130, 760513, 760923, 761311, 761683, 762071, 762442, 762804, 763209]","[754272, 754671, 755072, 755472, 755871, 756272, 756672, 757072, 757446, 757853, 758237, 758645, 759011, 759400, 759772, 760167, 760550, 760960, 761347, 761719, 762105, 762477, 762841, 763244]",51,SB,L,R,ITMSR,1.0,
0,600,trial,0,34,34,34,trial,"['S', 'S', 'S', 'S', 'S', 'S', 'S', 'S', 'C', 'C', 'C', 'C', 'C', 'C', 'C', 'C', 'C', 'C', 'C', 'C', 'C', 'C', 'C', 'C']","[769002, 769289, 769966, 770609, 771191, 771842, 772442, 772997, 773606, 774264, 774913, 775516, 776114, 776694, 777309, 777914, 778506, 779117, 779714, 780292, 780874, 781471, 782064, 782669]","[769079, 769408, 770138, 770753, 771336, 771920, 772563, 773112, 773699, 774341, 775008, 775613, 776208, 776772, 777411, 778011, 778625, 779217, 779803, 780390, 780976, 781582, 782164, 782775]","[156, 131, 174, 172, 170, 47, 148, 150, 157, 152, 144, 139, 149, 151, 150, 158, 161, 158, 160, 145, 152, 148, 144, 150]","[769006, 769294, 769969, 770612, 771193, 771862, 772442, 773000, 773609, 774269, 774917, 775520, 776118, 776698, 777313, 777917, 778509, 779121, 779717, 780296, 780877, 781474, 782068, 782672]","[768842, 769441, 770041, 770641, 771241, 771842, 772442, 773042, 773647, 774304, 774953, 775557, 776155, 776734, 777350, 777955, 778547, 779158, 779755, 780333, 780914, 781511, 782104, 782709]",51,SB,L,R,ITMSR,1.0,
4,600,trial,0,35,35,35,trial,"['S', 'S', 'S', 'S', 'S', 'S', 'C', 'C', 'C', 'C', 'C', 'C', 'C', 'C', 'C', 'C', 'C', 'C', 'C', 'C', 'C', 'C']","[789473, 790047, 790631, 791236, 791808, 792408, 793028, 793548, 794120, 794692, 795264, 795797, 796341, 796857, 797429, 797960, 798479, 799016, 799544, 800041, 800606, 801133]","[789588, 790153, 790745, 791345, 791874, 792494, 793122, 793631, 794190, 794755, 795323, 795849, 796406, 796934, 797496, 798035, 798569, 799096, 799630, 800133, 800680, 801217]","[166, 153, 170, 175, 158, 152, 159, 152, 157, 150, 162, 140, 153, 165, 169, 159, 158, 159, 147, 151, 161, 163]","[789476, 790050, 790634, 791239, 791811, 792412, 793031, 793551, 794123, 794695, 795268, 795800, 796344, 796860, 797432, 797964, 798482, 799020, 799548, 800045, 800609, 801136]","[788345, 788944, 789544, 790145, 790745, 791345, 791945, 792545, 793066, 793586, 794159, 794730, 795302, 795836, 796380, 796896, 797467, 797999, 798518, 799054, 799583, 800079, 800645, 801172]",51,SB,L,R,ITMSR,1.0,
5,400,trial,0,36,36,36,trial,"['S', 'S', 'S', 'S', 'S', 'S', 'S', 'C', 'C', 'C', 'C', 'C', 'C', 'C', 'C', 'C', 'C', 'C', 'C', 'C', 'C', 'C', 'C']","[806951, 807298, 807682, 808114, 808495, 808875, 809269, 809677, 810084, 810455, 810842, 811222, 811606, 811973, 812349, 812739, 813113, 813489, 813859, 814223, 814600, 814966, 815331]","[807041, 807356, 807751, 808167, 808528, 808909, 809306, 809733, 810125, 810501, 810883, 811266, 811652, 812013, 812395, 812784, 813158, 813536, 813899, 814264, 814641, 815007, 815384]","[85, 107, 137, 112, 115, 153, 160, 151, 136, 138, 120, 141, 139, 102, 132, 134, 131, 148, 138, 150, 135, 123, 146]","[806956, 807303, 807686, 808118, 808499, 808878, 809272, 809681, 810088, 810459, 810846, 811225, 811610, 811978, 812353, 812742, 813117, 813492, 813862, 814226, 814604, 814970, 815334]","[806552, 806951, 807352, 807751, 808152, 808552, 808951, 809352, 809717, 810125, 810496, 810883, 811262, 811646, 812013, 812390, 812780, 813154, 813530, 813899, 814264, 814641, 815006, 815372]",51,SB,L,R,ITMSR,1.0,
2,400,trial,0,37,37,37,trial,"['S', 'S', 'S', 'S', 'S', 'S', 'S', 'C', 'C', 'C', 'C', 'C', 'C', 'C', 'C', 'C', 'C', 'C', 'C', 'C', 'C', 'C', 'C']","[821219, 821539, 821927, 822311, 822735, 823110, 823498, 823928, 824315, 824690, 825073, 825466, 825834, 826222, 826601, 826980, 827351, 827731, 828089, 828479, 828857, 829248, 829616]","[821299, 821620, 822005, 822400, 822805, 823181, 823580, 823979, 824359, 824748, 825120, 825526, 825891, 826285, 826651, 827052, 827408, 827801, 828134, 828540, 828905, 829314, 829665]","[89, 144, 139, 164, 166, 169, 169, 173, 156, 149, 151, 150, 161, 140, 137, 160, 149, 139, 159, 164, 157, 143, 153]","[821224, 821543, 821932, 822316, 822738, 823113, 823502, 823931, 824318, 824693, 825076, 825470, 825837, 826225, 826605, 826984, 827354, 827736, 828092, 828482, 828860, 829251, 829620]","[820782, 821181, 821580, 821981, 822380, 822780, 823181, 823580, 823968, 824355, 824730, 825113, 825506, 825875, 826262, 826642, 827021, 827392, 827771, 828130, 828520, 828898, 829289, 829657]",51,SB,L,R,ITMSR,1.0,
2,400,trial,0,38,38,38,trial,"['S', 'S', 'S', 'S', 'S', 'S', 'C', 'C', 'C', 'C', 'C', 'C', 'C', 'C', 'C', 'C', 'C', 'C', 'C', 'C', 'C', 'C']","[835741, 836134, 836552, 836895, 837300, 837737, 838125, 838514, 838892, 839270, 839652, 840024, 840393, 840813, 841191, 841569, 841945, 842301, 842642, 843023, 843382, 843776]","[835806, 836188, 836609, 836959, 837387, 837786, 838191, 838568, 838959, 839335, 839717, 840101, 840476, 840875, 841257, 841625, 841986, 842366, 842719, 843083, 843460, 843829]","[176, 159, 159, 156, 167, 154, 163, 135, 145, 149, 159, 158, 165, 144, 153, 149, 150, 157, 161, 150, 137, 161]","[835744, 836137, 836555, 836898, 837303, 837741, 838128, 838518, 838896, 839274, 839656, 840028, 840396, 840817, 841195, 841573, 841948, 842304, 842646, 843027, 843386, 843780]","[834988, 835387, 835786, 836187, 836587, 836986, 837387, 837786, 838166, 838554, 838933, 839311, 839693, 840065, 840433, 840854, 841232, 841610, 841986, 842342, 842683, 843064, 843422, 843816]",51,SB,L,R,ITMSR,1.0,
1,600,trial,0,39,39,39,trial,"['C', 'C', 'C', 'C', 'C', 'C', 'C', 'C', 'C', 'C', 'C', 'C', 'C', 'C', 'C', 'C']","[854682, 855236, 855767, 856309, 856883, 857430, 857969, 858539, 859046, 859598, 860128, 860674, 861227, 861774, 862258, 862823]","[854753, 855317, 855849, 856384, 856977, 857517, 858071, 858622, 859139, 859679, 860234, 860766, 861310, 861857, 862370, 862941]","[150, 122, 122, 150, 159, 164, 166, 167, 159, 168, 154, 131, 157, 136, 158, 177]","[854686, 855240, 855771, 856313, 856886, 857433, 857973, 858542, 859051, 859601, 860131, 860678, 861230, 861778, 862261, 862826]","[849573, 850173, 850774, 851374, 851974, 852574, 853174, 853774, 854721, 855275, 855806, 856348, 856923, 857469, 858008, 858578, 859085, 859637, 860168, 860713, 861266, 861813, 862298, 862863]",51,SB,L,R,ITMSR,1.0,
2,600,trial,0,40,40,40,trial,"['S', 'S', 'S', 'S', 'S', 'S', 'S', 'C', 'C', 'C', 'C', 'C', 'C', 'C', 'C', 'C', 'C', 'C', 'C', 'C', 'C', 'C', 'C']","[868741, 869394, 870070, 870696, 871279, 871873, 872475, 873066, 873620, 874212, 874806, 875394, 876007, 876595, 877196, 877796, 878382, 878968, 879602, 880187, 880732, 881359, 881961]","[868810, 869457, 870160, 870772, 871360, 871932, 872528, 873117, 873681, 874263, 874847, 875448, 876049, 876660, 877247, 877839, 878423, 879021, 879655, 880230, 880802, 881399, 882022]","[117, 156, 145, 147, 118, 127, 140, 144, 135, 119, 110, 114, 112, 92, 70, 104, 108, 25, 80, 249, 62, 88, 142]","[868746, 869398, 870074, 870701, 871283, 871877, 872478, 873069, 873624, 874216, 874810, 875398, 876012, 876600, 877201, 877801, 878386, 878974, 879607, 880193, 880737, 881363, 881966]","[868361, 868960, 869560, 870160, 870760, 871360, 871959, 872559, 873107, 873661, 874253, 874847, 875435, 876048, 876636, 877237, 877837, 878423, 879008, 879642, 880228, 880773, 881399, 882001]",51,SB,L,R,ITMSR,1.0,
2,600,trial,0,41,41,41,trial,"['S', 'S', 'S', 'S', 'S', 'S', 'S', 'S', 'C', 'C', 'C', 'C', 'C', 'C', 'C', 'C', 'C', 'C', 'C', 'C', 'C', 'C', 'C', 'C']","[887791, 888130, 888467, 889090, 889703, 890292, 890929, 891483, 892096, 892652, 893224, 893814, 894737, 895334, 895882, 896468, 897059, 897628, 898165, 898702, 899248, 899812, 900395, 900942]","[887834, 888174, 888532, 889157, 889759, 890344, 890995, 891591, 892163, 892721, 893278, 893870, 894796, 895375, 895941, 896529, 897105, 897672, 898239, 898764, 899316, 899878, 900453, 901031]","[192, 79, 144, 114, 142, 167, 117, 109, 121, 112, 129, 127, 127, 153, 157, 157, 130, 147, 134, 137, 118, 158, 162, 145]","[887797, 888135, 888471, 889095, 889707, 890295, 890933, 891488, 892100, 892656, 893229, 893818, 894741, 895337, 895886, 896472, 897063, 897631, 898169, 898706, 899252, 899816, 900398, 900945]","[887390, 887990, 888590, 889190, 889790, 890390, 890990, 891590, 892137, 892693, 893264, 893854, 894778, 895375, 895923, 896508, 897099, 897669, 898205, 898743, 899289, 899853, 900435, 900982]",51,SB,L,R,ITMSR,1.0,
5,600,trial,0,42,42,42,trial,"['S', 'S', 'S', 'S', 'S', 'S', 'S', 'C', 'C', 'C', 'C', 'C', 'C', 'C', 'C', 'C', 'C', 'C', 'C', 'C', 'C', 'C', 'C']","[906832, 907529, 908173, 908768, 909365, 910004, 910570, 911149, 911714, 912273, 912826, 913420, 913936, 914497, 915018, 915587, 916136, 916718, 917300, 917843, 918398, 918973, 919553]","[906909, 907619, 908282, 908921, 909561, 910159, 910731, 911319, 911854, 912400, 912949, 913543, 914068, 914609, 915141, 915709, 916249, 916820, 917407, 917968, 918502, 919089, 919668]","[106, 132, 133, 138, 115, 91, 141, 113, 103, 89, 85, 142, 131, 97, 86, 99, 98, 118, 119, 88, 62, 88, 123]","[906838, 907533, 908177, 908772, 909369, 910009, 910574, 911153, 911719, 912277, 912831, 913424, 913940, 914501, 915023, 915592, 916141, 916722, 917304, 917848, 918404, 918978, 919557]","[906454, 907054, 907654, 908254, 908854, 909454, 910054, 910654, 911190, 911755, 912314, 912867, 913461, 913977, 914538, 915058, 915628, 916176, 916758, 917341, 917883, 918438, 919014, 919593]",51,SB,L,R,ITMSR,1.0,
0,400,trial,0,43,43,43,trial,"['S', 'S', 'S', 'S', 'S', 'S', 'S', 'S', 'C', 'C', 'C', 'C', 'C', 'C', 'C', 'C', 'C', 'C', 'C', 'C', 'C', 'C', 'C', 'C']","[925353, 925685, 926063, 926341, 926705, 927088, 927501, 927937, 928293, 928691, 929071, 929447, 929824, 930213, 930594, 930969, 931340, 931709, 932084, 932475, 932856, 933242, 933622, 933998]","[925453, 925767, 926131, 926406, 926780, 927173, 927605, 928021, 928405, 928779, 929178, 929551, 929908, 930313, 930692, 931068, 931432, 931789, 932175, 932554, 932946, 933315, 933705, 934077]","[13, 91, 114, 107, 147, 144, 163, 230, 155, 142, 146, 122, 141, 128, 129, 143, 122, 117, 130, 132, 131, 122, 120, 126]","[925360, 925690, 926067, 926345, 926709, 927092, 927504, 927941, 928297, 928695, 929074, 929452, 929828, 930219, 930599, 930973, 931344, 931714, 932088, 932480, 932861, 933248, 933627, 934003]","[925138, 925538, 925937, 926338, 926738, 927137, 927538, 927937, 928333, 928732, 929112, 929487, 929864, 930253, 930634, 931009, 931381, 931749, 932124, 932515, 932896, 933282, 933662, 934038]",51,SB,L,R,ITMSR,1.0,
1,400,trial,0,44,44,44,trial,"['S', 'S', 'S', 'S', 'S', 'S', 'S', 'C', 'C', 'C', 'C', 'C', 'C', 'C', 'C', 'C', 'C', 'C', 'C', 'C', 'C', 'C', 'C']","[939956, 940328, 940710, 941107, 941448, 941868, 942262, 942638, 943047, 943434, 943789, 944181, 944551, 944926, 945293, 945670, 946044, 946409, 946784, 947154, 947506, 947890, 948272]","[940035, 940396, 940773, 941171, 941559, 941953, 942353, 942731, 943112, 943493, 943858, 944254, 944630, 945010, 945361, 945736, 946097, 946485, 946850, 947222, 947569, 947958, 948339]","[18, 148, 86, 125, 90, 124, 97, 63, 90, 135, 119, 113, 98, 112, 106, 126, 115, 137, 135, 143, 123, 75, 120]","[939962, 940352, 940716, 941111, 941453, 941872, 942267, 942643, 943052, 943438, 943793, 944185, 944557, 944930, 945297, 945674, 946049, 946412, 946787, 947158, 947509, 947894, 948275]","[939552, 939953, 940352, 940752, 941153, 941552, 941953, 942353, 942678, 943086, 943473, 943828, 944221, 944590, 944965, 945333, 945710, 946083, 946449, 946824, 947193, 947546, 947930, 948312]",51,SB,L,R,ITMSR,1.0,
1,600,trial,0,45,45,45,trial,"['S', 'S', 'S', 'S', 'S', 'S', 'S', 'S', 'C', 'C', 'C', 'C', 'C', 'C', 'C', 'C', 'C', 'C', 'C', 'C', 'C', 'C', 'C', 'C']","[953865, 954343, 954718, 955378, 955962, 956558, 957161, 957753, 958374, 958948, 959520, 960090, 960645, 961214, 961759, 962324, 962867, 963422, 964001, 964564, 965126, 965663, 966170, 966781]","[953945, 954405, 954841, 955584, 956267, 956876, 957490, 958087, 958670, 959216, 959793, 960355, 960917, 961464, 961993, 962530, 963095, 963678, 964253, 964838, 965373, 965866, 966436, 966983]","[81, 98, 108, 143, 143, 148, 156, 155, 158, 151, 160, 152, 149, 159, 131, 165, 153, 166, 166, 146, 158, 159, 156, 160]","[953871, 954347, 954722, 955382, 955966, 956562, 957164, 957756, 958379, 958951, 959523, 960093, 960648, 961217, 961763, 962327, 962870, 963425, 964004, 964569, 965129, 965666, 966173, 966786]","[953638, 954238, 954839, 955439, 956039, 956639, 957239, 957839, 958413, 958988, 959559, 960130, 960685, 961254, 961799, 962364, 962907, 963462, 964040, 964603, 965166, 965702, 966209, 966820]",51,SB,L,R,ITMSR,1.0,
3,400,trial,0,46,46,46,trial,"['S', 'S', 'S', 'S', 'S', 'S', 'S', 'S', 'C', 'C', 'C', 'C', 'C', 'C', 'C', 'C', 'C', 'C', 'C', 'C', 'C', 'C', 'C', 'C']","[972748, 973074, 973337, 973689, 974108, 974528, 974940, 975341, 975725, 976164, 976558, 976958, 977337, 977730, 978150, 978540, 978928, 979329, 979720, 980112, 980468, 980878, 981267, 981640]","[972840, 973129, 973396, 973777, 974178, 974548, 974978, 975379, 975778, 976204, 976599, 976999, 977387, 977771, 978191, 978581, 978968, 979369, 979761, 980153, 980518, 980919, 981326, 981699]","[34, 121, 148, 148, 129, 164, 164, 139, 126, 160, 105, 156, 145, 14, 144, 147, 136, 161, 47, 138, 136, 95, 121, 127]","[972754, 973078, 973341, 973693, 974112, 974531, 974943, 975344, 975729, 976168, 976562, 976961, 977340, 977735, 978153, 978543, 978932, 979332, 979725, 980116, 980471, 980882, 981271, 981644]","[972577, 972978, 973377, 973777, 974178, 974577, 974978, 975378, 975766, 976204, 976599, 976999, 977378, 977771, 978191, 978581, 978968, 979369, 979761, 980153, 980508, 980919, 981308, 981681]",51,SB,L,R,ITMSR,1.0,
0,400,trial,0,47,47,47,trial,"['S', 'S', 'S', 'S', 'S', 'S', 'S', 'C', 'C', 'C', 'C', 'C', 'C', 'C', 'C', 'C', 'C', 'C', 'C', 'C', 'C', 'C', 'C']","[987410, 987755, 988140, 988566, 988947, 989336, 989724, 990143, 990516, 990911, 991314, 991708, 992106, 992478, 992875, 993239, 993616, 993999, 994373, 994744, 995126, 995521, 995893]","[987453, 987809, 988177, 988609, 988984, 989370, 989763, 990184, 990564, 990959, 991354, 991749, 992147, 992545, 992936, 993300, 993661, 994054, 994436, 994792, 995181, 995590, 995972]","[13, 158, 144, 156, 150, 155, 161, 158, 163, 174, 159, 168, 145, 160, 154, 174, 141, 150, 133, 162, 136, 148, 148]","[987415, 987758, 988144, 988569, 988950, 989339, 989727, 990146, 990519, 990914, 991318, 991712, 992109, 992481, 992878, 993242, 993620, 994002, 994376, 994747, 995130, 995525, 995896]","[987010, 987410, 987809, 988210, 988609, 989009, 989410, 989809, 990184, 990557, 990952, 991354, 991749, 992147, 992519, 992916, 993280, 993656, 994039, 994413, 994785, 995167, 995562, 995934]",51,SB,L,R,ITMSR,1.0,
5,600,trial,0,48,48,48,trial,"['B', 'S', 'S', 'S', 'S', 'S', 'S', 'S', 'C', 'C', 'C', 'C', 'C', 'C', 'C', 'C', 'C', 'C', 'C', 'C', 'C', 'C', 'C', 'C']","[1001693, 1002049, 1002788, 1003492, 1004148, 1004670, 1005233, 1005851, 1006442, 1006986, 1007575, 1008133, 1008678, 1009234, 1009774, 1010330, 1010872, 1011429, 1011963, 1012495, 1013018, 1013569, 1014071, 1014585]","[1001745, 1002112, 1002861, 1003628, 1004200, 1004741, 1005322, 1005894, 1006501, 1007055, 1007634, 1008211, 1008754, 1009303, 1009861, 1010406, 1010949, 1011491, 1012047, 1012586, 1013107, 1013629, 1014150, 1014657]","[0, 146, 170, 169, 155, 159, 156, 138, 141, 143, 127, 126, 130, 123, 119, 143, 161, 123, 136, 115, 142, 135, 137, 111]","[1001693, 1002053, 1002792, 1003494, 1004152, 1004674, 1005236, 1005855, 1006446, 1006990, 1007579, 1008137, 1008683, 1009239, 1009779, 1010334, 1010876, 1011433, 1011966, 1012499, 1013022, 1013573, 1014075, 1014590]","[1001721, 1002321, 1002921, 1003522, 1004122, 1004722, 1005322, 1005922, 1006483, 1007027, 1007616, 1008174, 1008718, 1009274, 1009814, 1010370, 1010913, 1011470, 1012003, 1012536, 1013058, 1013610, 1014112, 1014626]",51,SB,L,R,ITMSR,1.0,
3,400,trial,0,49,49,49,trial,"['S', 'S', 'S', 'S', 'S', 'S', 'S', 'C', 'C', 'C', 'C', 'C', 'C', 'C', 'C', 'C', 'C', 'C', 'C', 'C', 'C', 'C', 'C']","[1020320, 1020744, 1021125, 1021507, 1021914, 1022321, 1022726, 1023134, 1023537, 1023965, 1024321, 1024713, 1025107, 1025494, 1025843, 1026240, 1026600, 1027012, 1027382, 1027741, 1028139, 1028504, 1028896]","[1020425, 1020824, 1021178, 1021565, 1021957, 1022373, 1022780, 1023199, 1023585, 1024006, 1024391, 1024756, 1025156, 1025534, 1025905, 1026313, 1026660, 1027057, 1027446, 1027819, 1028186, 1028553, 1028966]","[26, 103, 108, 143, 137, 113, 146, 128, 117, 236, 112, 171, 130, 120, 138, 131, 139, 141, 132, 127, 124, 156, 142]","[1020326, 1020748, 1021129, 1021511, 1021917, 1022325, 1022730, 1023138, 1023541, 1023970, 1024325, 1024716, 1025112, 1025498, 1025847, 1026244, 1026605, 1027015, 1027385, 1027746, 1028143, 1028508, 1028899]","[1020024, 1020425, 1020824, 1021224, 1021625, 1022024, 1022425, 1022825, 1023174, 1023578, 1024006, 1024362, 1024753, 1025147, 1025534, 1025884, 1026281, 1026640, 1027052, 1027423, 1027781, 1028179, 1028545, 1028936]",51,SB,L,R,ITMSR,1.0,
4,400,trial,0,50,50,50,trial,"['S', 'S', 'S', 'S', 'S', 'S', 'S', 'C', 'C', 'C', 'C', 'C', 'C', 'C', 'C', 'C', 'C', 'C', 'C', 'C', 'C', 'C', 'C']","[1035018, 1035394, 1035804, 1036194, 1036579, 1036973, 1037393, 1037786, 1038167, 1038570, 1038935, 1039337, 1039699, 1040086, 1040455, 1040815, 1041211, 1041581, 1041956, 1042313, 1042672, 1043072, 1043461]","[1035079, 1035476, 1035837, 1036238, 1036633, 1037025, 1037446, 1037832, 1038222, 1038627, 1038992, 1039394, 1039766, 1040142, 1040529, 1040899, 1041270, 1041639, 1042038, 1042382, 1042750, 1043135, 1043535]","[62, 112, 82, 108, 137, 111, 140, 135, 91, 97, 114, 124, 99, 87, 11, 79, 253, 43, 50, 67, 32, 80, 70]","[1035024, 1035399, 1035809, 1036198, 1036583, 1036977, 1037398, 1037790, 1038172, 1038575, 1038939, 1039341, 1039705, 1040090, 1040461, 1040819, 1041215, 1041586, 1041960, 1042317, 1042677, 1043076, 1043465]","[1034678, 1035076, 1035476, 1035877, 1036276, 1036677, 1037076, 1037476, 1037825, 1038205, 1038609, 1038973, 1039376, 1039737, 1040124, 1040493, 1040854, 1041250, 1041619, 1041994, 1042352, 1042710, 1043110, 1043500]",51,SB,L,R,ITMSR,1.0,
3,600,trial,0,51,51,51,trial,"['S', 'S', 'S', 'S', 'S', 'S', 'S', 'S', 'S', 'S', 'C', 'C', 'C', 'C', 'C', 'C', 'C', 'C', 'C', 'C', 'C', 'C', 'C', 'C', 'C', 'C']","[1049361, 1049908, 1050286, 1050901, 1051453, 1052062, 1052162, 1052689, 1052789, 1053283, 1053892, 1054449, 1055007, 1055583, 1056174, 1056758, 1057350, 1057918, 1058518, 1059093, 1059678, 1060232, 1060800, 1061383, 1061941, 1062533]","[1049430, 1049961, 1050466, 1051132, 1051779, 1052082, 1052361, 1052709, 1052946, 1053579, 1054144, 1054730, 1055275, 1055825, 1056393, 1056992, 1057587, 1058157, 1058756, 1059326, 1059865, 1060439, 1060923, 1061512, 1062045, 1062617]","[32, 117, 126, 153, 166, 87, 69, 60, 17, 147, 154, 136, 105, 118, 95, 107, 118, 126, 103, 120, 129, 138, 137, 28, 63, 97]","[1049369, 1049912, 1050290, 1050905, 1051456, 1052067, 1052294, 1052694, 1052875, 1053286, 1053896, 1054453, 1055011, 1055587, 1056179, 1056762, 1057354, 1057923, 1058522, 1059097, 1059682, 1060236, 1060804, 1061388, 1061946, 1062537]","[1049147, 1049747, 1050347, 1050946, 1051546, 1052146, 1052746, 1053346, 1053932, 1054489, 1055047, 1055624, 1056215, 1056798, 1057390, 1057958, 1058558, 1059134, 1059719, 1060273, 1060841, 1061424, 1061982, 1062574]",51,SB,L,R,ITMSR,1.0,
5,400,trial,0,52,52,52,trial,"['S', 'S', 'S', 'S', 'S', 'S', 'S', 'C', 'C', 'C', 'C', 'C', 'C', 'C', 'C', 'C', 'C', 'C', 'C', 'C', 'C', 'C', 'C']","[1068667, 1069025, 1069435, 1069817, 1070258, 1070699, 1071082, 1071498, 1071892, 1072308, 1072688, 1073085, 1073471, 1073859, 1074252, 1074643, 1075014, 1075389, 1075783, 1076172, 1076516, 1076933, 1077336]","[1068762, 1069129, 1069502, 1069893, 1070331, 1070757, 1071155, 1071569, 1071960, 1072373, 1072757, 1073148, 1073543, 1073939, 1074319, 1074702, 1075076, 1075456, 1075849, 1076214, 1076608, 1076999, 1077412]","[50, 70, 31, 136, 126, 74, 85, 57, 68, 82, 87, 110, 97, 103, 100, 112, 125, 120, 114, 110, 116, 93, 116]","[1068675, 1069031, 1069442, 1069822, 1070262, 1070705, 1071087, 1071504, 1071898, 1072313, 1072693, 1073090, 1073476, 1073864, 1074257, 1074649, 1075019, 1075394, 1075787, 1076176, 1076520, 1076937, 1077340]","[1068329, 1068730, 1069129, 1069530, 1069930, 1070329, 1070730, 1071129, 1071539, 1071933, 1072349, 1072729, 1073126, 1073512, 1073900, 1074292, 1074683, 1075054, 1075430, 1075823, 1076212, 1076556, 1076973, 1077377]",51,SB,L,R,ITMSR,1.0,
0,600,trial,0,53,53,53,trial,"['S', 'S', 'S', 'S', 'S', 'S', 'S', 'S', 'C', 'C', 'C', 'C', 'C', 'C', 'C', 'C', 'C', 'C', 'C', 'C', 'C', 'C', 'C', 'C']","[1083386, 1083823, 1084255, 1084851, 1085435, 1086042, 1086633, 1087215, 1087827, 1088384, 1088947, 1089494, 1090042, 1090604, 1091132, 1091678, 1092212, 1092758, 1093311, 1093856, 1094409, 1094972, 1095529, 1096081]","[1083471, 1083911, 1084423, 1085065, 1085707, 1086296, 1086888, 1087465, 1088062, 1088594, 1089164, 1089681, 1090265, 1090777, 1091296, 1091852, 1092413, 1092937, 1093487, 1094080, 1094646, 1095202, 1095735, 1096266]","[19, 107, 156, 153, 152, 111, 142, 161, 152, 153, 152, 137, 151, 131, 150, 142, 149, 156, 145, 163, 172, 156, 161, 151]","[1083393, 1083828, 1084259, 1084855, 1085438, 1086046, 1086638, 1087218, 1087831, 1088388, 1088951, 1089498, 1090045, 1090608, 1091135, 1091682, 1092215, 1092762, 1093314, 1093859, 1094413, 1094976, 1095532, 1096085]","[1083136, 1083736, 1084336, 1084936, 1085536, 1086136, 1086736, 1087336, 1087867, 1088424, 1088988, 1089534, 1090082, 1090644, 1091173, 1091719, 1092252, 1092799, 1093352, 1093897, 1094450, 1095013, 1095570, 1096122]",51,SB,L,R,ITMSR,1.0,
2,600,trial,0,54,54,54,trial,"['S', 'S', 'S', 'S', 'S', 'S', 'S', 'C', 'C', 'C', 'C', 'C', 'C', 'C', 'C', 'C', 'C', 'C', 'C', 'C', 'C', 'C', 'C']","[1116401, 1117073, 1117606, 1118284, 1118845, 1119404, 1120033, 1120634, 1121215, 1121772, 1122294, 1122814, 1123377, 1123918, 1124445, 1124963, 1125500, 1126047, 1126591, 1127116, 1127665, 1128185, 1128736]","[1116513, 1117177, 1117745, 1118430, 1119046, 1119688, 1120249, 1120855, 1121394, 1121927, 1122458, 1122976, 1123531, 1124060, 1124628, 1125146, 1125679, 1126256, 1126775, 1127313, 1127829, 1128396, 1128929]","[80, 143, 163, 170, 163, 170, 170, 167, 165, 171, 158, 159, 150, 168, 151, 155, 170, 178, 177, 168, 171, 170, 143]","[1116405, 1117076, 1117611, 1118287, 1118849, 1119407, 1120036, 1120636, 1121217, 1121775, 1122297, 1122817, 1123380, 1123921, 1124448, 1124966, 1125504, 1126050, 1126593, 1127119, 1127668, 1128187, 1128739]","[1115939, 1116538, 1117138, 1117739, 1118339, 1118939, 1119539, 1120139, 1120674, 1121256, 1121813, 1122334, 1122854, 1123418, 1123958, 1124486, 1125004, 1125540, 1126087, 1126632, 1127156, 1127705, 1128225, 1128776]",51,SB,L,R,ITMSR,1.0,
0,600,trial,0,55,55,55,trial,"['S', 'S', 'S', 'S', 'S', 'S', 'S', 'S', 'C', 'C', 'C', 'C', 'C', 'C', 'C', 'C', 'C', 'C', 'C', 'C', 'C', 'C', 'C', 'C']","[1134790, 1135198, 1135603, 1136246, 1136874, 1137480, 1138091, 1138685, 1139266, 1139841, 1140444, 1141015, 1141580, 1142149, 1142728, 1143286, 1143870, 1144430, 1145005, 1145581, 1146146, 1146717, 1147275, 1147827]","[1134912, 1135302, 1135935, 1136525, 1137167, 1137734, 1138334, 1138893, 1139482, 1140061, 1140665, 1141224, 1141835, 1142382, 1142971, 1143525, 1144069, 1144608, 1145186, 1145777, 1146354, 1146926, 1147475, 1148020]","[127, 151, 169, 176, 174, 155, 169, 154, 178, 179, 182, 178, 171, 184, 188, 177, 178, 189, 175, 177, 183, 182, 176, 182]","[1134794, 1135200, 1135606, 1136249, 1136877, 1137483, 1138094, 1138689, 1139269, 1139844, 1140446, 1141018, 1141582, 1142151, 1142730, 1143288, 1143873, 1144432, 1145007, 1145584, 1146149, 1146719, 1147277, 1147829]","[1134539, 1135138, 1135738, 1136338, 1136939, 1137539, 1138139, 1138739, 1139307, 1139881, 1140485, 1141056, 1141620, 1142190, 1142768, 1143326, 1143911, 1144470, 1145046, 1145622, 1146186, 1146758, 1147316, 1147868]",51,SB,L,R,ITMSR,1.0,
5,400,trial,0,56,56,56,trial,"['B', 'S', 'S', 'S', 'S', 'S', 'S', 'S', 'C', 'C', 'C', 'C', 'C', 'C', 'C', 'C', 'C', 'C', 'C', 'C', 'C', 'C', 'C', 'C']","[1153392, 1153901, 1154228, 1154589, 1154993, 1155420, 1155795, 1156191, 1156608, 1157016, 1157434, 1157836, 1158243, 1158662, 1159072, 1159470, 1159849, 1160247, 1160627, 1161015, 1161384, 1161782, 1162186, 1162572]","[1153667, 1154031, 1154319, 1154694, 1155112, 1155509, 1155897, 1156273, 1156677, 1157108, 1157527, 1157940, 1158363, 1158754, 1159159, 1159584, 1159996, 1160358, 1160728, 1161110, 1161488, 1161870, 1162255, 1162646]","[200, 168, 128, 158, 167, 205, 55, 161, 168, 174, 170, 163, 163, 164, 166, 171, 168, 153, 166, 170, 175, 170, 166, 174]","[1153595, 1153903, 1154230, 1154592, 1154995, 1155456, 1155796, 1156194, 1156610, 1157019, 1157437, 1157838, 1158245, 1158665, 1159075, 1159473, 1159853, 1160250, 1160630, 1161017, 1161388, 1161785, 1162189, 1162575]","[1153420, 1153819, 1154220, 1154620, 1155019, 1155420, 1155820, 1156220, 1156648, 1157057, 1157475, 1157876, 1158284, 1158703, 1159112, 1159511, 1159889, 1160288, 1160668, 1161056, 1161424, 1161823, 1162226, 1162612]",51,SB,L,R,ITMSR,1.0,
0,400,trial,0,57,57,57,trial,"['S', 'S', 'S', 'S', 'S', 'S', 'S', 'S', 'C', 'C', 'C', 'C', 'C', 'C', 'C', 'C', 'C', 'C', 'C', 'C', 'C', 'C', 'C', 'C']","[1168226, 1168465, 1168812, 1169175, 1169611, 1169965, 1170362, 1170748, 1171183, 1171566, 1171938, 1172327, 1172701, 1173096, 1173465, 1173831, 1174216, 1174600, 1174957, 1175332, 1175743, 1176114, 1176483, 1176877]","[1168302, 1168575, 1168937, 1169297, 1169712, 1170074, 1170486, 1170886, 1171302, 1171661, 1172038, 1172432, 1172831, 1173193, 1173585, 1173951, 1174336, 1174683, 1175064, 1175432, 1175843, 1176200, 1176574, 1176965]","[124, 154, 75, 157, 17, 168, 179, 173, 172, 179, 175, 175, 175, 177, 182, 179, 183, 180, 176, 180, 173, 174, 172, 177]","[1168230, 1168468, 1168860, 1169177, 1169650, 1169968, 1170365, 1170750, 1171185, 1171568, 1171941, 1172330, 1172703, 1173098, 1173467, 1173834, 1174218, 1174602, 1174959, 1175335, 1175746, 1176117, 1176485, 1176879]","[1168013, 1168411, 1168812, 1169212, 1169611, 1170012, 1170412, 1170812, 1171223, 1171606, 1171979, 1172368, 1172742, 1173137, 1173506, 1173871, 1174256, 1174640, 1174998, 1175372, 1175784, 1176155, 1176523, 1176918]",51,SB,L,R,ITMSR,1.0,
1,400,trial,0,58,58,58,trial,"['S', 'S', 'S', 'S', 'S', 'S', 'S', 'C', 'C', 'C', 'C', 'C', 'C', 'C', 'C', 'C', 'C', 'C', 'C', 'C', 'C', 'C', 'C']","[1182807, 1183228, 1183595, 1183987, 1184373, 1184801, 1185190, 1185630, 1186008, 1186395, 1186771, 1187146, 1187559, 1187927, 1188285, 1188677, 1189053, 1189413, 1189773, 1190131, 1190507, 1190883, 1191260]","[1182901, 1183333, 1183678, 1184115, 1184491, 1184912, 1185298, 1185740, 1186104, 1186500, 1186878, 1187272, 1187650, 1188029, 1188388, 1188787, 1189149, 1189516, 1189867, 1190244, 1190618, 1190970, 1191339]","[108, 160, 173, 184, 175, 180, 159, 166, 152, 173, 179, 178, 172, 175, 175, 169, 167, 167, 167, 174, 170, 177, 187]","[1182811, 1183232, 1183598, 1183989, 1184376, 1184804, 1185193, 1185633, 1186011, 1186398, 1186775, 1187148, 1187562, 1187929, 1188288, 1188680, 1189056, 1189416, 1189776, 1190134, 1190510, 1190886, 1191262]","[1182478, 1182877, 1183278, 1183678, 1184077, 1184478, 1184877, 1185277, 1185670, 1186048, 1186435, 1186810, 1187185, 1187599, 1187966, 1188325, 1188716, 1189093, 1189452, 1189813, 1190170, 1190547, 1190923, 1191300]",51,SB,L,R,ITMSR,1.0,
3,600,trial,0,59,59,59,trial,"['S', 'S', 'S', 'S', 'S', 'S', 'S', 'S', 'C', 'C', 'C', 'C', 'C', 'C', 'C', 'C', 'C', 'C', 'C', 'C', 'C', 'C', 'C', 'C']","[1197236, 1197478, 1198162, 1198790, 1199393, 1200005, 1200604, 1201159, 1201765, 1202333, 1202908, 1203492, 1204068, 1204626, 1205179, 1205769, 1206291, 1206845, 1207388, 1207968, 1208505, 1209018, 1209555, 1210079]","[1197301, 1197568, 1198389, 1199078, 1199708, 1200321, 1200887, 1201420, 1202008, 1202583, 1203154, 1203722, 1204320, 1204897, 1205426, 1205985, 1206542, 1207038, 1207626, 1208152, 1208700, 1209224, 1209793, 1210331]","[146, 165, 175, 180, 165, 177, 171, 162, 174, 158, 179, 180, 175, 178, 166, 178, 180, 179, 180, 162, 165, 161, 172, 172]","[1197239, 1197481, 1198166, 1198793, 1199396, 1200008, 1200607, 1201162, 1201768, 1202337, 1202911, 1203494, 1204071, 1204629, 1205182, 1205772, 1206293, 1206848, 1207391, 1207971, 1208508, 1209021, 1209559, 1210082]","[1197048, 1197648, 1198248, 1198849, 1199449, 1200049, 1200649, 1201249, 1201806, 1202373, 1202949, 1203532, 1204109, 1204667, 1205220, 1205810, 1206332, 1206886, 1207429, 1208008, 1208546, 1209059, 1209595, 1210120]",51,SB,L,R,ITMSR,1.0,
5,600,trial,0,60,60,60,trial,"['S', 'S', 'S', 'S', 'S', 'S', 'S', 'S', 'C', 'C', 'C', 'C', 'C', 'C', 'C', 'C', 'C', 'C', 'C', 'C', 'C', 'C', 'C', 'C']","[1215940, 1216212, 1216823, 1217462, 1218082, 1218673, 1219312, 1219899, 1220450, 1221012, 1221572, 1222131, 1222673, 1223225, 1223775, 1224325, 1224845, 1225397, 1225948, 1226508, 1227028, 1227564, 1228123, 1228655]","[1216019, 1216389, 1217047, 1217650, 1218254, 1218869, 1219491, 1220104, 1220690, 1221235, 1221783, 1222307, 1222924, 1223415, 1223948, 1224495, 1225021, 1225552, 1226102, 1226678, 1227215, 1227723, 1228262, 1228820]","[129, 142, 179, 154, 165, 160, 117, 148, 122, 131, 134, 122, 120, 128, 153, 152, 141, 140, 165, 160, 166, 164, 158, 170]","[1215944, 1216216, 1216826, 1217466, 1218086, 1218676, 1219316, 1219902, 1220453, 1221015, 1221575, 1222135, 1222677, 1223229, 1223778, 1224328, 1224848, 1225401, 1225951, 1226511, 1227031, 1227568, 1228126, 1228657]","[1215752, 1216352, 1216952, 1217552, 1218152, 1218752, 1219351, 1219951, 1220491, 1221053, 1221612, 1222171, 1222714, 1223266, 1223816, 1224366, 1224886, 1225438, 1225989, 1226549, 1227069, 1227604, 1228164, 1228695]",51,SB,L,R,ITMSR,1.0,
0,400,trial,0,61,61,61,trial,"['S', 'S', 'S', 'S', 'S', 'S', 'S', 'S', 'C', 'C', 'C', 'C', 'C', 'C', 'C', 'C', 'C', 'C', 'C', 'C', 'C', 'C', 'C', 'C']","[1234279, 1234581, 1234892, 1235204, 1235614, 1236008, 1236416, 1236811, 1237218, 1237617, 1237999, 1238376, 1238789, 1239160, 1239534, 1239919, 1240298, 1240681, 1241033, 1241425, 1241789, 1242163, 1242536, 1242886]","[1234404, 1234701, 1235014, 1235308, 1235732, 1236118, 1236528, 1236924, 1237341, 1237732, 1238107, 1238501, 1238889, 1239256, 1239650, 1240011, 1240412, 1240767, 1241131, 1241508, 1241894, 1242257, 1242636, 1242983]","[117, 127, 134, 136, 166, 134, 150, 154, 164, 138, 161, 153, 150, 154, 159, 155, 164, 146, 166, 155, 169, 169, 167, 162]","[1234284, 1234585, 1234896, 1235208, 1235617, 1236012, 1236419, 1236814, 1237221, 1237620, 1238002, 1238379, 1238793, 1239164, 1239538, 1239922, 1240301, 1240685, 1241036, 1241428, 1241792, 1242166, 1242540, 1242889]","[1234068, 1234467, 1234868, 1235267, 1235667, 1236068, 1236467, 1236868, 1237259, 1237657, 1238039, 1238417, 1238830, 1239200, 1239574, 1239959, 1240339, 1240722, 1241073, 1241465, 1241830, 1242204, 1242576, 1242927]",51,SB,L,R,ITMSR,1.0,
5,400,trial,0,62,62,62,trial,"['S', 'S', 'S', 'S', 'S', 'S', 'S', 'S', 'C', 'C', 'C', 'C', 'C', 'C', 'C', 'C', 'C', 'C', 'C', 'C', 'C', 'C', 'C', 'C']","[1248728, 1248982, 1249340, 1249739, 1250101, 1250515, 1250910, 1251313, 1251707, 1252093, 1252475, 1252878, 1253251, 1253638, 1254019, 1254402, 1254788, 1255166, 1255543, 1255925, 1256302, 1256675, 1257062, 1257419]","[1248798, 1249077, 1249445, 1249833, 1250211, 1250611, 1251019, 1251418, 1251815, 1252196, 1252580, 1252966, 1253354, 1253744, 1254126, 1254503, 1254882, 1255283, 1255645, 1256024, 1256398, 1256775, 1257158, 1257502]","[83, 131, 233, 239, 154, 174, 159, 153, 165, 155, 147, 145, 161, 138, 156, 146, 153, 149, 159, 171, 173, 115, 159, 147]","[1248733, 1248985, 1249376, 1249750, 1250104, 1250540, 1250913, 1251316, 1251710, 1252097, 1252480, 1252882, 1253254, 1253642, 1254022, 1254405, 1254791, 1255171, 1255546, 1255927, 1256305, 1256679, 1257065, 1257423]","[1248539, 1248940, 1249340, 1249739, 1250140, 1250540, 1250940, 1251341, 1251747, 1252133, 1252515, 1252919, 1253292, 1253679, 1254060, 1254443, 1254829, 1255206, 1255583, 1255965, 1256342, 1256716, 1257103, 1257459]",51,SB,L,R,ITMSR,1.0,
4,600,trial,0,63,63,63,trial,"['S', 'S', 'S', 'S', 'S', 'S', 'S', 'S', 'C', 'C', 'C', 'C', 'C', 'C', 'C', 'C', 'C', 'C', 'C', 'C', 'C', 'C', 'C', 'C']","[1263453, 1263880, 1264326, 1264965, 1265558, 1266134, 1266719, 1267333, 1267919, 1268480, 1269065, 1269617, 1270177, 1270713, 1271279, 1271837, 1272416, 1272958, 1273518, 1274044, 1274619, 1275159, 1275712, 1276291]","[1263556, 1264028, 1264576, 1265217, 1265819, 1266376, 1266856, 1267446, 1268014, 1268603, 1269172, 1269726, 1270275, 1270830, 1271364, 1271949, 1272509, 1273077, 1273630, 1274184, 1274740, 1275327, 1275859, 1276400]","[46, 125, 107, 124, 127, 130, 145, 136, 125, 100, 129, 129, 125, 118, 152, 76, 147, 133, 124, 143, 154, 162, 138, 160]","[1263459, 1263884, 1264330, 1264968, 1265562, 1266137, 1266723, 1267338, 1267923, 1268485, 1269069, 1269621, 1270181, 1270717, 1271282, 1271842, 1272419, 1272962, 1273522, 1274048, 1274622, 1275162, 1275716, 1276295]","[1263213, 1263812, 1264412, 1265012, 1265612, 1266212, 1266812, 1267412, 1267957, 1268518, 1269103, 1269655, 1270215, 1270752, 1271317, 1271875, 1272455, 1272996, 1273556, 1274083, 1274657, 1275198, 1275751, 1276329]",51,SB,L,R,ITMSR,1.0,
3,600,trial,0,64,64,64,trial,"['S', 'S', 'S', 'S', 'S', 'S', 'S', 'C', 'C', 'C', 'C', 'C', 'C', 'C', 'C', 'C', 'C', 'C', 'C', 'C', 'C', 'C', 'C']","[1282396, 1283002, 1283623, 1284221, 1284829, 1285416, 1286028, 1286607, 1287115, 1287692, 1288275, 1288854, 1289459, 1289980, 1290587, 1291159, 1291724, 1292263, 1292847, 1293381, 1293899, 1294444, 1294983]","[1282531, 1283168, 1283865, 1284430, 1285009, 1285560, 1286154, 1286744, 1287264, 1287840, 1288409, 1289025, 1289554, 1290137, 1290698, 1291293, 1291846, 1292388, 1292954, 1293563, 1294050, 1294606, 1295130]","[95, 125, 147, 146, 137, 111, 144, 121, 124, 144, 108, 138, 96, 106, 64, 129, 130, 148, 145, 68, 107, 135, 133]","[1282401, 1283006, 1283627, 1284226, 1284833, 1285421, 1286032, 1286611, 1287119, 1287695, 1288280, 1288858, 1289464, 1289985, 1290592, 1291163, 1291728, 1292266, 1292851, 1293386, 1293903, 1294448, 1294987]","[1281932, 1282531, 1283131, 1283731, 1284331, 1284930, 1285530, 1286130, 1286647, 1287155, 1287733, 1288315, 1288895, 1289499, 1290020, 1290628, 1291200, 1291764, 1292304, 1292888, 1293421, 1293939, 1294485, 1295024]",51,SB,L,R,ITMSR,1.0,
3,400,trial,0,65,65,65,trial,"['S', 'S', 'S', 'S', 'S', 'S', 'S', 'C', 'C', 'C', 'C', 'C', 'C', 'C', 'C', 'C', 'C', 'C', 'C', 'C', 'C', 'C', 'C']","[1300940, 1301230, 1301556, 1301963, 1302353, 1302749, 1303137, 1303545, 1303938, 1304336, 1304738, 1305084, 1305516, 1305902, 1306267, 1306626, 1307003, 1307387, 1307764, 1308145, 1308545, 1308953, 1309335]","[1301048, 1301311, 1301646, 1302049, 1302440, 1302832, 1303208, 1303621, 1304005, 1304410, 1304810, 1305177, 1305580, 1305978, 1306343, 1306728, 1307086, 1307488, 1307888, 1308275, 1308667, 1309045, 1309428]","[61, 58, 90, 106, 95, 59, 61, 108, 114, 111, 77, 80, 111, 105, 79, 74, 99, 75, 88, 103, 119, 113, 87]","[1300945, 1301236, 1301561, 1301968, 1302359, 1302754, 1303142, 1303550, 1303943, 1304341, 1304742, 1305090, 1305520, 1305907, 1306272, 1306630, 1307009, 1307393, 1307769, 1308150, 1308550, 1308957, 1309340]","[1300410, 1300808, 1301209, 1301609, 1302008, 1302409, 1302808, 1303208, 1303585, 1303979, 1304377, 1304778, 1305124, 1305556, 1305943, 1306307, 1306667, 1307043, 1307427, 1307804, 1308185, 1308585, 1308993, 1309376]",51,SB,L,R,ITMSR,1.0,
1,600,trial,0,66,66,66,trial,"['S', 'S', 'S', 'S', 'S', 'S', 'S', 'S', 'C', 'C', 'C', 'C', 'C', 'C', 'C', 'C', 'C', 'C', 'C', 'C', 'C', 'C', 'C', 'C']","[1314962, 1315212, 1315872, 1316472, 1317105, 1317748, 1318306, 1318878, 1319456, 1320022, 1320622, 1321193, 1321702, 1322272, 1322839, 1323427, 1323924, 1324477, 1325030, 1325530, 1326092, 1326623, 1327153, 1327699]","[1315043, 1315310, 1316002, 1316668, 1317239, 1317797, 1318384, 1318947, 1319526, 1320086, 1320662, 1321256, 1321792, 1322347, 1322918, 1323500, 1324011, 1324561, 1325111, 1325626, 1326168, 1326674, 1327225, 1327755]","[71, 98, 139, 102, 139, 126, 99, 81, 113, 122, 19, 122, 112, 128, 72, 113, 126, 105, 137, 124, 114, 122, 131, 88]","[1314968, 1315217, 1315876, 1316477, 1317110, 1317752, 1318310, 1318884, 1319460, 1320026, 1320628, 1321197, 1321706, 1322276, 1322844, 1323431, 1323928, 1324481, 1325034, 1325535, 1326097, 1326627, 1327157, 1327705]","[1314784, 1315384, 1315984, 1316584, 1317184, 1317784, 1318384, 1318984, 1319495, 1320061, 1320662, 1321233, 1321742, 1322311, 1322878, 1323466, 1323964, 1324517, 1325070, 1325570, 1326132, 1326662, 1327193, 1327738]",51,SB,L,R,ITMSR,1.0,
2,600,trial,0,67,67,67,trial,"['S', 'S', 'S', 'S', 'S', 'S', 'S', 'C', 'C', 'C', 'C', 'C', 'C', 'C', 'C', 'C', 'C', 'C', 'C', 'C', 'C', 'C', 'C']","[1333534, 1334147, 1334780, 1335458, 1335982, 1336622, 1337223, 1337856, 1338418, 1339000, 1339596, 1340163, 1340725, 1341279, 1341865, 1342401, 1342965, 1343523, 1344073, 1344633, 1345182, 1345707, 1346287]","[1333648, 1334228, 1334839, 1335528, 1336070, 1336730, 1337361, 1337992, 1338570, 1339176, 1339758, 1340365, 1340911, 1341461, 1342046, 1342592, 1343114, 1343685, 1344217, 1344779, 1345296, 1345888, 1346452]","[121, 101, 131, 151, 139, 156, 128, 149, 150, 154, 162, 166, 155, 170, 140, 167, 153, 157, 141, 96, 139, 156, 153]","[1333540, 1334151, 1334785, 1335461, 1335986, 1336626, 1337227, 1337860, 1338422, 1339004, 1339599, 1340166, 1340729, 1341282, 1341869, 1342404, 1342969, 1343526, 1344077, 1344637, 1345186, 1345710, 1346291]","[1333095, 1333694, 1334294, 1334894, 1335494, 1336094, 1336694, 1337294, 1337896, 1338459, 1339040, 1339636, 1340204, 1340766, 1341320, 1341905, 1342442, 1343005, 1343563, 1344113, 1344673, 1345222, 1345747, 1346327]",51,SB,L,R,ITMSR,1.0,
4,400,trial,0,68,68,68,trial,"['S', 'S', 'S', 'S', 'S', 'S', 'S', 'C', 'C', 'C', 'C', 'C', 'C', 'C', 'C', 'C', 'C', 'C', 'C', 'C', 'C', 'C', 'C']","[1352170, 1352572, 1353000, 1353425, 1353802, 1354243, 1354636, 1355009, 1355379, 1355758, 1356149, 1356534, 1356935, 1357288, 1357699, 1358057, 1358440, 1358787, 1359165, 1359507, 1359861, 1360209, 1360574]","[1352283, 1352682, 1353091, 1353485, 1353857, 1354284, 1354683, 1355063, 1355455, 1355844, 1356213, 1356603, 1357002, 1357375, 1357765, 1358156, 1358511, 1358869, 1359235, 1359610, 1359953, 1360318, 1360656]","[132, 128, 162, 119, 106, 106, 127, 107, 124, 89, 100, 100, 126, 124, 123, 137, 119, 99, 112, 146, 137, 112, 121]","[1352175, 1352577, 1353005, 1353430, 1353806, 1354248, 1354640, 1355014, 1355383, 1355763, 1356154, 1356538, 1356939, 1357292, 1357703, 1358061, 1358444, 1358792, 1359170, 1359511, 1359864, 1360214, 1360578]","[1351882, 1352283, 1352682, 1353082, 1353483, 1353882, 1354283, 1354683, 1355047, 1355417, 1355796, 1356187, 1356572, 1356974, 1357327, 1357737, 1358096, 1358479, 1358826, 1359204, 1359546, 1359899, 1360247, 1360613]",51,SB,L,R,ITMSR,1.0,
3,400,trial,0,69,69,69,trial,"['S', 'S', 'S', 'S', 'S', 'S', 'S', 'C', 'C', 'C', 'C', 'C', 'C', 'C', 'C', 'C', 'C', 'C', 'C', 'C', 'C', 'C', 'C']","[1366615, 1366959, 1367321, 1367729, 1368109, 1368527, 1368928, 1369341, 1369721, 1370101, 1370487, 1370867, 1371232, 1371617, 1371974, 1372364, 1372743, 1373114, 1373508, 1373871, 1374266, 1374617, 1375012]","[1366676, 1367036, 1367414, 1367824, 1368214, 1368587, 1369015, 1369414, 1369794, 1370171, 1370540, 1370940, 1371296, 1371685, 1372056, 1372446, 1372812, 1373210, 1373595, 1373964, 1374323, 1374705, 1375093]","[10, 128, 116, 120, 123, 100, 105, 126, 77, 114, 92, 114, 90, 79, 100, 132, 35, 56, 109, 133, 94, 46, 108]","[1366633, 1366963, 1367326, 1367734, 1368113, 1368532, 1368933, 1369346, 1369726, 1370105, 1370492, 1370872, 1371236, 1371622, 1371978, 1372368, 1372749, 1373119, 1373513, 1373875, 1374271, 1374623, 1375017]","[1366214, 1366615, 1367015, 1367414, 1367815, 1368214, 1368614, 1369015, 1369381, 1369761, 1370141, 1370527, 1370907, 1371273, 1371658, 1372014, 1372404, 1372783, 1373155, 1373548, 1373912, 1374307, 1374657, 1375052]",51,SB,L,R,ITMSR,1.0,
0,600,trial,0,70,70,70,trial,"['S', 'S', 'S', 'S', 'S', 'S', 'S', 'S', 'C', 'C', 'C', 'C', 'C', 'C', 'C', 'C', 'C', 'C', 'C', 'C', 'C', 'C', 'C', 'C']","[1380887, 1381329, 1381666, 1382294, 1382900, 1383494, 1384099, 1384677, 1385283, 1385874, 1386470, 1387031, 1387577, 1388150, 1388709, 1389268, 1389815, 1390387, 1390969, 1391519, 1392092, 1392645, 1393226, 1393770]","[1380977, 1381392, 1381954, 1382557, 1383137, 1383767, 1384339, 1384931, 1385546, 1386094, 1386664, 1387237, 1387828, 1388348, 1388922, 1389503, 1390043, 1390627, 1391164, 1391721, 1392320, 1392850, 1393426, 1393988]","[102, 94, 164, 158, 163, 156, 143, 123, 133, 140, 103, 138, 150, 134, 118, 121, 121, 128, 129, 148, 115, 142, 134, 142]","[1380891, 1381335, 1381670, 1382297, 1382903, 1383497, 1384103, 1384680, 1385287, 1385878, 1386474, 1387034, 1387581, 1388154, 1388713, 1389273, 1389819, 1390391, 1390973, 1391522, 1392096, 1392648, 1393230, 1393774]","[1380555, 1381154, 1381754, 1382354, 1382955, 1383555, 1384155, 1384755, 1385324, 1385915, 1386511, 1387072, 1387618, 1388190, 1388749, 1389308, 1389855, 1390428, 1391009, 1391559, 1392133, 1392686, 1393266, 1393811]",51,SB,L,R,ITMSR,1.0,
5,600,trial,0,71,71,71,trial,"['S', 'S', 'S', 'S', 'S', 'S', 'S', 'S', 'C', 'C', 'C', 'C', 'C', 'C', 'C', 'C', 'C', 'C', 'C', 'C', 'C', 'C', 'C', 'C']","[1399582, 1399960, 1400393, 1400999, 1401596, 1402187, 1402802, 1403381, 1403960, 1404527, 1405103, 1405650, 1406202, 1406745, 1407320, 1407884, 1408444, 1408987, 1409545, 1410126, 1410684, 1411240, 1411806, 1412374]","[1399665, 1400081, 1400649, 1401229, 1401831, 1402440, 1403061, 1403633, 1404207, 1404763, 1405291, 1405898, 1406422, 1406902, 1407516, 1408071, 1408665, 1409201, 1409779, 1410348, 1410916, 1411472, 1412029, 1412563]","[75, 150, 135, 114, 123, 115, 102, 121, 123, 131, 141, 110, 121, 127, 122, 130, 140, 132, 105, 140, 116, 113, 132, 148]","[1399587, 1399964, 1400397, 1401004, 1401602, 1402191, 1402807, 1403385, 1403964, 1404531, 1405107, 1405655, 1406206, 1406749, 1407323, 1407888, 1408448, 1408991, 1409549, 1410130, 1410689, 1411244, 1411809, 1412377]","[1399263, 1399863, 1400463, 1401063, 1401663, 1402262, 1402862, 1403462, 1404001, 1404567, 1405144, 1405690, 1406242, 1406785, 1407361, 1407925, 1408485, 1409028, 1409586, 1410166, 1410724, 1411280, 1411847, 1412415]",51,SB,L,R,ITMSR,1.0,
1,400,trial,0,72,72,72,trial,"['S', 'S', 'S', 'S', 'S', 'S', 'S', 'C', 'C', 'C', 'C', 'C', 'C', 'C', 'C', 'C', 'C', 'C', 'C', 'C', 'C', 'C', 'C']","[1418626, 1419014, 1419341, 1419788, 1420124, 1420538, 1420904, 1421335, 1421749, 1422101, 1422484, 1422858, 1423214, 1423574, 1423933, 1424315, 1424679, 1425031, 1425382, 1425774, 1426124, 1426502, 1426854]","[1418774, 1419075, 1419444, 1419872, 1420214, 1420633, 1421014, 1421434, 1421839, 1422185, 1422557, 1422952, 1423296, 1423684, 1424031, 1424411, 1424761, 1425122, 1425481, 1425881, 1426213, 1426589, 1426952]","[46, 172, 109, 84, 99, 121, 113, 130, 118, 126, 109, 122, 110, 115, 132, 143, 118, 119, 112, 147, 125, 132, 120]","[1418631, 1419038, 1419346, 1419791, 1420128, 1420542, 1420908, 1421339, 1421753, 1422105, 1422488, 1422861, 1423218, 1423578, 1423936, 1424318, 1424685, 1425035, 1425386, 1425777, 1426128, 1426505, 1426859]","[1418214, 1418613, 1419014, 1419413, 1419813, 1420214, 1420613, 1421014, 1421375, 1421789, 1422141, 1422524, 1422898, 1423253, 1423613, 1423973, 1424355, 1424718, 1425071, 1425422, 1425813, 1426163, 1426541, 1426893]",51,SB,L,R,ITMSR,1.0,
4,600,trial,0,73,73,73,trial,"['S', 'S', 'S', 'S', 'S', 'S', 'S', 'S', 'C', 'C', 'C', 'C', 'C', 'C', 'C', 'C', 'C', 'C', 'C', 'C', 'C', 'C', 'C', 'C']","[1432622, 1433027, 1433472, 1434072, 1434630, 1435201, 1435814, 1436392, 1436996, 1437520, 1438072, 1438625, 1439177, 1439703, 1440242, 1440771, 1441332, 1441828, 1442342, 1442894, 1443386, 1443890, 1444424, 1444924]","[1432718, 1433139, 1433686, 1434296, 1434897, 1435493, 1436075, 1436639, 1437192, 1437751, 1438272, 1438797, 1439362, 1439903, 1440438, 1440997, 1441507, 1441999, 1442519, 1443027, 1443548, 1444048, 1444583, 1445092]","[44, 83, 74, 88, 156, 152, 150, 153, 138, 148, 145, 151, 130, 137, 144, 144, 145, 155, 156, 145, 141, 145, 113, 132]","[1432628, 1433033, 1433512, 1434121, 1434633, 1435205, 1435819, 1436395, 1437000, 1437524, 1438076, 1438628, 1439181, 1439707, 1440245, 1440775, 1441335, 1441831, 1442345, 1442897, 1443390, 1443894, 1444429, 1444928]","[1432272, 1432871, 1433472, 1434072, 1434672, 1435272, 1435872, 1436472, 1437034, 1437558, 1438110, 1438663, 1439215, 1439741, 1440280, 1440809, 1441371, 1441866, 1442380, 1442932, 1443425, 1443929, 1444462, 1444963]",51,SB,L,R,ITMSR,1.0,
4,400,trial,0,74,74,74,trial,"['S', 'S', 'S', 'S', 'S', 'S', 'S', 'C', 'C', 'C', 'C', 'C', 'C', 'C', 'C', 'C', 'C', 'C', 'C', 'C', 'C', 'C', 'C']","[1451038, 1451326, 1451650, 1452030, 1452425, 1452798, 1453231, 1453641, 1454041, 1454442, 1454819, 1455191, 1455560, 1455929, 1456301, 1456691, 1457061, 1457441, 1457842, 1458197, 1458587, 1458980, 1459358]","[1451117, 1451419, 1451742, 1452130, 1452514, 1452906, 1453332, 1453748, 1454129, 1454540, 1454912, 1455275, 1455665, 1456045, 1456402, 1456786, 1457168, 1457537, 1457918, 1458302, 1458688, 1459070, 1459425]","[103, 74, 122, 162, 143, 128, 147, 154, 130, 122, 78, 79, 76, 107, 101, 111, 73, 127, 115, 125, 112, 118, 123]","[1451042, 1451332, 1451654, 1452034, 1452429, 1452803, 1453234, 1453645, 1454045, 1454446, 1454824, 1455196, 1455565, 1455934, 1456306, 1456695, 1457067, 1457444, 1457846, 1458201, 1458591, 1458984, 1459362]","[1450502, 1450900, 1451300, 1451701, 1452100, 1452500, 1452901, 1453300, 1453679, 1454080, 1454481, 1454858, 1455229, 1455598, 1455968, 1456339, 1456730, 1457099, 1457479, 1457881, 1458236, 1458625, 1459018, 1459396]",51,SB,L,R,ITMSR,1.0,
1,600,trial,0,75,75,75,trial,"['S', 'S', 'S', 'S', 'S', 'S', 'S', 'S', 'C', 'C', 'C', 'C', 'C', 'C', 'C', 'C', 'C', 'C', 'C', 'C', 'C', 'C', 'C', 'C']","[1465274, 1465581, 1466169, 1466817, 1467450, 1468042, 1468619, 1469173, 1469825, 1470381, 1470980, 1471529, 1472092, 1472687, 1473226, 1473766, 1474331, 1474872, 1475447, 1475992, 1476502, 1477079, 1477588, 1478150]","[1465376, 1465771, 1466449, 1466975, 1467579, 1468116, 1468723, 1469288, 1469914, 1470475, 1471071, 1471654, 1472207, 1472769, 1473339, 1473891, 1474473, 1475040, 1475588, 1476140, 1476639, 1477189, 1477721, 1478288]","[125, 95, 147, 123, 107, 87, 117, 82, 127, 135, 149, 116, 134, 137, 156, 140, 137, 117, 161, 156, 154, 157, 146, 155]","[1465278, 1465585, 1466172, 1466821, 1467455, 1468047, 1468623, 1469178, 1469829, 1470385, 1470983, 1471535, 1472095, 1472691, 1473230, 1473770, 1474335, 1474876, 1475450, 1475995, 1476506, 1477082, 1477592, 1478154]","[1465081, 1465681, 1466281, 1466882, 1467482, 1468082, 1468682, 1469282, 1469864, 1470420, 1471020, 1471568, 1472132, 1472727, 1473265, 1473806, 1474370, 1474912, 1475486, 1476032, 1476542, 1477118, 1477627, 1478190]",51,SB,L,R,ITMSR,1.0,
2,400,trial,0,76,76,76,trial,"['S', 'S', 'S', 'S', 'S', 'S', 'S', 'S', 'C', 'C', 'C', 'C', 'C', 'C', 'C', 'C', 'C', 'C', 'C', 'C', 'C', 'C', 'C', 'C']","[1484072, 1484381, 1484672, 1485054, 1485409, 1485818, 1486213, 1486619, 1487011, 1487411, 1487781, 1488178, 1488591, 1488965, 1489344, 1489725, 1490100, 1490450, 1490841, 1491223, 1491624, 1491987, 1492381, 1492756]","[1484166, 1484477, 1484785, 1485132, 1485505, 1485911, 1486314, 1486691, 1487091, 1487489, 1487874, 1488268, 1488698, 1489077, 1489444, 1489807, 1490194, 1490535, 1490931, 1491330, 1491722, 1492065, 1492461, 1492823]","[138, 148, 133, 14, 180, 172, 173, 161, 161, 157, 154, 169, 170, 168, 149, 158, 164, 150, 156, 161, 167, 142, 154, 159]","[1484077, 1484384, 1484676, 1485084, 1485412, 1485821, 1486216, 1486622, 1487014, 1487414, 1487784, 1488181, 1488594, 1488968, 1489347, 1489728, 1490103, 1490453, 1490845, 1491226, 1491628, 1491990, 1492385, 1492759]","[1483854, 1484255, 1484654, 1485054, 1485455, 1485854, 1486255, 1486655, 1487051, 1487452, 1487821, 1488219, 1488631, 1489005, 1489385, 1489766, 1490141, 1490491, 1490881, 1491264, 1491664, 1492028, 1492421, 1492797]",51,SB,L,R,ITMSR,1.0,
2,400,trial,0,77,77,77,trial,"['S', 'S', 'S', 'S', 'S', 'S', 'S', 'C', 'C', 'C', 'C', 'C', 'C', 'C', 'C', 'C', 'C', 'C', 'C', 'C', 'C', 'C', 'C']","[1498840, 1499220, 1499618, 1500046, 1500452, 1500813, 1501175, 1501572, 1501956, 1502331, 1502692, 1503074, 1503465, 1503796, 1504198, 1504559, 1504929, 1505285, 1505670, 1506057, 1506451, 1506804, 1507190]","[1498933, 1499316, 1499722, 1500149, 1500525, 1500890, 1501260, 1501676, 1502027, 1502409, 1502776, 1503157, 1503523, 1503898, 1504258, 1504650, 1505008, 1505374, 1505759, 1506153, 1506509, 1506892, 1507270]","[74, 140, 129, 161, 150, 148, 138, 164, 144, 156, 160, 167, 161, 162, 152, 168, 142, 141, 159, 161, 119, 135, 157]","[1498845, 1499225, 1499622, 1500050, 1500456, 1500816, 1501178, 1501576, 1501959, 1502334, 1502696, 1503077, 1503468, 1503799, 1504201, 1504562, 1504933, 1505289, 1505674, 1506060, 1506454, 1506808, 1507193]","[1498490, 1498890, 1499289, 1499689, 1500090, 1500489, 1500890, 1501290, 1501613, 1501997, 1502371, 1502733, 1503115, 1503506, 1503837, 1504238, 1504600, 1504969, 1505326, 1505711, 1506098, 1506492, 1506844, 1507230]",51,SB,L,R,ITMSR,1.0,
1,600,trial,0,78,78,78,trial,"['S', 'S', 'S', 'S', 'S', 'S', 'S', 'S', 'C', 'C', 'C', 'C', 'C', 'C', 'C', 'C', 'C', 'C', 'C', 'C', 'C', 'C', 'C', 'C']","[1536292, 1536705, 1537054, 1537665, 1538304, 1538892, 1539482, 1540072, 1540674, 1541264, 1541808, 1542398, 1542972, 1543540, 1544095, 1544649, 1545197, 1545749, 1546295, 1546853, 1547378, 1547886, 1548456, 1548996]","[1536390, 1536804, 1537343, 1537981, 1538611, 1539194, 1539776, 1540363, 1540958, 1541497, 1542087, 1542631, 1543239, 1543742, 1544330, 1544860, 1545419, 1545979, 1546498, 1547079, 1547578, 1548096, 1548613, 1549164]","[39, 150, 153, 154, 169, 162, 166, 164, 158, 162, 160, 162, 168, 171, 166, 159, 155, 161, 154, 156, 152, 137, 146, 168]","[1536297, 1536708, 1537058, 1537669, 1538307, 1538896, 1539485, 1540075, 1540678, 1541268, 1541811, 1542403, 1542976, 1543543, 1544098, 1544652, 1545200, 1545753, 1546298, 1546856, 1547381, 1547889, 1548460, 1548999]","[1535941, 1536541, 1537141, 1537741, 1538341, 1538941, 1539542, 1540142, 1540714, 1541304, 1541848, 1542437, 1543012, 1543579, 1544134, 1544688, 1545237, 1545789, 1546335, 1546893, 1547417, 1547925, 1548495, 1549035]",51,SB,L,R,ITMSR,1.0,
3,600,trial,0,79,79,79,trial,"['S', 'S', 'S', 'S', 'S', 'S', 'S', 'S', 'C', 'C', 'C', 'C', 'C', 'C', 'C', 'C', 'C', 'C', 'C', 'C', 'C', 'C', 'C', 'C']","[1554628, 1554953, 1555529, 1556135, 1556764, 1557350, 1557976, 1558581, 1559156, 1559729, 1560315, 1560882, 1561466, 1562047, 1562612, 1563177, 1563721, 1564314, 1564880, 1565423, 1566013, 1566575, 1567149, 1567717]","[1554746, 1555133, 1555799, 1556410, 1557039, 1557649, 1558255, 1558840, 1559450, 1559950, 1560580, 1561120, 1561740, 1562228, 1562832, 1563365, 1563990, 1564504, 1565096, 1565619, 1566229, 1566741, 1567327, 1567890]","[27, 114, 154, 126, 148, 148, 147, 152, 162, 138, 152, 150, 146, 152, 147, 158, 147, 143, 150, 154, 138, 138, 160, 144]","[1554635, 1554958, 1555533, 1556141, 1556768, 1557354, 1557979, 1558585, 1559159, 1559733, 1560318, 1560885, 1561469, 1562050, 1562615, 1563181, 1563725, 1564318, 1564883, 1565427, 1566017, 1566579, 1567152, 1567720]","[1554422, 1555022, 1555622, 1556222, 1556823, 1557423, 1558023, 1558623, 1559196, 1559770, 1560355, 1560923, 1561506, 1562088, 1562652, 1563217, 1563761, 1564354, 1564920, 1565463, 1566054, 1566615, 1567190, 1567758]",51,SB,L,R,ITMSR,1.0,
5,400,trial,0,80,80,80,trial,"['S', 'S', 'S', 'S', 'S', 'S', 'S', 'S', 'C', 'C', 'C', 'C', 'C', 'C', 'C', 'C', 'C', 'C', 'C', 'C', 'C', 'C', 'C', 'C']","[1573365, 1573714, 1574024, 1574324, 1574735, 1575151, 1575514, 1575913, 1576310, 1576695, 1577089, 1577504, 1577877, 1578279, 1578670, 1579041, 1579438, 1579835, 1580213, 1580568, 1580953, 1581338, 1581734, 1582119]","[1573463, 1573807, 1574106, 1574426, 1574837, 1575202, 1575590, 1575998, 1576372, 1576771, 1577165, 1577568, 1577976, 1578368, 1578762, 1579120, 1579518, 1579909, 1580282, 1580668, 1581038, 1581408, 1581821, 1582197]","[77, 141, 148, 140, 167, 95, 156, 154, 148, 148, 131, 122, 142, 147, 167, 146, 178, 162, 165, 157, 162, 162, 165, 171]","[1573371, 1573716, 1574028, 1574328, 1574739, 1575181, 1575518, 1575917, 1576314, 1576698, 1577094, 1577508, 1577881, 1578283, 1578674, 1579045, 1579441, 1579838, 1580216, 1580572, 1580956, 1581341, 1581737, 1582123]","[1573176, 1573574, 1573975, 1574375, 1574774, 1575175, 1575574, 1575974, 1576350, 1576735, 1577129, 1577544, 1577918, 1578319, 1578711, 1579081, 1579479, 1579876, 1580254, 1580609, 1580993, 1581378, 1581774, 1582159]",51,SB,L,R,ITMSR,1.0,
1,600,trial,0,81,81,81,trial,"['S', 'S', 'S', 'S', 'S', 'S', 'S', 'S', 'C', 'C', 'C', 'C', 'C', 'C', 'C', 'C', 'C', 'C', 'C', 'C', 'C', 'C', 'C', 'C']","[1588018, 1588274, 1588879, 1589538, 1590132, 1590744, 1591334, 1591957, 1592534, 1593079, 1593655, 1594229, 1594788, 1595369, 1595925, 1596506, 1597044, 1597627, 1598170, 1598716, 1599268, 1599803, 1600345, 1600926]","[1588094, 1588368, 1589035, 1589765, 1590414, 1591004, 1591609, 1592225, 1592777, 1593316, 1593907, 1594469, 1595026, 1595595, 1596192, 1596721, 1597318, 1597878, 1598399, 1598939, 1599523, 1600058, 1600590, 1601156]","[148, 123, 187, 181, 183, 179, 184, 184, 179, 182, 181, 176, 184, 184, 181, 178, 180, 176, 175, 184, 181, 177, 174, 190]","[1588023, 1588278, 1588882, 1589541, 1590134, 1590747, 1591336, 1591960, 1592536, 1593082, 1593657, 1594232, 1594790, 1595372, 1595927, 1596508, 1597047, 1597630, 1598173, 1598720, 1599271, 1599806, 1600348, 1600929]","[1587792, 1588392, 1588993, 1589593, 1590193, 1590793, 1591393, 1591993, 1592573, 1593118, 1593695, 1594268, 1594827, 1595409, 1595965, 1596546, 1597083, 1597667, 1598210, 1598755, 1599307, 1599843, 1600385, 1600965]",51,SB,L,R,ITMSR,1.0,
2,400,trial,0,82,82,82,trial,"['S', 'S', 'S', 'S', 'S', 'S', 'S', 'S', 'C', 'C', 'C', 'C', 'C', 'C', 'C', 'C', 'C', 'C', 'C', 'C', 'C', 'C', 'C', 'C']","[1606791, 1607144, 1607439, 1607778, 1608168, 1608583, 1608979, 1609409, 1609811, 1610230, 1610622, 1611012, 1611412, 1611803, 1612196, 1612599, 1612997, 1613378, 1613775, 1614145, 1614546, 1614907, 1615282, 1615671]","[1606905, 1607250, 1607545, 1607888, 1608321, 1608707, 1609128, 1609533, 1609961, 1610353, 1610759, 1611156, 1611547, 1611922, 1612328, 1612732, 1613139, 1613486, 1613889, 1614254, 1614650, 1615008, 1615391, 1615787]","[153, 140, 151, 162, 173, 170, 173, 168, 179, 174, 182, 177, 176, 177, 179, 178, 169, 179, 175, 173, 174, 169, 178, 173]","[1606794, 1607147, 1607442, 1607781, 1608171, 1608586, 1608982, 1609412, 1609815, 1610234, 1610626, 1611015, 1611415, 1611806, 1612199, 1612601, 1613000, 1613381, 1613778, 1614148, 1614550, 1614910, 1615285, 1615674]","[1606639, 1607038, 1607439, 1607838, 1608239, 1608639, 1609038, 1609439, 1609851, 1610270, 1610662, 1611053, 1611453, 1611843, 1612236, 1612640, 1613037, 1613419, 1613815, 1614186, 1614586, 1614948, 1615323, 1615712]",51,SB,L,R,ITMSR,1.0,
1,400,trial,0,83,83,83,trial,"['S', 'S', 'S', 'S', 'S', 'S', 'S', 'S', 'C', 'C', 'C', 'C', 'C', 'C', 'C', 'C', 'C', 'C', 'C', 'C', 'C', 'C', 'C', 'C']","[1621365, 1621679, 1621982, 1622336, 1622705, 1623101, 1623506, 1623898, 1624352, 1624769, 1625158, 1625563, 1625947, 1626351, 1626748, 1627147, 1627517, 1627895, 1628263, 1628625, 1628995, 1629381, 1629737, 1630119]","[1621464, 1621785, 1622103, 1622436, 1622830, 1623247, 1623633, 1624054, 1624528, 1624884, 1625282, 1625696, 1626088, 1626466, 1626876, 1627257, 1627645, 1628000, 1628368, 1628733, 1629132, 1629496, 1629862, 1630235]","[162, 167, 174, 179, 194, 187, 187, 183, 181, 175, 181, 181, 181, 184, 184, 179, 177, 177, 178, 180, 182, 177, 178, 177]","[1621368, 1621681, 1621985, 1622339, 1622707, 1623104, 1623508, 1623901, 1624355, 1624772, 1625161, 1625566, 1625950, 1626354, 1626750, 1627150, 1627520, 1627898, 1628266, 1628627, 1628998, 1629384, 1629741, 1630123]","[1621161, 1621562, 1621961, 1622362, 1622762, 1623161, 1623562, 1623961, 1624391, 1624809, 1625197, 1625603, 1625987, 1626390, 1626787, 1627187, 1627556, 1627934, 1628303, 1628664, 1629035, 1629420, 1629776, 1630158]",51,SB,L,R,ITMSR,1.0,
4,400,trial,0,84,84,84,trial,"['S', 'S', 'S', 'S', 'S', 'S', 'S', 'S', 'C', 'C', 'C', 'C', 'C', 'C', 'C', 'C', 'C', 'C', 'C', 'C', 'C', 'C', 'C', 'C']","[1635938, 1636216, 1636596, 1636973, 1637357, 1637767, 1638148, 1638569, 1638971, 1639379, 1639783, 1640188, 1640597, 1640988, 1641377, 1641757, 1642155, 1642517, 1642896, 1643288, 1643668, 1644055, 1644419, 1644785]","[1636025, 1636334, 1636703, 1637093, 1637490, 1637883, 1638291, 1638714, 1639119, 1639496, 1639919, 1640321, 1640731, 1641126, 1641500, 1641875, 1642265, 1642634, 1643008, 1643401, 1643799, 1644170, 1644537, 1644892]","[151, 150, 106, 164, 176, 175, 175, 176, 176, 179, 173, 175, 178, 180, 175, 175, 181, 181, 179, 180, 180, 182, 182, 176]","[1635942, 1636221, 1636596, 1636975, 1637360, 1637770, 1638150, 1638573, 1638974, 1639383, 1639786, 1640192, 1640600, 1640991, 1641380, 1641760, 1642158, 1642520, 1642898, 1643291, 1643671, 1644058, 1644422, 1644788]","[1635796, 1636197, 1636596, 1636997, 1637396, 1637796, 1638197, 1638596, 1639010, 1639417, 1639822, 1640226, 1640636, 1641026, 1641415, 1641795, 1642193, 1642556, 1642935, 1643327, 1643707, 1644094, 1644457, 1644823]",51,SB,L,R,ITMSR,1.0,
5,600,trial,0,85,85,85,trial,"['S', 'S', 'S', 'S', 'S', 'S', 'S', 'S', 'C', 'C', 'C', 'C', 'C', 'C', 'C', 'C', 'C', 'C', 'C', 'C', 'C', 'C', 'C', 'C']","[1650649, 1651016, 1651496, 1652057, 1652697, 1653254, 1653846, 1654426, 1655046, 1655638, 1656219, 1656799, 1657390, 1657973, 1658525, 1659112, 1659719, 1660282, 1660821, 1661402, 1661981, 1662555, 1663120, 1663684]","[1650754, 1651144, 1651791, 1652369, 1652963, 1653577, 1654151, 1654743, 1655344, 1655907, 1656502, 1657066, 1657656, 1658237, 1658817, 1659375, 1659983, 1660550, 1661092, 1661676, 1662284, 1662828, 1663384, 1663945]","[121, 165, 69, 156, 1, 155, 147, 156, 155, 146, 153, 150, 166, 155, 138, 154, 164, 154, 140, 145, 150, 141, 104, 156]","[1650653, 1651019, 1651559, 1652060, 1652703, 1653258, 1653850, 1654429, 1655050, 1655642, 1656223, 1656802, 1657393, 1657976, 1658529, 1659115, 1659722, 1660285, 1660825, 1661406, 1661985, 1662559, 1663124, 1663687]","[1650296, 1650896, 1651496, 1652097, 1652697, 1653297, 1653897, 1654497, 1655087, 1655678, 1656259, 1656840, 1657431, 1658013, 1658565, 1659153, 1659759, 1660322, 1660862, 1661443, 1662021, 1662596, 1663161, 1663724]",51,SB,L,R,ITMSR,1.0,
1,400,trial,0,86,86,86,trial,"['S', 'S', 'S', 'S', 'S', 'S', 'S', 'C', 'C', 'C', 'C', 'C', 'C', 'C', 'C', 'C', 'C', 'C', 'C', 'C', 'C', 'C', 'C']","[1669590, 1670032, 1670412, 1670807, 1671203, 1671609, 1672006, 1672432, 1672825, 1673228, 1673602, 1673997, 1674379, 1674769, 1675155, 1675542, 1675915, 1676270, 1676669, 1677048, 1677435, 1677817, 1678197]","[1669734, 1670097, 1670488, 1670827, 1671285, 1671686, 1672085, 1672522, 1672913, 1673307, 1673677, 1674081, 1674458, 1674858, 1675224, 1675629, 1675985, 1676358, 1676737, 1677137, 1677498, 1677899, 1678267]","[144, 105, 108, 125, 139, 143, 122, 138, 146, 145, 145, 149, 145, 154, 143, 135, 124, 115, 140, 138, 137, 131, 128]","[1669594, 1670037, 1670417, 1670811, 1671207, 1671613, 1672011, 1672436, 1672829, 1673233, 1673606, 1674001, 1674382, 1674772, 1675159, 1675546, 1675919, 1676274, 1676674, 1677051, 1677440, 1677821, 1678201]","[1669285, 1669686, 1670085, 1670486, 1670886, 1671285, 1671686, 1672085, 1672471, 1672864, 1673268, 1673641, 1674037, 1674419, 1674809, 1675195, 1675582, 1675955, 1676309, 1676708, 1677087, 1677474, 1677856, 1678236]",51,SB,L,R,ITMSR,1.0,
4,400,trial,0,87,87,87,trial,"['S', 'S', 'S', 'S', 'S', 'S', 'S', 'C', 'C', 'C', 'C', 'C', 'C', 'C', 'C', 'C', 'C', 'C', 'C', 'C', 'C', 'C', 'C']","[1684080, 1684532, 1684912, 1685309, 1685726, 1686137, 1686543, 1686939, 1687337, 1687712, 1688107, 1688531, 1688921, 1689307, 1689686, 1690076, 1690448, 1690816, 1691184, 1691576, 1691955, 1692315, 1692688]","[1684184, 1684604, 1684962, 1685393, 1685800, 1686214, 1686635, 1687032, 1687390, 1687789, 1688181, 1688605, 1688975, 1689373, 1689756, 1690165, 1690522, 1690888, 1691278, 1691660, 1692029, 1692406, 1692763]","[119, 111, 53, 141, 136, 142, 147, 160, 149, 150, 132, 144, 102, 135, 144, 149, 133, 127, 107, 157, 135, 147, 130]","[1684085, 1684537, 1684918, 1685313, 1685730, 1686141, 1686547, 1686943, 1687342, 1687715, 1688111, 1688536, 1688926, 1689310, 1689689, 1690080, 1690452, 1690820, 1691188, 1691579, 1691959, 1692319, 1692692]","[1683784, 1684184, 1684584, 1684983, 1685384, 1685783, 1686183, 1686584, 1686977, 1687375, 1687750, 1688145, 1688569, 1688960, 1689346, 1689724, 1690115, 1690486, 1690855, 1691223, 1691615, 1691994, 1692353, 1692727]",51,SB,L,R,ITMSR,1.0,
4,600,trial,0,88,88,88,trial,"['S', 'S', 'S', 'S', 'S', 'S', 'S', 'S', 'C', 'C', 'C', 'C', 'C', 'C', 'C', 'C', 'C', 'C', 'C', 'C', 'C', 'C', 'C', 'C']","[1698589, 1698967, 1699532, 1700165, 1700793, 1701362, 1701909, 1702488, 1703127, 1703711, 1704316, 1704880, 1705446, 1706003, 1706622, 1707155, 1707779, 1708310, 1708862, 1709434, 1709958, 1710500, 1711043, 1711558]","[1698659, 1699042, 1699750, 1700382, 1700936, 1701472, 1701993, 1702595, 1703213, 1703785, 1704401, 1704980, 1705536, 1706128, 1706707, 1707283, 1707890, 1708454, 1709006, 1709547, 1710093, 1710615, 1711162, 1711697]","[137, 110, 146, 141, 7, 92, 109, 139, 160, 156, 148, 154, 149, 159, 148, 152, 159, 165, 161, 153, 167, 159, 163, 158]","[1698594, 1698971, 1699536, 1700169, 1700857, 1701367, 1701913, 1702493, 1703130, 1703715, 1704321, 1704884, 1705449, 1706007, 1706626, 1707159, 1707783, 1708313, 1708865, 1709438, 1709961, 1710504, 1711046, 1711561]","[1698394, 1698993, 1699593, 1700193, 1700793, 1701393, 1701993, 1702592, 1703165, 1703749, 1704354, 1704919, 1705485, 1706042, 1706660, 1707194, 1707817, 1708349, 1708901, 1709472, 1709997, 1710538, 1711082, 1711596]",51,SB,L,R,ITMSR,1.0,
2,400,trial,0,89,89,89,trial,"['S', 'S', 'S', 'S', 'S', 'S', 'S', 'C', 'C', 'C', 'C', 'C', 'C', 'C', 'C', 'C', 'C', 'C', 'C', 'C', 'C', 'C', 'C']","[1717552, 1717870, 1718258, 1718634, 1719003, 1719377, 1719798, 1720189, 1720599, 1720981, 1721404, 1721803, 1722217, 1722628, 1723013, 1723417, 1723813, 1724215, 1724585, 1724995, 1725408, 1725788, 1726178]","[1717650, 1717963, 1718335, 1718712, 1719085, 1719476, 1719874, 1720291, 1720678, 1721078, 1721477, 1721917, 1722297, 1722714, 1723106, 1723518, 1723889, 1724305, 1724677, 1725103, 1725491, 1725882, 1726273]","[119, 141, 157, 5, 161, 175, 164, 164, 152, 164, 167, 170, 161, 162, 165, 179, 163, 154, 163, 173, 170, 167, 175]","[1717556, 1717874, 1718259, 1718644, 1719006, 1719380, 1719802, 1720194, 1720603, 1720984, 1721407, 1721806, 1722220, 1722631, 1723017, 1723419, 1723816, 1724218, 1724589, 1724998, 1725411, 1725792, 1726181]","[1717033, 1717434, 1717833, 1718234, 1718634, 1719033, 1719434, 1719833, 1720229, 1720640, 1721022, 1721445, 1721843, 1722258, 1722669, 1723054, 1723457, 1723853, 1724256, 1724625, 1725036, 1725449, 1725829, 1726219]",51,SB,L,R,ITMSR,1.0,
