pitch,ioi,event,.thisRepN,.thisTrialN,.thisN,.thisIndex,event,tap_types,tap_times,release_times,peak_pressures,peak_times,tone_times,subject,experimenter,register,handedness,experiment,version
,,SPR,0,-1,-1,0,SPR,"['P', 'P', 'P', 'P', 'P', 'P', 'P', 'P', 'P', 'P', 'P', 'P', 'P', 'P', 'P', 'P', 'P', 'P', 'P', 'P', 'P', 'P', 'P', 'P', 'P', 'P', 'P', 'P', 'P', 'P']","[15073, 15384, 15758, 16106, 16478, 16823, 17199, 17572, 17918, 18260, 18642, 18990, 19321, 19694, 20034, 20383, 20717, 21054, 21410, 21804, 22136, 22478, 22808, 23187, 23564, 23894, 24241, 24576, 24927, 25300]","[15152, 15550, 15964, 16294, 16703, 17052, 17408, 17752, 18123, 18421, 18788, 19187, 19484, 19845, 20224, 20533, 20892, 21208, 21572, 21958, 22301, 22652, 22972, 23320, 23699, 24043, 24393, 24722, 25062, 25431]","[232, 195, 153, 202, 199, 202, 211, 197, 210, 195, 160, 196, 182, 162, 203, 187, 199, 176, 207, 172, 192, 169, 174, 113, 118, 116, 81, 91, 113, 130]","[15110, 15450, 15855, 16196, 16564, 16915, 17282, 17644, 18001, 18328, 18708, 19068, 19393, 19765, 20125, 20448, 20788, 21114, 21480, 21876, 22213, 22549, 22876, 23188, 23565, 23895, 24305, 24577, 24989, 25355]",,67,EM,L,R,ITMSR,1.1
2,500,practice,0,0,0,0,practice,"['S', 'S', 'S', 'S', 'S', 'S', 'S', 'C', 'C', 'C', 'C', 'C', 'C', 'C', 'C', 'C', 'C', 'C', 'C', 'C', 'C', 'C', 'C']","[119209, 119635, 120107, 120648, 121112, 121621, 122118, 122610, 123117, 123630, 124134, 124648, 125158, 125666, 126177, 126697, 127188, 127712, 128199, 128712, 129223, 129701, 130185]","[119452, 119866, 120373, 120932, 121436, 121887, 122415, 122932, 123404, 123908, 124395, 124932, 125371, 125888, 126394, 126992, 127416, 127907, 128475, 128953, 129479, 129931, 130441]","[169, 145, 201, 154, 203, 173, 180, 191, 189, 176, 184, 154, 190, 176, 180, 171, 182, 193, 191, 195, 188, 196, 197]","[119306, 119711, 120193, 120716, 121211, 121692, 122188, 122683, 123189, 123716, 124216, 124724, 125239, 125733, 126252, 126770, 127271, 127794, 128294, 128782, 129301, 129794, 130265]","[118639, 119139, 119640, 120140, 120640, 121140, 121640, 122140, 122630, 123138, 123650, 124154, 124668, 125178, 125686, 126197, 126717, 127208, 127732, 128219, 128732, 129243, 129721, 130205]",67,EM,L,R,ITMSR,1.1
4,500,practice,0,1,1,1,practice,"['S', 'S', 'S', 'S', 'S', 'S', 'S', 'C', 'C', 'C', 'C', 'C', 'C', 'C', 'C', 'C', 'C', 'C', 'C', 'C', 'C', 'C', 'C']","[136451, 136824, 137223, 137712, 138182, 138747, 139274, 139774, 140272, 140775, 141265, 141771, 142263, 142747, 143192, 143735, 144251, 144744, 145258, 145771, 146281, 146817, 147313]","[136690, 137108, 137600, 138037, 138604, 139116, 139636, 140126, 140625, 141073, 141626, 142107, 142545, 143039, 143475, 144133, 144543, 145073, 145580, 146018, 146490, 147000, 147543]","[129, 187, 202, 203, 201, 201, 176, 192, 197, 194, 191, 190, 176, 189, 196, 148, 145, 140, 144, 132, 98, 112, 114]","[136516, 136905, 137312, 137847, 138265, 138823, 139371, 139857, 140353, 140850, 141350, 141862, 142345, 142832, 143265, 143814, 144345, 144825, 145338, 145862, 146347, 146884, 147392]","[135795, 136295, 136795, 137295, 137795, 138295, 138796, 139295, 139794, 140292, 140795, 141285, 141791, 142283, 142767, 143212, 143755, 144271, 144764, 145278, 145792, 146301, 146837, 147333]",67,EM,L,R,ITMSR,1.1
5,500,practice,0,2,2,2,practice,"['S', 'S', 'S', 'S', 'S', 'S', 'S', 'C', 'C', 'C', 'C', 'C', 'C', 'C', 'C', 'C', 'C', 'C', 'C', 'C', 'C', 'C', 'C']","[153294, 153719, 154177, 154653, 155193, 155692, 156223, 156722, 157189, 157730, 158255, 158799, 159315, 159888, 160379, 160915, 161388, 161900, 162437, 162912, 163475, 163998, 164503]","[153467, 153962, 154463, 154931, 155470, 156046, 156524, 156985, 157476, 157914, 158462, 158994, 159513, 160070, 160556, 161085, 161572, 162096, 162588, 163091, 163609, 164189, 164697]","[93, 168, 152, 184, 168, 128, 118, 67, 150, 80, 65, 42, 118, 133, 89, 123, 93, 79, 38, 68, 47, 135, 91]","[153359, 153805, 154264, 154746, 155286, 155782, 156312, 156792, 157288, 157809, 158341, 158878, 159394, 159963, 160458, 160973, 161457, 161970, 162490, 162987, 163532, 164069, 164587]","[152730, 153229, 153730, 154230, 154730, 155230, 155730, 156230, 156742, 157209, 157750, 158275, 158819, 159335, 159908, 160399, 160935, 161409, 161921, 162457, 162932, 163495, 164018, 164524]",67,EM,L,R,ITMSR,1.1
0,500,practice,0,3,3,3,practice,"['S', 'S', 'S', 'S', 'S', 'S', 'S', 'C', 'C', 'C', 'C', 'C', 'C', 'C', 'C', 'C', 'C', 'C', 'C', 'C', 'C', 'C', 'C']","[170802, 171200, 171655, 172156, 172673, 173178, 173694, 174195, 174699, 175201, 175712, 176168, 176665, 177190, 177680, 178195, 178708, 179232, 179737, 180248, 180766, 181261, 181761]","[170986, 171418, 171970, 172462, 172965, 173493, 174014, 174521, 175024, 175541, 175994, 176515, 176987, 177526, 178025, 178541, 179031, 179488, 180004, 180564, 181070, 181580]","[128, 157, 161, 190, 133, 176, 174, 146, 174, 171, 162, 167, 168, 161, 163, 156, 157, 149, 168, 166, 171, 167]","[170867, 171273, 171736, 172238, 172732, 173256, 173784, 174268, 174785, 175294, 175803, 176256, 176774, 177277, 177804, 178279, 178800, 179315, 179825, 180328, 180842, 181356]","[170231, 170731, 171231, 171731, 172231, 172731, 173231, 173731, 174215, 174720, 175221, 175732, 176188, 176685, 177210, 177700, 178215, 178728, 179252, 179757, 180269, 180786, 181281, 181781]",67,EM,L,R,ITMSR,1.1
3,500,practice,0,4,4,4,practice,"['S', 'S', 'S', 'S', 'S', 'S', 'S', 'C', 'C', 'C', 'C', 'C', 'C', 'C', 'C', 'C', 'C', 'C', 'C', 'C', 'C', 'C', 'C']","[187599, 188107, 188592, 189103, 189613, 190107, 190616, 191145, 191620, 192136, 192650, 193172, 193631, 194177, 194661, 195166, 195676, 196205, 196720, 197196, 197757, 198272, 198769]","[187860, 188383, 188903, 189418, 189960, 190454, 190943, 191439, 191934, 192436, 192962, 193448, 193934, 194420, 194948, 195407, 195981, 196496, 196971, 197488, 197978, 198473, 198950]","[134, 149, 145, 146, 119, 113, 158, 161, 158, 139, 157, 151, 152, 137, 151, 148, 146, 155, 149, 167, 116, 137, 132]","[187694, 188186, 188679, 189182, 189705, 190183, 190729, 191230, 191712, 192218, 192730, 193254, 193716, 194262, 194741, 195250, 195757, 196293, 196791, 197268, 197820, 198325, 198827]","[187138, 187638, 188138, 188638, 189138, 189638, 190138, 190638, 191165, 191640, 192156, 192670, 193192, 193651, 194197, 194681, 195186, 195696, 196226, 196740, 197216, 197777, 198292, 198789]",67,EM,L,R,ITMSR,1.1
1,500,practice,0,5,5,5,practice,"['S', 'S', 'S', 'S', 'S', 'S', 'S', 'C', 'C', 'C', 'C', 'C', 'C', 'C', 'C', 'C', 'C', 'C', 'C', 'C', 'C', 'C', 'C']","[204600, 205128, 205628, 206139, 206672, 207175, 207697, 208218, 208688, 209234, 209732, 210180, 210715, 211216, 211695, 212231, 212728, 213184, 213730, 214300, 214797, 215257, 215731]","[204843, 205342, 205875, 206423, 206957, 207460, 207960, 208416, 208885, 209440, 209912, 210417, 210960, 211412, 211915, 212408, 212908, 213373, 213871, 214436, 214958, 215442, 215912]","[113, 137, 124, 99, 83, 120, 126, 101, 131, 105, 92, 131, 112, 126, 43, 106, 31, 59, 230, 252, 19, 62, 245]","[204675, 205201, 205696, 206215, 206740, 207262, 207785, 208286, 208763, 209294, 209802, 210257, 210787, 211292, 211768, 212298, 212798, 213245, 213786, 214355, 214858, 215336, 215799]","[204246, 204745, 205245, 205745, 206245, 206745, 207245, 207746, 208238, 208708, 209254, 209752, 210200, 210735, 211236, 211715, 212251, 212748, 213204, 213750, 214320, 214817, 215277, 215751]",67,EM,L,R,ITMSR,1.1
0,600,trial,0,6,6,6,trial,"['S', 'S', 'S', 'S', 'S', 'S', 'S', 'C', 'C', 'C', 'C', 'C', 'C', 'C', 'C', 'C', 'C', 'C', 'C', 'C', 'C', 'C', 'C']","[287682, 288229, 288912, 289594, 290277, 290757, 291378, 291971, 292614, 293282, 293897, 294472, 295108, 295727, 296312, 296902, 297505, 298108, 298700, 299311, 299914, 300523, 301126]","[287940, 288527, 289267, 289952, 290453, 291115, 291749, 292376, 293033, 293680, 294240, 294839, 295424, 296026, 296671, 297279, 297899, 298502, 299128, 299663, 300281, 300910]","[104, 178, 143, 149, 167, 181, 162, 161, 173, 183, 169, 176, 177, 177, 164, 186, 188, 193, 179, 177, 173, 177]","[287753, 288315, 288993, 289687, 290340, 290866, 291473, 292052, 292858, 293364, 293972, 294547, 295182, 295809, 296380, 296982, 297585, 298191, 298798, 299415, 300016, 300622]","[287193, 287793, 288393, 288993, 289593, 290193, 290793, 291393, 291991, 292634, 293302, 293917, 294492, 295128, 295747, 296332, 296922, 297525, 298128, 298720, 299331, 299934, 300544, 301146]",67,EM,L,R,ITMSR,1.1
3,400,trial,0,7,7,7,trial,"['S', 'S', 'S', 'S', 'S', 'S', 'S', 'C', 'C', 'C', 'C', 'C', 'C', 'C', 'C', 'C', 'C', 'C', 'C', 'C', 'C', 'C', 'C']","[307023, 307339, 307658, 308033, 308452, 308869, 309265, 309668, 310078, 310519, 310901, 311347, 311738, 312125, 312546, 312951, 313368, 313757, 314157, 314558, 314997, 315408, 315819]","[307169, 307490, 307813, 308195, 308608, 309035, 309444, 309858, 310241, 310644, 311033, 311461, 311885, 312279, 312675, 313102, 313522, 313889, 314295, 314698, 315125, 315539, 315959]","[90, 166, 155, 171, 160, 173, 166, 163, 138, 146, 144, 149, 142, 141, 135, 157, 167, 155, 139, 155, 150, 97, 134]","[307080, 307397, 307715, 308089, 308502, 308922, 309318, 309736, 310134, 310575, 310951, 311392, 311800, 312181, 312598, 313014, 313438, 313809, 314206, 314605, 315046, 315461, 315872]","[306503, 306903, 307302, 307702, 308102, 308502, 308902, 309302, 309688, 310098, 310539, 310921, 311367, 311758, 312145, 312566, 312971, 313389, 313777, 314177, 314578, 315017, 315428, 315839]",67,EM,L,R,ITMSR,1.1
3,400,trial,0,8,8,8,trial,"['S', 'S', 'S', 'S', 'S', 'S', 'S', 'C', 'C', 'C', 'C', 'C', 'C', 'C', 'C', 'C', 'C', 'C', 'C', 'C', 'C', 'C', 'C']","[321596, 321920, 322253, 322620, 323049, 323439, 323876, 324296, 324682, 325054, 325439, 325813, 326189, 326560, 326950, 327304, 327696, 328098, 328468, 328871, 329244, 329614, 330006]","[321748, 322066, 322415, 322770, 323217, 323645, 324018, 324450, 324842, 325200, 325574, 325939, 326316, 326691, 327075, 327447, 327822, 328214, 328602, 328974, 329370, 329753, 330121]","[68, 139, 170, 165, 169, 162, 87, 154, 134, 126, 136, 124, 82, 104, 61, 92, 42, 135, 1, 203, 227, 12, 231]","[321669, 321976, 322313, 322666, 323101, 323508, 323934, 324360, 324738, 325111, 325496, 325865, 326245, 326593, 327006, 327339, 327732, 328134, 328524, 328909, 329282, 329651, 330042]","[321148, 321548, 321948, 322349, 322749, 323149, 323549, 323949, 324316, 324702, 325074, 325459, 325833, 326209, 326580, 326970, 327324, 327716, 328118, 328488, 328891, 329264, 329634, 330027]",67,EM,L,R,ITMSR,1.1
1,400,trial,0,9,9,9,trial,"['S', 'S', 'S', 'S', 'S', 'S', 'S', 'C', 'C', 'C', 'C', 'C', 'C', 'C', 'C', 'C', 'C', 'C', 'C', 'C', 'C', 'C', 'C']","[336041, 336467, 336846, 337228, 337650, 338074, 338472, 338889, 339281, 339677, 340087, 340478, 340876, 341277, 341690, 342066, 342455, 342878, 343247, 343650, 344040, 344450, 344817]","[336219, 336633, 337020, 337409, 337831, 338241, 338650, 339041, 339424, 339837, 340207, 340625, 341016, 341386, 341813, 342199, 342590, 342994, 343388, 343777, 344180, 344573, 344950]","[110, 71, 143, 137, 129, 121, 151, 101, 111, 131, 66, 108, 116, 48, 107, 96, 85, 22, 62, 57, 27, 69, 91]","[336104, 336536, 336898, 337275, 337719, 338130, 338535, 338937, 339337, 339735, 340143, 340538, 340929, 341329, 341746, 342113, 342506, 342916, 343303, 343707, 344098, 344502, 344872]","[335715, 336115, 336515, 336915, 337315, 337715, 338115, 338515, 338909, 339301, 339697, 340107, 340498, 340896, 341297, 341710, 342086, 342475, 342898, 343267, 343670, 344060, 344470, 344837]",67,EM,L,R,ITMSR,1.1
2,400,trial,0,10,10,10,trial,"['S', 'S', 'S', 'S', 'S', 'S', 'S', 'C', 'C', 'C', 'C', 'C', 'C', 'C', 'C', 'C', 'C', 'C', 'C', 'C', 'C', 'C', 'C']","[350815, 351205, 351595, 352018, 352428, 352829, 353266, 353676, 354086, 354453, 354891, 355275, 355678, 356090, 356478, 356864, 357272, 357698, 358075, 358495, 358895, 359278, 359683]","[350943, 351336, 351749, 352180, 352602, 352990, 353433, 353829, 354220, 354631, 355033, 355419, 355805, 356216, 356604, 356983, 357390, 357804, 358187, 358609, 359012, 359418, 359821]","[64, 77, 103, 103, 143, 108, 132, 116, 53, 137, 91, 102, 49, 66, 52, 88, 68, 5, 65, 57, 35, 50, 76]","[350874, 351261, 351652, 352073, 352480, 352884, 353325, 353732, 354138, 354529, 354947, 355334, 355717, 356128, 356530, 356911, 357311, 357734, 358112, 358546, 358951, 359339, 359740]","[350535, 350936, 351336, 351736, 352136, 352536, 352936, 353336, 353696, 354106, 354473, 354911, 355295, 355698, 356110, 356498, 356884, 357293, 357719, 358095, 358515, 358915, 359298, 359703]",67,EM,L,R,ITMSR,1.1
4,400,trial,0,11,11,11,trial,"['S', 'S', 'S', 'S', 'S', 'S', 'S', 'C', 'C', 'C', 'C', 'C', 'C', 'C', 'C', 'C', 'C', 'C', 'C', 'C', 'C', 'C', 'C']","[365715, 366044, 366379, 366825, 367237, 367644, 368095, 368509, 368919, 369330, 369710, 370116, 370493, 370874, 371270, 371631, 372056, 372435, 372824, 373201, 373601, 374005, 374417]","[365832, 366177, 366539, 366990, 367421, 367807, 368227, 368659, 369065, 369449, 369823, 370231, 370597, 371001, 371395, 371766, 372179, 372553, 372945, 373317, 373710, 374110, 374506]","[56, 96, 142, 124, 141, 138, 104, 115, 77, 71, 24, 57, 25, 23, 72, 89, 48, 28, 72, 41, 20, 179, 239]","[365774, 366098, 366436, 366880, 367286, 367695, 368144, 368567, 368969, 369387, 369714, 370172, 370543, 370932, 371330, 371666, 372109, 372480, 372873, 373248, 373650, 374062, 374463]","[365360, 365760, 366160, 366560, 366960, 367361, 367760, 368160, 368529, 368940, 369350, 369730, 370136, 370513, 370894, 371290, 371651, 372076, 372455, 372844, 373221, 373621, 374025, 374437]",67,EM,L,R,ITMSR,1.1
4,400,trial,0,12,12,12,trial,"['S', 'S', 'S', 'S', 'S', 'S', 'S', 'C', 'C', 'C', 'C', 'C', 'C', 'C', 'C', 'C', 'C', 'C', 'C', 'C', 'C', 'C', 'C']","[380198, 380545, 380955, 381361, 381769, 382166, 382615, 383009, 383406, 383780, 384149, 384582, 384970, 385323, 385732, 386122, 386496, 386888, 387299, 387672, 388085, 388421, 388850]","[380333, 380680, 381089, 381499, 381899, 382306, 382750, 383104, 383510, 383915, 384236, 384680, 385081, 385431, 385826, 386232, 386626, 387005, 387404, 387779, 388196, 388540, 388968]","[13, 249, 52, 11, 72, 54, 71, 53, 30, 54, 253, 1, 31, 10, 15, 18, 47, 250, 243, 240, 236, 236, 228]","[380254, 380599, 381004, 381419, 381819, 382223, 382672, 383053, 383440, 383783, 384157, 384619, 385007, 385357, 385768, 386169, 386549, 386890, 387304, 387676, 388088, 388424, 388854]","[379871, 380270, 380670, 381070, 381470, 381870, 382270, 382670, 383029, 383426, 383800, 384169, 384602, 384990, 385343, 385752, 386142, 386516, 386908, 387319, 387692, 388105, 388441, 388870]",67,EM,L,R,ITMSR,1.1
1,600,trial,0,13,13,13,trial,"['S', 'S', 'S', 'S', 'S', 'S', 'S', 'C', 'C', 'C', 'C', 'C', 'C', 'C', 'C', 'C', 'C', 'C', 'C', 'C', 'C', 'C', 'C']","[395019, 395714, 396388, 397023, 397655, 398244, 398840, 399492, 400048, 400652, 401256, 401845, 402446, 403058, 403650, 404259, 404823, 405476, 406037, 406635, 407185, 407759, 408327]","[395140, 395964, 396712, 397494, 398032, 398553, 399198, 399757, 400378, 400940, 401477, 402100, 402635, 403295, 403864, 404476, 405116, 405703, 406319, 406900, 407538, 408112]","[197, 119, 69, 127, 187, 161, 128, 149, 140, 109, 111, 52, 49, 70, 81, 104, 101, 151, 93, 136, 120, 95]","[395074, 395784, 396469, 397114, 397733, 398310, 398917, 399575, 400126, 400739, 401335, 401922, 402448, 403118, 403716, 404338, 404905, 405551, 406120, 406716, 407268, 407819]","[394667, 395266, 395866, 396466, 397066, 397666, 398266, 398866, 399512, 400068, 400672, 401276, 401865, 402466, 403078, 403671, 404279, 404843, 405496, 406057, 406656, 407205, 407779, 408347]",67,EM,L,R,ITMSR,1.1
4,600,trial,0,14,14,14,trial,"['S', 'S', 'S', 'S', 'S', 'S', 'S', 'S', 'C', 'C', 'C', 'C', 'C', 'C', 'C', 'C', 'C', 'C', 'C', 'C', 'C', 'C', 'C', 'C']","[414096, 414607, 414997, 415540, 416187, 416881, 417388, 418011, 418613, 419260, 419871, 420464, 421087, 421696, 422266, 422863, 423445, 424182, 424766, 425307, 425829, 426322, 426935, 427531]","[414204, 414787, 415293, 415896, 416538, 417099, 417660, 418199, 418900, 419483, 420057, 420674, 421235, 421881, 422461, 423040, 423563, 424291, 424904, 425430, 425964, 426435, 427016, 427678]","[13, 114, 163, 157, 157, 117, 161, 148, 145, 167, 165, 170, 139, 142, 141, 77, 212, 199, 56, 31, 246, 146, 76, 36]","[414152, 414670, 415070, 415628, 416268, 416884, 417470, 418075, 418694, 419340, 419939, 420537, 421144, 421776, 422339, 422937, 423510, 424185, 424768, 425357, 425831, 426361, 426938, 427587]","[413833, 414432, 415032, 415632, 416232, 416832, 417432, 418032, 418633, 419280, 419891, 420484, 421107, 421716, 422286, 422883, 423465, 424202, 424786, 425327, 425849, 426342, 426955, 427551]",67,EM,L,R,ITMSR,1.1
1,600,trial,0,15,15,15,trial,"['S', 'S', 'S', 'S', 'S', 'S', 'S', 'C', 'C', 'C', 'C', 'C', 'C', 'C', 'C', 'C', 'C', 'C', 'C', 'C', 'C', 'C', 'C']","[433644, 434277, 434896, 435501, 436184, 436762, 437331, 437915, 438561, 439146, 439688, 440292, 440849, 441376, 441958, 442549, 443122, 443712, 444315, 444913, 445514, 446099, 446715]","[433773, 434383, 435008, 435622, 436283, 436871, 437438, 438021, 438641, 439240, 439786, 440371, 440945, 441473, 442098, 442686, 443267, 443814, 444443, 445074, 445643, 446206, 446848]","[48, 89, 108, 161, 156, 117, 125, 71, 128, 128, 99, 87, 72, 121, 128, 87, 100, 18, 93, 136, 84, 81, 129]","[433699, 434333, 434931, 435505, 436187, 436767, 437337, 437918, 438564, 439149, 439692, 440295, 440853, 441379, 441962, 442552, 443124, 443715, 444317, 444915, 445516, 446101, 446716]","[433217, 433817, 434417, 435017, 435617, 436217, 436817, 437417, 437935, 438581, 439166, 439708, 440312, 440869, 441396, 441978, 442569, 443142, 443732, 444335, 444933, 445534, 446119, 446735]",67,EM,L,R,ITMSR,1.1
2,400,trial,0,16,16,16,trial,"['S', 'S', 'S', 'S', 'S', 'S', 'S', 'S', 'C', 'C', 'C', 'C', 'C', 'C', 'C', 'C', 'C', 'C', 'C', 'C', 'C', 'C', 'C', 'C']","[452750, 453079, 453441, 453870, 454136, 454452, 454814, 455244, 455657, 456020, 456423, 456808, 457189, 457576, 457984, 458394, 458791, 459199, 459622, 460019, 460469, 460872, 461243, 461705]","[452882, 453177, 453556, 453975, 454264, 454565, 454944, 455344, 455774, 456131, 456529, 456908, 457297, 457682, 458064, 458485, 458894, 459310, 459701, 460119, 460558, 460981, 461341, 461797]","[50, 84, 194, 140, 162, 163, 170, 156, 172, 175, 163, 161, 149, 148, 121, 132, 153, 143, 123, 147, 135, 145, 145, 149]","[452752, 453083, 453443, 453870, 454139, 454496, 454818, 455247, 455660, 456022, 456426, 456810, 457191, 457579, 457988, 458396, 458795, 459202, 459625, 460022, 460472, 460875, 461247, 461708]","[452496, 452895, 453295, 453695, 454095, 454495, 454895, 455296, 455677, 456040, 456443, 456828, 457209, 457596, 458004, 458414, 458811, 459219, 459642, 460039, 460489, 460892, 461263, 461725]",67,EM,L,R,ITMSR,1.1
3,600,trial,0,17,17,17,trial,"['S', 'S', 'S', 'S', 'S', 'S', 'S', 'C', 'C', 'C', 'C', 'C', 'C', 'C', 'C', 'C', 'C', 'C', 'C', 'C', 'C', 'C', 'C']","[467548, 468291, 468898, 469582, 470134, 470722, 471326, 471911, 472491, 473059, 473628, 474196, 474789, 475353, 475954, 476474, 477071, 477719, 478300, 478880, 479455, 480047, 480659]","[467632, 468426, 469060, 469736, 470284, 470888, 471488, 472030, 472624, 473224, 473755, 474331, 474919, 475501, 476080, 476635, 477197, 477833, 478403, 479005, 479581, 480142, 480743]","[103, 146, 173, 128, 131, 145, 160, 126, 148, 156, 90, 117, 119, 140, 101, 123, 149, 116, 123, 133, 126, 118, 63]","[467551, 468293, 468900, 469586, 470138, 470723, 471329, 471912, 472494, 473062, 473630, 474200, 474792, 475356, 475955, 476476, 477073, 477721, 478303, 478883, 479459, 480050, 480661]","[467213, 467813, 468413, 469013, 469613, 470213, 470813, 471413, 471931, 472511, 473079, 473648, 474216, 474809, 475373, 475974, 476494, 477091, 477740, 478320, 478900, 479475, 480067, 480679]",67,EM,L,R,ITMSR,1.1
0,600,trial,0,18,18,18,trial,"['S', 'S', 'S', 'S', 'S', 'S', 'S', 'S', 'C', 'C', 'C', 'C', 'C', 'C', 'C', 'C', 'C', 'C', 'C', 'C', 'C', 'C', 'C', 'C']","[486724, 487049, 487539, 488133, 488750, 489363, 489960, 490619, 491217, 491843, 492422, 493020, 493603, 494183, 494806, 495383, 495993, 496616, 497228, 497858, 498452, 499078, 499653, 500258]","[486794, 487188, 487740, 488367, 488992, 489578, 490185, 490829, 491432, 491957, 492570, 493192, 493766, 494333, 494915, 495522, 496137, 496749, 497351, 497960, 498605, 499227, 499786, 500395]","[119, 155, 122, 140, 114, 121, 136, 147, 136, 122, 157, 136, 125, 136, 120, 157, 148, 147, 117, 140, 159, 133, 103, 132]","[486728, 487051, 487540, 488135, 488752, 489367, 489962, 490621, 491220, 491847, 492424, 493022, 493606, 494185, 494809, 495384, 495994, 496618, 497230, 497860, 498454, 499082, 499655, 500260]","[486431, 487031, 487631, 488231, 488832, 489432, 490032, 490632, 491237, 491864, 492442, 493040, 493623, 494203, 494826, 495404, 496013, 496636, 497248, 497879, 498472, 499098, 499673, 500278]",67,EM,L,R,ITMSR,1.1
0,400,trial,0,19,19,19,trial,"['S', 'S', 'S', 'S', 'S', 'S', 'S', 'C', 'C', 'C', 'C', 'C', 'C', 'C', 'C', 'C', 'C', 'C', 'C', 'C', 'C', 'C', 'C']","[505972, 506429, 506786, 507220, 507645, 508080, 508435, 508873, 509285, 509681, 510102, 510514, 510916, 511345, 511770, 512207, 512620, 512988, 513434, 513829, 514289, 514627, 515110]","[506071, 506530, 506878, 507313, 507742, 508175, 508541, 508948, 509366, 509775, 510190, 510598, 511002, 511441, 511864, 512283, 512697, 513082, 513519, 513931, 514364, 514742, 515190]","[87, 138, 163, 162, 153, 160, 164, 164, 149, 166, 158, 159, 167, 167, 159, 159, 165, 167, 127, 134, 86, 122, 120]","[505975, 506431, 506788, 507223, 507648, 508083, 508437, 508875, 509287, 509682, 510104, 510516, 510917, 511347, 511772, 512210, 512622, 512990, 513435, 513831, 514291, 514629, 515113]","[505647, 506047, 506447, 506847, 507247, 507648, 508047, 508447, 508893, 509305, 509701, 510123, 510534, 510936, 511365, 511790, 512227, 512641, 513008, 513454, 513849, 514309, 514648, 515130]",67,EM,L,R,ITMSR,1.1
2,600,trial,0,20,20,20,trial,"['S', 'S', 'S', 'S', 'S', 'S', 'S', 'S', 'C', 'C', 'C', 'C', 'C', 'C', 'C', 'C', 'C', 'C', 'C', 'C', 'C', 'C', 'C', 'C']","[520706, 521032, 521626, 522271, 522863, 523422, 524002, 524643, 525251, 525863, 526419, 526987, 527605, 528156, 528774, 529347, 529870, 530472, 531066, 531712, 532324, 532920, 533471, 534128]","[520777, 521117, 521773, 522404, 523005, 523581, 524143, 524743, 525359, 525955, 526523, 527104, 527719, 528281, 528911, 529508, 530016, 530613, 531188, 531806, 532404, 532942, 533574, 534231]","[0, 128, 155, 115, 151, 137, 153, 110, 127, 51, 110, 129, 112, 101, 116, 116, 101, 59, 75, 14, 21, 11, 50, 38]","[520709, 521035, 521628, 522273, 522865, 523425, 524004, 524646, 525253, 525865, 526423, 526989, 527607, 528158, 528777, 529350, 529872, 530477, 531068, 531714, 532325, 532921, 533472, 534130]","[520517, 521117, 521717, 522317, 522917, 523517, 524118, 524717, 525272, 525883, 526439, 527007, 527625, 528176, 528794, 529368, 529890, 530492, 531086, 531732, 532344, 532940, 533491, 534148]",67,EM,L,R,ITMSR,1.1
3,600,trial,0,21,21,21,trial,"['S', 'S', 'S', 'S', 'S', 'S', 'S', 'S', 'C', 'C', 'C', 'C', 'C', 'C', 'C', 'C', 'C', 'C', 'C', 'C', 'C', 'C', 'C', 'C']","[539935, 540311, 540837, 541424, 541997, 542596, 543171, 543767, 544381, 544990, 545580, 546123, 546721, 547252, 547858, 548523, 549064, 549600, 550208, 550764, 551329, 551932, 552460, 553105]","[540032, 540422, 540966, 541537, 542130, 542713, 543328, 543886, 544504, 545082, 545675, 546222, 546802, 547356, 547940, 548596, 549163, 549702, 550281, 550862, 551406, 552042, 552586, 553191]","[108, 143, 145, 122, 139, 134, 150, 161, 158, 92, 137, 106, 97, 72, 73, 99, 126, 119, 112, 102, 19, 144, 132, 114]","[539937, 540313, 540839, 541426, 541998, 542598, 543172, 543769, 544382, 544992, 545582, 546125, 546725, 547255, 547860, 548526, 549066, 549602, 550210, 550767, 551331, 551934, 552462, 553107]","[539662, 540261, 540861, 541461, 542061, 542661, 543261, 543861, 544401, 545010, 545600, 546143, 546741, 547272, 547878, 548543, 549084, 549620, 550228, 550785, 551349, 551952, 552480, 553125]",67,EM,L,R,ITMSR,1.1
5,400,trial,0,22,22,22,trial,"['S', 'S', 'S', 'S', 'S', 'S', 'S', 'C', 'C', 'C', 'C', 'C', 'C', 'C', 'C', 'C', 'C', 'C', 'C', 'C', 'C', 'C', 'C']","[559053, 559442, 559828, 560232, 560633, 561058, 561454, 561867, 562252, 562697, 563133, 563578, 564040, 564436, 564839, 565272, 565718, 566105, 566559, 567028, 567483, 567964, 568431]","[559149, 559540, 559909, 560316, 560702, 561127, 561537, 561939, 562349, 562774, 563216, 563656, 564119, 564512, 564923, 565353, 565786, 566204, 566649, 567111, 567564, 568034, 568496]","[78, 140, 150, 137, 124, 109, 159, 130, 149, 118, 146, 99, 124, 145, 126, 145, 134, 142, 148, 102, 124, 114, 107]","[559055, 559444, 559831, 560234, 560636, 561060, 561456, 561870, 562254, 562700, 563135, 563580, 564042, 564439, 564842, 565274, 565720, 566107, 566561, 567030, 567485, 567966, 568434]","[558654, 559053, 559453, 559853, 560253, 560653, 561053, 561453, 561887, 562272, 562717, 563153, 563598, 564060, 564456, 564859, 565293, 565738, 566125, 566579, 567048, 567503, 567984, 568451]",67,EM,L,R,ITMSR,1.1
2,600,trial,0,23,23,23,trial,"['S', 'S', 'S', 'S', 'S', 'S', 'S', 'S', 'C', 'C', 'C', 'C', 'C', 'C', 'C', 'C', 'C', 'C', 'C', 'C', 'C', 'C', 'C', 'C']","[574476, 574988, 575384, 575901, 576492, 577088, 577719, 578329, 578934, 579517, 580076, 580689, 581269, 581850, 582414, 582975, 583540, 584167, 584708, 585396, 585968, 586526, 587138, 587655]","[574572, 575052, 575505, 576013, 576586, 577214, 577964, 578535, 579057, 579624, 580172, 580786, 581397, 581952, 582538, 583105, 583651, 584286, 584859, 585499, 586083, 586634, 587217, 587773]","[60, 120, 134, 94, 122, 127, 133, 149, 112, 150, 75, 139, 131, 109, 142, 148, 127, 104, 141, 26, 103, 92, 110, 127]","[574479, 574990, 575386, 575903, 576494, 577090, 577721, 578331, 578935, 579519, 580078, 580691, 581271, 581852, 582415, 582977, 583543, 584170, 584710, 585398, 585970, 586528, 587141, 587657]","[574177, 574777, 575377, 575977, 576577, 577177, 577777, 578377, 578954, 579537, 580097, 580709, 581289, 581870, 582434, 582995, 583560, 584187, 584728, 585416, 585988, 586546, 587158, 587675]",67,EM,L,R,ITMSR,1.1
5,600,trial,0,24,24,24,trial,"['S', 'S', 'S', 'S', 'S', 'S', 'S', 'S', 'C', 'C', 'C', 'C', 'C', 'C', 'C', 'C', 'C', 'C', 'C', 'C', 'C', 'C', 'C', 'C']","[593472, 593950, 594345, 594886, 595476, 595955, 596681, 597321, 597895, 598498, 599091, 599726, 600390, 600965, 601586, 602144, 602660, 603294, 603918, 604483, 605071, 605650, 606284, 606897]","[593559, 594068, 594439, 594984, 595566, 596119, 596785, 597422, 597987, 598572, 599184, 599746, 600472, 601075, 601659, 602238, 602768, 603369, 604000, 604504, 605091, 605722, 606304, 606982]","[141, 105, 84, 99, 111, 27, 82, 205, 198, 24, 86, 56, 75, 108, 72, 7, 148, 213, 3, 200, 93, 250, 223, 188]","[593478, 593952, 594347, 594888, 595478, 595958, 596683, 597324, 597898, 598500, 599093, 599728, 600393, 601025, 601588, 602146, 602662, 603297, 603921, 604485, 605073, 605654, 606285, 606899]","[593137, 593737, 594337, 594937, 595537, 596137, 596738, 597338, 597915, 598518, 599111, 599746, 600410, 600985, 601606, 602164, 602680, 603314, 603938, 604504, 605091, 605670, 606304, 606917]",67,EM,L,R,ITMSR,1.1
5,400,trial,0,25,25,25,trial,"['S', 'S', 'S', 'S', 'S', 'S', 'S', 'C', 'C', 'C', 'C', 'C', 'C', 'C', 'C', 'C', 'C', 'C', 'C', 'C', 'C', 'C', 'C', 'C', 'C']","[612811, 613188, 613539, 613929, 614312, 614720, 615102, 615489, 615868, 616260, 616669, 617097, 617543, 617996, 618419, 618818, 619226, 619646, 619968, 620191, 620615, 621026, 621344, 621589, 622034]","[612893, 613269, 613661, 614013, 614409, 614830, 615190, 615587, 615959, 616344, 616734, 617193, 617628, 618067, 618487, 618852, 619284, 619742, 619988, 620266, 620683, 621117, 621423, 621671, 622110]","[79, 119, 152, 140, 156, 164, 129, 134, 108, 100, 72, 109, 118, 92, 127, 12, 140, 132, 65, 97, 49, 49, 9, 6, 233]","[612814, 613190, 613541, 613932, 614315, 614722, 615104, 615491, 615871, 616262, 616671, 617099, 617545, 617999, 618422, 618822, 619228, 619649, 619974, 620194, 620619, 621029, 621347, 621593, 622039]","[612422, 612823, 613222, 613622, 614022, 614422, 614822, 615222, 615510, 615888, 616280, 616689, 617117, 617563, 618016, 618439, 618839, 619246, 619666, 619988, 620635, 621046, 621364, 622054]",67,EM,L,R,ITMSR,1.1
1,400,trial,0,26,26,26,trial,"['S', 'S', 'S', 'S', 'S', 'S', 'S', 'C', 'C', 'C', 'C', 'C', 'C', 'C', 'C', 'C', 'C', 'C', 'C', 'C', 'C', 'C', 'C']","[628030, 628380, 628865, 629213, 629651, 629975, 630444, 630827, 631232, 631655, 632093, 632524, 632949, 633384, 633797, 634199, 634625, 635071, 635528, 635931, 636379, 636811, 637193]","[628109, 628466, 628945, 629307, 629736, 630082, 630537, 630910, 631316, 631729, 632156, 632605, 633022, 633472, 633889, 634313, 634725, 635166, 635613, 636026, 636482, 636911, 637312]","[59, 137, 126, 151, 122, 102, 100, 103, 102, 109, 83, 110, 109, 138, 122, 118, 86, 71, 72, 87, 19, 85, 56]","[628032, 628382, 628867, 629215, 629653, 629978, 630448, 630830, 631235, 631658, 632095, 632527, 632951, 633387, 633799, 634201, 634628, 635073, 635531, 635934, 636382, 636813, 637196]","[627623, 628022, 628422, 628823, 629222, 629622, 630022, 630422, 630847, 631252, 631675, 632113, 632544, 632969, 633404, 633817, 634219, 634645, 635091, 635548, 635951, 636399, 636831, 637213]",67,EM,L,R,ITMSR,1.1
5,600,trial,0,27,27,27,trial,"['S', 'S', 'S', 'S', 'S', 'S', 'S', 'C', 'C', 'C', 'C', 'C', 'C', 'C', 'C', 'C', 'C', 'C', 'C', 'C', 'C', 'C', 'C']","[643228, 643964, 644572, 645188, 645775, 646370, 647001, 647643, 648245, 648808, 649394, 649985, 650548, 652212, 652819, 653410, 653932, 654509, 655107, 655637, 656150, 656723, 657270]","[643320, 644029, 644592, 645315, 645935, 646558, 647154, 647747, 648308, 648905, 649496, 650049, 650640, 652270, 652901, 653481, 654032, 654531, 655177, 655722, 656254, 656794, 657344]","[14, 35, 150, 61, 80, 54, 101, 50, 47, 249, 236, 1, 171, 180, 44, 169, 13, 203, 12, 37, 198, 189, 3]","[643231, 643966, 644575, 645190, 645777, 646372, 647003, 647646, 648248, 648811, 649396, 649987, 650551, 652216, 652822, 653413, 653935, 654511, 655110, 655639, 656153, 656726, 657272]","[642844, 643444, 644044, 644644, 645244, 645844, 646445, 647045, 647663, 648265, 648828, 649414, 650005, 650568, 652232, 652839, 653430, 653953, 654529, 655127, 655657, 656171, 656743, 657290]",67,EM,L,R,ITMSR,1.1
0,400,trial,0,28,28,28,trial,"['S', 'S', 'S', 'S', 'S', 'S', 'S', 'C', 'C', 'C', 'C', 'C', 'C', 'C', 'C', 'C', 'C', 'C', 'C', 'C', 'C', 'C', 'C']","[663459, 663852, 664231, 664612, 664989, 665462, 665839, 666223, 666662, 667094, 667566, 667945, 668368, 668826, 669199, 669677, 670091, 670517, 671005, 671436, 671795, 672214, 672652]","[663479, 663926, 664321, 664692, 665076, 665538, 665918, 666296, 666729, 667181, 667631, 668040, 668456, 668896, 669313, 669764, 670194, 670610, 671091, 671529, 671853, 672281, 672731]","[83, 96, 95, 95, 99, 126, 107, 109, 89, 124, 90, 136, 148, 98, 145, 141, 114, 124, 33, 108, 237, 54, 94]","[663463, 663855, 664233, 664614, 664991, 665465, 665840, 666226, 666665, 667096, 667568, 667948, 668370, 668829, 669201, 669679, 670094, 670520, 671007, 671438, 671798, 672217, 672655]","[663040, 663439, 663839, 664239, 664639, 665039, 665439, 665839, 666243, 666682, 667114, 667586, 667965, 668388, 668846, 669219, 669698, 670111, 670537, 671025, 671456, 671815, 672234, 672672]",67,EM,L,R,ITMSR,1.1
4,600,trial,0,29,29,29,trial,"['S', 'S', 'S', 'S', 'S', 'S', 'S', 'S', 'C', 'C', 'C', 'C', 'C', 'C', 'C', 'C', 'C', 'C', 'C', 'C', 'C', 'C', 'C', 'C', 'C']","[678549, 679073, 679473, 680036, 680593, 681159, 681718, 682403, 682967, 683067, 683686, 684251, 684803, 685361, 685985, 686531, 687078, 687629, 688142, 688727, 689226, 689825, 690396, 690878, 691448]","[678623, 679113, 679557, 680133, 680704, 681250, 681796, 682423, 682987, 683087, 683755, 684271, 684824, 685381, 686005, 686552, 687098, 687649, 688163, 688805, 689313, 689845, 690416, 690959, 691468]","[254, 143, 92, 68, 92, 44, 11, 251, 102, 31, 173, 186, 132, 96, 120, 115, 170, 107, 134, 176, 32, 131, 131, 150, 72]","[678552, 679079, 679476, 680038, 680596, 681161, 681721, 682406, 682969, 683067, 683689, 684254, 684805, 685362, 685988, 686532, 687080, 687631, 688144, 688729, 689228, 689828, 690397, 690880, 691450]","[678225, 678825, 679426, 680026, 680626, 681226, 681826, 682426, 682987, 683706, 684271, 684823, 685381, 686005, 686552, 687098, 687649, 688162, 688747, 689246, 689845, 690416, 690898, 691468]",67,EM,L,R,ITMSR,1.1
5,400,trial,0,30,30,30,trial,"['S', 'S', 'S', 'S', 'S', 'S', 'C', 'C', 'C', 'C', 'C', 'C', 'C', 'C', 'C', 'C', 'C', 'C', 'C', 'C', 'C', 'C']","[702916, 703265, 703606, 703949, 704351, 704766, 705182, 705559, 705945, 706365, 706759, 707122, 707543, 707934, 708405, 708812, 709229, 709672, 710110, 710586, 711020, 711397]","[702977, 703347, 703696, 704031, 704421, 704857, 705254, 705627, 706009, 706428, 706828, 707189, 707603, 707984, 708446, 708861, 709282, 709736, 710160, 710611, 711083, 711437]","[143, 144, 171, 161, 170, 171, 175, 147, 159, 128, 151, 148, 164, 151, 156, 132, 142, 119, 97, 38, 124, 90]","[702919, 703268, 703607, 703951, 704352, 704769, 705184, 705561, 705947, 706367, 706761, 707124, 707544, 707936, 708407, 708814, 709231, 709675, 710112, 710589, 711022, 711400]","[702022, 702422, 702821, 703221, 703621, 704021, 704421, 704821, 705202, 705580, 705965, 706385, 706779, 707142, 707563, 707954, 708425, 708832, 709250, 709692, 710130, 710606, 711041, 711417]",67,EM,L,R,ITMSR,1.1
4,400,trial,0,31,31,31,trial,"['S', 'S', 'S', 'S', 'S', 'S', 'S', 'S', 'C', 'C', 'C', 'C', 'C', 'C', 'C', 'C', 'C', 'C', 'C', 'C', 'C', 'C', 'C', 'C']","[716981, 717317, 717739, 718164, 718514, 718985, 719365, 719750, 720150, 720539, 720932, 721346, 721776, 722235, 722631, 723003, 723446, 723864, 724280, 724671, 725075, 725482, 725909, 726306]","[717040, 717375, 717816, 718184, 718573, 719054, 719437, 719838, 720232, 720617, 720996, 721390, 721843, 722281, 722686, 723054, 723494, 723920, 724347, 724727, 725142, 725559, 725975, 726382]","[13, 100, 95, 134, 14, 94, 95, 96, 99, 68, 122, 64, 104, 59, 101, 50, 58, 91, 102, 42, 78, 9, 64, 21]","[716984, 717319, 717741, 718166, 718516, 718987, 719367, 719753, 720153, 720542, 720934, 721348, 721778, 722237, 722633, 723006, 723449, 723867, 724283, 724673, 725079, 725486, 725913, 726309]","[716948, 717348, 717748, 718148, 718548, 718948, 719348, 719748, 720171, 720559, 720952, 721367, 721796, 722255, 722651, 723023, 723466, 723885, 724300, 724691, 725095, 725502, 725929, 726326]",67,EM,L,R,ITMSR,1.1
0,600,trial,0,32,32,32,trial,"['S', 'S', 'S', 'S', 'S', 'S', 'S', 'S', 'C', 'C', 'C', 'C', 'C', 'C', 'C', 'C', 'C', 'C', 'C', 'C', 'C', 'C', 'C', 'C']","[732110, 732612, 733028, 733594, 734176, 734751, 735312, 735896, 736451, 737073, 737600, 738733, 739314, 739792, 740355, 740887, 741480, 742162, 742709, 743417, 743952, 744629, 745178, 745935]","[732188, 732684, 733118, 733676, 734266, 734808, 735386, 735976, 736531, 737136, 737645, 738800, 739385, 739872, 740428, 740959, 741560, 742305, 742729, 743437, 744029, 744731, 745228, 745974]","[184, 254, 113, 136, 158, 146, 159, 145, 128, 220, 203, 133, 168, 155, 137, 106, 141, 68, 105, 90, 32, 34, 146, 112]","[732114, 732617, 733031, 733596, 734178, 734753, 735314, 735898, 736453, 737075, 737602, 738735, 739316, 739794, 740358, 740889, 741483, 742165, 742711, 743420, 743954, 744632, 745180, 745938]","[731807, 732407, 733007, 733607, 734208, 734808, 735408, 736008, 736472, 737093, 737620, 738753, 739334, 739812, 740375, 740908, 741500, 742182, 742729, 743437, 743972, 744649, 745198, 745955]",67,EM,L,R,ITMSR,1.1
0,600,trial,0,33,33,33,trial,"['S', 'S', 'S', 'S', 'S', 'S', 'S', 'C', 'C', 'C', 'C', 'C', 'C', 'C', 'C', 'C', 'C', 'C', 'C', 'C', 'C', 'C', 'C']","[751943, 752539, 753200, 753776, 754505, 754939, 755609, 756224, 756792, 757331, 757896, 758462, 759037, 759592, 760192, 760758, 761281, 761836, 762383, 762888, 763463, 763981, 764484]","[752041, 752615, 753293, 753864, 754572, 755060, 755698, 756296, 756873, 757423, 757996, 758567, 759097, 759668, 760285, 760865, 761423, 761909, 762471, 762988, 763483, 764083, 764630]","[88, 102, 144, 142, 167, 168, 108, 155, 136, 133, 139, 171, 155, 152, 167, 164, 155, 130, 112, 138, 18, 121, 159]","[751945, 752541, 753202, 753779, 754505, 754940, 755611, 756226, 756794, 757334, 757898, 758464, 759040, 759593, 760194, 760760, 761283, 761838, 762385, 762890, 763465, 763984, 764486]","[751469, 752069, 752669, 753269, 753869, 754469, 755069, 755670, 756244, 756812, 757351, 757916, 758482, 759057, 759612, 760212, 760778, 761302, 761857, 762403, 762908, 763483, 764001, 764504]",67,EM,L,R,ITMSR,1.1
0,400,trial,0,34,34,34,trial,"['S', 'S', 'S', 'S', 'S', 'S', 'S', 'C', 'C', 'C', 'C', 'C', 'C', 'C', 'C', 'C', 'C', 'C', 'C', 'C', 'C', 'C', 'C']","[770276, 770747, 771082, 771487, 771907, 772310, 772741, 773114, 773573, 774012, 774477, 774922, 775378, 775833, 776299, 776721, 777174, 777611, 778056, 778528, 779005, 779444, 779894]","[770357, 770810, 771147, 771573, 771965, 772379, 772792, 773174, 773640, 774084, 774551, 775000, 775457, 775911, 776394, 776807, 777253, 777691, 778153, 778624, 779089, 779535, 780000]","[151, 131, 140, 143, 100, 142, 119, 145, 129, 158, 157, 165, 165, 150, 161, 167, 147, 154, 168, 169, 166, 156, 176]","[770279, 770749, 771084, 771489, 771909, 772312, 772743, 773116, 773575, 774014, 774478, 774923, 775380, 775834, 776301, 776723, 777176, 777613, 778057, 778530, 779008, 779446, 779896]","[769900, 770300, 770700, 771100, 771501, 771901, 772301, 772701, 773134, 773593, 774032, 774497, 774942, 775398, 775853, 776320, 776741, 777194, 777631, 778076, 778548, 779025, 779464, 779914]",67,EM,L,R,ITMSR,1.1
2,600,trial,0,35,35,35,trial,"['S', 'S', 'S', 'S', 'S', 'S', 'S', 'C', 'C', 'C', 'C', 'C', 'C', 'C', 'C', 'C', 'C', 'C', 'C', 'C', 'C', 'C', 'C']","[785924, 786725, 787402, 788025, 788598, 789190, 789850, 790490, 790982, 791547, 792145, 792757, 793365, 793978, 794584, 795188, 795787, 796328, 796938, 797499, 798086, 798679, 799254]","[785985, 786803, 787509, 788103, 788717, 789283, 789928, 790598, 791109, 791649, 792219, 792815, 793460, 794100, 794728, 795264, 795931, 796438, 797033, 797615, 798209, 798802, 799371]","[74, 150, 158, 123, 181, 174, 158, 148, 170, 168, 121, 131, 100, 135, 125, 74, 132, 76, 110, 113, 134, 128, 127]","[785925, 786727, 787404, 788027, 788600, 789192, 789852, 790492, 790983, 791549, 792148, 792759, 793367, 793980, 794585, 795190, 795788, 796332, 796940, 797500, 798088, 798681, 799256]","[785671, 786270, 786870, 787470, 788070, 788670, 789270, 789870, 790510, 791002, 791567, 792165, 792777, 793385, 793998, 794604, 795208, 795807, 796348, 796958, 797519, 798106, 798699, 799275]",67,EM,L,R,ITMSR,1.1
1,400,trial,0,36,36,36,trial,"['S', 'S', 'S', 'S', 'S', 'S', 'S', 'C', 'C', 'C', 'C', 'C', 'C', 'C', 'C', 'C', 'C', 'C', 'C', 'C', 'C', 'C', 'C']","[805229, 805588, 805946, 806388, 806818, 807250, 807600, 808040, 808507, 808966, 809312, 809807, 810257, 810702, 811168, 811622, 812078, 812460, 812899, 813346, 813782, 814215, 814657]","[805306, 805664, 806033, 806443, 806884, 807331, 807680, 808114, 808594, 809064, 809332, 809874, 810337, 810780, 811242, 811718, 812146, 812551, 812990, 813414, 813861, 814286, 814723]","[148, 156, 172, 159, 141, 143, 144, 159, 137, 159, 106, 134, 126, 169, 163, 147, 144, 163, 173, 161, 164, 133, 162]","[805231, 805591, 805947, 806390, 806818, 807251, 807602, 808041, 808509, 808967, 809313, 809809, 810259, 810704, 811170, 811623, 812080, 812461, 812900, 813348, 813784, 814217, 814659]","[804817, 805217, 805617, 806018, 806418, 806818, 807218, 807618, 808060, 808527, 808986, 809332, 809827, 810277, 810722, 811188, 811642, 812098, 812480, 812919, 813366, 813802, 814235, 814678]",67,EM,L,R,ITMSR,1.1
3,600,trial,0,37,37,37,trial,"['S', 'S', 'S', 'S', 'S', 'S', 'S', 'S', 'C', 'C', 'C', 'C', 'C', 'C', 'C', 'C', 'C', 'C', 'C', 'C', 'C', 'C', 'C', 'C']","[820467, 821036, 821395, 821901, 822517, 823115, 823723, 824325, 824887, 825481, 826124, 826745, 827287, 827992, 828636, 829180, 829776, 830283, 830881, 831483, 832040, 832602, 833124, 833715]","[820516, 821141, 821553, 822103, 822686, 823254, 823841, 824443, 824907, 825576, 826209, 826816, 827413, 828012, 828707, 829292, 829846, 830389, 830901, 831576, 832121, 832694, 833211, 833771]","[6, 85, 121, 132, 135, 108, 146, 149, 25, 78, 131, 124, 142, 44, 90, 119, 119, 102, 73, 149, 142, 136, 131, 132]","[820469, 821039, 821397, 821903, 822519, 823117, 823725, 824327, 824889, 825483, 826126, 826747, 827289, 827994, 828638, 829182, 829779, 830286, 830883, 831485, 832043, 832604, 833127, 833716]","[820154, 820754, 821354, 821954, 822554, 823154, 823754, 824354, 824907, 825501, 826144, 826765, 827308, 828012, 828656, 829200, 829796, 830303, 830901, 831503, 832060, 832622, 833144, 833735]",67,EM,L,R,ITMSR,1.1
1,600,trial,0,38,38,38,trial,"['S', 'S', 'S', 'S', 'S', 'S', 'S', 'C', 'C', 'C', 'C', 'C', 'C', 'C', 'C', 'C', 'C', 'C', 'C', 'C', 'C', 'C', 'C']","[839846, 840350, 840901, 841622, 842118, 842644, 843259, 843761, 844290, 844822, 845322, 846021, 846563, 847092, 847639, 848206, 848765, 849309, 849855, 850380, 850936, 851479, 852017]","[839877, 840391, 840991, 841677, 842195, 842746, 843338, 843851, 844385, 844919, 845392, 846047, 846622, 847153, 847705, 848274, 848836, 849409, 849929, 850441, 851005, 851500, 852037]","[68, 134, 163, 161, 149, 146, 127, 82, 87, 113, 105, 84, 167, 119, 134, 143, 103, 148, 150, 74, 107, 35, 161]","[839848, 840352, 840902, 841624, 842120, 842646, 843262, 843764, 844293, 844825, 845324, 846024, 846565, 847094, 847641, 848208, 848768, 849311, 849856, 850382, 850937, 851481, 852019]","[839198, 839798, 840398, 840998, 841598, 842199, 842798, 843398, 843781, 844310, 844843, 845342, 846041, 846583, 847112, 847660, 848226, 848785, 849329, 849875, 850400, 850956, 851500, 852037]",67,EM,L,R,ITMSR,1.1
4,400,trial,0,39,39,39,trial,"['S', 'S', 'S', 'S', 'S', 'S', 'C', 'C', 'C', 'C', 'C', 'C', 'C', 'C', 'C', 'C', 'C', 'C', 'C', 'C', 'C', 'C']","[858526, 858972, 859408, 859753, 860170, 860579, 860991, 861400, 861861, 862253, 862685, 863048, 863471, 863843, 864259, 864697, 865095, 865551, 865978, 866401, 866824, 867236]","[858605, 859052, 859497, 859855, 860296, 860725, 861149, 861478, 861968, 862363, 862766, 863143, 863564, 863958, 864351, 864776, 865206, 865634, 866064, 866493, 866916, 867320]","[67, 116, 120, 114, 152, 201, 142, 98, 141, 138, 133, 127, 103, 104, 122, 125, 109, 72, 86, 94, 85, 12]","[858528, 858974, 859410, 859755, 860171, 860580, 860992, 861402, 861865, 862257, 862687, 863049, 863474, 863845, 864261, 864700, 865097, 865553, 865980, 866404, 866826, 867237]","[857819, 858219, 858619, 859019, 859419, 859820, 860219, 860619, 861011, 861420, 861881, 862273, 862705, 863068, 863491, 863863, 864279, 864717, 865115, 865571, 865998, 866421, 866844, 867256]",67,EM,L,R,ITMSR,1.1
1,400,trial,0,40,40,40,trial,"['B', 'S', 'S', 'S', 'S', 'S', 'S', 'S', 'C', 'C', 'C', 'C', 'C', 'C', 'C', 'C', 'C', 'C', 'C', 'C', 'C', 'C', 'C', 'C']","[872596, 873091, 873394, 873740, 874147, 874547, 874998, 875368, 875826, 876221, 876589, 876935, 877424, 877899, 878294, 878733, 879193, 879512, 879997, 880465, 881051, 881518, 881973, 882433]","[872928, 873171, 873542, 873865, 874264, 874668, 875102, 875456, 875894, 876305, 876746, 877051, 877527, 877977, 878382, 878832, 879275, 879608, 880071, 880548, 881116, 881591, 882044, 882483]","[88, 54, 116, 89, 101, 82, 82, 160, 240, 224, 185, 247, 11, 136, 116, 193, 76, 80, 89, 245, 249, 180, 128, 205]","[872695, 873094, 873397, 873743, 874150, 874550, 875001, 875374, 875831, 876226, 876594, 876939, 877428, 877903, 878299, 878738, 879198, 879515, 880002, 880468, 881055, 881522, 881978, 882439]","[872608, 873008, 873408, 873808, 874208, 874608, 875009, 875408, 875846, 876241, 876609, 876955, 877444, 877919, 878314, 878753, 879213, 879533, 880017, 880485, 881071, 881538, 881993, 882453]",67,EM,L,R,ITMSR,1.1
2,400,trial,0,41,41,41,trial,"['S', 'S', 'S', 'S', 'S', 'S', 'C', 'C', 'C', 'C', 'C', 'C', 'C', 'C', 'C', 'C', 'C', 'C', 'C', 'C', 'C', 'C']","[888492, 888972, 889345, 890192, 890549, 890875, 891382, 891782, 892219, 892612, 893031, 893430, 893829, 894262, 894660, 895066, 895473, 895907, 896306, 896713, 897153, 897610]","[888551, 889057, 889452, 890252, 890648, 890962, 891436, 891862, 892279, 892684, 893094, 893498, 893897, 894350, 894747, 895158, 895580, 896032, 896400, 896794, 897209, 897698]","[115, 51, 66, 73, 83, 45, 101, 79, 49, 109, 112, 125, 117, 162, 153, 137, 155, 164, 128, 101, 103, 132]","[888497, 888975, 889349, 890195, 890551, 890878, 891385, 891785, 892222, 892615, 893034, 893432, 893832, 894264, 894662, 895069, 895475, 895909, 896308, 896716, 897156, 897613]","[888205, 888605, 889005, 889405, 889805, 890205, 890605, 891005, 891402, 891802, 892239, 892632, 893051, 893450, 893849, 894282, 894680, 895086, 895493, 895927, 896326, 896733, 897173, 897630]",67,EM,L,R,ITMSR,1.1
3,400,trial,0,42,42,42,trial,"['S', 'S', 'S', 'S', 'S', 'S', 'S', 'C', 'C', 'C', 'C', 'C', 'C', 'C', 'C', 'C', 'C', 'C', 'C', 'C', 'C', 'C', 'C']","[903559, 903896, 904385, 904803, 905273, 905649, 906018, 906424, 906798, 907233, 907671, 908025, 908347, 908759, 909186, 909691, 910249, 910735, 911196, 911645, 912113, 912587, 913096]","[903631, 904004, 904482, 904924, 905359, 905757, 906076, 906536, 906895, 907319, 907776, 908125, 908464, 908840, 909266, 909782, 910301, 910789, 911216, 911665, 912171, 912679, 913116]","[29, 81, 112, 134, 53, 102, 96, 115, 98, 85, 250, 219, 90, 240, 199, 200, 209, 52, 69, 232, 150, 92, 215]","[903563, 903899, 904387, 904805, 905276, 905652, 906021, 906426, 906803, 907236, 907675, 908029, 908410, 908763, 909240, 909696, 910253, 910738, 911198, 911648, 912118, 912590, 913100]","[903254, 903652, 904052, 904452, 904852, 905252, 905652, 906052, 906444, 906818, 907253, 907692, 908045, 908367, 908779, 909206, 909711, 910269, 910755, 911216, 911665, 912133, 912607, 913116]",67,EM,L,R,ITMSR,1.1
5,600,trial,0,43,43,43,trial,"['S', 'S', 'S', 'S', 'S', 'S', 'S', 'C', 'C', 'C', 'C', 'C', 'C', 'C', 'C', 'C', 'C', 'C', 'C', 'C', 'C', 'C', 'C']","[918816, 919638, 920189, 920840, 921355, 921907, 922444, 923116, 923661, 924247, 924771, 925345, 926029, 926536, 927065, 927896, 928808, 929917, 930670, 932329, 932835, 933373, 933888]","[918836, 919708, 920252, 920860, 921427, 921995, 922563, 923203, 923681, 924267, 924791, 925365, 926137, 926592, 927138, 927917, 928904, 929966, 930776, 932378, 932879, 933455, 933956]","[6, 87, 100, 252, 74, 50, 80, 242, 254, 188, 254, 249, 89, 60, 70, 85, 192, 204, 67, 42, 212, 14, 51]","[918820, 919641, 920193, 920843, 921357, 921909, 922446, 923119, 923664, 924250, 924773, 925347, 926032, 926539, 927068, 927902, 928813, 929923, 930675, 932335, 932839, 933377, 933891]","[918446, 919046, 919646, 920246, 920846, 921446, 922046, 922646, 923137, 923681, 924267, 924791, 925365, 926049, 926556, 927085, 927917, 928828, 929937, 930690, 932349, 932855, 933393, 933908]",67,EM,L,R,ITMSR,1.1
3,400,trial,0,44,44,44,trial,"['S', 'S', 'S', 'S', 'S', 'S', 'S', 'C', 'C', 'C', 'C', 'C', 'C', 'C', 'C', 'C', 'C', 'C', 'C', 'C', 'C', 'C', 'C']","[939888, 940272, 940752, 941245, 941568, 941965, 942464, 942774, 943150, 943598, 944013, 944368, 944836, 945221, 945661, 946061, 946467, 946823, 947245, 947665, 947979, 948377, 948927]","[939908, 940293, 940824, 941289, 941632, 941986, 942484, 942854, 943220, 943674, 944101, 944462, 944912, 945332, 945752, 946123, 946527, 946909, 947323, 947759, 948110, 948464, 949006]","[68, 75, 24, 197, 27, 161, 240, 62, 251, 108, 100, 28, 80, 10, 28, 19, 106, 233, 220, 239, 12, 7, 9]","[939892, 940276, 940755, 941248, 941571, 941968, 942467, 942778, 943154, 943601, 944016, 944371, 944838, 945224, 945665, 946064, 946472, 946826, 947250, 947670, 947982, 948384, 948930]","[939593, 939993, 940393, 940793, 941193, 941593, 941993, 942393, 942794, 943170, 943618, 944033, 944388, 944856, 945241, 945681, 946081, 946487, 946843, 947265, 947685, 947999, 948397, 948947]",67,EM,L,R,ITMSR,1.1
5,600,trial,0,45,45,45,trial,"['S', 'S', 'S', 'S', 'S', 'S', 'S', 'S', 'S', 'C', 'C', 'C', 'C', 'C', 'C', 'C', 'C', 'C', 'C', 'C', 'C', 'C', 'C', 'C', 'C']","[954739, 955043, 955476, 955814, 956274, 956932, 957436, 958006, 958785, 961221, 961818, 962328, 962755, 963235, 963690, 964242, 964758, 965277, 965762, 966217, 966699, 967198, 967733, 968245, 968754]","[954864, 955112, 955496, 955948, 956372, 956952, 957492, 958105, 958839, 961514, 961903, 962349, 962825, 963320, 963774, 964312, 964822, 965297, 965782, 966299, 966804, 967219, 967754, 968325, 968830]","[246, 31, 61, 206, 118, 149, 189, 213, 99, 183, 138, 13, 247, 163, 185, 145, 207, 153, 233, 21, 222, 114, 109, 134, 86]","[954814, 955048, 955481, 955817, 956279, 956936, 957442, 958010, 958789, 961269, 961823, 962333, 962760, 963240, 963693, 964246, 964761, 965281, 965764, 966221, 966703, 967202, 967737, 968248, 968759]","[954637, 955237, 955837, 956437, 957037, 957637, 958237, 958837, 961241, 961838, 962349, 962776, 963255, 963710, 964262, 964779, 965297, 965782, 966237, 966719, 967218, 967753, 968265, 968774]",67,EM,L,R,ITMSR,1.1
2,600,trial,0,46,46,46,trial,"['S', 'S', 'S', 'S', 'S', 'S', 'S', 'C', 'C', 'C', 'C', 'C', 'C', 'C', 'C', 'C', 'C', 'C', 'C', 'C', 'C', 'C', 'C']","[974982, 975338, 975946, 976431, 977095, 977799, 978541, 978936, 979481, 980029, 980509, 981015, 981471, 981990, 982479, 982891, 983406, 983938, 984321, 984857, 985382, 985867, 986614]","[975052, 975358, 975967, 976531, 977118, 977819, 978595, 979014, 979501, 980049, 980564, 981051, 981538, 982064, 982559, 982973, 983486, 984030, 984423, 984973, 985477, 985952, 986696]","[34, 48, 211, 234, 234, 149, 169, 227, 237, 205, 232, 87, 105, 88, 71, 4, 50, 48, 238, 123, 34, 181, 141]","[974987, 975342, 975949, 976434, 977099, 977803, 978546, 978939, 979484, 980034, 980512, 981018, 981474, 981994, 982482, 982895, 983409, 983941, 984324, 984862, 985385, 985871, 986620]","[974206, 974807, 975406, 976006, 976606, 977206, 977806, 978406, 978956, 979501, 980049, 980529, 981036, 981491, 982010, 982499, 982912, 983426, 983958, 984341, 984877, 985402, 985887, 986634]",67,EM,L,R,ITMSR,1.1
3,600,trial,0,47,47,47,trial,"['S', 'S', 'S', 'S', 'S', 'S', 'S', 'S', 'C', 'C', 'C', 'C', 'C', 'C', 'C', 'C', 'C', 'C', 'C', 'C', 'C', 'C', 'C', 'C']","[992148, 992544, 993084, 993711, 994396, 994950, 995532, 996117, 996722, 997357, 997932, 998505, 999129, 1000038, 1000678, 1001241, 1001879, 1002488, 1003005, 1003629, 1004221, 1004810, 1005429, 1006056]","[992201, 992629, 993176, 993769, 994446, 995047, 995590, 996188, 996783, 997415, 997993, 998564, 999149, 1000105, 1000743, 1001331, 1001929, 1002557, 1003073, 1003715, 1004335, 1004934, 1005527, 1006141]","[20, 242, 213, 121, 246, 226, 203, 84, 156, 131, 99, 225, 103, 241, 99, 64, 46, 231, 113, 83, 184, 188, 172, 228]","[992161, 992579, 993099, 993728, 994416, 994999, 995535, 996147, 996750, 997373, 997940, 998539, 999135, 1000083, 1000726, 1001282, 1001883, 1002504, 1003021, 1003645, 1004265, 1004882, 1005473, 1006097]","[991969, 992569, 993169, 993769, 994369, 994969, 995569, 996169, 996742, 997378, 997952, 998525, 999149, 1000058, 1000698, 1001261, 1001900, 1002508, 1003025, 1003650, 1004241, 1004830, 1005449, 1006076]",67,EM,L,R,ITMSR,1.1
4,600,trial,0,48,48,48,trial,"['S', 'S', 'S', 'S', 'S', 'S', 'C', 'C', 'C', 'C', 'C', 'C', 'C', 'C', 'C', 'C', 'C', 'C', 'C', 'C', 'C', 'C']","[1012155, 1012677, 1013255, 1013976, 1014664, 1015112, 1016263, 1016815, 1017338, 1017837, 1018402, 1018938, 1019404, 1020307, 1020831, 1021370, 1021885, 1022462, 1022965, 1023486, 1023975, 1024445]","[1012218, 1012697, 1013348, 1014050, 1014685, 1015197, 1016349, 1016895, 1017418, 1017916, 1018469, 1018984, 1019497, 1020385, 1020924, 1021462, 1021947, 1022559, 1023048, 1023551, 1024015, 1024507]","[3, 73, 205, 93, 111, 126, 139, 142, 61, 79, 23, 222, 233, 182, 112, 91, 197, 131, 199, 247, 89, 228]","[1012161, 1012682, 1013299, 1013982, 1014668, 1015152, 1016309, 1016818, 1017342, 1017843, 1018411, 1018945, 1019446, 1020349, 1020874, 1021412, 1021895, 1022502, 1023001, 1023501, 1023987, 1024462]","[1011603, 1012203, 1012803, 1013403, 1014003, 1014603, 1015203, 1015803, 1016283, 1016835, 1017358, 1017858, 1018422, 1018958, 1019424, 1020327, 1020851, 1021390, 1021905, 1022482, 1022985, 1023506, 1023995, 1024465]",67,EM,L,R,ITMSR,1.1
4,600,trial,0,49,49,49,trial,"['S', 'S', 'S', 'S', 'S', 'S', 'S', 'S', 'C', 'C', 'C', 'C', 'C', 'C', 'C', 'C', 'C', 'C', 'C', 'C', 'C', 'C', 'C', 'C']","[1029933, 1030396, 1030901, 1031589, 1032117, 1032729, 1033370, 1033976, 1034542, 1035159, 1035680, 1036227, 1036805, 1037321, 1037799, 1038313, 1038806, 1039312, 1039782, 1040292, 1040807, 1041312, 1041861, 1042383]","[1029972, 1030476, 1030972, 1031640, 1032188, 1032822, 1033438, 1034052, 1034617, 1035247, 1035770, 1036299, 1036887, 1037409, 1037902, 1038394, 1038908, 1039403, 1039859, 1040312, 1040851, 1041396, 1041923, 1042503]","[40, 68, 55, 48, 56, 64, 132, 127, 132, 131, 145, 115, 84, 95, 101, 115, 99, 82, 81, 49, 69, 124, 135, 99]","[1029935, 1030400, 1030904, 1031591, 1032119, 1032731, 1033372, 1033978, 1034545, 1035160, 1035682, 1036229, 1036808, 1037324, 1037802, 1038315, 1038808, 1039314, 1039785, 1040294, 1040811, 1041314, 1041863, 1042385]","[1029873, 1030473, 1031073, 1031673, 1032273, 1032873, 1033474, 1034074, 1034562, 1035180, 1035700, 1036248, 1036825, 1037341, 1037819, 1038333, 1038826, 1039332, 1039802, 1040312, 1040827, 1041332, 1041881, 1042403]",67,EM,L,R,ITMSR,1.1
0,400,trial,0,50,50,50,trial,"['S', 'S', 'S', 'S', 'S', 'S', 'C', 'C', 'C', 'C', 'C', 'C', 'C', 'C', 'C', 'C', 'C', 'C', 'C', 'C', 'C', 'C', 'C']","[1048560, 1048948, 1049323, 1049748, 1050170, 1050568, 1050928, 1051312, 1051693, 1052190, 1052624, 1053054, 1053417, 1053795, 1054266, 1054704, 1055150, 1055529, 1055932, 1056391, 1056726, 1056828, 1057211]","[1048580, 1048998, 1049406, 1049810, 1050238, 1050648, 1050984, 1051381, 1051777, 1052258, 1052694, 1053115, 1053521, 1053864, 1054339, 1054787, 1055228, 1055611, 1056055, 1056483, 1056746, 1056904, 1057278]","[235, 24, 91, 48, 63, 53, 146, 25, 12, 2, 63, 28, 44, 5, 50, 250, 51, 3, 93, 236, 216, 255, 167]","[1048561, 1048949, 1049325, 1049749, 1050172, 1050569, 1050932, 1051315, 1051696, 1052194, 1052627, 1053058, 1053419, 1053798, 1054269, 1054707, 1055152, 1055533, 1056006, 1056394, 1056729, 1056876, 1057213]","[1047748, 1048148, 1048548, 1048948, 1049348, 1049748, 1050148, 1050548, 1050948, 1051332, 1051713, 1052210, 1052644, 1053074, 1053437, 1053815, 1054286, 1054724, 1055170, 1055549, 1055952, 1056411, 1056746, 1057231]",67,EM,L,R,ITMSR,1.1
5,400,trial,0,51,51,51,trial,"['S', 'S', 'S', 'S', 'S', 'S', 'S', 'C', 'C', 'C', 'C', 'C', 'C', 'C', 'C', 'C', 'C', 'C', 'C', 'C', 'C', 'C', 'C']","[1063066, 1063488, 1063905, 1064297, 1064705, 1065098, 1065507, 1065922, 1066308, 1066707, 1067104, 1067495, 1067819, 1068247, 1068763, 1069184, 1069607, 1069949, 1070234, 1070723, 1071140, 1071567, 1071976]","[1063153, 1063553, 1063975, 1064360, 1064772, 1065161, 1065576, 1065943, 1066384, 1066763, 1067175, 1067553, 1067839, 1068281, 1068823, 1069222, 1069627, 1070029, 1070254, 1070780, 1071219, 1071640, 1072010]","[86, 86, 95, 119, 125, 101, 116, 51, 113, 134, 132, 104, 73, 91, 59, 63, 61, 135, 16, 105, 55, 101, 137]","[1063069, 1063490, 1063907, 1064299, 1064707, 1065100, 1065509, 1065926, 1066310, 1066710, 1067106, 1067497, 1067823, 1068249, 1068766, 1069187, 1069609, 1069952, 1070237, 1070726, 1071143, 1071569, 1071979]","[1062725, 1063126, 1063525, 1063925, 1064325, 1064725, 1065125, 1065525, 1065943, 1066328, 1066727, 1067124, 1067515, 1067839, 1068267, 1068783, 1069204, 1069627, 1069969, 1070254, 1070743, 1071160, 1071587, 1071996]",67,EM,L,R,ITMSR,1.1
2,400,trial,0,52,52,52,trial,"['S', 'S', 'S', 'S', 'S', 'S', 'C', 'C', 'C', 'C', 'C', 'C', 'C', 'C', 'C', 'C', 'C', 'C', 'C', 'C', 'C', 'C']","[1077668, 1078095, 1078455, 1079345, 1079685, 1080073, 1080508, 1080931, 1081358, 1081749, 1082130, 1082533, 1082938, 1083881, 1084321, 1084744, 1085095, 1085487, 1085836, 1086223, 1095379, 1095838]","[1077743, 1078184, 1078543, 1079421, 1079775, 1080165, 1080601, 1081010, 1081440, 1081849, 1082218, 1082617, 1082958, 1083942, 1084366, 1084783, 1085162, 1085554, 1085856, 1086267, 1095455, 1095900]","[112, 42, 26, 213, 170, 180, 58, 108, 79, 85, 100, 220, 169, 219, 207, 196, 94, 69, 52, 78, 174, 228]","[1077710, 1078098, 1078458, 1079347, 1079719, 1080075, 1080510, 1080933, 1081360, 1081751, 1082132, 1082536, 1082939, 1083884, 1084324, 1084747, 1085099, 1085490, 1085838, 1086224, 1095428, 1095841]","[1077328, 1077728, 1078128, 1078529, 1078928, 1079328, 1079728, 1080128, 1080528, 1080951, 1081378, 1081769, 1082150, 1082553, 1082958, 1083901, 1084341, 1084764, 1085115, 1085507, 1085856, 1086243, 1095399, 1095858]",67,EM,L,R,ITMSR,1.1
1,600,trial,0,53,53,53,trial,"['S', 'S', 'S', 'S', 'S', 'S', 'S', 'S', 'C', 'C', 'C', 'C', 'C', 'C', 'C', 'C', 'C', 'C', 'C', 'C', 'C', 'C', 'C', 'C']","[1101707, 1102179, 1102512, 1103054, 1103646, 1104252, 1104806, 1105418, 1106044, 1106521, 1107038, 1107536, 1108065, 1108545, 1108977, 1109459, 1109995, 1110455, 1110962, 1111375, 1111847, 1112326, 1112800, 1113265]","[1101727, 1102282, 1102532, 1103127, 1103741, 1104318, 1104847, 1105492, 1106064, 1106567, 1107131, 1107646, 1108154, 1108675, 1109095, 1109550, 1110016, 1110534, 1111041, 1111490, 1111953, 1112432, 1112875, 1113382]","[219, 35, 135, 110, 110, 89, 69, 131, 94, 101, 131, 105, 135, 107, 68, 248, 141, 6, 162, 42, 72, 67, 80, 70]","[1101709, 1102181, 1102514, 1103056, 1103647, 1104257, 1104809, 1105420, 1106048, 1106523, 1107039, 1107538, 1108068, 1108546, 1108980, 1109460, 1109996, 1110457, 1110963, 1111376, 1111849, 1112328, 1112802, 1113267]","[1101376, 1101976, 1102576, 1103176, 1103776, 1104376, 1104976, 1105576, 1106064, 1106541, 1107058, 1107556, 1108085, 1108566, 1108997, 1109479, 1110016, 1110475, 1110982, 1111395, 1111867, 1112346, 1112820, 1113285]",67,EM,L,R,ITMSR,1.1
4,400,trial,0,54,54,54,trial,"['S', 'S', 'S', 'S', 'S', 'S', 'S', 'C', 'C', 'C', 'C', 'C', 'C', 'C', 'C', 'C', 'C', 'C', 'C', 'C', 'C', 'C', 'C']","[1202001, 1202512, 1202972, 1203390, 1203725, 1204180, 1204550, 1204923, 1205336, 1205761, 1206210, 1206640, 1207102, 1207528, 1207947, 1208358, 1208769, 1209165, 1209613, 1210023, 1210454, 1210861, 1211298]","[1202082, 1202575, 1203035, 1203452, 1203824, 1204250, 1204630, 1205002, 1205389, 1205807, 1206262, 1206696, 1207146, 1207590, 1208012, 1208420, 1208865, 1209252, 1209672, 1210073, 1210510, 1210936, 1211358]","[88, 140, 161, 153, 159, 166, 153, 125, 126, 135, 149, 163, 157, 143, 164, 141, 152, 177, 165, 170, 169, 152, 153]","[1202007, 1202515, 1202974, 1203392, 1203727, 1204183, 1204553, 1204926, 1205338, 1205763, 1206211, 1206642, 1207104, 1207530, 1207949, 1208360, 1208771, 1209167, 1209615, 1210024, 1210455, 1210863, 1211300]","[1201753, 1202153, 1202553, 1202953, 1203353, 1203753, 1204153, 1204553, 1204943, 1205356, 1205781, 1206231, 1206660, 1207122, 1207548, 1207967, 1208378, 1208790, 1209185, 1209633, 1210043, 1210474, 1210882, 1211318]",67,EM,L,R,ITMSR,1.1
3,600,trial,0,55,55,55,trial,"['S', 'S', 'S', 'S', 'S', 'S', 'S', 'S', 'C', 'C', 'C', 'C', 'C', 'C', 'C', 'C', 'C', 'C', 'C', 'C', 'C', 'C', 'C', 'C']","[1217339, 1217902, 1218314, 1218831, 1219437, 1220065, 1220682, 1221287, 1221850, 1222456, 1223028, 1223601, 1224208, 1224775, 1225361, 1225946, 1226527, 1227125, 1227745, 1228307, 1228888, 1229485, 1230061, 1230647]","[1217390, 1217964, 1218385, 1218907, 1219517, 1220096, 1220752, 1221358, 1221920, 1222531, 1223106, 1223675, 1224300, 1224865, 1225468, 1226038, 1226621, 1227183, 1227815, 1228398, 1228998, 1229607, 1230163, 1230747]","[72, 122, 153, 137, 106, 72, 146, 94, 141, 120, 129, 141, 116, 117, 107, 95, 127, 80, 149, 149, 122, 131, 114, 113]","[1217342, 1217904, 1218316, 1218833, 1219439, 1220068, 1220683, 1221288, 1221852, 1222458, 1223030, 1223603, 1224210, 1224776, 1225364, 1225949, 1226528, 1227127, 1227748, 1228309, 1228890, 1229487, 1230063, 1230649]","[1217075, 1217675, 1218275, 1218875, 1219475, 1220075, 1220675, 1221275, 1221870, 1222476, 1223048, 1223621, 1224228, 1224795, 1225381, 1225966, 1226547, 1227145, 1227765, 1228327, 1228908, 1229505, 1230082, 1230667]",67,EM,L,R,ITMSR,1.1
1,400,trial,0,56,56,56,trial,"['S', 'S', 'S', 'S', 'S', 'S', 'S', 'S', 'C', 'C', 'C', 'C', 'C', 'C', 'C', 'C', 'C', 'C', 'C', 'C', 'C', 'C', 'C', 'C']","[1236220, 1236534, 1236834, 1237193, 1237585, 1237993, 1238418, 1238801, 1239265, 1239660, 1240093, 1240511, 1240953, 1241366, 1241788, 1242212, 1242639, 1243101, 1243504, 1243952, 1244349, 1244851, 1245313, 1245771]","[1236289, 1236598, 1236904, 1237260, 1237677, 1238084, 1238496, 1238886, 1239340, 1239760, 1240163, 1240580, 1241030, 1241451, 1241857, 1242276, 1242711, 1243121, 1243588, 1243972, 1244432, 1244891, 1245391, 1245830]","[84, 119, 155, 156, 154, 151, 153, 129, 130, 134, 147, 129, 105, 117, 92, 113, 102, 98, 115, 109, 118, 121, 132, 104]","[1236224, 1236537, 1236836, 1237195, 1237587, 1237995, 1238418, 1238803, 1239267, 1239662, 1240095, 1240513, 1240956, 1241369, 1241790, 1242214, 1242642, 1243104, 1243506, 1243954, 1244352, 1244853, 1245316, 1245774]","[1236006, 1236406, 1236806, 1237207, 1237606, 1238006, 1238406, 1238806, 1239285, 1239681, 1240113, 1240531, 1240973, 1241387, 1241808, 1242232, 1242659, 1243121, 1243524, 1243972, 1244369, 1244871, 1245333, 1245791]",67,EM,L,R,ITMSR,1.1
0,400,trial,0,57,57,57,trial,"['S', 'S', 'S', 'S', 'S', 'S', 'S', 'C', 'C', 'C', 'C', 'C', 'C', 'C', 'C', 'C', 'C', 'C', 'C', 'C', 'C', 'C', 'C']","[1251775, 1252165, 1252590, 1253052, 1253441, 1253833, 1254211, 1254670, 1255126, 1255533, 1255999, 1256426, 1256839, 1257240, 1257668, 1258047, 1258460, 1258835, 1259251, 1259673, 1260046, 1260476, 1260871]","[1251795, 1252237, 1252662, 1253129, 1253535, 1253918, 1254306, 1254757, 1255196, 1255612, 1256070, 1256494, 1256906, 1257309, 1257723, 1258113, 1258529, 1258915, 1259328, 1259748, 1260142, 1260545, 1260962]","[132, 57, 104, 93, 143, 80, 143, 117, 88, 130, 114, 117, 72, 128, 111, 90, 111, 159, 167, 147, 159, 139, 138]","[1251779, 1252168, 1252592, 1253055, 1253443, 1253835, 1254213, 1254672, 1255129, 1255536, 1256001, 1256428, 1256842, 1257242, 1257671, 1258050, 1258463, 1258839, 1259253, 1259676, 1260048, 1260478, 1260873]","[1251447, 1251847, 1252247, 1252647, 1253047, 1253447, 1253848, 1254248, 1254690, 1255146, 1255554, 1256019, 1256446, 1256859, 1257261, 1257688, 1258067, 1258480, 1258855, 1259271, 1259693, 1260066, 1260496, 1260891]",67,EM,L,R,ITMSR,1.1
2,600,trial,0,58,58,58,trial,"['S', 'S', 'S', 'S', 'S', 'S', 'S', 'S', 'C', 'C', 'C', 'C', 'C', 'C', 'C', 'C', 'C', 'C', 'C', 'C', 'C', 'C', 'C', 'C']","[1266769, 1267287, 1267637, 1268149, 1268777, 1269410, 1270005, 1270659, 1271238, 1271839, 1272451, 1273065, 1273615, 1274202, 1274779, 1275404, 1275947, 1276485, 1277032, 1277552, 1278151, 1278698, 1279224, 1279721]","[1266852, 1267337, 1267714, 1268236, 1268824, 1269487, 1270091, 1270724, 1271340, 1271941, 1272542, 1273150, 1273635, 1274222, 1274799, 1275454, 1276036, 1276515, 1277092, 1277612, 1278236, 1278783, 1279310, 1279820]","[139, 103, 124, 93, 110, 106, 128, 66, 83, 30, 47, 12, 246, 128, 216, 183, 255, 5, 51, 86, 69, 109, 36, 66]","[1266771, 1267290, 1267639, 1268152, 1268780, 1269412, 1270008, 1270662, 1271241, 1271842, 1272454, 1273067, 1273618, 1274207, 1274784, 1275412, 1275949, 1276487, 1277034, 1277555, 1278154, 1278701, 1279226, 1279723]","[1266476, 1267075, 1267675, 1268275, 1268875, 1269475, 1270075, 1270675, 1271258, 1271859, 1272471, 1273085, 1273635, 1274222, 1274799, 1275424, 1275967, 1276505, 1277052, 1277572, 1278171, 1278718, 1279244, 1279741]",67,EM,L,R,ITMSR,1.1
2,400,trial,0,59,59,59,trial,"['S', 'S', 'S', 'S', 'S', 'S', 'C', 'C', 'C', 'C', 'C', 'C', 'C', 'C', 'C', 'C', 'C', 'C', 'C', 'C', 'C', 'C']","[1286049, 1286448, 1286925, 1287312, 1287731, 1288068, 1288523, 1288815, 1289180, 1289513, 1290543, 1290988, 1292780, 1293252, 1293722, 1294142, 1294612, 1295036, 1295479, 1295912, 1296363, 1296803]","[1286126, 1286554, 1286945, 1287388, 1287808, 1288152, 1288543, 1288964, 1289200, 1289533, 1290624, 1291041, 1292801, 1293272, 1293782, 1294162, 1294675, 1295056, 1295567, 1295991, 1296424, 1296878]","[252, 66, 133, 236, 5, 190, 189, 31, 38, 242, 224, 2, 111, 190, 26, 151, 40, 139, 80, 24, 190, 71]","[1286052, 1286451, 1286928, 1287315, 1287733, 1288071, 1288527, 1288819, 1289185, 1289517, 1290590, 1290993, 1292782, 1293255, 1293725, 1294145, 1294615, 1295038, 1295481, 1295916, 1296365, 1296806]","[1285336, 1285736, 1286136, 1286536, 1286936, 1287336, 1287736, 1288136, 1288543, 1288835, 1289200, 1289533, 1290563, 1291009, 1292801, 1293272, 1293742, 1294162, 1294632, 1295056, 1295499, 1295932, 1296384, 1296823]",67,EM,L,R,ITMSR,1.1
4,600,trial,0,60,60,60,trial,"['S', 'S', 'S', 'S', 'S', 'S', 'S', 'S', 'C', 'C', 'C', 'C', 'C', 'C', 'C', 'C', 'C', 'C', 'C', 'C', 'C', 'C', 'C', 'C']","[1302991, 1303366, 1303779, 1304269, 1304755, 1305408, 1305918, 1306471, 1307192, 1307718, 1308271, 1308741, 1309587, 1310155, 1310597, 1311060, 1311469, 1312300, 1312783, 1313137, 1313586, 1314019, 1314526, 1314952]","[1303090, 1303463, 1303860, 1304356, 1304860, 1305485, 1306023, 1306588, 1307309, 1307814, 1308385, 1308860, 1309679, 1310236, 1310667, 1311142, 1311560, 1312407, 1312899, 1313260, 1313686, 1314159, 1314668, 1315063]","[12, 69, 95, 86, 170, 102, 229, 56, 255, 19, 235, 55, 222, 182, 13, 11, 205, 37, 33, 25, 185, 5, 230, 151]","[1302995, 1303370, 1303783, 1304272, 1304759, 1305411, 1305922, 1306475, 1307196, 1307722, 1308273, 1308745, 1309591, 1310160, 1310600, 1311064, 1311472, 1312304, 1312786, 1313141, 1313591, 1314023, 1314531, 1314957]","[1302548, 1303147, 1303747, 1304347, 1304947, 1305547, 1306147, 1306747, 1307212, 1307738, 1308291, 1308761, 1309607, 1310175, 1310617, 1311080, 1311490, 1312320, 1312803, 1313157, 1313606, 1314039, 1314546, 1314972]",67,EM,L,R,ITMSR,1.1
5,600,trial,0,61,61,61,trial,"['S', 'S', 'S', 'S', 'S', 'S', 'S', 'S', 'C', 'C', 'C', 'C', 'C', 'C', 'C', 'C', 'C', 'C', 'C', 'C', 'C', 'C', 'C', 'C']","[1321131, 1321801, 1322348, 1322983, 1323427, 1323972, 1324441, 1324841, 1325407, 1325959, 1326462, 1327069, 1327583, 1327931, 1328419, 1328893, 1329389, 1329786, 1330292, 1330849, 1331307, 1331907, 1332376, 1333126]","[1321151, 1321869, 1322440, 1323083, 1323534, 1324065, 1324530, 1324938, 1325494, 1326062, 1326547, 1327150, 1327674, 1328025, 1328491, 1328977, 1329466, 1329867, 1330328, 1330896, 1331376, 1331940, 1332444, 1333180]","[74, 16, 7, 54, 70, 79, 109, 69, 62, 82, 100, 58, 32, 96, 46, 65, 74, 20, 195, 215, 80, 189, 63, 191]","[1321136, 1321804, 1322352, 1322986, 1323429, 1323975, 1324442, 1324844, 1325410, 1325962, 1326466, 1327072, 1327585, 1327934, 1328423, 1328898, 1329392, 1329790, 1330293, 1330851, 1331309, 1331909, 1332378, 1333129]","[1320759, 1321359, 1321959, 1322559, 1323159, 1323759, 1324359, 1324959, 1325427, 1325979, 1326482, 1327089, 1327603, 1327951, 1328439, 1328913, 1329410, 1329806, 1330312, 1330869, 1331328, 1331928, 1332397, 1333146]",67,EM,L,R,ITMSR,1.1
1,600,trial,0,62,62,62,trial,"['S', 'S', 'S', 'S', 'S', 'S', 'C', 'C', 'C', 'C', 'C', 'C', 'C', 'C', 'C', 'C', 'C', 'C', 'C', 'C', 'C', 'C']","[1339191, 1339654, 1340960, 1341689, 1342345, 1342901, 1343540, 1344015, 1344609, 1345160, 1345658, 1346192, 1346736, 1347210, 1347806, 1348348, 1348860, 1349316, 1349882, 1350405, 1350924, 1351395]","[1339270, 1339674, 1341023, 1341709, 1342412, 1342965, 1343619, 1344100, 1344679, 1345247, 1345683, 1346307, 1346827, 1347317, 1347876, 1348441, 1348930, 1349429, 1349951, 1350496, 1351030, 1351548]","[246, 93, 106, 60, 34, 19, 56, 192, 204, 207, 144, 182, 161, 203, 120, 172, 219, 230, 5, 223, 8, 78]","[1339194, 1339657, 1340966, 1341692, 1342348, 1342904, 1343542, 1344016, 1344611, 1345162, 1345660, 1346194, 1346739, 1347212, 1347811, 1348353, 1348865, 1349319, 1349885, 1350408, 1350927, 1351398]","[1338760, 1339360, 1339960, 1340560, 1341160, 1341760, 1342360, 1342960, 1343560, 1344035, 1344629, 1345180, 1345678, 1346212, 1346756, 1347230, 1347826, 1348368, 1348880, 1349336, 1349902, 1350425, 1350944, 1351415]",67,EM,L,R,ITMSR,1.1
3,400,trial,0,63,63,63,trial,"['S', 'S', 'S', 'S', 'S', 'S', 'S', 'S', 'C', 'C', 'C', 'C', 'C', 'C', 'C', 'C', 'C', 'C', 'C', 'C', 'C', 'C', 'C', 'C']","[1357165, 1357528, 1357880, 1358246, 1358575, 1358940, 1359395, 1359776, 1360156, 1360568, 1360962, 1361316, 1361765, 1362197, 1362588, 1362988, 1363396, 1363822, 1364205, 1364588, 1365001, 1365313, 1365764, 1366177]","[1357244, 1357608, 1357974, 1358314, 1358673, 1359028, 1359468, 1359856, 1360261, 1360653, 1361060, 1361415, 1361839, 1362276, 1362686, 1363068, 1363497, 1363885, 1364307, 1364683, 1365107, 1365408, 1365857, 1366316]","[70, 133, 157, 104, 143, 150, 135, 123, 143, 126, 119, 156, 95, 35, 107, 132, 112, 17, 73, 88, 68, 224, 200, 252]","[1357168, 1357530, 1357881, 1358248, 1358577, 1358942, 1359397, 1359778, 1360159, 1360570, 1360965, 1361318, 1361768, 1362199, 1362591, 1362990, 1363399, 1363825, 1364207, 1364591, 1365004, 1365318, 1365768, 1366250]","[1356985, 1357385, 1357785, 1358185, 1358585, 1358985, 1359385, 1359785, 1360176, 1360588, 1360983, 1361336, 1361785, 1362217, 1362608, 1363008, 1363416, 1363842, 1364226, 1364609, 1365021, 1365334, 1365784, 1366197]",67,EM,L,R,ITMSR,1.1
5,600,trial,0,64,64,64,trial,"['S', 'S', 'S', 'S', 'S', 'S', 'S', 'S', 'C', 'C', 'C', 'C', 'C', 'C', 'C', 'C', 'C', 'C', 'C', 'C', 'C', 'C', 'C', 'C', 'C']","[1371897, 1372223, 1372708, 1373255, 1373843, 1374353, 1374999, 1375848, 1376334, 1376834, 1377410, 1377907, 1378418, 1379026, 1379516, 1380084, 1380601, 1381164, 1381668, 1382104, 1382635, 1382967, 1383108, 1383544, 1383975]","[1372000, 1372340, 1372843, 1373377, 1373980, 1374511, 1375131, 1375989, 1376486, 1376931, 1377460, 1377927, 1378438, 1379046, 1379536, 1380143, 1380663, 1381184, 1381741, 1382219, 1382728, 1382987, 1383179, 1383564, 1384005]","[18, 28, 97, 67, 77, 26, 180, 72, 58, 246, 92, 237, 139, 218, 45, 15, 11, 247, 131, 145, 165, 176, 140, 108, 12]","[1371900, 1372227, 1372711, 1373258, 1373846, 1374357, 1375003, 1375855, 1376340, 1376839, 1377431, 1377911, 1378422, 1379031, 1379520, 1380087, 1380604, 1381168, 1381672, 1382109, 1382641, 1382968, 1383154, 1383550, 1383979]","[1371626, 1372226, 1372826, 1373426, 1374026, 1374626, 1375226, 1375826, 1376354, 1376855, 1377430, 1377927, 1378438, 1379046, 1379536, 1380104, 1380621, 1381184, 1381688, 1382124, 1382656, 1382987, 1383564, 1383995]",67,EM,L,R,ITMSR,1.1
2,400,trial,0,65,65,65,trial,"['S', 'S', 'S', 'S', 'S', 'S', 'S', 'S', 'C', 'C', 'C', 'C', 'C', 'C', 'C', 'C', 'C', 'C', 'C', 'C', 'C', 'C', 'C', 'C', 'C']","[1389685, 1390064, 1390368, 1390730, 1391043, 1391143, 1391332, 1392119, 1394751, 1395219, 1395672, 1396039, 1396487, 1396901, 1397450, 1397827, 1401284, 1401385, 1403261, 1403727, 1404134, 1404601, 1405022, 1405518, 1406199]","[1389848, 1390120, 1390388, 1390750, 1391063, 1391163, 1391352, 1394671, 1395008, 1395239, 1395692, 1396059, 1396507, 1396921, 1397470, 1397848, 1401304, 1402843, 1403410, 1403747, 1404154, 1404621, 1405042, 1405538, 1406348]","[117, 113, 253, 5, 155, 102, 164, 223, 225, 26, 166, 167, 95, 48, 199, 45, 7, 49, 42, 103, 248, 238, 12, 37, 61]","[1389809, 1390069, 1390373, 1390735, 1391048, 1391143, 1391338, 1394575, 1394963, 1395223, 1395676, 1396043, 1396492, 1396905, 1397454, 1397831, 1401287, 1401492, 1403299, 1403731, 1404137, 1404605, 1405025, 1405523, 1406324]","[1389457, 1389857, 1390257, 1390657, 1391057, 1391457, 1391857, 1392258, 1394771, 1395239, 1395692, 1396059, 1396507, 1396921, 1397470, 1397848, 1401304, 1403281, 1403747, 1404154, 1404621, 1405042, 1405538, 1406219]",67,EM,L,R,ITMSR,1.1
3,400,trial,0,66,66,66,trial,"['S', 'S', 'S', 'S', 'S', 'S', 'S', 'S', 'C', 'C', 'C', 'C', 'C', 'C', 'C', 'C', 'C', 'C', 'C', 'C', 'C', 'C', 'C', 'C']","[1412195, 1412462, 1412847, 1413230, 1413598, 1413859, 1414111, 1414543, 1417543, 1431075, 1431512, 1431924, 1432337, 1432759, 1433244, 1433672, 1434133, 1434525, 1434966, 1435396, 1435835, 1438330, 1438779, 1439248]","[1412215, 1412576, 1412955, 1413340, 1413662, 1413929, 1414218, 1417454, 1430475, 1431095, 1431532, 1431944, 1432357, 1432779, 1433266, 1433750, 1434194, 1434545, 1434986, 1435416, 1435855, 1438350, 1438855, 1439268]","[46, 120, 198, 182, 53, 59, 105, 138, 143, 248, 210, 182, 237, 112, 48, 76, 13, 223, 244, 4, 115, 101, 221, 249]","[1412200, 1412467, 1412851, 1413236, 1413619, 1413896, 1414180, 1417331, 1422740, 1431077, 1431516, 1431928, 1432341, 1432763, 1433246, 1433674, 1434136, 1434528, 1434969, 1435398, 1435839, 1438336, 1438783, 1439252]","[1411731, 1412131, 1412531, 1412931, 1413331, 1413731, 1414131, 1414531, 1417563, 1431095, 1431532, 1431944, 1432357, 1432779, 1433264, 1433692, 1434153, 1434545, 1434986, 1435416, 1435855, 1438350, 1438799, 1439268]",67,EM,L,R,ITMSR,1.1
3,600,trial,0,67,67,67,trial,"['B', 'S', 'S', 'S', 'S', 'S', 'C', 'C', 'C', 'C', 'C', 'C', 'C', 'C', 'C', 'C', 'C', 'C', 'C', 'C', 'C', 'C', 'C', 'C']","[1444707, 1445547, 1445863, 1446178, 1446484, 1447838, 1455028, 1455475, 1455901, 1456318, 1456716, 1457079, 1457179, 1457509, 1458271, 1459205, 1459653, 1459755, 1460233, 1460511, 1461472, 1463749, 1470026, 1470478]","[1445262, 1445567, 1445883, 1446198, 1446504, 1454576, 1455048, 1455495, 1455921, 1456338, 1456736, 1457099, 1457199, 1457529, 1458291, 1459225, 1459673, 1459988, 1460302, 1461275, 1461708, 1463917, 1470046, 1470503]","[52, 129, 234, 185, 29, 54, 127, 218, 30, 109, 236, 185, 76, 52, 147, 78, 157, 103, 39, 102, 32, 8, 98, 193]","[1444813, 1445550, 1445868, 1446182, 1446486, 1454415, 1455032, 1455478, 1455903, 1456322, 1456721, 1457083, 1457179, 1457513, 1458276, 1459209, 1459657, 1459758, 1460270, 1460896, 1461512, 1463839, 1470029, 1470481]","[1444719, 1445319, 1445919, 1446519, 1447119, 1447719, 1448320, 1448920, 1455048, 1455495, 1455921, 1456338, 1456736, 1457099, 1457529, 1458291, 1459225, 1459673, 1460253, 1460531, 1461492, 1463769, 1470046, 1470498]",67,EM,L,R,ITMSR,1.1
4,400,trial,0,68,68,68,trial,"['B', 'S', 'S', 'S', 'S', 'S', 'S', 'C', 'C', 'C', 'C', 'C', 'C', 'C', 'C', 'C', 'C', 'C', 'C', 'C', 'C', 'C', 'C', 'C']","[1475922, 1476407, 1476802, 1477150, 1477541, 1478464, 1478724, 1480027, 1481060, 1481574, 1482008, 1482408, 1483590, 1484477, 1485342, 1486100, 1486220, 1487215, 1488671, 1490743, 1491683, 1492256, 1493491, 1494403]","[1476129, 1476540, 1476822, 1477170, 1477561, 1478575, 1479914, 1480075, 1481080, 1481594, 1482029, 1482428, 1483868, 1484497, 1485362, 1486131, 1486428, 1487262, 1490654, 1490938, 1491703, 1492276, 1494023, 1494423]","[47, 44, 41, 219, 52, 39, 97, 28, 80, 215, 116, 248, 54, 68, 240, 25, 39, 30, 45, 44, 249, 110, 144, 45]","[1475935, 1476480, 1476805, 1477154, 1477543, 1478545, 1478800, 1480048, 1481063, 1481578, 1482011, 1482411, 1483813, 1484480, 1485344, 1486115, 1486356, 1487245, 1490061, 1490896, 1491687, 1492260, 1493985, 1494407]","[1475934, 1476334, 1476734, 1477134, 1477534, 1477934, 1478334, 1478734, 1480047, 1481080, 1481594, 1482029, 1482428, 1483610, 1484497, 1485362, 1486120, 1487235, 1488691, 1490763, 1491703, 1492276, 1493511, 1494423]",67,EM,L,R,ITMSR,1.1
0,400,trial,0,69,69,69,trial,"['B', 'S', 'S', 'S', 'S', 'S', 'C', 'C', 'C', 'C', 'C', 'C', 'C', 'C', 'C', 'C', 'C', 'C', 'C', 'C', 'C', 'C', 'C', 'C']","[1499845, 1501003, 1501408, 1501851, 1502315, 1502718, 1503385, 1503775, 1504562, 1505071, 1505215, 1508806, 1509226, 1509682, 1510044, 1510474, 1510708, 1510936, 1511297, 1511873, 1531295, 1531801, 1532164, 1534722]","[1500344, 1501023, 1501428, 1501871, 1502337, 1502738, 1503405, 1503882, 1504582, 1505135, 1508112, 1508826, 1509294, 1509702, 1510064, 1510494, 1510728, 1510957, 1511317, 1530761, 1531315, 1531821, 1532184, 1534742]","[59, 133, 136, 145, 29, 238, 45, 208, 28, 38, 102, 88, 62, 230, 170, 201, 44, 110, 248, 136, 53, 79, 34, 41]","[1499976, 1501007, 1501410, 1501855, 1502319, 1502722, 1503387, 1503780, 1504572, 1505071, 1505875, 1508810, 1509228, 1509687, 1510048, 1510478, 1510709, 1510941, 1511301, 1517045, 1531298, 1531804, 1532168, 1534726]","[1499856, 1500255, 1500655, 1501056, 1501455, 1501855, 1502255, 1502655, 1503405, 1503795, 1504582, 1505091, 1508826, 1509246, 1509702, 1510064, 1510494, 1510957, 1511317, 1511894, 1531315, 1531821, 1532184, 1534742]",67,EM,L,R,ITMSR,1.1
1,400,trial,0,70,70,70,trial,"['B', 'C', 'C', 'C', 'C', 'C', 'C', 'C', 'C', 'C', 'C', 'C', 'C', 'C', 'C', 'C', 'C', 'C', 'C']","[1540429, 1548187, 1548720, 1551841, 1552107, 1554791, 1563758, 1564204, 1564696, 1567044, 1567714, 1595476, 1596919, 1597477, 1599630, 1600918, 1601225, 1601500, 1601626]","[1548107, 1548640, 1551358, 1551861, 1554341, 1563133, 1563852, 1564224, 1564717, 1567634, 1568156, 1596292, 1596939, 1597497, 1599650, 1601145, 1601420, 1601546, 1601716]","[108, 59, 2, 3, 176, 108, 46, 202, 217, 16, 12, 104, 183, 248, 112, 5, 4, 4, 4]","[1546804, 1548536, 1548720, 1551842, 1553481, 1556524, 1563791, 1564207, 1564698, 1567050, 1567714, 1596225, 1596921, 1597483, 1599635, 1600922, 1601227, 1601501, 1601646]","[1540443, 1540842, 1541242, 1541642, 1542042, 1542443, 1542842, 1543242, 1548207, 1548740, 1551861, 1554811, 1563778, 1564224, 1564717, 1567064, 1567734, 1595496, 1596939, 1597497, 1599650, 1600939, 1601245, 1601520]",67,EM,L,R,ITMSR,1.1
4,600,trial,0,71,71,71,trial,"['S', 'S', 'S', 'S', 'S', 'S', 'S', 'C', 'C', 'C', 'C', 'C', 'C', 'C', 'C', 'C', 'C', 'C', 'C', 'C', 'C', 'C', 'C']","[1608952, 1609175, 1609313, 1609606, 1609801, 1610204, 1611304, 1614449, 1621698, 1622877, 1628156, 1628747, 1629236, 1629728, 1630209, 1630701, 1631187, 1631630, 1632119, 1632630, 1633088, 1633579, 1634086]","[1609073, 1609233, 1609526, 1609639, 1610124, 1610446, 1611324, 1614604, 1622673, 1626010, 1628207, 1628767, 1629256, 1629748, 1630229, 1630722, 1631207, 1631650, 1632139, 1632650, 1633108, 1633599, 1634106]","[9, 9, 9, 3, 16, 89, 117, 86, 4, 188, 41, 221, 181, 157, 208, 149, 208, 109, 226, 236, 209, 166, 136]","[1608975, 1609198, 1609313, 1609610, 1610090, 1610393, 1611309, 1614469, 1622072, 1624798, 1628166, 1628751, 1629239, 1629732, 1630212, 1630703, 1631190, 1631632, 1632122, 1632633, 1633091, 1633582, 1634089]","[1607234, 1607834, 1608434, 1609034, 1609634, 1610234, 1610834, 1611435, 1614469, 1621719, 1622897, 1628176, 1628767, 1629256, 1629748, 1630229, 1630722, 1631207, 1631650, 1632139, 1632650, 1633108, 1633599, 1634106]",67,EM,L,R,ITMSR,1.1
5,400,trial,0,72,72,72,trial,"['S', 'S', 'S', 'S', 'S', 'C', 'C', 'C', 'C', 'C', 'C', 'C', 'C', 'C', 'C', 'C', 'C', 'C', 'C', 'C', 'C']","[1641382, 1641576, 1642248, 1642555, 1642799, 1643649, 1645874, 1649252, 1662194, 1663226, 1663918, 1664544, 1673844, 1674297, 1674719, 1675112, 1675478, 1675930, 1676362, 1676742, 1677128]","[1641496, 1642034, 1642268, 1642575, 1642819, 1643669, 1649058, 1660000, 1662729, 1663246, 1663938, 1673764, 1674159, 1674382, 1674739, 1675132, 1675498, 1675950, 1676382, 1676762, 1677148]","[160, 150, 50, 103, 83, 46, 112, 133, 104, 13, 50, 171, 60, 123, 197, 133, 84, 83, 197, 154, 43]","[1641462, 1641803, 1642256, 1642559, 1642803, 1643653, 1648918, 1652838, 1662625, 1663230, 1663920, 1668162, 1673894, 1674355, 1674724, 1675116, 1675483, 1675933, 1676365, 1676745, 1677132]","[1639785, 1640185, 1640585, 1640985, 1641385, 1641785, 1642185, 1642585, 1643669, 1645894, 1649272, 1662214, 1663246, 1663938, 1664564, 1673864, 1674317, 1674739, 1675132, 1675498, 1675950, 1676382, 1676762, 1677148]",67,EM,L,R,ITMSR,1.1
1,600,trial,0,73,73,73,trial,"['C', 'C', 'C', 'C', 'C', 'C', 'C', 'C', 'C', 'C', 'C', 'C', 'C', 'C', 'C', 'C', 'C', 'C', 'C', 'C', 'C', 'C', 'C']","[1709329, 1709453, 1710286, 1710386, 1711108, 1711208, 1711953, 1712053, 1712752, 1712854, 1713580, 1720840, 1721270, 1721370, 1721650, 1721750, 1722083, 1722517, 1722966, 1743534, 1745430, 1751676, 1752130]","[1709349, 1709597, 1710306, 1710830, 1711128, 1711438, 1711973, 1712491, 1712772, 1713327, 1720419, 1721072, 1721290, 1721396, 1721670, 1721771, 1722232, 1722748, 1743427, 1744752, 1751547, 1752039]","[6, 18, 14, 137, 225, 134, 102, 237, 80, 37, 44, 37, 42, 99, 41, 60, 205, 2, 55, 54, 50, 50]","[1709333, 1709470, 1710288, 1710766, 1711113, 1711216, 1711959, 1712053, 1712755, 1713247, 1715901, 1721047, 1721272, 1721370, 1721652, 1721750, 1722087, 1722610, 1738911, 1744648, 1748493, 1751839]","[1682792, 1683392, 1683992, 1684592, 1685192, 1685792, 1686392, 1686992, 1709349, 1710306, 1711128, 1711973, 1712772, 1713600, 1720860, 1721290, 1721670, 1722103, 1722537, 1722986, 1743554, 1745451, 1751696, 1752151]",67,EM,L,R,ITMSR,1.1
2,600,trial,0,74,74,74,trial,"['B', 'S', 'C', 'C', 'C', 'C', 'C', 'C', 'C', 'C', 'C', 'C', 'C', 'C', 'C', 'C', 'C', 'C']","[1757655, 1758689, 1770466, 1770985, 1771508, 1772037, 1772564, 1773057, 1773526, 1774023, 1774556, 1775055, 1775534, 1776049, 1776592, 1779911, 1780976, 1805291]","[1758557, 1769761, 1770486, 1771005, 1771528, 1772087, 1772614, 1773077, 1773600, 1774070, 1774621, 1775075, 1775554, 1776069, 1776612, 1780409, 1805164]","[55, 132, 183, 167, 123, 200, 219, 231, 215, 236, 52, 180, 228, 95, 143, 44, 166]","[1758302, 1769558, 1770469, 1770990, 1771512, 1772040, 1772568, 1773061, 1773530, 1774027, 1774559, 1775059, 1775537, 1776053, 1776596, 1780333, 1800637]","[1757666, 1758266, 1758866, 1759466, 1760066, 1760666, 1761266, 1761866, 1770486, 1771005, 1771528, 1772057, 1772584, 1773077, 1773546, 1774043, 1774576, 1775075, 1775554, 1776069, 1776612, 1779931, 1780996, 1805312]",67,EM,L,R,ITMSR,1.1
5,400,trial,0,75,75,75,trial,"['B', 'C', 'C', 'C', 'C', 'C', 'C', 'C', 'C', 'C', 'C', 'C', 'C', 'C', 'C', 'C', 'C', 'C', 'C', 'C', 'C']","[1810914, 1833590, 1839450, 1839593, 1839878, 1840192, 1842396, 1843207, 1851046, 1861677, 1869474, 1871325, 1871427, 1879803, 1884189, 1889622, 1889780, 1894127, 1895239, 1896884, 1897049]","[1833365, 1839332, 1839513, 1839798, 1839898, 1841757, 1843010, 1850784, 1861597, 1869340, 1871092, 1871347, 1879723, 1884107, 1889541, 1889700, 1894047, 1894902, 1896701, 1896969]","[56, 45, 16, 38, 13, 38, 45, 180, 55, 53, 185, 9, 224, 101, 102, 46, 98, 61, 108, 40]","[1812954, 1833688, 1839456, 1839603, 1839878, 1840528, 1842785, 1850286, 1851236, 1868526, 1869526, 1871345, 1876730, 1880948, 1885351, 1889630, 1891784, 1894843, 1895680, 1896926]","[1810927, 1811326, 1811726, 1812126, 1812526, 1812926, 1813326, 1813726, 1833610, 1839470, 1839898, 1840212, 1842416, 1843227, 1851066, 1861697, 1869494, 1871345, 1879823, 1884209, 1889642, 1894147, 1895259, 1896904]",67,EM,L,R,ITMSR,1.1
0,600,trial,0,76,76,76,trial,"['B', 'S', 'S', 'S', 'C', 'C', 'C', 'C', 'C', 'C', 'C', 'C', 'C', 'C', 'C', 'C', 'C', 'C', 'C', 'C', 'C', 'C', 'C', 'C', 'C']","[1902430, 1902914, 1903041, 1904825, 1907641, 1910353, 1911141, 1911264, 1914791, 1927135, 1927661, 1931134, 1931969, 1932139, 1932270, 1932962, 1933462, 1933590, 1933722, 1934251, 1934569, 1939101, 1939269, 1939417, 1940031]","[1902581, 1902959, 1904495, 1907385, 1907670, 1910402, 1911184, 1911315, 1914896, 1927445, 1931054, 1931527, 1932043, 1932190, 1932463, 1933382, 1933490, 1933612, 1934154, 1934489, 1934610, 1939158, 1939337, 1939557]","[73, 39, 92, 158, 39, 38, 39, 64, 45, 17, 47, 46, 18, 18, 46, 47, 17, 8, 77, 37, 46, 18, 18, 18]","[1902430, 1902920, 1904370, 1905463, 1907646, 1910353, 1911162, 1911283, 1914823, 1927168, 1927964, 1931134, 1931984, 1932142, 1932282, 1932982, 1933462, 1933590, 1933858, 1934427, 1934569, 1939113, 1939270, 1939426]","[1902441, 1903041, 1903641, 1904241, 1904841, 1905441, 1906041, 1906641, 1907661, 1910373, 1911161, 1914811, 1927155, 1927682, 1931154, 1931990, 1932290, 1932982, 1933483, 1934271, 1934589, 1939121, 1939437, 1940051]",67,EM,L,R,ITMSR,1.1
0,600,trial,0,77,77,77,trial,"['C', 'C', 'C', 'C', 'C', 'C', 'C', 'C', 'C', 'C', 'C', 'C', 'C', 'C', 'C', 'C']","[1957655, 1966489, 1966997, 1967496, 1967982, 1968505, 1969009, 1969534, 1969972, 1970503, 1970988, 1971509, 1972024, 1972509, 1972983, 1973480]","[1966113, 1966509, 1967049, 1967516, 1968034, 1968525, 1969029, 1969554, 1970056, 1970523, 1971009, 1971570, 1972044, 1972579, 1973061, 1973576]","[157, 229, 101, 192, 229, 238, 0, 203, 10, 202, 211, 71, 249, 34, 55, 58]","[1965363, 1966493, 1967003, 1967500, 1967985, 1968507, 1969012, 1969539, 1969976, 1970506, 1970992, 1971512, 1972028, 1972512, 1972987, 1973483]","[1945466, 1946066, 1946667, 1947266, 1947866, 1948466, 1949066, 1949666, 1957676, 1966509, 1967017, 1967516, 1968002, 1968525, 1969029, 1969554, 1969992, 1970523, 1971008, 1971529, 1972044, 1972529, 1973003, 1973500]",67,EM,L,R,ITMSR,1.1
1,600,trial,0,78,78,78,trial,"['S', 'S', 'S', 'S', 'S', 'S', 'S', 'C', 'C', 'C', 'C', 'C', 'C', 'C', 'C', 'C', 'C', 'C', 'C', 'C', 'C', 'C', 'C']","[1991346, 1992186, 1992857, 1993449, 1994035, 1994622, 1995244, 1995833, 1996401, 1996950, 1997503, 1998022, 1998575, 1999105, 1999654, 2000173, 2000728, 2001230, 2001719, 2002285, 2002801, 2003306, 2003773]","[1991386, 1992206, 1992877, 1993494, 1994107, 1994708, 1995292, 1995909, 1996479, 1997014, 1997575, 1998112, 1998643, 1999170, 1999719, 2000254, 2000800, 2001320, 2001793, 2002371, 2002866, 2003362, 2003861]","[34, 2, 193, 33, 32, 90, 61, 66, 106, 92, 252, 93, 68, 55, 83, 65, 28, 17, 238, 32, 9, 214, 188]","[1991349, 1992189, 1992861, 1993452, 1994037, 1994625, 1995246, 1995835, 1996403, 1996952, 1997506, 1998024, 1998577, 1999107, 1999656, 2000174, 2000729, 2001232, 2001721, 2002287, 2002802, 2003308, 2003776]","[1991120, 1991719, 1992320, 1992920, 1993520, 1994120, 1994720, 1995320, 1995853, 1996421, 1996971, 1997523, 1998042, 1998595, 1999125, 1999674, 2000193, 2000748, 2001250, 2001739, 2002306, 2002821, 2003326, 2003793]",67,EM,L,R,ITMSR,1.1
3,600,trial,0,79,79,79,trial,"['S', 'S', 'S', 'S', 'S', 'S', 'S', 'C', 'C', 'C', 'C', 'C', 'C', 'C', 'C', 'C', 'C', 'C', 'C', 'C', 'C', 'C', 'C']","[2010001, 2010604, 2011236, 2011774, 2012363, 2012925, 2013613, 2014182, 2014758, 2015269, 2015783, 2016309, 2016817, 2017319, 2017826, 2018286, 2018766, 2019270, 2019774, 2020232, 2020721, 2021251, 2021758]","[2010037, 2010675, 2011327, 2011872, 2012461, 2013000, 2013694, 2014253, 2014863, 2015365, 2015848, 2016414, 2016896, 2017394, 2017900, 2018362, 2018848, 2019341, 2019831, 2020288, 2020783, 2021327, 2021778]","[109, 8, 47, 100, 85, 43, 26, 67, 123, 92, 71, 86, 87, 81, 85, 82, 130, 105, 67, 85, 54, 111, 250]","[2010005, 2010606, 2011238, 2011777, 2012365, 2012928, 2013615, 2014184, 2014760, 2015271, 2015785, 2016310, 2016819, 2017323, 2017829, 2018289, 2018768, 2019273, 2019776, 2020234, 2020723, 2021253, 2021761]","[2009494, 2010094, 2010694, 2011294, 2011894, 2012494, 2013094, 2013694, 2014202, 2014778, 2015289, 2015803, 2016329, 2016837, 2017339, 2017846, 2018306, 2018786, 2019290, 2019794, 2020252, 2020741, 2021271, 2021778]",67,EM,L,R,ITMSR,1.1
0,600,trial,0,80,80,80,trial,"['S', 'S', 'S', 'S', 'S', 'S', 'S', 'C', 'C', 'C', 'C', 'C', 'C', 'C', 'C', 'C', 'C', 'C', 'C', 'C', 'C', 'C', 'C']","[2027700, 2028179, 2028767, 2029386, 2029965, 2030616, 2031173, 2031759, 2032336, 2032855, 2033436, 2033959, 2034530, 2035026, 2035621, 2036106, 2036637, 2037132, 2037645, 2038189, 2038731, 2039269, 2039687]","[2027756, 2028280, 2028834, 2029440, 2030041, 2030665, 2031286, 2031865, 2032356, 2032950, 2033494, 2034057, 2034587, 2035124, 2035716, 2036214, 2036708, 2037203, 2037743, 2038258, 2038825, 2039348, 2039773]","[191, 56, 35, 27, 21, 167, 45, 39, 255, 64, 15, 79, 57, 50, 56, 41, 17, 251, 3, 14, 31, 40, 46]","[2027703, 2028181, 2028770, 2029389, 2029967, 2030618, 2031175, 2031761, 2032338, 2032858, 2033438, 2033963, 2034533, 2035030, 2035623, 2036108, 2036640, 2037135, 2037648, 2038192, 2038733, 2039272, 2039690]","[2027094, 2027693, 2028293, 2028893, 2029493, 2030093, 2030693, 2031293, 2031779, 2032356, 2032875, 2033456, 2033979, 2034550, 2035046, 2035641, 2036126, 2036657, 2037152, 2037665, 2038209, 2038751, 2039289, 2039707]",67,EM,L,R,ITMSR,1.1
4,600,trial,0,81,81,81,trial,"['S', 'S', 'S', 'S', 'S', 'S', 'S', 'S', 'C', 'C', 'C', 'C', 'C', 'C', 'C', 'C', 'C', 'C', 'C', 'C', 'C', 'C', 'C', 'C']","[2045301, 2045664, 2046133, 2046747, 2047337, 2047961, 2048556, 2049133, 2049729, 2050296, 2050844, 2051380, 2051953, 2052491, 2052998, 2053532, 2054111, 2054731, 2055219, 2055808, 2056421, 2056977, 2057518, 2058059]","[2045365, 2045743, 2046222, 2046839, 2047419, 2048069, 2048684, 2049273, 2049867, 2050366, 2050941, 2051471, 2052062, 2052567, 2053062, 2053616, 2054216, 2054821, 2055329, 2055927, 2056483, 2057047, 2057559, 2058104]","[31, 49, 55, 25, 72, 51, 88, 116, 109, 33, 97, 20, 21, 91, 107, 130, 49, 79, 89, 43, 50, 70, 59, 69]","[2045304, 2045666, 2046135, 2046749, 2047339, 2047963, 2048557, 2049135, 2049731, 2050298, 2050846, 2051382, 2051955, 2052493, 2053001, 2053535, 2054115, 2054734, 2055223, 2055812, 2056424, 2056980, 2057520, 2058061]","[2045023, 2045622, 2046222, 2046822, 2047422, 2048022, 2048622, 2049222, 2049750, 2050316, 2050864, 2051400, 2051973, 2052511, 2053018, 2053552, 2054131, 2054751, 2055239, 2055828, 2056441, 2056997, 2057538, 2058079]",67,EM,L,R,ITMSR,1.1
2,600,trial,0,82,82,82,trial,"['S', 'S', 'S', 'S', 'S', 'S', 'S', 'C', 'C', 'C', 'C', 'C', 'C', 'C', 'C', 'C', 'C', 'C', 'C', 'C', 'C', 'C', 'C', 'C', 'C']","[2064150, 2064840, 2065460, 2066027, 2066655, 2067255, 2067807, 2068469, 2069074, 2069690, 2070358, 2071044, 2071593, 2072210, 2072315, 2072771, 2073337, 2073965, 2074502, 2075096, 2075789, 2076336, 2076925, 2077172, 2077996]","[2064207, 2064912, 2065543, 2066124, 2066748, 2067340, 2067908, 2068573, 2069182, 2069800, 2070462, 2071140, 2071707, 2072235, 2072336, 2072892, 2073432, 2074061, 2074616, 2075210, 2075902, 2076427, 2077092, 2077647, 2078069]","[248, 28, 28, 18, 62, 33, 68, 22, 236, 12, 182, 63, 214, 177, 87, 129, 197, 206, 209, 132, 238, 229, 240, 49, 193]","[2064153, 2064843, 2065462, 2066030, 2066657, 2067258, 2067809, 2068471, 2069078, 2069692, 2070360, 2071047, 2071596, 2072213, 2072315, 2072775, 2073342, 2073969, 2074505, 2075101, 2075797, 2076340, 2076930, 2077514, 2078000]","[2063695, 2064295, 2064896, 2065496, 2066096, 2066696, 2067296, 2067896, 2068489, 2069094, 2069710, 2070378, 2071064, 2071613, 2072230, 2072792, 2073357, 2073986, 2074522, 2075116, 2075809, 2076356, 2076945, 2078016]",67,EM,L,R,ITMSR,1.1
2,400,trial,0,83,83,83,trial,"['S', 'S', 'S', 'S', 'S', 'S', 'S', 'C', 'C', 'C', 'C', 'C', 'C', 'C', 'C', 'C', 'C', 'C', 'C', 'C', 'C', 'C', 'C']","[2083752, 2084147, 2084518, 2084947, 2085338, 2085750, 2086134, 2086559, 2086968, 2087361, 2087801, 2088249, 2088595, 2088972, 2089361, 2089842, 2090268, 2090704, 2091137, 2091586, 2091956, 2092387, 2092782]","[2083772, 2084225, 2084601, 2085023, 2085415, 2085829, 2086224, 2086637, 2087041, 2087472, 2087897, 2088330, 2088704, 2089119, 2089457, 2089892, 2090336, 2090754, 2091157, 2091665, 2092026, 2092407, 2092802]","[84, 77, 95, 86, 80, 83, 86, 82, 41, 88, 17, 200, 213, 214, 17, 243, 43, 2, 183, 228, 0, 213, 57]","[2083757, 2084149, 2084520, 2084950, 2085340, 2085752, 2086136, 2086562, 2086970, 2087363, 2087805, 2088253, 2088599, 2088978, 2089367, 2089846, 2090271, 2090708, 2091141, 2091590, 2091960, 2092391, 2092786]","[2083363, 2083763, 2084163, 2084563, 2084963, 2085363, 2085763, 2086163, 2086579, 2086988, 2087382, 2087821, 2088269, 2088615, 2088992, 2089381, 2089862, 2090288, 2090724, 2091157, 2091607, 2091976, 2092407, 2092802]",67,EM,L,R,ITMSR,1.1
0,400,trial,0,84,84,84,trial,"['B', 'S', 'S', 'S', 'S', 'S', 'S', 'S', 'C', 'C', 'C', 'C', 'C', 'C', 'C', 'C', 'C', 'C', 'C', 'C', 'C', 'C', 'C', 'C']","[2098094, 2098667, 2098988, 2099310, 2099689, 2100098, 2100459, 2100908, 2101310, 2101706, 2102090, 2102524, 2102930, 2103323, 2103774, 2104181, 2104590, 2104966, 2105363, 2105812, 2106222, 2106580, 2107058, 2107458]","[2098451, 2098726, 2099055, 2099386, 2099767, 2100179, 2100551, 2100975, 2101396, 2101799, 2102202, 2102611, 2103021, 2103422, 2103847, 2104264, 2104670, 2105077, 2105463, 2105896, 2106330, 2106690, 2107158, 2107560]","[104, 156, 49, 85, 69, 88, 81, 65, 59, 85, 49, 61, 84, 76, 79, 95, 96, 106, 78, 63, 107, 81, 117, 123]","[2098104, 2098671, 2098992, 2099312, 2099691, 2100101, 2100462, 2100910, 2101312, 2101708, 2102092, 2102528, 2102932, 2103325, 2103776, 2104182, 2104592, 2104968, 2105366, 2105816, 2106224, 2106584, 2107060, 2107461]","[2098104, 2098504, 2098904, 2099304, 2099704, 2100104, 2100504, 2100904, 2101330, 2101726, 2102110, 2102544, 2102950, 2103343, 2103794, 2104201, 2104610, 2104986, 2105383, 2105832, 2106242, 2106600, 2107078, 2107479]",67,EM,L,R,ITMSR,1.1
4,400,trial,0,85,85,85,trial,"['S', 'S', 'S', 'S', 'S', 'S', 'S', 'C', 'C', 'C', 'C', 'C', 'C', 'C', 'C', 'C', 'C', 'C', 'C', 'C', 'C', 'C', 'C']","[2113422, 2113848, 2114289, 2114749, 2115106, 2115502, 2115903, 2116284, 2116695, 2117062, 2117482, 2117934, 2118315, 2118769, 2119172, 2119547, 2119958, 2120365, 2120733, 2121201, 2121609, 2121972, 2122360]","[2113501, 2113928, 2114385, 2114837, 2115185, 2115596, 2115988, 2116359, 2116760, 2117143, 2117560, 2118005, 2118389, 2118789, 2119239, 2119620, 2120039, 2120434, 2120800, 2121275, 2121688, 2122030, 2122440]","[12, 42, 118, 128, 115, 145, 125, 138, 100, 119, 117, 105, 112, 77, 96, 82, 111, 114, 68, 111, 114, 65, 70]","[2113426, 2113851, 2114291, 2114751, 2115109, 2115504, 2115905, 2116285, 2116697, 2117063, 2117484, 2117936, 2118317, 2118770, 2119174, 2119549, 2119961, 2120367, 2120735, 2121203, 2121611, 2121975, 2122363]","[2113148, 2113548, 2113948, 2114349, 2114749, 2115149, 2115549, 2115949, 2116304, 2116715, 2117082, 2117502, 2117954, 2118335, 2118789, 2119192, 2119567, 2119979, 2120385, 2120753, 2121221, 2121629, 2121992, 2122380]",67,EM,L,R,ITMSR,1.1
0,400,trial,0,86,86,86,trial,"['S', 'S', 'S', 'S', 'S', 'S', 'S', 'C', 'C', 'C', 'C', 'C', 'C', 'C', 'C', 'C', 'C', 'C', 'C', 'C', 'C', 'C', 'C']","[2128099, 2128464, 2128908, 2129313, 2129712, 2130126, 2130603, 2130995, 2131409, 2131809, 2132238, 2132619, 2133012, 2133401, 2133761, 2134220, 2134604, 2134939, 2135374, 2135749, 2136123, 2136502, 2136886]","[2128157, 2128547, 2128997, 2129411, 2129795, 2130209, 2130667, 2131076, 2131493, 2131880, 2132286, 2132691, 2133084, 2133484, 2133852, 2134298, 2134680, 2134994, 2135444, 2135828, 2136214, 2136570, 2136970]","[254, 80, 86, 100, 120, 119, 134, 111, 135, 113, 64, 132, 118, 110, 92, 121, 122, 32, 64, 121, 116, 129, 107]","[2128103, 2128466, 2128911, 2129316, 2129714, 2130128, 2130605, 2130998, 2131411, 2131811, 2132240, 2132621, 2133014, 2133404, 2133763, 2134223, 2134607, 2134941, 2135376, 2135751, 2136126, 2136504, 2136888]","[2127772, 2128173, 2128573, 2128973, 2129373, 2129773, 2130173, 2130573, 2131015, 2131429, 2131829, 2132258, 2132639, 2133032, 2133421, 2133781, 2134240, 2134624, 2134959, 2135394, 2135769, 2136143, 2136522, 2136906]",67,EM,L,R,ITMSR,1.1
5,600,trial,0,87,87,87,trial,"['S', 'S', 'S', 'S', 'S', 'S', 'S', 'C', 'C', 'C', 'C', 'C', 'C', 'C', 'C', 'C', 'C', 'C', 'C', 'C', 'C', 'C', 'C']","[2142708, 2143120, 2143813, 2144561, 2145254, 2145952, 2146415, 2146990, 2147569, 2148131, 2148697, 2149340, 2149896, 2150534, 2151176, 2151812, 2152471, 2153174, 2153807, 2154490, 2155167, 2155825, 2156522]","[2142747, 2143180, 2143896, 2144649, 2145329, 2146035, 2146534, 2147089, 2147647, 2148208, 2148767, 2149397, 2149971, 2150607, 2151265, 2151832, 2152552, 2153283, 2153906, 2154580, 2155272, 2155952, 2156644]","[11, 49, 97, 69, 23, 64, 88, 114, 47, 94, 66, 44, 38, 26, 195, 62, 224, 23, 195, 228, 2, 16, 19]","[2142712, 2143123, 2143816, 2144564, 2145257, 2145954, 2146417, 2146992, 2147572, 2148133, 2148700, 2149343, 2149900, 2150537, 2151180, 2151817, 2152475, 2153177, 2153811, 2154494, 2155171, 2155829, 2156525]","[2142322, 2142922, 2143522, 2144122, 2144722, 2145323, 2145922, 2146522, 2147010, 2147589, 2148151, 2148717, 2149360, 2149916, 2150554, 2151196, 2151832, 2152492, 2153194, 2153827, 2154510, 2155187, 2155845, 2156542]",67,EM,L,R,ITMSR,1.1
4,600,trial,0,88,88,88,trial,"['S', 'S', 'S', 'S', 'S', 'S', 'S', 'S', 'C', 'C', 'C', 'C', 'C', 'C', 'C', 'C', 'C', 'C', 'C', 'C', 'C', 'C', 'C', 'C', 'C', 'C']","[2162422, 2163042, 2163546, 2164304, 2164975, 2165433, 2165533, 2165935, 2166683, 2167336, 2167966, 2168307, 2168407, 2169081, 2170030, 2170636, 2171143, 2171754, 2172317, 2172969, 2173306, 2173406, 2173716, 2174388, 2174985, 2181149]","[2162442, 2163062, 2163608, 2164383, 2165071, 2165453, 2165656, 2165961, 2166704, 2167479, 2168096, 2168327, 2168752, 2169140, 2170075, 2170716, 2171245, 2171833, 2172419, 2172989, 2173326, 2173543, 2173849, 2174869, 2180763, 2181171]","[190, 204, 231, 207, 161, 25, 91, 146, 123, 147, 101, 46, 54, 0, 24, 17, 54, 26, 204, 56, 150, 164, 11, 62, 67, 226]","[2162427, 2163047, 2163550, 2164307, 2164979, 2165435, 2165613, 2165941, 2166687, 2167342, 2167970, 2168308, 2168681, 2169088, 2170033, 2170639, 2171146, 2171757, 2172320, 2172975, 2173308, 2173455, 2173721, 2174447, 2177958, 2181152]","[2161974, 2162574, 2163174, 2163774, 2164374, 2164974, 2165574, 2166174, 2166703, 2167356, 2167986, 2168327, 2169101, 2170050, 2170656, 2171163, 2171774, 2172337, 2172989, 2173326, 2173736, 2174408, 2175005, 2181169]",67,EM,L,R,ITMSR,1.1
4,400,trial,0,89,89,89,trial,"['S', 'S', 'S', 'S', 'S', 'S', 'S', 'C', 'C', 'C', 'C', 'C', 'C', 'C', 'C', 'C', 'C', 'C', 'C', 'C', 'C', 'C', 'C']","[2186869, 2187265, 2187653, 2188042, 2188447, 2188888, 2189317, 2189689, 2190097, 2190526, 2190936, 2191357, 2191813, 2192201, 2192595, 2193007, 2193440, 2193841, 2194286, 2194719, 2195169, 2195517, 2196004]","[2186890, 2187321, 2187720, 2188131, 2188538, 2188988, 2189395, 2189787, 2190179, 2190599, 2191015, 2191437, 2191886, 2192272, 2192693, 2193076, 2193513, 2193933, 2194329, 2194786, 2195250, 2195612, 2196090]","[248, 44, 57, 57, 77, 120, 113, 133, 93, 95, 79, 87, 83, 67, 119, 44, 65, 71, 72, 98, 80, 97, 83]","[2186872, 2187268, 2187654, 2188044, 2188448, 2188889, 2189319, 2189691, 2190099, 2190528, 2190939, 2191360, 2191816, 2192204, 2192598, 2193010, 2193443, 2193843, 2194289, 2194721, 2195171, 2195520, 2196006]","[2186524, 2186925, 2187325, 2187725, 2188125, 2188525, 2188925, 2189325, 2189709, 2190117, 2190546, 2190956, 2191377, 2191833, 2192221, 2192615, 2193027, 2193460, 2193861, 2194306, 2194739, 2195189, 2195537, 2196024]",67,EM,L,R,ITMSR,1.1
5,400,trial,0,90,90,90,trial,"['S', 'S', 'S', 'S', 'S', 'S', 'S', 'C', 'C', 'C', 'C', 'C', 'C', 'C', 'C', 'C', 'C', 'C', 'C', 'C', 'C', 'C', 'C', 'C', 'C']","[2202230, 2202520, 2202963, 2203453, 2203804, 2204238, 2204599, 2204995, 2205370, 2205822, 2206190, 2206291, 2206610, 2206710, 2207363, 2207912, 2209879, 2210309, 2210726, 2211145, 2211536, 2211939, 2212375, 2212803, 2213221]","[2202279, 2202599, 2202984, 2203473, 2203826, 2204258, 2204704, 2205126, 2205477, 2205932, 2206211, 2206311, 2206630, 2206730, 2207469, 2209662, 2209899, 2210368, 2210799, 2211207, 2211614, 2211997, 2212445, 2212824, 2213296]","[30, 51, 217, 5, 237, 217, 65, 41, 44, 10, 227, 43, 158, 68, 48, 130, 74, 43, 66, 85, 78, 54, 79, 242, 67]","[2202260, 2202571, 2202968, 2203454, 2203807, 2204242, 2204602, 2204999, 2205373, 2205826, 2206193, 2206291, 2206616, 2206710, 2207414, 2209641, 2209884, 2210312, 2210728, 2211147, 2211538, 2211941, 2212377, 2212806, 2213223]","[2201809, 2202209, 2202609, 2203010, 2203410, 2203810, 2204210, 2204610, 2205016, 2205390, 2205842, 2206210, 2206630, 2207383, 2207932, 2209899, 2210329, 2210746, 2211165, 2211556, 2211959, 2212396, 2212824, 2213241]",67,EM,L,R,ITMSR,1.1
