pitch,ioi,event,.thisRepN,.thisTrialN,.thisN,.thisIndex,event,tap_types,tap_times,release_times,peak_pressures,peak_times,tone_times,subject,experimenter,register,handedness,experiment,version
,,SPR,0,-1,-1,0,SPR,"['P', 'P', 'P', 'P', 'P', 'P', 'P', 'P', 'P', 'P', 'P', 'P', 'P', 'P', 'P', 'P', 'P', 'P', 'P', 'P', 'P', 'P', 'P', 'P', 'P', 'P', 'P', 'P', 'P', 'P']","[43488, 44141, 44754, 45379, 45996, 46619, 47289, 47902, 48504, 49123, 49729, 50343, 50961, 51546, 52156, 52772, 53357, 53953, 54572, 55192, 55757, 56381, 56970, 57536, 58157, 58781, 59390, 59974, 60571, 61159]","[43604, 44265, 44865, 45491, 46115, 46739, 47369, 48022, 48624, 49217, 49844, 50440, 51062, 51638, 52268, 52879, 53469, 54057, 54686, 55301, 55842, 56487, 57065, 57659, 58260, 58875, 59509, 60072, 60679, 61266]","[150, 129, 130, 143, 149, 138, 98, 135, 139, 108, 121, 130, 137, 132, 134, 134, 135, 142, 133, 143, 123, 137, 128, 134, 140, 107, 151, 127, 144, 124]","[43491, 44144, 44758, 45382, 45999, 46623, 47293, 47906, 48507, 49126, 49733, 50347, 50965, 51550, 52159, 52775, 53360, 53956, 54576, 55195, 55761, 56385, 56975, 57539, 58161, 58784, 59394, 59978, 60574, 61163]",,69,OR,U,R,ITMSR,1.1
4,500,practice,0,0,0,0,practice,"['S', 'S', 'S', 'S', 'C', 'C', 'C', 'C', 'C', 'C', 'C', 'C', 'C', 'C', 'C', 'C', 'C', 'C', 'C', 'C']","[140175, 140681, 141170, 141684, 142147, 142561, 142984, 143451, 143933, 144411, 144923, 145374, 145858, 146347, 146807, 147305, 147791, 148254, 148710, 149193]","[140288, 140785, 141266, 141770, 142244, 142674, 143089, 143556, 144036, 144518, 145008, 145479, 145964, 146456, 146923, 147420, 147884, 148369, 148829, 149316]","[145, 153, 142, 142, 156, 137, 118, 104, 125, 123, 107, 126, 138, 106, 108, 115, 115, 142, 141, 119]","[140178, 140685, 141174, 141688, 142150, 142565, 142988, 143455, 143937, 144415, 144928, 145379, 145861, 146352, 146811, 147309, 147796, 148257, 148714, 149197]","[138249, 138749, 139249, 139749, 140249, 140749, 141249, 141749, 142168, 142581, 143004, 143471, 143953, 144431, 144943, 145394, 145879, 146367, 146827, 147325, 147811, 148274, 148730, 149213]",69,OR,U,R,ITMSR,1.1
1,500,practice,0,1,1,1,practice,"['S', 'S', 'S', 'S', 'S', 'C', 'C', 'C', 'C', 'C', 'C', 'C', 'C', 'C', 'C', 'C', 'C', 'C', 'C', 'C', 'C']","[155473, 156464, 156974, 157451, 157930, 158449, 158949, 159485, 159950, 160428, 160910, 161378, 161861, 162331, 162828, 163298, 163735, 164236, 164740, 165207, 165664]","[155583, 156572, 157067, 157550, 158030, 158551, 159058, 159588, 160054, 160546, 161001, 161483, 161978, 162464, 162936, 163417, 163852, 164355, 164848, 165328, 165789]","[1, 150, 154, 142, 121, 113, 101, 95, 96, 100, 86, 94, 126, 119, 120, 114, 124, 103, 114, 125, 125]","[155480, 156468, 156977, 157454, 157934, 158453, 158953, 159490, 159955, 160432, 160915, 161382, 161865, 162336, 162832, 163302, 163738, 164239, 164744, 165210, 165668]","[154536, 155036, 155536, 156036, 156536, 157036, 157536, 158036, 158469, 158969, 159505, 159970, 160448, 160930, 161398, 161881, 162351, 162848, 163318, 163756, 164256, 164760, 165227, 165684]",69,OR,U,R,ITMSR,1.1
2,500,practice,0,2,2,2,practice,"['S', 'S', 'S', 'S', 'C', 'C', 'C', 'C', 'C', 'C', 'C', 'C', 'C', 'C', 'C', 'C', 'C', 'C', 'C', 'C']","[172896, 173370, 173893, 174373, 174861, 175353, 175882, 176350, 176816, 177330, 177832, 178274, 178776, 179239, 179746, 180204, 180696, 181209, 181675, 182183]","[173007, 173483, 173986, 174482, 174971, 175478, 175989, 176463, 176947, 177437, 177951, 178414, 178898, 179376, 179884, 180353, 180862, 181352, 181831, 182313]","[50, 46, 31, 58, 57, 28, 9, 69, 70, 72, 58, 60, 36, 87, 55, 50, 47, 61, 77, 56]","[172952, 173375, 173897, 174379, 174866, 175358, 175887, 176355, 176820, 177334, 177839, 178279, 178781, 179245, 179751, 180210, 180701, 181214, 181680, 182189]","[170982, 171482, 171982, 172482, 172982, 173483, 173982, 174482, 174881, 175373, 175902, 176370, 176836, 177350, 177852, 178294, 178796, 179259, 179766, 180225, 180716, 181229, 181695, 182203]",69,OR,U,R,ITMSR,1.1
5,500,practice,0,3,3,3,practice,"['S', 'S', 'S', 'S', 'C', 'C', 'C', 'C', 'C', 'C', 'C', 'C', 'C', 'C', 'C', 'C', 'C', 'C', 'C', 'C']","[189703, 190193, 190696, 191156, 191679, 192198, 192708, 193208, 193653, 194167, 194651, 195139, 195604, 196080, 196583, 197066, 197559, 198068, 198523, 199014]","[189822, 190321, 190799, 191271, 191817, 192330, 192851, 193343, 193787, 194295, 194797, 195257, 195738, 196218, 196725, 197214, 197701, 198188, 198663, 199149]","[76, 80, 30, 53, 67, 55, 53, 69, 74, 62, 29, 103, 97, 96, 88, 99, 96, 116, 104, 74]","[189758, 190198, 190702, 191161, 191684, 192203, 192713, 193212, 193658, 194172, 194728, 195143, 195608, 196085, 196588, 197071, 197563, 198072, 198528, 199019]","[187782, 188282, 188782, 189282, 189783, 190282, 190782, 191282, 191699, 192218, 192728, 193228, 193673, 194187, 194671, 195160, 195624, 196100, 196603, 197086, 197579, 198088, 198543, 199034]",69,OR,U,R,ITMSR,1.1
0,500,practice,0,4,4,4,practice,"['S', 'S', 'S', 'S', 'C', 'C', 'C', 'C', 'C', 'C', 'C', 'C', 'C', 'C', 'C', 'C', 'C', 'C', 'C', 'C']","[206433, 206911, 207418, 207881, 208396, 208886, 209367, 209864, 210294, 210839, 211331, 211817, 212292, 212767, 213243, 213723, 214202, 214673, 215187, 215653]","[206562, 207034, 207537, 207995, 208505, 209026, 209484, 209994, 210433, 210969, 211458, 211943, 212428, 212904, 213353, 213836, 214334, 214824, 215303, 215782]","[73, 67, 34, 245, 59, 10, 15, 255, 4, 249, 229, 237, 231, 238, 232, 246, 216, 238, 106, 22]","[206490, 206969, 207424, 207888, 208402, 208891, 209372, 209932, 210372, 210845, 211391, 211877, 212359, 212842, 213251, 213730, 214265, 214679, 215248, 215658]","[204507, 205007, 205507, 206007, 206508, 207007, 207507, 208007, 208416, 208906, 209387, 209884, 210314, 210860, 211351, 211837, 212312, 212787, 213263, 213743, 214222, 214693, 215207, 215673]",69,OR,U,R,ITMSR,1.1
3,500,practice,0,5,5,5,practice,"['S', 'S', 'S', 'S', 'C', 'C', 'C', 'C', 'C', 'C', 'C', 'C', 'C', 'C', 'C', 'C', 'C', 'C', 'C', 'C']","[223185, 223650, 224117, 224626, 225136, 225629, 226150, 226628, 227102, 227570, 228066, 228543, 229033, 229512, 229998, 230500, 230946, 231435, 231907, 232400]","[223300, 223790, 224254, 224761, 225268, 225784, 226281, 226777, 227231, 227728, 228230, 228729, 229219, 229692, 230169, 230639, 231176, 231634, 232116, 232584]","[89, 80, 67, 61, 61, 21, 17, 26, 22, 20, 26, 34, 46, 33, 30, 1, 16, 18, 13, 32]","[223241, 223712, 224188, 224695, 225141, 225710, 226211, 226710, 227107, 227666, 228152, 228634, 229130, 229605, 230088, 230574, 231052, 231534, 232015, 232508]","[221259, 221759, 222259, 222759, 223259, 223759, 224259, 224759, 225156, 225649, 226170, 226648, 227122, 227590, 228086, 228563, 229053, 229532, 230018, 230520, 230966, 231455, 231927, 232420]",69,OR,U,R,ITMSR,1.1
2,600,trial,0,6,6,6,trial,"['S', 'S', 'S', 'S', 'S', 'S', 'S', 'C', 'C', 'C', 'C', 'C', 'C', 'C', 'C', 'C', 'C', 'C', 'C', 'C', 'C', 'C', 'C']","[291682, 292241, 292850, 293535, 294100, 294702, 295307, 295912, 296479, 297044, 297634, 298207, 298757, 299305, 299852, 300404, 300943, 301502, 302059, 302603, 303137, 303685, 304234]","[291779, 292376, 293004, 293659, 294249, 294839, 295448, 296041, 296630, 297177, 297749, 298304, 298889, 299423, 299983, 300515, 301085, 301623, 302208, 302725, 303277, 303816, 304329]","[252, 46, 57, 78, 66, 67, 69, 58, 46, 58, 37, 250, 26, 23, 32, 0, 40, 47, 53, 46, 41, 24, 34]","[291729, 292313, 292931, 293540, 294177, 294708, 295375, 295981, 296559, 297050, 297640, 298214, 298829, 299312, 299858, 300411, 300949, 301507, 302141, 302608, 303143, 303691, 304239]","[291198, 291799, 292398, 292998, 293598, 294198, 294798, 295398, 295932, 296499, 297064, 297654, 298227, 298777, 299325, 299872, 300424, 300963, 301522, 302080, 302623, 303157, 303705, 304254]",69,OR,U,R,ITMSR,1.1
1,400,trial,0,7,7,7,trial,"['S', 'S', 'S', 'S', 'S', 'S', 'C', 'C', 'C', 'C', 'C', 'C', 'C', 'C', 'C', 'C', 'C', 'C', 'C', 'C', 'C', 'C']","[310680, 311031, 311473, 311838, 312262, 312633, 313049, 313395, 313740, 314172, 314530, 314904, 315315, 315691, 316056, 316430, 316823, 317208, 317609, 317997, 318387, 318772]","[310798, 311138, 311579, 311946, 312368, 312738, 313152, 313499, 313866, 314292, 314651, 315039, 315431, 315817, 316193, 316564, 316935, 317352, 317753, 318150, 318519, 318900]","[41, 17, 65, 25, 43, 37, 37, 51, 19, 224, 30, 3, 7, 34, 17, 7, 24, 33, 4, 36, 25, 243]","[310686, 311037, 311478, 311886, 312268, 312638, 313055, 313400, 313746, 314231, 314535, 314910, 315321, 315697, 316061, 316436, 316828, 317289, 317685, 318003, 318393, 318839]","[309995, 310394, 310794, 311194, 311595, 311994, 312394, 312794, 313069, 313415, 313760, 314192, 314550, 314925, 315335, 315711, 316077, 316450, 316844, 317229, 317629, 318017, 318407, 318792]",69,OR,U,R,ITMSR,1.1
5,600,trial,0,8,8,8,trial,"['S', 'S', 'S', 'S', 'S', 'S', 'C', 'C', 'C', 'C', 'C', 'C', 'C', 'C', 'C', 'C', 'C', 'C', 'C', 'C', 'C', 'C']","[325231, 325837, 326403, 327011, 327608, 328196, 328802, 329373, 329960, 330529, 331097, 331669, 332204, 332774, 333329, 333895, 334470, 335016, 335560, 336092, 336626, 337173]","[325389, 325964, 326532, 327171, 327761, 328343, 328929, 329544, 330110, 330670, 331234, 331804, 332354, 332914, 333499, 334026, 334620, 335161, 335724, 336238, 336762, 337301]","[55, 51, 64, 61, 67, 65, 68, 78, 74, 71, 65, 69, 79, 75, 101, 83, 95, 101, 97, 95, 90, 28]","[325320, 325903, 326459, 327102, 327686, 328274, 328862, 329463, 330040, 330601, 331164, 331732, 332275, 332841, 333413, 333966, 334545, 335086, 335633, 336162, 336694, 337241]","[324102, 324702, 325302, 325902, 326502, 327102, 327702, 328302, 328822, 329393, 329980, 330549, 331117, 331689, 332224, 332794, 333349, 333915, 334490, 335036, 335580, 336112, 336646, 337193]",69,OR,U,R,ITMSR,1.1
4,400,trial,0,9,9,9,trial,"['S', 'S', 'S', 'S', 'S', 'S', 'C', 'C', 'C', 'C', 'C', 'C', 'C', 'C', 'C', 'C', 'C', 'C', 'C', 'C', 'C', 'C']","[343190, 343583, 344011, 344407, 344810, 345196, 345593, 345989, 346393, 346803, 347205, 347592, 348003, 348394, 348784, 349169, 349538, 349965, 350371, 350757, 351140, 351512]","[343284, 343695, 344109, 344497, 344925, 345309, 345714, 346133, 346544, 346940, 347359, 347736, 348138, 348517, 348898, 349300, 349664, 350093, 350513, 350884, 351269, 351649]","[28, 96, 18, 52, 42, 84, 85, 38, 53, 48, 44, 66, 28, 57, 43, 73, 40, 32, 43, 66, 24, 31]","[343233, 343588, 344017, 344412, 344863, 345201, 345598, 345994, 346398, 346808, 347279, 347597, 348066, 348399, 348789, 349173, 349543, 350024, 350439, 350761, 351200, 351518]","[342506, 342905, 343305, 343705, 344105, 344505, 344905, 345305, 345613, 346009, 346413, 346823, 347225, 347612, 348023, 348414, 348804, 349189, 349558, 349985, 350391, 350777, 351160, 351533]",69,OR,U,R,ITMSR,1.1
2,400,trial,0,10,10,10,trial,"['S', 'S', 'S', 'S', 'S', 'S', 'C', 'C', 'C', 'C', 'C', 'C', 'C', 'C', 'C', 'C', 'C', 'C', 'C', 'C', 'C', 'C']","[357685, 358114, 358530, 358923, 359328, 359728, 360123, 360504, 360897, 361286, 361673, 362045, 362458, 362832, 363220, 363613, 363998, 364379, 364739, 365118, 365524, 365883]","[357796, 358228, 358625, 359037, 359452, 359852, 360241, 360636, 361026, 361413, 361793, 362151, 362562, 362960, 363343, 363732, 364124, 364498, 364869, 365276, 365637, 366025]","[45, 37, 226, 51, 21, 251, 255, 224, 244, 229, 220, 189, 186, 255, 253, 243, 251, 3, 252, 14, 232, 2]","[357691, 358119, 358571, 358976, 359390, 359787, 360188, 360560, 360966, 361346, 361729, 362090, 362508, 362888, 363283, 363669, 364056, 364439, 364797, 365204, 365577, 365962]","[357025, 357425, 357825, 358225, 358625, 359025, 359426, 359826, 360143, 360524, 360918, 361306, 361693, 362065, 362478, 362852, 363240, 363633, 364018, 364399, 364760, 365138, 365544, 365903]",69,OR,U,R,ITMSR,1.1
5,600,trial,0,11,11,11,trial,"['S', 'S', 'S', 'S', 'S', 'S', 'S', 'C', 'C', 'C', 'C', 'C', 'C', 'C', 'C', 'C', 'C', 'C', 'C', 'C', 'C', 'C', 'C']","[371876, 372643, 373282, 373892, 374479, 375076, 375680, 376262, 376849, 377387, 377937, 378485, 379032, 379552, 380120, 380638, 381179, 381683, 382236, 382778, 383348, 383872, 384432]","[372000, 372777, 373411, 374024, 374618, 375213, 375824, 376416, 377018, 377540, 378085, 378632, 379182, 379706, 380266, 380803, 381343, 381837, 382426, 382981, 383539, 384041, 384622]","[47, 87, 101, 70, 86, 100, 83, 104, 86, 99, 84, 80, 73, 100, 76, 81, 77, 75, 76, 83, 69, 59, 57]","[371936, 372707, 373339, 373956, 374542, 375139, 375753, 376338, 376932, 377460, 378008, 378560, 379104, 379617, 380191, 380724, 381260, 381763, 382328, 382887, 383440, 383953, 384534]","[371553, 372153, 372753, 373353, 373953, 374553, 375153, 375753, 376282, 376869, 377407, 377957, 378505, 379053, 379572, 380140, 380658, 381199, 381703, 382256, 382798, 383368, 383892, 384452]",69,OR,U,R,ITMSR,1.1
5,400,trial,0,12,12,12,trial,"['S', 'S', 'S', 'S', 'S', 'S', 'C', 'C', 'C', 'C', 'C', 'C', 'C', 'C', 'C', 'C', 'C', 'C', 'C', 'C', 'C', 'C']","[390171, 390540, 391462, 391883, 392329, 392747, 393121, 393488, 393883, 394247, 394650, 395051, 395428, 395832, 396246, 396654, 397029, 397426, 397809, 398216, 398601, 398989]","[390328, 390707, 391615, 392017, 392458, 392864, 393240, 393625, 394024, 394396, 394801, 395195, 395577, 395995, 396402, 396791, 397173, 397558, 397969, 398362, 398776, 399161]","[233, 194, 120, 249, 177, 252, 243, 205, 238, 237, 241, 207, 229, 245, 234, 209, 213, 189, 239, 233, 2, 243]","[390209, 390604, 391465, 391888, 392398, 392807, 393178, 393547, 393951, 394320, 394723, 395122, 395497, 395912, 396325, 396721, 397101, 397432, 397896, 398291, 398693, 399075]","[389998, 390398, 390798, 391198, 391598, 391998, 392398, 392798, 393141, 393508, 393903, 394267, 394670, 395071, 395448, 395852, 396266, 396674, 397049, 397446, 397829, 398236, 398621, 399009]",69,OR,U,R,ITMSR,1.1
4,400,trial,0,13,13,13,trial,"['S', 'S', 'S', 'S', 'S', 'S', 'S', 'S', 'C', 'C', 'C', 'C', 'C', 'C', 'C', 'C', 'C', 'C', 'C', 'C', 'C', 'C', 'C', 'C']","[404734, 405045, 405305, 405708, 406120, 406512, 406891, 407289, 407702, 408080, 408465, 408860, 409227, 409629, 410036, 410403, 410772, 411175, 411533, 411914, 412290, 412639, 412992, 413366]","[404871, 405165, 405416, 405821, 406236, 406627, 407011, 407412, 407811, 408222, 408614, 409000, 409376, 409804, 410167, 410535, 410918, 411310, 411671, 412041, 412408, 412760, 413094, 413489]","[200, 129, 30, 231, 172, 132, 189, 191, 143, 248, 244, 231, 233, 251, 233, 218, 232, 224, 241, 232, 187, 186, 186, 166]","[404796, 405107, 405371, 405713, 406125, 406555, 406897, 407343, 407746, 408148, 408547, 408923, 409292, 409704, 410100, 410464, 410840, 411237, 411606, 411920, 412348, 412706, 413043, 413373]","[404558, 404958, 405358, 405758, 406158, 406558, 406958, 407358, 407723, 408100, 408485, 408880, 409247, 409649, 410056, 410423, 410792, 411195, 411553, 411934, 412310, 412659, 413012, 413386]",69,OR,U,R,ITMSR,1.1
5,400,trial,0,14,14,14,trial,"['S', 'S', 'S', 'S', 'S', 'S', 'S', 'C', 'C', 'C', 'C', 'C', 'C', 'C', 'C', 'C', 'C', 'C', 'C', 'C', 'C', 'C', 'C']","[419067, 419573, 419968, 420374, 420779, 421172, 421578, 421991, 422341, 422731, 423103, 423507, 423907, 424280, 424670, 425071, 425436, 425810, 426189, 426599, 426994, 427387, 427783]","[419212, 419700, 420066, 420462, 420866, 421261, 421663, 422089, 422450, 422857, 423222, 423641, 424035, 424409, 424785, 425185, 425555, 425916, 426305, 426731, 427137, 427475, 427905]","[204, 36, 208, 57, 14, 14, 115, 6, 185, 192, 198, 173, 182, 187, 174, 157, 142, 104, 128, 173, 181, 92, 159]","[419135, 419632, 419974, 420382, 420820, 421177, 421584, 421996, 422347, 422795, 423109, 423568, 423968, 424341, 424677, 425119, 425492, 425858, 426196, 426663, 427000, 427396, 427790]","[418880, 419279, 419679, 420079, 420480, 420879, 421279, 421679, 422011, 422361, 422751, 423123, 423527, 423927, 424300, 424690, 425091, 425456, 425830, 426209, 426619, 427014, 427407, 427803]",69,OR,U,R,ITMSR,1.1
3,600,trial,0,15,15,15,trial,"['S', 'S', 'S', 'S', 'S', 'S', 'S', 'C', 'C', 'C', 'C', 'C', 'C', 'C', 'C', 'C', 'C', 'C', 'C', 'C', 'C', 'C', 'C']","[433584, 434530, 435112, 435739, 436318, 436895, 437470, 438105, 438657, 439184, 439761, 440302, 440790, 441345, 441912, 442494, 443059, 443667, 444164, 444704, 445240, 445795, 446325]","[433717, 434637, 435229, 435836, 436429, 437008, 437592, 438221, 438805, 439306, 439894, 440427, 440925, 441507, 442066, 442674, 443237, 443804, 444332, 444877, 445423, 445936, 446492]","[227, 9, 248, 243, 40, 4, 47, 48, 45, 40, 51, 47, 42, 66, 69, 45, 61, 60, 51, 50, 61, 0, 20]","[433633, 434536, 435168, 435780, 436369, 436947, 437525, 438164, 438725, 439241, 439821, 440359, 440854, 441424, 441987, 442580, 443151, 443723, 444243, 444786, 445322, 445859, 446408]","[433423, 434023, 434623, 435223, 435823, 436423, 437023, 437623, 438125, 438677, 439204, 439781, 440322, 440810, 441365, 441932, 442514, 443079, 443687, 444184, 444724, 445260, 445815, 446345]",69,OR,U,R,ITMSR,1.1
2,400,trial,0,16,16,16,trial,"['S', 'S', 'S', 'S', 'S', 'S', 'S', 'C', 'C', 'C', 'C', 'C', 'C', 'C', 'C', 'C', 'C', 'C', 'C', 'C', 'C', 'C', 'C']","[452350, 452738, 453147, 453518, 453925, 454315, 454723, 455184, 455536, 455902, 456315, 456715, 457108, 457497, 457881, 458288, 458662, 459055, 459474, 459856, 460252, 460667, 461053]","[452464, 452846, 453258, 453640, 454049, 454436, 454836, 455316, 455668, 456055, 456440, 456863, 457249, 457640, 458022, 458439, 458807, 459253, 459631, 460040, 460401, 460780, 461162]","[197, 162, 148, 145, 85, 107, 106, 165, 163, 109, 115, 164, 187, 151, 200, 195, 230, 235, 222, 11, 213, 209, 147]","[452405, 452793, 453192, 453525, 453982, 454372, 454772, 455243, 455596, 455972, 456374, 456788, 457181, 457570, 457952, 458369, 458736, 459161, 459553, 459941, 460257, 460673, 461060]","[451681, 452081, 452482, 452882, 453282, 453682, 454082, 454482, 455204, 455556, 455922, 456335, 456735, 457128, 457517, 457901, 458308, 458682, 459075, 459494, 459876, 460272, 460687, 461073]",69,OR,U,R,ITMSR,1.1
4,600,trial,0,17,17,17,trial,"['S', 'S', 'S', 'S', 'S', 'S', 'S', 'S', 'C', 'C', 'C', 'C', 'C', 'C', 'C', 'C', 'C', 'C', 'C', 'C', 'C', 'C', 'C', 'C']","[467023, 467304, 467917, 468548, 469146, 469754, 470312, 470896, 471493, 472025, 472559, 473136, 473648, 474200, 474724, 475235, 475762, 476326, 476881, 477391, 477904, 478443, 478945, 479443]","[467126, 467439, 468041, 468670, 469262, 469876, 470436, 471021, 471618, 472165, 472695, 473268, 473778, 474299, 474818, 475361, 475925, 476487, 477012, 477537, 478050, 478556, 479082, 479587]","[63, 167, 22, 240, 29, 15, 231, 3, 27, 216, 240, 222, 234, 189, 167, 244, 245, 244, 216, 199, 226, 186, 215, 1]","[467064, 467374, 467922, 468555, 469196, 469801, 470371, 470958, 471554, 472095, 472623, 473196, 473706, 474206, 474777, 475303, 475841, 476411, 476944, 477462, 477911, 478450, 479017, 479516]","[466837, 467436, 468036, 468636, 469236, 469836, 470436, 471036, 471513, 472045, 472579, 473156, 473668, 474220, 474744, 475255, 475782, 476346, 476901, 477411, 477924, 478464, 478965, 479463]",69,OR,U,R,ITMSR,1.1
2,600,trial,0,18,18,18,trial,"['S', 'S', 'S', 'S', 'S', 'S', 'S', 'S', 'C', 'C', 'C', 'C', 'C', 'C', 'C', 'C', 'C', 'C', 'C', 'C', 'C', 'C', 'C', 'C']","[485273, 485553, 486083, 486702, 487317, 487897, 488544, 489066, 489683, 490258, 490821, 491389, 491940, 492461, 493069, 493612, 494139, 494704, 495242, 495785, 496312, 496882, 497403, 497894]","[485373, 485736, 486218, 486833, 487449, 488010, 488665, 489203, 489793, 490409, 490997, 491538, 492091, 492634, 493231, 493789, 494338, 494887, 495418, 495920, 496489, 497046, 497613, 498084]","[150, 9, 13, 17, 25, 247, 206, 228, 219, 9, 37, 29, 10, 20, 29, 45, 38, 16, 254, 216, 242, 234, 2, 15]","[485316, 485681, 486149, 486772, 487380, 487954, 488606, 489126, 489733, 490333, 490906, 491464, 492010, 492537, 493152, 493693, 494243, 494796, 495341, 495848, 496404, 496944, 497534, 497994]","[485037, 485637, 486237, 486837, 487437, 488037, 488637, 489237, 489703, 490278, 490841, 491409, 491960, 492481, 493089, 493632, 494159, 494724, 495262, 495805, 496332, 496902, 497423, 497914]",69,OR,U,R,ITMSR,1.1
3,600,trial,0,19,19,19,trial,"['S', 'S', 'S', 'S', 'S', 'S', 'S', 'S', 'C', 'C', 'C', 'C', 'C', 'C', 'C', 'C', 'C', 'C', 'C', 'C', 'C', 'C', 'C', 'C']","[503535, 503791, 504394, 505030, 505628, 506190, 506768, 507401, 508000, 508557, 509130, 509711, 510300, 510835, 511409, 511991, 512533, 513095, 513610, 514145, 514684, 515228, 515751, 516264]","[503619, 503958, 504566, 505155, 505771, 506313, 506930, 507542, 508149, 508718, 509279, 509867, 510426, 511000, 511533, 512182, 512660, 513258, 513779, 514326, 514895, 515474, 515982, 516531]","[185, 14, 78, 28, 50, 11, 50, 51, 28, 29, 254, 45, 0, 19, 239, 64, 242, 19, 67, 55, 79, 87, 58, 83]","[503543, 503854, 504489, 505101, 505696, 506253, 506856, 507478, 508082, 508644, 509206, 509793, 510368, 510932, 511473, 512097, 512603, 513174, 513702, 514248, 514801, 515353, 515865, 516370]","[503358, 503958, 504558, 505158, 505758, 506358, 506958, 507558, 508020, 508577, 509150, 509731, 510320, 510855, 511429, 512011, 512553, 513115, 513630, 514165, 514704, 515248, 515771, 516284]",69,OR,U,R,ITMSR,1.1
3,400,trial,0,20,20,20,trial,"['S', 'S', 'S', 'S', 'S', 'C', 'C', 'C', 'C', 'C', 'C', 'C', 'C', 'C', 'C', 'C', 'C', 'C', 'C', 'C', 'C']","[522907, 523310, 523692, 524094, 524508, 524924, 525274, 525669, 526049, 526443, 526832, 527211, 527623, 528010, 528395, 528752, 529146, 529570, 529946, 530327, 530681]","[523020, 523422, 523812, 524225, 524624, 525019, 525388, 525788, 526196, 526604, 526977, 527362, 527749, 528141, 528535, 528908, 529295, 529695, 530098, 530466, 530834]","[20, 26, 15, 15, 249, 149, 196, 148, 186, 217, 191, 192, 176, 186, 191, 208, 188, 190, 218, 199, 169]","[522912, 523315, 523697, 524170, 524513, 524930, 525280, 525675, 526130, 526523, 526914, 527288, 527629, 528016, 528472, 528839, 529231, 529576, 530029, 530398, 530762]","[521817, 522216, 522616, 523016, 523416, 523816, 524216, 524616, 524944, 525294, 525689, 526069, 526464, 526852, 527232, 527643, 528030, 528415, 528772, 529166, 529590, 529966, 530348, 530701]",69,OR,U,R,ITMSR,1.1
1,600,trial,0,21,21,21,trial,"['S', 'S', 'S', 'S', 'S', 'S', 'C', 'C', 'C', 'C', 'C', 'C', 'C', 'C', 'C', 'C', 'C', 'C', 'C', 'C', 'C', 'C']","[537289, 537971, 538566, 539149, 539755, 540347, 540907, 541493, 542025, 542561, 543068, 543639, 544143, 544710, 545264, 545813, 546368, 546896, 547423, 547963, 548494, 549007]","[537417, 538098, 538690, 539268, 539887, 540492, 541097, 541677, 542243, 542752, 543265, 543835, 544418, 544985, 545547, 546087, 546677, 547193, 547763, 548267, 548782]","[53, 29, 19, 196, 171, 218, 41, 44, 54, 3, 60, 54, 81, 78, 83, 87, 81, 55, 58, 78, 87]","[537351, 537974, 538570, 539155, 539808, 540432, 541001, 541584, 542141, 542666, 543174, 543730, 544276, 544864, 545440, 545970, 546557, 547048, 547607, 548164, 548498]","[536217, 536816, 537416, 538016, 538616, 539216, 539816, 540417, 540928, 541513, 542045, 542581, 543088, 543660, 544163, 544730, 545284, 545833, 546388, 546916, 547443, 547983, 548514, 549027]",69,OR,U,R,ITMSR,1.1
0,400,trial,0,22,22,22,trial,"['S', 'S', 'S', 'S', 'C', 'C', 'C', 'C', 'C', 'C', 'C', 'C', 'C', 'C', 'C', 'C', 'C', 'C', 'C', 'C']","[556078, 556465, 556873, 557286, 557680, 558077, 558452, 558867, 559243, 559633, 560012, 560376, 560766, 561136, 561518, 561889, 562267, 562651, 563050, 563356]","[556175, 556566, 556964, 557375, 557786, 558181, 558589, 558965, 559383, 559763, 560140, 560487, 560888, 561288, 561675, 562020, 562400, 562811, 563193, 563533]","[12, 50, 74, 93, 64, 43, 57, 52, 47, 21, 16, 49, 30, 55, 28, 47, 28, 40, 30, 9]","[556119, 556471, 556877, 557290, 557685, 558083, 558525, 558872, 559249, 559708, 560080, 560381, 560772, 561141, 561598, 561893, 562273, 562656, 563132, 563458]","[554541, 554939, 555339, 555739, 556139, 556539, 556939, 557339, 557700, 558097, 558472, 558887, 559263, 559653, 560032, 560396, 560786, 561156, 561538, 561909, 562287, 562671, 563070, 563376]",69,OR,U,R,ITMSR,1.1
0,600,trial,0,23,23,23,trial,"['S', 'S', 'S', 'S', 'S', 'S', 'S', 'C', 'C', 'C', 'C', 'C', 'C', 'C', 'C', 'C', 'C', 'C', 'C', 'C', 'C', 'C', 'C']","[569369, 570028, 570668, 571266, 571863, 572433, 573032, 573629, 574188, 574716, 575267, 575763, 576326, 576875, 577419, 577946, 578487, 579022, 579557, 580113, 580635, 581150, 581675]","[569526, 570191, 570781, 571383, 571972, 572561, 573160, 573761, 574349, 574924, 575433, 575970, 576482, 577057, 577614, 578255, 578735, 579289, 579825, 580330, 580894, 581496]","[246, 89, 26, 47, 33, 35, 37, 8, 16, 43, 35, 70, 50, 243, 30, 248, 231, 45, 40, 42, 20, 29]","[569374, 570032, 570673, 571271, 571868, 572437, 573036, 573633, 574279, 574821, 575272, 575874, 576329, 576978, 577423, 577950, 578640, 579025, 579706, 580118, 580640, 581347]","[568930, 569529, 570129, 570729, 571329, 571929, 572529, 573129, 573649, 574209, 574736, 575287, 575783, 576346, 576896, 577439, 577966, 578507, 579042, 579577, 580133, 580655, 581170, 581695]",69,OR,U,R,ITMSR,1.1
4,600,trial,0,24,24,24,trial,"['S', 'S', 'S', 'S', 'S', 'S', 'S', 'C', 'C', 'C', 'C', 'C', 'C', 'C', 'C', 'C', 'C', 'C', 'C', 'C', 'C', 'C', 'C']","[587579, 588133, 588811, 589376, 589979, 590546, 591165, 591782, 592342, 592866, 593439, 593977, 594553, 595083, 595672, 596207, 596761, 597291, 597868, 598382, 598938, 599474, 600030]","[587716, 588283, 588925, 589500, 590117, 590666, 591298, 591919, 592503, 593041, 593584, 594104, 594676, 595268, 595840, 596382, 596932, 597499, 598036, 598593, 599159, 599640, 600181]","[37, 63, 99, 99, 162, 132, 119, 126, 110, 116, 123, 130, 89, 95, 125, 127, 115, 123, 129, 107, 128, 121, 133]","[587584, 588138, 588815, 589379, 589982, 590551, 591169, 591787, 592346, 592869, 593443, 593980, 594557, 595086, 595675, 596210, 596764, 597295, 597871, 598386, 598941, 599477, 600033]","[587028, 587627, 588227, 588827, 589427, 590027, 590627, 591227, 591802, 592362, 592886, 593459, 593997, 594573, 595103, 595692, 596227, 596781, 597311, 597889, 598402, 598958, 599494, 600050]",69,OR,U,R,ITMSR,1.1
3,400,trial,0,25,25,25,trial,"['S', 'S', 'S', 'S', 'S', 'S', 'S', 'C', 'C', 'C', 'C', 'C', 'C', 'C', 'C', 'C', 'C', 'C', 'C', 'C', 'C', 'C', 'C']","[606181, 606524, 606876, 607308, 607679, 608094, 608483, 608925, 609293, 609635, 609984, 610358, 610757, 611145, 611543, 611949, 612370, 612799, 613196, 613586, 613982, 614384, 614776]","[606297, 606619, 606991, 607393, 607780, 608192, 608595, 609029, 609389, 609734, 610098, 610497, 610898, 611293, 611676, 612089, 612496, 612894, 613329, 613735, 614142, 614506, 614931]","[76, 60, 79, 122, 154, 146, 128, 153, 123, 115, 127, 101, 107, 106, 117, 119, 65, 76, 94, 117, 89, 113, 120]","[606186, 606530, 606881, 607312, 607682, 608097, 608486, 608928, 609296, 609638, 609987, 610362, 610760, 611149, 611547, 611953, 612374, 612804, 613200, 613591, 613986, 614388, 614780]","[605753, 606153, 606553, 606953, 607353, 607753, 608153, 608553, 608945, 609313, 609655, 610004, 610378, 610777, 611165, 611563, 611970, 612390, 612819, 613216, 613606, 614002, 614404, 614796]",69,OR,U,R,ITMSR,1.1
1,400,trial,0,26,26,26,trial,"['S', 'S', 'S', 'S', 'S', 'S', 'S', 'C', 'C', 'C', 'C', 'C', 'C', 'C', 'C', 'C', 'C', 'C', 'C', 'C', 'C', 'C', 'C']","[620830, 621116, 621475, 621898, 622299, 622702, 623096, 623505, 623894, 624283, 624664, 625032, 625432, 625794, 626161, 626539, 626934, 627350, 627744, 628137, 628548, 628941, 629332]","[620950, 621237, 621623, 622007, 622413, 622846, 623239, 623624, 624033, 624417, 624816, 625166, 625567, 625917, 626306, 626711, 627097, 627491, 627899, 628286, 628682, 629125, 629516]","[32, 96, 106, 88, 83, 102, 123, 129, 124, 117, 130, 120, 131, 112, 113, 112, 111, 72, 91, 136, 145, 135, 119]","[620892, 621120, 621479, 621902, 622303, 622705, 623100, 623508, 623897, 624287, 624667, 625036, 625435, 625798, 626164, 626543, 626938, 627354, 627748, 628141, 628551, 628944, 629337]","[620355, 620755, 621155, 621555, 621955, 622355, 622755, 623155, 623525, 623915, 624303, 624685, 625052, 625453, 625814, 626181, 626560, 626954, 627371, 627764, 628157, 628568, 628961, 629352]",69,OR,U,R,ITMSR,1.1
1,600,trial,0,27,27,27,trial,"['S', 'S', 'S', 'S', 'S', 'S', 'S', 'S', 'C', 'C', 'C', 'C', 'C', 'C', 'C', 'C', 'C', 'C', 'C', 'C', 'C', 'C', 'C', 'C']","[635292, 635580, 636205, 636862, 637470, 638031, 638633, 639232, 639818, 640345, 640923, 641484, 642028, 642631, 643214, 643771, 644292, 644844, 645389, 645897, 646425, 647043, 647572, 648058]","[635411, 635809, 636381, 637021, 637609, 638198, 638780, 639364, 639974, 640548, 641099, 641639, 642204, 642778, 643378, 643948, 644452, 645040, 645630, 646172, 646720, 647282, 647826, 648267]","[21, 70, 106, 111, 135, 121, 93, 27, 108, 54, 50, 63, 87, 87, 67, 74, 32, 76, 80, 70, 79, 86, 77, 70]","[635298, 635584, 636209, 636866, 637473, 638035, 638639, 639238, 639822, 640350, 640928, 641489, 642033, 642635, 643219, 643776, 644371, 644848, 645393, 645901, 646429, 647047, 647576, 648185]","[635127, 635727, 636327, 636928, 637528, 638128, 638728, 639328, 639838, 640365, 640943, 641504, 642049, 642651, 643234, 643791, 644312, 644865, 645409, 645917, 646445, 647063, 647592, 648078]",69,OR,U,R,ITMSR,1.1
0,400,trial,0,28,28,28,trial,"['S', 'S', 'S', 'S', 'S', 'S', 'S', 'C', 'C', 'C', 'C', 'C', 'C', 'C', 'C', 'C', 'C', 'C', 'C', 'C', 'C', 'C', 'C']","[654356, 654685, 654985, 655388, 655774, 656200, 656605, 657012, 657429, 657837, 658220, 658609, 659013, 659400, 659762, 660164, 660578, 660972, 661362, 661744, 662138, 662528, 662922]","[654486, 654786, 655117, 655516, 655892, 656320, 656747, 657142, 657559, 657987, 658374, 658738, 659118, 659525, 659923, 660331, 660696, 661082, 661479, 661870, 662282, 662686, 663084]","[8, 16, 85, 58, 90, 108, 105, 115, 82, 71, 107, 113, 104, 49, 78, 51, 240, 13, 46, 62, 60, 70, 68]","[654363, 654692, 654990, 655393, 655778, 656204, 656609, 657016, 657433, 657842, 658223, 658612, 659017, 659404, 659766, 660169, 660584, 660978, 661367, 661748, 662142, 662532, 662926]","[653872, 654272, 654672, 655072, 655472, 655873, 656272, 656672, 657032, 657449, 657857, 658240, 658629, 659033, 659420, 659782, 660184, 660598, 660993, 661382, 661764, 662158, 662548, 662942]",69,OR,U,R,ITMSR,1.1
0,600,trial,0,29,29,29,trial,"['S', 'S', 'S', 'S', 'S', 'S', 'S', 'C', 'C', 'C', 'C', 'C', 'C', 'C', 'C', 'C', 'C', 'C', 'C', 'C', 'C', 'C', 'C']","[668864, 669652, 670288, 670904, 671473, 672099, 672683, 673272, 673844, 674406, 674965, 675489, 676038, 676605, 677137, 677651, 678204, 678776, 679308, 679830, 680388, 680921, 681458]","[669017, 669839, 670494, 671085, 671646, 672295, 672850, 673448, 674020, 674603, 675146, 675664, 676237, 676819, 677369, 677881, 678429, 678905, 679527, 680037, 680597, 681106, 681649]","[34, 114, 114, 135, 90, 97, 77, 103, 88, 92, 96, 91, 126, 99, 125, 107, 124, 125, 138, 140, 121, 130, 141]","[668940, 669657, 670292, 670907, 671477, 672103, 672688, 673276, 673848, 674410, 674969, 675493, 676042, 676611, 677141, 677655, 678207, 678780, 679311, 679833, 680392, 680924, 681461]","[668533, 669133, 669733, 670333, 670934, 671533, 672133, 672733, 673292, 673864, 674426, 674985, 675509, 676058, 676625, 677157, 677671, 678224, 678796, 679328, 679851, 680408, 680941, 681478]",69,OR,U,R,ITMSR,1.1
3,600,trial,0,30,30,30,trial,"['S', 'S', 'S', 'S', 'S', 'S', 'S', 'C', 'C', 'C', 'C', 'C', 'C', 'C', 'C', 'C', 'C', 'C', 'C', 'C', 'C', 'C', 'C']","[714840, 715522, 716150, 716788, 717380, 717961, 718530, 719133, 719670, 720232, 720797, 721371, 721942, 722529, 723092, 723657, 724210, 724772, 725316, 725856, 726381, 726929, 727486]","[714953, 715708, 716286, 716910, 717534, 718093, 718684, 719281, 719857, 720474, 720986, 721538, 722128, 722720, 723288, 723849, 724444, 724984, 725530, 726052, 726631, 727163, 727705]","[121, 153, 86, 147, 151, 159, 126, 146, 120, 108, 123, 126, 110, 124, 132, 125, 110, 131, 133, 141, 117, 127, 144]","[714844, 715525, 716154, 716791, 717383, 717964, 718533, 719137, 719674, 720236, 720801, 721375, 721946, 722532, 723095, 723660, 724214, 724775, 725320, 725859, 726384, 726932, 727489]","[714426, 715025, 715625, 716225, 716825, 717425, 718025, 718625, 719153, 719690, 720252, 720817, 721391, 721963, 722549, 723112, 723677, 724230, 724792, 725336, 725876, 726402, 726949, 727506]",69,OR,U,R,ITMSR,1.1
1,600,trial,0,31,31,31,trial,"['S', 'S', 'S', 'S', 'S', 'S', 'S', 'S', 'C', 'C', 'C', 'C', 'C', 'C', 'C', 'C', 'C', 'C', 'C', 'C', 'C', 'C', 'C', 'C']","[733297, 733590, 734220, 734785, 735410, 736002, 736615, 737208, 737819, 738381, 738947, 739503, 740030, 740593, 741144, 741707, 742235, 742793, 743347, 743843, 744372, 744957, 745498, 746051]","[733421, 733879, 734447, 735064, 735598, 736225, 736776, 737391, 737981, 738578, 739155, 739727, 740191, 740756, 741316, 741874, 742378, 742956, 743500, 744024, 744641, 745143, 745696, 746235]","[0, 57, 130, 146, 137, 132, 90, 102, 151, 106, 110, 109, 119, 109, 30, 96, 108, 96, 102, 88, 145, 94, 108, 122]","[733303, 733697, 734224, 734788, 735413, 736005, 736618, 737212, 737822, 738385, 738951, 739507, 740034, 740597, 741149, 741711, 742239, 742797, 743351, 743847, 744376, 744962, 745502, 746055]","[733095, 733696, 734296, 734896, 735496, 736096, 736696, 737296, 737839, 738401, 738967, 739523, 740050, 740613, 741165, 741727, 742255, 742813, 743367, 743863, 744392, 744977, 745518, 746072]",69,OR,U,R,ITMSR,1.1
4,600,trial,0,32,32,32,trial,"['S', 'S', 'S', 'S', 'S', 'S', 'S', 'S', 'C', 'C', 'C', 'C', 'C', 'C', 'C', 'C', 'C', 'C', 'C', 'C', 'C', 'C', 'C', 'C']","[751865, 752193, 752844, 753433, 754013, 754642, 755204, 755776, 756391, 756913, 757505, 758087, 758659, 759240, 759774, 760343, 760903, 761469, 762024, 762583, 763122, 763702, 764232, 764778]","[751998, 752388, 753008, 753606, 754191, 754774, 755386, 755988, 756552, 757128, 757669, 758270, 758825, 759393, 759937, 760508, 761057, 761664, 762204, 762804, 763341, 763865, 764440, 764988]","[93, 121, 147, 121, 140, 117, 130, 134, 160, 143, 135, 148, 148, 109, 108, 97, 117, 124, 128, 118, 120, 115, 123, 114]","[751870, 752197, 752847, 753437, 754016, 754647, 755208, 755780, 756395, 756917, 757508, 758090, 758662, 759243, 759778, 760347, 760907, 761474, 762028, 762587, 763125, 763705, 764235, 764782]","[751698, 752299, 752898, 753498, 754098, 754698, 755298, 755898, 756411, 756933, 757525, 758107, 758679, 759260, 759794, 760364, 760923, 761489, 762044, 762603, 763142, 763722, 764252, 764798]",69,OR,U,R,ITMSR,1.1
2,600,trial,0,33,33,33,trial,"['S', 'S', 'S', 'S', 'S', 'S', 'S', 'S', 'C', 'C', 'C', 'C', 'C', 'C', 'C', 'C', 'C', 'C', 'C', 'C', 'C', 'C', 'C', 'C']","[770412, 770745, 771340, 771972, 772608, 773170, 773727, 774320, 774933, 775520, 776074, 776637, 777198, 777735, 778296, 778875, 779427, 779965, 780547, 781093, 781627, 782180, 782751, 783341]","[770516, 770921, 771564, 772170, 772745, 773317, 773922, 774521, 775127, 775693, 776294, 776809, 777377, 777942, 778550, 779063, 779638, 780195, 780796, 781377, 781941, 782435, 783034]","[30, 124, 115, 137, 118, 106, 106, 117, 140, 87, 73, 80, 67, 135, 106, 78, 75, 80, 78, 42, 106, 72, 71]","[770418, 770749, 771343, 771975, 772612, 773173, 773730, 774323, 774935, 775524, 776078, 776641, 777203, 777739, 778300, 778881, 779431, 779969, 780551, 781099, 781630, 782184, 782756]","[770239, 770839, 771439, 772039, 772639, 773239, 773839, 774439, 774953, 775540, 776094, 776657, 777218, 777755, 778316, 778895, 779447, 779985, 780567, 781113, 781647, 782200, 782771, 783362]",69,OR,U,R,ITMSR,1.1
2,600,trial,0,34,34,34,trial,"['S', 'S', 'S', 'S', 'S', 'S', 'S', 'C', 'C', 'C', 'C', 'C', 'C', 'C', 'C', 'C', 'C', 'C', 'C', 'C', 'C', 'C', 'C']","[789222, 789883, 790516, 791121, 791702, 792304, 792899, 793490, 794065, 794605, 795171, 795714, 796275, 796818, 797384, 797897, 798459, 798994, 799508, 800035, 800556, 801113, 801658]","[789365, 790011, 790664, 791258, 791905, 792518, 793108, 793801, 794344, 794900, 795390, 795952, 796544, 797120, 797667, 798204, 798722, 799243, 799738, 800310, 800784, 801351, 801865]","[61, 68, 94, 92, 85, 76, 77, 77, 39, 62, 24, 59, 60, 79, 46, 56, 55, 43, 73, 65, 106, 93, 108]","[789227, 789886, 790520, 791124, 791706, 792308, 792903, 793495, 794070, 794609, 795176, 795718, 796278, 796822, 797387, 797901, 798462, 798997, 799512, 800039, 800559, 801116, 801662]","[788795, 789395, 789995, 790595, 791195, 791795, 792395, 792995, 793510, 794085, 794626, 795191, 795735, 796295, 796838, 797404, 797917, 798479, 799014, 799528, 800055, 800576, 801133, 801678]",69,OR,U,R,ITMSR,1.1
4,400,trial,0,35,35,35,trial,"['S', 'S', 'S', 'S', 'S', 'S', 'S', 'S', 'C', 'C', 'C', 'C', 'C', 'C', 'C', 'C', 'C', 'C', 'C', 'C', 'C', 'C', 'C', 'C']","[807265, 807553, 807837, 808224, 808638, 809016, 809439, 809834, 810238, 810619, 811002, 811385, 811796, 812184, 812555, 812923, 813308, 813683, 814032, 814415, 814815, 815194, 815578, 815967]","[807383, 807674, 807956, 808337, 808756, 809142, 809537, 809944, 810351, 810734, 811111, 811533, 811928, 812305, 812688, 813068, 813426, 813793, 814142, 814528, 814923, 815323, 815686, 816087]","[33, 70, 104, 128, 112, 151, 122, 130, 149, 136, 146, 132, 138, 130, 111, 103, 124, 126, 130, 120, 103, 127, 102, 107]","[807269, 807557, 807841, 808227, 808641, 809019, 809442, 809837, 810242, 810622, 811005, 811387, 811798, 812187, 812558, 812926, 813313, 813686, 814035, 814418, 814819, 815198, 815582, 815971]","[807066, 807467, 807866, 808266, 808666, 809066, 809466, 809866, 810258, 810639, 811022, 811405, 811816, 812205, 812575, 812943, 813328, 813703, 814052, 814435, 814835, 815214, 815598, 815987]",69,OR,U,R,ITMSR,1.1
3,600,trial,0,36,36,36,trial,"['S', 'S', 'S', 'S', 'S', 'S', 'S', 'S', 'C', 'C', 'C', 'C', 'C', 'C', 'C', 'C', 'C', 'C', 'C', 'C', 'C', 'C', 'C', 'C']","[821805, 822147, 822793, 823407, 824043, 824635, 825195, 825782, 826363, 826898, 827419, 827950, 828508, 829038, 829591, 830175, 830697, 831206, 831746, 832265, 832798, 833337, 833900, 834368]","[821895, 822359, 822926, 823650, 824229, 824825, 825367, 825954, 826520, 827066, 827616, 828153, 828693, 829218, 829821, 830355, 830853, 831384, 831911, 832504, 833054, 833580, 834026, 834529]","[117, 126, 134, 139, 115, 139, 129, 146, 131, 137, 115, 139, 150, 145, 123, 139, 146, 121, 123, 139, 132, 136, 12, 101]","[821808, 822150, 822796, 823410, 824045, 824638, 825198, 825785, 826368, 826901, 827423, 827953, 828511, 829041, 829594, 830178, 830700, 831209, 831750, 832268, 832802, 833340, 833905, 834372]","[821648, 822248, 822848, 823448, 824048, 824648, 825248, 825848, 826383, 826918, 827439, 827970, 828528, 829058, 829612, 830195, 830717, 831226, 831766, 832285, 832818, 833357, 833921, 834388]",69,OR,U,R,ITMSR,1.1
1,400,trial,0,37,37,37,trial,"['S', 'S', 'S', 'S', 'S', 'S', 'S', 'S', 'C', 'C', 'C', 'C', 'C', 'C', 'C', 'C', 'C', 'C', 'C', 'C', 'C', 'C', 'C', 'C']","[840050, 840329, 840623, 841003, 841382, 841791, 842188, 842574, 843015, 843396, 843766, 844163, 844568, 844969, 845353, 845758, 846145, 846535, 846971, 847354, 847719, 848098, 848488, 848886]","[840169, 840457, 840743, 841164, 841501, 841919, 842313, 842733, 843153, 843516, 843911, 844342, 844749, 845140, 845501, 845924, 846304, 846671, 847082, 847479, 847933, 848259, 848653, 849081]","[42, 93, 125, 141, 129, 155, 134, 112, 134, 132, 120, 121, 141, 109, 119, 129, 124, 119, 127, 126, 127, 115, 111, 119]","[840055, 840332, 840626, 841006, 841385, 841794, 842190, 842577, 843018, 843399, 843769, 844166, 844571, 844974, 845358, 845761, 846148, 846539, 846974, 847357, 847722, 848101, 848491, 848889]","[839848, 840247, 840647, 841048, 841448, 841848, 842248, 842648, 843035, 843416, 843786, 844183, 844589, 844989, 845373, 845778, 846166, 846555, 846991, 847374, 847739, 848118, 848508, 848906]",69,OR,U,R,ITMSR,1.1
5,400,trial,0,38,38,38,trial,"['S', 'S', 'S', 'S', 'S', 'S', 'S', 'S', 'C', 'C', 'C', 'C', 'C', 'C', 'C', 'C', 'C', 'C', 'C', 'C', 'C', 'C', 'C', 'C']","[854774, 855057, 855343, 855766, 856165, 856536, 856965, 857374, 857753, 858157, 858555, 858951, 859334, 859732, 860095, 860499, 860910, 861313, 861677, 862090, 862471, 862875, 863267, 863664]","[854904, 855174, 855490, 855915, 856279, 856660, 857088, 857527, 857883, 858289, 858696, 859113, 859468, 859841, 860229, 860662, 861075, 861438, 861834, 862270, 862698, 863002, 863460, 863896]","[98, 102, 126, 139, 133, 141, 136, 129, 131, 135, 129, 143, 139, 128, 112, 107, 112, 109, 106, 129, 118, 117, 108, 131]","[854777, 855061, 855347, 855769, 856168, 856539, 856967, 857377, 857756, 858160, 858559, 858954, 859337, 859736, 860099, 860504, 860913, 861317, 861681, 862093, 862474, 862879, 863270, 863667]","[854590, 854990, 855390, 855790, 856190, 856590, 856990, 857390, 857773, 858177, 858575, 858971, 859354, 859752, 860115, 860519, 860930, 861333, 861698, 862110, 862491, 862895, 863287, 863684]",69,OR,U,R,ITMSR,1.1
1,400,trial,0,39,39,39,trial,"['S', 'S', 'S', 'S', 'S', 'S', 'S', 'S', 'C', 'C', 'C', 'C', 'C', 'C', 'C', 'C', 'C', 'C', 'C', 'C', 'C', 'C', 'C', 'C']","[869244, 869499, 869847, 870239, 870625, 871010, 871422, 871818, 872232, 872640, 873024, 873412, 873804, 874183, 874546, 874949, 875339, 875725, 876106, 876504, 876908, 877300, 877679, 878068]","[869318, 869626, 869999, 870425, 870773, 871164, 871579, 872017, 872348, 872742, 873169, 873604, 873965, 874308, 874676, 875104, 875488, 875852, 876263, 876676, 877053, 877421, 877872, 878257]","[113, 125, 146, 146, 122, 136, 135, 142, 128, 134, 123, 134, 138, 132, 133, 131, 142, 133, 136, 142, 143, 147, 129, 64]","[869248, 869502, 869850, 870241, 870628, 871013, 871426, 871821, 872236, 872643, 873028, 873415, 873807, 874186, 874549, 874953, 875342, 875728, 876109, 876507, 876911, 877303, 877682, 878072]","[869074, 869474, 869874, 870274, 870674, 871074, 871474, 871874, 872252, 872660, 873044, 873432, 873824, 874203, 874566, 874969, 875359, 875745, 876126, 876524, 876929, 877320, 877699, 878088]",69,OR,U,R,ITMSR,1.1
0,600,trial,0,40,40,40,trial,"['B', 'S', 'S', 'S', 'S', 'S', 'S', 'S', 'C', 'C', 'C', 'C', 'C', 'C', 'C', 'C', 'C', 'C', 'C', 'C', 'C', 'C', 'C', 'C']","[883724, 884108, 884876, 885500, 886136, 886723, 887319, 887924, 888471, 889026, 889595, 890149, 890695, 891254, 891816, 892370, 892900, 893458, 893986, 894538, 895090, 895613, 896163, 896704]","[883881, 884256, 885058, 885679, 886318, 886926, 887480, 888102, 888690, 889223, 889851, 890353, 890928, 891444, 892067, 892541, 893175, 893638, 894198, 894733, 895296, 895798, 896365, 896837]","[87, 109, 147, 156, 162, 155, 142, 148, 145, 147, 155, 153, 150, 148, 152, 152, 141, 147, 162, 140, 152, 140, 143, 141]","[883724, 884111, 884879, 885502, 886137, 886725, 887322, 887926, 888474, 889029, 889597, 890152, 890698, 891257, 891820, 892374, 892903, 893461, 893989, 894541, 895093, 895616, 896165, 896707]","[883736, 884336, 884936, 885536, 886136, 886736, 887336, 887937, 888492, 889047, 889615, 890169, 890715, 891274, 891836, 892390, 892920, 893478, 894006, 894558, 895110, 895633, 896183, 896724]",69,OR,U,R,ITMSR,1.1
3,400,trial,0,41,41,41,trial,"['S', 'S', 'S', 'S', 'S', 'S', 'S', 'S', 'C', 'C', 'C', 'C', 'C', 'C', 'C', 'C', 'C', 'C', 'C', 'C', 'C', 'C', 'C', 'C']","[902610, 902925, 903213, 903620, 904027, 904417, 904826, 905208, 905630, 905997, 906395, 906798, 907171, 907545, 907928, 908299, 908683, 909076, 909436, 909812, 910192, 910568, 910964, 911347]","[902683, 903032, 903343, 903771, 904143, 904547, 904943, 905360, 905741, 906121, 906535, 906907, 907301, 907677, 908067, 908445, 908834, 909192, 909552, 909974, 910337, 910708, 911113, 911497]","[125, 159, 158, 156, 165, 155, 124, 147, 146, 131, 134, 126, 138, 107, 137, 134, 121, 139, 119, 130, 131, 140, 130, 144]","[902615, 902927, 903215, 903622, 904030, 904419, 904830, 905211, 905633, 906000, 906398, 906802, 907175, 907548, 907931, 908302, 908686, 909079, 909440, 909816, 910195, 910571, 910968, 911350]","[902454, 902854, 903255, 903654, 904054, 904454, 904854, 905254, 905650, 906017, 906415, 906818, 907191, 907565, 907949, 908319, 908703, 909096, 909456, 909832, 910212, 910588, 910984, 911367]",69,OR,U,R,ITMSR,1.1
2,400,trial,0,42,42,42,trial,"['S', 'S', 'S', 'S', 'S', 'S', 'S', 'S', 'C', 'C', 'C', 'C', 'C', 'C', 'C', 'C', 'C', 'C', 'C', 'C', 'C', 'C', 'C', 'C']","[917055, 917324, 917670, 918086, 918471, 918838, 919230, 919663, 920058, 920438, 920823, 921196, 921570, 921943, 922295, 922727, 923116, 923516, 923899, 924286, 924659, 925074, 925473, 925860]","[917164, 917460, 917838, 918241, 918615, 918980, 919379, 919794, 920198, 920564, 920953, 921331, 921697, 922097, 922417, 922864, 923296, 923635, 924028, 924435, 924780, 925188, 925594, 925988]","[136, 127, 129, 161, 115, 108, 125, 148, 156, 150, 154, 151, 158, 151, 140, 148, 150, 141, 141, 156, 130, 140, 141, 122]","[917059, 917328, 917673, 918088, 918475, 918841, 919233, 919665, 920060, 920441, 920825, 921198, 921572, 921946, 922299, 922730, 923119, 923518, 923902, 924290, 924662, 925078, 925476, 925863]","[916898, 917298, 917698, 918098, 918498, 918898, 919298, 919698, 920078, 920458, 920843, 921217, 921590, 921963, 922315, 922747, 923137, 923536, 923919, 924306, 924679, 925094, 925493, 925880]",69,OR,U,R,ITMSR,1.1
4,600,trial,0,43,43,43,trial,"['S', 'S', 'S', 'S', 'S', 'S', 'S', 'S', 'C', 'C', 'C', 'C', 'C', 'C', 'C', 'C', 'C', 'C', 'C', 'C', 'C', 'C', 'C', 'C']","[931729, 932003, 932722, 933305, 933901, 934517, 935123, 935689, 936292, 936827, 937411, 937960, 938527, 939077, 939669, 940216, 940769, 941313, 941817, 942362, 942937, 943476, 944006, 944535]","[931820, 932130, 932896, 933541, 934135, 934728, 935301, 935899, 936478, 937073, 937654, 938202, 938753, 939362, 939882, 940446, 941000, 941580, 942093, 942610, 943175, 943668, 944287]","[111, 125, 164, 176, 156, 139, 157, 156, 151, 136, 134, 144, 143, 144, 151, 133, 133, 144, 129, 133, 142, 129, 144]","[931732, 932007, 932725, 933307, 933904, 934521, 935126, 935692, 936295, 936830, 937414, 937963, 938530, 939080, 939672, 940219, 940772, 941316, 941820, 942365, 942940, 943479, 944009]","[931575, 932174, 932774, 933374, 933975, 934574, 935174, 935774, 936312, 936847, 937432, 937980, 938547, 939097, 939689, 940236, 940789, 941333, 941837, 942382, 942957, 943496, 944026, 944556]",69,OR,U,R,ITMSR,1.1
0,400,trial,0,44,44,44,trial,"['B', 'S', 'S', 'S', 'S', 'S', 'S', 'S', 'C', 'C', 'C', 'C', 'C', 'C', 'C', 'C', 'C', 'C', 'C', 'C', 'C', 'C', 'C', 'C']","[949862, 950265, 950610, 950986, 951402, 951795, 952206, 952617, 953029, 953415, 953795, 954189, 954566, 954939, 955331, 955740, 956145, 956537, 956917, 957317, 957711, 958115, 958533, 958943]","[949981, 950380, 950737, 951099, 951515, 951918, 952329, 952743, 953156, 953545, 953944, 954310, 954695, 955066, 955468, 955893, 956277, 956672, 957095, 957468, 957839, 958217, 958664, 959050]","[224, 115, 138, 131, 150, 136, 145, 139, 152, 149, 138, 155, 135, 133, 71, 90, 129, 90, 129, 118, 142, 120, 134, 124]","[949888, 950269, 950614, 950989, 951404, 951798, 952209, 952621, 953031, 953417, 953798, 954192, 954568, 954942, 955335, 955744, 956148, 956541, 956921, 957321, 957714, 958119, 958536, 958946]","[949875, 950275, 950675, 951075, 951475, 951875, 952275, 952675, 953049, 953435, 953816, 954209, 954586, 954959, 955352, 955760, 956165, 956557, 956937, 957337, 957731, 958135, 958553, 958963]",69,OR,U,R,ITMSR,1.1
3,400,trial,0,45,45,45,trial,"['S', 'S', 'S', 'S', 'S', 'S', 'S', 'C', 'C', 'C', 'C', 'C', 'C', 'C', 'C', 'C', 'C', 'C', 'C', 'C', 'C', 'C', 'C']","[965086, 965444, 965824, 966250, 966574, 967034, 967447, 967851, 968236, 968636, 968996, 969388, 969780, 970167, 970535, 970919, 971316, 971676, 972064, 972452, 972847, 973235, 973618]","[965200, 965590, 965959, 966331, 966714, 967177, 967578, 967972, 968374, 968762, 969139, 969530, 969912, 970290, 970655, 971062, 971437, 971806, 972210, 972598, 972964, 973375, 973764]","[49, 144, 95, 87, 41, 120, 125, 111, 91, 126, 86, 111, 86, 110, 83, 77, 120, 16, 91, 104, 111, 131, 117]","[965091, 965448, 965828, 966253, 966579, 967038, 967450, 967855, 968241, 968639, 969000, 969392, 969784, 970171, 970541, 970925, 971320, 971681, 972068, 972456, 972851, 973239, 973621]","[964701, 965101, 965501, 965901, 966301, 966701, 967101, 967501, 967871, 968256, 968656, 969016, 969408, 969800, 970187, 970555, 970939, 971336, 971696, 972084, 972472, 972867, 973255, 973638]",69,OR,U,R,ITMSR,1.1
5,600,trial,0,46,46,46,trial,"['B', 'S', 'S', 'S', 'S', 'S', 'S', 'S', 'C', 'C', 'C', 'C', 'C', 'C', 'C', 'C', 'C', 'C', 'C', 'C', 'C', 'C', 'C', 'C']","[979210, 979607, 980300, 980963, 981559, 982207, 982760, 983371, 983982, 984535, 985102, 985673, 986252, 986842, 987394, 987918, 988465, 989026, 989558, 990131, 990643, 991206, 991696, 992227]","[979374, 979791, 980496, 981157, 981728, 982403, 982965, 983584, 984182, 984762, 985405, 985887, 986484, 986977, 987595, 988160, 988810, 989315, 989905, 990427, 990905, 991473, 992046]","[63, 106, 101, 164, 156, 149, 130, 135, 133, 136, 116, 136, 123, 133, 111, 119, 97, 108, 75, 123, 74, 104, 58]","[979255, 979610, 980410, 980965, 981561, 982210, 982763, 983374, 983985, 984538, 985105, 985676, 986255, 986845, 987398, 987921, 988469, 989030, 989563, 990134, 990647, 991210, 991700]","[979221, 979821, 980421, 981021, 981621, 982221, 982821, 983421, 984002, 984555, 985122, 985693, 986272, 986862, 987414, 987938, 988485, 989046, 989578, 990151, 990663, 991226, 991716, 992247]",69,OR,U,R,ITMSR,1.1
5,400,trial,0,47,47,47,trial,"['S', 'S', 'S', 'S', 'S', 'S', 'S', 'C', 'C', 'C', 'C', 'C', 'C', 'C', 'C', 'C', 'C', 'C', 'C', 'C', 'C', 'C', 'C']","[998404, 998780, 999148, 999578, 999940, 1000358, 1000767, 1001183, 1001553, 1001900, 1002301, 1002695, 1003095, 1003493, 1003890, 1004284, 1004677, 1005069, 1005444, 1005847, 1006227, 1006621, 1007020]","[998571, 998918, 999305, 999728, 1000045, 1000515, 1000936, 1001314, 1001669, 1002056, 1002477, 1002876, 1003228, 1003642, 1004039, 1004399, 1004803, 1005197, 1005599, 1005992, 1006359, 1006806, 1007217]","[52, 97, 112, 135, 81, 135, 130, 139, 74, 111, 110, 88, 48, 83, 99, 79, 107, 242, 26, 96, 90, 30, 16]","[998409, 998785, 999152, 999581, 999944, 1000361, 1000770, 1001186, 1001558, 1001904, 1002305, 1002699, 1003099, 1003497, 1003893, 1004289, 1004681, 1005073, 1005448, 1005850, 1006230, 1006625, 1007025]","[998020, 998419, 998819, 999219, 999619, 1000019, 1000419, 1000819, 1001203, 1001573, 1001920, 1002321, 1002715, 1003115, 1003513, 1003910, 1004304, 1004697, 1005089, 1005464, 1005868, 1006247, 1006641, 1007040]",69,OR,U,R,ITMSR,1.1
2,400,trial,0,48,48,48,trial,"['S', 'S', 'S', 'S', 'S', 'S', 'S', 'C', 'C', 'C', 'C', 'C', 'C', 'C', 'C', 'C', 'C', 'C', 'C', 'C', 'C', 'C', 'C']","[1012575, 1013042, 1013447, 1013882, 1014311, 1014717, 1015105, 1015512, 1015896, 1016255, 1016647, 1017050, 1017435, 1017823, 1018206, 1018590, 1018995, 1019367, 1019765, 1020150, 1020538, 1020933, 1021318]","[1012675, 1013175, 1013555, 1013996, 1014412, 1014802, 1015218, 1015592, 1016004, 1016355, 1016761, 1017189, 1017541, 1017922, 1018323, 1018703, 1019128, 1019485, 1019894, 1020260, 1020645, 1021065, 1021455]","[98, 135, 95, 138, 132, 131, 142, 130, 78, 114, 108, 122, 112, 79, 95, 51, 93, 90, 62, 78, 72, 112, 109]","[1012579, 1013046, 1013451, 1013885, 1014316, 1014720, 1015109, 1015515, 1015900, 1016259, 1016651, 1017054, 1017439, 1017827, 1018210, 1018595, 1018999, 1019371, 1019769, 1020154, 1020542, 1020936, 1021322]","[1012338, 1012738, 1013138, 1013538, 1013938, 1014338, 1014738, 1015138, 1015532, 1015916, 1016275, 1016667, 1017070, 1017455, 1017843, 1018226, 1018610, 1019015, 1019387, 1019785, 1020170, 1020558, 1020953, 1021338]",69,OR,U,R,ITMSR,1.1
0,600,trial,0,49,49,49,trial,"['S', 'S', 'S', 'S', 'S', 'S', 'S', 'S', 'C', 'C', 'C', 'C', 'C', 'C', 'C', 'C', 'C', 'C', 'C', 'C', 'C', 'C', 'C', 'C']","[1027173, 1027662, 1028061, 1028651, 1029312, 1029877, 1030438, 1031017, 1031673, 1032243, 1032797, 1033358, 1033910, 1034464, 1035027, 1035570, 1036084, 1036613, 1037196, 1037751, 1038319, 1038905, 1039467, 1040037]","[1027293, 1027789, 1028236, 1028869, 1029484, 1030060, 1030652, 1031172, 1031812, 1032399, 1032969, 1033526, 1034062, 1034640, 1035131, 1035700, 1036259, 1036788, 1037415, 1037918, 1038523, 1039130, 1039636, 1040168]","[20, 118, 135, 150, 153, 160, 146, 134, 147, 139, 128, 134, 146, 131, 125, 111, 110, 125, 132, 135, 135, 142, 107, 73]","[1027179, 1027663, 1028064, 1028654, 1029316, 1029880, 1030441, 1031021, 1031676, 1032246, 1032801, 1033361, 1033913, 1034468, 1035031, 1035573, 1036088, 1036617, 1037200, 1037755, 1038322, 1038908, 1039471, 1040041]","[1026946, 1027546, 1028146, 1028746, 1029346, 1029946, 1030546, 1031146, 1031693, 1032263, 1032817, 1033378, 1033930, 1034484, 1035047, 1035590, 1036104, 1036633, 1037216, 1037771, 1038339, 1038925, 1039488, 1040057]",69,OR,U,R,ITMSR,1.1
5,600,trial,0,50,50,50,trial,"['S', 'S', 'S', 'S', 'S', 'S', 'S', 'S', 'C', 'C', 'C', 'C', 'C', 'C', 'C', 'C', 'C', 'C', 'C', 'C', 'C', 'C', 'C', 'C']","[1045596, 1045897, 1046563, 1047207, 1047783, 1048379, 1048982, 1049566, 1050190, 1050745, 1051293, 1051866, 1052421, 1052984, 1053555, 1054146, 1054672, 1055206, 1055780, 1056312, 1056838, 1057378, 1057914, 1058457]","[1045716, 1046151, 1046773, 1047426, 1047986, 1048598, 1049166, 1049745, 1050357, 1050940, 1051548, 1052053, 1052589, 1053121, 1053720, 1054334, 1054952, 1055485, 1055986, 1056568, 1057126, 1057626, 1058189]","[66, 109, 134, 137, 153, 154, 139, 131, 145, 152, 133, 148, 149, 98, 94, 136, 140, 134, 147, 144, 143, 132, 119]","[1045600, 1045901, 1046566, 1047212, 1047786, 1048382, 1048986, 1049569, 1050193, 1050748, 1051297, 1051869, 1052424, 1052988, 1053559, 1054149, 1054675, 1055209, 1055783, 1056315, 1056842, 1057382, 1057917]","[1045462, 1046061, 1046661, 1047261, 1047861, 1048461, 1049061, 1049661, 1050210, 1050765, 1051313, 1051886, 1052441, 1053004, 1053575, 1054167, 1054692, 1055226, 1055800, 1056332, 1056858, 1057398, 1057934, 1058477]",69,OR,U,R,ITMSR,1.1
4,400,trial,0,51,51,51,trial,"['S', 'S', 'S', 'S', 'S', 'S', 'S', 'S', 'C', 'C', 'C', 'C', 'C', 'C', 'C', 'C', 'C', 'C', 'C', 'C', 'C', 'C', 'C', 'C']","[1064024, 1064330, 1064666, 1065062, 1065484, 1065840, 1066240, 1066621, 1067038, 1067429, 1067813, 1068195, 1068597, 1068976, 1069369, 1069704, 1070124, 1070513, 1070917, 1071303, 1071691, 1072080, 1072485, 1072866]","[1064140, 1064463, 1064773, 1065203, 1065603, 1065969, 1066347, 1066739, 1067137, 1067550, 1067954, 1068349, 1068753, 1069100, 1069484, 1069835, 1070280, 1070666, 1071057, 1071447, 1071840, 1072235, 1072653, 1073064]","[63, 129, 103, 123, 119, 111, 120, 117, 131, 107, 116, 126, 132, 103, 105, 80, 133, 117, 116, 111, 105, 115, 115, 111]","[1064029, 1064334, 1064669, 1065065, 1065488, 1065843, 1066244, 1066626, 1067041, 1067433, 1067817, 1068199, 1068600, 1068980, 1069372, 1069709, 1070128, 1070517, 1070921, 1071307, 1071695, 1072084, 1072488, 1072869]","[1063876, 1064275, 1064675, 1065075, 1065475, 1065875, 1066275, 1066675, 1067058, 1067449, 1067833, 1068215, 1068617, 1068996, 1069389, 1069724, 1070144, 1070533, 1070937, 1071323, 1071711, 1072100, 1072505, 1072886]",69,OR,U,R,ITMSR,1.1
0,400,trial,0,52,52,52,trial,"['S', 'S', 'S', 'S', 'S', 'S', 'S', 'S', 'C', 'C', 'C', 'C', 'C', 'C', 'C', 'C', 'C', 'C', 'C', 'C', 'C', 'C', 'C', 'C']","[1078587, 1078980, 1079334, 1079729, 1080133, 1080545, 1080928, 1081346, 1081729, 1082110, 1082515, 1082904, 1083275, 1083668, 1084046, 1084438, 1084823, 1085210, 1085598, 1085967, 1086357, 1086737, 1087109, 1087505]","[1078725, 1079136, 1079472, 1079874, 1080251, 1080713, 1081030, 1081500, 1081849, 1082281, 1082649, 1083035, 1083403, 1083794, 1084186, 1084603, 1084989, 1085346, 1085723, 1086112, 1086490, 1086867, 1087275, 1087620]","[244, 127, 113, 106, 122, 136, 134, 149, 146, 126, 131, 136, 129, 124, 118, 104, 82, 111, 95, 125, 106, 121, 115, 69]","[1078593, 1078984, 1079339, 1079732, 1080137, 1080548, 1080931, 1081349, 1081732, 1082114, 1082518, 1082907, 1083279, 1083671, 1084049, 1084442, 1084827, 1085213, 1085602, 1085971, 1086361, 1086740, 1087113, 1087510]","[1078568, 1078968, 1079368, 1079768, 1080168, 1080568, 1080968, 1081368, 1081749, 1082130, 1082535, 1082925, 1083295, 1083688, 1084066, 1084459, 1084844, 1085230, 1085618, 1085987, 1086377, 1086757, 1087129, 1087525]",69,OR,U,R,ITMSR,1.1
1,600,trial,0,53,53,53,trial,"['S', 'S', 'S', 'S', 'S', 'S', 'S', 'C', 'C', 'C', 'C', 'C', 'C', 'C', 'C', 'C', 'C', 'C', 'C', 'C', 'C', 'C', 'C']","[1093167, 1094030, 1094595, 1095271, 1095862, 1096463, 1097059, 1097666, 1098262, 1098850, 1099418, 1099971, 1100548, 1101125, 1101688, 1102205, 1102796, 1103373, 1103926, 1104464, 1105028, 1105563, 1106119]","[1093294, 1094165, 1094804, 1095479, 1096043, 1096624, 1097196, 1097828, 1098397, 1099124, 1099692, 1100338, 1100806, 1101394, 1101962, 1102563, 1103051, 1103656, 1104205, 1104806, 1105319, 1105910, 1106385]","[57, 140, 166, 138, 154, 134, 120, 122, 130, 138, 158, 154, 132, 156, 152, 136, 116, 121, 108, 122, 122, 117, 53]","[1093171, 1094034, 1094597, 1095274, 1095864, 1096467, 1097062, 1097670, 1098265, 1098853, 1099421, 1099974, 1100551, 1101128, 1101691, 1102210, 1102799, 1103376, 1103929, 1104467, 1105031, 1105567, 1106122]","[1092938, 1093538, 1094138, 1094738, 1095339, 1095938, 1096538, 1097138, 1097687, 1098283, 1098870, 1099438, 1099992, 1100568, 1101145, 1101708, 1102225, 1102816, 1103393, 1103946, 1104484, 1105048, 1105583, 1106139]",69,OR,U,R,ITMSR,1.1
2,400,trial,0,54,54,54,trial,"['S', 'S', 'S', 'S', 'S', 'S', 'S', 'S', 'C', 'C', 'C', 'C', 'C', 'C', 'C', 'C', 'C', 'C', 'C', 'C', 'C', 'C', 'C', 'C']","[1142300, 1142539, 1142828, 1143233, 1143645, 1144037, 1144406, 1144806, 1145218, 1145622, 1145986, 1146377, 1146780, 1147194, 1147583, 1147985, 1148378, 1148783, 1149194, 1149570, 1149972, 1150385, 1150780, 1151184]","[1142338, 1142626, 1142944, 1143346, 1143754, 1144113, 1144504, 1144920, 1145328, 1145708, 1146092, 1146530, 1146945, 1147317, 1147744, 1148146, 1148545, 1148932, 1149313, 1149730, 1150129, 1150520, 1150919, 1151344]","[24, 106, 164, 150, 142, 149, 133, 116, 118, 105, 96, 131, 138, 137, 85, 122, 138, 81, 118, 40, 52, 37, 22, 41]","[1142304, 1142543, 1142831, 1143236, 1143646, 1144039, 1144409, 1144809, 1145222, 1145626, 1145990, 1146381, 1146783, 1147197, 1147587, 1147990, 1148381, 1148788, 1149198, 1149665, 1149977, 1150390, 1150786, 1151264]","[1142044, 1142445, 1142845, 1143245, 1143645, 1144045, 1144445, 1144845, 1145238, 1145643, 1146006, 1146397, 1146800, 1147214, 1147603, 1148005, 1148398, 1148803, 1149214, 1149590, 1149992, 1150405, 1150800, 1151204]",69,OR,U,R,ITMSR,1.1
3,400,trial,0,55,55,55,trial,"['S', 'S', 'S', 'S', 'S', 'S', 'S', 'S', 'C', 'C', 'C', 'C', 'C', 'C', 'C', 'C', 'C', 'C', 'C', 'C', 'C', 'C', 'C', 'C']","[1156729, 1156984, 1157377, 1157756, 1158155, 1158553, 1158978, 1159377, 1159772, 1160180, 1160550, 1160935, 1161339, 1161757, 1162165, 1162571, 1162956, 1163338, 1163708, 1164114, 1164526, 1164919, 1165317, 1165726]","[1156838, 1157112, 1157505, 1157933, 1158278, 1158687, 1159105, 1159524, 1159913, 1160314, 1160687, 1161100, 1161523, 1161906, 1162356, 1162745, 1163104, 1163475, 1163880, 1164301, 1164704, 1165088, 1165489, 1165910]","[52, 87, 143, 134, 126, 134, 145, 109, 127, 134, 137, 118, 112, 131, 62, 120, 113, 111, 77, 64, 119, 115, 108, 102]","[1156736, 1156988, 1157380, 1157761, 1158158, 1158557, 1158981, 1159382, 1159775, 1160184, 1160553, 1160939, 1161344, 1161761, 1162170, 1162575, 1162960, 1163342, 1163712, 1164119, 1164530, 1164923, 1165321, 1165730]","[1156605, 1157005, 1157405, 1157805, 1158205, 1158605, 1159005, 1159405, 1159792, 1160200, 1160570, 1160955, 1161359, 1161777, 1162185, 1162591, 1162976, 1163358, 1163728, 1164134, 1164546, 1164939, 1165337, 1165746]",69,OR,U,R,ITMSR,1.1
5,400,trial,0,56,56,56,trial,"['S', 'S', 'S', 'S', 'S', 'S', 'S', 'C', 'C', 'C', 'C', 'C', 'C', 'C', 'C', 'C', 'C', 'C', 'C', 'C', 'C', 'C', 'C']","[1171397, 1171864, 1172298, 1172746, 1173121, 1173550, 1173942, 1174328, 1174716, 1175140, 1175524, 1175919, 1176323, 1176718, 1177116, 1177484, 1177849, 1178269, 1178647, 1179046, 1179454, 1179857, 1180243]","[1171519, 1171993, 1172435, 1172861, 1173240, 1173672, 1174066, 1174465, 1174840, 1175290, 1175680, 1176095, 1176464, 1176868, 1177234, 1177640, 1178033, 1178414, 1178819, 1179272, 1179603, 1180043, 1180375]","[234, 126, 137, 151, 156, 150, 154, 159, 131, 129, 143, 123, 112, 96, 77, 76, 103, 101, 97, 114, 97, 109, 92]","[1171461, 1171867, 1172302, 1172749, 1173124, 1173553, 1173945, 1174330, 1174720, 1175144, 1175527, 1175923, 1176327, 1176722, 1177120, 1177488, 1177853, 1178272, 1178651, 1179051, 1179458, 1179862, 1180248]","[1171156, 1171556, 1171956, 1172356, 1172756, 1173156, 1173556, 1173956, 1174348, 1174736, 1175160, 1175544, 1175939, 1176343, 1176738, 1177136, 1177504, 1177869, 1178289, 1178668, 1179066, 1179474, 1179877, 1180263]",69,OR,U,R,ITMSR,1.1
4,600,trial,0,57,57,57,trial,"['S', 'S', 'S', 'S', 'S', 'S', 'C', 'C', 'C', 'C', 'C', 'C', 'C', 'C', 'C', 'C', 'C', 'C', 'C', 'C', 'C', 'C']","[1186698, 1187337, 1187949, 1188557, 1189152, 1189782, 1190335, 1190894, 1191471, 1192027, 1192588, 1193147, 1193720, 1194290, 1194890, 1195440, 1195986, 1196563, 1197119, 1197686, 1198281, 1198864]","[1186840, 1187485, 1188118, 1188766, 1189388, 1189927, 1190507, 1191089, 1191747, 1192296, 1192853, 1193384, 1193996, 1194570, 1195132, 1195766, 1196346, 1196883, 1197501, 1198104, 1198638]","[138, 139, 165, 166, 155, 144, 109, 112, 122, 71, 111, 94, 83, 116, 85, 96, 97, 91, 100, 106, 124]","[1186702, 1187341, 1187952, 1188559, 1189155, 1189785, 1190339, 1190898, 1191475, 1192144, 1192592, 1193152, 1193845, 1194294, 1194895, 1195555, 1196126, 1196567, 1197123, 1197897, 1198285]","[1185596, 1186196, 1186796, 1187396, 1187996, 1188596, 1189196, 1189796, 1190355, 1190914, 1191491, 1192047, 1192608, 1193167, 1193740, 1194310, 1194910, 1195460, 1196006, 1196583, 1197139, 1197706, 1198301, 1198884]",69,OR,U,R,ITMSR,1.1
1,400,trial,0,58,58,58,trial,"['S', 'S', 'S', 'S', 'S', 'S', 'S', 'C', 'C', 'C', 'C', 'C', 'C', 'C', 'C', 'C', 'C', 'C', 'C', 'C', 'C', 'C', 'C']","[1204706, 1205066, 1205437, 1205856, 1206255, 1206690, 1207110, 1207488, 1207869, 1208260, 1208645, 1209033, 1209437, 1209823, 1210218, 1210629, 1211019, 1211420, 1211793, 1212176, 1212551, 1212948, 1213343]","[1204837, 1205175, 1205561, 1205967, 1206369, 1206784, 1207216, 1207619, 1208020, 1208379, 1208790, 1209213, 1209571, 1209965, 1210345, 1210748, 1211142, 1211523, 1211907, 1212289, 1212664, 1213092, 1213491]","[204, 43, 82, 119, 95, 87, 88, 104, 111, 101, 118, 126, 99, 88, 89, 119, 76, 80, 76, 108, 83, 41, 45]","[1204713, 1205071, 1205441, 1205859, 1206258, 1206693, 1207114, 1207492, 1207873, 1208264, 1208648, 1209036, 1209440, 1209827, 1210222, 1210632, 1211022, 1211424, 1211797, 1212179, 1212555, 1212953, 1213348]","[1204331, 1204731, 1205131, 1205531, 1205932, 1206331, 1206731, 1207131, 1207508, 1207889, 1208280, 1208665, 1209053, 1209457, 1209843, 1210238, 1210649, 1211039, 1211440, 1211813, 1212196, 1212571, 1212968, 1213363]",69,OR,U,R,ITMSR,1.1
4,600,trial,0,59,59,59,trial,"['S', 'S', 'S', 'S', 'S', 'S', 'S', 'S', 'C', 'C', 'C', 'C', 'C', 'C', 'C', 'C', 'C', 'C', 'C', 'C', 'C', 'C', 'C', 'C']","[1218698, 1219081, 1219811, 1220442, 1221062, 1221661, 1222223, 1222858, 1223457, 1224029, 1224601, 1225184, 1225721, 1226311, 1226919, 1227511, 1228107, 1228633, 1229206, 1229797, 1230395, 1230950, 1231539, 1232122]","[1218844, 1219224, 1219965, 1220611, 1221220, 1221850, 1222502, 1223088, 1223699, 1224311, 1224904, 1225507, 1226115, 1226675, 1227296, 1227787, 1228366, 1228986, 1229587, 1230128, 1230708, 1231264, 1231883]","[36, 112, 128, 162, 135, 109, 116, 139, 142, 113, 67, 95, 55, 100, 96, 45, 112, 100, 84, 57, 119, 69, 81]","[1218703, 1219085, 1219815, 1220445, 1221065, 1221665, 1222227, 1222861, 1223460, 1224033, 1224605, 1225188, 1225940, 1226316, 1226924, 1227516, 1228110, 1228637, 1229210, 1229801, 1230398, 1230954, 1231543]","[1218680, 1219280, 1219880, 1220481, 1221080, 1221680, 1222280, 1222880, 1223477, 1224049, 1224621, 1225204, 1225741, 1226331, 1226939, 1227531, 1228127, 1228653, 1229227, 1229817, 1230415, 1230970, 1231559, 1232142]",69,OR,U,R,ITMSR,1.1
0,600,trial,0,60,60,60,trial,"['S', 'S', 'S', 'S', 'S', 'S', 'S', 'S', 'C', 'C', 'C', 'C', 'C', 'C', 'C', 'C', 'C', 'C', 'C', 'C', 'C', 'C', 'C', 'C']","[1238131, 1238352, 1239045, 1239653, 1240242, 1240855, 1241497, 1242086, 1242673, 1243228, 1243764, 1244289, 1244845, 1245423, 1245948, 1246477, 1247031, 1247568, 1248108, 1248634, 1249124, 1249668, 1250219, 1250742]","[1238230, 1238491, 1239247, 1239873, 1240435, 1241063, 1241659, 1242249, 1242848, 1243400, 1243901, 1244547, 1245195, 1245668, 1246225, 1246681, 1247301, 1247814, 1248285, 1248821, 1249325, 1249905, 1250382, 1250937]","[244, 88, 117, 123, 93, 130, 138, 118, 130, 95, 61, 44, 60, 29, 10, 37, 101, 75, 54, 69, 90, 36, 49, 235]","[1238137, 1238356, 1239049, 1239657, 1240246, 1240858, 1241499, 1242090, 1242676, 1243231, 1243768, 1244293, 1244849, 1245426, 1245954, 1246481, 1247034, 1247572, 1248113, 1248637, 1249128, 1249672, 1250223, 1250844]","[1237929, 1238530, 1239130, 1239730, 1240330, 1240930, 1241530, 1242130, 1242693, 1243248, 1243784, 1244309, 1244865, 1245443, 1245968, 1246497, 1247051, 1247588, 1248129, 1248654, 1249144, 1249688, 1250239, 1250762]",69,OR,U,R,ITMSR,1.1
5,600,trial,0,61,61,61,trial,"['S', 'S', 'S', 'S', 'S', 'S', 'S', 'C', 'C', 'C', 'C', 'C', 'C', 'C', 'C', 'C', 'C', 'C', 'C', 'C', 'C', 'C', 'C']","[1256916, 1257592, 1258218, 1258912, 1259490, 1260063, 1260656, 1261237, 1261826, 1262395, 1262972, 1263545, 1264126, 1264688, 1265296, 1265843, 1266345, 1266900, 1267471, 1268035, 1268602, 1269148, 1269730]","[1257072, 1257747, 1258381, 1259036, 1259680, 1260217, 1260839, 1261417, 1262047, 1262574, 1263130, 1263699, 1264297, 1264858, 1265466, 1266054, 1266537, 1267159, 1267768, 1268328, 1268827, 1269440, 1269976]","[72, 34, 101, 83, 120, 114, 126, 134, 96, 4, 61, 91, 71, 27, 51, 55, 63, 29, 72, 106, 92, 73, 52]","[1256921, 1257597, 1258222, 1258917, 1259494, 1260067, 1260660, 1261241, 1261830, 1262489, 1262977, 1263549, 1264131, 1264693, 1265301, 1265847, 1266350, 1267014, 1267475, 1268038, 1268606, 1269292, 1269734]","[1256543, 1257143, 1257743, 1258343, 1258943, 1259543, 1260143, 1260743, 1261257, 1261846, 1262415, 1262992, 1263565, 1264146, 1264708, 1265316, 1265863, 1266365, 1266920, 1267491, 1268056, 1268622, 1269168, 1269750]",69,OR,U,R,ITMSR,1.1
5,600,trial,0,62,62,62,trial,"['S', 'S', 'S', 'S', 'S', 'S', 'S', 'S', 'C', 'C', 'C', 'C', 'C', 'C', 'C', 'C', 'C', 'C', 'C', 'C', 'C', 'C', 'C', 'C']","[1275645, 1275947, 1276581, 1277126, 1277769, 1278351, 1278931, 1279511, 1280144, 1280702, 1281264, 1281813, 1282344, 1282873, 1283432, 1283960, 1284512, 1285072, 1285563, 1286131, 1286678, 1287208, 1287774, 1288366]","[1275727, 1276132, 1276744, 1277276, 1277910, 1278522, 1279105, 1279677, 1280320, 1280932, 1281459, 1282078, 1282581, 1283122, 1283719, 1284241, 1284744, 1285364, 1285942, 1286478, 1286967, 1287583, 1288119, 1288621]","[207, 213, 110, 118, 111, 97, 45, 211, 24, 0, 201, 13, 28, 29, 255, 62, 18, 59, 26, 7, 22, 56, 44, 244]","[1275650, 1275951, 1276584, 1277129, 1277772, 1278355, 1278937, 1279517, 1280238, 1280826, 1281347, 1281818, 1282458, 1282878, 1283437, 1284099, 1284605, 1285076, 1285813, 1286340, 1286682, 1287213, 1287778, 1288480]","[1275444, 1276044, 1276644, 1277244, 1277844, 1278444, 1279044, 1279644, 1280164, 1280722, 1281284, 1281833, 1282364, 1282893, 1283452, 1283980, 1284532, 1285092, 1285583, 1286151, 1286699, 1287228, 1287794, 1288386]",69,OR,U,R,ITMSR,1.1
3,400,trial,0,63,63,63,trial,"['S', 'S', 'S', 'S', 'S', 'S', 'S', 'S', 'C', 'C', 'C', 'C', 'C', 'C', 'C', 'C', 'C', 'C', 'C', 'C', 'C', 'C', 'C', 'C']","[1294408, 1294635, 1294941, 1295342, 1295746, 1296146, 1296543, 1296931, 1297313, 1297712, 1298106, 1298500, 1298886, 1299279, 1299671, 1300086, 1300491, 1300898, 1301287, 1301669, 1302067, 1302466, 1302872, 1303271]","[1294456, 1294760, 1295073, 1295474, 1295865, 1296251, 1296650, 1297033, 1297396, 1297852, 1298269, 1298649, 1299008, 1299416, 1299866, 1300246, 1300630, 1301010, 1301436, 1301842, 1302201, 1302589, 1302995, 1303377]","[171, 116, 133, 125, 111, 142, 138, 89, 110, 81, 91, 90, 95, 44, 50, 61, 86, 73, 41, 63, 116, 56, 56, 207]","[1294413, 1294638, 1294944, 1295346, 1295749, 1296149, 1296546, 1296935, 1297316, 1297716, 1298110, 1298504, 1298890, 1299283, 1299676, 1300090, 1300495, 1300902, 1301292, 1301673, 1302070, 1302470, 1302876, 1303276]","[1294174, 1294574, 1294974, 1295374, 1295774, 1296174, 1296574, 1296974, 1297333, 1297732, 1298126, 1298520, 1298906, 1299299, 1299691, 1300106, 1300511, 1300918, 1301307, 1301689, 1302087, 1302487, 1302892, 1303291]",69,OR,U,R,ITMSR,1.1
0,400,trial,0,64,64,64,trial,"['S', 'S', 'S', 'S', 'S', 'S', 'S', 'C', 'C', 'C', 'C', 'C', 'C', 'C', 'C', 'C', 'C', 'C', 'C', 'C', 'C', 'C', 'C']","[1309184, 1309697, 1310113, 1310536, 1310920, 1311328, 1311719, 1312136, 1312510, 1312901, 1313283, 1313681, 1314064, 1314467, 1314831, 1315246, 1315609, 1316011, 1316404, 1316788, 1317185, 1317587, 1317965]","[1309252, 1309805, 1310219, 1310652, 1311038, 1311454, 1311882, 1312273, 1312645, 1313081, 1313458, 1313812, 1314219, 1314594, 1314957, 1315381, 1315752, 1316187, 1316570, 1316934, 1317335, 1317701, 1318111]","[209, 115, 143, 121, 107, 109, 98, 103, 46, 82, 58, 93, 74, 55, 29, 30, 45, 68, 64, 97, 83, 6, 12]","[1309190, 1309700, 1310116, 1310540, 1310924, 1311332, 1311723, 1312140, 1312516, 1312906, 1313288, 1313685, 1314068, 1314471, 1314835, 1315251, 1315613, 1316015, 1316408, 1316792, 1317189, 1317592, 1317970]","[1309011, 1309411, 1309811, 1310211, 1310611, 1311011, 1311411, 1311811, 1312156, 1312530, 1312921, 1313303, 1313701, 1314084, 1314487, 1314851, 1315266, 1315629, 1316031, 1316424, 1316808, 1317206, 1317607, 1317985]",69,OR,U,R,ITMSR,1.1
0,600,trial,0,65,65,65,trial,"['S', 'S', 'S', 'S', 'S', 'S', 'S', 'S', 'C', 'C', 'C', 'C', 'C', 'C', 'C', 'C', 'C', 'C', 'C', 'C', 'C', 'C', 'C', 'C']","[1323452, 1323724, 1324435, 1325047, 1325662, 1326240, 1326812, 1327412, 1328007, 1328565, 1329138, 1329660, 1330204, 1330742, 1331276, 1331808, 1332340, 1332851, 1333362, 1333884, 1334436, 1334948, 1335495, 1336052]","[1323526, 1323842, 1324579, 1325206, 1325809, 1326396, 1326949, 1327554, 1328145, 1328745, 1329287, 1329835, 1330380, 1330955, 1331456, 1332013, 1332566, 1333055, 1333551, 1334088, 1334692, 1335196, 1335778]","[79, 115, 123, 123, 129, 81, 90, 83, 111, 97, 98, 62, 182, 73, 34, 70, 66, 82, 63, 84, 77, 75, 90]","[1323457, 1323728, 1324439, 1325051, 1325665, 1326245, 1326816, 1327416, 1328011, 1328569, 1329142, 1329666, 1330291, 1330747, 1331280, 1331812, 1332344, 1332855, 1333366, 1333890, 1334440, 1334952, 1335498]","[1323309, 1323907, 1324507, 1325107, 1325707, 1326307, 1326907, 1327507, 1328027, 1328585, 1329158, 1329680, 1330224, 1330762, 1331296, 1331828, 1332360, 1332871, 1333382, 1333904, 1334456, 1334968, 1335515, 1336072]",69,OR,U,R,ITMSR,1.1
4,400,trial,0,66,66,66,trial,"['S', 'S', 'S', 'S', 'S', 'S', 'S', 'S', 'C', 'C', 'C', 'C', 'C', 'C', 'C', 'C', 'C', 'C', 'C', 'C', 'C', 'C', 'C', 'C']","[1341821, 1342090, 1342393, 1342758, 1343154, 1343584, 1344012, 1344398, 1344793, 1345197, 1345568, 1345968, 1346374, 1346793, 1347169, 1347566, 1347952, 1348343, 1348717, 1349129, 1349535, 1349914, 1350347, 1350743]","[1341921, 1342198, 1342513, 1342888, 1343281, 1343705, 1344160, 1344507, 1344913, 1345311, 1345725, 1346138, 1346534, 1346962, 1347345, 1347735, 1348101, 1348435, 1348867, 1349292, 1349685, 1350039, 1350458, 1350880]","[214, 237, 57, 90, 119, 85, 103, 124, 128, 114, 108, 89, 99, 115, 121, 106, 139, 101, 82, 105, 72, 70, 49, 96]","[1341828, 1342095, 1342398, 1342763, 1343158, 1343588, 1344016, 1344402, 1344797, 1345201, 1345572, 1345972, 1346378, 1346796, 1347172, 1347570, 1347955, 1348346, 1348721, 1349133, 1349538, 1349918, 1350351, 1350746]","[1341634, 1342034, 1342434, 1342834, 1343234, 1343634, 1344034, 1344434, 1344813, 1345217, 1345588, 1345988, 1346394, 1346813, 1347189, 1347586, 1347972, 1348363, 1348738, 1349149, 1349555, 1349934, 1350367, 1350763]",69,OR,U,R,ITMSR,1.1
1,600,trial,0,67,67,67,trial,"['S', 'S', 'S', 'S', 'S', 'S', 'S', 'C', 'C', 'C', 'C', 'C', 'C', 'C', 'C', 'C', 'C', 'C', 'C', 'C', 'C', 'C', 'C']","[1356830, 1357507, 1358129, 1358761, 1359319, 1359947, 1360559, 1361142, 1361696, 1362220, 1362710, 1363223, 1363722, 1364185, 1364658, 1365204, 1365722, 1366223, 1366714, 1367207, 1367698, 1368213, 1368677]","[1356950, 1357655, 1358296, 1358894, 1359471, 1360099, 1360695, 1361298, 1361869, 1362410, 1362875, 1363395, 1363935, 1364357, 1364892, 1365373, 1365902, 1366424, 1366930, 1367396, 1367899, 1368378, 1368865]","[252, 84, 98, 109, 97, 11, 85, 97, 42, 46, 77, 68, 69, 100, 58, 47, 73, 74, 88, 86, 75, 84, 96]","[1356835, 1357512, 1358132, 1358766, 1359323, 1359952, 1360563, 1361146, 1361701, 1362225, 1362715, 1363228, 1363727, 1364189, 1364663, 1365209, 1365726, 1366227, 1366718, 1367212, 1367703, 1368218, 1368680]","[1356440, 1357040, 1357640, 1358240, 1358840, 1359440, 1360040, 1360641, 1361162, 1361716, 1362240, 1362731, 1363244, 1363742, 1364205, 1364678, 1365224, 1365742, 1366243, 1366734, 1367227, 1367718, 1368233, 1368697]",69,OR,U,R,ITMSR,1.1
0,400,trial,0,68,68,68,trial,"['S', 'S', 'S', 'S', 'S', 'S', 'S', 'S', 'C', 'C', 'C', 'C', 'C', 'C', 'C', 'C', 'C', 'C', 'C', 'C', 'C', 'C', 'C', 'C']","[1374323, 1374626, 1374897, 1375297, 1375672, 1376100, 1376489, 1376870, 1377329, 1377717, 1378086, 1378486, 1378878, 1379298, 1379681, 1380077, 1380481, 1380845, 1381267, 1381668, 1382093, 1382489, 1382900, 1383317]","[1374466, 1374727, 1375024, 1375434, 1375788, 1376223, 1376623, 1377000, 1377438, 1377836, 1378219, 1378626, 1379030, 1379446, 1379844, 1380238, 1380625, 1381046, 1381463, 1381836, 1382216, 1382624, 1383019, 1383412]","[90, 69, 107, 136, 121, 92, 58, 78, 98, 86, 37, 62, 98, 70, 59, 104, 118, 98, 35, 54, 105, 101, 139, 106]","[1374327, 1374630, 1374901, 1375300, 1375676, 1376104, 1376494, 1376875, 1377334, 1377722, 1378092, 1378491, 1378882, 1379303, 1379686, 1380081, 1380484, 1380849, 1381272, 1381673, 1382097, 1382492, 1382903, 1383321]","[1374150, 1374551, 1374950, 1375350, 1375750, 1376150, 1376550, 1376950, 1377349, 1377737, 1378106, 1378506, 1378898, 1379318, 1379701, 1380098, 1380501, 1380866, 1381287, 1381688, 1382113, 1382509, 1382920, 1383337]",69,OR,U,R,ITMSR,1.1
4,400,trial,0,69,69,69,trial,"['S', 'S', 'S', 'S', 'S', 'S', 'S', 'S', 'C', 'C', 'C', 'C', 'C', 'C', 'C', 'C', 'C', 'C', 'C', 'C', 'C', 'C', 'C', 'C']","[1388995, 1389267, 1389522, 1389947, 1390342, 1390772, 1391147, 1391537, 1391926, 1392312, 1392689, 1393101, 1393480, 1393864, 1394255, 1394632, 1395024, 1395404, 1395811, 1396178, 1396588, 1396947, 1397357, 1397731]","[1389077, 1389338, 1389630, 1390090, 1390472, 1390897, 1391291, 1391684, 1392057, 1392456, 1392821, 1393200, 1393593, 1393980, 1394382, 1394788, 1395169, 1395533, 1395930, 1396311, 1396712, 1397085, 1397499, 1397922]","[70, 91, 144, 164, 134, 127, 125, 129, 133, 123, 129, 143, 125, 110, 125, 129, 127, 133, 142, 119, 118, 105, 110, 117]","[1388998, 1389271, 1389526, 1389950, 1390345, 1390773, 1391150, 1391539, 1391929, 1392315, 1392692, 1393104, 1393484, 1393868, 1394258, 1394636, 1395027, 1395407, 1395813, 1396183, 1396592, 1396952, 1397360, 1397734]","[1388772, 1389172, 1389572, 1389972, 1390372, 1390772, 1391172, 1391572, 1391946, 1392332, 1392709, 1393121, 1393500, 1393884, 1394275, 1394652, 1395044, 1395424, 1395831, 1396198, 1396609, 1396967, 1397378, 1397751]",69,OR,U,R,ITMSR,1.1
3,600,trial,0,70,70,70,trial,"['S', 'S', 'S', 'S', 'S', 'S', 'S', 'S', 'C', 'C', 'C', 'C', 'C', 'C', 'C', 'C', 'C', 'C', 'C', 'C', 'C', 'C', 'C', 'C']","[1403626, 1403898, 1404578, 1405224, 1405835, 1406418, 1406995, 1407603, 1408251, 1408801, 1409355, 1409880, 1410416, 1410969, 1411509, 1412048, 1412594, 1413157, 1413692, 1414232, 1414763, 1415308, 1415845, 1416355]","[1403717, 1404045, 1404717, 1405361, 1405975, 1406567, 1407142, 1407740, 1408391, 1409000, 1409562, 1410043, 1410622, 1411175, 1411790, 1412381, 1412829, 1413432, 1413983, 1414561, 1415051, 1415587, 1416143]","[101, 109, 133, 109, 95, 91, 76, 61, 91, 96, 110, 29, 93, 102, 98, 74, 96, 96, 89, 95, 87, 88, 95]","[1403631, 1403902, 1404581, 1405229, 1405840, 1406423, 1406999, 1407608, 1408257, 1408891, 1409359, 1409886, 1410510, 1410973, 1411616, 1412150, 1412690, 1413161, 1413838, 1414423, 1414901, 1415415, 1415967]","[1403494, 1404093, 1404693, 1405293, 1405893, 1406493, 1407093, 1407693, 1408271, 1408821, 1409375, 1409900, 1410436, 1410989, 1411529, 1412068, 1412614, 1413177, 1413712, 1414252, 1414784, 1415328, 1415865, 1416375]",69,OR,U,R,ITMSR,1.1
1,600,trial,0,71,71,71,trial,"['S', 'S', 'S', 'S', 'S', 'S', 'S', 'S', 'C', 'C', 'C', 'C', 'C', 'C', 'C', 'C', 'C', 'C', 'C', 'C', 'C', 'C', 'C', 'C']","[1421990, 1422279, 1422949, 1423570, 1424167, 1424772, 1425350, 1425931, 1426553, 1427091, 1427674, 1428207, 1428747, 1429298, 1429833, 1430419, 1430934, 1431529, 1432091, 1432600, 1433108, 1433647, 1434157, 1434736]","[1422105, 1422415, 1423128, 1423882, 1424386, 1424954, 1425548, 1426136, 1426720, 1427290, 1427920, 1428408, 1428995, 1429549, 1430120, 1430718, 1431290, 1431792, 1432365, 1432824, 1433375, 1433831, 1434443, 1435001]","[171, 28, 106, 134, 89, 78, 74, 77, 90, 63, 39, 43, 62, 78, 100, 71, 57, 76, 61, 3, 10, 24, 40, 51]","[1421999, 1422344, 1422953, 1423575, 1424172, 1424867, 1425355, 1426035, 1426558, 1427196, 1427759, 1428323, 1428752, 1429302, 1429837, 1430423, 1431141, 1431533, 1432205, 1432721, 1433113, 1433749, 1434162, 1434839]","[1421841, 1422441, 1423041, 1423641, 1424241, 1424841, 1425441, 1426041, 1426573, 1427111, 1427694, 1428227, 1428767, 1429318, 1429853, 1430439, 1430955, 1431549, 1432111, 1432621, 1433128, 1433667, 1434177, 1434756]",69,OR,U,R,ITMSR,1.1
5,400,trial,0,72,72,72,trial,"['S', 'S', 'S', 'S', 'S', 'S', 'S', 'C', 'C', 'C', 'C', 'C', 'C', 'C', 'C', 'C', 'C', 'C', 'C', 'C', 'C', 'C', 'C']","[1440578, 1440926, 1441311, 1441701, 1442113, 1442511, 1442897, 1443307, 1443702, 1444079, 1444468, 1444829, 1445196, 1445575, 1445986, 1446378, 1446769, 1447170, 1447557, 1447961, 1448368, 1448772, 1449181]","[1440715, 1441074, 1441477, 1441819, 1442234, 1442647, 1443039, 1443433, 1443869, 1444228, 1444637, 1444973, 1445347, 1445770, 1446161, 1446564, 1446956, 1447303, 1447707, 1448105, 1448483, 1448910, 1449329]","[92, 139, 71, 131, 118, 114, 99, 78, 100, 114, 122, 120, 98, 96, 97, 92, 91, 99, 107, 115, 62, 86, 46]","[1440581, 1440929, 1441315, 1441704, 1442117, 1442514, 1442902, 1443312, 1443706, 1444083, 1444472, 1444832, 1445200, 1445580, 1445990, 1446382, 1446773, 1447174, 1447561, 1447965, 1448373, 1448777, 1449254]","[1440160, 1440560, 1440960, 1441360, 1441760, 1442160, 1442561, 1442960, 1443328, 1443722, 1444099, 1444488, 1444849, 1445216, 1445595, 1446006, 1446398, 1446789, 1447190, 1447577, 1447981, 1448388, 1448792, 1449201]",69,OR,U,R,ITMSR,1.1
1,400,trial,0,73,73,73,trial,"['S', 'S', 'S', 'S', 'S', 'S', 'S', 'S', 'C', 'C', 'C', 'C', 'C', 'C', 'C', 'C', 'C', 'C', 'C', 'C', 'C', 'C', 'C', 'C']","[1455147, 1455405, 1455729, 1456119, 1456526, 1456933, 1457321, 1457708, 1458127, 1458501, 1458894, 1459289, 1459683, 1460084, 1460490, 1460854, 1461232, 1461637, 1462006, 1462388, 1462794, 1463139, 1463546, 1463938]","[1455252, 1455537, 1455861, 1456269, 1456666, 1457072, 1457472, 1457863, 1458271, 1458665, 1459090, 1459488, 1459870, 1460300, 1460608, 1460994, 1461415, 1461783, 1462201, 1462588, 1462955, 1463324, 1463709, 1464140]","[93, 119, 135, 147, 145, 124, 134, 105, 141, 111, 105, 102, 81, 85, 87, 95, 76, 83, 90, 73, 51, 65, 56, 88]","[1455151, 1455408, 1455732, 1456122, 1456529, 1456936, 1457325, 1457712, 1458130, 1458504, 1458898, 1459293, 1459687, 1460198, 1460494, 1460858, 1461236, 1461642, 1462010, 1462392, 1462799, 1463144, 1463552, 1463942]","[1454984, 1455384, 1455784, 1456184, 1456584, 1456984, 1457384, 1457784, 1458147, 1458521, 1458914, 1459309, 1459703, 1460104, 1460510, 1460874, 1461252, 1461657, 1462026, 1462408, 1462814, 1463159, 1463566, 1463958]",69,OR,U,R,ITMSR,1.1
2,600,trial,0,74,74,74,trial,"['S', 'S', 'S', 'S', 'S', 'S', 'S', 'C', 'C', 'C', 'C', 'C', 'C', 'C', 'C', 'C', 'C', 'C', 'C', 'C', 'C', 'C', 'C']","[1470004, 1470707, 1471342, 1471946, 1472548, 1473141, 1473754, 1474311, 1474879, 1475458, 1476003, 1476538, 1477051, 1477568, 1478144, 1478669, 1479158, 1479669, 1480186, 1480724, 1481257, 1481781, 1482317]","[1470143, 1470870, 1471512, 1472169, 1472789, 1473356, 1473972, 1474587, 1475208, 1475783, 1476272, 1476798, 1477342, 1477921, 1478412, 1478978, 1479494, 1480026, 1480566, 1481070, 1481626, 1482142]","[42, 135, 126, 123, 132, 135, 116, 130, 96, 94, 92, 96, 107, 65, 71, 34, 78, 55, 63, 82, 78, 69]","[1470062, 1470710, 1471346, 1471950, 1472552, 1473145, 1473758, 1474315, 1475016, 1475585, 1476146, 1476684, 1477183, 1477743, 1478262, 1478833, 1479361, 1479790, 1480444, 1480948, 1481512, 1482002]","[1469640, 1470240, 1470840, 1471440, 1472040, 1472641, 1473240, 1473840, 1474331, 1474899, 1475478, 1476023, 1476558, 1477071, 1477588, 1478164, 1478689, 1479178, 1479689, 1480206, 1480744, 1481277, 1481801, 1482337]",69,OR,U,R,ITMSR,1.1
2,400,trial,0,75,75,75,trial,"['S', 'S', 'S', 'S', 'S', 'S', 'C', 'C', 'C', 'C', 'C', 'C', 'C', 'C', 'C', 'C', 'C', 'C', 'C', 'C', 'C', 'C']","[1488533, 1488929, 1489334, 1489729, 1490157, 1490546, 1490949, 1491331, 1491691, 1492107, 1492491, 1492912, 1493288, 1493699, 1494088, 1494467, 1494872, 1495238, 1495647, 1496010, 1496384, 1496804]","[1488643, 1489059, 1489474, 1489858, 1490297, 1490737, 1491105, 1491478, 1491905, 1492299, 1492752, 1493076, 1493542, 1493910, 1494286, 1494714, 1495094, 1495514, 1495842, 1496190, 1496653, 1497055]","[30, 139, 122, 126, 156, 149, 134, 150, 134, 115, 94, 105, 95, 80, 57, 60, 100, 107, 52, 60, 92, 97]","[1488539, 1488932, 1489337, 1489733, 1490160, 1490549, 1490952, 1491334, 1491694, 1492111, 1492495, 1492916, 1493293, 1493704, 1494093, 1494472, 1494983, 1495360, 1495745, 1496015, 1496388, 1496946]","[1487793, 1488192, 1488592, 1488992, 1489392, 1489793, 1490192, 1490592, 1490969, 1491351, 1491712, 1492127, 1492511, 1492932, 1493308, 1493720, 1494108, 1494488, 1494892, 1495258, 1495667, 1496030, 1496404, 1496824]",69,OR,U,R,ITMSR,1.1
3,600,trial,0,76,76,76,trial,"['S', 'S', 'S', 'S', 'S', 'S', 'S', 'C', 'C', 'C', 'C', 'C', 'C', 'C', 'C', 'C', 'C', 'C', 'C', 'C', 'C', 'C', 'C']","[1502577, 1503446, 1504055, 1504685, 1505262, 1505866, 1506438, 1507073, 1507601, 1508160, 1508716, 1509269, 1509826, 1510356, 1510914, 1511471, 1512002, 1512560, 1513072, 1513578, 1514104, 1514643, 1515168]","[1502699, 1503607, 1504281, 1504870, 1505464, 1506151, 1506725, 1507264, 1507824, 1508488, 1508990, 1509557, 1510139, 1510671, 1511233, 1511690, 1512217, 1512705, 1513317, 1513854, 1514385, 1514889, 1515433]","[235, 120, 160, 133, 125, 140, 127, 146, 114, 81, 64, 83, 99, 63, 40, 77, 89, 37, 20, 46, 54, 47, 54]","[1502581, 1503450, 1504057, 1504688, 1505265, 1505869, 1506442, 1507076, 1507604, 1508164, 1508721, 1509273, 1509830, 1510361, 1510920, 1511475, 1512006, 1512565, 1513077, 1513583, 1514108, 1514647, 1515294]","[1502323, 1502923, 1503523, 1504123, 1504723, 1505324, 1505923, 1506523, 1507093, 1507621, 1508180, 1508737, 1509289, 1509847, 1510376, 1510934, 1511491, 1512023, 1512580, 1513092, 1513598, 1514124, 1514663, 1515188]",69,OR,U,R,ITMSR,1.1
2,600,trial,0,77,77,77,trial,"['S', 'S', 'S', 'S', 'S', 'S', 'S', 'S', 'C', 'C', 'C', 'C', 'C', 'C', 'C', 'C', 'C', 'C', 'C', 'C', 'C', 'C', 'C', 'C']","[1521142, 1521413, 1522089, 1522678, 1523279, 1523851, 1524421, 1525021, 1525661, 1526242, 1526799, 1527339, 1527886, 1528452, 1528962, 1529518, 1530070, 1530627, 1531196, 1531746, 1532247, 1532764, 1533318, 1533850]","[1521254, 1521719, 1522236, 1522910, 1523491, 1524045, 1524703, 1525321, 1525867, 1526517, 1527121, 1527598, 1528221, 1528628, 1529305, 1529842, 1530389, 1530902, 1531400, 1531922, 1532433, 1532899, 1533478, 1534014]","[7, 62, 131, 129, 136, 102, 131, 112, 113, 31, 68, 76, 95, 72, 75, 77, 80, 107, 83, 74, 117, 107, 55, 112]","[1521197, 1521417, 1522093, 1522682, 1523282, 1523855, 1524425, 1525025, 1525664, 1526356, 1526804, 1527464, 1527890, 1528456, 1528966, 1529722, 1530075, 1530631, 1531200, 1531751, 1532250, 1532767, 1533323, 1533853]","[1520969, 1521569, 1522169, 1522769, 1523369, 1523970, 1524570, 1525170, 1525681, 1526262, 1526819, 1527359, 1527906, 1528472, 1528982, 1529538, 1530090, 1530647, 1531216, 1531766, 1532267, 1532784, 1533338, 1533870]",69,OR,U,R,ITMSR,1.1
1,600,trial,0,78,78,78,trial,"['S', 'S', 'S', 'S', 'S', 'S', 'S', 'S', 'C', 'C', 'C', 'C', 'C', 'C', 'C', 'C', 'C', 'C', 'C', 'C', 'C', 'C', 'C', 'C']","[1584786, 1585100, 1585746, 1586328, 1586965, 1587533, 1588128, 1588711, 1589294, 1589833, 1590396, 1590942, 1591508, 1592044, 1592574, 1593137, 1593666, 1594172, 1594682, 1595223, 1595769, 1596297, 1596854, 1597361]","[1584911, 1585283, 1585895, 1586492, 1587112, 1587699, 1588268, 1588905, 1589470, 1590093, 1590664, 1591161, 1591674, 1592192, 1592818, 1593357, 1593864, 1594409, 1594994, 1595481, 1596052, 1596550, 1597070, 1597602]","[101, 122, 162, 116, 106, 103, 114, 140, 133, 138, 125, 114, 123, 111, 93, 102, 132, 138, 109, 122, 96, 143, 120, 143]","[1584789, 1585103, 1585748, 1586333, 1586970, 1587538, 1588132, 1588714, 1589297, 1589836, 1590400, 1590946, 1591513, 1592047, 1592579, 1593141, 1593670, 1594175, 1594686, 1595226, 1595773, 1596301, 1596857, 1597363]","[1584627, 1585227, 1585827, 1586427, 1587027, 1587628, 1588227, 1588827, 1589314, 1589853, 1590416, 1590962, 1591528, 1592065, 1592594, 1593157, 1593687, 1594192, 1594702, 1595243, 1595789, 1596317, 1596874, 1597381]",69,OR,U,R,ITMSR,1.1
1,600,trial,0,79,79,79,trial,"['S', 'S', 'S', 'S', 'S', 'S', 'S', 'C', 'C', 'C', 'C', 'C', 'C', 'C', 'C', 'C', 'C', 'C', 'C', 'C', 'C', 'C', 'C']","[1603187, 1603903, 1604527, 1605148, 1605714, 1606297, 1606892, 1607491, 1608074, 1608678, 1609222, 1609744, 1610298, 1610847, 1611399, 1611914, 1612459, 1612995, 1613549, 1614048, 1614572, 1615096, 1615616]","[1603382, 1604078, 1604746, 1605371, 1605916, 1606501, 1607122, 1607705, 1608360, 1608870, 1609475, 1610044, 1610627, 1611168, 1611641, 1612275, 1612706, 1613301, 1613800, 1614406, 1614906, 1615404]","[98, 112, 149, 151, 142, 145, 132, 87, 116, 98, 84, 109, 73, 98, 70, 77, 244, 253, 28, 105, 42, 45]","[1603192, 1603907, 1604531, 1605151, 1605719, 1606301, 1606896, 1607495, 1608078, 1608682, 1609344, 1609749, 1610303, 1610851, 1611404, 1611918, 1612465, 1613000, 1613554, 1614052, 1614714, 1615261]","[1602834, 1603434, 1604034, 1604634, 1605234, 1605834, 1606434, 1607034, 1607512, 1608094, 1608698, 1609242, 1609764, 1610318, 1610867, 1611419, 1611934, 1612479, 1613016, 1613570, 1614068, 1614593, 1615116, 1615636]",69,OR,U,R,ITMSR,1.1
0,400,trial,0,80,80,80,trial,"['S', 'S', 'S', 'S', 'S', 'S', 'S', 'C', 'C', 'C', 'C', 'C', 'C', 'C', 'C', 'C', 'C', 'C', 'C', 'C', 'C', 'C', 'C']","[1621460, 1621722, 1622098, 1622509, 1622906, 1623298, 1623718, 1624122, 1624532, 1624918, 1625297, 1625690, 1626091, 1626497, 1626861, 1627251, 1627670, 1628063, 1628460, 1628839, 1629228, 1629603, 1629996]","[1621569, 1621834, 1622236, 1622639, 1623050, 1623434, 1623891, 1624280, 1624690, 1625093, 1625481, 1625890, 1626232, 1626611, 1627026, 1627429, 1627828, 1628237, 1628636, 1629001, 1629373, 1629766, 1630195]","[236, 33, 65, 50, 58, 107, 34, 92, 56, 41, 27, 54, 41, 78, 6, 9, 8, 17, 22, 29, 9, 6, 40]","[1621519, 1621727, 1622103, 1622514, 1622910, 1623300, 1623724, 1624126, 1624537, 1624923, 1625304, 1625695, 1626095, 1626501, 1626941, 1627257, 1627675, 1628067, 1628465, 1628844, 1629234, 1629696, 1630001]","[1620986, 1621386, 1621786, 1622187, 1622586, 1622986, 1623386, 1623786, 1624142, 1624552, 1624938, 1625317, 1625710, 1626112, 1626517, 1626882, 1627271, 1627691, 1628083, 1628480, 1628859, 1629248, 1629623, 1630016]",69,OR,U,R,ITMSR,1.1
5,600,trial,0,81,81,81,trial,"['S', 'S', 'S', 'S', 'S', 'S', 'S', 'C', 'C', 'C', 'C', 'C', 'C', 'C', 'C', 'C', 'C', 'C', 'C', 'C', 'C', 'C', 'C']","[1636124, 1636861, 1637453, 1638088, 1638663, 1639276, 1639847, 1640451, 1641016, 1641552, 1642119, 1642647, 1643215, 1643769, 1644308, 1644845, 1645408, 1645931, 1646452, 1647015, 1647558, 1648065, 1648573]","[1636274, 1637035, 1637696, 1638268, 1638882, 1639455, 1640060, 1640725, 1641308, 1641814, 1642379, 1643023, 1643551, 1644107, 1644631, 1645195, 1645753, 1646281, 1646820, 1647294, 1647815, 1648329, 1648826]","[27, 127, 126, 134, 97, 72, 119, 109, 117, 84, 96, 82, 55, 68, 114, 65, 107, 27, 68, 17, 90, 246, 64]","[1636185, 1636865, 1637456, 1638091, 1638666, 1639281, 1639851, 1640454, 1641020, 1641556, 1642123, 1642651, 1643219, 1643773, 1644312, 1644849, 1645412, 1645936, 1646456, 1647020, 1647561, 1648070, 1648576]","[1635728, 1636328, 1636928, 1637528, 1638128, 1638728, 1639328, 1639928, 1640471, 1641036, 1641572, 1642139, 1642668, 1643235, 1643789, 1644328, 1644865, 1645428, 1645952, 1646472, 1647035, 1647578, 1648086, 1648593]",69,OR,U,R,ITMSR,1.1
0,600,trial,0,82,82,82,trial,"['S', 'S', 'S', 'S', 'S', 'S', 'S', 'S', 'C', 'C', 'C', 'C', 'C', 'C', 'C', 'C', 'C', 'C', 'C', 'C', 'C', 'C', 'C', 'C']","[1654514, 1654708, 1655352, 1655996, 1656576, 1657179, 1657818, 1658389, 1658974, 1659546, 1660125, 1660706, 1661249, 1661794, 1662356, 1662912, 1663444, 1663996, 1664535, 1665088, 1665628, 1666157, 1666672, 1667235]","[1654534, 1654845, 1655531, 1656186, 1656775, 1657492, 1658000, 1658694, 1659369, 1659897, 1660485, 1660981, 1661536, 1662140, 1662680, 1663214, 1663815, 1664340, 1664937, 1665396, 1666003, 1666489, 1667077]","[183, 197, 130, 96, 83, 98, 93, 92, 96, 235, 27, 9, 50, 54, 69, 76, 38, 82, 49, 61, 78, 83, 39]","[1654516, 1654778, 1655355, 1655999, 1656580, 1657183, 1657821, 1658392, 1658977, 1659551, 1660130, 1660711, 1661252, 1661798, 1662360, 1662917, 1663610, 1664001, 1664540, 1665093, 1665632, 1666161, 1666677]","[1654299, 1654899, 1655499, 1656099, 1656699, 1657299, 1657900, 1658499, 1658994, 1659566, 1660145, 1660726, 1661270, 1661814, 1662376, 1662932, 1663464, 1664016, 1664556, 1665108, 1665648, 1666178, 1666692, 1667255]",69,OR,U,R,ITMSR,1.1
3,400,trial,0,83,83,83,trial,"['S', 'S', 'S', 'S', 'S', 'S', 'S', 'C', 'C', 'C', 'C', 'C', 'C', 'C', 'C', 'C', 'C', 'C', 'C', 'C', 'C', 'C', 'C']","[1673374, 1673720, 1674098, 1674522, 1674893, 1675312, 1675689, 1676112, 1676508, 1676884, 1677265, 1677657, 1678043, 1678426, 1678819, 1679224, 1679626, 1680039, 1680401, 1680792, 1681181, 1681567, 1681958]","[1673502, 1673858, 1674267, 1674644, 1675046, 1675441, 1675868, 1676264, 1676656, 1677033, 1677450, 1677841, 1678183, 1678614, 1679035, 1679446, 1679810, 1680194, 1680611, 1680971, 1681358, 1681731, 1682177]","[29, 97, 108, 128, 69, 56, 78, 80, 89, 85, 103, 101, 93, 81, 91, 68, 61, 236, 73, 70, 68, 56, 72]","[1673377, 1673724, 1674102, 1674525, 1674897, 1675316, 1675694, 1676116, 1676512, 1676888, 1677268, 1677661, 1678047, 1678430, 1678823, 1679228, 1679629, 1680045, 1680405, 1680796, 1681185, 1681572, 1681961]","[1672962, 1673362, 1673762, 1674162, 1674562, 1674962, 1675362, 1675762, 1676132, 1676528, 1676904, 1677285, 1677677, 1678063, 1678446, 1678839, 1679244, 1679646, 1680059, 1680421, 1680813, 1681201, 1681587, 1681978]",69,OR,U,R,ITMSR,1.1
2,600,trial,0,84,84,84,trial,"['S', 'S', 'S', 'S', 'S', 'S', 'S', 'S', 'C', 'C', 'C', 'C', 'C', 'C', 'C', 'C', 'C', 'C', 'C', 'C', 'C', 'C', 'C', 'C']","[1687885, 1688198, 1688819, 1689388, 1690001, 1690614, 1691185, 1691748, 1692382, 1692942, 1693529, 1694067, 1694598, 1695151, 1695734, 1696289, 1696801, 1697332, 1697917, 1698446, 1698989, 1699507, 1700046, 1700567]","[1688003, 1688433, 1689029, 1689594, 1690201, 1690767, 1691356, 1691936, 1692594, 1693304, 1693900, 1694374, 1694961, 1695528, 1696094, 1696606, 1697150, 1697771, 1698244, 1698790, 1699301, 1699853, 1700374]","[38, 101, 138, 128, 129, 52, 38, 175, 83, 75, 3, 231, 44, 247, 27, 28, 208, 254, 4, 19, 4, 26, 38]","[1687891, 1688202, 1688822, 1689391, 1690004, 1690618, 1691189, 1691840, 1692386, 1692946, 1693534, 1694071, 1694602, 1695323, 1695738, 1696294, 1696806, 1697337, 1697922, 1698632, 1698993, 1699512, 1700051]","[1687682, 1688282, 1688882, 1689482, 1690082, 1690682, 1691282, 1691882, 1692402, 1692962, 1693549, 1694087, 1694618, 1695171, 1695754, 1696309, 1696821, 1697352, 1697937, 1698466, 1699009, 1699527, 1700066, 1700587]",69,OR,U,R,ITMSR,1.1
2,400,trial,0,85,85,85,trial,"['S', 'S', 'S', 'S', 'S', 'S', 'S', 'C', 'C', 'C', 'C', 'C', 'C', 'C', 'C', 'C', 'C', 'C', 'C', 'C', 'C', 'C', 'C']","[1706572, 1706995, 1707381, 1707751, 1708131, 1708548, 1708982, 1709369, 1709757, 1710130, 1710462, 1710861, 1711281, 1711688, 1712084, 1712477, 1712863, 1713288, 1713681, 1714097, 1714469, 1714849, 1715258]","[1706761, 1707145, 1707545, 1707891, 1708302, 1708705, 1709164, 1709524, 1709914, 1710263, 1710657, 1711064, 1711441, 1711854, 1712240, 1712642, 1713010, 1713440, 1713858, 1714235, 1714618, 1715026, 1715444]","[83, 69, 103, 104, 93, 60, 74, 19, 62, 242, 216, 97, 163, 163, 159, 229, 212, 3, 106, 127, 199, 6, 18]","[1706576, 1706999, 1707384, 1707755, 1708134, 1708553, 1708986, 1709374, 1709761, 1710135, 1710468, 1710867, 1711286, 1711693, 1712090, 1712482, 1712868, 1713292, 1713778, 1714102, 1714473, 1714853, 1715262]","[1706203, 1706603, 1707003, 1707403, 1707803, 1708204, 1708603, 1709003, 1709389, 1709777, 1710150, 1710482, 1710881, 1711301, 1711708, 1712104, 1712497, 1712883, 1713308, 1713701, 1714117, 1714489, 1714869, 1715278]",69,OR,U,R,ITMSR,1.1
4,400,trial,0,86,86,86,trial,"['S', 'S', 'S', 'S', 'S', 'S', 'S', 'C', 'C', 'C', 'C', 'C', 'C', 'C', 'C', 'C', 'C', 'C', 'C', 'C', 'C', 'C', 'C']","[1721017, 1721480, 1721881, 1722304, 1722677, 1723126, 1723508, 1723920, 1724294, 1724668, 1725037, 1725432, 1725811, 1726204, 1726580, 1726959, 1727338, 1727702, 1728112, 1728471, 1728846, 1729226, 1729605]","[1721129, 1721609, 1722045, 1722451, 1722778, 1723265, 1723668, 1724048, 1724439, 1724818, 1725215, 1725616, 1725985, 1726369, 1726763, 1727119, 1727492, 1727872, 1728265, 1728643, 1728996, 1729424, 1729768]","[252, 101, 126, 91, 100, 112, 78, 67, 78, 38, 86, 85, 65, 24, 91, 77, 70, 228, 180, 251, 241, 188, 216]","[1721018, 1721483, 1721883, 1722308, 1722681, 1723129, 1723511, 1723924, 1724298, 1724673, 1725040, 1725435, 1725815, 1726209, 1726583, 1726963, 1727342, 1727707, 1728116, 1728476, 1728850, 1729230, 1729609]","[1720761, 1721161, 1721561, 1721961, 1722361, 1722761, 1723161, 1723561, 1723940, 1724314, 1724688, 1725058, 1725452, 1725831, 1726224, 1726600, 1726979, 1727358, 1727722, 1728132, 1728491, 1728866, 1729246, 1729625]",69,OR,U,R,ITMSR,1.1
5,400,trial,0,87,87,87,trial,"['B', 'S', 'S', 'S', 'S', 'S', 'S', 'S', 'C', 'C', 'C', 'C', 'C', 'C', 'C', 'C', 'C', 'C', 'C', 'C', 'C', 'C', 'C', 'C']","[1735117, 1735444, 1735871, 1736280, 1736660, 1737049, 1737450, 1737858, 1738269, 1738673, 1739062, 1739440, 1739832, 1740215, 1740581, 1740980, 1741361, 1741745, 1742134, 1742512, 1742878, 1743259, 1743643, 1744051]","[1735158, 1735630, 1736003, 1736409, 1736791, 1737190, 1737600, 1738014, 1738399, 1738821, 1739191, 1739573, 1739943, 1740346, 1740727, 1741115, 1741477, 1741882, 1742263, 1742644, 1742983, 1743363, 1743803, 1744189]","[26, 70, 114, 91, 121, 96, 85, 85, 105, 92, 73, 63, 103, 97, 50, 53, 101, 47, 36, 0, 1, 249, 27, 57]","[1735117, 1735447, 1735874, 1736283, 1736664, 1737052, 1737453, 1737862, 1738272, 1738677, 1739065, 1739443, 1739835, 1740218, 1740585, 1740984, 1741364, 1741748, 1742138, 1742516, 1742882, 1743263, 1743648, 1744055]","[1735129, 1735529, 1735929, 1736329, 1736729, 1737129, 1737529, 1737929, 1738289, 1738693, 1739082, 1739460, 1739852, 1740235, 1740601, 1741000, 1741381, 1741765, 1742154, 1742532, 1742898, 1743279, 1743663, 1744071]",69,OR,U,R,ITMSR,1.1
4,600,trial,0,88,88,88,trial,"['S', 'S', 'S', 'S', 'S', 'S', 'S', 'C', 'C', 'C', 'C', 'C', 'C', 'C', 'C', 'C', 'C', 'C', 'C', 'C', 'C', 'C', 'C']","[1749895, 1750663, 1751320, 1751967, 1752564, 1753172, 1753771, 1754341, 1754883, 1755452, 1755997, 1756536, 1757127, 1757665, 1758160, 1758715, 1759265, 1759822, 1760364, 1760912, 1761418, 1761954, 1762493]","[1750034, 1750803, 1751498, 1752128, 1752683, 1753303, 1753901, 1754467, 1755032, 1755705, 1756155, 1756740, 1757270, 1757867, 1758367, 1758945, 1759469, 1760078, 1760567, 1761126, 1761555, 1762100, 1762626]","[74, 103, 142, 134, 109, 140, 135, 109, 147, 97, 103, 112, 125, 109, 96, 72, 118, 120, 125, 137, 255, 127, 124]","[1749898, 1750666, 1751322, 1751970, 1752567, 1753176, 1753774, 1754344, 1754886, 1755455, 1756000, 1756539, 1757130, 1757668, 1758163, 1758720, 1759268, 1759825, 1760367, 1760915, 1761420, 1761957, 1762496]","[1749604, 1750203, 1750803, 1751403, 1752003, 1752603, 1753203, 1753803, 1754361, 1754903, 1755472, 1756017, 1756556, 1757147, 1757685, 1758180, 1758735, 1759285, 1759842, 1760385, 1760932, 1761438, 1761974, 1762513]",69,OR,U,R,ITMSR,1.1
3,600,trial,0,89,89,89,trial,"['B', 'S', 'S', 'S', 'S', 'S', 'S', 'S', 'C', 'C', 'C', 'C', 'C', 'C', 'C', 'C', 'C', 'C', 'C', 'C', 'C', 'C', 'C', 'C']","[1768119, 1768513, 1769210, 1769818, 1770442, 1771009, 1771610, 1772199, 1772843, 1773433, 1773954, 1774486, 1775027, 1775570, 1776129, 1776667, 1777221, 1777729, 1778268, 1778838, 1779364, 1779859, 1780374, 1780952]","[1768251, 1768657, 1769372, 1769966, 1770582, 1771155, 1771757, 1772381, 1772992, 1773562, 1774135, 1774642, 1775210, 1775772, 1776312, 1776868, 1777404, 1777986, 1778489, 1779047, 1779570, 1780106, 1780674, 1781207]","[103, 126, 105, 124, 101, 56, 116, 128, 112, 126, 99, 90, 105, 106, 72, 87, 102, 58, 94, 107, 79, 85, 67, 29]","[1768142, 1768516, 1769213, 1769820, 1770445, 1771012, 1771613, 1772203, 1772846, 1773435, 1773957, 1774488, 1775030, 1775574, 1776133, 1776670, 1777224, 1777733, 1778271, 1778841, 1779367, 1779863, 1780377, 1780957]","[1768130, 1768730, 1769330, 1769930, 1770530, 1771130, 1771730, 1772331, 1772863, 1773453, 1773974, 1774507, 1775047, 1775590, 1776149, 1776687, 1777241, 1777750, 1778288, 1778859, 1779384, 1779879, 1780395, 1780972]",69,OR,U,R,ITMSR,1.1
1,400,trial,0,90,90,90,trial,"['S', 'S', 'S', 'S', 'S', 'S', 'S', 'C', 'C', 'C', 'C', 'C', 'C', 'C', 'C', 'C', 'C', 'C', 'C', 'C', 'C', 'C', 'C']","[1786688, 1787055, 1787452, 1787872, 1788267, 1788677, 1789071, 1789474, 1789856, 1790243, 1790642, 1791016, 1791424, 1791804, 1792218, 1792586, 1792989, 1793379, 1793764, 1794137, 1794506, 1794904, 1795303]","[1786804, 1787195, 1787613, 1788018, 1788416, 1788804, 1789227, 1789617, 1790007, 1790397, 1790780, 1791165, 1791561, 1791944, 1792347, 1792765, 1793134, 1793542, 1793936, 1794254, 1794636, 1795070, 1795471]","[135, 140, 126, 108, 114, 71, 61, 91, 73, 92, 97, 46, 28, 39, 84, 17, 54, 77, 63, 233, 76, 77, 105]","[1786694, 1787058, 1787455, 1787876, 1788270, 1788680, 1789075, 1789477, 1789860, 1790246, 1790645, 1791021, 1791428, 1791808, 1792222, 1792590, 1792993, 1793382, 1793767, 1794141, 1794510, 1794908, 1795307]","[1786350, 1786750, 1787150, 1787550, 1787950, 1788350, 1788750, 1789150, 1789494, 1789876, 1790263, 1790662, 1791036, 1791444, 1791824, 1792238, 1792606, 1793009, 1793399, 1793784, 1794157, 1794526, 1794924, 1795323]",69,OR,U,R,ITMSR,1.1
