pitch,ioi,event,.thisRepN,.thisTrialN,.thisN,.thisIndex,event,tap_types,tap_times,release_times,peak_pressures,peak_times,tone_times,subject,experimenter,register,handedness,experiment,version,
,,SPR,0,-1,-1,0,SPR,"['P', 'P', 'P', 'P', 'P', 'P', 'P', 'P', 'P', 'P', 'P', 'P', 'P', 'P', 'P', 'P', 'P', 'P', 'P', 'P', 'P', 'P', 'P', 'P', 'P', 'P', 'P', 'P', 'P', 'P']","[31155, 31716, 32242, 32816, 33328, 33914, 34486, 35087, 35599, 36120, 36694, 37215, 37767, 38262, 38846, 39375, 39902, 40432, 40971, 41532, 42053, 42605, 43120, 43631, 44162, 44681, 45224, 45723, 46226, 46716]","[31239, 31837, 32389, 32959, 33486, 34076, 34634, 35265, 35743, 36301, 36854, 37369, 37901, 38400, 38972, 39504, 40024, 40581, 41129, 41652, 42204, 42708, 43255, 43770, 44313, 44832, 45358, 45883, 46356, 46858]","[1, 70, 51, 79, 62, 63, 74, 135, 52, 110, 110, 98, 98, 47, 74, 41, 83, 77, 77, 82, 90, 53, 75, 72, 51, 85, 67, 67, 24, 65]","[31160, 31721, 32246, 32821, 33332, 33920, 34490, 35090, 35604, 36211, 36774, 37219, 37771, 38267, 38850, 39380, 39905, 40511, 40974, 41536, 42057, 42609, 43124, 43635, 44167, 44685, 45230, 45727, 46230, 46722]",,54,SB,U,R,ITMSR,1.0,
5,500,practice,0,0,0,0,practice,"['S', 'S', 'S', 'S', 'S', 'S', 'S', 'C', 'C', 'C', 'C', 'C', 'C', 'C', 'C', 'C', 'C', 'C', 'C', 'C', 'C', 'C', 'C']","[102740, 103273, 103755, 104270, 104784, 105271, 105794, 106317, 106842, 107327, 107802, 108284, 108783, 109293, 109759, 110241, 110702, 111184, 111688, 112196, 112698, 113184, 113618]","[102827, 103374, 103863, 104396, 104888, 105378, 105917, 106446, 106979, 107458, 107934, 108399, 108893, 109391, 109862, 110330, 110810, 111290, 111798, 112293, 112817, 113266, 113737]","[61, 58, 84, 67, 77, 64, 46, 70, 88, 59, 75, 75, 49, 81, 74, 65, 86, 67, 60, 37, 58, 44, 54]","[102746, 103278, 103759, 104275, 104790, 105276, 105799, 106322, 106909, 107380, 107806, 108289, 108788, 109298, 109764, 110246, 110707, 111234, 111736, 112239, 112750, 113188, 113674]","[102326, 102825, 103325, 103827, 104327, 104826, 105326, 105826, 106356, 106882, 107367, 107841, 108323, 108822, 109333, 109799, 110280, 110741, 111223, 111727, 112235, 112738, 113223, 113657]",54,SB,U,R,ITMSR,1.0,
2,500,practice,0,1,1,1,practice,"['S', 'S', 'S', 'S', 'S', 'S', 'S', 'C', 'C', 'C', 'C', 'C', 'C', 'C', 'C', 'C', 'C', 'C', 'C', 'C', 'C', 'C', 'C']","[119912, 120419, 120938, 121408, 121946, 122406, 122859, 123401, 123821, 124333, 124898, 125434, 125931, 126379, 126930, 127497, 128025, 128590, 129060, 129641, 130216, 130750, 131286]","[120012, 120521, 121035, 121506, 122032, 122488, 122950, 123485, 123916, 124473, 125002, 125522, 126022, 126503, 127050, 127585, 128120, 128672, 129160, 129735, 130313, 130842, 131386]","[81, 67, 27, 7, 14, 216, 14, 234, 253, 251, 215, 182, 196, 214, 218, 177, 208, 184, 225, 227, 187, 120, 214]","[119962, 120423, 120944, 121414, 121952, 122432, 122865, 123407, 123827, 124406, 124905, 125441, 125938, 126438, 126984, 127503, 128031, 128598, 129067, 129648, 130222, 130757, 131291]","[119406, 119907, 120407, 120906, 121407, 121907, 122406, 122906, 123442, 123862, 124374, 124939, 125474, 125972, 126419, 126970, 127538, 128065, 128630, 129100, 129682, 130256, 130791, 131326]",54,SB,U,R,ITMSR,1.0,
1,500,practice,0,2,2,2,practice,"['S', 'S', 'S', 'S', 'S', 'S', 'S', 'C', 'C', 'C', 'C', 'C', 'C', 'C', 'C', 'C', 'C', 'C', 'C', 'C', 'C', 'C', 'C']","[137326, 137890, 138438, 138989, 139447, 139923, 140450, 140922, 141405, 141920, 142416, 142921, 143395, 143934, 144424, 144927, 145453, 145924, 146504, 147004, 147526, 148079, 148573]","[137441, 137998, 138545, 139077, 139524, 139998, 140528, 140998, 141479, 141998, 142512, 143012, 143490, 144026, 144505, 145013, 145528, 146023, 146581, 147094, 147609, 148153, 148685]","[19, 208, 227, 132, 188, 167, 227, 5, 219, 6, 232, 190, 178, 17, 191, 249, 163, 242, 195, 250, 210, 126, 243]","[137331, 137896, 138444, 138994, 139452, 139925, 140455, 140928, 141411, 141925, 142423, 142927, 143403, 143939, 144431, 144932, 145458, 145930, 146510, 147009, 147531, 148086, 148631]","[136923, 137422, 137922, 138423, 138923, 139422, 139923, 140423, 140960, 141444, 141959, 142454, 142959, 143433, 143973, 144462, 144965, 145491, 145963, 146542, 147043, 147564, 148117, 148612]",54,SB,U,R,ITMSR,1.0,
0,500,practice,0,3,3,3,practice,"['S', 'S', 'S', 'S', 'S', 'S', 'S', 'C', 'C', 'C', 'C', 'C', 'C', 'C', 'C', 'C', 'C', 'C', 'C', 'C', 'C', 'C', 'C']","[154735, 155288, 155835, 156362, 156823, 157388, 157862, 158340, 158815, 159348, 159818, 160354, 160879, 161357, 161859, 162382, 162857, 163373, 163843, 164346, 164832, 165343, 165877]","[154862, 155400, 155925, 156437, 156924, 157477, 157936, 158430, 158908, 159454, 159960, 160471, 160979, 161460, 161956, 162453, 162953, 163474, 163955, 164446, 164940, 165425, 165962]","[248, 15, 165, 158, 180, 226, 131, 197, 239, 214, 219, 216, 229, 187, 161, 159, 140, 214, 150, 214, 186, 128, 59]","[154739, 155293, 155839, 156371, 156829, 157394, 157862, 158347, 158821, 159353, 159823, 160360, 160884, 161363, 161901, 162388, 162865, 163379, 163850, 164353, 164838, 165349, 165884]","[154362, 154862, 155363, 155863, 156362, 156863, 157363, 157862, 158381, 158856, 159388, 159858, 160395, 160919, 161397, 161900, 162422, 162897, 163414, 163884, 164386, 164873, 165384, 165917]",54,SB,U,R,ITMSR,1.0,
3,500,practice,0,4,4,4,practice,"['S', 'S', 'S', 'S', 'S', 'S', 'S', 'C', 'C', 'C', 'C', 'C', 'C', 'C', 'C', 'C', 'C', 'C', 'C', 'C', 'C', 'C', 'C']","[171968, 172517, 173032, 173518, 174025, 174543, 175028, 175522, 175982, 176538, 177051, 177544, 178073, 178569, 179051, 179561, 180098, 180582, 181104, 181660, 182145, 182673, 183194]","[172078, 172603, 173115, 173607, 174127, 174629, 175126, 175598, 176099, 176631, 177135, 177634, 178153, 178651, 179142, 179653, 180150, 180691, 181211, 181740, 182226, 182753, 183300]","[30, 251, 203, 192, 234, 242, 167, 64, 167, 120, 165, 191, 169, 201, 209, 93, 85, 175, 65, 143, 130, 142, 148]","[171972, 172522, 173038, 173523, 174030, 174547, 175033, 175526, 175986, 176544, 177055, 177549, 178078, 178572, 179055, 179567, 180103, 180586, 181109, 181666, 182151, 182678, 183199]","[171579, 172078, 172577, 173077, 173578, 174077, 174577, 175078, 175561, 176020, 176576, 177090, 177583, 178112, 178609, 179090, 179600, 180137, 180621, 181142, 181698, 182184, 182712, 183233]",54,SB,U,R,ITMSR,1.0,
4,500,practice,0,5,5,5,practice,"['S', 'S', 'S', 'S', 'S', 'S', 'S', 'C', 'C', 'C', 'C', 'C', 'C', 'C', 'C', 'C', 'C', 'C', 'C', 'C', 'C', 'C', 'C']","[189133, 189587, 190059, 190545, 191053, 191537, 192111, 192567, 193078, 193569, 194085, 194572, 195110, 195621, 196073, 196569, 197051, 197554, 198048, 198652, 199111, 199609, 200101]","[189182, 189656, 190121, 190626, 191112, 191616, 192158, 192635, 193150, 193653, 194156, 194664, 195198, 195680, 196163, 196643, 197105, 197633, 198132, 198732, 199185, 199713, 200179]","[91, 199, 59, 102, 48, 113, 162, 74, 55, 79, 105, 97, 99, 54, 112, 86, 63, 122, 62, 76, 28, 104, 80]","[189137, 189627, 190063, 190550, 191057, 191541, 192120, 192570, 193083, 193573, 194088, 194575, 195115, 195625, 196077, 196572, 197056, 197558, 198052, 198658, 199116, 199613, 200105]","[188611, 189112, 189612, 190111, 190612, 191112, 191611, 192111, 192608, 193119, 193609, 194125, 194613, 195150, 195661, 196114, 196610, 197092, 197595, 198088, 198692, 199151, 199650, 200141]",54,SB,U,R,ITMSR,1.0,
2,600,trial,0,6,6,6,trial,"['S', 'S', 'S', 'S', 'S', 'S', 'S', 'C', 'C', 'C', 'C', 'C', 'C', 'C', 'C', 'C', 'C', 'C', 'C', 'C', 'C', 'C', 'C']","[237546, 238243, 238914, 239586, 240193, 240778, 241419, 242003, 242621, 243256, 243837, 244472, 245060, 245688, 246263, 246870, 247524, 248129, 248697, 249278, 249831, 250417, 250996]","[237647, 238369, 239042, 239700, 240308, 240896, 241506, 242105, 242716, 243334, 243943, 244572, 245151, 245799, 246386, 246981, 247620, 248226, 248826, 249403, 249981, 250549, 251150]","[67, 31, 23, 6, 250, 27, 223, 40, 250, 205, 218, 249, 205, 217, 222, 234, 171, 170, 198, 223, 210, 191, 20]","[237550, 238299, 238918, 239591, 240195, 240781, 241444, 242008, 242626, 243261, 243842, 244477, 245065, 245692, 246269, 246875, 247530, 248135, 248704, 249283, 249908, 250422, 251073]","[237218, 237818, 238418, 239019, 239619, 240219, 240819, 241419, 242043, 242662, 243297, 243877, 244512, 245100, 245729, 246303, 246910, 247565, 248170, 248737, 249319, 249872, 250458, 251036]",54,SB,U,R,ITMSR,1.0,
3,400,trial,0,7,7,7,trial,"['S', 'S', 'S', 'S', 'S', 'S', 'C', 'C', 'C', 'C', 'C', 'C', 'C', 'C', 'C', 'C', 'C', 'C', 'C', 'C', 'C', 'C']","[256960, 257467, 258194, 258569, 258979, 259405, 259836, 260264, 260628, 261001, 261407, 261797, 262189, 262600, 263014, 263419, 263830, 264235, 264608, 265030, 265469, 265830]","[257052, 257565, 258281, 258642, 259065, 259505, 259929, 260329, 260698, 261076, 261481, 261877, 262265, 262687, 263091, 263484, 263898, 264302, 264665, 265086, 265530, 265895]","[21, 68, 197, 177, 181, 199, 184, 82, 149, 192, 133, 174, 64, 172, 88, 125, 211, 63, 21, 117, 64, 136]","[256968, 257474, 258199, 258574, 258984, 259410, 259842, 260271, 260632, 261006, 261413, 261804, 262194, 262606, 263019, 263424, 263836, 264241, 264613, 265035, 265476, 265870]","[256705, 257104, 257505, 257904, 258305, 258705, 259104, 259505, 259874, 260302, 260668, 261040, 261445, 261835, 262228, 262639, 263053, 263457, 263869, 264273, 264646, 265069, 265508, 265869]",54,SB,U,R,ITMSR,1.0,
2,400,trial,0,8,8,8,trial,"['S', 'S', 'S', 'S', 'S', 'S', 'S', 'C', 'C', 'C', 'C', 'C', 'C', 'C', 'C', 'C', 'C', 'C', 'C', 'C', 'C', 'C', 'C']","[272025, 272602, 272959, 273285, 273642, 274012, 274392, 274776, 275167, 275575, 275975, 276399, 276754, 277175, 277564, 278006, 278405, 278822, 279174, 279586, 279958, 280385, 280819]","[272143, 272708, 273026, 273373, 273737, 274111, 274485, 274857, 275248, 275679, 276089, 276480, 276843, 277263, 277676, 278100, 278531, 278887, 279257, 279662, 280054, 280478, 280902]","[27, 141, 86, 178, 216, 195, 235, 69, 56, 149, 184, 78, 89, 94, 104, 100, 167, 71, 94, 113, 202, 48, 32]","[272084, 272650, 272968, 273320, 273685, 274052, 274438, 274819, 275212, 275628, 276021, 276408, 276800, 277221, 277611, 278048, 278454, 278833, 279183, 279596, 280006, 280394, 280829]","[271684, 272084, 272485, 272884, 273285, 273685, 274084, 274485, 274817, 275208, 275615, 276016, 276440, 276795, 277216, 277605, 278046, 278446, 278862, 279215, 279626, 279999, 280426, 280859]",54,SB,U,R,ITMSR,1.0,
4,600,trial,0,9,9,9,trial,"['S', 'S', 'S', 'S', 'S', 'S', 'S', 'C', 'C', 'C', 'C', 'C', 'C', 'C', 'C', 'C', 'C', 'C', 'C', 'C', 'C', 'C', 'C']","[286848, 287520, 288160, 288808, 289399, 290036, 290629, 291227, 291920, 292511, 293057, 293688, 294231, 294830, 295379, 295961, 296605, 297195, 297775, 298315, 298955, 299615, 300108]","[286913, 287616, 288235, 288912, 289530, 290143, 290767, 291354, 292025, 292611, 293171, 293836, 294395, 294988, 295485, 296097, 296688, 297291, 297836, 298441, 299049, 299726, 300273]","[241, 59, 9, 186, 213, 243, 23, 32, 23, 9, 40, 51, 77, 112, 109, 73, 78, 57, 3, 244, 78, 125, 107]","[286857, 287567, 288169, 288846, 289458, 290044, 290715, 291236, 291930, 292558, 293107, 293741, 294241, 294919, 295389, 295970, 296613, 297205, 297783, 298369, 298966, 299625, 300116]","[286513, 287112, 287712, 288312, 288912, 289512, 290112, 290711, 291267, 291960, 292551, 293098, 293729, 294272, 294871, 295419, 296001, 296645, 297236, 297816, 298355, 298995, 299656, 300148]",54,SB,U,R,ITMSR,1.0,
5,600,trial,0,10,10,10,trial,"['S', 'S', 'S', 'S', 'S', 'S', 'C', 'C', 'C', 'C', 'C', 'C', 'C', 'C', 'C', 'C', 'C', 'C', 'C', 'C', 'C', 'C']","[307033, 307604, 308249, 308872, 309438, 310000, 310658, 311202, 311905, 312504, 313146, 313755, 314364, 314978, 315579, 316196, 316835, 317520, 318203, 318747, 319349, 319981]","[307103, 307675, 308330, 308944, 309554, 310116, 310735, 311341, 312019, 312637, 313273, 313891, 314502, 315125, 315752, 316342, 316933, 317641, 318296, 318906, 319524, 320021]","[231, 207, 249, 141, 226, 143, 159, 161, 80, 51, 67, 58, 31, 54, 1, 107, 105, 59, 214, 199, 65, 115]","[307041, 307612, 308295, 308879, 309446, 310010, 310665, 311212, 311912, 312512, 313152, 313762, 314448, 314987, 315660, 316205, 316845, 317569, 318243, 318850, 319461, 319989]","[305871, 306470, 307070, 307672, 308272, 308872, 309471, 310071, 310697, 311241, 311945, 312544, 313186, 313794, 314403, 315018, 315619, 316235, 316874, 317559, 318242, 318786, 319388, 320021]",54,SB,U,R,ITMSR,1.0,
1,400,trial,0,11,11,11,trial,"['S', 'S', 'S', 'S', 'S', 'S', 'C', 'C', 'C', 'C', 'C', 'C', 'C', 'C', 'C', 'C', 'C', 'C', 'C', 'C', 'C', 'C']","[326643, 326982, 327362, 327756, 328152, 328558, 328951, 329394, 329801, 330219, 330615, 331024, 331453, 331856, 332231, 332643, 333086, 333486, 333953, 334367, 334763, 335179]","[326728, 327059, 327422, 327808, 328227, 328578, 329022, 329455, 329875, 330290, 330685, 331079, 331517, 331911, 332298, 332712, 333127, 333555, 333991, 334405, 334801, 335217]","[31, 168, 157, 17, 59, 177, 207, 130, 133, 132, 133, 41, 76, 177, 25, 186, 28, 107, 36, 64, 156, 153]","[326647, 326986, 327367, 327760, 328158, 328563, 328956, 329400, 329805, 330223, 330619, 331027, 331458, 331860, 332235, 332647, 333089, 333489, 333956, 334370, 334768, 335183]","[325809, 326207, 326607, 327008, 327407, 327808, 328208, 328607, 328989, 329433, 329839, 330258, 330653, 331063, 331492, 331894, 332269, 332682, 333124, 333524, 333991, 334405, 334801, 335217]",54,SB,U,R,ITMSR,1.0,
5,400,trial,0,12,12,12,trial,"['S', 'S', 'S', 'S', 'S', 'S', 'C', 'C', 'C', 'C', 'C', 'C', 'C', 'C', 'C', 'C', 'C', 'C', 'C', 'C', 'C', 'C']","[341567, 341946, 342310, 342712, 343105, 343490, 343892, 344302, 344705, 345115, 345498, 345913, 346316, 346696, 347095, 347446, 347845, 348292, 348684, 349110, 349574, 349920]","[341647, 342003, 342374, 342732, 343155, 343546, 343942, 344365, 344744, 345154, 345537, 345972, 346372, 346754, 347148, 347510, 347909, 348355, 348729, 349158, 349614, 349998]","[4, 182, 213, 155, 123, 72, 138, 158, 142, 156, 211, 130, 133, 118, 150, 107, 54, 159, 75, 185, 103, 198]","[341571, 341951, 342315, 342715, 343109, 343493, 343896, 344306, 344708, 345119, 345501, 345917, 346319, 346700, 347099, 347450, 347849, 348295, 348688, 349114, 349577, 349922]","[340803, 341202, 341603, 342002, 342403, 342803, 343202, 343603, 343931, 344341, 344744, 345154, 345537, 345953, 346355, 346735, 347134, 347486, 347884, 348332, 348724, 349150, 349614, 349960]",54,SB,U,R,ITMSR,1.0,
0,400,trial,0,13,13,13,trial,"['S', 'S', 'S', 'S', 'S', 'S', 'C', 'C', 'C', 'C', 'C', 'C', 'C', 'C', 'C', 'C', 'C', 'C', 'C', 'C', 'C', 'C']","[356315, 356690, 357013, 357448, 357836, 358237, 358615, 359081, 359510, 359921, 360309, 360740, 361144, 361564, 361968, 362403, 362801, 363220, 363585, 363997, 364461, 364849]","[356390, 356730, 357120, 357531, 357898, 358330, 358691, 359157, 359615, 360011, 360410, 360873, 361306, 361696, 362097, 362488, 362898, 363260, 363666, 364087, 364502, 364951]","[203, 45, 236, 182, 17, 70, 211, 227, 81, 9, 22, 101, 19, 208, 245, 22, 89, 236, 89, 119, 136, 54]","[356320, 356690, 357062, 357467, 357859, 358263, 358631, 359099, 359559, 359974, 360325, 360816, 361206, 361629, 362047, 362420, 362867, 363234, 363602, 364014, 364475, 364915]","[355491, 355891, 356290, 356690, 357091, 357490, 357891, 358291, 358656, 359121, 359550, 359961, 360349, 360780, 361185, 361605, 362008, 362443, 362842, 363260, 363626, 364038, 364502, 364890]",54,SB,U,R,ITMSR,1.0,
3,400,trial,0,14,14,14,trial,"['S', 'S', 'S', 'S', 'S', 'S', 'C', 'C', 'C', 'C', 'C', 'C', 'C', 'C', 'C', 'C', 'C', 'C', 'C', 'C', 'C', 'C']","[370933, 371288, 371753, 372066, 372475, 372859, 373636, 374048, 374457, 374840, 375260, 375635, 376056, 376877, 377296, 377687, 378091, 378450, 378833, 379170, 379568, 379960]","[371002, 371392, 371841, 372162, 372542, 372941, 373676, 374100, 374503, 374916, 375323, 375674, 376127, 376965, 377380, 377774, 378199, 378554, 378959, 379328, 379707, 380085]","[26, 184, 100, 124, 55, 17, 244, 229, 234, 1, 223, 80, 244, 31, 27, 56, 69, 150, 253, 238, 172, 147]","[370956, 371316, 371776, 372091, 372495, 372881, 373650, 374064, 374471, 374856, 375273, 375645, 376070, 376892, 377335, 377726, 378131, 378490, 378904, 379268, 379652, 380030]","[370518, 370917, 371316, 371717, 372116, 372516, 372917, 373316, 373675, 374086, 374497, 374879, 375300, 375673, 376095, 376916, 377334, 377726, 378131, 378489, 378872, 379209, 379608, 379999]",54,SB,U,R,ITMSR,1.0,
5,600,trial,0,15,15,15,trial,"['S', 'S', 'S', 'S', 'S', 'S', 'S', 'C', 'C', 'C', 'C', 'C', 'C', 'C', 'C', 'C', 'C', 'C', 'C', 'C', 'C', 'C', 'C']","[385920, 386600, 387232, 387868, 388459, 389029, 389625, 390190, 390812, 391421, 391917, 392528, 393142, 393688, 394320, 394883, 395501, 396063, 396669, 397292, 397861, 398419, 399022]","[386044, 386724, 387369, 387982, 388582, 389169, 389801, 390388, 391014, 391588, 392155, 392755, 393368, 393925, 394469, 395024, 395642, 396280, 396853, 397344, 398002, 398567, 399175]","[121, 135, 106, 40, 54, 161, 184, 204, 181, 184, 189, 178, 198, 212, 69, 23, 159, 188, 149, 151, 101, 90, 144]","[385937, 386652, 387256, 387886, 388477, 389051, 389647, 390259, 390861, 391439, 391957, 392545, 393160, 393703, 394396, 394900, 395517, 396104, 396748, 397307, 397878, 398496, 399040]","[385569, 386169, 386768, 387369, 387969, 388569, 389169, 389769, 390230, 390851, 391460, 391957, 392567, 393182, 393728, 394359, 394923, 395541, 396102, 396708, 397332, 397900, 398458, 399062]",54,SB,U,R,ITMSR,1.0,
5,400,trial,0,16,16,16,trial,"['S', 'S', 'S', 'S', 'S', 'S', 'S', 'C', 'C', 'C', 'C', 'C', 'C', 'C', 'C', 'C', 'C', 'C', 'C', 'C', 'C', 'C', 'C']","[405235, 405658, 406019, 406389, 406719, 407158, 407553, 407934, 408387, 408807, 409241, 409671, 410112, 410539, 410949, 411399, 411830, 412286, 412745, 413204, 413621, 414009, 414417]","[405315, 405719, 406103, 406460, 406814, 407260, 407632, 408011, 408427, 408876, 409319, 409763, 410160, 410630, 411059, 411507, 411948, 412423, 412908, 413293, 413705, 414111, 414503]","[75, 207, 248, 232, 51, 200, 165, 83, 121, 81, 117, 133, 62, 247, 231, 86, 59, 33, 124, 38, 46, 55, 25]","[405260, 405663, 406037, 406411, 406744, 407183, 407576, 407951, 408402, 408824, 409254, 409689, 410129, 410578, 410966, 411416, 411847, 412358, 412816, 413221, 413639, 414026, 414435]","[404859, 405260, 405658, 406060, 406459, 406858, 407260, 407659, 407973, 408427, 408847, 409280, 409710, 410151, 410578, 410988, 411439, 411870, 412325, 412784, 413244, 413661, 414049, 414456]",54,SB,U,R,ITMSR,1.0,
0,600,trial,0,17,17,17,trial,"['S', 'S', 'S', 'S', 'S', 'S', 'C', 'C', 'C', 'C', 'C', 'C', 'C', 'C', 'C', 'C', 'C', 'C', 'C', 'C', 'C', 'C']","[421210, 421720, 422368, 422933, 423537, 424122, 424748, 425363, 426007, 426587, 427253, 427860, 428523, 429101, 429812, 430438, 431063, 431646, 432257, 432878, 433494, 434100]","[421292, 421815, 422398, 423018, 423634, 424241, 424847, 425463, 426095, 426715, 427357, 427978, 428641, 429230, 429899, 430522, 431172, 431736, 432356, 432970, 433613, 434184]","[145, 87, 71, 149, 52, 175, 145, 134, 101, 140, 63, 25, 219, 113, 209, 20, 145, 53, 158, 130, 15, 123]","[421232, 421739, 422368, 422944, 423568, 424143, 424766, 425379, 426024, 426605, 427271, 427878, 428540, 429118, 429829, 430455, 431080, 431663, 432274, 432894, 433512, 434116]","[419968, 420568, 421168, 421768, 422368, 422968, 423568, 424168, 424788, 425404, 426048, 426628, 427293, 427900, 428564, 429142, 429852, 430479, 431104, 431686, 432297, 432918, 433534, 434141]",54,SB,U,R,ITMSR,1.0,
0,600,trial,0,18,18,18,trial,"['S', 'S', 'S', 'S', 'S', 'S', 'C', 'C', 'C', 'C', 'C', 'C', 'C', 'C', 'C', 'C', 'C', 'C', 'C', 'C', 'C', 'C']","[440922, 441451, 442059, 442696, 443351, 443912, 444581, 445202, 445851, 446398, 447058, 447687, 448354, 448905, 449572, 450203, 450854, 451483, 452088, 452686, 453305, 453972]","[441005, 441571, 442195, 442791, 443372, 443991, 444659, 445293, 445927, 446503, 447138, 447780, 448431, 449024, 449669, 450345, 450958, 451587, 452189, 452811, 453430, 454057]","[191, 180, 214, 134, 68, 111, 78, 29, 235, 186, 155, 17, 28, 161, 92, 208, 84, 178, 132, 157, 217, 47]","[440950, 441468, 442127, 442713, 443353, 443927, 444597, 445220, 445869, 446468, 447075, 447705, 448398, 448976, 449589, 450275, 450871, 451548, 452155, 452757, 453372, 453990]","[439750, 440350, 440950, 441550, 442150, 442750, 443351, 443951, 444621, 445243, 445891, 446439, 447098, 447727, 448395, 448946, 449612, 450243, 450894, 451523, 452128, 452726, 453346, 454012]",54,SB,U,R,ITMSR,1.0,
1,600,trial,0,19,19,19,trial,"['S', 'S', 'S', 'S', 'S', 'S', 'C', 'C', 'C', 'C', 'C', 'C', 'C', 'C', 'C', 'C', 'C', 'C', 'C', 'C', 'C', 'C']","[460616, 461132, 461746, 462358, 462929, 463523, 464118, 464751, 465351, 465959, 466568, 467177, 467764, 468343, 468907, 469504, 470130, 470808, 471365, 471995, 473076, 473709]","[460655, 461230, 461843, 462393, 463013, 463607, 464165, 464795, 465439, 466054, 466655, 467264, 467852, 468388, 468994, 469592, 470219, 470898, 471455, 472034, 473157, 473824]","[157, 162, 123, 63, 52, 127, 58, 217, 69, 30, 75, 235, 0, 179, 51, 70, 124, 61, 228, 64, 108, 192]","[460630, 461150, 461759, 462381, 462950, 463539, 464134, 464768, 465369, 465976, 466584, 467194, 467779, 468349, 468924, 469519, 470146, 470825, 471382, 472002, 473093, 473781]","[459381, 459980, 460580, 461180, 461780, 462381, 462981, 463581, 464156, 464789, 465389, 465997, 466607, 467216, 467803, 468381, 468945, 469542, 470168, 470847, 471403, 472034, 473114, 473748]",54,SB,U,R,ITMSR,1.0,
1,600,trial,0,20,20,20,trial,"['S', 'S', 'S', 'S', 'S', 'S', 'S', 'C', 'C', 'C', 'C', 'C', 'C', 'C', 'C', 'C', 'C', 'C', 'C', 'C', 'C', 'C', 'C']","[479941, 480457, 481070, 481707, 482350, 482909, 483496, 484084, 484720, 485289, 485942, 486573, 487060, 487758, 488426, 489058, 489629, 490225, 490850, 491468, 492078, 492620, 493211]","[479997, 480570, 481164, 481803, 482432, 483002, 483589, 484182, 484758, 485379, 486019, 486652, 487243, 487869, 488465, 489168, 489762, 490350, 490948, 491559, 492144, 492697, 493253]","[51, 184, 150, 188, 183, 207, 195, 128, 77, 160, 40, 224, 183, 49, 41, 246, 105, 194, 155, 103, 184, 50, 97]","[479947, 480475, 481082, 481717, 482357, 482916, 483512, 484098, 484732, 485307, 485958, 486590, 487164, 487828, 488436, 489137, 489646, 490238, 490860, 491482, 492094, 492632, 493225]","[479342, 479941, 480541, 481141, 481741, 482341, 482941, 483542, 484122, 484758, 485327, 485981, 486611, 487099, 487796, 488465, 489097, 489667, 490263, 490889, 491506, 492116, 492658, 493249]",54,SB,U,R,ITMSR,1.0,
3,600,trial,0,21,21,21,trial,"['S', 'S', 'S', 'S', 'S', 'S', 'C', 'C', 'C', 'C', 'C', 'C', 'C', 'C', 'C', 'C', 'C', 'C', 'C', 'C', 'C', 'C']","[499732, 500268, 500882, 501472, 502112, 502657, 503303, 503886, 504518, 505082, 505618, 506290, 506912, 507456, 508043, 508641, 509254, 509814, 510434, 511039, 511671, 512246]","[499825, 500370, 501030, 501618, 502269, 502822, 503449, 504001, 504557, 505158, 505721, 506369, 507021, 507550, 508176, 508749, 509361, 509942, 510524, 511123, 511711, 512369]","[186, 248, 14, 11, 20, 13, 249, 204, 132, 126, 144, 160, 157, 157, 211, 223, 220, 192, 179, 214, 111, 173]","[499757, 500285, 500897, 501492, 502132, 502674, 503320, 503899, 504530, 505096, 505632, 506304, 506927, 507471, 508061, 508658, 509268, 509832, 510447, 511055, 511686, 512260]","[498557, 499156, 499757, 500357, 500957, 501557, 502157, 502757, 503343, 503925, 504556, 505121, 505658, 506330, 506951, 507496, 508083, 508680, 509292, 509852, 510473, 511079, 511710, 512284]",54,SB,U,R,ITMSR,1.0,
2,400,trial,0,22,22,22,trial,"['S', 'S', 'S', 'S', 'S', 'S', 'C', 'C', 'C', 'C', 'C', 'C', 'C', 'C', 'C', 'C', 'C', 'C', 'C', 'C', 'C', 'C']","[518350, 518790, 519258, 519687, 520112, 520523, 520949, 521372, 521819, 522187, 522602, 522998, 523441, 523890, 524277, 524695, 525125, 525518, 525931, 526360, 526745, 527143]","[518452, 518842, 519297, 519762, 520171, 520609, 521016, 521463, 521872, 522231, 522646, 523077, 523513, 523955, 524327, 524742, 525165, 525600, 525972, 526401, 526832, 527213]","[227, 59, 147, 122, 88, 126, 110, 123, 5, 50, 51, 54, 91, 2, 250, 194, 92, 67, 61, 94, 95, 44]","[518364, 518805, 519272, 519699, 520123, 520536, 520961, 521389, 521832, 522202, 522618, 523013, 523456, 523906, 524294, 524712, 525138, 525535, 525945, 526375, 526760, 527159]","[517809, 518209, 518609, 519010, 519409, 519810, 520210, 520609, 520989, 521412, 521860, 522227, 522643, 523038, 523482, 523930, 524317, 524736, 525165, 525558, 525972, 526401, 526785, 527183]",54,SB,U,R,ITMSR,1.0,
0,400,trial,0,23,23,23,trial,"['S', 'S', 'S', 'S', 'S', 'S', 'C', 'C', 'C', 'C', 'C', 'C', 'C', 'C', 'C', 'C', 'C', 'C', 'C', 'C', 'C', 'C']","[533647, 534005, 534315, 534742, 535127, 535517, 535937, 536365, 536751, 537188, 537560, 538001, 538373, 538780, 539192, 539570, 539997, 540402, 540760, 541231, 541606, 541959]","[533711, 534055, 534415, 534821, 535213, 535607, 536013, 536441, 536839, 537230, 537601, 538042, 538450, 538823, 539233, 539640, 540038, 540442, 540840, 541272, 541691, 542048]","[133, 145, 235, 251, 196, 157, 173, 56, 51, 229, 11, 218, 30, 223, 78, 188, 66, 193, 198, 87, 84, 33]","[533654, 534005, 534335, 534755, 535143, 535533, 535954, 536383, 536768, 537204, 537575, 538016, 538391, 538797, 539208, 539587, 540013, 540417, 540777, 541246, 541623, 541976]","[532805, 533206, 533606, 534005, 534406, 534806, 535206, 535607, 535977, 536406, 536792, 537229, 537601, 538042, 538414, 538820, 539233, 539611, 540038, 540442, 540801, 541272, 541646, 542000]",54,SB,U,R,ITMSR,1.0,
3,600,trial,0,24,24,24,trial,"['S', 'S', 'S', 'S', 'S', 'S', 'S', 'C', 'C', 'C', 'C', 'C', 'C', 'C', 'C', 'C', 'C', 'C', 'C', 'C', 'C', 'C', 'C']","[547855, 548486, 549130, 549774, 550387, 550974, 551573, 552187, 552788, 553379, 553936, 554537, 555158, 555741, 556311, 556903, 557505, 558043, 558679, 559295, 559870, 560547, 561129]","[547939, 548585, 549233, 549850, 550488, 551058, 551658, 552241, 552862, 553418, 553975, 554626, 555198, 555797, 556414, 556958, 557557, 558127, 558766, 559366, 559909, 560630, 561174]","[25, 165, 152, 121, 211, 163, 148, 94, 59, 198, 97, 83, 243, 100, 135, 33, 71, 219, 204, 33, 198, 167, 52]","[547869, 548498, 549138, 549774, 550406, 550984, 551582, 552201, 552803, 553394, 553952, 554554, 555169, 555752, 556327, 556920, 557519, 558059, 558696, 559310, 559883, 560564, 561142]","[547375, 547974, 548574, 549174, 549774, 550374, 550974, 551573, 552225, 552826, 553418, 553974, 554576, 555198, 555780, 556350, 556943, 557545, 558083, 558718, 559335, 559909, 560585, 561169]",54,SB,U,R,ITMSR,1.0,
4,600,trial,0,25,25,25,trial,"['S', 'S', 'S', 'S', 'S', 'S', 'S', 'C', 'C', 'C', 'C', 'C', 'C', 'C', 'C', 'C', 'C', 'C', 'C', 'C', 'C', 'C', 'C']","[567051, 567742, 568364, 569001, 569661, 570286, 570883, 571438, 572051, 572657, 573292, 573862, 574446, 575071, 575674, 576274, 576935, 577506, 578173, 578753, 579349, 579926, 580540]","[567145, 567849, 568483, 569106, 569774, 570405, 570996, 571590, 572238, 572771, 573401, 574002, 574570, 575163, 575802, 576381, 577079, 577665, 578280, 578888, 579488, 580085, 580687]","[42, 158, 188, 17, 23, 14, 248, 210, 219, 240, 232, 202, 181, 206, 202, 211, 209, 124, 32, 155, 147, 104, 178]","[567073, 567753, 568370, 569010, 569667, 570296, 570892, 571455, 572068, 572672, 573309, 573877, 574462, 575080, 575686, 576282, 576945, 577514, 578188, 578764, 579365, 579936, 580547]","[566735, 567334, 567934, 568535, 569135, 569735, 570335, 570935, 571479, 572092, 572697, 573333, 573902, 574486, 575112, 575715, 576315, 576975, 577547, 578213, 578794, 579390, 579966, 580581]",54,SB,U,R,ITMSR,1.0,
1,400,trial,0,26,26,26,trial,"['S', 'S', 'S', 'S', 'S', 'S', 'C', 'C', 'C', 'C', 'C', 'C', 'C', 'C', 'C', 'C', 'C', 'C', 'C', 'C', 'C', 'C']","[586670, 587085, 587474, 587899, 588292, 588725, 589198, 589607, 590000, 590430, 590825, 591232, 591601, 592016, 592423, 592864, 593304, 593744, 594200, 594619, 595020, 595423]","[586726, 587114, 587556, 587953, 588387, 588798, 589256, 589686, 590069, 590479, 590937, 591270, 591647, 592084, 592504, 592958, 593402, 593837, 594307, 594728, 595132, 595513]","[204, 82, 251, 250, 0, 146, 6, 183, 167, 162, 129, 77, 159, 112, 98, 178, 162, 178, 187, 163, 112, 168]","[586678, 587095, 587491, 587911, 588309, 588751, 589207, 589624, 590016, 590444, 590841, 591247, 591614, 592032, 592441, 592880, 593321, 593761, 594216, 594634, 595038, 595438]","[585953, 586351, 586752, 587152, 587551, 587952, 588351, 588751, 589237, 589645, 590039, 590469, 590864, 591270, 591639, 592055, 592461, 592903, 593343, 593782, 594239, 594658, 595058, 595462]",54,SB,U,R,ITMSR,1.0,
4,400,trial,0,27,27,27,trial,"['S', 'S', 'S', 'S', 'S', 'S', 'S', 'C', 'C', 'C', 'C', 'C', 'C', 'C', 'C', 'C', 'C', 'C', 'C', 'C', 'C', 'C', 'C']","[601473, 601847, 602170, 602567, 602985, 603420, 603824, 604227, 604595, 605026, 605385, 605806, 606227, 606619, 607012, 607438, 607846, 608200, 608635, 609020, 609454, 609885, 610247]","[601573, 601927, 602279, 602693, 603109, 603526, 603933, 604297, 604697, 605091, 605476, 605905, 606311, 606725, 607124, 607478, 607960, 608284, 608675, 609085, 609501, 609968, 610367]","[113, 103, 180, 118, 134, 210, 214, 173, 211, 193, 216, 205, 176, 224, 201, 164, 116, 70, 145, 86, 44, 99, 144]","[601487, 601866, 602192, 602589, 602997, 603436, 603839, 604243, 604609, 605041, 605401, 605821, 606244, 606631, 607029, 607452, 607863, 608217, 608644, 609037, 609468, 609902, 610264]","[601022, 601420, 601821, 602220, 602620, 603021, 603420, 603821, 604268, 604636, 605067, 605425, 605846, 606268, 606659, 607052, 607478, 607887, 608240, 608675, 609060, 609495, 609926, 610287]",54,SB,U,R,ITMSR,1.0,
4,400,trial,0,28,28,28,trial,"['S', 'S', 'S', 'S', 'S', 'S', 'S', 'C', 'C', 'C', 'C', 'C', 'C', 'C', 'C', 'C', 'C', 'C', 'C', 'C', 'C', 'C', 'C']","[616502, 616806, 617147, 617509, 617891, 618297, 618721, 619073, 619479, 619860, 620278, 620690, 621112, 621535, 621910, 622336, 622683, 623113, 623535, 623985, 624471, 624857, 625207]","[616549, 616894, 617230, 617605, 617998, 618411, 618757, 619173, 619565, 619967, 620368, 620802, 621215, 621592, 622004, 622406, 622816, 623215, 623586, 624073, 624552, 624965, 625307]","[194, 6, 218, 247, 247, 229, 139, 226, 215, 208, 219, 232, 212, 150, 143, 91, 136, 72, 130, 193, 171, 167, 85]","[616515, 616828, 617180, 617529, 617912, 618318, 618735, 619090, 619496, 619877, 620295, 620708, 621129, 621552, 621927, 622353, 622753, 623131, 623552, 624001, 624489, 624874, 625248]","[615980, 616380, 616779, 617180, 617580, 617980, 618381, 618780, 619114, 619520, 619900, 620318, 620731, 621153, 621576, 621950, 622376, 622724, 623154, 623576, 624025, 624512, 624898, 625248]",54,SB,U,R,ITMSR,1.0,
2,600,trial,0,29,29,29,trial,"['S', 'S', 'S', 'S', 'S', 'S', 'S', 'C', 'C', 'C', 'C', 'C', 'C', 'C', 'C', 'C', 'C', 'C', 'C', 'C', 'C', 'C', 'C']","[631255, 631831, 632421, 633056, 633630, 634181, 634836, 635422, 636017, 636604, 637190, 637710, 638339, 638955, 639535, 640099, 640690, 641195, 641831, 642410, 643016, 643625, 644241]","[631291, 631922, 632528, 633153, 633738, 634318, 634947, 635570, 636169, 636705, 637317, 637841, 638456, 639075, 639649, 640227, 640866, 641403, 641963, 642580, 643175, 643757, 644381]","[150, 193, 202, 233, 113, 204, 92, 52, 241, 163, 48, 4, 17, 216, 36, 105, 146, 121, 15, 84, 33, 44, 97]","[631259, 631856, 632455, 633086, 633654, 634219, 634864, 635463, 636104, 636622, 637207, 637751, 638380, 638972, 639552, 640115, 640788, 641212, 641848, 642505, 643100, 643665, 644258]","[630777, 631377, 631977, 632578, 633178, 633778, 634378, 634978, 635462, 636057, 636645, 637231, 637751, 638380, 638996, 639576, 640140, 640731, 641235, 641871, 642451, 643056, 643665, 644282]",54,SB,U,R,ITMSR,1.0,
3,400,trial,0,30,30,30,trial,"['S', 'S', 'S', 'S', 'S', 'S', 'S', 'C', 'C', 'C', 'C', 'C', 'C', 'C', 'C', 'C', 'C', 'C', 'C', 'C', 'C', 'C', 'C']","[654588, 655055, 655413, 655752, 656165, 656567, 656989, 657383, 657782, 658174, 658573, 658942, 659403, 659840, 660196, 660646, 660996, 661402, 661803, 662215, 662602, 663011, 663445]","[654697, 655153, 655503, 655874, 656278, 656683, 657083, 657490, 657866, 658264, 658649, 659051, 659507, 659914, 660308, 660713, 661098, 661493, 661902, 662295, 662692, 663109, 663533]","[82, 217, 5, 37, 33, 37, 74, 63, 30, 48, 18, 7, 1, 220, 25, 101, 183, 139, 106, 118, 95, 94, 139]","[654632, 655100, 655417, 655810, 656214, 656620, 657022, 657429, 657789, 658182, 658580, 659002, 659410, 659849, 660261, 660653, 661040, 661445, 661856, 662222, 662649, 663056, 663452]","[654189, 654588, 654989, 655388, 655789, 656189, 656588, 656989, 657423, 657820, 658212, 658612, 658981, 659442, 659879, 660235, 660685, 661036, 661440, 661841, 662254, 662640, 663050, 663484]",54,SB,U,R,ITMSR,1.0,
4,400,trial,0,31,31,31,trial,"['S', 'S', 'S', 'S', 'S', 'S', 'S', 'C', 'C', 'C', 'C', 'C', 'C', 'C', 'C', 'C', 'C', 'C', 'C', 'C', 'C', 'C', 'C']","[669533, 669958, 670331, 670745, 671131, 671478, 671878, 672268, 672688, 673104, 673464, 673850, 674250, 674629, 675076, 675417, 675726, 676162, 676603, 677011, 677341, 677724, 678166]","[669655, 670036, 670392, 670813, 671196, 671565, 671942, 672339, 672771, 673169, 673543, 673925, 674318, 674695, 675126, 675485, 675829, 676228, 676647, 677052, 677441, 677812, 678254]","[176, 161, 220, 207, 193, 211, 184, 170, 196, 182, 248, 221, 201, 175, 144, 176, 34, 146, 222, 194, 67, 247, 55]","[669590, 669965, 670338, 670790, 671165, 671483, 671883, 672272, 672736, 673108, 673510, 673897, 674257, 674634, 675083, 675464, 675798, 676212, 676611, 677020, 677395, 677769, 678212]","[669238, 669636, 670036, 670437, 670836, 671237, 671637, 672036, 672309, 672729, 673144, 673505, 673891, 674290, 674669, 675117, 675458, 675767, 676203, 676643, 677052, 677382, 677765, 678207]",54,SB,U,R,ITMSR,1.0,
4,400,trial,0,32,32,32,trial,"['S', 'S', 'S', 'S', 'S', 'S', 'C', 'C', 'C', 'C', 'C', 'C', 'C', 'C', 'C', 'C', 'C', 'C', 'C', 'C', 'C', 'C']","[684396, 684724, 685074, 685524, 685893, 686252, 686666, 687066, 687494, 687892, 688325, 688723, 689114, 689531, 689986, 690337, 690817, 691196, 691617, 691994, 692380, 692805]","[684503, 684809, 685184, 685602, 685983, 686354, 686746, 687149, 687577, 687971, 688410, 688811, 689193, 689601, 690044, 690425, 690857, 691278, 691682, 692088, 692488, 692888]","[226, 211, 242, 202, 173, 147, 112, 1, 85, 74, 34, 102, 97, 45, 247, 31, 19, 11, 7, 233, 0, 0]","[684448, 684733, 685081, 685531, 685900, 686259, 686674, 687074, 687501, 687898, 688332, 688731, 689120, 689537, 689990, 690341, 690822, 691202, 691622, 692054, 692432, 692848]","[683584, 683983, 684384, 684783, 685184, 685584, 685983, 686384, 686706, 687107, 687535, 687933, 688365, 688763, 689155, 689571, 690027, 690377, 690857, 691236, 691657, 692034, 692420, 692845]",54,SB,U,R,ITMSR,1.0,
5,600,trial,0,33,33,33,trial,"['S', 'S', 'S', 'S', 'S', 'S', 'S', 'C', 'C', 'C', 'C', 'C', 'C', 'C', 'C', 'C', 'C', 'C', 'C', 'C', 'C', 'C', 'C']","[699342, 699807, 700376, 700969, 701632, 702197, 702832, 703482, 704064, 704688, 705234, 705891, 706466, 707072, 707608, 708289, 708840, 709439, 709996, 710620, 711114, 711756, 712305]","[699451, 699923, 700480, 701123, 701749, 702384, 702967, 703566, 704193, 704803, 705391, 706006, 706608, 707195, 707765, 708371, 708932, 709512, 710120, 710701, 711235, 711845, 712391]","[73, 45, 71, 105, 60, 75, 55, 11, 12, 39, 36, 250, 224, 236, 227, 147, 163, 237, 26, 172, 185, 175, 163]","[699392, 699852, 700383, 700976, 701637, 702309, 702834, 703490, 704071, 704695, 705326, 705898, 706473, 707078, 707614, 708297, 708847, 709446, 710003, 710626, 711121, 711764, 712313]","[698632, 699231, 699832, 700431, 701031, 701632, 702231, 702832, 703521, 704104, 704728, 705273, 705931, 706505, 707111, 707648, 708329, 708880, 709479, 710036, 710660, 711153, 711795, 712344]",54,SB,U,R,ITMSR,1.0,
4,600,trial,0,34,34,34,trial,"['S', 'S', 'S', 'S', 'S', 'S', 'S', 'C', 'C', 'C', 'C', 'C', 'C', 'C', 'C', 'C', 'C', 'C', 'C', 'C', 'C', 'C', 'C']","[718559, 719014, 719531, 720215, 720815, 721373, 721937, 722562, 723204, 723804, 724417, 725008, 725548, 726182, 726765, 727309, 727917, 728461, 729098, 729607, 730243, 730844, 731410]","[718653, 719091, 719644, 720316, 720879, 721469, 722022, 722650, 723273, 723871, 724494, 725076, 725613, 726253, 726823, 727420, 727987, 728543, 729176, 729704, 730326, 730941, 731469]","[253, 212, 157, 205, 26, 252, 125, 142, 159, 120, 183, 133, 155, 223, 164, 253, 171, 198, 99, 124, 132, 117, 118]","[718566, 719028, 719537, 720252, 720815, 721378, 721942, 722568, 723210, 723811, 724424, 725015, 725553, 726190, 726771, 727316, 727924, 728467, 729102, 729613, 730250, 730850, 731414]","[717814, 718414, 719014, 719614, 720215, 720815, 721415, 722015, 722603, 723245, 723845, 724458, 725049, 725588, 726222, 726806, 727350, 727958, 728502, 729139, 729648, 730284, 730885, 731451]",54,SB,U,R,ITMSR,1.0,
5,400,trial,0,35,35,35,trial,"['S', 'S', 'S', 'S', 'S', 'S', 'C', 'C', 'C', 'C', 'C', 'C', 'C', 'C', 'C', 'C', 'C', 'C', 'C', 'C', 'C', 'C']","[737974, 738365, 738787, 739146, 739558, 739930, 740346, 740759, 741152, 741580, 741996, 742417, 742865, 743246, 743658, 744037, 744461, 744888, 745271, 745660, 746079, 746517]","[738036, 738437, 738837, 739206, 739603, 739994, 740403, 740832, 741221, 741647, 742070, 742499, 742928, 743320, 743723, 744118, 744536, 744953, 745323, 745744, 746166, 746584]","[33, 36, 7, 15, 243, 245, 231, 241, 193, 213, 229, 245, 215, 7, 211, 241, 219, 248, 220, 26, 248, 34]","[737980, 738371, 738794, 739152, 739565, 739937, 740354, 740765, 741158, 741587, 742002, 742423, 742872, 743252, 743666, 744044, 744468, 744895, 745277, 745666, 746085, 746523]","[737238, 737637, 738036, 738437, 738837, 739236, 739637, 740036, 740385, 740799, 741191, 741619, 742036, 742457, 742904, 743285, 743698, 744077, 744501, 744928, 745311, 745700, 746119, 746557]",54,SB,U,R,ITMSR,1.0,
0,600,trial,0,36,36,36,trial,"['S', 'S', 'S', 'S', 'S', 'S', 'S', 'S', 'C', 'C', 'C', 'C', 'C', 'C', 'C', 'C', 'C', 'C', 'C', 'C', 'C', 'C', 'C', 'C']","[752337, 752777, 753201, 753737, 754283, 754891, 755496, 756005, 756665, 757265, 757848, 758449, 759066, 759610, 760202, 760802, 761359, 761977, 762585, 763101, 763776, 764306, 764864, 765408]","[752371, 752868, 753277, 753815, 754370, 754937, 755544, 756104, 756739, 757359, 757945, 758540, 759151, 759717, 760295, 760897, 761441, 762044, 762632, 763201, 763826, 764394, 764914, 765475]","[169, 176, 157, 191, 206, 237, 207, 41, 72, 243, 38, 47, 99, 116, 85, 127, 146, 155, 144, 107, 146, 108, 153, 84]","[752344, 752822, 753228, 753755, 754288, 754897, 755504, 756012, 756670, 757271, 757855, 758455, 759072, 759617, 760209, 760807, 761365, 761984, 762590, 763108, 763783, 764347, 764871, 765415]","[751937, 752537, 753137, 753737, 754337, 754937, 755537, 756137, 756706, 757306, 757889, 758490, 759106, 759651, 760243, 760843, 761400, 762017, 762626, 763142, 763816, 764347, 764905, 765449]",54,SB,U,R,ITMSR,1.0,
2,400,trial,0,37,37,37,trial,"['S', 'S', 'S', 'S', 'S', 'S', 'C', 'C', 'C', 'C', 'C', 'C', 'C', 'C', 'C', 'C', 'C', 'C', 'C', 'C', 'C', 'C']","[771627, 771977, 772410, 772876, 773373, 773731, 774201, 774628, 774965, 775430, 775876, 776295, 776691, 777110, 777547, 777932, 778380, 778807, 779213, 779664, 780065, 780488]","[771647, 771998, 772430, 772896, 773397, 773812, 774282, 774679, 775048, 775473, 775922, 776348, 776756, 777185, 777600, 778032, 778447, 778860, 779269, 779730, 780153, 780591]","[48, 32, 243, 233, 59, 208, 228, 210, 223, 191, 94, 42, 162, 181, 144, 155, 141, 165, 172, 132, 198, 159]","[771632, 771981, 772415, 772881, 773373, 773736, 774206, 774632, 774970, 775435, 775882, 776300, 776696, 777116, 777552, 777938, 778385, 778811, 779218, 779669, 780070, 780493]","[770997, 771396, 771796, 772197, 772596, 772997, 773397, 773796, 774242, 774669, 775006, 775471, 775916, 776336, 776731, 777151, 777587, 777972, 778421, 778848, 779253, 779705, 780105, 780528]",54,SB,U,R,ITMSR,1.0,
1,400,trial,0,38,38,38,trial,"['S', 'S', 'S', 'S', 'S', 'S', 'C', 'C', 'C', 'C', 'C', 'C', 'C', 'C', 'C', 'C', 'C', 'C', 'C', 'C', 'C', 'C']","[786450, 787172, 787516, 787853, 788273, 788660, 789068, 789445, 789839, 790218, 790593, 790966, 791361, 791733, 792135, 792475, 792867, 793243, 793645, 794081, 794478, 794857]","[786470, 787230, 787564, 787922, 788331, 788721, 789131, 789529, 789905, 790272, 790662, 791030, 791441, 791785, 792183, 792540, 792908, 793294, 793688, 794120, 794516, 794911]","[174, 173, 38, 230, 246, 29, 228, 181, 186, 194, 170, 186, 213, 79, 126, 156, 224, 60, 7, 251, 154, 68]","[786454, 787178, 787516, 787863, 788281, 788667, 789079, 789454, 789849, 790226, 790601, 790974, 791369, 791741, 792144, 792484, 792878, 793252, 793655, 794090, 794486, 794868]","[785916, 786316, 786715, 787116, 787516, 787915, 788316, 788715, 789106, 789483, 789877, 790256, 790632, 791005, 791400, 791772, 792173, 792513, 792905, 793281, 793683, 794120, 794516, 794896]",54,SB,U,R,ITMSR,1.0,
2,600,trial,0,39,39,39,trial,"['S', 'S', 'S', 'S', 'S', 'S', 'S', 'C', 'C', 'C', 'C', 'C', 'C', 'C', 'C', 'C', 'C', 'C', 'C', 'C', 'C', 'C', 'C']","[800830, 801495, 802102, 802716, 803293, 803859, 804411, 805093, 805671, 806208, 806777, 807394, 807933, 808469, 808981, 809590, 810078, 810563, 811089, 811568, 812157, 812651, 813179]","[800902, 801576, 802176, 802810, 803363, 803971, 804499, 805155, 805741, 806289, 806864, 807463, 808003, 808551, 809083, 809638, 810123, 810634, 811129, 811609, 812208, 812721, 813248]","[34, 142, 143, 145, 85, 247, 70, 55, 53, 66, 96, 48, 5, 116, 49, 39, 56, 125, 38, 99, 36, 62, 201]","[800839, 801502, 802108, 802722, 803299, 803865, 804417, 805099, 805678, 806214, 806782, 807400, 807940, 808474, 808987, 809595, 810084, 810568, 811096, 811573, 812165, 812656, 813188]","[800443, 801043, 801643, 802242, 802842, 803442, 804042, 804642, 805134, 805711, 806249, 806817, 807435, 807973, 808510, 809022, 809630, 810119, 810604, 811129, 811609, 812197, 812692, 813219]",54,SB,U,R,ITMSR,1.0,
0,600,trial,0,40,40,40,trial,"['B', 'S', 'S', 'S', 'S', 'S', 'S', 'S', 'C', 'C', 'C', 'C', 'C', 'C', 'C', 'C', 'C', 'C', 'C', 'C', 'C', 'C', 'C', 'C']","[818987, 819514, 820132, 820712, 821307, 821924, 822513, 823113, 823684, 824291, 824913, 825427, 826050, 826643, 827186, 827752, 828305, 828875, 829368, 829957, 830490, 831019, 831601, 832149]","[819281, 819722, 820337, 820931, 821556, 822085, 822747, 823331, 823934, 824511, 825054, 825662, 826263, 826836, 827390, 827951, 828526, 829030, 829616, 830197, 830723, 831264, 831838, 832370]","[36, 14, 205, 207, 192, 121, 188, 236, 237, 221, 127, 204, 208, 184, 210, 207, 206, 94, 205, 195, 197, 174, 140, 137]","[819068, 819614, 820242, 820819, 821414, 821991, 822623, 823246, 823823, 824412, 824972, 825551, 826155, 826744, 827297, 827854, 828426, 828931, 829503, 830074, 830616, 831167, 831736, 832262]","[819014, 819614, 820214, 820814, 821414, 822014, 822615, 823215, 823725, 824332, 824953, 825467, 826091, 826684, 827227, 827793, 828346, 828915, 829409, 829998, 830530, 831059, 831641, 832190]",54,SB,U,R,ITMSR,1.0,
0,400,trial,0,41,41,41,trial,"['S', 'S', 'S', 'S', 'S', 'S', 'S', 'C', 'C', 'C', 'C', 'C', 'C', 'C', 'C', 'C', 'C', 'C', 'C', 'C', 'C', 'C', 'C']","[838212, 838657, 838952, 839346, 839709, 840111, 840576, 841017, 841637, 842007, 842433, 842808, 843219, 843609, 843981, 844381, 844781, 845177, 845584, 845942, 846336, 846756, 847102]","[838307, 838713, 839051, 839416, 839776, 840180, 840650, 841077, 841704, 842072, 842476, 842877, 843283, 843686, 844061, 844452, 844846, 845253, 845645, 846009, 846395, 846827, 847206]","[170, 18, 6, 225, 200, 184, 237, 50, 102, 16, 195, 108, 71, 156, 158, 81, 65, 178, 176, 231, 0, 151, 239]","[838263, 838661, 838958, 839386, 839734, 840114, 840580, 841022, 841677, 842013, 842436, 842813, 843222, 843613, 843985, 844384, 844786, 845181, 845587, 845947, 846341, 846761, 847107]","[837851, 838251, 838650, 839051, 839450, 839851, 840251, 840650, 841058, 841677, 842048, 842474, 842849, 843259, 843650, 844021, 844422, 844822, 845217, 845625, 845982, 846376, 846796, 847142]",54,SB,U,R,ITMSR,1.0,
3,600,trial,0,42,42,42,trial,"['S', 'S', 'S', 'S', 'S', 'S', 'S', 'C', 'C', 'C', 'C', 'C', 'C', 'C', 'C', 'C', 'C', 'C', 'C', 'C', 'C', 'C', 'C']","[853444, 854037, 854600, 855185, 855737, 856348, 856950, 857545, 858145, 858690, 859260, 859761, 860307, 860821, 861341, 861892, 862385, 862903, 863394, 863950, 864522, 864979, 865435]","[853613, 854161, 854731, 855313, 855911, 856518, 857094, 857701, 858269, 858824, 859389, 859912, 860445, 860964, 861466, 862008, 862553, 863082, 863554, 864114, 864613, 865057, 865533]","[83, 244, 229, 213, 155, 33, 35, 40, 16, 225, 211, 226, 84, 128, 209, 126, 166, 120, 52, 90, 167, 95, 163]","[853447, 854041, 854604, 855190, 855741, 856353, 856954, 857640, 858149, 858763, 859336, 859849, 860380, 860893, 861344, 861896, 862481, 863014, 863488, 864033, 864569, 864984, 865483]","[852882, 853482, 854082, 854682, 855282, 855882, 856482, 857082, 857584, 858183, 858729, 859299, 859800, 860347, 860861, 861380, 861930, 862424, 862943, 863433, 863989, 864562, 865018, 865473]",54,SB,U,R,ITMSR,1.0,
5,400,trial,0,43,43,43,trial,"['S', 'S', 'S', 'S', 'S', 'S', 'S', 'C', 'C', 'C', 'C', 'C', 'C', 'C', 'C', 'C', 'C', 'C', 'C', 'C', 'C', 'C', 'C']","[871516, 871827, 872138, 872520, 872893, 873320, 873699, 874078, 874488, 874876, 875274, 875667, 876069, 876473, 876857, 877271, 877633, 878090, 878478, 878854, 879314, 879724, 880107]","[871606, 871890, 872211, 872610, 872970, 873371, 873754, 874147, 874566, 874972, 875372, 875763, 876173, 876576, 876952, 877369, 877758, 878169, 878585, 878980, 879423, 879804, 880186]","[85, 83, 98, 133, 104, 104, 46, 87, 79, 66, 60, 71, 236, 176, 130, 218, 190, 181, 185, 177, 207, 130, 75]","[871522, 871834, 872145, 872525, 872898, 873326, 873704, 874084, 874494, 874883, 875280, 875672, 876076, 876480, 876861, 877277, 877699, 878094, 878484, 878918, 879322, 879729, 880116]","[871011, 871410, 871811, 872210, 872610, 873011, 873409, 873809, 874118, 874527, 874915, 875314, 875707, 876108, 876513, 876897, 877310, 877673, 878130, 878518, 878894, 879353, 879764, 880147]",54,SB,U,R,ITMSR,1.0,
2,400,trial,0,44,44,44,trial,"['S', 'S', 'S', 'S', 'S', 'S', 'S', 'C', 'C', 'C', 'C', 'C', 'C', 'C', 'C', 'C', 'C', 'C', 'C', 'C', 'C', 'C', 'C']","[886330, 886665, 886965, 887301, 887697, 888094, 888472, 888854, 889269, 889707, 890073, 890440, 890883, 891249, 891618, 892008, 892405, 892768, 893219, 893622, 893964, 894360, 894699]","[886403, 886753, 887044, 887394, 887782, 888178, 888557, 888931, 889357, 889775, 890114, 890525, 890936, 891352, 891697, 892062, 892466, 892837, 893300, 893696, 894041, 894410, 894769]","[160, 121, 47, 28, 5, 248, 26, 204, 22, 8, 198, 206, 214, 230, 179, 129, 221, 167, 221, 222, 185, 181, 160]","[886334, 886669, 886969, 887306, 887702, 888099, 888477, 888858, 889273, 889711, 890077, 890445, 890888, 891254, 891623, 892013, 892410, 892773, 893223, 893626, 893969, 894365, 894703]","[885741, 886141, 886542, 886941, 887342, 887742, 888141, 888542, 888895, 889310, 889748, 890114, 890480, 890924, 891289, 891659, 892049, 892445, 892809, 893259, 893663, 894005, 894401, 894740]",54,SB,U,R,ITMSR,1.0,
1,600,trial,0,45,45,45,trial,"['S', 'S', 'S', 'S', 'S', 'S', 'C', 'C', 'C', 'C', 'C', 'C', 'C', 'C', 'C', 'C', 'C', 'C', 'C', 'C', 'C', 'C']","[901311, 901886, 902451, 903055, 903665, 904232, 905912, 906432, 906918, 907416, 907883, 908390, 908857, 909320, 909817, 910306, 910782, 911264, 911819, 912276, 912739, 913183]","[901420, 901977, 902555, 903075, 903685, 904252, 906001, 906521, 907025, 907514, 908035, 908460, 908975, 909451, 909920, 910428, 910923, 911401, 911882, 912374, 912812, 913329]","[112, 81, 48, 92, 16, 18, 145, 62, 14, 58, 247, 39, 153, 222, 27, 178, 177, 148, 131, 85, 232, 33]","[901366, 901925, 902518, 903057, 903668, 904237, 905953, 906473, 906974, 907473, 907959, 908430, 908906, 909389, 909875, 910367, 910864, 911342, 911836, 912339, 912780, 913274]","[900148, 900747, 901347, 901947, 902547, 903146, 903746, 904346, 905951, 906471, 906956, 907455, 907922, 908429, 908896, 909359, 909855, 910345, 910821, 911302, 911857, 912315, 912778, 913221]",54,SB,U,R,ITMSR,1.0,
0,400,trial,0,46,46,46,trial,"['S', 'S', 'S', 'S', 'S', 'S', 'S', 'C', 'C', 'C', 'C', 'C', 'C', 'C', 'C', 'C', 'C', 'C', 'C', 'C', 'C', 'C', 'C']","[919282, 919591, 919896, 920290, 920697, 921042, 921451, 921853, 922260, 922648, 923085, 923446, 923827, 924216, 924614, 924995, 925396, 925796, 926555, 926953, 927405, 927778, 928161]","[919357, 919680, 919976, 920365, 920747, 921144, 921543, 921927, 922332, 922729, 923158, 923527, 923950, 924310, 924681, 925069, 925458, 925837, 926596, 927052, 927479, 927873, 928279]","[64, 241, 162, 179, 119, 41, 154, 140, 44, 83, 57, 78, 47, 1, 12, 144, 146, 41, 89, 50, 221, 9, 52]","[919287, 919629, 919899, 920293, 920700, 921077, 921454, 921857, 922265, 922651, 923088, 923449, 923889, 924219, 924617, 924998, 925413, 925796, 926556, 927010, 927446, 927823, 928223]","[918744, 919144, 919543, 919944, 920343, 920743, 921144, 921543, 921893, 922301, 922689, 923125, 923487, 923868, 924257, 924654, 925036, 925436, 925837, 926596, 926994, 927446, 927818, 928201]",54,SB,U,R,ITMSR,1.0,
1,400,trial,0,47,47,47,trial,"['S', 'S', 'S', 'S', 'S', 'S', 'S', 'S', 'C', 'C', 'C', 'C', 'C', 'C', 'C', 'C', 'C', 'C', 'C', 'C', 'C', 'C', 'C', 'C']","[933935, 934304, 934739, 935147, 935557, 935968, 936326, 936713, 937156, 937511, 937897, 938280, 938690, 939117, 939467, 939892, 940284, 940699, 941042, 941473, 941829, 942215, 942533, 942959]","[934090, 934454, 934847, 935241, 935634, 936064, 936425, 936837, 937261, 937629, 938009, 938385, 938773, 939184, 939563, 939979, 940380, 940769, 941128, 941548, 941933, 942348, 942711, 943064]","[66, 120, 8, 193, 59, 124, 67, 152, 129, 173, 140, 97, 38, 209, 56, 17, 17, 246, 244, 253, 56, 85, 116, 25]","[933938, 934365, 934796, 935187, 935599, 936011, 936371, 936781, 937200, 937566, 937955, 938339, 938731, 939157, 939513, 939932, 940326, 940737, 941083, 941517, 941875, 942281, 942632, 943019]","[933692, 934090, 934491, 934890, 935290, 935691, 936090, 936491, 937194, 937549, 937935, 938318, 938729, 939156, 939505, 939930, 940322, 940737, 941080, 941511, 941868, 942254, 942571, 942997]",54,SB,U,R,ITMSR,1.0,
5,600,trial,0,48,48,48,trial,"['S', 'S', 'S', 'S', 'S', 'S', 'S', 'S', 'C', 'C', 'C', 'C', 'C', 'C', 'C', 'C', 'C', 'C', 'C', 'C', 'C', 'C', 'C', 'C']","[948799, 949195, 949657, 950203, 950791, 951342, 951905, 952523, 953074, 953619, 954147, 954650, 955185, 955701, 956142, 956604, 957081, 957578, 958055, 958522, 959016, 959463, 959949, 960398]","[948908, 949310, 949810, 950355, 950904, 951484, 952037, 952658, 953222, 953790, 954305, 954795, 955316, 955843, 956307, 956788, 957246, 957725, 958184, 958663, 959151, 959626, 960099, 960552]","[81, 169, 28, 254, 198, 195, 145, 139, 157, 133, 221, 139, 158, 175, 193, 208, 181, 182, 74, 111, 108, 156, 166, 168]","[948849, 949251, 949734, 950207, 950794, 951415, 951969, 952586, 953137, 953703, 954219, 954710, 955240, 955765, 956210, 956686, 957152, 957643, 958108, 958582, 959069, 959547, 960015, 960467]","[948534, 949133, 949733, 950333, 950933, 951532, 952133, 952732, 953113, 953659, 954186, 954689, 955225, 955741, 956181, 956644, 957120, 957618, 958095, 958562, 959055, 959503, 959988, 960438]",54,SB,U,R,ITMSR,1.0,
3,600,trial,0,49,49,49,trial,"['S', 'S', 'S', 'S', 'S', 'S', 'S', 'C', 'C', 'C', 'C', 'C', 'C', 'C', 'C', 'C', 'C', 'C', 'C', 'C', 'C', 'C', 'C']","[966380, 966855, 967441, 968075, 968631, 969188, 969783, 970351, 970887, 971468, 971982, 972514, 973032, 973562, 974110, 974581, 975086, 975642, 976115, 976601, 977081, 977582, 978053]","[966508, 967003, 967603, 968167, 968779, 969327, 969917, 970496, 971104, 971619, 972168, 972699, 973218, 973768, 974279, 974734, 975260, 975849, 976314, 976800, 977268, 977745, 978202]","[87, 146, 162, 161, 173, 133, 145, 127, 229, 140, 224, 223, 202, 204, 197, 199, 243, 253, 251, 25, 211, 213, 117]","[966453, 966922, 967517, 968080, 968702, 969257, 969788, 970412, 971000, 971532, 972082, 972604, 973124, 973656, 974186, 974649, 975167, 975742, 976221, 976708, 977159, 977654, 978116]","[965804, 966403, 967003, 967603, 968203, 968803, 969403, 970003, 970389, 970926, 971506, 972020, 972553, 973071, 973600, 974148, 974620, 975125, 975681, 976154, 976640, 977121, 977622, 978092]",54,SB,U,R,ITMSR,1.0,
4,600,trial,0,50,50,50,trial,"['S', 'S', 'S', 'S', 'S', 'S', 'S', 'C', 'C', 'C', 'C', 'C', 'C', 'C', 'C', 'C', 'C', 'C', 'C', 'C', 'C', 'C', 'C']","[984363, 984773, 985304, 985904, 986432, 987041, 987702, 988305, 988897, 989425, 990027, 990516, 991079, 991643, 992196, 992711, 993295, 993820, 994355, 994923, 996049, 996632, 997568]","[984500, 984931, 985462, 986067, 986586, 987203, 987811, 988383, 989005, 989538, 990114, 990623, 991202, 991767, 992315, 992851, 993390, 993946, 994438, 994970, 996149, 996676, 997676]","[253, 237, 97, 199, 128, 27, 147, 238, 120, 32, 63, 192, 216, 218, 109, 58, 12, 21, 99, 18, 21, 149, 63]","[984428, 984855, 985308, 985977, 986511, 987120, 987759, 988354, 988902, 989468, 990073, 990570, 991137, 991711, 992257, 992789, 993340, 993920, 994409, 994964, 996108, 996651, 997629]","[983646, 984246, 984846, 985446, 986046, 986646, 987246, 987846, 988346, 988938, 989465, 990067, 990557, 991120, 991683, 992236, 992751, 993336, 993860, 994396, 994964, 996089, 996673, 997609]",54,SB,U,R,ITMSR,1.0,
1,600,trial,0,51,51,51,trial,"['S', 'S', 'S', 'S', 'S', 'S', 'S', 'S', 'C', 'C', 'C', 'C', 'C', 'C', 'C', 'C', 'C', 'C', 'C', 'C', 'C', 'C', 'C', 'C']","[1003371, 1003857, 1004200, 1004746, 1005355, 1005921, 1006499, 1007084, 1007705, 1008252, 1008796, 1009363, 1009901, 1010392, 1010935, 1011538, 1012176, 1012763, 1013235, 1013777, 1014253, 1014777, 1015246, 1015775]","[1003469, 1003942, 1004319, 1004851, 1005458, 1006022, 1006603, 1007201, 1007823, 1008397, 1008920, 1009489, 1010023, 1010534, 1011065, 1011697, 1012300, 1012866, 1013368, 1013862, 1014376, 1014898, 1015388, 1015904]","[247, 29, 148, 153, 64, 80, 63, 122, 143, 143, 91, 113, 120, 153, 128, 120, 239, 201, 56, 212, 68, 10, 51, 31]","[1003424, 1003865, 1004252, 1004753, 1005406, 1005971, 1006508, 1007141, 1007712, 1008327, 1008803, 1009370, 1009907, 1010451, 1011001, 1011625, 1012234, 1012811, 1013295, 1013819, 1014307, 1014823, 1015309, 1015824]","[1003087, 1003686, 1004286, 1004887, 1005487, 1006087, 1006687, 1007287, 1007744, 1008290, 1008834, 1009401, 1009940, 1010430, 1010973, 1011576, 1012214, 1012801, 1013273, 1013816, 1014292, 1014815, 1015284, 1015814]",54,SB,U,R,ITMSR,1.0,
2,600,trial,0,52,52,52,trial,"['S', 'S', 'S', 'S', 'S', 'S', 'S', 'S', 'C', 'C', 'C', 'C', 'C', 'C', 'C', 'C', 'C', 'C', 'C', 'C', 'C', 'C', 'C', 'C']","[1021636, 1021980, 1022545, 1023095, 1023783, 1024424, 1024980, 1025528, 1026138, 1026842, 1027354, 1027994, 1028558, 1029182, 1029713, 1030213, 1030757, 1031340, 1031881, 1032424, 1033018, 1033517, 1034116, 1034608]","[1021736, 1022054, 1022640, 1023166, 1023843, 1024480, 1025054, 1025573, 1026223, 1026882, 1027449, 1028081, 1028665, 1029239, 1029789, 1030292, 1030860, 1031432, 1031966, 1032512, 1033083, 1033637, 1034176, 1034713]","[17, 136, 220, 51, 241, 97, 114, 119, 102, 108, 90, 30, 91, 125, 6, 173, 20, 37, 53, 36, 245, 79, 62, 245]","[1021640, 1021985, 1022550, 1023099, 1023788, 1024431, 1024986, 1025533, 1026143, 1026847, 1027359, 1028000, 1028564, 1029188, 1029718, 1030219, 1030762, 1031346, 1031885, 1032429, 1033023, 1033521, 1034123, 1034613]","[1021419, 1022018, 1022618, 1023218, 1023818, 1024418, 1025018, 1025618, 1026179, 1026882, 1027394, 1028034, 1028598, 1029223, 1029753, 1030253, 1030798, 1031380, 1031921, 1032465, 1033059, 1033558, 1034157, 1034648]",54,SB,U,R,ITMSR,1.0,
3,400,trial,0,53,53,53,trial,"['S', 'S', 'S', 'S', 'S', 'S', 'S', 'C', 'C', 'C', 'C', 'C', 'C', 'C', 'C', 'C', 'C', 'C', 'C', 'C', 'C', 'C', 'C']","[1040441, 1040899, 1041339, 1041738, 1042104, 1042435, 1042841, 1043256, 1043658, 1044075, 1044472, 1044886, 1045264, 1045676, 1046093, 1046460, 1046925, 1047369, 1047733, 1048134, 1048532, 1048945, 1049310]","[1040547, 1040991, 1041395, 1041799, 1042171, 1042510, 1042905, 1043296, 1043726, 1044134, 1044563, 1044985, 1045362, 1045760, 1046164, 1046556, 1046993, 1047409, 1047803, 1048215, 1048615, 1049001, 1049432]","[197, 115, 2, 176, 195, 147, 19, 159, 20, 197, 219, 46, 31, 248, 200, 13, 239, 192, 207, 30, 34, 86, 157]","[1040490, 1040904, 1041368, 1041759, 1042111, 1042437, 1042847, 1043261, 1043664, 1044081, 1044477, 1044933, 1045270, 1045682, 1046098, 1046465, 1046930, 1047374, 1047739, 1048139, 1048537, 1048950, 1049315]","[1040139, 1040538, 1040939, 1041339, 1041738, 1042139, 1042538, 1042938, 1043296, 1043696, 1044115, 1044511, 1044926, 1045304, 1045714, 1046131, 1046500, 1046964, 1047408, 1047772, 1048173, 1048570, 1048984, 1049349]",54,SB,U,R,ITMSR,1.0,
3,400,trial,0,54,54,54,trial,"['S', 'S', 'S', 'S', 'S', 'S', 'S', 'S', 'C', 'C', 'C', 'C', 'C', 'C', 'C', 'C', 'C', 'C', 'C', 'C', 'C', 'C', 'C', 'C']","[1059122, 1059497, 1059923, 1060361, 1060753, 1061131, 1061494, 1061873, 1062304, 1062666, 1063090, 1063439, 1063860, 1064247, 1064624, 1064988, 1065375, 1065764, 1066122, 1066475, 1066860, 1067243, 1067593, 1067940]","[1059245, 1059622, 1060044, 1060491, 1060866, 1061231, 1061603, 1061997, 1062420, 1062794, 1063205, 1063576, 1063989, 1064384, 1064763, 1065133, 1065511, 1065887, 1066272, 1066619, 1066958, 1067366, 1067708, 1068077]","[118, 153, 175, 152, 112, 95, 96, 67, 46, 96, 111, 151, 139, 211, 200, 187, 165, 133, 181, 122, 37, 10, 85, 121]","[1059179, 1059505, 1059930, 1060367, 1060808, 1061135, 1061498, 1061878, 1062307, 1062724, 1063096, 1063512, 1063924, 1064252, 1064690, 1065069, 1065452, 1065823, 1066193, 1066552, 1066905, 1067290, 1067642, 1068006]","[1058891, 1059291, 1059690, 1060090, 1060491, 1060890, 1061291, 1061691, 1062342, 1062705, 1063130, 1063479, 1063900, 1064286, 1064664, 1065026, 1065413, 1065803, 1066161, 1066515, 1066900, 1067282, 1067631, 1067979]",54,SB,U,R,ITMSR,1.0,
0,600,trial,0,55,55,55,trial,"['S', 'S', 'S', 'S', 'S', 'S', 'S', 'C', 'C', 'C', 'C', 'C', 'C', 'C', 'C', 'C', 'C', 'C', 'C', 'C', 'C', 'C', 'C']","[1073632, 1074305, 1074953, 1075575, 1076212, 1076813, 1077406, 1077986, 1078583, 1079096, 1079683, 1080205, 1080777, 1081313, 1081859, 1082423, 1082933, 1083439, 1084032, 1084530, 1085072, 1085573, 1086104]","[1073764, 1074439, 1075097, 1075732, 1076358, 1076954, 1077526, 1078156, 1078710, 1079217, 1079820, 1080369, 1080926, 1081476, 1082007, 1082555, 1083066, 1083620, 1084158, 1084660, 1085192, 1085698, 1086206]","[96, 150, 152, 134, 70, 135, 150, 208, 156, 172, 174, 165, 202, 168, 194, 181, 173, 182, 108, 135, 91, 14, 13]","[1073685, 1074369, 1074958, 1075659, 1076217, 1076888, 1077413, 1077992, 1078590, 1079101, 1079687, 1080210, 1080783, 1081318, 1081923, 1082429, 1082937, 1083528, 1084038, 1084535, 1085075, 1085578, 1086108]","[1073326, 1073926, 1074526, 1075126, 1075726, 1076326, 1076926, 1077526, 1078027, 1078624, 1079137, 1079724, 1080246, 1080817, 1081354, 1081900, 1082464, 1082974, 1083480, 1084072, 1084570, 1085113, 1085614, 1086145]",54,SB,U,R,ITMSR,1.0,
5,600,trial,0,56,56,56,trial,"['S', 'S', 'S', 'S', 'S', 'S', 'S', 'S', 'C', 'C', 'C', 'C', 'C', 'C', 'C', 'C', 'C', 'C', 'C', 'C', 'C', 'C', 'C', 'C']","[1091826, 1092232, 1092743, 1093339, 1093939, 1094529, 1095146, 1095764, 1096360, 1096913, 1097477, 1098076, 1098641, 1099260, 1099836, 1100391, 1100976, 1101534, 1102135, 1102681, 1103221, 1103748, 1104371, 1104952]","[1091931, 1092367, 1092894, 1093480, 1094072, 1094652, 1095286, 1095909, 1096472, 1097084, 1097611, 1098207, 1098804, 1099405, 1100006, 1100556, 1101144, 1101692, 1102248, 1102809, 1103375, 1103916, 1104481, 1105104]","[243, 238, 6, 15, 20, 22, 33, 25, 229, 250, 244, 243, 21, 9, 248, 251, 35, 27, 3, 240, 8, 9, 197, 237]","[1091831, 1092238, 1092747, 1093343, 1093944, 1094532, 1095150, 1095769, 1096366, 1096919, 1097481, 1098080, 1098646, 1099266, 1099841, 1100394, 1100981, 1101539, 1102140, 1102686, 1103226, 1103752, 1104376, 1104956]","[1091624, 1092224, 1092825, 1093424, 1094024, 1094624, 1095224, 1095824, 1096399, 1096952, 1097517, 1098116, 1098681, 1099299, 1099876, 1100431, 1101016, 1101574, 1102175, 1102721, 1103260, 1103788, 1104410, 1104992]",54,SB,U,R,ITMSR,1.0,
3,400,trial,0,57,57,57,trial,"['S', 'S', 'S', 'S', 'S', 'S', 'S', 'C', 'C', 'C', 'C', 'C', 'C', 'C', 'C', 'C', 'C', 'C', 'C', 'C', 'C', 'C', 'C']","[1111038, 1111611, 1111982, 1112317, 1112767, 1113167, 1113568, 1113963, 1114328, 1114773, 1115146, 1115564, 1116026, 1116407, 1116821, 1117245, 1117664, 1118069, 1118502, 1118879, 1119312, 1119775, 1120165]","[1111137, 1111726, 1112092, 1112419, 1112868, 1113270, 1113669, 1114055, 1114442, 1114867, 1115251, 1115664, 1116118, 1116536, 1116939, 1117335, 1117753, 1118157, 1118577, 1118974, 1119422, 1119839, 1120286]","[4, 130, 235, 195, 124, 245, 168, 231, 193, 108, 187, 160, 192, 188, 125, 161, 103, 153, 86, 98, 118, 47, 103]","[1111044, 1111617, 1111987, 1112324, 1112812, 1113167, 1113609, 1113969, 1114334, 1114778, 1115151, 1115569, 1116032, 1116412, 1116826, 1117251, 1117669, 1118074, 1118508, 1118885, 1119318, 1119779, 1120172]","[1110766, 1111166, 1111567, 1111966, 1112367, 1112767, 1113167, 1113568, 1114002, 1114366, 1114812, 1115185, 1115603, 1116065, 1116445, 1116860, 1117284, 1117704, 1118108, 1118541, 1118917, 1119351, 1119813, 1120204]",54,SB,U,R,ITMSR,1.0,
2,600,trial,0,58,58,58,trial,"['S', 'S', 'S', 'S', 'S', 'S', 'S', 'S', 'C', 'C', 'C', 'C', 'C', 'C', 'C', 'C', 'C', 'C', 'C', 'C', 'C', 'C', 'C', 'C']","[1126146, 1126607, 1127053, 1127685, 1128254, 1128829, 1129441, 1130010, 1130632, 1131252, 1131823, 1132371, 1132961, 1133468, 1134088, 1134631, 1135199, 1135752, 1136359, 1136881, 1137498, 1138034, 1138632, 1139164]","[1126218, 1126721, 1127215, 1127853, 1128418, 1129022, 1129586, 1130146, 1130767, 1131386, 1131954, 1132517, 1133077, 1133640, 1134220, 1134772, 1135383, 1135868, 1136486, 1137025, 1137629, 1138199, 1138772, 1139345]","[220, 0, 29, 50, 47, 55, 27, 10, 198, 143, 176, 158, 122, 153, 196, 179, 196, 221, 166, 198, 182, 201, 0, 249]","[1126151, 1126612, 1127058, 1127690, 1128259, 1128928, 1129446, 1130015, 1130638, 1131258, 1131829, 1132378, 1132966, 1133474, 1134094, 1134637, 1135205, 1135757, 1136365, 1136887, 1137504, 1138040, 1138637, 1139168]","[1125927, 1126528, 1127128, 1127728, 1128328, 1128928, 1129528, 1130128, 1130673, 1131292, 1131864, 1132411, 1133001, 1133508, 1134129, 1134671, 1135240, 1135793, 1136400, 1136921, 1137539, 1138074, 1138672, 1139205]",54,SB,U,R,ITMSR,1.0,
5,600,trial,0,59,59,59,trial,"['S', 'S', 'S', 'S', 'S', 'S', 'S', 'C', 'C', 'C', 'C', 'C', 'C', 'C', 'C', 'C', 'C', 'C', 'C', 'C', 'C', 'C', 'C']","[1145339, 1145985, 1146597, 1147138, 1147831, 1148421, 1149118, 1149609, 1150188, 1150722, 1151280, 1151828, 1152423, 1152941, 1153519, 1154063, 1154599, 1155190, 1155734, 1156194, 1156740, 1157238, 1157735]","[1145520, 1146155, 1146746, 1147335, 1147970, 1148539, 1149184, 1149742, 1150305, 1150878, 1151413, 1152016, 1152521, 1153095, 1153668, 1154221, 1154736, 1155314, 1155829, 1156290, 1156868, 1157348, 1157829]","[5, 65, 180, 204, 162, 61, 70, 218, 158, 183, 114, 244, 185, 205, 201, 149, 142, 161, 70, 102, 182, 126, 147]","[1145428, 1145989, 1146604, 1147144, 1147836, 1148426, 1149124, 1149615, 1150194, 1150728, 1151285, 1151833, 1152429, 1152946, 1153525, 1154068, 1154606, 1155196, 1155740, 1156200, 1156745, 1157244, 1157741]","[1144907, 1145506, 1146107, 1146706, 1147308, 1147907, 1148507, 1149107, 1149648, 1150228, 1150761, 1151320, 1151867, 1152462, 1152980, 1153558, 1154103, 1154638, 1155229, 1155774, 1156234, 1156780, 1157277, 1157775]",54,SB,U,R,ITMSR,1.0,
2,400,trial,0,60,60,60,trial,"['S', 'S', 'S', 'S', 'S', 'S', 'S', 'C', 'C', 'C', 'C', 'C', 'C', 'C', 'C', 'C', 'C', 'C', 'C', 'C', 'C', 'C', 'C']","[1163542, 1164129, 1164463, 1164806, 1165207, 1165612, 1166043, 1166380, 1166808, 1167229, 1167643, 1168025, 1168435, 1168829, 1169232, 1169640, 1170054, 1170399, 1170825, 1171235, 1171648, 1172054, 1172448]","[1163612, 1164183, 1164517, 1164890, 1165314, 1165698, 1166093, 1166493, 1166894, 1167298, 1167725, 1168131, 1168533, 1168929, 1169320, 1169733, 1170137, 1170497, 1170927, 1171322, 1171730, 1172127, 1172527]","[145, 200, 203, 91, 153, 107, 32, 186, 143, 148, 101, 122, 178, 198, 139, 198, 148, 181, 75, 137, 121, 166, 160]","[1163548, 1164135, 1164470, 1164812, 1165213, 1165616, 1166048, 1166385, 1166813, 1167235, 1167649, 1168030, 1168440, 1168834, 1169239, 1169645, 1170059, 1170404, 1170831, 1171240, 1171654, 1172059, 1172453]","[1163244, 1163642, 1164043, 1164442, 1164843, 1165243, 1165642, 1166043, 1166420, 1166849, 1167269, 1167683, 1168065, 1168476, 1168870, 1169272, 1169681, 1170095, 1170440, 1170866, 1171275, 1171689, 1172094, 1172489]",54,SB,U,R,ITMSR,1.0,
3,600,trial,0,61,61,61,trial,"['S', 'S', 'S', 'S', 'S', 'S', 'S', 'C', 'C', 'C', 'C', 'C', 'C', 'C', 'C', 'C', 'C', 'C', 'C', 'C', 'C', 'C', 'C']","[1178576, 1179084, 1179632, 1180204, 1180840, 1181421, 1182038, 1182642, 1183228, 1183825, 1184335, 1184953, 1185480, 1186086, 1186585, 1187133, 1187724, 1188496, 1189066, 1189555, 1190047, 1190606, 1191139]","[1178716, 1179218, 1179760, 1180337, 1180860, 1181515, 1182147, 1182755, 1183345, 1183923, 1184484, 1185068, 1185604, 1186195, 1186717, 1187260, 1187818, 1188600, 1189133, 1189643, 1190173, 1190707, 1191258]","[140, 187, 250, 2, 176, 204, 188, 227, 199, 118, 163, 56, 161, 132, 74, 73, 188, 230, 214, 111, 226, 141, 114]","[1178655, 1179090, 1179637, 1180208, 1180846, 1181425, 1182043, 1182647, 1183233, 1183831, 1184340, 1184958, 1185484, 1186093, 1186589, 1187138, 1187730, 1188502, 1189072, 1189561, 1190053, 1190612, 1191144]","[1178018, 1178618, 1179218, 1179819, 1180419, 1181019, 1181619, 1182219, 1182682, 1183266, 1183864, 1184374, 1184992, 1185519, 1186125, 1186623, 1187173, 1187764, 1188536, 1189104, 1189595, 1190085, 1190644, 1191179]",54,SB,U,R,ITMSR,1.0,
2,400,trial,0,62,62,62,trial,"['S', 'S', 'S', 'S', 'S', 'S', 'S', 'C', 'C', 'C', 'C', 'C', 'C', 'C', 'C', 'C', 'C', 'C', 'C', 'C', 'C', 'C', 'C']","[1196929, 1197443, 1197879, 1198278, 1198679, 1199080, 1199498, 1199863, 1200287, 1200650, 1201123, 1201539, 1201871, 1202318, 1202723, 1203133, 1203570, 1203950, 1204368, 1204739, 1205159, 1205533, 1205888]","[1196999, 1197509, 1197949, 1198345, 1198763, 1199171, 1199574, 1199960, 1200369, 1200741, 1201202, 1201601, 1201986, 1202402, 1202790, 1203212, 1203638, 1204026, 1204428, 1204827, 1205226, 1205634, 1205988]","[218, 162, 154, 238, 196, 45, 72, 125, 50, 72, 237, 204, 66, 224, 116, 254, 181, 190, 237, 38, 83, 171, 28]","[1196935, 1197449, 1197892, 1198279, 1198703, 1199086, 1199503, 1199867, 1200293, 1200655, 1201128, 1201545, 1201876, 1202324, 1202729, 1203139, 1203575, 1203956, 1204374, 1204745, 1205164, 1205537, 1205893]","[1196679, 1197078, 1197478, 1197879, 1198278, 1198679, 1199079, 1199478, 1199903, 1200327, 1200691, 1201164, 1201580, 1201911, 1202359, 1202763, 1203174, 1203610, 1203990, 1204409, 1204780, 1205199, 1205573, 1205928]",54,SB,U,R,ITMSR,1.0,
4,400,trial,0,63,63,63,trial,"['S', 'S', 'S', 'S', 'S', 'S', 'S', 'C', 'C', 'C', 'C', 'C', 'C', 'C', 'C', 'C', 'C', 'C', 'C', 'C', 'C', 'C', 'C']","[1211911, 1212414, 1212858, 1213199, 1213566, 1213960, 1214366, 1214727, 1215131, 1215506, 1215922, 1216295, 1216706, 1217090, 1217566, 1217949, 1218398, 1218746, 1219243, 1219690, 1220039, 1220534, 1220920]","[1211996, 1212495, 1212940, 1213288, 1213666, 1214046, 1214444, 1214836, 1215214, 1215612, 1216003, 1216397, 1216783, 1217184, 1217631, 1218036, 1218451, 1218828, 1219300, 1219741, 1220167, 1220603, 1220989]","[254, 82, 106, 100, 123, 158, 82, 146, 107, 115, 83, 193, 94, 149, 119, 78, 42, 183, 65, 198, 103, 251, 99]","[1211916, 1212420, 1212864, 1213204, 1213573, 1213965, 1214371, 1214732, 1215136, 1215511, 1215926, 1216301, 1216711, 1217095, 1217571, 1217955, 1218404, 1218751, 1219249, 1219696, 1220044, 1220539, 1220925]","[1211644, 1212045, 1212444, 1212845, 1213245, 1213644, 1214045, 1214444, 1214768, 1215171, 1215547, 1215963, 1216335, 1216747, 1217131, 1217606, 1217989, 1218439, 1218787, 1219283, 1219731, 1220079, 1220575, 1220961]",54,SB,U,R,ITMSR,1.0,
4,600,trial,0,64,64,64,trial,"['S', 'S', 'S', 'S', 'S', 'S', 'S', 'S', 'S', 'S', 'C', 'C', 'C', 'C', 'C', 'C', 'C', 'C', 'C', 'C', 'C', 'C', 'C', 'C', 'C', 'C']","[1226923, 1227340, 1227734, 1228275, 1228871, 1228971, 1229467, 1230072, 1230172, 1230648, 1231255, 1231882, 1232398, 1232974, 1233586, 1234179, 1234714, 1235266, 1235853, 1236443, 1236969, 1237496, 1238079, 1238546, 1239139, 1239611]","[1226943, 1227431, 1227821, 1228295, 1228891, 1229002, 1229602, 1230092, 1230202, 1230769, 1231367, 1231982, 1232573, 1233117, 1233713, 1234292, 1234849, 1235390, 1236005, 1236570, 1237098, 1237630, 1238162, 1238716, 1239276, 1239848]","[43, 201, 204, 225, 51, 63, 247, 177, 112, 230, 188, 137, 172, 194, 203, 72, 28, 104, 114, 90, 60, 80, 65, 125, 154, 119]","[1226928, 1227345, 1227739, 1228280, 1228875, 1228971, 1229472, 1230077, 1230172, 1230652, 1231260, 1231886, 1232402, 1232979, 1233590, 1234183, 1234719, 1235270, 1235857, 1236448, 1236973, 1237500, 1238083, 1238550, 1239143, 1239616]","[1226603, 1227202, 1227802, 1228402, 1229002, 1229602, 1230202, 1230802, 1231296, 1231923, 1232439, 1233014, 1233627, 1234220, 1234754, 1235307, 1235894, 1236484, 1237010, 1237536, 1238120, 1238587, 1239180, 1239652]",54,SB,U,R,ITMSR,1.0,
0,400,trial,0,65,65,65,trial,"['S', 'S', 'S', 'S', 'S', 'S', 'S', 'C', 'C', 'C', 'C', 'C', 'C', 'C', 'C', 'C', 'C', 'C', 'C', 'C', 'C', 'C', 'C']","[1245521, 1245904, 1246328, 1246784, 1247200, 1247616, 1248045, 1248470, 1248839, 1249264, 1249629, 1250035, 1250400, 1250769, 1251186, 1251580, 1252044, 1252427, 1252901, 1253227, 1253708, 1254102, 1254572]","[1245641, 1245992, 1246435, 1246905, 1247304, 1247714, 1248154, 1248535, 1248916, 1249323, 1249718, 1250111, 1250484, 1250854, 1251262, 1251691, 1252135, 1252525, 1252945, 1253327, 1253785, 1254164, 1254638]","[24, 213, 11, 250, 19, 214, 16, 0, 214, 141, 150, 140, 136, 150, 60, 168, 165, 85, 220, 137, 70, 41, 51]","[1245527, 1245910, 1246332, 1246788, 1247205, 1247620, 1248050, 1248474, 1248844, 1249269, 1249634, 1250039, 1250406, 1250776, 1251192, 1251586, 1252049, 1252432, 1252907, 1253232, 1253714, 1254108, 1254578]","[1245304, 1245705, 1246104, 1246504, 1246905, 1247304, 1247705, 1248105, 1248510, 1248879, 1249304, 1249670, 1250075, 1250441, 1250809, 1251226, 1251620, 1252084, 1252467, 1252941, 1253268, 1253748, 1254142, 1254612]",54,SB,U,R,ITMSR,1.0,
5,400,trial,0,66,66,66,trial,"['B', 'S', 'S', 'S', 'S', 'S', 'S', 'S', 'C', 'C', 'C', 'C', 'C', 'C', 'C', 'C', 'C', 'C', 'C', 'C', 'C', 'C', 'C', 'C']","[1260127, 1260554, 1260911, 1261292, 1261674, 1262112, 1262458, 1262864, 1263262, 1263665, 1263995, 1264398, 1264759, 1265147, 1265519, 1265954, 1266321, 1266728, 1267130, 1267478, 1267880, 1268197, 1268630, 1268943]","[1260153, 1260641, 1260974, 1261390, 1261753, 1262158, 1262553, 1262953, 1263340, 1263729, 1264079, 1264479, 1264843, 1265217, 1265594, 1266014, 1266393, 1266788, 1267170, 1267553, 1267927, 1268265, 1268694, 1269033]","[165, 222, 44, 107, 108, 13, 91, 75, 32, 213, 50, 63, 101, 55, 203, 116, 90, 75, 112, 224, 234, 121, 65, 51]","[1260127, 1260601, 1260916, 1261297, 1261679, 1262115, 1262462, 1262868, 1263266, 1263669, 1263998, 1264402, 1264763, 1265152, 1265523, 1265956, 1266325, 1266731, 1267133, 1267481, 1267884, 1268200, 1268633, 1268946]","[1260153, 1260553, 1260952, 1261352, 1261753, 1262152, 1262553, 1262953, 1263301, 1263705, 1264034, 1264438, 1264798, 1265186, 1265558, 1265993, 1266361, 1266767, 1267170, 1267518, 1267919, 1268237, 1268670, 1268982]",54,SB,U,R,ITMSR,1.0,
4,600,trial,0,67,67,67,trial,"['S', 'S', 'S', 'S', 'S', 'S', 'S', 'C', 'C', 'C', 'C', 'C', 'C', 'C', 'C', 'C', 'C', 'C', 'C', 'C', 'C', 'C', 'C']","[1274812, 1275256, 1276024, 1276640, 1277219, 1277890, 1278516, 1279136, 1279723, 1280254, 1280833, 1281413, 1281985, 1282537, 1283126, 1283691, 1284343, 1284929, 1285457, 1286050, 1286544, 1287104, 1287605]","[1274918, 1275518, 1276182, 1276776, 1277388, 1278047, 1278656, 1279305, 1279866, 1280407, 1281003, 1281617, 1282180, 1282788, 1283307, 1283876, 1284513, 1285092, 1285635, 1286269, 1286732, 1287297, 1287763]","[145, 157, 169, 189, 212, 2, 225, 207, 161, 197, 164, 207, 207, 239, 204, 240, 239, 227, 10, 167, 66, 145, 75]","[1274857, 1275261, 1276102, 1276645, 1277223, 1277894, 1278521, 1279226, 1279728, 1280259, 1280838, 1281418, 1281989, 1282541, 1283210, 1283784, 1284348, 1285008, 1285547, 1286154, 1286647, 1287109, 1287611]","[1274437, 1275037, 1275637, 1276237, 1276837, 1277437, 1278038, 1278638, 1279176, 1279764, 1280294, 1280874, 1281454, 1282026, 1282578, 1283167, 1283732, 1284383, 1284970, 1285497, 1286090, 1286585, 1287145, 1287646]",54,SB,U,R,ITMSR,1.0,
1,400,trial,0,68,68,68,trial,"['S', 'S', 'S', 'S', 'S', 'S', 'S', 'S', 'C', 'C', 'C', 'C', 'C', 'C', 'C', 'C', 'C', 'C', 'C', 'C', 'C', 'C', 'C', 'C']","[1293422, 1293845, 1294268, 1294702, 1294802, 1295152, 1295516, 1295904, 1296339, 1296746, 1297101, 1297555, 1297960, 1298370, 1298733, 1299165, 1299605, 1299980, 1300409, 1300748, 1301139, 1301520, 1301901, 1302259]","[1293442, 1293865, 1294288, 1294722, 1294822, 1295211, 1295623, 1295924, 1296442, 1296824, 1297187, 1297633, 1298032, 1298419, 1298790, 1299258, 1299687, 1300078, 1300448, 1300835, 1301250, 1301605, 1302001, 1302391]","[47, 69, 159, 185, 192, 26, 143, 180, 19, 8, 221, 129, 212, 135, 123, 24, 24, 12, 60, 172, 253, 12, 117, 164]","[1293427, 1293851, 1294271, 1294706, 1294802, 1295158, 1295521, 1295909, 1296344, 1296751, 1297106, 1297560, 1297966, 1298376, 1298738, 1299171, 1299610, 1299987, 1300414, 1300754, 1301143, 1301525, 1301906, 1302263]","[1293186, 1293585, 1293984, 1294385, 1294784, 1295184, 1295585, 1295984, 1296377, 1296785, 1297139, 1297594, 1297998, 1298409, 1298771, 1299204, 1299644, 1300019, 1300448, 1300787, 1301178, 1301559, 1301940, 1302297]",54,SB,U,R,ITMSR,1.0,
4,400,trial,0,69,69,69,trial,"['S', 'S', 'S', 'S', 'S', 'S', 'S', 'S', 'C', 'C', 'C', 'C', 'C', 'C', 'C', 'C', 'C', 'C', 'C', 'C', 'C', 'C', 'C', 'C']","[1308086, 1308548, 1309006, 1309106, 1309468, 1309841, 1310243, 1310604, 1311034, 1311399, 1311809, 1312209, 1312586, 1312993, 1313366, 1313699, 1314135, 1314476, 1314859, 1315302, 1315665, 1316012, 1316392, 1316789]","[1308196, 1308568, 1309026, 1309126, 1309550, 1309930, 1310310, 1310624, 1311091, 1311467, 1311869, 1312268, 1312642, 1313036, 1313406, 1313739, 1314176, 1314516, 1314899, 1315343, 1315722, 1316071, 1316432, 1316830]","[167, 234, 7, 129, 219, 210, 132, 227, 223, 228, 214, 160, 98, 97, 43, 119, 226, 155, 193, 96, 149, 8, 31, 172]","[1308091, 1308553, 1309011, 1309106, 1309504, 1309845, 1310245, 1310608, 1311039, 1311404, 1311813, 1312215, 1312590, 1312998, 1313370, 1313704, 1314138, 1314481, 1314863, 1315306, 1315670, 1316016, 1316397, 1316794]","[1307870, 1308268, 1308668, 1309069, 1309468, 1309869, 1310269, 1310668, 1311075, 1311439, 1311850, 1312249, 1312626, 1313034, 1313406, 1313739, 1314176, 1314516, 1314899, 1315343, 1315705, 1316052, 1316432, 1316830]",54,SB,U,R,ITMSR,1.0,
1,400,trial,0,70,70,70,trial,"['S', 'S', 'S', 'S', 'S', 'S', 'S', 'C', 'C', 'C', 'C', 'C', 'C', 'C', 'C', 'C', 'C', 'C', 'C', 'C', 'C', 'C', 'C']","[1322402, 1322874, 1323327, 1323779, 1324214, 1324568, 1325009, 1325370, 1325776, 1326160, 1326570, 1327010, 1327347, 1327804, 1328183, 1328571, 1328970, 1329410, 1329801, 1330196, 1330621, 1330994, 1331435]","[1322503, 1322966, 1323425, 1323800, 1324234, 1324610, 1325029, 1325450, 1325820, 1326246, 1326672, 1327069, 1327457, 1327879, 1328260, 1328654, 1329063, 1329468, 1329896, 1330310, 1330686, 1331053, 1331474]","[52, 85, 105, 99, 211, 5, 136, 238, 190, 224, 195, 138, 242, 187, 218, 163, 227, 144, 35, 209, 190, 118, 8]","[1322409, 1322880, 1323333, 1323779, 1324218, 1324573, 1325012, 1325375, 1325782, 1326166, 1326577, 1327019, 1327353, 1327810, 1328188, 1328578, 1328975, 1329417, 1329806, 1330201, 1330627, 1331001, 1331440]","[1322201, 1322601, 1323000, 1323401, 1323800, 1324200, 1324601, 1325000, 1325409, 1325814, 1326198, 1326609, 1327048, 1327385, 1327843, 1328222, 1328610, 1329008, 1329448, 1329840, 1330235, 1330660, 1331033, 1331474]",54,SB,U,R,ITMSR,1.0,
5,400,trial,0,71,71,71,trial,"['S', 'S', 'S', 'S', 'S', 'S', 'S', 'C', 'C', 'C', 'C', 'C', 'C', 'C', 'C', 'C', 'C', 'C', 'C', 'C', 'C', 'C', 'C']","[1337124, 1337537, 1338321, 1338696, 1339064, 1339437, 1339860, 1340295, 1340624, 1341080, 1341473, 1341907, 1342289, 1342736, 1343159, 1343584, 1344026, 1344408, 1344861, 1345268, 1345694, 1346145, 1346574]","[1337144, 1337616, 1338372, 1338746, 1339128, 1339489, 1339880, 1340335, 1340697, 1341127, 1341512, 1341956, 1342380, 1342815, 1343225, 1343662, 1344096, 1344519, 1344959, 1345366, 1345784, 1346225, 1346680]","[240, 8, 175, 92, 121, 220, 152, 181, 135, 47, 13, 87, 95, 96, 88, 79, 97, 32, 100, 114, 91, 88, 213]","[1337131, 1337542, 1338327, 1338699, 1339071, 1339442, 1339868, 1340302, 1340632, 1341086, 1341478, 1341914, 1342297, 1342743, 1343165, 1343591, 1344031, 1344415, 1344866, 1345274, 1345701, 1346152, 1346620]","[1337121, 1337521, 1337921, 1338320, 1338721, 1339120, 1339521, 1339921, 1340335, 1340663, 1341120, 1341512, 1341946, 1342328, 1342776, 1343199, 1343624, 1344065, 1344448, 1344901, 1345307, 1345733, 1346185, 1346614]",54,SB,U,R,ITMSR,1.0,
0,400,trial,0,72,72,72,trial,"['S', 'S', 'S', 'S', 'S', 'S', 'S', 'C', 'C', 'C', 'C', 'C', 'C', 'C', 'C', 'C', 'C', 'C', 'C', 'C', 'C', 'C', 'C']","[1352699, 1353095, 1353469, 1353910, 1354313, 1354746, 1355107, 1355492, 1355898, 1356270, 1356676, 1357085, 1357486, 1357892, 1358277, 1358689, 1359100, 1359500, 1359925, 1360279, 1360727, 1361170, 1361569]","[1352779, 1353188, 1353584, 1353998, 1354389, 1354766, 1355194, 1355570, 1355976, 1356346, 1356765, 1357151, 1357565, 1357953, 1358360, 1358756, 1359183, 1359602, 1360013, 1360420, 1360801, 1361229, 1361647]","[220, 92, 143, 98, 111, 58, 145, 120, 103, 85, 116, 105, 9, 13, 92, 93, 86, 90, 155, 96, 47, 212, 242]","[1352748, 1353147, 1353476, 1353917, 1354319, 1354749, 1355114, 1355498, 1355905, 1356276, 1356682, 1357091, 1357494, 1357899, 1358284, 1358694, 1359107, 1359508, 1359932, 1360285, 1360733, 1361178, 1361577]","[1352346, 1352747, 1353147, 1353546, 1353947, 1354347, 1354746, 1355147, 1355533, 1355938, 1356310, 1356717, 1357125, 1357527, 1357932, 1358317, 1358730, 1359140, 1359541, 1359966, 1360320, 1360768, 1361211, 1361609]",54,SB,U,R,ITMSR,1.0,
1,600,trial,0,73,73,73,trial,"['S', 'S', 'S', 'S', 'S', 'S', 'S', 'S', 'C', 'C', 'C', 'C', 'C', 'C', 'C', 'C', 'C', 'C', 'C', 'C', 'C', 'C', 'C', 'C']","[1367249, 1367727, 1368151, 1368761, 1369337, 1369904, 1370539, 1371131, 1371700, 1372408, 1372944, 1373460, 1373990, 1374567, 1375160, 1375653, 1376173, 1376642, 1377162, 1377649, 1378140, 1378665, 1379329, 1379760]","[1367335, 1367814, 1368255, 1368855, 1369455, 1370027, 1370655, 1371259, 1371870, 1372506, 1373053, 1373552, 1374117, 1374689, 1375199, 1375716, 1376211, 1376759, 1377269, 1377781, 1378299, 1378763, 1379403, 1379862]","[36, 103, 208, 237, 213, 73, 196, 235, 190, 174, 98, 152, 129, 156, 78, 131, 41, 122, 124, 133, 167, 153, 212, 142]","[1367294, 1367732, 1368157, 1368766, 1369342, 1369910, 1370545, 1371138, 1371706, 1372414, 1372950, 1373465, 1373997, 1374572, 1375165, 1375656, 1376176, 1376647, 1377168, 1377655, 1378146, 1378670, 1379336, 1379765]","[1367057, 1367656, 1368255, 1368855, 1369455, 1370055, 1370655, 1371255, 1371739, 1372446, 1372983, 1373499, 1374028, 1374606, 1375199, 1375691, 1376211, 1376680, 1377201, 1377687, 1378179, 1378704, 1379367, 1379799]",54,SB,U,R,ITMSR,1.0,
3,600,trial,0,74,74,74,trial,"['S', 'S', 'S', 'S', 'S', 'S', 'S', 'C', 'C', 'C', 'C', 'C', 'C', 'C', 'C', 'C', 'C', 'C', 'C', 'C', 'C', 'C', 'C']","[1385927, 1386575, 1387125, 1387694, 1388581, 1389010, 1389650, 1390259, 1390810, 1391315, 1391876, 1392644, 1393119, 1393575, 1394055, 1394585, 1395099, 1395618, 1396074, 1396608, 1397090, 1397623, 1398130]","[1385994, 1386595, 1387199, 1387804, 1388653, 1389071, 1389709, 1390338, 1390866, 1391416, 1391936, 1392700, 1393199, 1393675, 1394167, 1394678, 1395165, 1395662, 1396200, 1396691, 1397212, 1397736, 1398232]","[126, 76, 191, 69, 161, 45, 7, 36, 19, 255, 166, 52, 44, 190, 184, 185, 128, 116, 139, 144, 105, 72, 144]","[1385931, 1386582, 1387132, 1387699, 1388619, 1389016, 1389657, 1390265, 1390816, 1391322, 1391882, 1392651, 1393124, 1393582, 1394061, 1394591, 1395107, 1395624, 1396080, 1396613, 1397096, 1397630, 1398135]","[1385582, 1386181, 1386781, 1387381, 1387981, 1388581, 1389181, 1389782, 1390299, 1390849, 1391353, 1391916, 1392683, 1393158, 1393614, 1394095, 1394623, 1395138, 1395657, 1396114, 1396647, 1397130, 1397662, 1398169]",54,SB,U,R,ITMSR,1.0,
0,600,trial,0,75,75,75,trial,"['S', 'S', 'S', 'S', 'S', 'S', 'S', 'S', 'S', 'C', 'C', 'C', 'C', 'C', 'C', 'C', 'C', 'C', 'C', 'C', 'C', 'C', 'C', 'C', 'C']","[1403935, 1404361, 1404684, 1405205, 1405873, 1406446, 1407016, 1407586, 1407686, 1408249, 1408826, 1409434, 1410006, 1410542, 1411123, 1411630, 1412203, 1412723, 1413283, 1413816, 1414363, 1414887, 1415487, 1415973, 1416474]","[1404036, 1404451, 1404813, 1405361, 1405893, 1406466, 1407036, 1407606, 1407706, 1408352, 1408931, 1409538, 1410084, 1410623, 1411208, 1411757, 1412317, 1412864, 1413391, 1413927, 1414449, 1414969, 1415583, 1416097, 1416579]","[9, 198, 197, 250, 126, 20, 224, 234, 176, 211, 237, 227, 221, 44, 247, 195, 164, 201, 189, 146, 110, 152, 144, 150, 155]","[1403941, 1404366, 1404689, 1405209, 1405879, 1406451, 1407023, 1407592, 1407686, 1408256, 1408832, 1409440, 1410013, 1410546, 1411129, 1411635, 1412208, 1412728, 1413289, 1413822, 1414368, 1414891, 1415492, 1415977, 1416479]","[1403561, 1404161, 1404761, 1405361, 1405961, 1406561, 1407161, 1407761, 1408289, 1408867, 1409474, 1410046, 1410582, 1411164, 1411671, 1412244, 1412763, 1413323, 1413857, 1414404, 1414928, 1415528, 1416013, 1416514]",54,SB,U,R,ITMSR,1.0,
1,600,trial,0,76,76,76,trial,"['S', 'S', 'S', 'S', 'S', 'S', 'S', 'C', 'C', 'C', 'C', 'C', 'C', 'C', 'C', 'C', 'C', 'C', 'C', 'C', 'C', 'C', 'C']","[1422584, 1423327, 1423888, 1424493, 1425115, 1425763, 1426407, 1426983, 1427593, 1428137, 1428681, 1429239, 1429736, 1430333, 1430829, 1431371, 1431926, 1432462, 1433024, 1433532, 1434071, 1434599, 1435157]","[1422649, 1423347, 1423960, 1424513, 1425135, 1425783, 1426429, 1427021, 1427632, 1428230, 1428720, 1429318, 1429869, 1430394, 1430934, 1431480, 1431964, 1432501, 1433063, 1433622, 1434109, 1434638, 1435196]","[194, 10, 106, 179, 32, 182, 40, 74, 187, 2, 192, 236, 23, 124, 220, 23, 8, 236, 31, 196, 199, 211, 199]","[1422592, 1423332, 1423893, 1424498, 1425121, 1425767, 1426408, 1426987, 1427597, 1428143, 1428686, 1429243, 1429740, 1430338, 1430834, 1431376, 1431930, 1432468, 1433029, 1433536, 1434075, 1434604, 1435161]","[1422229, 1422829, 1423429, 1424029, 1424629, 1425229, 1425829, 1426429, 1427021, 1427632, 1428175, 1428719, 1429277, 1429775, 1430372, 1430867, 1431409, 1431964, 1432501, 1433063, 1433571, 1434109, 1434638, 1435196]",54,SB,U,R,ITMSR,1.0,
2,600,trial,0,77,77,77,trial,"['S', 'S', 'S', 'S', 'S', 'S', 'C', 'C', 'C', 'C', 'C', 'C', 'C', 'C', 'C', 'C', 'C', 'C', 'C', 'C', 'C', 'C']","[1441808, 1442434, 1443026, 1443666, 1444255, 1444842, 1445435, 1445926, 1446515, 1447025, 1447548, 1448103, 1448632, 1449214, 1449733, 1450240, 1450745, 1451273, 1451806, 1452268, 1452849, 1453329]","[1441883, 1442546, 1443148, 1443793, 1444346, 1444946, 1445527, 1446029, 1446591, 1447104, 1447640, 1448190, 1448721, 1449290, 1449822, 1450311, 1450818, 1451322, 1451878, 1452348, 1452916, 1453395]","[50, 34, 212, 176, 140, 204, 123, 172, 6, 55, 167, 203, 17, 14, 23, 125, 208, 91, 156, 73, 169, 40]","[1441813, 1442438, 1443032, 1443723, 1444262, 1444897, 1445442, 1445932, 1446521, 1447031, 1447554, 1448109, 1448637, 1449219, 1449737, 1450243, 1450749, 1451273, 1451809, 1452270, 1452853, 1453332]","[1440747, 1441346, 1441946, 1442546, 1443146, 1443746, 1444346, 1444946, 1445476, 1445966, 1446555, 1447065, 1447588, 1448143, 1448673, 1449254, 1449774, 1450280, 1450785, 1451314, 1451846, 1452309, 1452890, 1453370]",54,SB,U,R,ITMSR,1.0,
2,600,trial,0,78,78,78,trial,"['S', 'S', 'S', 'S', 'S', 'S', 'S', 'S', 'C', 'C', 'C', 'C', 'C', 'C', 'C', 'C', 'C', 'C', 'C', 'C', 'C', 'C', 'C', 'C']","[1473907, 1474272, 1474853, 1475411, 1476004, 1476622, 1477222, 1477775, 1478444, 1479043, 1479596, 1480197, 1480790, 1481324, 1481872, 1482459, 1483001, 1483600, 1484175, 1484793, 1485302, 1485906, 1486446, 1486981]","[1473999, 1474414, 1474973, 1475533, 1476129, 1476746, 1477334, 1477896, 1478566, 1479136, 1479740, 1480327, 1480909, 1481436, 1481990, 1482570, 1483106, 1483658, 1484234, 1484854, 1485402, 1485971, 1486552, 1487098]","[201, 13, 225, 173, 83, 198, 196, 162, 233, 90, 52, 135, 81, 113, 44, 233, 249, 206, 214, 249, 42, 183, 128, 223]","[1473912, 1474329, 1474859, 1475418, 1476011, 1476628, 1477226, 1477779, 1478449, 1479049, 1479602, 1480203, 1480796, 1481329, 1481878, 1482468, 1483009, 1483608, 1484181, 1484800, 1485308, 1485915, 1486451, 1486988]","[1473730, 1474329, 1474929, 1475529, 1476129, 1476729, 1477329, 1477929, 1478484, 1479084, 1479636, 1480238, 1480830, 1481365, 1481913, 1482500, 1483041, 1483640, 1484216, 1484833, 1485342, 1485946, 1486486, 1487022]",54,SB,U,R,ITMSR,1.0,
1,600,trial,0,79,79,79,trial,"['S', 'S', 'S', 'S', 'S', 'S', 'S', 'S', 'C', 'C', 'C', 'C', 'C', 'C', 'C', 'C', 'C', 'C', 'C', 'C', 'C', 'C', 'C', 'C']","[1492630, 1492997, 1493480, 1494066, 1494688, 1495218, 1495821, 1496434, 1497022, 1497618, 1498161, 1498731, 1499330, 1499918, 1500449, 1501050, 1501611, 1502177, 1502655, 1503224, 1503781, 1504312, 1504831, 1505432]","[1492694, 1493066, 1493566, 1494150, 1494708, 1495303, 1495886, 1496501, 1497109, 1497697, 1498254, 1498834, 1499382, 1500005, 1500547, 1501127, 1501700, 1502244, 1502750, 1503307, 1503880, 1504424, 1504947, 1505508]","[246, 219, 168, 108, 80, 0, 224, 233, 6, 207, 235, 210, 197, 150, 249, 75, 21, 103, 150, 98, 148, 178, 160, 161]","[1492634, 1493001, 1493484, 1494071, 1494692, 1495223, 1495823, 1496437, 1497026, 1497621, 1498164, 1498735, 1499334, 1499921, 1500453, 1501054, 1501616, 1502181, 1502659, 1503228, 1503784, 1504314, 1504834, 1505435]","[1492350, 1492950, 1493550, 1494150, 1494750, 1495350, 1495950, 1496550, 1497061, 1497657, 1498200, 1498770, 1499369, 1499957, 1500487, 1501088, 1501649, 1502216, 1502694, 1503262, 1503819, 1504351, 1504870, 1505471]",54,SB,U,R,ITMSR,1.0,
3,600,trial,0,80,80,80,trial,"['S', 'S', 'S', 'S', 'S', 'S', 'S', 'S', 'C', 'C', 'C', 'C', 'C', 'C', 'C', 'C', 'C', 'C', 'C', 'C', 'C', 'C', 'C', 'C']","[1511296, 1511626, 1512209, 1512779, 1513401, 1513953, 1514597, 1515136, 1515774, 1516354, 1516876, 1517485, 1518060, 1518628, 1519197, 1519755, 1520386, 1520944, 1521577, 1522165, 1522698, 1523288, 1523808, 1524340]","[1511350, 1511706, 1512271, 1512799, 1513449, 1514009, 1514617, 1515207, 1515837, 1516410, 1516962, 1517537, 1518131, 1518714, 1519284, 1519861, 1520444, 1520993, 1521644, 1522208, 1522766, 1523349, 1523871, 1524407]","[65, 80, 31, 50, 246, 236, 201, 244, 198, 179, 229, 123, 172, 218, 201, 208, 192, 125, 116, 206, 140, 137, 189, 171]","[1511299, 1511630, 1512213, 1512782, 1513405, 1513956, 1514600, 1515138, 1515778, 1516356, 1516879, 1517489, 1518063, 1518632, 1519200, 1519757, 1520389, 1520947, 1521582, 1522168, 1522701, 1523291, 1523810, 1524343]","[1511107, 1511706, 1512306, 1512906, 1513506, 1514106, 1514706, 1515307, 1515813, 1516393, 1516914, 1517523, 1518100, 1518667, 1519236, 1519795, 1520425, 1520984, 1521616, 1522204, 1522737, 1523326, 1523848, 1524378]",54,SB,U,R,ITMSR,1.0,
0,400,trial,0,81,81,81,trial,"['S', 'S', 'S', 'S', 'S', 'S', 'S', 'S', 'C', 'C', 'C', 'C', 'C', 'C', 'C', 'C', 'C', 'C', 'C', 'C', 'C', 'C', 'C', 'C']","[1530165, 1530483, 1530842, 1531177, 1531530, 1531906, 1532309, 1532708, 1533086, 1533560, 1534000, 1534368, 1534763, 1535133, 1535503, 1535915, 1536313, 1536707, 1537054, 1537446, 1537845, 1538259, 1538640, 1539115]","[1530211, 1530572, 1530892, 1531238, 1531612, 1531977, 1532382, 1532798, 1533173, 1533636, 1534064, 1534439, 1534839, 1535212, 1535600, 1535989, 1536361, 1536774, 1537141, 1537511, 1537913, 1538317, 1538716, 1539155]","[101, 42, 86, 144, 200, 212, 195, 218, 208, 176, 107, 60, 160, 162, 14, 170, 3, 49, 33, 211, 31, 151, 70, 73]","[1530169, 1530487, 1530848, 1531183, 1531534, 1531911, 1532314, 1532712, 1533090, 1533564, 1534005, 1534372, 1534767, 1535137, 1535507, 1535919, 1536318, 1536712, 1537057, 1537451, 1537850, 1538264, 1538643, 1539119]","[1529977, 1530378, 1530777, 1531177, 1531578, 1531977, 1532378, 1532778, 1533126, 1533600, 1534041, 1534408, 1534803, 1535173, 1535544, 1535955, 1536354, 1536748, 1537094, 1537486, 1537886, 1538299, 1538680, 1539155]",54,SB,U,R,ITMSR,1.0,
5,600,trial,0,82,82,82,trial,"['S', 'S', 'S', 'S', 'S', 'S', 'S', 'S', 'C', 'C', 'C', 'C', 'C', 'C', 'C', 'C', 'C', 'C', 'C', 'C', 'C', 'C', 'C', 'C']","[1544707, 1545073, 1545731, 1546339, 1546867, 1547532, 1548105, 1548710, 1549284, 1549864, 1550444, 1551048, 1551637, 1552235, 1552765, 1553330, 1553889, 1554459, 1555020, 1555578, 1556140, 1556708, 1557267, 1557860]","[1544756, 1545157, 1545786, 1546417, 1546986, 1547631, 1548213, 1548822, 1549409, 1549916, 1550547, 1551162, 1551724, 1552333, 1552844, 1553417, 1553996, 1554556, 1555134, 1555687, 1556241, 1556798, 1557365, 1557958]","[79, 141, 148, 144, 167, 112, 155, 121, 140, 67, 174, 44, 75, 153, 38, 201, 72, 204, 165, 224, 7, 234, 182, 246]","[1544711, 1545078, 1545737, 1546343, 1546871, 1547537, 1548110, 1548716, 1549288, 1549870, 1550449, 1551054, 1551642, 1552242, 1552771, 1553336, 1553894, 1554465, 1555025, 1555586, 1556145, 1556713, 1557273, 1557866]","[1544679, 1545278, 1545878, 1546477, 1547077, 1547677, 1548277, 1548877, 1549324, 1549903, 1550484, 1551087, 1551677, 1552275, 1552804, 1553370, 1553929, 1554498, 1555059, 1555617, 1556179, 1556748, 1557307, 1557900]",54,SB,U,R,ITMSR,1.0,
4,400,trial,0,83,83,83,trial,"['S', 'S', 'S', 'S', 'S', 'S', 'C', 'C', 'C', 'C', 'C', 'C', 'C', 'C', 'C', 'C', 'C', 'C', 'C', 'C', 'C', 'C']","[1564224, 1564537, 1564855, 1565244, 1565631, 1566138, 1566489, 1566903, 1567291, 1567669, 1568106, 1568491, 1568875, 1569280, 1569689, 1570097, 1570520, 1570900, 1571361, 1571739, 1572163, 1572529]","[1564278, 1564597, 1564976, 1565350, 1565742, 1566178, 1566558, 1566974, 1567361, 1567763, 1568172, 1568553, 1568950, 1569348, 1569743, 1570176, 1570590, 1570989, 1571427, 1571824, 1572234, 1572585]","[116, 254, 87, 70, 95, 218, 130, 140, 145, 140, 121, 170, 152, 127, 99, 128, 105, 67, 54, 116, 101, 79]","[1564227, 1564541, 1564860, 1565249, 1565635, 1566157, 1566493, 1566907, 1567295, 1567673, 1568110, 1568495, 1568880, 1569284, 1569693, 1570102, 1570525, 1570904, 1571366, 1571743, 1572167, 1572534]","[1563337, 1563738, 1564138, 1564537, 1564938, 1565337, 1565737, 1566138, 1566529, 1566944, 1567332, 1567710, 1568147, 1568532, 1568916, 1569320, 1569729, 1570138, 1570561, 1570940, 1571401, 1571779, 1572204, 1572570]",54,SB,U,R,ITMSR,1.0,
1,400,trial,0,84,84,84,trial,"['S', 'S', 'S', 'S', 'S', 'S', 'S', 'C', 'C', 'C', 'C', 'C', 'C', 'C', 'C', 'C', 'C', 'C', 'C', 'C', 'C', 'C', 'C']","[1578483, 1578852, 1579260, 1579644, 1580042, 1580356, 1580807, 1581216, 1581668, 1582055, 1582492, 1582911, 1583299, 1583709, 1584056, 1584490, 1584861, 1585252, 1585649, 1586041, 1586455, 1586829, 1587265]","[1578568, 1578948, 1579351, 1579780, 1580164, 1580507, 1580925, 1581322, 1581750, 1582142, 1582559, 1582976, 1583401, 1583783, 1584140, 1584545, 1584926, 1585329, 1585708, 1586098, 1586513, 1586885, 1587329]","[68, 210, 235, 4, 246, 235, 235, 212, 169, 161, 174, 198, 158, 122, 167, 194, 156, 138, 102, 102, 119, 252, 85]","[1578525, 1578855, 1579265, 1579649, 1580045, 1580360, 1580811, 1581220, 1581673, 1582059, 1582496, 1582914, 1583303, 1583714, 1584060, 1584494, 1584864, 1585256, 1585653, 1586045, 1586459, 1586833, 1587269]","[1578106, 1578507, 1578906, 1579307, 1579707, 1580106, 1580507, 1580906, 1581254, 1581707, 1582094, 1582530, 1582950, 1583338, 1583748, 1584095, 1584529, 1584900, 1585291, 1585687, 1586079, 1586494, 1586868, 1587304]",54,SB,U,R,ITMSR,1.0,
5,600,trial,0,85,85,85,trial,"['S', 'S', 'S', 'S', 'S', 'S', 'S', 'S', 'C', 'C', 'C', 'C', 'C', 'C', 'C', 'C', 'C', 'C', 'C', 'C', 'C', 'C', 'C', 'C']","[1593110, 1593555, 1593980, 1594476, 1595070, 1595658, 1596247, 1596862, 1597466, 1598033, 1598601, 1599194, 1599815, 1600366, 1600949, 1601486, 1602028, 1602625, 1603172, 1603739, 1604281, 1604862, 1605388, 1605940]","[1593145, 1593601, 1594000, 1594531, 1595134, 1595737, 1596376, 1596949, 1597552, 1598103, 1598673, 1599263, 1599862, 1600441, 1601006, 1601561, 1602120, 1602707, 1603235, 1603822, 1604360, 1604902, 1605493, 1606006]","[144, 224, 213, 172, 86, 210, 175, 185, 169, 196, 220, 189, 128, 130, 73, 136, 69, 79, 34, 72, 70, 213, 70, 234]","[1593116, 1593560, 1593986, 1594480, 1595076, 1595662, 1596252, 1596867, 1597471, 1598038, 1598606, 1599199, 1599819, 1600371, 1600954, 1601491, 1602034, 1602630, 1603177, 1603743, 1604286, 1604867, 1605392, 1605944]","[1592776, 1593375, 1593975, 1594575, 1595175, 1595776, 1596376, 1596977, 1597505, 1598072, 1598641, 1599234, 1599854, 1600405, 1600989, 1601525, 1602068, 1602665, 1603212, 1603778, 1604321, 1604901, 1605428, 1605980]",54,SB,U,R,ITMSR,1.0,
0,600,trial,0,86,86,86,trial,"['S', 'S', 'S', 'S', 'S', 'S', 'S', 'S', 'C', 'C', 'C', 'C', 'C', 'C', 'C', 'C', 'C', 'C', 'C', 'C', 'C', 'C', 'C', 'C']","[1611736, 1612205, 1612553, 1613123, 1613719, 1614361, 1614911, 1615606, 1616184, 1616786, 1617429, 1617978, 1618582, 1619149, 1619696, 1620305, 1620875, 1621394, 1621975, 1622510, 1623114, 1623684, 1624288, 1624866]","[1611825, 1612297, 1612660, 1613208, 1613834, 1614450, 1615034, 1615665, 1616265, 1616878, 1617487, 1618046, 1618673, 1619254, 1619808, 1620462, 1620980, 1621529, 1622102, 1622632, 1623239, 1623832, 1624408, 1624962]","[192, 50, 34, 254, 17, 3, 179, 189, 187, 172, 174, 195, 206, 203, 210, 211, 187, 196, 191, 172, 199, 197, 200, 130]","[1611741, 1612210, 1612557, 1613128, 1613723, 1614366, 1614917, 1615610, 1616189, 1616790, 1617434, 1617981, 1618587, 1619154, 1619700, 1620311, 1620880, 1621398, 1621978, 1622514, 1623119, 1623689, 1624292, 1624872]","[1611435, 1612034, 1612634, 1613234, 1613834, 1614434, 1615034, 1615634, 1616225, 1616827, 1617470, 1618019, 1618623, 1619189, 1619736, 1620345, 1620916, 1621435, 1622016, 1622550, 1623154, 1623725, 1624329, 1624906]",54,SB,U,R,ITMSR,1.0,
3,400,trial,0,87,87,87,trial,"['S', 'S', 'S', 'S', 'S', 'S', 'S', 'S', 'C', 'C', 'C', 'C', 'C', 'C', 'C', 'C', 'C', 'C', 'C', 'C', 'C', 'C', 'C', 'C']","[1630599, 1630983, 1631352, 1631753, 1632114, 1632492, 1632881, 1633298, 1633641, 1634078, 1634458, 1634871, 1635255, 1635613, 1636004, 1636404, 1636797, 1637282, 1637637, 1638072, 1638503, 1638962, 1639409, 1639759]","[1630717, 1631079, 1631435, 1631815, 1632180, 1632570, 1632961, 1633367, 1633732, 1634147, 1634544, 1634952, 1635344, 1635695, 1636102, 1636476, 1636889, 1637321, 1637727, 1638142, 1638572, 1639045, 1639504, 1639897]","[180, 165, 94, 25, 173, 157, 170, 162, 167, 171, 171, 167, 204, 184, 148, 134, 141, 90, 112, 70, 43, 80, 57, 98]","[1630604, 1630989, 1631371, 1631763, 1632119, 1632497, 1632885, 1633302, 1633645, 1634083, 1634462, 1634876, 1635259, 1635617, 1636008, 1636408, 1636802, 1637286, 1637640, 1638076, 1638508, 1638966, 1639413, 1639763]","[1630554, 1630953, 1631352, 1631753, 1632152, 1632552, 1632953, 1633352, 1633680, 1634117, 1634497, 1634910, 1635294, 1635652, 1636042, 1636444, 1636837, 1637320, 1637676, 1638112, 1638543, 1639001, 1639448, 1639798]",54,SB,U,R,ITMSR,1.0,
2,400,trial,0,88,88,88,trial,"['S', 'S', 'S', 'S', 'S', 'S', 'S', 'C', 'C', 'C', 'C', 'C', 'C', 'C', 'C', 'C', 'C', 'C', 'C', 'C', 'C', 'C', 'C']","[1645739, 1646095, 1646491, 1646906, 1647300, 1647710, 1648093, 1648519, 1648918, 1649303, 1649660, 1650098, 1650440, 1650882, 1651261, 1651681, 1652164, 1652501, 1652976, 1653339, 1653718, 1654158, 1654563]","[1645834, 1646194, 1646584, 1646986, 1647385, 1647783, 1648198, 1648607, 1648995, 1649375, 1649764, 1650177, 1650520, 1650956, 1651338, 1651744, 1652216, 1652632, 1653016, 1653424, 1653796, 1654217, 1654644]","[173, 246, 232, 227, 231, 234, 229, 232, 212, 227, 167, 190, 109, 109, 141, 114, 102, 48, 237, 88, 125, 46, 98]","[1645783, 1646101, 1646496, 1646910, 1647305, 1647715, 1648098, 1648523, 1648923, 1649307, 1649666, 1650102, 1650445, 1650887, 1651265, 1651685, 1652167, 1652505, 1652979, 1653344, 1653722, 1654162, 1654566]","[1645363, 1645762, 1646162, 1646563, 1646962, 1647363, 1647763, 1648162, 1648560, 1648959, 1649344, 1649700, 1650139, 1650481, 1650923, 1651302, 1651722, 1652204, 1652542, 1653016, 1653380, 1653758, 1654199, 1654603]",54,SB,U,R,ITMSR,1.0,
3,400,trial,0,89,89,89,trial,"['S', 'S', 'S', 'S', 'S', 'S', 'S', 'C', 'C', 'C', 'C', 'C', 'C', 'C', 'C', 'C', 'C', 'C', 'C', 'C', 'C', 'C', 'C']","[1660820, 1661063, 1661418, 1661816, 1662219, 1662617, 1663037, 1663429, 1663834, 1664220, 1664577, 1664913, 1665286, 1665631, 1666048, 1666405, 1666791, 1667134, 1667543, 1667916, 1668335, 1668710, 1669100]","[1660888, 1661135, 1661479, 1661891, 1662290, 1662683, 1663104, 1663498, 1663894, 1664276, 1664678, 1665017, 1665373, 1665718, 1666109, 1666523, 1666860, 1667258, 1667637, 1668020, 1668422, 1668798, 1669193]","[178, 129, 207, 184, 190, 181, 172, 80, 23, 106, 81, 72, 98, 78, 24, 222, 39, 77, 46, 35, 39, 40, 129]","[1660824, 1661068, 1661422, 1661821, 1662223, 1662621, 1663042, 1663435, 1663839, 1664225, 1664583, 1664919, 1665293, 1665636, 1666054, 1666455, 1666796, 1667140, 1667549, 1667922, 1668341, 1668716, 1669105]","[1660335, 1660735, 1661135, 1661536, 1661935, 1662336, 1662736, 1663135, 1663468, 1663873, 1664259, 1664616, 1664953, 1665325, 1665671, 1666087, 1666445, 1666831, 1667174, 1667582, 1667954, 1668373, 1668749, 1669139]",54,SB,U,R,ITMSR,1.0,
4,600,trial,0,90,90,90,trial,"['S', 'S', 'S', 'S', 'S', 'S', 'S', 'C', 'C', 'C', 'C', 'C', 'C', 'C', 'C', 'C', 'C', 'C', 'C', 'C', 'C', 'C', 'C']","[1674726, 1675278, 1676026, 1676598, 1677220, 1677812, 1678443, 1679023, 1679589, 1680123, 1680723, 1681247, 1681818, 1682390, 1682990, 1683846, 1684455, 1684952, 1685498, 1686008, 1686476, 1687022, 1687521]","[1674809, 1675367, 1676104, 1676679, 1677292, 1677884, 1678518, 1679088, 1679670, 1680215, 1680779, 1681324, 1681894, 1682481, 1683058, 1683930, 1684496, 1685040, 1685571, 1686123, 1686578, 1687100, 1687605]","[108, 23, 25, 100, 243, 107, 85, 48, 125, 229, 24, 0, 47, 79, 82, 155, 84, 147, 119, 143, 98, 48, 44]","[1674730, 1675281, 1676029, 1676601, 1677225, 1677817, 1678483, 1679027, 1679592, 1680128, 1680729, 1681251, 1681822, 1682394, 1682995, 1683851, 1684460, 1684956, 1685504, 1686012, 1686481, 1687028, 1687526]","[1674503, 1675102, 1675702, 1676302, 1676902, 1677502, 1678102, 1678702, 1679064, 1679630, 1680163, 1680763, 1681288, 1681858, 1682430, 1683031, 1683887, 1684496, 1684993, 1685538, 1686048, 1686516, 1687062, 1687562]",54,SB,U,R,ITMSR,1.0,
