pitch,ioi,event,.thisRepN,.thisTrialN,.thisN,.thisIndex,event,tap_types,tap_times,release_times,peak_pressures,peak_times,tone_times,subject,experimenter,register,handedness,experiment,version,
,,SPR,0,-1,-1,0,SPR,"['P', 'P', 'P', 'P', 'P', 'P', 'P', 'P', 'P', 'P', 'P', 'P', 'P', 'P', 'P', 'P', 'P', 'P', 'P', 'P', 'P', 'P', 'P', 'P', 'P', 'P', 'P', 'P', 'P', 'P']","[106015, 107719, 107953, 108141, 108433, 108839, 109182, 112030, 112265, 112526, 112760, 112992, 113233, 113452, 113758, 113994, 114264, 114514, 114746, 114960, 115202, 115423, 115637, 115878, 116059, 116302, 116511, 116751, 116965, 117216]","[106124, 107836, 108032, 108235, 108538, 108973, 109438, 112110, 112343, 112583, 112807, 113042, 113295, 113499, 113778, 114043, 114305, 114561, 114790, 115003, 115241, 115461, 115658, 115898, 116102, 116322, 116566, 116803, 117026, 117264]","[124, 25, 4, 35, 54, 103, 181, 251, 81, 55, 61, 76, 83, 43, 91, 63, 72, 46, 75, 6, 47, 15, 5, 213, 16, 47, 62, 62, 39, 57]","[106019, 107724, 107959, 108146, 108437, 108844, 109314, 112036, 112269, 112531, 112765, 112997, 113238, 113456, 113762, 113998, 114268, 114520, 114751, 114965, 115206, 115428, 115642, 115884, 116064, 116306, 116516, 116756, 116970, 117221]",,95,OR,L,R,ITMSR,1.1,
0,500,practice,0,0,0,0,practice,"['B', 'S', 'S', 'S', 'S', 'S', 'S', 'S', 'C', 'C', 'C', 'C', 'C', 'C', 'C', 'C', 'C', 'C', 'C', 'C', 'C', 'C', 'C', 'C', 'C']","[182033, 182742, 183128, 183528, 183992, 184472, 184977, 185478, 185985, 186437, 186849, 187261, 187653, 187975, 188258, 188482, 188689, 189161, 189621, 190034, 190398, 190745, 191084, 191436, 191767]","[182199, 182902, 183296, 183727, 184218, 184711, 185254, 185764, 186237, 186672, 187079, 187470, 187810, 188126, 188350, 188571, 188998, 189391, 189806, 190218, 190568, 190934, 191247, 191599, 191905]","[128, 165, 159, 169, 165, 167, 169, 173, 155, 156, 161, 147, 137, 142, 81, 90, 129, 119, 106, 117, 109, 100, 89, 87, 62]","[182088, 182745, 183132, 183531, 183995, 184602, 185105, 185627, 186106, 186582, 186978, 187360, 187657, 188044, 188304, 188520, 188840, 189282, 189701, 190115, 190403, 190835, 191154, 191509, 191837]","[182043, 182543, 183043, 183543, 184043, 184543, 185043, 185543, 186005, 186457, 186869, 187281, 187673, 187995, 188278, 188709, 189181, 189641, 190054, 190418, 190765, 191105, 191456, 191788]",95,OR,L,R,ITMSR,1.1,
4,500,practice,0,1,1,1,practice,"['S', 'S', 'S', 'S', 'S', 'S', 'S', 'C', 'C', 'C', 'C', 'C', 'C', 'C', 'C', 'C', 'C', 'C', 'C', 'C', 'C', 'C', 'C', 'C', 'C']","[197662, 198160, 198625, 199136, 199627, 200138, 200659, 201168, 201580, 201859, 202150, 202417, 207546, 207977, 208349, 208695, 209037, 209414, 209777, 210173, 210536, 210893, 211281, 211467, 211788]","[197847, 198336, 198828, 199344, 199837, 200338, 200854, 201387, 201692, 202008, 202264, 202513, 207735, 208143, 208525, 208892, 209222, 209582, 209942, 210278, 210741, 211073, 211372, 211576, 212011]","[126, 123, 147, 148, 117, 127, 105, 105, 75, 71, 45, 245, 135, 115, 113, 105, 50, 47, 58, 31, 15, 230, 32, 232, 78]","[197755, 198222, 198729, 199233, 199716, 200141, 200663, 201172, 201584, 201918, 202156, 202424, 207622, 208052, 208353, 208794, 209117, 209494, 209781, 210178, 210616, 210899, 211286, 211523, 211897]","[197318, 197818, 198318, 198818, 199318, 199818, 200318, 200818, 201188, 201601, 201879, 202170, 207566, 207997, 208369, 208715, 209057, 209434, 209797, 210193, 210556, 210913, 211301, 211808]",95,OR,L,R,ITMSR,1.1,
2,500,practice,0,2,2,2,practice,"['S', 'S', 'S', 'S', 'S', 'S', 'S', 'C', 'C', 'C', 'C', 'C', 'C', 'C', 'C', 'C', 'C', 'C', 'C', 'C', 'C', 'C', 'C', 'C', 'C']","[217751, 218228, 218677, 219205, 219730, 220208, 220704, 221214, 221611, 221917, 222176, 225555, 226009, 226404, 226810, 227192, 227594, 227975, 228323, 228681, 229010, 229319, 229623, 229905, 230159]","[217975, 218464, 218931, 219479, 219967, 220470, 220965, 221433, 221771, 222071, 222279, 225746, 226178, 226563, 226983, 227367, 227770, 228158, 228514, 228822, 229144, 229457, 229748, 229997]","[121, 129, 138, 146, 112, 137, 137, 128, 92, 96, 47, 99, 59, 71, 53, 49, 68, 56, 73, 37, 38, 24, 232, 206]","[217844, 218291, 218785, 219208, 219846, 220342, 220830, 221329, 221615, 221986, 222223, 225648, 226013, 226408, 226816, 227197, 227598, 227980, 228419, 228741, 229016, 229370, 229628, 229910]","[217323, 217823, 218323, 218823, 219323, 219823, 220323, 220823, 221234, 221631, 221937, 225575, 226029, 226424, 226830, 227212, 227614, 227995, 228343, 228701, 229030, 229339, 229643, 229925]",95,OR,L,R,ITMSR,1.1,
1,500,practice,0,3,3,3,practice,"['B', 'S', 'S', 'S', 'S', 'S', 'S', 'S', 'C', 'C', 'C', 'C', 'C', 'C', 'C', 'C', 'C', 'C', 'C', 'C', 'C', 'C', 'C', 'C', 'C']","[235471, 235817, 236279, 236790, 237297, 237791, 238288, 238776, 239284, 239737, 240025, 240346, 240644, 240946, 241191, 241467, 241978, 242460, 242873, 243330, 243762, 244189, 244614, 245027, 245436]","[235614, 236001, 236472, 236999, 237509, 238021, 238510, 239023, 239533, 239860, 240181, 240483, 240774, 241053, 241287, 241693, 242188, 242680, 243112, 243549, 243976, 244403, 244804, 245228, 245658]","[38, 65, 114, 103, 91, 100, 104, 100, 107, 92, 73, 59, 46, 39, 35, 95, 98, 117, 123, 129, 131, 122, 98, 91, 88]","[235524, 235823, 236283, 236794, 237405, 237895, 238404, 238889, 239425, 239740, 240088, 240402, 240693, 240993, 241233, 241595, 242084, 242574, 243002, 243438, 243880, 244296, 244689, 245121, 245539]","[235484, 235984, 236484, 236984, 237485, 237985, 238485, 238985, 239304, 239757, 240045, 240366, 240664, 240966, 241487, 241998, 242480, 242893, 243350, 243782, 244209, 244634, 245047, 245456]",95,OR,L,R,ITMSR,1.1,
3,500,practice,0,4,4,4,practice,"['S', 'S', 'S', 'S', 'S', 'S', 'S', 'S', 'C', 'C', 'C', 'C', 'C', 'C', 'C', 'C', 'C', 'C', 'C', 'C', 'C', 'C', 'C', 'C']","[251015, 251448, 251907, 252345, 252808, 253278, 253755, 254286, 254776, 255145, 255420, 255737, 256041, 256347, 256663, 256963, 257285, 257592, 257896, 258178, 258500, 258788, 259099, 259407]","[251256, 251669, 252163, 252597, 253074, 253536, 254017, 254528, 255009, 255247, 255603, 255891, 256196, 256496, 256802, 257106, 257441, 257726, 258024, 258298, 258632, 258908, 259236, 259555]","[92, 122, 96, 92, 88, 107, 111, 115, 112, 61, 104, 83, 79, 65, 64, 57, 58, 33, 31, 31, 56, 55, 72, 45]","[251112, 251552, 252002, 252474, 252964, 253417, 253884, 254414, 254914, 255186, 255526, 255816, 256120, 256429, 256727, 257028, 257364, 257651, 257956, 258236, 258505, 258792, 259104, 259411]","[250998, 251498, 251998, 252498, 252998, 253498, 253998, 254498, 254796, 255165, 255440, 255757, 256061, 256367, 256684, 256984, 257305, 257612, 257916, 258198, 258520, 258808, 259119, 259427]",95,OR,L,R,ITMSR,1.1,
5,500,practice,0,5,5,5,practice,"['S', 'S', 'S', 'S', 'S', 'S', 'S', 'S', 'C', 'C', 'C', 'C', 'C', 'C', 'C', 'C', 'C', 'C', 'C', 'C', 'C', 'C', 'C', 'C', 'C', 'C']","[265241, 265576, 265992, 266439, 266961, 267465, 267977, 268473, 268947, 269307, 269576, 269888, 270322, 270710, 271028, 271318, 271593, 271852, 272079, 272624, 273102, 273514, 273908, 274291, 274646, 275014]","[265417, 265806, 266237, 266746, 267265, 267779, 268301, 268766, 269166, 269435, 269673, 270146, 270500, 270868, 271154, 271435, 271703, 271961, 272487, 272865, 273332, 273726, 274114, 274488, 274835, 275197]","[90, 133, 136, 137, 130, 109, 97, 89, 101, 62, 1, 115, 90, 81, 72, 57, 47, 60, 117, 131, 121, 118, 117, 90, 103, 78]","[265324, 265710, 266131, 266600, 266964, 267469, 267980, 268678, 268951, 269369, 269620, 270057, 270406, 270714, 271032, 271323, 271599, 271857, 272317, 272771, 273232, 273624, 274023, 274378, 274749, 275018]","[265075, 265575, 266075, 266575, 267075, 267575, 268076, 268575, 268967, 269327, 269908, 270342, 270730, 271048, 271338, 271613, 272099, 272644, 273122, 273534, 273928, 274311, 274666, 275034]",95,OR,L,R,ITMSR,1.1,
5,400,trial,0,6,6,6,trial,"['S', 'S', 'S', 'S', 'S', 'S', 'S', 'C', 'C', 'C', 'C', 'C', 'C', 'C', 'C', 'C', 'C', 'C', 'C', 'C', 'C', 'C', 'C', 'C']","[343236, 343631, 344000, 344378, 344794, 345212, 345597, 346021, 346373, 346622, 346977, 347372, 347749, 348096, 348428, 348770, 349115, 349434, 349749, 350064, 350364, 350683, 350998, 351312]","[343471, 343817, 344229, 344611, 345019, 345435, 345831, 346236, 346508, 346765, 347208, 347574, 347948, 348269, 348615, 348939, 349291, 349586, 349896, 350224, 350505, 350818, 351147, 351449]","[180, 161, 178, 176, 185, 174, 180, 175, 152, 150, 153, 152, 160, 151, 147, 141, 154, 139, 141, 146, 139, 137, 132, 120]","[343342, 343725, 344085, 344488, 344910, 345334, 345690, 346149, 346377, 346683, 347117, 347481, 347846, 348168, 348521, 348847, 349198, 349504, 349753, 350136, 350423, 350687, 351060, 351372]","[342953, 343353, 343753, 344153, 344553, 344953, 345353, 345753, 346041, 346393, 346997, 347393, 347769, 348116, 348448, 348790, 349135, 349454, 349769, 350084, 350384, 350703, 351019, 351332]",95,OR,L,R,ITMSR,1.1,
3,400,trial,0,7,7,7,trial,"['S', 'S', 'S', 'S', 'S', 'S', 'S', 'S', 'C', 'C', 'C', 'C', 'C', 'C', 'C', 'C', 'C', 'C', 'C', 'C', 'C', 'C', 'C', 'C', 'C', 'C', 'C']","[357080, 357371, 357676, 358025, 358413, 358825, 359224, 359614, 360013, 360354, 360639, 360869, 361309, 361731, 362059, 362373, 362651, 362956, 363241, 363516, 363785, 364054, 364367, 364682, 364942, 365222, 365508]","[357264, 357543, 357855, 358231, 358668, 359072, 359467, 359867, 360227, 360515, 360762, 360969, 361513, 361892, 362219, 362507, 362778, 363084, 363367, 363623, 363889, 364198, 364492, 364795, 365053, 365352, 365623]","[158, 150, 166, 156, 171, 142, 161, 164, 147, 155, 153, 136, 165, 162, 154, 130, 125, 123, 117, 120, 87, 131, 138, 133, 110, 119, 87]","[357168, 357447, 357747, 358112, 358416, 358829, 359368, 359616, 360016, 360357, 360643, 360871, 361430, 361734, 362062, 362376, 362706, 362960, 363298, 363518, 363831, 364058, 364370, 364686, 364946, 365276, 365560]","[356918, 357318, 357719, 358118, 358518, 358918, 359318, 359718, 360033, 360374, 360659, 361329, 361751, 362079, 362393, 362671, 362976, 363261, 363536, 364075, 364387, 364702, 365242, 365528]",95,OR,L,R,ITMSR,1.1,
3,600,trial,0,8,8,8,trial,"['S', 'S', 'S', 'S', 'S', 'S', 'S', 'S', 'C', 'C', 'C', 'C', 'C', 'C', 'C', 'C', 'C', 'C', 'C', 'C', 'C', 'C', 'C', 'C', 'C']","[371233, 371647, 372055, 372587, 373136, 373635, 374263, 374882, 375455, 375829, 376104, 376389, 376664, 376916, 377184, 377502, 377841, 378162, 378516, 378856, 379154, 379449, 379755, 380080, 380404]","[371433, 371855, 372324, 372819, 373419, 373947, 374534, 375138, 375693, 375979, 376264, 376537, 376797, 377036, 377345, 377681, 378012, 378340, 378699, 378982, 379273, 379560, 379893, 380206, 380503]","[168, 166, 173, 171, 171, 163, 165, 162, 156, 146, 137, 134, 137, 121, 140, 142, 125, 122, 129, 131, 150, 151, 153, 147, 131]","[371334, 371733, 372150, 372691, 373139, 373819, 374265, 374884, 375455, 375833, 376169, 376444, 376723, 376921, 377254, 377505, 377845, 378236, 378587, 378906, 379158, 379452, 379758, 380083, 380408]","[371000, 371600, 372200, 372800, 373400, 374000, 374600, 375200, 375475, 375849, 376124, 376409, 376684, 377204, 377522, 377861, 378182, 378536, 378876, 379174, 379469, 379776, 380100, 380424]",95,OR,L,R,ITMSR,1.1,
0,600,trial,0,9,9,9,trial,"['S', 'S', 'S', 'S', 'S', 'S', 'S', 'S', 'C', 'C', 'C', 'C', 'C', 'C', 'C', 'C', 'C', 'C', 'C', 'C', 'C', 'C', 'C', 'C', 'C']","[386347, 386710, 387159, 387729, 388345, 388959, 389580, 390196, 390797, 391388, 391963, 392520, 393046, 393513, 393910, 394249, 394550, 394824, 395134, 395398, 395761, 396315, 396862, 397407, 397931]","[386593, 386947, 387459, 388066, 388718, 389304, 389934, 390560, 391155, 391710, 392220, 392756, 393276, 393690, 394071, 394366, 394644, 394924, 395214, 395507, 395944, 396524, 397095, 397625, 398138]","[171, 190, 195, 187, 180, 170, 180, 179, 159, 169, 155, 159, 172, 165, 153, 131, 144, 139, 134, 148, 145, 173, 162, 155, 158]","[386491, 386800, 387256, 387732, 388348, 388961, 389583, 390198, 390799, 391391, 391966, 392524, 393049, 393517, 393913, 394254, 394553, 394825, 395139, 395402, 395765, 396319, 396866, 397410, 397934]","[386018, 386617, 387217, 387817, 388417, 389017, 389617, 390217, 390817, 391408, 391983, 392540, 393066, 393533, 393930, 394269, 394570, 394844, 395154, 395781, 396335, 396882, 397427, 397952]",95,OR,L,R,ITMSR,1.1,
3,400,trial,0,10,10,10,trial,"['S', 'S', 'S', 'S', 'S', 'S', 'S', 'C', 'C', 'C', 'C', 'C', 'C', 'C', 'C', 'C', 'C', 'C', 'C', 'C', 'C', 'C', 'C']","[403817, 404203, 404575, 404983, 405402, 405809, 406220, 406605, 406966, 407314, 407650, 407987, 408350, 408687, 409041, 409377, 409709, 410059, 410417, 410767, 411127, 411438, 411767]","[403991, 404300, 404700, 405103, 405527, 405938, 406323, 406718, 407074, 407398, 407727, 408080, 408428, 408779, 409123, 409462, 409806, 410149, 410539, 410876, 411205, 411521, 411845]","[112, 134, 150, 164, 156, 162, 161, 154, 149, 137, 132, 141, 114, 124, 57, 83, 86, 59, 101, 92, 82, 84, 90]","[403821, 404206, 404578, 404986, 405405, 405812, 406223, 406609, 406969, 407318, 407653, 407990, 408354, 408690, 409046, 409381, 409713, 410063, 410421, 410770, 411131, 411442, 411770]","[403474, 403873, 404273, 404673, 405073, 405473, 405873, 406274, 406625, 406986, 407334, 407670, 408007, 408370, 408707, 409061, 409397, 409730, 410079, 410437, 410787, 411147, 411458, 411787]",95,OR,L,R,ITMSR,1.1,
1,400,trial,0,11,11,11,trial,"['S', 'S', 'S', 'S', 'S', 'S', 'S', 'C', 'C', 'C', 'C', 'C', 'C', 'C', 'C', 'C', 'C', 'C', 'C', 'C', 'C', 'C', 'C', 'C', 'C', 'C', 'C']","[417591, 417979, 418364, 418741, 419145, 419553, 419949, 420360, 420672, 420947, 421208, 421501, 421835, 422137, 422431, 422758, 423022, 423365, 423663, 423938, 424172, 424446, 424745, 425054, 425329, 425645, 425906]","[417714, 418085, 418456, 418837, 419237, 419642, 420044, 420473, 420764, 421001, 421265, 421603, 421944, 422240, 422556, 422838, 423140, 423472, 423766, 424032, 424283, 424589, 424858, 425160, 425440, 425731]","[102, 141, 132, 146, 151, 149, 150, 154, 105, 72, 75, 128, 130, 111, 136, 103, 129, 135, 134, 94, 105, 136, 102, 119, 105, 130]","[417595, 417983, 418368, 418744, 419148, 419556, 419953, 420364, 420677, 420950, 421212, 421506, 421839, 422141, 422434, 422762, 423025, 423368, 423666, 423942, 424176, 424506, 424750, 425058, 425331, 425648]","[417283, 417683, 418083, 418483, 418883, 419283, 419683, 420083, 420380, 420692, 420967, 421521, 421855, 422157, 422451, 422778, 423385, 423683, 423958, 424466, 424765, 425074, 425349, 425665]",95,OR,L,R,ITMSR,1.1,
4,600,trial,0,12,12,12,trial,"['S', 'S', 'S', 'S', 'S', 'S', 'S', 'S', 'C', 'C', 'C', 'C', 'C', 'C', 'C', 'C', 'C', 'C', 'C', 'C', 'C', 'C', 'C', 'C', 'C']","[431688, 432058, 432563, 433099, 433681, 434262, 434915, 435524, 436155, 436502, 436823, 437127, 437417, 437738, 438047, 438352, 438626, 438957, 439244, 439552, 439836, 440188, 440483, 440811, 441074]","[431794, 432232, 432795, 433374, 433988, 434582, 435182, 435788, 436322, 436666, 436909, 437189, 437511, 437812, 438129, 438421, 438723, 439019, 439324, 439614, 439919, 440255, 440573, 440881]","[106, 144, 156, 152, 147, 158, 122, 157, 138, 119, 92, 111, 124, 132, 129, 135, 112, 125, 119, 129, 133, 98, 129, 102]","[431691, 432061, 432567, 433103, 433685, 434265, 434919, 435527, 436159, 436506, 436827, 437131, 437422, 437742, 438051, 438356, 438627, 438961, 439248, 439555, 439840, 440193, 440487, 440815]","[431448, 432048, 432648, 433248, 433848, 434448, 435048, 435648, 436175, 436523, 436843, 437147, 437437, 437758, 438067, 438372, 438646, 438977, 439264, 439572, 439856, 440208, 440503, 440832]",95,OR,L,R,ITMSR,1.1,
2,600,trial,0,13,13,13,trial,"['S', 'S', 'S', 'S', 'S', 'S', 'S', 'S', 'S', 'C', 'C', 'C', 'C', 'C', 'C', 'C', 'C', 'C', 'C', 'C', 'C', 'C', 'C', 'C', 'C', 'C', 'C']","[446367, 446795, 447370, 448011, 448115, 448559, 449168, 449733, 450341, 450960, 451341, 451646, 451934, 452268, 452555, 452871, 453121, 453463, 453785, 454074, 454348, 454659, 454963, 455266, 455508, 455947, 456221]","[446560, 447059, 447647, 448035, 448188, 448831, 449401, 450008, 450607, 451130, 451456, 451733, 452029, 452340, 452629, 452950, 453215, 453568, 453852, 454152, 454433, 454731, 455032, 455336, 455620, 456010, 456315]","[34, 141, 144, 148, 160, 136, 149, 156, 153, 160, 89, 115, 118, 122, 72, 95, 99, 130, 71, 109, 95, 98, 75, 85, 85, 62, 107]","[446492, 446799, 447374, 448015, 448129, 448563, 449172, 449736, 450344, 450963, 451345, 451650, 451938, 452272, 452560, 452875, 453125, 453467, 453789, 454078, 454349, 454664, 454968, 455270, 455514, 455951, 456224]","[446220, 446820, 447420, 448020, 448620, 449220, 449820, 450420, 450980, 451361, 451666, 451954, 452288, 452575, 452891, 453483, 453805, 454094, 454368, 454679, 454983, 455286, 455967, 456241]",95,OR,L,R,ITMSR,1.1,
0,400,trial,0,14,14,14,trial,"['S', 'S', 'S', 'S', 'S', 'S', 'S', 'C', 'C', 'C', 'C', 'C', 'C', 'C', 'C', 'C', 'C', 'C', 'C', 'C', 'C', 'C', 'C', 'C', 'C']","[462472, 462751, 463090, 463442, 463823, 464196, 464582, 464998, 465344, 465669, 465946, 466252, 466508, 466824, 467144, 467425, 467692, 468110, 468419, 468716, 469046, 469353, 469642, 469937, 470216]","[462575, 462864, 463207, 463562, 463937, 464307, 464716, 465106, 465432, 465751, 466016, 466335, 466588, 466936, 467221, 467486, 467748, 468202, 468493, 468809, 469130, 469444, 469736, 470017, 470297]","[173, 171, 180, 175, 147, 150, 150, 143, 143, 113, 137, 140, 117, 140, 131, 60, 80, 110, 126, 105, 97, 99, 88, 79, 89]","[462476, 462755, 463093, 463446, 463828, 464201, 464586, 465002, 465347, 465673, 465950, 466255, 466512, 466828, 467148, 467430, 467698, 468114, 468423, 468720, 469050, 469358, 469646, 469941, 470220]","[461902, 462301, 462701, 463101, 463501, 463901, 464301, 464701, 465018, 465364, 465689, 465966, 466272, 466844, 467164, 467445, 468130, 468440, 468737, 469066, 469373, 469662, 469957, 470236]",95,OR,L,R,ITMSR,1.1,
0,400,trial,0,15,15,15,trial,"['S', 'S', 'S', 'S', 'S', 'S', 'S', 'C', 'C', 'C', 'C', 'C', 'C', 'C', 'C', 'C', 'C', 'C', 'C', 'C', 'C', 'C', 'C']","[476072, 476408, 476751, 477177, 477575, 477993, 478389, 478784, 479151, 479481, 479851, 480190, 480544, 480861, 481200, 481544, 481851, 482198, 482531, 482842, 483150, 483470, 483827]","[476205, 476512, 476839, 477273, 477684, 478075, 478472, 478857, 479221, 479551, 479907, 480260, 480611, 480928, 481268, 481595, 481913, 482264, 482591, 482911, 483222, 483544, 483888]","[104, 153, 146, 160, 130, 135, 130, 121, 101, 122, 108, 77, 55, 49, 74, 61, 70, 65, 81, 48, 58, 67, 57]","[476140, 476412, 476754, 477180, 477579, 477998, 478392, 478788, 479155, 479485, 479856, 480194, 480549, 480866, 481204, 481547, 481855, 482202, 482534, 482847, 483155, 483475, 483831]","[475672, 476072, 476472, 476872, 477272, 477672, 478072, 478472, 478804, 479171, 479501, 479872, 480210, 480564, 480881, 481220, 481564, 481871, 482219, 482551, 482862, 483170, 483490, 483847]",95,OR,L,R,ITMSR,1.1,
4,400,trial,0,16,16,16,trial,"['S', 'S', 'S', 'S', 'S', 'S', 'S', 'S', 'C', 'C', 'C', 'C', 'C', 'C', 'C', 'C', 'C', 'C', 'C', 'C', 'C', 'C', 'C', 'C', 'C']","[489674, 489987, 490316, 490661, 491022, 491420, 491803, 492198, 492579, 492930, 493251, 493542, 493808, 494163, 494540, 494903, 495284, 495661, 496016, 496351, 496705, 497069, 497367, 497727, 498058]","[489796, 490080, 490413, 490748, 491118, 491500, 491878, 492270, 492658, 492978, 493319, 493609, 493874, 494231, 494619, 494973, 495360, 495726, 496089, 496429, 496765, 497138, 497453, 497786, 498120]","[170, 132, 146, 165, 159, 138, 136, 147, 149, 114, 143, 114, 98, 76, 125, 110, 92, 82, 86, 95, 81, 22, 67, 74, 79]","[489678, 489992, 490320, 490665, 491025, 491424, 491807, 492203, 492583, 492933, 493255, 493546, 493812, 494168, 494543, 494907, 495288, 495665, 496020, 496356, 496709, 497074, 497372, 497731, 498062]","[489475, 489875, 490275, 490675, 491075, 491475, 491875, 492275, 492599, 492950, 493272, 493562, 494183, 494560, 494923, 495304, 495681, 496036, 496371, 496726, 497089, 497387, 497747, 498078]",95,OR,L,R,ITMSR,1.1,
1,600,trial,0,17,17,17,trial,"['S', 'S', 'S', 'S', 'S', 'S', 'S', 'S', 'C', 'C', 'C', 'C', 'C', 'C', 'C', 'C', 'C', 'C', 'C', 'C', 'C', 'C', 'C', 'C']","[503596, 503911, 504483, 505118, 505735, 506365, 506931, 507537, 508138, 508653, 509069, 509428, 509822, 510244, 510669, 511090, 511461, 511823, 512233, 512581, 512956, 513339, 513682, 514060]","[503694, 504190, 504781, 505406, 506010, 506588, 507199, 507791, 508328, 508826, 509206, 509578, 509976, 510357, 510800, 511204, 511577, 511916, 512316, 512685, 513044, 513416, 513788, 514157]","[165, 130, 134, 156, 140, 130, 114, 138, 109, 79, 106, 107, 82, 89, 104, 103, 79, 117, 236, 103, 82, 10, 87, 85]","[503599, 503914, 504486, 505121, 505738, 506370, 506935, 507540, 508142, 508658, 509072, 509432, 509828, 510248, 510673, 511094, 511466, 511827, 512238, 512585, 512961, 513344, 513687, 514065]","[503406, 504006, 504606, 505206, 505806, 506406, 507006, 507607, 508158, 508674, 509089, 509448, 509842, 510264, 510689, 511110, 511481, 511843, 512253, 512601, 512976, 513359, 513702, 514080]",95,OR,L,R,ITMSR,1.1,
5,400,trial,0,18,18,18,trial,"['S', 'S', 'S', 'S', 'S', 'S', 'S', 'C', 'C', 'C', 'C', 'C', 'C', 'C', 'C', 'C', 'C', 'C', 'C', 'C', 'C', 'C', 'C']","[519971, 520307, 520794, 521201, 521604, 522025, 522412, 522797, 523165, 523508, 523832, 524208, 524547, 524852, 525229, 525561, 525878, 526189, 526511, 526876, 527237, 527528, 527882]","[520081, 520411, 520884, 521297, 521696, 522115, 522510, 522880, 523243, 523586, 523920, 524278, 524628, 524939, 525285, 525646, 525934, 526265, 526616, 526939, 527293, 527606, 527950]","[118, 111, 143, 136, 128, 114, 120, 128, 95, 63, 69, 97, 75, 57, 49, 96, 74, 121, 80, 34, 30, 67, 29]","[519974, 520310, 520798, 521204, 521607, 522029, 522416, 522801, 523169, 523511, 523835, 524212, 524551, 524856, 525233, 525564, 525882, 526192, 526515, 526881, 527241, 527533, 527886]","[519708, 520109, 520509, 520909, 521309, 521709, 522109, 522509, 522817, 523185, 523528, 523852, 524228, 524567, 524872, 525249, 525581, 525898, 526210, 526531, 526896, 527257, 527548, 527902]",95,OR,L,R,ITMSR,1.1,
1,400,trial,0,19,19,19,trial,"['S', 'S', 'S', 'S', 'S', 'S', 'S', 'S', 'C', 'C', 'C', 'C', 'C', 'C', 'C', 'C', 'C', 'C', 'C', 'C', 'C', 'C', 'C', 'C']","[533483, 533805, 534185, 534490, 534842, 535207, 535613, 536019, 536415, 536812, 537188, 537568, 537926, 538303, 538682, 539030, 539398, 539757, 540103, 540473, 540855, 541171, 541589, 541953]","[533580, 533916, 534255, 534573, 534924, 535292, 535687, 536100, 536503, 536900, 537263, 537659, 538016, 538389, 538763, 539113, 539467, 539842, 540184, 540547, 540924, 541268, 541668, 542010]","[144, 127, 113, 116, 126, 121, 101, 111, 143, 129, 90, 119, 130, 119, 136, 158, 101, 155, 98, 167, 110, 160, 127, 135]","[533485, 533808, 534190, 534494, 534845, 535211, 535617, 536023, 536418, 536815, 537192, 537571, 537929, 538306, 538685, 539032, 539401, 539760, 540106, 540476, 540858, 541173, 541592, 541956]","[533262, 533661, 534061, 534461, 534861, 535261, 535661, 536061, 536435, 536833, 537208, 537588, 537946, 538323, 538702, 539051, 539418, 539778, 540123, 540493, 540875, 541191, 541609, 541973]",95,OR,L,R,ITMSR,1.1,
4,400,trial,0,20,20,20,trial,"['S', 'S', 'S', 'S', 'S', 'S', 'S', 'S', 'C', 'C', 'C', 'C', 'C', 'C', 'C', 'C', 'C', 'C', 'C', 'C', 'C', 'C', 'C', 'C', 'C']","[547927, 548254, 548615, 548938, 549302, 549681, 550054, 550467, 550861, 551201, 551475, 551787, 552043, 552459, 552927, 553379, 553793, 554200, 554584, 554999, 555414, 555767, 556147, 556532, 556913]","[548033, 548355, 548694, 549021, 549393, 549761, 550138, 550532, 550944, 551269, 551562, 551849, 552110, 552566, 553031, 553493, 553905, 554329, 554702, 555107, 555483, 555898, 556269, 556655, 556995]","[141, 134, 128, 157, 157, 134, 126, 110, 143, 118, 90, 81, 80, 128, 149, 137, 145, 156, 133, 154, 150, 150, 105, 112, 73]","[547930, 548257, 548618, 548941, 549305, 549684, 550057, 550470, 550864, 551204, 551478, 551790, 552047, 552462, 552931, 553382, 553796, 554202, 554587, 555001, 555416, 555770, 556150, 556535, 556917]","[547725, 548124, 548525, 548925, 549325, 549725, 550125, 550525, 550881, 551221, 551495, 551808, 552479, 552947, 553399, 553814, 554220, 554604, 555019, 555435, 555787, 556167, 556552, 556933]",95,OR,L,R,ITMSR,1.1,
5,600,trial,0,21,21,21,trial,"['S', 'S', 'S', 'S', 'S', 'S', 'S', 'S', 'C', 'C', 'C', 'C', 'C', 'C', 'C', 'C', 'C', 'C', 'C', 'C', 'C', 'C', 'C', 'C', 'C']","[562840, 563151, 563657, 564228, 564787, 565395, 566000, 566628, 567217, 567569, 567865, 568150, 568425, 568691, 569106, 569675, 570204, 570698, 571112, 571512, 571889, 572253, 572579, 572933, 573270]","[562938, 563337, 563910, 564480, 565105, 565716, 566317, 566920, 567399, 567693, 567981, 568239, 568529, 568804, 569334, 569851, 570396, 570896, 571376, 571787, 572122, 572461, 572787, 573150, 573470]","[24, 131, 154, 159, 146, 142, 134, 132, 136, 118, 99, 68, 83, 45, 81, 132, 125, 130, 202, 207, 208, 201, 201, 200, 197]","[562845, 563154, 563660, 564232, 564790, 565398, 566004, 566632, 567220, 567572, 567869, 568155, 568430, 568695, 569228, 569678, 570208, 570806, 571236, 571656, 572020, 572357, 572673, 573033, 573359]","[562574, 563174, 563774, 564374, 564974, 565574, 566174, 566774, 567237, 567589, 567885, 568170, 568445, 569126, 569695, 570224, 570718, 571132, 571532, 571909, 572273, 572599, 572953, 573290]",95,OR,L,R,ITMSR,1.1,
5,600,trial,0,22,22,22,trial,"['S', 'S', 'S', 'S', 'S', 'S', 'S', 'S', 'C', 'C', 'C', 'C', 'C', 'C', 'C', 'C', 'C', 'C', 'C', 'C', 'C', 'C', 'C', 'C']","[579269, 579584, 580085, 580706, 581300, 581904, 582478, 583074, 583672, 584105, 584516, 584897, 585302, 585665, 586047, 586426, 586786, 587125, 587467, 587799, 588123, 588451, 588777, 589093]","[579388, 579748, 580353, 580987, 581612, 582209, 582781, 583352, 583892, 584267, 584659, 585053, 585423, 585792, 586159, 586540, 586911, 587256, 587570, 587916, 588237, 588539, 588882, 589219]","[113, 133, 141, 144, 127, 137, 153, 143, 144, 113, 134, 130, 121, 113, 126, 107, 118, 88, 75, 93, 95, 89, 87, 92]","[579274, 579589, 580090, 580710, 581304, 581908, 582482, 583078, 583676, 584111, 584520, 584902, 585306, 585669, 586051, 586431, 586790, 587129, 587471, 587803, 588127, 588455, 588781, 589097]","[579005, 579605, 580205, 580805, 581405, 582005, 582605, 583205, 583692, 584125, 584536, 584918, 585322, 585686, 586067, 586446, 586806, 587145, 587487, 587820, 588143, 588471, 588797, 589113]",95,OR,L,R,ITMSR,1.1,
0,600,trial,0,23,23,23,trial,"['S', 'S', 'S', 'S', 'S', 'S', 'S', 'S', 'C', 'C', 'C', 'C', 'C', 'C', 'C', 'C', 'C', 'C', 'C', 'C', 'C', 'C', 'C', 'C']","[594889, 595375, 595866, 596470, 597057, 597638, 598230, 598830, 599390, 599756, 600112, 600479, 600837, 601227, 601581, 601933, 602301, 602674, 603056, 603438, 603801, 604155, 604512, 604882]","[595035, 595518, 596167, 596732, 597327, 597854, 598469, 599019, 599550, 599870, 600212, 600563, 600942, 601319, 601676, 602024, 602377, 602770, 603136, 603518, 603909, 604248, 604605, 604985]","[121, 151, 142, 152, 159, 184, 184, 161, 178, 149, 153, 158, 169, 150, 139, 143, 165, 135, 136, 149, 144, 101, 150, 138]","[594892, 595378, 595869, 596473, 597060, 597641, 598233, 598833, 599392, 599759, 600114, 600482, 600839, 601230, 601584, 601936, 602303, 602677, 603059, 603441, 603804, 604158, 604515, 604886]","[594702, 595302, 595902, 596502, 597102, 597702, 598302, 598902, 599410, 599776, 600132, 600499, 600857, 601247, 601602, 601953, 602321, 602694, 603076, 603458, 603821, 604175, 604532, 604902]",95,OR,L,R,ITMSR,1.1,
4,600,trial,0,24,24,24,trial,"['S', 'S', 'S', 'S', 'S', 'S', 'S', 'S', 'C', 'C', 'C', 'C', 'C', 'C', 'C', 'C', 'C', 'C', 'C', 'C', 'C', 'C', 'C', 'C', 'C']","[610672, 611095, 611600, 612175, 612811, 613361, 613963, 614549, 615197, 615543, 615886, 616181, 616496, 616777, 617098, 617378, 617713, 617981, 618338, 618647, 618971, 619299, 619589, 619928, 620207]","[610795, 611282, 611859, 612463, 613051, 613658, 614227, 614840, 615343, 615656, 615966, 616262, 616587, 616880, 617174, 617473, 617785, 618084, 618444, 618761, 619070, 619399, 619705, 620016, 620309]","[176, 165, 134, 167, 179, 181, 178, 174, 181, 151, 155, 106, 143, 139, 130, 139, 88, 113, 142, 118, 92, 125, 106, 115, 103]","[610674, 611096, 611604, 612178, 612813, 613364, 613965, 614552, 615199, 615546, 615889, 616185, 616499, 616780, 617101, 617381, 617716, 617987, 618342, 618651, 618975, 619302, 619593, 619931, 620211]","[610472, 611072, 611672, 612272, 612872, 613472, 614072, 614672, 615217, 615563, 615906, 616201, 616516, 616797, 617118, 617398, 617733, 618358, 618668, 618991, 619319, 619609, 619949, 620227]",95,OR,L,R,ITMSR,1.1,
1,600,trial,0,25,25,25,trial,"['S', 'S', 'S', 'S', 'S', 'S', 'S', 'S', 'C', 'C', 'C', 'C', 'C', 'C', 'C', 'C', 'C', 'C', 'C', 'C', 'C', 'C', 'C', 'C', 'C']","[626220, 626631, 627166, 627735, 628353, 628857, 629489, 630083, 630725, 631057, 631366, 631641, 631961, 632242, 632562, 632845, 633177, 633443, 633780, 634108, 634391, 634687, 635029, 635304, 635631]","[626313, 626772, 627384, 628016, 628469, 629100, 629712, 630374, 630855, 631164, 631450, 631739, 632044, 632344, 632648, 632949, 633256, 633534, 633879, 634202, 634490, 634785, 635105, 635409, 635714]","[157, 174, 175, 167, 143, 142, 164, 144, 157, 72, 99, 116, 133, 116, 98, 91, 111, 82, 120, 93, 112, 102, 88, 127, 66]","[626222, 626633, 627169, 627738, 628357, 628861, 629492, 630086, 630729, 631062, 631370, 631642, 631964, 632246, 632566, 632849, 633180, 633447, 633784, 634113, 634394, 634690, 635033, 635307, 635635]","[626021, 626621, 627221, 627821, 628421, 629021, 629621, 630221, 630745, 631077, 631386, 631661, 631981, 632262, 632582, 632865, 633197, 633800, 634128, 634412, 634707, 635049, 635324, 635651]",95,OR,L,R,ITMSR,1.1,
3,600,trial,0,26,26,26,trial,"['S', 'S', 'S', 'S', 'S', 'S', 'S', 'S', 'C', 'C', 'C', 'C', 'C', 'C', 'C', 'C', 'C', 'C', 'C', 'C', 'C', 'C', 'C', 'C', 'C', 'C', 'C', 'C', 'C', 'C', 'C', 'C', 'C', 'C', 'C']","[641401, 641780, 642289, 642825, 643374, 643977, 644529, 645131, 645773, 646084, 646380, 646641, 646950, 647232, 647508, 647834, 648090, 648425, 648690, 649005, 649273, 649565, 649818, 650143, 650400, 650689, 650953, 651274, 651541, 651848, 652082, 652413, 652665, 652966, 653230]","[641542, 641922, 642463, 643042, 643653, 644115, 644756, 645357, 645888, 646157, 646464, 646721, 647054, 647336, 647611, 647924, 648181, 648537, 648797, 649107, 649346, 649665, 649912, 650242, 650489, 650784, 651044, 651357, 651632, 651911, 652169, 652480, 652748, 653057]","[116, 183, 146, 149, 161, 123, 143, 153, 152, 81, 112, 66, 129, 89, 98, 109, 31, 135, 49, 61, 113, 100, 125, 105, 94, 120, 94, 120, 104, 102, 73, 85, 92, 93]","[641405, 641782, 642291, 642829, 643377, 643981, 644532, 645134, 645776, 646088, 646384, 646644, 646955, 647235, 647513, 647838, 648094, 648428, 648747, 649010, 649275, 649569, 649821, 650147, 650404, 650693, 650956, 651278, 651544, 651852, 652086, 652418, 652670, 652969]","[641077, 641677, 642277, 642877, 643477, 644077, 644677, 645277, 645793, 646104, 646401, 646970, 647252, 647528, 647854, 648445, 649025, 649585, 650163, 650710, 651294, 651868, 652433, 652986]",95,OR,L,R,ITMSR,1.1,
2,400,trial,0,27,27,27,trial,"['S', 'S', 'S', 'S', 'S', 'S', 'S', 'C', 'C', 'C', 'C', 'C', 'C', 'C', 'C', 'C', 'C', 'C', 'C', 'C', 'C', 'C', 'C', 'C', 'C']","[658818, 659179, 659516, 659903, 660283, 660678, 661085, 661496, 661839, 662141, 662433, 662716, 662980, 663239, 663535, 663832, 664152, 664646, 664920, 665219, 665619, 665802, 666107, 666439, 666740]","[658938, 659261, 659618, 659990, 660354, 660769, 661171, 661580, 661913, 662192, 662501, 662784, 663031, 663329, 663628, 663924, 664282, 664736, 664999, 665379, 665664, 665862, 666240, 666542, 666854]","[124, 138, 162, 187, 140, 172, 187, 190, 162, 174, 125, 123, 109, 130, 126, 109, 148, 146, 112, 167, 186, 94, 137, 124, 103]","[658821, 659183, 659520, 659906, 660286, 660681, 661087, 661498, 661841, 662144, 662436, 662719, 662983, 663242, 663538, 663836, 664155, 664649, 664922, 665222, 665626, 665806, 666112, 666442, 666744]","[658362, 658762, 659162, 659562, 659962, 660362, 660762, 661163, 661516, 661859, 662161, 662453, 662736, 663259, 663555, 663853, 664172, 664666, 664940, 665239, 665639, 666127, 666459, 666760]",95,OR,L,R,ITMSR,1.1,
2,600,trial,0,28,28,28,trial,"['S', 'S', 'S', 'S', 'S', 'S', 'S', 'S', 'C', 'C', 'C', 'C', 'C', 'C', 'C', 'C', 'C', 'C', 'C', 'C', 'C', 'C', 'C', 'C']","[672417, 672736, 673294, 673820, 674428, 674978, 675508, 676134, 676718, 677130, 677462, 677820, 678141, 678489, 678848, 679184, 679530, 679892, 680238, 680576, 680897, 681249, 681584, 681946]","[672533, 672953, 673458, 673979, 674544, 675077, 675630, 676222, 676803, 677218, 677564, 677904, 678243, 678568, 678940, 679273, 679614, 679969, 680329, 680650, 680993, 681347, 681682, 682028]","[100, 150, 169, 167, 157, 160, 166, 160, 152, 153, 129, 121, 122, 110, 97, 97, 105, 38, 52, 55, 92, 87, 70, 70]","[672421, 672739, 673297, 673822, 674433, 674982, 675511, 676139, 676721, 677133, 677466, 677824, 678146, 678494, 678852, 679188, 679534, 679897, 680242, 680581, 680901, 681253, 681589, 681950]","[672120, 672720, 673320, 673921, 674520, 675120, 675720, 676320, 676738, 677150, 677482, 677840, 678161, 678509, 678868, 679204, 679550, 679912, 680258, 680596, 680918, 681269, 681604, 681966]",95,OR,L,R,ITMSR,1.1,
2,400,trial,0,29,29,29,trial,"['S', 'S', 'S', 'S', 'S', 'S', 'S', 'S', 'C', 'C', 'C', 'C', 'C', 'C', 'C', 'C', 'C', 'C', 'C', 'C', 'C', 'C', 'C', 'C']","[687666, 688074, 688467, 688869, 689280, 689683, 690093, 690491, 690910, 691311, 691654, 692000, 692354, 692684, 693021, 693341, 693701, 694012, 694299, 694665, 694980, 695266, 695614, 695904]","[687805, 688173, 688572, 688968, 689382, 689781, 690180, 690596, 691054, 691425, 691758, 692078, 692438, 692756, 693104, 693433, 693776, 694106, 694384, 694740, 695074, 695365, 695687, 695997]","[145, 131, 149, 142, 136, 135, 125, 114, 137, 142, 126, 86, 102, 50, 99, 79, 71, 78, 63, 108, 104, 77, 88, 71]","[687670, 688078, 688472, 688873, 689284, 689687, 690098, 690494, 690915, 691315, 691658, 692004, 692357, 692688, 693025, 693345, 693705, 694017, 694303, 694669, 694984, 695270, 695618, 695908]","[687444, 687844, 688244, 688644, 689044, 689444, 689844, 690244, 690930, 691331, 691674, 692020, 692374, 692704, 693041, 693361, 693721, 694032, 694319, 694685, 695000, 695286, 695634, 695924]",95,OR,L,R,ITMSR,1.1,
2,600,trial,0,30,30,30,trial,"['S', 'S', 'S', 'S', 'S', 'S', 'S', 'S', 'S', 'C', 'C', 'C', 'C', 'C', 'C', 'C', 'C', 'C', 'C', 'C', 'C', 'C', 'C', 'C', 'C', 'C']","[721466, 721856, 722345, 722893, 723467, 724075, 724176, 724635, 725232, 725814, 726193, 726483, 726795, 727069, 727366, 727655, 727909, 728262, 728616, 728981, 729308, 729668, 729975, 730341, 730674, 731057]","[721597, 721984, 722470, 723007, 723609, 724096, 724196, 724764, 725252, 725899, 726272, 726564, 726862, 727138, 727418, 727708, 727982, 728347, 728697, 729085, 729404, 729753, 730070, 730405, 730763, 731124]","[158, 157, 174, 148, 158, 143, 61, 155, 142, 137, 135, 137, 132, 117, 116, 108, 96, 106, 106, 123, 131, 129, 102, 85, 115, 82]","[721470, 721860, 722350, 722897, 723471, 724079, 724176, 724638, 725237, 725818, 726197, 726488, 726800, 727073, 727371, 727660, 727914, 728267, 728622, 728985, 729313, 729673, 729980, 730346, 730679, 731063]","[721286, 721886, 722486, 723086, 723686, 724286, 724886, 725486, 725834, 726213, 726503, 726815, 727089, 727386, 727675, 728282, 728636, 729001, 729328, 729688, 729995, 730361, 730694, 731077]",95,OR,L,R,ITMSR,1.1,
1,400,trial,0,31,31,31,trial,"['S', 'S', 'S', 'S', 'S', 'S', 'S', 'C', 'C', 'C', 'C', 'C', 'C', 'C', 'C', 'C', 'C', 'C', 'C', 'C', 'C', 'C', 'C', 'C']","[736961, 737376, 737806, 738200, 738638, 739020, 739432, 739820, 740188, 740485, 740786, 741050, 741366, 741810, 742252, 742694, 743124, 743550, 743959, 744348, 744754, 745153, 745555, 745963]","[737073, 737467, 737882, 738286, 738695, 739126, 739535, 739918, 740281, 740603, 740860, 741114, 741491, 741925, 742356, 742804, 743249, 743666, 744054, 744451, 744857, 745256, 745671, 746057]","[144, 115, 139, 145, 129, 151, 135, 121, 121, 112, 116, 116, 126, 145, 134, 136, 142, 135, 115, 119, 133, 133, 128, 124]","[736965, 737381, 737810, 738205, 738642, 739024, 739436, 739825, 740192, 740490, 740791, 741054, 741371, 741814, 742256, 742699, 743130, 743555, 743963, 744352, 744758, 745157, 745560, 745968]","[736732, 737132, 737532, 737932, 738332, 738733, 739133, 739533, 739841, 740208, 740505, 740806, 741386, 741830, 742273, 742714, 743144, 743570, 743980, 744368, 744774, 745174, 745575, 745984]",95,OR,L,R,ITMSR,1.1,
5,600,trial,0,32,32,32,trial,"['S', 'S', 'S', 'S', 'S', 'S', 'S', 'S', 'C', 'C', 'C', 'C', 'C', 'C', 'C', 'C', 'C', 'C', 'C', 'C', 'C', 'C', 'C', 'C', 'C']","[751603, 751941, 752515, 753083, 753648, 754232, 754811, 755352, 755954, 756314, 756595, 756913, 757207, 757536, 757837, 758137, 758470, 758760, 759050, 759396, 759651, 760538, 760900, 761221, 761538]","[751721, 752102, 752650, 753176, 753768, 754315, 754906, 755416, 756080, 756400, 756697, 756993, 757322, 757621, 757920, 758255, 758555, 758857, 759144, 759495, 759776, 760662, 760993, 761335, 761654]","[164, 149, 164, 148, 150, 144, 160, 122, 142, 133, 129, 120, 140, 91, 132, 90, 99, 104, 125, 90, 111, 140, 128, 142, 147]","[751607, 751946, 752519, 753086, 753651, 754235, 754816, 755355, 755958, 756318, 756600, 756917, 757211, 757540, 757840, 758141, 758474, 758764, 759054, 759400, 759655, 760542, 760904, 761225, 761542]","[751390, 751990, 752590, 753190, 753790, 754391, 754990, 755590, 755974, 756334, 756615, 756933, 757227, 757556, 757857, 758157, 758490, 758780, 759070, 759416, 760558, 760920, 761241, 761559]",95,OR,L,R,ITMSR,1.1,
3,400,trial,0,33,33,33,trial,"['S', 'S', 'S', 'S', 'S', 'S', 'S', 'C', 'C', 'C', 'C', 'C', 'C', 'C', 'C', 'C', 'C', 'C', 'C', 'C', 'C', 'C', 'C', 'C', 'C']","[767284, 767633, 768124, 768542, 768934, 769324, 769733, 770124, 770423, 770643, 770898, 771249, 771609, 771893, 772184, 772417, 772845, 773300, 773713, 774045, 774457, 774808, 775130, 775471, 775815]","[767423, 767768, 768231, 768628, 769020, 769410, 769811, 770219, 770511, 770724, 771027, 771378, 771728, 771992, 772252, 772497, 772982, 773428, 773818, 774187, 774578, 774919, 775263, 775586, 775938]","[96, 123, 139, 113, 119, 102, 116, 134, 106, 253, 79, 87, 114, 78, 107, 95, 110, 132, 116, 102, 126, 105, 109, 121, 94]","[767288, 767637, 768125, 768546, 768939, 769328, 769738, 770125, 770428, 770649, 770904, 771254, 771614, 771898, 772188, 772421, 772850, 773304, 773718, 774050, 774461, 774813, 775134, 775475, 775820]","[767069, 767469, 767869, 768269, 768669, 769069, 769469, 769869, 770144, 770443, 770918, 771269, 771629, 771913, 772204, 772866, 773320, 773733, 774065, 774477, 774829, 775150, 775491, 775835]",95,OR,L,R,ITMSR,1.1,
1,600,trial,0,34,34,34,trial,"['S', 'S', 'S', 'S', 'S', 'S', 'S', 'S', 'C', 'C', 'C', 'C', 'C', 'C', 'C', 'C', 'C', 'C', 'C', 'C', 'C', 'C', 'C', 'C']","[781214, 781682, 782224, 782807, 783427, 784009, 784631, 785258, 785830, 786345, 786844, 787379, 787898, 788388, 788879, 789349, 789851, 790325, 790807, 791287, 791769, 792208, 792655, 793086]","[781344, 781794, 782349, 782927, 783556, 784174, 784807, 785420, 785992, 786467, 787004, 787525, 788014, 788516, 789003, 789467, 789958, 790430, 790913, 791394, 791857, 792313, 792727, 793191]","[136, 150, 146, 154, 160, 146, 155, 155, 150, 153, 151, 137, 148, 150, 152, 156, 153, 163, 160, 162, 150, 154, 136, 150]","[781218, 781685, 782228, 782810, 783430, 784013, 784635, 785262, 785835, 786350, 786848, 787383, 787901, 788391, 788882, 789353, 789854, 790329, 790811, 791290, 791773, 792211, 792658, 793091]","[781200, 781799, 782399, 782999, 783599, 784199, 784799, 785399, 785850, 786365, 786864, 787399, 787918, 788408, 788899, 789369, 789871, 790345, 790828, 791307, 791789, 792228, 792675, 793106]",95,OR,L,R,ITMSR,1.1,
4,600,trial,0,35,35,35,trial,"['S', 'S', 'S', 'S', 'S', 'S', 'S', 'C', 'C', 'C', 'C', 'C', 'C', 'C', 'C', 'C', 'C', 'C', 'C', 'C', 'C', 'C', 'C']","[799353, 799793, 800372, 801041, 801606, 802195, 802751, 803354, 803775, 804096, 804417, 804740, 805043, 805341, 805651, 806014, 806339, 806676, 807015, 807335, 807684, 808058, 808394]","[799439, 799910, 800508, 801145, 801727, 802308, 802888, 803468, 803859, 804198, 804487, 804791, 805091, 805427, 805742, 806066, 806426, 806732, 807094, 807419, 807753, 808121, 808484]","[245, 132, 156, 167, 146, 149, 153, 148, 144, 138, 120, 58, 102, 114, 111, 94, 74, 86, 98, 67, 50, 73, 83]","[799363, 799797, 800376, 801045, 801610, 802199, 802755, 803358, 803778, 804100, 804421, 804745, 805047, 805345, 805655, 806019, 806343, 806679, 807018, 807340, 807687, 808062, 808398]","[798803, 799404, 800003, 800603, 801203, 801803, 802403, 803003, 803374, 803795, 804116, 804438, 804760, 805063, 805361, 805671, 806034, 806360, 806696, 807035, 807355, 807704, 808078, 808414]",95,OR,L,R,ITMSR,1.1,
0,400,trial,0,36,36,36,trial,"['S', 'S', 'S', 'S', 'S', 'S', 'S', 'C', 'C', 'C', 'C', 'C', 'C', 'C', 'C', 'C', 'C', 'C', 'C', 'C', 'C', 'C', 'C', 'C']","[814127, 814627, 815029, 815486, 815881, 816316, 816681, 817100, 817422, 817700, 817952, 818300, 818808, 819264, 819699, 820169, 820616, 821042, 821458, 821838, 822249, 822611, 823003, 823364]","[814234, 814696, 815114, 815563, 815979, 816394, 816773, 817176, 817504, 817771, 818028, 818423, 818905, 819371, 819807, 820259, 820710, 821127, 821555, 821922, 822328, 822711, 823086, 823454]","[140, 150, 142, 143, 149, 124, 135, 145, 140, 121, 105, 105, 128, 136, 128, 83, 83, 115, 117, 116, 107, 124, 112, 117]","[814129, 814631, 815033, 815491, 815885, 816319, 816686, 817104, 817426, 817704, 817955, 818305, 818811, 819268, 819702, 820173, 820619, 821046, 821463, 821842, 822253, 822616, 823007, 823368]","[814015, 814415, 814815, 815215, 815616, 816015, 816415, 816815, 817120, 817442, 817720, 818320, 818828, 819284, 819719, 820189, 820636, 821062, 821478, 821858, 822269, 822631, 823023, 823384]",95,OR,L,R,ITMSR,1.1,
4,400,trial,0,37,37,37,trial,"['S', 'S', 'S', 'S', 'S', 'S', 'S', 'C', 'C', 'C', 'C', 'C', 'C', 'C', 'C', 'C', 'C', 'C', 'C', 'C', 'C', 'C', 'C', 'C']","[829330, 829676, 830136, 830617, 831019, 831394, 831772, 832187, 832533, 832814, 833116, 833433, 833712, 834014, 834311, 834578, 834994, 835468, 835922, 836359, 836771, 837175, 837530, 837914]","[829417, 829771, 830235, 830642, 831041, 831418, 831831, 832243, 832601, 832893, 833207, 833515, 833814, 834105, 834402, 834664, 835102, 835585, 836014, 836443, 836871, 837238, 837632, 838001]","[163, 127, 118, 82, 48, 60, 81, 68, 97, 90, 84, 75, 93, 78, 92, 56, 250, 107, 74, 94, 116, 97, 107, 43]","[829333, 829680, 830139, 830620, 831022, 831398, 831776, 832191, 832537, 832818, 833120, 833437, 833715, 834018, 834315, 834581, 834999, 835472, 835926, 836362, 836774, 837178, 837533, 837918]","[829099, 829498, 829898, 830298, 830698, 831098, 831498, 831898, 832207, 832553, 832834, 833136, 833453, 833732, 834034, 834331, 835014, 835488, 835942, 836379, 836791, 837195, 837550, 837934]",95,OR,L,R,ITMSR,1.1,
5,600,trial,0,38,38,38,trial,"['S', 'S', 'S', 'S', 'S', 'S', 'S', 'S', 'C', 'C', 'C', 'C', 'C', 'C', 'C', 'C', 'C', 'C', 'C', 'C', 'C', 'C', 'C', 'C', 'C', 'C']","[843688, 844190, 844931, 845592, 846196, 846300, 846807, 847395, 847980, 848447, 848828, 849173, 849481, 849825, 850106, 850415, 850712, 851019, 851310, 851593, 851874, 852135, 852434, 852787, 853054, 853332]","[843780, 844307, 845029, 845707, 846220, 846320, 846830, 847478, 848100, 848521, 848908, 849246, 849550, 849890, 850185, 850486, 850799, 851100, 851388, 851663, 851950, 852215, 852527, 852866, 853155, 853440]","[69, 113, 138, 152, 118, 145, 140, 165, 142, 128, 135, 100, 108, 99, 97, 95, 99, 90, 94, 91, 91, 86, 71, 44, 86, 74]","[843693, 844193, 844934, 845594, 846199, 846300, 846810, 847397, 847982, 848450, 848832, 849176, 849484, 849829, 850110, 850418, 850716, 851023, 851315, 851596, 851877, 852140, 852439, 852791, 853057, 853337]","[843378, 843978, 844578, 845178, 845778, 846379, 846978, 847578, 848001, 848467, 848848, 849193, 849501, 849845, 850126, 850435, 850733, 851039, 851330, 851613, 851894, 852454, 852807, 853352]",95,OR,L,R,ITMSR,1.1,
2,400,trial,0,39,39,39,trial,"['S', 'S', 'S', 'S', 'S', 'S', 'S', 'C', 'C', 'C', 'C', 'C', 'C', 'C', 'C', 'C', 'C', 'C', 'C', 'C', 'C', 'C', 'C', 'C', 'C', 'C', 'C']","[859271, 859598, 860050, 860457, 860889, 861307, 861676, 862078, 862362, 862616, 863028, 863408, 863715, 864026, 864315, 864590, 864857, 865140, 865424, 865666, 865897, 866155, 866521, 866966, 867368, 867733, 868164]","[859414, 859752, 860183, 860576, 860999, 861407, 861785, 862192, 862457, 862703, 863136, 863508, 863819, 864122, 864401, 864675, 864946, 865252, 865522, 865758, 866032, 866359, 866787, 867263, 867647, 868047]","[45, 33, 93, 122, 149, 118, 127, 108, 120, 99, 106, 124, 73, 38, 16, 40, 201, 2, 63, 199, 91, 173, 202, 222, 218, 229]","[859273, 859600, 860052, 860462, 860892, 861312, 861680, 862083, 862366, 862619, 863032, 863412, 863720, 864031, 864320, 864595, 864864, 865145, 865429, 865710, 865966, 866271, 866654, 867118, 867513, 867877]","[859017, 859417, 859817, 860217, 860617, 861017, 861417, 861817, 862098, 862382, 863048, 863428, 863735, 864046, 864335, 864610, 865160, 865444, 865917, 866541, 866987, 867388, 867753, 868184]",95,OR,L,R,ITMSR,1.1,
5,400,trial,0,40,40,40,trial,"['S', 'S', 'S', 'S', 'S', 'S', 'S', 'C', 'C', 'C', 'C', 'C', 'C', 'C', 'C', 'C', 'C', 'C', 'C', 'C', 'C', 'C', 'C', 'C', 'C']","[874089, 874523, 874908, 875357, 875743, 876141, 876547, 876965, 877355, 877713, 878077, 878401, 878748, 879070, 879406, 879705, 879988, 880302, 880567, 880849, 881186, 881511, 881765, 882126, 882519]","[874351, 874808, 875226, 875631, 876019, 876439, 876843, 877260, 877612, 877990, 878318, 878658, 878985, 879326, 879625, 879904, 880208, 880487, 880715, 881033, 881355, 881613, 881884, 882353, 882714]","[216, 211, 215, 217, 211, 216, 212, 207, 205, 206, 201, 202, 193, 199, 174, 180, 186, 173, 157, 134, 128, 70, 57, 113, 139]","[874199, 874631, 875026, 875466, 875859, 876269, 876687, 877115, 877484, 877835, 878193, 878516, 878851, 879162, 879505, 879797, 880092, 880376, 880634, 880918, 881253, 881556, 881809, 882247, 882600]","[873903, 874302, 874702, 875102, 875502, 875902, 876302, 876702, 876985, 877375, 877733, 878097, 878422, 878768, 879090, 879426, 879725, 880008, 880322, 880869, 881206, 881531, 882146, 882539]",95,OR,L,R,ITMSR,1.1,
0,600,trial,0,41,41,41,trial,"['S', 'S', 'S', 'S', 'S', 'S', 'S', 'S', 'C', 'C', 'C', 'C', 'C', 'C', 'C', 'C', 'C', 'C', 'C', 'C', 'C', 'C', 'C', 'C']","[888160, 888530, 889095, 889696, 890285, 890872, 891470, 892065, 892684, 893099, 893507, 893884, 894285, 894684, 895100, 895491, 895890, 896262, 896641, 897055, 897435, 897821, 898171, 898541]","[888280, 888727, 889279, 889879, 890466, 891051, 891615, 892193, 892841, 893253, 893650, 894017, 894410, 894821, 895234, 895626, 896005, 896377, 896771, 897166, 897550, 897920, 898289, 898632]","[180, 182, 200, 206, 203, 196, 196, 178, 181, 168, 188, 150, 187, 172, 147, 184, 173, 176, 179, 121, 140, 168, 153, 174]","[888162, 888532, 889097, 889698, 890287, 890874, 891472, 892066, 892686, 893102, 893509, 893886, 894286, 894686, 895101, 895493, 895892, 896264, 896643, 897058, 897436, 897823, 898173, 898543]","[887966, 888566, 889166, 889766, 890366, 890967, 891566, 892166, 892704, 893119, 893528, 893904, 894305, 894704, 895120, 895511, 895910, 896282, 896661, 897075, 897455, 897841, 898191, 898562]",95,OR,L,R,ITMSR,1.1,
4,400,trial,0,42,42,42,trial,"['S', 'S', 'S', 'S', 'S', 'S', 'S', 'S', 'C', 'C', 'C', 'C', 'C', 'C', 'C', 'C', 'C', 'C', 'C', 'C', 'C', 'C', 'C', 'C']","[904102, 904433, 904760, 905098, 905485, 905865, 906266, 906682, 907057, 907431, 907797, 908167, 908507, 908875, 909205, 909587, 909939, 910306, 910681, 911046, 911379, 911752, 912095, 912414]","[904233, 904562, 904884, 905250, 905625, 906016, 906434, 906805, 907205, 907581, 907925, 908293, 908648, 908996, 909327, 909713, 910075, 910406, 910796, 911168, 911512, 911867, 912217, 912551]","[143, 181, 111, 167, 166, 175, 173, 162, 162, 129, 138, 157, 123, 115, 93, 153, 121, 96, 121, 122, 22, 107, 78, 81]","[904105, 904435, 904763, 905100, 905487, 905867, 906268, 906684, 907059, 907433, 907799, 908169, 908509, 908877, 909207, 909589, 909941, 910308, 910684, 911048, 911451, 911754, 912151, 912482]","[903916, 904316, 904716, 905116, 905517, 905917, 906317, 906717, 907077, 907451, 907817, 908187, 908527, 908895, 909225, 909607, 909959, 910326, 910701, 911066, 911399, 911772, 912115, 912434]",95,OR,L,R,ITMSR,1.1,
3,400,trial,0,43,43,43,trial,"['S', 'S', 'S', 'S', 'S', 'S', 'S', 'C', 'C', 'C', 'C', 'C', 'C', 'C', 'C', 'C', 'C', 'C', 'C', 'C', 'C', 'C', 'C']","[918212, 918641, 919024, 919451, 919858, 920279, 920639, 921079, 921430, 921810, 922173, 922507, 922889, 923213, 923580, 923940, 924266, 924658, 925053, 925419, 925786, 926182, 926577]","[918346, 918751, 919134, 919554, 919963, 920395, 920766, 921197, 921549, 921937, 922291, 922631, 922989, 923317, 923691, 924026, 924365, 924752, 925145, 925543, 925900, 926277, 926681]","[139, 131, 151, 144, 131, 126, 121, 152, 118, 101, 90, 51, 119, 37, 124, 2, 68, 10, 41, 45, 31, 11, 60]","[918274, 918643, 919026, 919453, 919860, 920281, 920641, 921081, 921432, 921814, 922175, 922569, 922891, 923215, 923582, 923944, 924268, 924661, 925057, 925476, 925838, 926185, 926579]","[917954, 918354, 918754, 919154, 919554, 919954, 920354, 920754, 921099, 921450, 921830, 922193, 922527, 922909, 923233, 923600, 923960, 924286, 924678, 925073, 925440, 925806, 926202, 926597]",95,OR,L,R,ITMSR,1.1,
3,600,trial,0,44,44,44,trial,"['S', 'S', 'S', 'S', 'S', 'S', 'S', 'S', 'C', 'C', 'C', 'C', 'C', 'C', 'C', 'C', 'C', 'C', 'C', 'C', 'C', 'C', 'C', 'C']","[932389, 932750, 933326, 933927, 934503, 935095, 935654, 936274, 936870, 937322, 937765, 938174, 938596, 938945, 939322, 939694, 940089, 940413, 940782, 941133, 941426, 941817, 942184, 942572]","[932486, 932885, 933463, 934051, 934646, 935220, 935786, 936400, 936979, 937434, 937878, 938291, 938689, 939056, 939429, 939805, 940186, 940548, 940887, 941238, 941558, 941931, 942311, 942702]","[117, 145, 164, 169, 163, 180, 186, 185, 189, 193, 192, 174, 167, 171, 160, 135, 144, 123, 127, 47, 64, 97, 81, 91]","[932392, 932753, 933329, 933931, 934505, 935097, 935656, 936276, 936872, 937324, 937767, 938176, 938598, 938947, 939324, 939697, 940091, 940417, 940784, 941135, 941429, 941819, 942187, 942575]","[932185, 932784, 933384, 933984, 934584, 935184, 935784, 936384, 936890, 937342, 937785, 938194, 938616, 938966, 939342, 939714, 940109, 940433, 940802, 941153, 941446, 941837, 942204, 942593]",95,OR,L,R,ITMSR,1.1,
4,600,trial,0,45,45,45,trial,"['S', 'S', 'S', 'S', 'S', 'S', 'S', 'S', 'C', 'C', 'C', 'C', 'C', 'C', 'C', 'C', 'C', 'C', 'C', 'C', 'C', 'C', 'C', 'C']","[948593, 948899, 949371, 949939, 950540, 951139, 951730, 952329, 952935, 953485, 954028, 954585, 955096, 955644, 956163, 956728, 957220, 957709, 958198, 958664, 959129, 959601, 960088, 960556]","[948711, 949019, 949570, 950203, 950801, 951407, 952004, 952580, 953159, 953706, 954259, 954793, 955316, 955830, 956427, 956912, 957438, 957875, 958371, 958862, 959297, 959781, 960233, 960728]","[64, 156, 171, 182, 171, 171, 171, 183, 179, 181, 175, 174, 181, 178, 173, 161, 161, 156, 170, 164, 133, 132, 135, 118]","[948660, 948902, 949374, 949941, 950542, 951141, 951732, 952331, 952937, 953487, 954031, 954587, 955098, 955646, 956165, 956730, 957222, 957711, 958200, 958667, 959131, 959603, 960091, 960559]","[948198, 948797, 949397, 949997, 950597, 951197, 951797, 952397, 952955, 953505, 954048, 954605, 955116, 955664, 956183, 956748, 957240, 957729, 958218, 958684, 959149, 959621, 960108, 960576]",95,OR,L,R,ITMSR,1.1,
1,400,trial,0,46,46,46,trial,"['S', 'S', 'S', 'S', 'S', 'S', 'S', 'C', 'C', 'C', 'C', 'C', 'C', 'C', 'C', 'C', 'C', 'C', 'C', 'C', 'C', 'C', 'C']","[966253, 966617, 967075, 967512, 967943, 968348, 968770, 969175, 969548, 969917, 970274, 970636, 971031, 971372, 971731, 972093, 972472, 972848, 973219, 973571, 973934, 974305, 974701]","[966369, 966719, 967180, 967624, 968061, 968458, 968880, 969271, 969648, 970019, 970388, 970752, 971133, 971484, 971833, 972191, 972576, 972959, 973324, 973667, 974039, 974418, 974803]","[162, 160, 134, 168, 166, 165, 168, 148, 138, 152, 117, 153, 124, 153, 143, 99, 142, 130, 127, 125, 109, 146, 139]","[966255, 966620, 967077, 967514, 967945, 968350, 968772, 969178, 969550, 969919, 970277, 970639, 971034, 971375, 971734, 972097, 972474, 972850, 973222, 973574, 973937, 974307, 974703]","[966014, 966414, 966814, 967214, 967614, 968014, 968414, 968814, 969195, 969568, 969937, 970294, 970656, 971052, 971393, 971751, 972113, 972492, 972868, 973239, 973591, 973954, 974325, 974722]",95,OR,L,R,ITMSR,1.1,
3,600,trial,0,47,47,47,trial,"['S', 'S', 'S', 'S', 'S', 'S', 'S', 'S', 'C', 'C', 'C', 'C', 'C', 'C', 'C', 'C', 'C', 'C', 'C', 'C', 'C', 'C', 'C', 'C']","[980756, 981122, 981558, 982119, 982733, 983308, 983853, 984475, 985117, 985593, 986053, 986524, 986994, 987460, 987878, 988317, 988758, 989172, 989562, 989970, 990352, 990759, 991141, 991518]","[980853, 981209, 981758, 982322, 982830, 983448, 984002, 984592, 985273, 985747, 986183, 986660, 987133, 987563, 988004, 988437, 988877, 989262, 989687, 990088, 990467, 990897, 991271, 991649]","[232, 110, 175, 162, 162, 150, 123, 177, 163, 168, 166, 165, 161, 151, 155, 150, 152, 128, 122, 111, 121, 144, 119, 141]","[980760, 981125, 981560, 982121, 982735, 983311, 983855, 984477, 985119, 985595, 986056, 986526, 986997, 987463, 987880, 988320, 988761, 989174, 989565, 989973, 990354, 990761, 991144, 991521]","[980411, 981011, 981611, 982211, 982811, 983411, 984011, 984611, 985137, 985613, 986073, 986544, 987014, 987480, 987898, 988337, 988778, 989192, 989582, 989990, 990372, 990779, 991161, 991538]",95,OR,L,R,ITMSR,1.1,
1,600,trial,0,48,48,48,trial,"['S', 'S', 'S', 'S', 'S', 'S', 'S', 'S', 'C', 'C', 'C', 'C', 'C', 'C', 'C', 'C', 'C', 'C', 'C', 'C', 'C', 'C', 'C', 'C']","[997207, 997555, 998088, 998671, 999321, 999895, 1000483, 1001072, 1001676, 1002129, 1002509, 1002924, 1003328, 1003702, 1004092, 1004484, 1004886, 1005277, 1005631, 1005999, 1006386, 1006751, 1007127, 1007494]","[997319, 997807, 998396, 999010, 999552, 1000160, 1000737, 1001292, 1001806, 1002253, 1002653, 1003061, 1003415, 1003822, 1004207, 1004592, 1004995, 1005368, 1005731, 1006087, 1006499, 1006857, 1007229, 1007590]","[148, 168, 170, 170, 171, 150, 172, 179, 164, 173, 145, 144, 79, 129, 110, 117, 96, 36, 64, 144, 115, 145, 124, 100]","[997207, 997557, 998090, 998673, 999324, 999898, 1000485, 1001074, 1001678, 1002130, 1002511, 1002927, 1003331, 1003704, 1004095, 1004486, 1004888, 1005280, 1005634, 1006002, 1006389, 1006754, 1007130, 1007497]","[997031, 997632, 998232, 998832, 999432, 1000032, 1000632, 1001232, 1001696, 1002149, 1002529, 1002944, 1003348, 1003722, 1004112, 1004504, 1004906, 1005297, 1005651, 1006019, 1006406, 1006771, 1007148, 1007514]",95,OR,L,R,ITMSR,1.1,
2,600,trial,0,49,49,49,trial,"['S', 'S', 'S', 'S', 'S', 'S', 'S', 'S', 'C', 'C', 'C', 'C', 'C', 'C', 'C', 'C', 'C', 'C', 'C', 'C', 'C', 'C', 'C', 'C']","[1013035, 1013502, 1014060, 1014644, 1015270, 1015830, 1016433, 1017048, 1017596, 1018109, 1018601, 1019087, 1019559, 1020015, 1020480, 1020980, 1021437, 1021890, 1022312, 1022726, 1023165, 1023593, 1024022, 1024437]","[1013172, 1013710, 1014292, 1014920, 1015472, 1016080, 1016681, 1017204, 1017734, 1018254, 1018843, 1019328, 1019747, 1020183, 1020716, 1021180, 1021627, 1022006, 1022460, 1022876, 1023288, 1023754, 1024172, 1024563]","[150, 172, 174, 189, 188, 182, 178, 179, 187, 202, 177, 171, 135, 153, 149, 166, 138, 126, 100, 140, 124, 115, 102, 106]","[1013037, 1013505, 1014062, 1014645, 1015272, 1015832, 1016435, 1017050, 1017597, 1018112, 1018603, 1019089, 1019563, 1020017, 1020482, 1020983, 1021441, 1021893, 1022316, 1022729, 1023168, 1023596, 1024025, 1024440]","[1012858, 1013457, 1014057, 1014658, 1015258, 1015858, 1016458, 1017058, 1017616, 1018129, 1018621, 1019107, 1019579, 1020035, 1020500, 1021000, 1021457, 1021911, 1022332, 1022746, 1023185, 1023613, 1024043, 1024457]",95,OR,L,R,ITMSR,1.1,
0,400,trial,0,50,50,50,trial,"['S', 'S', 'S', 'S', 'S', 'S', 'S', 'C', 'C', 'C', 'C', 'C', 'C', 'C', 'C', 'C', 'C', 'C', 'C', 'C', 'C', 'C', 'C']","[1030127, 1030478, 1030935, 1031360, 1031759, 1032168, 1032539, 1032979, 1033349, 1033701, 1034071, 1034420, 1034778, 1035120, 1035476, 1035819, 1036166, 1036489, 1036805, 1037156, 1037472, 1037786, 1038125]","[1030234, 1030609, 1031037, 1031464, 1031858, 1032270, 1032643, 1033070, 1033435, 1033785, 1034163, 1034502, 1034870, 1035212, 1035574, 1035917, 1036242, 1036585, 1036914, 1037239, 1037563, 1037897, 1038208]","[130, 142, 152, 135, 140, 133, 124, 149, 136, 131, 135, 136, 144, 138, 133, 128, 91, 115, 110, 104, 121, 59, 69]","[1030130, 1030481, 1030937, 1031362, 1031761, 1032171, 1032542, 1032982, 1033352, 1033704, 1034074, 1034423, 1034781, 1035123, 1035479, 1035822, 1036168, 1036492, 1036808, 1037159, 1037475, 1037789, 1038128]","[1029834, 1030234, 1030634, 1031034, 1031434, 1031834, 1032235, 1032634, 1032999, 1033369, 1033721, 1034091, 1034440, 1034798, 1035140, 1035496, 1035839, 1036186, 1036509, 1036825, 1037176, 1037492, 1037806, 1038145]",95,OR,L,R,ITMSR,1.1,
0,600,trial,0,51,51,51,trial,"['S', 'S', 'S', 'S', 'S', 'S', 'S', 'S', 'C', 'C', 'C', 'C', 'C', 'C', 'C', 'C', 'C', 'C', 'C', 'C', 'C', 'C', 'C', 'C']","[1044034, 1044434, 1044946, 1045469, 1046016, 1046593, 1047225, 1047828, 1048392, 1049000, 1049574, 1050141, 1050706, 1051287, 1051831, 1052376, 1052904, 1053454, 1053995, 1054537, 1055034, 1055549, 1056084, 1056610]","[1044125, 1044756, 1045170, 1045722, 1046297, 1046889, 1047480, 1048068, 1048652, 1049232, 1049776, 1050362, 1050951, 1051467, 1052040, 1052562, 1053089, 1053615, 1054161, 1054650, 1055180, 1055765, 1056264, 1056828]","[8, 147, 173, 162, 178, 176, 187, 188, 183, 166, 173, 174, 176, 188, 181, 164, 150, 141, 157, 173, 154, 154, 133, 154]","[1044038, 1044438, 1044951, 1045471, 1046018, 1046595, 1047227, 1047830, 1048394, 1049003, 1049576, 1050143, 1050708, 1051289, 1051833, 1052378, 1052907, 1053457, 1053997, 1054539, 1055037, 1055552, 1056088, 1056612]","[1043678, 1044278, 1044878, 1045478, 1046078, 1046678, 1047278, 1047878, 1048412, 1049020, 1049594, 1050161, 1050726, 1051308, 1051851, 1052396, 1052924, 1053474, 1054015, 1054557, 1055054, 1055569, 1056104, 1056630]",95,OR,L,R,ITMSR,1.1,
5,400,trial,0,52,52,52,trial,"['B', 'S', 'S', 'S', 'S', 'S', 'S', 'S', 'C', 'C', 'C', 'C', 'C', 'C', 'C', 'C', 'C', 'C', 'C', 'C', 'C', 'C', 'C', 'C']","[1062307, 1062803, 1063175, 1063479, 1063839, 1064241, 1064648, 1065058, 1065495, 1065902, 1066293, 1066665, 1067043, 1067381, 1067717, 1068092, 1068492, 1068833, 1069177, 1069561, 1069960, 1070294, 1070682, 1071030]","[1062589, 1062976, 1063273, 1063591, 1063992, 1064361, 1064760, 1065160, 1065586, 1066002, 1066396, 1066767, 1067130, 1067467, 1067799, 1068188, 1068518, 1068923, 1069256, 1069638, 1070024, 1070400, 1070709, 1071140]","[238, 164, 150, 133, 152, 139, 150, 135, 145, 118, 139, 112, 111, 73, 84, 80, 87, 21, 243, 48, 42, 40, 34, 243]","[1062307, 1062805, 1063177, 1063482, 1063842, 1064244, 1064651, 1065060, 1065498, 1065904, 1066295, 1066669, 1067046, 1067384, 1067720, 1068094, 1068495, 1068836, 1069181, 1069563, 1069963, 1070297, 1070685, 1071034]","[1062321, 1062721, 1063121, 1063521, 1063921, 1064322, 1064722, 1065122, 1065516, 1065922, 1066313, 1066685, 1067063, 1067401, 1067737, 1068112, 1068512, 1068853, 1069197, 1069581, 1069980, 1070314, 1070702, 1071050]",95,OR,L,R,ITMSR,1.1,
2,400,trial,0,53,53,53,trial,"['S', 'S', 'S', 'S', 'S', 'S', 'S', 'S', 'C', 'C', 'C', 'C', 'C', 'C', 'C', 'C', 'C', 'C', 'C', 'C', 'C', 'C', 'C', 'C']","[1076604, 1076997, 1077334, 1077706, 1078077, 1078439, 1078864, 1079266, 1079652, 1080038, 1080418, 1080796, 1081163, 1081532, 1081916, 1082285, 1082715, 1083085, 1083462, 1083847, 1084223, 1084582, 1084946, 1085337]","[1076724, 1077101, 1077432, 1077811, 1078154, 1078523, 1078970, 1079339, 1079739, 1080127, 1080503, 1080863, 1081244, 1081607, 1081937, 1082310, 1082785, 1083189, 1083547, 1083933, 1084291, 1084658, 1085027, 1085398]","[70, 145, 97, 125, 96, 140, 136, 80, 133, 129, 96, 98, 79, 69, 3, 98, 130, 73, 58, 72, 61, 77, 93, 93]","[1076609, 1076999, 1077337, 1077708, 1078080, 1078441, 1078867, 1079269, 1079655, 1080041, 1080421, 1080798, 1081166, 1081535, 1081919, 1082288, 1082717, 1083088, 1083465, 1083850, 1084226, 1084585, 1084949, 1085340]","[1076526, 1076926, 1077326, 1077726, 1078126, 1078526, 1078926, 1079326, 1079672, 1080058, 1080438, 1080816, 1081183, 1081552, 1081936, 1082305, 1082735, 1083105, 1083482, 1083867, 1084243, 1084602, 1084966, 1085357]",95,OR,L,R,ITMSR,1.1,
0,600,trial,0,54,54,54,trial,"['S', 'S', 'S', 'S', 'S', 'S', 'S', 'S', 'S', 'S', 'S', 'S', 'S', 'C', 'C', 'C', 'C', 'C', 'C', 'C', 'C', 'C', 'C', 'C', 'C', 'C', 'C', 'C', 'C', 'C', 'C', 'C', 'C', 'C', 'C', 'C', 'C', 'C', 'C', 'C', 'C', 'C']","[1102732, 1103130, 1103643, 1104273, 1104380, 1104894, 1105002, 1105530, 1105637, 1106110, 1106216, 1106705, 1106812, 1107310, 1107419, 1107879, 1107986, 1108470, 1108583, 1109046, 1109602, 1109709, 1110182, 1110288, 1110738, 1111333, 1111439, 1111887, 1111994, 1112446, 1112551, 1112995, 1113100, 1113544, 1113648, 1114084, 1114186, 1114635, 1114744, 1115176, 1115280, 1115688]","[1102831, 1103316, 1103903, 1104300, 1104547, 1104921, 1105147, 1105556, 1105734, 1106136, 1106335, 1106732, 1106946, 1107339, 1107522, 1107906, 1108100, 1108502, 1108688, 1109287, 1109629, 1109843, 1110208, 1110408, 1111001, 1111359, 1111547, 1111914, 1112090, 1112471, 1112578, 1113020, 1113132, 1113568, 1113670, 1114105, 1114280, 1114664, 1114787, 1115200, 1115360, 1115922]","[216, 199, 160, 182, 177, 182, 233, 197, 65, 195, 129, 189, 249, 194, 3, 197, 171, 185, 200, 190, 172, 171, 183, 177, 185, 181, 17, 189, 211, 191, 25, 191, 136, 177, 10, 193, 132, 160, 199, 179, 139, 166]","[1102733, 1103131, 1103645, 1104275, 1104434, 1104897, 1105011, 1105532, 1105637, 1106112, 1106228, 1106707, 1106821, 1107312, 1107447, 1107881, 1108009, 1108472, 1108603, 1109048, 1109604, 1109723, 1110184, 1110289, 1110740, 1111335, 1111478, 1111889, 1112022, 1112449, 1112551, 1112996, 1113100, 1113546, 1113648, 1114086, 1114214, 1114637, 1114745, 1115179, 1115301, 1115691]","[1102544, 1103144, 1103745, 1104344, 1104944, 1105544, 1106144, 1106744, 1107330, 1107899, 1108490, 1109066, 1109622, 1110202, 1110758, 1111353, 1111907, 1112466, 1113015, 1113564, 1114104, 1114655, 1115196, 1115708]",95,OR,L,R,ITMSR,1.1,
5,400,trial,0,55,55,55,trial,"['S', 'S', 'S', 'S', 'S', 'S', 'S', 'C', 'C', 'C', 'C', 'C', 'C', 'C', 'C', 'C', 'C', 'C', 'C', 'C', 'C', 'C', 'C']","[1121608, 1121994, 1122446, 1122857, 1123271, 1123720, 1124118, 1124545, 1124928, 1125310, 1125705, 1126080, 1126448, 1126819, 1127212, 1127605, 1127986, 1128394, 1128757, 1129147, 1129553, 1129916, 1130357]","[1121719, 1122098, 1122528, 1122949, 1123374, 1123830, 1124217, 1124633, 1125020, 1125384, 1125797, 1126164, 1126520, 1126892, 1127280, 1127682, 1128083, 1128476, 1128864, 1129232, 1129578, 1130032, 1130382]","[207, 171, 182, 158, 178, 188, 151, 176, 167, 151, 179, 157, 159, 127, 174, 186, 194, 170, 179, 162, 150, 178, 173]","[1121610, 1121996, 1122448, 1122860, 1123273, 1123721, 1124121, 1124547, 1124931, 1125312, 1125707, 1126082, 1126450, 1126822, 1127215, 1127607, 1127988, 1128397, 1128759, 1129149, 1129556, 1129918, 1130359]","[1121379, 1121779, 1122179, 1122579, 1122979, 1123379, 1123779, 1124179, 1124566, 1124948, 1125330, 1125725, 1126100, 1126468, 1126839, 1127232, 1127625, 1128006, 1128414, 1128777, 1129167, 1129573, 1129936, 1130377]",95,OR,L,R,ITMSR,1.1,
0,400,trial,0,56,56,56,trial,"['S', 'S', 'S', 'S', 'S', 'S', 'S', 'C', 'C', 'C', 'C', 'C', 'C', 'C', 'C', 'C', 'C', 'C', 'C', 'C', 'C', 'C', 'C']","[1136235, 1136602, 1137051, 1137505, 1137920, 1138313, 1138766, 1139165, 1139531, 1139879, 1140256, 1140629, 1140997, 1141349, 1141712, 1142062, 1142409, 1142749, 1143114, 1143458, 1143772, 1144137, 1144492]","[1136332, 1136693, 1137145, 1137590, 1137986, 1138408, 1138851, 1139236, 1139614, 1139974, 1140350, 1140706, 1141082, 1141455, 1141810, 1142146, 1142511, 1142852, 1143216, 1143565, 1143872, 1144232, 1144594]","[203, 195, 201, 189, 189, 181, 190, 165, 161, 165, 183, 169, 181, 166, 170, 162, 175, 166, 175, 161, 169, 174, 175]","[1136237, 1136603, 1137053, 1137507, 1137922, 1138315, 1138768, 1139167, 1139534, 1139881, 1140258, 1140631, 1140999, 1141352, 1141714, 1142065, 1142411, 1142751, 1143116, 1143460, 1143775, 1144139, 1144495]","[1136013, 1136413, 1136813, 1137213, 1137613, 1138013, 1138413, 1138813, 1139185, 1139551, 1139899, 1140276, 1140649, 1141017, 1141369, 1141732, 1142082, 1142429, 1142769, 1143134, 1143478, 1143792, 1144157, 1144512]",95,OR,L,R,ITMSR,1.1,
5,600,trial,0,57,57,57,trial,"['S', 'S', 'S', 'S', 'S', 'S', 'S', 'S', 'S', 'C', 'C', 'C', 'C', 'C', 'C', 'C', 'C', 'C', 'C', 'C', 'C', 'C', 'C', 'C', 'C']","[1150203, 1150557, 1151048, 1151619, 1152204, 1152756, 1153362, 1153942, 1154048, 1154531, 1154949, 1155276, 1155619, 1155949, 1156285, 1156603, 1156900, 1157232, 1157541, 1157840, 1158161, 1158480, 1158770, 1159098, 1159389]","[1150299, 1150666, 1151211, 1151771, 1152323, 1152886, 1153479, 1153968, 1154068, 1154640, 1154972, 1155368, 1155706, 1156048, 1156367, 1156695, 1157002, 1157314, 1157632, 1157931, 1158250, 1158543, 1158840, 1159172, 1159480]","[195, 180, 197, 190, 181, 192, 188, 189, 172, 166, 161, 171, 155, 143, 154, 144, 132, 150, 129, 116, 143, 141, 105, 130, 119]","[1150205, 1150559, 1151050, 1151621, 1152207, 1152758, 1153364, 1153944, 1154048, 1154533, 1154951, 1155279, 1155621, 1155952, 1156287, 1156606, 1156902, 1157234, 1157544, 1157843, 1158163, 1158483, 1158773, 1159100, 1159392]","[1149992, 1150593, 1151192, 1151792, 1152392, 1152992, 1153592, 1154192, 1154551, 1154969, 1155296, 1155639, 1155970, 1156305, 1156623, 1156920, 1157252, 1157561, 1157860, 1158181, 1158500, 1158790, 1159118, 1159409]",95,OR,L,R,ITMSR,1.1,
0,400,trial,0,58,58,58,trial,"['S', 'S', 'S', 'S', 'S', 'S', 'S', 'C', 'C', 'C', 'C', 'C', 'C', 'C', 'C', 'C', 'C', 'C', 'C', 'C', 'C', 'C', 'C', 'C']","[1165172, 1165616, 1166024, 1166500, 1166931, 1167332, 1167725, 1168138, 1168470, 1168776, 1169084, 1169383, 1169626, 1169921, 1170355, 1170701, 1171031, 1171352, 1171686, 1172008, 1172338, 1172640, 1172982, 1173273]","[1165299, 1165719, 1166133, 1166589, 1167032, 1167422, 1167802, 1168219, 1168561, 1168848, 1169145, 1169405, 1169685, 1170051, 1170457, 1170816, 1171126, 1171468, 1171777, 1172100, 1172421, 1172732, 1173069, 1173371]","[207, 199, 171, 198, 207, 195, 183, 148, 153, 80, 95, 44, 14, 59, 178, 141, 125, 154, 145, 155, 158, 154, 147, 145]","[1165174, 1165617, 1166027, 1166502, 1166934, 1167334, 1167727, 1168141, 1168472, 1168779, 1169087, 1169386, 1169629, 1169925, 1170357, 1170703, 1171034, 1171355, 1171688, 1172012, 1172340, 1172643, 1172984, 1173276]","[1165026, 1165426, 1165826, 1166226, 1166626, 1167026, 1167426, 1167826, 1168158, 1168490, 1168796, 1169104, 1169403, 1169941, 1170375, 1170721, 1171051, 1171373, 1171706, 1172028, 1172358, 1172660, 1173002, 1173293]",95,OR,L,R,ITMSR,1.1,
2,400,trial,0,59,59,59,trial,"['S', 'S', 'S', 'S', 'S', 'S', 'S', 'C', 'C', 'C', 'C', 'C', 'C', 'C', 'C', 'C', 'C', 'C', 'C', 'C', 'C', 'C', 'C']","[1179373, 1179721, 1180065, 1180479, 1180873, 1181297, 1181670, 1182061, 1182398, 1182727, 1183083, 1183422, 1183744, 1184082, 1184388, 1184698, 1185011, 1185311, 1185614, 1185911, 1186230, 1186513, 1186821]","[1179496, 1179824, 1180184, 1180577, 1180971, 1181407, 1181764, 1182166, 1182487, 1182835, 1183172, 1183514, 1183846, 1184162, 1184493, 1184797, 1185101, 1185406, 1185713, 1186008, 1186332, 1186598, 1186914]","[200, 156, 165, 162, 163, 165, 48, 146, 117, 119, 112, 115, 84, 106, 98, 102, 112, 89, 79, 3, 88, 50, 67]","[1179375, 1179723, 1180067, 1180481, 1180875, 1181299, 1181673, 1182064, 1182401, 1182730, 1183086, 1183424, 1183747, 1184087, 1184391, 1184700, 1185014, 1185314, 1185617, 1185915, 1186233, 1186516, 1186825]","[1178960, 1179360, 1179760, 1180161, 1180560, 1180960, 1181360, 1181760, 1182082, 1182418, 1182747, 1183104, 1183442, 1183764, 1184102, 1184408, 1184718, 1185031, 1185331, 1185634, 1185931, 1186250, 1186533, 1186841]",95,OR,L,R,ITMSR,1.1,
3,400,trial,0,60,60,60,trial,"['S', 'S', 'S', 'S', 'S', 'S', 'S', 'C', 'C', 'C', 'C', 'C', 'C', 'C', 'C', 'C', 'C', 'C', 'C', 'C', 'C', 'C', 'C']","[1192397, 1192801, 1193216, 1193648, 1194073, 1194464, 1194838, 1195283, 1195649, 1195981, 1196328, 1196667, 1196988, 1197325, 1197647, 1197979, 1198286, 1198617, 1198940, 1199286, 1199595, 1199952, 1200229]","[1192508, 1192920, 1193315, 1193728, 1194148, 1194529, 1194935, 1195380, 1195742, 1196076, 1196414, 1196754, 1197090, 1197421, 1197755, 1198061, 1198408, 1198707, 1199039, 1199363, 1199703, 1200024, 1200353]","[202, 149, 125, 165, 149, 165, 136, 183, 147, 146, 163, 173, 173, 169, 157, 194, 148, 160, 155, 191, 87, 144, 131]","[1192399, 1192803, 1193218, 1193650, 1194075, 1194466, 1194841, 1195285, 1195652, 1195983, 1196332, 1196669, 1196990, 1197328, 1197649, 1197980, 1198288, 1198619, 1198942, 1199288, 1199598, 1199954, 1200231]","[1192168, 1192568, 1192968, 1193368, 1193768, 1194168, 1194568, 1194968, 1195303, 1195669, 1196001, 1196348, 1196687, 1197008, 1197345, 1197667, 1197999, 1198306, 1198637, 1198960, 1199306, 1199616, 1199972, 1200249]",95,OR,L,R,ITMSR,1.1,
3,600,trial,0,61,61,61,trial,"['S', 'S', 'S', 'S', 'S', 'S', 'S', 'S', 'C', 'C', 'C', 'C', 'C', 'C', 'C', 'C', 'C', 'C', 'C', 'C', 'C', 'C', 'C', 'C']","[1205934, 1206329, 1206815, 1207337, 1207899, 1208514, 1209131, 1209769, 1210374, 1210877, 1211350, 1211869, 1212363, 1212846, 1213312, 1213782, 1214240, 1214676, 1215091, 1215494, 1215912, 1216319, 1216709, 1217098]","[1206030, 1206449, 1206947, 1207456, 1208125, 1208775, 1209412, 1210041, 1210583, 1211080, 1211625, 1212088, 1212550, 1213002, 1213478, 1213936, 1214379, 1214829, 1215249, 1215633, 1216026, 1216438, 1216835, 1217241]","[150, 154, 168, 150, 123, 137, 134, 149, 174, 171, 157, 154, 166, 173, 165, 158, 164, 162, 133, 139, 153, 154, 146, 135]","[1205936, 1206332, 1206817, 1207340, 1207902, 1208517, 1209134, 1209772, 1210377, 1210880, 1211353, 1211872, 1212365, 1212849, 1213314, 1213784, 1214242, 1214679, 1215093, 1215496, 1215915, 1216321, 1216711, 1217101]","[1205689, 1206289, 1206889, 1207489, 1208089, 1208689, 1209289, 1209889, 1210394, 1210897, 1211370, 1211889, 1212383, 1212866, 1213332, 1213802, 1214260, 1214696, 1215111, 1215514, 1215932, 1216339, 1216729, 1217118]",95,OR,L,R,ITMSR,1.1,
4,600,trial,0,62,62,62,trial,"['S', 'S', 'S', 'S', 'S', 'S', 'S', 'S', 'S', 'S', 'S', 'S', 'C', 'C', 'C', 'C', 'C', 'C', 'C', 'C', 'C', 'C', 'C', 'C', 'C', 'C', 'C', 'C', 'C', 'C']","[1222988, 1223467, 1223930, 1224034, 1224546, 1225146, 1225246, 1225722, 1225828, 1226356, 1226457, 1226869, 1227426, 1227531, 1227911, 1228389, 1228489, 1228863, 1229350, 1229841, 1230292, 1230729, 1231174, 1231587, 1232002, 1232440, 1232845, 1233258, 1233667, 1234095]","[1223094, 1223565, 1223954, 1224099, 1224757, 1225166, 1225346, 1225748, 1225990, 1226377, 1226484, 1227098, 1227451, 1227600, 1228061, 1228409, 1228509, 1228984, 1229457, 1229938, 1230394, 1230827, 1231281, 1231689, 1232130, 1232542, 1232970, 1233349, 1233763, 1234203]","[183, 185, 186, 212, 198, 183, 42, 171, 190, 170, 46, 166, 167, 164, 161, 142, 157, 160, 149, 167, 129, 145, 154, 149, 142, 145, 135, 123, 141, 133]","[1222988, 1223469, 1223932, 1224034, 1224548, 1225148, 1225262, 1225724, 1225877, 1226358, 1226457, 1226871, 1227428, 1227531, 1227912, 1228391, 1228489, 1228865, 1229353, 1229843, 1230296, 1230731, 1231176, 1231589, 1232005, 1232443, 1232847, 1233261, 1233670, 1234097]","[1222766, 1223366, 1223966, 1224566, 1225166, 1225766, 1226366, 1226967, 1227446, 1227931, 1228409, 1228883, 1229370, 1229861, 1230312, 1230749, 1231194, 1231607, 1232022, 1232460, 1232865, 1233278, 1233687, 1234115]",95,OR,L,R,ITMSR,1.1,
0,600,trial,0,63,63,63,trial,"['S', 'S', 'S', 'S', 'S', 'S', 'S', 'S', 'C', 'C', 'C', 'C', 'C', 'C', 'C', 'C', 'C', 'C', 'C', 'C', 'C', 'C', 'C', 'C']","[1239975, 1240346, 1240794, 1241348, 1241915, 1242542, 1243129, 1243725, 1244292, 1244763, 1245268, 1245719, 1246194, 1246651, 1247131, 1247575, 1248041, 1248481, 1248909, 1249353, 1249823, 1250283, 1250707, 1251158]","[1240073, 1240456, 1240951, 1241466, 1242062, 1242670, 1243270, 1243746, 1244418, 1244865, 1245344, 1245829, 1246290, 1246753, 1247227, 1247689, 1248158, 1248551, 1249011, 1249481, 1249930, 1250370, 1250787, 1251247]","[106, 169, 200, 169, 196, 194, 197, 176, 182, 199, 134, 201, 197, 193, 159, 197, 177, 157, 150, 195, 159, 187, 176, 182]","[1239979, 1240348, 1240796, 1241350, 1241917, 1242544, 1243131, 1243727, 1244294, 1244764, 1245271, 1245721, 1246195, 1246653, 1247133, 1247577, 1248044, 1248483, 1248911, 1249355, 1249825, 1250285, 1250709, 1251160]","[1239611, 1240211, 1240811, 1241411, 1242011, 1242611, 1243211, 1243811, 1244312, 1244783, 1245288, 1245740, 1246214, 1246671, 1247151, 1247595, 1248061, 1248501, 1248929, 1249373, 1249843, 1250304, 1250727, 1251178]",95,OR,L,R,ITMSR,1.1,
1,600,trial,0,64,64,64,trial,"['S', 'S', 'S', 'S', 'S', 'S', 'S', 'C', 'C', 'C', 'C', 'C', 'C', 'C', 'C', 'C', 'C', 'C', 'C', 'C', 'C', 'C', 'C']","[1257001, 1257534, 1258115, 1258752, 1259351, 1259922, 1260542, 1261143, 1261615, 1262013, 1262445, 1262894, 1263321, 1263733, 1264124, 1264522, 1264941, 1265314, 1265679, 1266074, 1266467, 1266869, 1267230]","[1257098, 1257633, 1258217, 1258860, 1259465, 1260048, 1260613, 1261253, 1261700, 1262115, 1262529, 1262997, 1263403, 1263827, 1264232, 1264617, 1265026, 1265425, 1265781, 1266176, 1266565, 1266950, 1267351]","[188, 200, 183, 178, 176, 186, 167, 162, 161, 166, 172, 167, 132, 162, 151, 125, 150, 144, 109, 92, 143, 148, 132]","[1257004, 1257535, 1258117, 1258754, 1259353, 1259924, 1260545, 1261145, 1261617, 1262015, 1262448, 1262896, 1263323, 1263736, 1264126, 1264525, 1264944, 1265317, 1265682, 1266078, 1266470, 1266871, 1267233]","[1256626, 1257226, 1257826, 1258426, 1259026, 1259626, 1260226, 1260826, 1261163, 1261635, 1262033, 1262466, 1262914, 1263341, 1263753, 1264144, 1264542, 1264961, 1265334, 1265699, 1266094, 1266487, 1266889, 1267250]",95,OR,L,R,ITMSR,1.1,
4,400,trial,0,65,65,65,trial,"['S', 'S', 'S', 'S', 'S', 'S', 'S', 'C', 'C', 'C', 'C', 'C', 'C', 'C', 'C', 'C', 'C', 'C', 'C', 'C', 'C', 'C', 'C']","[1273209, 1273545, 1274006, 1274448, 1274845, 1275267, 1275673, 1276108, 1276449, 1276835, 1277195, 1277603, 1277968, 1278331, 1278695, 1279077, 1279457, 1279818, 1280196, 1280508, 1280875, 1281213, 1281539]","[1273323, 1273633, 1274075, 1274540, 1274944, 1275358, 1275758, 1276207, 1276544, 1276919, 1277288, 1277624, 1278050, 1278414, 1278783, 1279168, 1279545, 1279917, 1280291, 1280628, 1280985, 1281327, 1281654]","[169, 188, 126, 83, 144, 182, 163, 163, 141, 163, 147, 34, 111, 91, 127, 123, 121, 128, 118, 87, 118, 241, 233]","[1273210, 1273547, 1274009, 1274454, 1274848, 1275268, 1275675, 1276110, 1276452, 1276837, 1277197, 1277606, 1277971, 1278334, 1278697, 1279079, 1279460, 1279821, 1280199, 1280512, 1280878, 1281217, 1281544]","[1272999, 1273399, 1273799, 1274200, 1274600, 1275000, 1275400, 1275800, 1276128, 1276469, 1276855, 1277215, 1277623, 1277988, 1278351, 1278715, 1279097, 1279477, 1279838, 1280216, 1280528, 1280896, 1281233, 1281559]",95,OR,L,R,ITMSR,1.1,
2,600,trial,0,66,66,66,trial,"['S', 'S', 'S', 'S', 'S', 'S', 'S', 'S', 'C', 'C', 'C', 'C', 'C', 'C', 'C', 'C', 'C', 'C', 'C', 'C', 'C', 'C', 'C', 'C']","[1287445, 1287786, 1288291, 1288857, 1289404, 1289981, 1290578, 1291150, 1291734, 1292152, 1292539, 1292901, 1293245, 1293577, 1293927, 1294237, 1294616, 1294960, 1295305, 1295630, 1295977, 1296288, 1296627, 1296910]","[1287528, 1287905, 1288395, 1289008, 1289566, 1290142, 1290677, 1291238, 1291821, 1292249, 1292633, 1292990, 1293319, 1293650, 1293983, 1294346, 1294684, 1295041, 1295392, 1295713, 1296049, 1296391, 1296717, 1297017]","[101, 173, 185, 201, 187, 182, 183, 183, 177, 170, 153, 148, 156, 126, 116, 144, 107, 129, 146, 95, 89, 109, 80, 105]","[1287449, 1287788, 1288292, 1288859, 1289406, 1289984, 1290580, 1291152, 1291736, 1292154, 1292542, 1292903, 1293247, 1293580, 1293930, 1294240, 1294619, 1294963, 1295308, 1295633, 1295981, 1296292, 1296630, 1296913]","[1287196, 1287795, 1288395, 1288995, 1289595, 1290195, 1290796, 1291395, 1291754, 1292172, 1292559, 1292921, 1293265, 1293597, 1293947, 1294257, 1294637, 1294980, 1295325, 1295650, 1295997, 1296308, 1296647, 1296930]",95,OR,L,R,ITMSR,1.1,
1,600,trial,0,67,67,67,trial,"['S', 'S', 'S', 'S', 'S', 'S', 'S', 'S', 'C', 'C', 'C', 'C', 'C', 'C', 'C', 'C', 'C', 'C', 'C', 'C', 'C', 'C', 'C', 'C', 'C']","[1302901, 1303267, 1303736, 1304256, 1304834, 1305454, 1306056, 1306643, 1307247, 1307751, 1307856, 1308301, 1308793, 1309281, 1309737, 1310163, 1310613, 1311075, 1311499, 1311930, 1312322, 1312747, 1313185, 1313618, 1314043]","[1302972, 1303375, 1303861, 1304380, 1305075, 1305710, 1306231, 1306814, 1307415, 1307776, 1307877, 1308422, 1308921, 1309419, 1309857, 1310277, 1310734, 1311214, 1311601, 1312023, 1312438, 1312863, 1313266, 1313720, 1314164]","[152, 179, 188, 189, 193, 132, 170, 185, 192, 166, 37, 183, 175, 164, 141, 121, 163, 177, 146, 155, 161, 126, 121, 159, 148]","[1302903, 1303269, 1303738, 1304258, 1304836, 1305456, 1306058, 1306645, 1307249, 1307753, 1307856, 1308303, 1308795, 1309284, 1309740, 1310166, 1310615, 1311077, 1311502, 1311932, 1312325, 1312750, 1313188, 1313620, 1314045]","[1302565, 1303165, 1303766, 1304365, 1304965, 1305565, 1306165, 1306765, 1307267, 1307771, 1308321, 1308813, 1309301, 1309757, 1310183, 1310633, 1311095, 1311519, 1311950, 1312343, 1312768, 1313205, 1313638, 1314063]",95,OR,L,R,ITMSR,1.1,
4,600,trial,0,68,68,68,trial,"['S', 'S', 'S', 'S', 'S', 'S', 'S', 'S', 'S', 'C', 'C', 'C', 'C', 'C', 'C', 'C', 'C', 'C', 'C', 'C', 'C', 'C', 'C', 'C', 'C', 'C']","[1320115, 1320519, 1320958, 1321564, 1322153, 1322732, 1323315, 1323415, 1323919, 1324518, 1324992, 1325508, 1326051, 1326521, 1327006, 1327452, 1327953, 1328468, 1328949, 1329396, 1329823, 1330292, 1330394, 1330754, 1331206, 1331647]","[1320217, 1320619, 1321134, 1321806, 1322390, 1322986, 1323335, 1323442, 1324141, 1324630, 1325132, 1325715, 1326188, 1326640, 1327106, 1327580, 1328061, 1328555, 1329047, 1329479, 1329904, 1330313, 1330414, 1330847, 1331300, 1331752]","[145, 186, 192, 170, 183, 189, 169, 220, 187, 166, 185, 170, 145, 160, 128, 125, 120, 60, 137, 214, 70, 42, 104, 109, 49, 247]","[1320118, 1320521, 1320961, 1321566, 1322156, 1322734, 1323317, 1323416, 1323921, 1324520, 1324994, 1325510, 1326053, 1326524, 1327008, 1327454, 1327955, 1328472, 1328951, 1329399, 1329825, 1330295, 1330394, 1330756, 1331208, 1331650]","[1319796, 1320396, 1320996, 1321596, 1322196, 1322797, 1323397, 1323997, 1324538, 1325012, 1325528, 1326071, 1326541, 1327026, 1327472, 1327973, 1328488, 1328969, 1329416, 1329843, 1330312, 1330775, 1331226, 1331667]",95,OR,L,R,ITMSR,1.1,
2,600,trial,0,69,69,69,trial,"['S', 'S', 'S', 'S', 'S', 'S', 'S', 'S', 'C', 'C', 'C', 'C', 'C', 'C', 'C', 'C', 'C', 'C', 'C', 'C', 'C', 'C', 'C', 'C', 'C', 'C', 'C', 'C', 'C']","[1337484, 1338063, 1338680, 1339285, 1339863, 1340483, 1340587, 1341118, 1342129, 1342674, 1342776, 1343185, 1343707, 1344230, 1344778, 1345339, 1345443, 1345881, 1345985, 1346475, 1347007, 1347504, 1348031, 1348612, 1348714, 1349586, 1350128, 1350231, 1350600]","[1337592, 1338223, 1338844, 1339419, 1339883, 1340506, 1340607, 1341138, 1342336, 1342695, 1342861, 1343206, 1343888, 1344422, 1344965, 1345363, 1345476, 1345905, 1346070, 1346495, 1347133, 1347697, 1348051, 1348634, 1348734, 1349793, 1350151, 1350251, 1350756]","[81, 166, 150, 122, 232, 24, 21, 198, 163, 232, 171, 73, 83, 50, 80, 157, 21, 235, 150, 32, 242, 64, 1, 115, 16, 49, 39, 172, 92]","[1337486, 1338065, 1338682, 1339287, 1339865, 1340485, 1340587, 1341119, 1342134, 1342678, 1342776, 1343188, 1343710, 1344233, 1344781, 1345342, 1345443, 1345884, 1345985, 1346476, 1347010, 1347506, 1348031, 1348615, 1348714, 1349590, 1350132, 1350231, 1350603]","[1337020, 1337619, 1338219, 1338819, 1339419, 1340019, 1340619, 1341219, 1342149, 1342694, 1343205, 1343727, 1344250, 1344798, 1345359, 1345901, 1346495, 1347027, 1347524, 1348051, 1348632, 1349606, 1350148, 1350620]",95,OR,L,R,ITMSR,1.1,
2,400,trial,0,70,70,70,trial,"['S', 'S', 'S', 'S', 'S', 'S', 'S', 'C', 'C', 'C', 'C', 'C', 'C', 'C', 'C', 'C', 'C', 'C', 'C', 'C', 'C', 'C', 'C']","[1356384, 1356742, 1357220, 1357701, 1358094, 1358455, 1358845, 1359284, 1359647, 1359984, 1360375, 1360757, 1361107, 1361479, 1361802, 1362167, 1362512, 1362905, 1363215, 1363587, 1363930, 1364317, 1364662]","[1356505, 1356840, 1357316, 1357786, 1358172, 1358548, 1358935, 1359349, 1359727, 1360077, 1360462, 1360835, 1361187, 1361502, 1361910, 1362248, 1362605, 1362968, 1363309, 1363674, 1364016, 1364377, 1364751]","[94, 150, 150, 149, 149, 145, 147, 163, 128, 136, 140, 129, 91, 56, 92, 108, 109, 80, 61, 76, 35, 13, 104]","[1356388, 1356745, 1357223, 1357704, 1358096, 1358458, 1358848, 1359286, 1359650, 1359987, 1360378, 1360760, 1361111, 1361482, 1361805, 1362170, 1362515, 1362908, 1363219, 1363591, 1363934, 1364321, 1364665]","[1356139, 1356538, 1356938, 1357338, 1357739, 1358138, 1358538, 1358938, 1359304, 1359667, 1360004, 1360395, 1360777, 1361127, 1361499, 1361822, 1362187, 1362532, 1362925, 1363235, 1363607, 1363950, 1364337, 1364682]",95,OR,L,R,ITMSR,1.1,
1,400,trial,0,71,71,71,trial,"['S', 'S', 'S', 'S', 'S', 'S', 'S', 'C', 'C', 'C', 'C', 'C', 'C', 'C', 'C', 'C', 'C', 'C', 'C', 'C', 'C', 'C', 'C']","[1370411, 1370902, 1371265, 1371683, 1372101, 1372476, 1372863, 1373259, 1373589, 1373993, 1374312, 1374680, 1375026, 1375305, 1375652, 1376001, 1376301, 1376689, 1377046, 1377417, 1377692, 1378066, 1378363]","[1370515, 1370964, 1371344, 1371771, 1372176, 1372561, 1372945, 1373350, 1373689, 1374056, 1374401, 1374747, 1375093, 1375390, 1375674, 1376061, 1376412, 1376710, 1377132, 1377496, 1377773, 1378141, 1378446]","[174, 165, 189, 173, 177, 187, 158, 79, 95, 93, 103, 20, 39, 13, 6, 46, 48, 222, 15, 130, 94, 213, 232]","[1370414, 1370905, 1371267, 1371686, 1372103, 1372478, 1372865, 1373261, 1373592, 1373997, 1374315, 1374683, 1375030, 1375309, 1375656, 1376005, 1376305, 1376692, 1377050, 1377421, 1377696, 1378071, 1378367]","[1370171, 1370571, 1370971, 1371371, 1371771, 1372171, 1372571, 1372972, 1373279, 1373609, 1374013, 1374332, 1374700, 1375046, 1375325, 1375672, 1376021, 1376321, 1376709, 1377067, 1377437, 1377712, 1378086, 1378383]",95,OR,L,R,ITMSR,1.1,
3,400,trial,0,72,72,72,trial,"['S', 'S', 'S', 'S', 'S', 'S', 'S', 'C', 'C', 'C', 'C', 'C', 'C', 'C', 'C', 'C', 'C', 'C', 'C', 'C', 'C', 'C', 'C', 'C']","[1384034, 1384397, 1384883, 1385312, 1385732, 1386105, 1386543, 1386971, 1387585, 1387932, 1388263, 1388612, 1388950, 1389295, 1389623, 1389940, 1390233, 1390579, 1390831, 1392449, 1392814, 1393142, 1393484, 1393802]","[1384115, 1384488, 1384978, 1385388, 1385797, 1386179, 1386566, 1386991, 1387676, 1387995, 1388342, 1388693, 1389035, 1389366, 1389702, 1390016, 1390323, 1390636, 1390914, 1392575, 1392912, 1393267, 1393582, 1393921]","[152, 158, 153, 144, 109, 51, 66, 108, 252, 237, 97, 59, 65, 58, 5, 2, 210, 132, 48, 64, 122, 124, 99, 115]","[1384036, 1384399, 1384886, 1385315, 1385735, 1386109, 1386547, 1386975, 1387588, 1387937, 1388266, 1388615, 1388954, 1389299, 1389626, 1389944, 1390237, 1390582, 1390835, 1392453, 1392817, 1393145, 1393488, 1393805]","[1383811, 1384210, 1384610, 1385010, 1385410, 1385810, 1386210, 1386610, 1386991, 1387606, 1387952, 1388283, 1388632, 1388971, 1389315, 1389643, 1389960, 1390253, 1390599, 1392470, 1392834, 1393162, 1393504, 1393822]",95,OR,L,R,ITMSR,1.1,
3,600,trial,0,73,73,73,trial,"['S', 'S', 'S', 'S', 'S', 'S', 'S', 'S', 'S', 'C', 'C', 'C', 'C', 'C', 'C', 'C', 'C', 'C', 'C', 'C', 'C', 'C', 'C', 'C', 'C']","[1399730, 1400142, 1400616, 1401138, 1401686, 1402244, 1402844, 1403409, 1403973, 1404558, 1405106, 1405602, 1406066, 1406566, 1407011, 1407494, 1407976, 1408464, 1408973, 1409457, 1409931, 1410398, 1410871, 1411351, 1411813]","[1399833, 1400263, 1400729, 1401256, 1401798, 1402398, 1402964, 1403507, 1404115, 1404685, 1405238, 1405710, 1406188, 1406686, 1407132, 1407627, 1408082, 1408564, 1409044, 1409531, 1410023, 1410489, 1410987, 1411478, 1411913]","[154, 137, 162, 177, 164, 165, 176, 164, 165, 168, 146, 150, 167, 168, 161, 170, 159, 142, 144, 135, 137, 108, 70, 107, 28]","[1399732, 1400145, 1400620, 1401140, 1401689, 1402246, 1402846, 1403412, 1403975, 1404560, 1405109, 1405604, 1406069, 1406568, 1407014, 1407496, 1407978, 1408467, 1408976, 1409459, 1409934, 1410401, 1410874, 1411354, 1411816]","[1399529, 1400129, 1400729, 1401329, 1401929, 1402529, 1403129, 1403729, 1404578, 1405126, 1405622, 1406086, 1406586, 1407031, 1407514, 1407996, 1408484, 1408993, 1409477, 1409951, 1410418, 1410891, 1411372, 1411833]",95,OR,L,R,ITMSR,1.1,
4,400,trial,0,74,74,74,trial,"['S', 'S', 'S', 'S', 'S', 'S', 'S', 'S', 'C', 'C', 'C', 'C', 'C', 'C', 'C', 'C', 'C', 'C', 'C', 'C', 'C', 'C', 'C', 'C']","[1417510, 1417840, 1418212, 1418569, 1418903, 1419260, 1419641, 1420013, 1420391, 1420738, 1421050, 1421366, 1421696, 1421980, 1422314, 1422640, 1422946, 1423268, 1423574, 1423910, 1424200, 1424498, 1424813, 1425093]","[1417612, 1417953, 1418315, 1418661, 1418986, 1419346, 1419715, 1420101, 1420466, 1420823, 1421147, 1421461, 1421788, 1422090, 1422397, 1422735, 1423057, 1423374, 1423697, 1424007, 1424304, 1424627, 1424905, 1425214]","[111, 185, 164, 158, 156, 148, 127, 140, 129, 137, 130, 117, 140, 138, 135, 131, 137, 89, 76, 115, 152, 110, 119, 108]","[1417512, 1417842, 1418214, 1418571, 1418906, 1419264, 1419644, 1420015, 1420394, 1420741, 1421053, 1421369, 1421699, 1421983, 1422317, 1422643, 1422949, 1423272, 1423578, 1423915, 1424203, 1424501, 1424816, 1425097]","[1417286, 1417687, 1418086, 1418486, 1418886, 1419286, 1419686, 1420086, 1420411, 1420759, 1421070, 1421386, 1421716, 1422000, 1422334, 1422660, 1422966, 1423288, 1423594, 1423930, 1424220, 1424518, 1424833, 1425113]",95,OR,L,R,ITMSR,1.1,
5,400,trial,0,75,75,75,trial,"['S', 'S', 'S', 'S', 'S', 'S', 'S', 'S', 'C', 'C', 'C', 'C', 'C', 'C', 'C', 'C', 'C', 'C', 'C', 'C', 'C', 'C', 'C', 'C', 'C']","[1430833, 1431151, 1431482, 1431789, 1432171, 1432513, 1432934, 1433319, 1433717, 1434094, 1434479, 1434776, 1435145, 1435475, 1435765, 1436096, 1436390, 1436708, 1437016, 1437282, 1438317, 1438596, 1438895, 1439176, 1439494]","[1430932, 1431258, 1431575, 1431881, 1432258, 1432602, 1433017, 1433405, 1433814, 1434199, 1434558, 1434869, 1435226, 1435566, 1435851, 1436179, 1436478, 1436798, 1437105, 1437387, 1438420, 1438713, 1439016, 1439309, 1439650]","[140, 149, 121, 170, 161, 95, 125, 115, 155, 125, 73, 90, 85, 105, 73, 83, 92, 49, 65, 17, 100, 128, 141, 123, 143]","[1430837, 1431153, 1431484, 1431791, 1432173, 1432517, 1432937, 1433322, 1433719, 1434097, 1434483, 1434779, 1435149, 1435479, 1435769, 1436099, 1436394, 1436712, 1437020, 1437286, 1438320, 1438599, 1438898, 1439235, 1439568]","[1430658, 1431058, 1431458, 1431858, 1432258, 1432658, 1433058, 1433458, 1433737, 1434114, 1434499, 1434797, 1435165, 1435495, 1435785, 1436116, 1436410, 1436728, 1437036, 1438338, 1438616, 1438915, 1439196, 1439514]",95,OR,L,R,ITMSR,1.1,
5,600,trial,0,76,76,76,trial,"['S', 'S', 'S', 'S', 'S', 'S', 'S', 'S', 'C', 'C', 'C', 'C', 'C', 'C', 'C', 'C', 'C', 'C', 'C', 'C', 'C', 'C', 'C', 'C']","[1445393, 1445816, 1446246, 1446795, 1447358, 1447942, 1448504, 1449126, 1449759, 1450170, 1450494, 1450816, 1451133, 1451444, 1451784, 1452071, 1452412, 1452722, 1453034, 1453333, 1453650, 1453962, 1454248, 1454564]","[1445498, 1445948, 1446412, 1446950, 1447528, 1448109, 1448792, 1449394, 1449907, 1450242, 1450582, 1450895, 1451216, 1451536, 1451870, 1452176, 1452508, 1452819, 1453132, 1453426, 1453741, 1454047, 1454329, 1454644]","[111, 159, 173, 149, 186, 189, 157, 152, 168, 133, 140, 115, 119, 110, 111, 105, 109, 102, 106, 95, 104, 96, 83, 95]","[1445397, 1445820, 1446249, 1446797, 1447360, 1447944, 1448506, 1449128, 1449761, 1450172, 1450498, 1450819, 1451137, 1451447, 1451786, 1452075, 1452416, 1452725, 1453038, 1453336, 1453654, 1453965, 1454253, 1454567]","[1445103, 1445703, 1446303, 1446903, 1447503, 1448103, 1448704, 1449304, 1449779, 1450190, 1450514, 1450836, 1451153, 1451464, 1451804, 1452091, 1452432, 1452742, 1453054, 1453353, 1453670, 1453982, 1454268, 1454584]",95,OR,L,R,ITMSR,1.1,
1,400,trial,0,77,77,77,trial,"['S', 'S', 'S', 'S', 'S', 'S', 'S', 'C', 'C', 'C', 'C', 'C', 'C', 'C', 'C', 'C', 'C', 'C', 'C', 'C', 'C', 'C', 'C']","[1460379, 1460738, 1461118, 1461517, 1461904, 1462323, 1462723, 1463122, 1463500, 1463834, 1464240, 1464626, 1464986, 1465380, 1465756, 1466115, 1466473, 1466847, 1467173, 1467532, 1467887, 1468241, 1468620]","[1460486, 1460840, 1461217, 1461622, 1462017, 1462423, 1462812, 1463214, 1463579, 1463914, 1464315, 1464713, 1465080, 1465460, 1465838, 1466193, 1466576, 1466908, 1467284, 1467597, 1467957, 1468327, 1468715]","[150, 164, 149, 166, 158, 173, 177, 166, 132, 145, 124, 124, 119, 91, 101, 200, 113, 135, 132, 187, 125, 100, 109]","[1460382, 1460740, 1461121, 1461519, 1461906, 1462325, 1462725, 1463126, 1463503, 1463836, 1464243, 1464629, 1464989, 1465384, 1465759, 1466117, 1466477, 1466850, 1467175, 1467534, 1467891, 1468244, 1468623]","[1460003, 1460403, 1460803, 1461203, 1461603, 1462003, 1462403, 1462803, 1463142, 1463520, 1463854, 1464260, 1464646, 1465006, 1465400, 1465776, 1466135, 1466493, 1466867, 1467193, 1467552, 1467907, 1468261, 1468640]",95,OR,L,R,ITMSR,1.1,
4,600,trial,0,78,78,78,trial,"['S', 'S', 'S', 'S', 'S', 'S', 'S', 'S', 'C', 'C', 'C', 'C', 'C', 'C', 'C', 'C', 'C', 'C', 'C', 'C', 'C', 'C', 'C', 'C']","[1477495, 1477827, 1478338, 1478907, 1479529, 1480130, 1480767, 1481356, 1481960, 1482454, 1482875, 1483299, 1483705, 1484119, 1484497, 1484873, 1485244, 1485607, 1485922, 1486273, 1486628, 1486952, 1487303, 1487621]","[1477588, 1477979, 1478558, 1479144, 1479809, 1480402, 1480972, 1481579, 1482157, 1482594, 1483020, 1483408, 1483825, 1484211, 1484588, 1484971, 1485340, 1485692, 1486029, 1486370, 1486718, 1487054, 1487391, 1487727]","[178, 155, 179, 160, 184, 180, 174, 167, 168, 165, 155, 167, 162, 146, 157, 163, 157, 139, 102, 160, 128, 134, 134, 120]","[1477498, 1477830, 1478340, 1478909, 1479531, 1480132, 1480769, 1481358, 1481963, 1482457, 1482878, 1483302, 1483707, 1484121, 1484499, 1484876, 1485247, 1485611, 1485926, 1486275, 1486631, 1486955, 1487305, 1487625]","[1477298, 1477897, 1478497, 1479097, 1479697, 1480297, 1480897, 1481497, 1481980, 1482474, 1482895, 1483319, 1483725, 1484139, 1484517, 1484893, 1485264, 1485627, 1485942, 1486294, 1486648, 1486972, 1487323, 1487641]",95,OR,L,R,ITMSR,1.1,
0,600,trial,0,79,79,79,trial,"['B', 'S', 'S', 'S', 'S', 'S', 'S', 'S', 'S', 'C', 'C', 'C', 'C', 'C', 'C', 'C', 'C', 'C', 'C', 'C', 'C', 'C', 'C', 'C', 'C']","[1493314, 1493849, 1494416, 1495031, 1495657, 1496238, 1496341, 1496841, 1497439, 1498030, 1498622, 1499152, 1499688, 1500256, 1500760, 1501270, 1501736, 1502302, 1502807, 1503298, 1503838, 1504366, 1504887, 1505381, 1505913]","[1493398, 1494092, 1494701, 1495305, 1495879, 1496261, 1496436, 1497049, 1497665, 1498219, 1498802, 1499333, 1499848, 1500408, 1500924, 1501405, 1501850, 1502451, 1502939, 1503460, 1503960, 1504486, 1504998, 1505510, 1506025]","[65, 193, 191, 186, 184, 177, 252, 181, 182, 182, 148, 181, 173, 176, 169, 160, 167, 154, 156, 167, 165, 163, 160, 64, 121]","[1493314, 1493851, 1494417, 1495033, 1495659, 1496240, 1496341, 1496843, 1497441, 1498032, 1498625, 1499154, 1499691, 1500259, 1500762, 1501273, 1501740, 1502304, 1502809, 1503301, 1503840, 1504369, 1504890, 1505384, 1505916]","[1493324, 1493924, 1494524, 1495124, 1495725, 1496325, 1496925, 1497525, 1498050, 1498642, 1499172, 1499708, 1500276, 1500780, 1501290, 1501756, 1502322, 1502827, 1503319, 1503858, 1504386, 1504907, 1505401, 1505933]",95,OR,L,R,ITMSR,1.1,
3,400,trial,0,80,80,80,trial,"['S', 'S', 'S', 'S', 'S', 'S', 'S', 'C', 'C', 'C', 'C', 'C', 'C', 'C', 'C', 'C', 'C', 'C', 'C', 'C', 'C', 'C', 'C', 'C']","[1511688, 1512023, 1512478, 1512907, 1513329, 1513747, 1514124, 1514519, 1514858, 1515170, 1515503, 1515789, 1516128, 1516414, 1516752, 1517070, 1517374, 1517691, 1517984, 1518306, 1518569, 1518892, 1519184, 1519508]","[1511781, 1512117, 1512576, 1513003, 1513431, 1513828, 1514232, 1514624, 1514960, 1515268, 1515594, 1515893, 1516222, 1516527, 1516854, 1517163, 1517479, 1517782, 1518117, 1518394, 1518694, 1519005, 1519319, 1519639]","[189, 171, 175, 186, 186, 175, 142, 172, 144, 159, 145, 145, 130, 140, 124, 146, 86, 80, 111, 156, 73, 109, 140, 144]","[1511690, 1512026, 1512480, 1512909, 1513331, 1513749, 1514127, 1514521, 1514861, 1515172, 1515506, 1515792, 1516131, 1516418, 1516755, 1517073, 1517378, 1517694, 1517987, 1518309, 1518573, 1518895, 1519187, 1519511]","[1511450, 1511851, 1512250, 1512650, 1513050, 1513450, 1513850, 1514250, 1514540, 1514878, 1515190, 1515523, 1515809, 1516148, 1516434, 1516772, 1517090, 1517394, 1517711, 1518004, 1518326, 1518912, 1519204, 1519528]",95,OR,L,R,ITMSR,1.1,
4,400,trial,0,81,81,81,trial,"['S', 'S', 'S', 'S', 'S', 'S', 'S', 'C', 'C', 'C', 'C', 'C', 'C', 'C', 'C', 'C', 'C', 'C', 'C', 'C', 'C', 'C', 'C']","[1525518, 1525980, 1526356, 1526770, 1527129, 1527525, 1527937, 1528378, 1528728, 1529109, 1529463, 1529791, 1530196, 1530571, 1530929, 1531269, 1531621, 1531996, 1532364, 1532652, 1533046, 1533363, 1533767]","[1525618, 1526059, 1526445, 1526846, 1527207, 1527618, 1528015, 1528445, 1528828, 1529195, 1529554, 1529904, 1530267, 1530656, 1531012, 1531343, 1531730, 1532088, 1532436, 1532751, 1533119, 1533481, 1533849]","[131, 129, 139, 113, 127, 119, 129, 123, 131, 117, 105, 12, 73, 66, 240, 24, 68, 211, 60, 71, 40, 25, 44]","[1525521, 1525983, 1526360, 1526773, 1527131, 1527529, 1527940, 1528380, 1528731, 1529112, 1529466, 1529795, 1530200, 1530574, 1530932, 1531272, 1531624, 1531999, 1532367, 1532656, 1533049, 1533366, 1533770]","[1525275, 1525676, 1526075, 1526475, 1526875, 1527275, 1527675, 1528075, 1528398, 1528749, 1529129, 1529483, 1529811, 1530216, 1530591, 1530949, 1531289, 1531641, 1532016, 1532384, 1532673, 1533066, 1533383, 1533787]",95,OR,L,R,ITMSR,1.1,
5,600,trial,0,82,82,82,trial,"['S', 'S', 'S', 'S', 'S', 'S', 'S', 'S', 'C', 'C', 'C', 'C', 'C', 'C', 'C', 'C', 'C', 'C', 'C', 'C', 'C', 'C', 'C', 'C']","[1539519, 1539941, 1540413, 1540998, 1541624, 1542202, 1542799, 1543403, 1544011, 1544482, 1544995, 1545483, 1545923, 1546383, 1546836, 1547284, 1547717, 1548162, 1548583, 1548996, 1549401, 1549788, 1550221, 1550623]","[1539613, 1540033, 1540547, 1541216, 1541826, 1542460, 1543030, 1543646, 1544109, 1544625, 1545140, 1545587, 1546063, 1546500, 1546919, 1547406, 1547807, 1548238, 1548696, 1549112, 1549496, 1549890, 1550300, 1550750]","[152, 148, 186, 176, 166, 166, 160, 145, 104, 127, 148, 112, 143, 128, 96, 120, 147, 74, 101, 85, 145, 74, 54, 77]","[1539522, 1539943, 1540415, 1541000, 1541627, 1542204, 1542802, 1543406, 1544014, 1544485, 1544998, 1545486, 1545926, 1546386, 1546840, 1547287, 1547720, 1548165, 1548587, 1548999, 1549404, 1549792, 1550224, 1550626]","[1539329, 1539928, 1540528, 1541128, 1541728, 1542328, 1542928, 1543528, 1544031, 1544502, 1545015, 1545503, 1545944, 1546403, 1546856, 1547304, 1547737, 1548182, 1548603, 1549016, 1549421, 1549808, 1550241, 1550643]",95,OR,L,R,ITMSR,1.1,
2,400,trial,0,83,83,83,trial,"['S', 'S', 'S', 'S', 'S', 'S', 'S', 'S', 'C', 'C', 'C', 'C', 'C', 'C', 'C', 'C', 'C', 'C', 'C', 'C', 'C', 'C', 'C', 'C']","[1556563, 1556935, 1557279, 1557625, 1557976, 1558376, 1558777, 1559172, 1559597, 1559990, 1560367, 1560759, 1561174, 1561552, 1561906, 1562290, 1562678, 1563094, 1563460, 1563821, 1564232, 1564601, 1564894, 1565315]","[1556660, 1557009, 1557359, 1557716, 1558066, 1558398, 1558860, 1559260, 1559618, 1560011, 1560389, 1560864, 1561230, 1561631, 1562008, 1562413, 1562766, 1563173, 1563541, 1563900, 1564310, 1564689, 1565020, 1565445]","[187, 176, 185, 174, 162, 76, 136, 93, 35, 227, 137, 219, 252, 204, 17, 236, 10, 254, 148, 246, 130, 213, 131, 70]","[1556566, 1556937, 1557281, 1557627, 1557978, 1558379, 1558780, 1559174, 1559600, 1559994, 1560370, 1560763, 1561178, 1561556, 1561911, 1562295, 1562684, 1563098, 1563464, 1563826, 1564236, 1564605, 1564899, 1565319]","[1556383, 1556783, 1557183, 1557583, 1557983, 1558383, 1558784, 1559183, 1559617, 1560010, 1560387, 1560779, 1561194, 1561572, 1561926, 1562310, 1562698, 1563114, 1563480, 1563841, 1564252, 1564621, 1564914, 1565335]",95,OR,L,R,ITMSR,1.1,
2,400,trial,0,84,84,84,trial,"['S', 'S', 'S', 'S', 'S', 'S', 'S', 'C', 'C', 'C', 'C', 'C', 'C', 'C', 'C', 'C', 'C', 'C', 'C', 'C', 'C', 'C', 'C', 'C']","[1571101, 1571476, 1571884, 1572277, 1572720, 1573108, 1573557, 1573953, 1574368, 1574734, 1575086, 1575445, 1575705, 1576158, 1576560, 1576919, 1577312, 1577628, 1578033, 1578415, 1578799, 1579158, 1579580, 1579887]","[1571185, 1571562, 1571968, 1572381, 1572789, 1573209, 1573635, 1573979, 1574395, 1574807, 1575172, 1575559, 1575818, 1576254, 1576646, 1577007, 1577370, 1577737, 1578135, 1578510, 1578884, 1579245, 1579636, 1580018]","[26, 113, 151, 105, 69, 95, 66, 73, 52, 23, 169, 140, 4, 254, 209, 113, 244, 55, 59, 47, 83, 21, 220, 80]","[1571105, 1571479, 1571887, 1572280, 1572724, 1573112, 1573560, 1573957, 1574372, 1574738, 1575090, 1575450, 1575785, 1576162, 1576565, 1576922, 1577316, 1577632, 1578037, 1578419, 1578803, 1579162, 1579584, 1579895]","[1570820, 1571220, 1571620, 1572020, 1572420, 1572820, 1573220, 1573620, 1573974, 1574388, 1574754, 1575106, 1575465, 1576178, 1576580, 1576939, 1577332, 1577648, 1578053, 1578435, 1578819, 1579179, 1579600, 1579907]",95,OR,L,R,ITMSR,1.1,
1,600,trial,0,85,85,85,trial,"['S', 'S', 'S', 'S', 'S', 'S', 'S', 'S', 'S', 'C', 'C', 'C', 'C', 'C', 'C', 'C', 'C', 'C', 'C', 'C', 'C', 'C', 'C', 'C', 'C', 'C', 'C', 'C', 'C', 'C', 'C', 'C', 'C']","[1585889, 1586353, 1586769, 1587270, 1587887, 1588476, 1588579, 1589130, 1589710, 1590287, 1590387, 1590801, 1590903, 1591319, 1591421, 1591859, 1591962, 1592364, 1592802, 1592904, 1593289, 1593719, 1593819, 1594167, 1594599, 1595036, 1595136, 1595484, 1595923, 1596337, 1596442, 1596764, 1597203]","[1585996, 1586460, 1586913, 1587441, 1588027, 1588499, 1588771, 1589323, 1589914, 1590307, 1590466, 1590822, 1590930, 1591341, 1591456, 1591882, 1591982, 1592386, 1592824, 1592933, 1593312, 1593739, 1593839, 1594188, 1594731, 1595056, 1595156, 1595547, 1596000, 1596362, 1596463, 1596789, 1597223]","[102, 163, 153, 158, 113, 117, 152, 4, 28, 52, 188, 249, 116, 8, 181, 27, 20, 29, 10, 6, 238, 220, 28, 209, 147, 32, 58, 51, 225, 245, 61, 140, 71]","[1585892, 1586354, 1586772, 1587273, 1587890, 1588478, 1588579, 1589134, 1589714, 1590291, 1590418, 1590805, 1590903, 1591323, 1591421, 1591863, 1591962, 1592368, 1592806, 1592904, 1593293, 1593724, 1593819, 1594172, 1594604, 1595037, 1595136, 1595490, 1595927, 1596341, 1596443, 1596769, 1597208]","[1585612, 1586212, 1586812, 1587412, 1588013, 1588613, 1589213, 1589813, 1590307, 1590821, 1591340, 1591879, 1592384, 1592822, 1593309, 1593739, 1594187, 1594619, 1595056, 1595504, 1595943, 1596357, 1596784, 1597223]",95,OR,L,R,ITMSR,1.1,
