pitch,ioi,event,.thisRepN,.thisTrialN,.thisN,.thisIndex,event,tap_types,tap_times,release_times,peak_pressures,peak_times,tone_times,subject,experimenter,register,handedness,experiment,version
,,SPR,0,-1,-1,0,SPR,"['P', 'P', 'P', 'P', 'P', 'P', 'P', 'P', 'P', 'P', 'P', 'P', 'P', 'P', 'P', 'P', 'P', 'P', 'P', 'P', 'P', 'P', 'P', 'P', 'P', 'P', 'P', 'P', 'P', 'P']","[27852, 28247, 28672, 29149, 29534, 29945, 30359, 30754, 31171, 31553, 31944, 32323, 32695, 33115, 33490, 33889, 34301, 34611, 34948, 35313, 35787, 36069, 36492, 36962, 37321, 37729, 38099, 38582, 38958, 39388]","[27970, 28345, 28773, 29236, 29628, 30021, 30433, 30845, 31270, 31639, 32059, 32424, 32801, 33192, 33583, 33986, 34406, 34720, 35073, 35477, 35868, 36202, 36590, 37052, 37430, 37779, 38180, 38651, 39060, 39471]","[166, 1, 243, 10, 220, 55, 37, 169, 63, 125, 182, 113, 102, 128, 49, 45, 212, 89, 121, 183, 247, 16, 207, 7, 253, 43, 249, 247, 230, 70]","[27860, 28252, 28678, 29154, 29542, 29952, 30365, 30764, 31178, 31559, 31949, 32330, 32744, 33121, 33500, 33896, 34310, 34665, 34954, 35324, 35794, 36135, 36500, 36968, 37329, 37736, 38108, 38589, 38962, 39399]",,73,SB,U,R,ITMSR,1.1
0,500,practice,0,0,0,0,practice,"['S', 'S', 'S', 'S', 'S', 'S', 'S', 'C', 'C', 'C', 'C', 'C', 'C', 'C', 'C', 'C', 'C', 'C', 'C', 'C', 'C', 'C', 'C', 'C', 'C', 'C']","[107825, 108148, 108571, 109075, 109560, 110088, 110586, 111069, 111469, 111814, 112114, 112412, 112689, 112969, 113192, 113526, 113806, 114105, 114343, 114719, 114973, 121142, 121613, 122053, 122475, 122937]","[107894, 108286, 108721, 109245, 109716, 110245, 110763, 111224, 111582, 111910, 112210, 112495, 112778, 113041, 113275, 113546, 113856, 114173, 114434, 114782, 115048, 121285, 121757, 122179, 122636, 123042]","[250, 30, 222, 55, 1, 61, 63, 77, 56, 71, 62, 58, 36, 42, 44, 81, 184, 152, 219, 36, 241, 52, 125, 132, 185, 152]","[107864, 108153, 108656, 109166, 109659, 110161, 110663, 111151, 111474, 111820, 112119, 112418, 112695, 112974, 113199, 113531, 113813, 114111, 114350, 114724, 114980, 121230, 121708, 122120, 122481, 122945]","[107173, 107673, 108173, 108674, 109174, 109674, 110174, 110674, 111089, 111490, 111834, 112134, 112432, 112709, 112989, 113546, 113826, 114125, 114739, 121162, 121633, 122073, 122496, 122957]",73,SB,U,R,ITMSR,1.1
2,500,practice,0,1,1,1,practice,"['S', 'S', 'S', 'S', 'S', 'S', 'S', 'C', 'C', 'C', 'C', 'C', 'C', 'C', 'C', 'C', 'C', 'C', 'C', 'C', 'C', 'C', 'C', 'C', 'C', 'C', 'C', 'C', 'C', 'C', 'C']","[128695, 129187, 129735, 130270, 130738, 131251, 131755, 132264, 132605, 132907, 133190, 133448, 133731, 134033, 134288, 134602, 134880, 135124, 135373, 135622, 135926, 136190, 136475, 136751, 137240, 137474, 137959, 138209, 138592, 138811, 139072]","[128859, 129326, 129860, 130411, 130873, 131375, 131861, 132391, 132719, 133004, 133275, 133542, 133830, 134121, 134383, 134709, 134982, 135209, 135484, 135739, 136019, 136268, 136598, 136845, 137342, 137590, 138066, 138317, 138680, 138943, 139160]","[100, 242, 176, 218, 11, 195, 174, 233, 223, 160, 98, 176, 187, 152, 163, 225, 166, 183, 238, 216, 172, 117, 200, 236, 8, 254, 249, 8, 45, 24, 25]","[128755, 129245, 129799, 130340, 130800, 131311, 131822, 132332, 132664, 132963, 133240, 133495, 133782, 134067, 134341, 134656, 134932, 135172, 135434, 135683, 135977, 136224, 136538, 136800, 137300, 137526, 138017, 138264, 138602, 138867, 139116]","[128380, 128880, 129380, 129880, 130380, 130880, 131380, 131880, 132284, 132625, 132927, 133210, 133751, 134053, 134622, 134900, 135393, 135946, 136495, 136771, 137261, 137979, 138612, 139092]",73,SB,U,R,ITMSR,1.1
3,500,practice,0,2,2,2,practice,"['S', 'S', 'S', 'S', 'S', 'S', 'S', 'C', 'C', 'C', 'C', 'C', 'C', 'C', 'C', 'C', 'C', 'C', 'C', 'C', 'C', 'C', 'C', 'C', 'C', 'C', 'C']","[144701, 145268, 145807, 146371, 146803, 147314, 147820, 148379, 148792, 149086, 149353, 149682, 149946, 150307, 150549, 151120, 151646, 151889, 152378, 152853, 153373, 153799, 154254, 154693, 155106, 155530, 155952]","[144802, 145416, 145925, 146520, 146960, 147510, 148044, 148504, 148930, 149213, 149426, 149784, 150118, 150400, 150714, 151225, 151733, 152076, 152496, 152942, 153509, 153965, 154413, 154851, 155270, 155708, 156096]","[226, 192, 92, 171, 178, 193, 225, 213, 207, 194, 113, 178, 166, 218, 215, 186, 226, 244, 1, 2, 30, 184, 5, 15, 32, 35, 252]","[144751, 145276, 145867, 146443, 146873, 147407, 147916, 148449, 148862, 149174, 149366, 149691, 150012, 150318, 150627, 151132, 151655, 151898, 152384, 152862, 153380, 153891, 154262, 154702, 155114, 155537, 155959]","[144404, 144903, 145403, 145903, 146403, 146904, 147404, 147904, 148399, 148812, 149106, 149702, 150327, 151140, 151666, 152398, 152873, 153393, 153819, 154274, 154713, 155126, 155550, 155972]",73,SB,U,R,ITMSR,1.1
4,500,practice,0,3,3,3,practice,"['S', 'S', 'S', 'S', 'S', 'S', 'S', 'S', 'C', 'C', 'C', 'C', 'C', 'C', 'C', 'C', 'C', 'C', 'C', 'C', 'C', 'C', 'C', 'C']","[161858, 162233, 162618, 163082, 163624, 164116, 164629, 165137, 165639, 166081, 166546, 166995, 167412, 167882, 168342, 168798, 169249, 169717, 170205, 170643, 171108, 171576, 172037, 172481]","[161989, 162353, 162792, 163354, 163872, 164382, 164894, 165379, 165841, 166300, 166765, 167199, 167615, 168071, 168510, 168982, 169444, 169962, 170412, 170822, 171330, 171807, 172257, 172686]","[238, 98, 176, 55, 181, 212, 206, 217, 251, 226, 232, 22, 10, 239, 217, 7, 229, 250, 18, 26, 27, 4, 182, 225]","[161912, 162307, 162624, 163090, 163770, 164124, 164636, 165146, 165646, 166210, 166554, 167092, 167419, 167889, 168349, 168804, 169256, 169724, 170212, 170648, 171114, 171583, 172044, 172487]","[161701, 162201, 162701, 163202, 163702, 164202, 164702, 165202, 165659, 166102, 166566, 167015, 167432, 167902, 168363, 168818, 169269, 169737, 170225, 170663, 171128, 171596, 172057, 172502]",73,SB,U,R,ITMSR,1.1
5,500,practice,0,4,4,4,practice,"['B', 'S', 'S', 'S', 'S', 'S', 'S', 'S', 'C', 'C', 'C', 'C', 'C', 'C', 'C', 'C', 'C', 'C', 'C', 'C', 'C', 'C', 'C', 'C']","[178010, 178336, 178916, 179425, 179952, 180470, 181007, 181490, 181991, 182510, 183020, 183518, 184011, 184524, 185003, 185504, 185999, 186494, 186972, 187430, 187869, 188300, 188789, 189243]","[178127, 178502, 179098, 179629, 180207, 180754, 181242, 181704, 182225, 182773, 183266, 183755, 184253, 184750, 185214, 185714, 186236, 186740, 187179, 187612, 188057, 188493, 189008, 189401]","[166, 154, 146, 147, 116, 169, 190, 224, 3, 236, 219, 0, 231, 227, 222, 134, 212, 124, 153, 119, 198, 200, 177, 15]","[178030, 178416, 178923, 179526, 179958, 180644, 181014, 181497, 181997, 182517, 183027, 183525, 184017, 184530, 185011, 185511, 186006, 186502, 187065, 187437, 187875, 188403, 188796, 189324]","[178021, 178521, 179021, 179521, 180021, 180521, 181021, 181521, 182011, 182530, 183041, 183538, 184031, 184544, 185023, 185524, 186019, 186514, 186992, 187450, 187889, 188320, 188809, 189263]",73,SB,U,R,ITMSR,1.1
1,500,practice,0,5,5,5,practice,"['S', 'S', 'S', 'S', 'S', 'S', 'S', 'S', 'C', 'C', 'C', 'C', 'C', 'C', 'C', 'C', 'C', 'C', 'C', 'C', 'C', 'C', 'C', 'C']","[194842, 195163, 195608, 196085, 196579, 197084, 197575, 198068, 198572, 199031, 199520, 200007, 200480, 200969, 201445, 201906, 202378, 202873, 203329, 203801, 204271, 204699, 205172, 205611]","[194946, 195316, 195780, 196302, 196795, 197310, 197809, 198290, 198773, 199245, 199735, 200181, 200678, 201182, 201624, 202090, 202577, 203101, 203520, 203979, 204438, 204871, 205300, 205772]","[174, 82, 121, 160, 245, 207, 213, 229, 198, 197, 177, 156, 163, 147, 179, 201, 154, 187, 157, 207, 166, 143, 73, 25]","[194847, 195170, 195615, 196092, 196585, 197090, 197581, 198075, 198579, 199141, 199527, 200014, 200487, 200976, 201453, 201912, 202384, 202880, 203334, 203806, 204277, 204705, 205177, 205618]","[194679, 195178, 195678, 196178, 196678, 197178, 197678, 198178, 198592, 199051, 199540, 200027, 200500, 200989, 201465, 201926, 202398, 202893, 203350, 203821, 204291, 204719, 205192, 205631]",73,SB,U,R,ITMSR,1.1
0,600,trial,0,6,6,6,trial,"['S', 'S', 'S', 'S', 'S', 'S', 'S', 'S', 'C', 'C', 'C', 'C', 'C', 'C', 'C', 'C', 'C', 'C', 'C', 'C', 'C', 'C', 'C', 'C']","[247104, 247444, 248044, 248666, 249321, 249907, 250522, 251116, 251726, 252324, 252950, 253506, 254070, 254629, 255242, 255812, 256362, 256914, 257503, 258024, 258563, 259135, 259676, 260249]","[247200, 247663, 248343, 249009, 249614, 250252, 250824, 251450, 252032, 252636, 253242, 253792, 254348, 254954, 255539, 256047, 256602, 257219, 257787, 258312, 258838, 259410, 259951]","[178, 108, 76, 129, 137, 105, 107, 136, 145, 168, 175, 175, 193, 191, 166, 41, 104, 98, 101, 129, 126, 121, 63]","[247150, 247452, 248248, 248909, 249513, 250151, 250725, 251328, 251914, 252536, 253148, 253644, 254238, 254824, 255423, 255965, 256366, 257118, 257679, 258205, 258727, 259316, 259844]","[246945, 247545, 248145, 248745, 249346, 249946, 250546, 251146, 251746, 252344, 252971, 253527, 254090, 254649, 255262, 255832, 256382, 256934, 257523, 258044, 258583, 259155, 259696, 260269]",73,SB,U,R,ITMSR,1.1
2,600,trial,0,7,7,7,trial,"['B', 'S', 'S', 'S', 'S', 'S', 'S', 'S', 'C', 'C', 'C', 'C', 'C', 'C', 'C', 'C', 'C', 'C', 'C', 'C', 'C', 'C', 'C', 'C']","[265657, 266075, 266722, 267353, 267969, 268588, 269174, 269820, 270445, 270983, 271569, 272145, 272658, 273216, 273734, 274260, 274839, 275347, 275848, 276428, 276922, 277480, 277961, 278529]","[265718, 266373, 266979, 267651, 268270, 268867, 269510, 270128, 270715, 271265, 271824, 272445, 272926, 273534, 274042, 274594, 275087, 275612, 276112, 276708, 277189, 277757, 278208, 278775]","[177, 83, 71, 135, 143, 104, 120, 115, 117, 102, 49, 46, 104, 104, 90, 96, 55, 48, 49, 87, 74, 42, 56, 77]","[265657, 266249, 266890, 267542, 268161, 268772, 269341, 270007, 270610, 271153, 271708, 272300, 272788, 273389, 273920, 274491, 274969, 275474, 275977, 276601, 277092, 277637, 278069, 278674]","[265669, 266269, 266869, 267469, 268069, 268669, 269270, 269869, 270466, 271003, 271589, 272165, 272678, 273236, 273754, 274280, 274860, 275367, 275868, 276448, 276942, 277500, 277981, 278549]",73,SB,U,R,ITMSR,1.1
4,600,trial,0,8,8,8,trial,"['B', 'S', 'S', 'S', 'S', 'S', 'S', 'S', 'C', 'C', 'C', 'C', 'C', 'C', 'C', 'C', 'C', 'C', 'C', 'C', 'C', 'C', 'C', 'C']","[283840, 284256, 284904, 285593, 286254, 286848, 287473, 288006, 288594, 289208, 289802, 290335, 290915, 291489, 292056, 292609, 293127, 293709, 294294, 294854, 295368, 295920, 296440, 297041]","[283960, 284554, 285251, 285902, 286533, 287194, 287737, 288253, 288888, 289502, 290079, 290641, 291205, 291748, 292242, 292874, 293421, 294003, 294585, 295110, 295600, 296196, 296756]","[235, 4, 156, 169, 181, 147, 206, 151, 163, 149, 159, 141, 159, 191, 101, 140, 133, 157, 142, 80, 111, 152, 137]","[283853, 284437, 285133, 285784, 286416, 287029, 287599, 288126, 288770, 289389, 289936, 290509, 291090, 291628, 292147, 292763, 293305, 293894, 294487, 295003, 295500, 296071, 296591]","[283853, 284453, 285053, 285654, 286253, 286853, 287453, 288053, 288614, 289228, 289822, 290355, 290935, 291509, 292076, 292629, 293147, 293729, 294315, 294874, 295388, 295940, 296460, 297061]",73,SB,U,R,ITMSR,1.1
3,400,trial,0,9,9,9,trial,"['S', 'S', 'S', 'S', 'S', 'S', 'S', 'C', 'C', 'C', 'C', 'C', 'C', 'C', 'C', 'C', 'C', 'C', 'C', 'C', 'C', 'C', 'C']","[302770, 303193, 303557, 303962, 304337, 304731, 305107, 305550, 305913, 306266, 306617, 306968, 307353, 307736, 308112, 308480, 308861, 309246, 309627, 310001, 310343, 310685, 311075]","[302950, 303304, 303656, 304047, 304442, 304841, 305244, 305655, 306019, 306363, 306696, 307057, 307435, 307827, 308191, 308556, 308884, 309324, 309647, 310050, 310424, 310758, 311159]","[17, 5, 72, 108, 145, 117, 95, 93, 152, 116, 143, 99, 51, 184, 234, 63, 24, 135, 133, 14, 130, 126, 162]","[302875, 303198, 303564, 303968, 304344, 304738, 305115, 305558, 305921, 306273, 306624, 306975, 307360, 307743, 308118, 308485, 308867, 309253, 309632, 310007, 310352, 310692, 311084]","[302394, 302793, 303193, 303593, 303993, 304393, 304793, 305193, 305570, 305933, 306286, 306637, 306989, 307373, 307757, 308132, 308500, 308881, 309266, 309647, 310021, 310363, 310705, 311095]",73,SB,U,R,ITMSR,1.1
3,400,trial,0,10,10,10,trial,"['S', 'S', 'S', 'S', 'S', 'S', 'S', 'S', 'C', 'C', 'C', 'C', 'C', 'C', 'C', 'C', 'C', 'C', 'C', 'C', 'C', 'C', 'C', 'C']","[316673, 317053, 317382, 317703, 318080, 318455, 318820, 319223, 319641, 319968, 320261, 320572, 320897, 321211, 321515, 321811, 322130, 322448, 322808, 323136, 323479, 323827, 324148, 324497]","[316772, 317161, 317494, 317816, 318183, 318577, 318961, 319377, 319761, 320067, 320352, 320683, 320988, 321316, 321592, 321902, 322232, 322581, 322896, 323240, 323570, 323934, 324245, 324585]","[195, 119, 79, 107, 59, 155, 122, 25, 32, 72, 150, 103, 42, 248, 239, 240, 111, 160, 68, 53, 101, 74, 145, 87]","[316729, 317106, 317390, 317711, 318087, 318462, 318827, 319232, 319649, 319975, 320268, 320580, 320904, 321217, 321522, 321819, 322137, 322521, 322816, 323142, 323487, 323834, 324156, 324504]","[316541, 316940, 317340, 317741, 318141, 318541, 318941, 319341, 319661, 319988, 320281, 320592, 320917, 321231, 321536, 321831, 322150, 322468, 322828, 323156, 323500, 323847, 324168, 324517]",73,SB,U,R,ITMSR,1.1
0,400,trial,0,11,11,11,trial,"['S', 'S', 'S', 'S', 'S', 'S', 'S', 'C', 'C', 'C', 'C', 'C', 'C', 'C', 'C', 'C', 'C', 'C', 'C', 'C', 'C', 'C', 'C']","[330397, 330853, 331228, 331606, 332002, 332385, 332793, 333188, 333560, 333957, 334340, 334707, 335090, 335452, 335816, 336182, 336534, 336921, 337276, 337634, 337997, 338385, 338748]","[330567, 331000, 331357, 331736, 332137, 332556, 332931, 333336, 333698, 334101, 334477, 334833, 335203, 335550, 335925, 336261, 336642, 337015, 337392, 337725, 338122, 338485, 338856]","[206, 155, 228, 213, 15, 47, 121, 7, 6, 194, 229, 37, 239, 250, 239, 222, 162, 109, 196, 191, 227, 100, 201]","[330405, 330946, 331236, 331614, 332009, 332391, 332798, 333194, 333566, 333964, 334348, 334715, 335097, 335460, 335823, 336189, 336542, 336929, 337286, 337643, 338004, 338436, 338793]","[330095, 330496, 330895, 331295, 331695, 332095, 332495, 332895, 333208, 333580, 333977, 334360, 334727, 335110, 335472, 335836, 336202, 336555, 336941, 337296, 337654, 338017, 338405, 338768]",73,SB,U,R,ITMSR,1.1
1,600,trial,0,12,12,12,trial,"['S', 'S', 'S', 'S', 'S', 'S', 'S', 'S', 'C', 'C', 'C', 'C', 'C', 'C', 'C', 'C', 'C', 'C', 'C', 'C', 'C', 'C', 'C', 'C']","[344579, 344852, 345388, 346106, 346757, 347350, 347950, 348521, 349132, 349589, 350067, 350520, 350910, 351339, 351735, 352124, 352563, 353121, 353569, 354002, 354415, 354856, 355274, 355696]","[344658, 344944, 345538, 346243, 346869, 347466, 348058, 348625, 349229, 349716, 350195, 350623, 351014, 351456, 351854, 352212, 352683, 353196, 353665, 354085, 354505, 354954, 355392, 355810]","[198, 160, 82, 167, 113, 114, 152, 215, 173, 202, 51, 254, 36, 23, 223, 54, 47, 23, 78, 64, 176, 222, 128, 152]","[344629, 344860, 345396, 346182, 346763, 347423, 347956, 348529, 349140, 349666, 350074, 350528, 350916, 351347, 351744, 352175, 352571, 353124, 353575, 354046, 354420, 354864, 355282, 355746]","[344446, 345047, 345646, 346246, 346846, 347446, 348046, 348646, 349152, 349609, 350087, 350540, 350930, 351360, 351755, 352144, 352583, 353141, 353589, 354022, 354435, 354876, 355294, 355716]",73,SB,U,R,ITMSR,1.1
4,600,trial,0,13,13,13,trial,"['S', 'S', 'S', 'S', 'S', 'S', 'S', 'S', 'C', 'C', 'C', 'C', 'C', 'C', 'C', 'C', 'C', 'C', 'C', 'C', 'C', 'C', 'C', 'C']","[361137, 361465, 362153, 362795, 363416, 363991, 364601, 365181, 365765, 366366, 366927, 367547, 368033, 368618, 369199, 369756, 370329, 370866, 371394, 372038, 372599, 373115, 373662, 374195]","[361238, 361805, 362455, 363128, 363711, 364298, 364921, 365509, 366041, 366707, 367236, 367796, 368263, 368906, 369394, 369941, 370540, 371197, 371671, 372262, 372817, 373334, 373807, 374402]","[173, 17, 20, 3, 56, 236, 22, 245, 188, 143, 201, 231, 186, 226, 119, 101, 119, 191, 192, 162, 229, 180, 88, 156]","[361187, 361705, 362355, 362932, 363629, 364210, 364809, 365415, 365948, 366546, 367092, 367700, 368185, 368803, 369337, 369847, 370481, 371146, 371584, 372201, 372756, 373255, 373737, 374322]","[361020, 361619, 362219, 362819, 363419, 364019, 364619, 365219, 365785, 366386, 366947, 367567, 368053, 368638, 369219, 369776, 370349, 370886, 371415, 372058, 372619, 373135, 373682, 374215]",73,SB,U,R,ITMSR,1.1
1,400,trial,0,14,14,14,trial,"['S', 'S', 'S', 'S', 'S', 'S', 'S', 'C', 'C', 'C', 'C', 'C', 'C', 'C', 'C', 'C', 'C', 'C', 'C', 'C', 'C', 'C', 'C']","[380177, 380554, 381016, 381445, 381864, 382237, 382694, 383078, 383435, 383844, 384258, 384599, 384980, 385347, 385741, 386131, 386473, 386820, 387218, 387634, 387998, 388347, 388725]","[380341, 380697, 381127, 381542, 381917, 382379, 382809, 383187, 383534, 383942, 384343, 384710, 385088, 385465, 385844, 386214, 386556, 386919, 387298, 387732, 388100, 388444, 388815]","[205, 168, 155, 138, 95, 213, 178, 202, 145, 117, 141, 139, 116, 123, 122, 187, 2, 196, 183, 15, 184, 180, 241]","[380272, 380649, 381060, 381487, 381874, 382245, 382738, 383141, 383444, 383907, 384267, 384609, 385042, 385417, 385800, 386140, 386481, 386829, 387227, 387640, 388005, 388356, 388732]","[379972, 380372, 380772, 381172, 381572, 381972, 382372, 382772, 383098, 383455, 383864, 384278, 384619, 385000, 385368, 385761, 386151, 386493, 386840, 387238, 387654, 388018, 388367, 388745]",73,SB,U,R,ITMSR,1.1
1,600,trial,0,15,15,15,trial,"['B', 'S', 'S', 'S', 'S', 'S', 'S', 'S', 'C', 'C', 'C', 'C', 'C', 'C', 'C', 'C', 'C', 'C', 'C', 'C', 'C', 'C', 'C', 'C']","[394489, 394926, 395592, 396217, 396818, 397387, 398058, 398623, 399206, 399807, 400354, 400910, 401425, 401966, 402496, 403023, 403517, 404088, 404550, 405044, 405460, 405986, 406479, 406990]","[394615, 395138, 395817, 396475, 397056, 397656, 398189, 398844, 399355, 399991, 400532, 401069, 401598, 402136, 402650, 403192, 403698, 404211, 404688, 405146, 405578, 406105, 406604, 407109]","[91, 115, 128, 122, 118, 120, 147, 223, 78, 83, 177, 134, 84, 87, 38, 69, 47, 111, 42, 205, 44, 19, 3, 2]","[394575, 395070, 395774, 396398, 396960, 397583, 398130, 398763, 399304, 399891, 400461, 401002, 401545, 401974, 402501, 403126, 403628, 404097, 404630, 405076, 405532, 405993, 406555, 407068]","[394501, 395100, 395700, 396300, 396900, 397500, 398100, 398700, 399226, 399827, 400374, 400930, 401445, 401986, 402516, 403043, 403537, 404108, 404570, 405064, 405480, 406006, 406499, 407010]",73,SB,U,R,ITMSR,1.1
5,400,trial,0,16,16,16,trial,"['S', 'S', 'S', 'S', 'S', 'S', 'S', 'C', 'C', 'C', 'C', 'C', 'C', 'C', 'C', 'C', 'C', 'C', 'C', 'C', 'C', 'C', 'C']","[413128, 413505, 413870, 414247, 414656, 415056, 415451, 415852, 416250, 416630, 417036, 417397, 417805, 418198, 418580, 418944, 419292, 419677, 420044, 420426, 420782, 421167, 421530]","[413266, 413617, 413961, 414351, 414748, 415155, 415545, 415956, 416350, 416730, 417119, 417499, 417903, 418305, 418675, 419039, 419406, 419772, 420151, 420524, 420886, 421265, 421651]","[38, 18, 205, 255, 15, 17, 6, 25, 88, 55, 34, 64, 131, 73, 33, 95, 19, 43, 56, 44, 84, 71, 92]","[413211, 413569, 413918, 414295, 414664, 415065, 415459, 415860, 416258, 416638, 417044, 417404, 417813, 418205, 418587, 418952, 419299, 419684, 420052, 420434, 420790, 421174, 421538]","[412705, 413104, 413504, 413904, 414304, 414704, 415105, 415504, 415873, 416270, 416650, 417056, 417417, 417825, 418219, 418600, 418964, 419312, 419697, 420064, 420446, 420802, 421187, 421550]",73,SB,U,R,ITMSR,1.1
4,400,trial,0,17,17,17,trial,"['S', 'S', 'S', 'S', 'S', 'S', 'S', 'S', 'C', 'C', 'C', 'C', 'C', 'C', 'C', 'C', 'C', 'C', 'C', 'C', 'C', 'C', 'C', 'C']","[427112, 427444, 427761, 428116, 428496, 428886, 429274, 429654, 430038, 430415, 430821, 431209, 431556, 431943, 432299, 432683, 433038, 433411, 433768, 434149, 434494, 434848, 435223, 435585]","[427204, 427543, 427855, 428219, 428613, 429010, 429395, 429800, 430164, 430531, 430923, 431300, 431646, 432034, 432398, 432774, 433119, 433492, 433859, 434246, 434592, 434970, 435344, 435688]","[11, 62, 77, 28, 91, 41, 131, 127, 52, 79, 52, 116, 56, 128, 153, 93, 127, 90, 71, 139, 121, 121, 58, 135]","[427150, 427451, 427769, 428125, 428505, 428896, 429280, 429660, 430120, 430424, 430829, 431215, 431564, 431951, 432305, 432690, 433045, 433418, 433776, 434156, 434501, 434855, 435230, 435591]","[426948, 427348, 427748, 428148, 428548, 428948, 429348, 429748, 430058, 430435, 430841, 431229, 431576, 431963, 432319, 432703, 433058, 433431, 433788, 434169, 434514, 434868, 435244, 435605]",73,SB,U,R,ITMSR,1.1
1,400,trial,0,18,18,18,trial,"['S', 'S', 'S', 'S', 'S', 'S', 'S', 'C', 'C', 'C', 'C', 'C', 'C', 'C', 'C', 'C', 'C', 'C', 'C', 'C', 'C', 'C', 'C']","[441431, 441847, 442215, 442596, 443019, 443419, 443795, 444169, 444528, 444884, 445267, 445673, 446043, 446412, 446789, 447165, 447533, 447897, 448261, 448675, 449026, 449382, 449757]","[441585, 441940, 442313, 442681, 443077, 443498, 443889, 444276, 444621, 444969, 445369, 445754, 446134, 446491, 446891, 447242, 447635, 447998, 448374, 448753, 449117, 449466, 449848]","[20, 33, 39, 4, 25, 75, 83, 127, 153, 126, 79, 69, 92, 109, 133, 110, 134, 56, 176, 121, 181, 151, 157]","[441437, 441853, 442222, 442602, 443026, 443426, 443801, 444175, 444533, 444890, 445275, 445680, 446050, 446419, 446794, 447171, 447540, 447903, 448267, 448681, 449031, 449388, 449762]","[441077, 441477, 441877, 442277, 442677, 443077, 443478, 443877, 444189, 444548, 444904, 445287, 445693, 446063, 446432, 446809, 447185, 447553, 447917, 448281, 448695, 449046, 449402, 449777]",73,SB,U,R,ITMSR,1.1
0,600,trial,0,19,19,19,trial,"['S', 'S', 'S', 'S', 'S', 'S', 'S', 'S', 'C', 'C', 'C', 'C', 'C', 'C', 'C', 'C', 'C', 'C', 'C', 'C', 'C', 'C', 'C', 'C']","[455410, 455670, 456263, 456930, 457503, 458119, 458685, 459275, 459858, 460414, 460975, 461509, 462049, 462577, 463110, 463629, 464174, 464733, 465249, 465762, 466242, 466754, 467305, 467775]","[455482, 455924, 456600, 457225, 457828, 458421, 458994, 459592, 460088, 460651, 461163, 461742, 462277, 462835, 463392, 463911, 464475, 465015, 465467, 465969, 466457, 466994, 467494, 467976]","[192, 102, 159, 174, 184, 159, 161, 107, 129, 80, 49, 75, 24, 83, 124, 127, 125, 128, 75, 116, 124, 138, 95, 68]","[455416, 455760, 456510, 457135, 457741, 458310, 458914, 459491, 460033, 460558, 461102, 461672, 462190, 462743, 463301, 463834, 464387, 464919, 465356, 465894, 466397, 466929, 467421, 467906]","[455224, 455823, 456423, 457023, 457623, 458223, 458823, 459423, 459878, 460434, 460995, 461529, 462069, 462597, 463130, 463649, 464194, 464753, 465269, 465782, 466263, 466775, 467325, 467795]",73,SB,U,R,ITMSR,1.1
3,600,trial,0,20,20,20,trial,"['S', 'S', 'S', 'S', 'S', 'S', 'S', 'S', 'C', 'C', 'C', 'C', 'C', 'C', 'C', 'C', 'C', 'C', 'C', 'C', 'C', 'C', 'C', 'C']","[473394, 473742, 474313, 474970, 475573, 476194, 476804, 477448, 478047, 478596, 479176, 479781, 480372, 480923, 481484, 482004, 482526, 483096, 483638, 484254, 484794, 485324, 485841, 486387]","[473526, 474027, 474656, 475284, 475892, 476514, 477116, 477715, 478309, 478887, 479462, 480062, 480635, 481176, 481691, 482217, 482763, 483312, 483902, 484495, 484989, 485526, 486036, 486595]","[49, 129, 149, 111, 94, 107, 99, 56, 39, 51, 71, 45, 38, 65, 25, 48, 42, 48, 21, 20, 16, 35, 41, 60]","[473450, 473918, 474583, 475213, 475803, 476437, 477016, 477632, 478174, 478604, 479183, 479789, 480548, 481081, 481490, 482013, 482533, 483102, 483645, 484415, 484896, 485456, 485946, 486533]","[473247, 473846, 474446, 475046, 475646, 476247, 476846, 477446, 478067, 478616, 479196, 479801, 480392, 480943, 481504, 482024, 482546, 483117, 483658, 484274, 484814, 485344, 485861, 486407]",73,SB,U,R,ITMSR,1.1
5,600,trial,0,21,21,21,trial,"['S', 'S', 'S', 'S', 'S', 'S', 'S', 'S', 'C', 'C', 'C', 'C', 'C', 'C', 'C', 'C', 'C', 'C', 'C', 'C', 'C', 'C', 'C', 'C']","[492065, 492444, 493032, 493607, 494249, 494831, 495434, 496008, 496587, 497144, 497724, 498281, 498797, 499338, 499897, 500426, 500915, 501442, 501994, 502526, 503029, 503549, 504081, 504613]","[492106, 492649, 493192, 493775, 494406, 495001, 495574, 496172, 496724, 497284, 497829, 498405, 498937, 499475, 500024, 500569, 501047, 501542, 502117, 502635, 503139, 503658, 504185, 504718]","[22, 137, 77, 117, 113, 108, 121, 84, 223, 247, 234, 58, 19, 3, 216, 4, 24, 133, 9, 9, 211, 188, 176, 160]","[492076, 492570, 493040, 493706, 494339, 494929, 495516, 496123, 496596, 497229, 497780, 498361, 498880, 499421, 499969, 500509, 500921, 501499, 502066, 502587, 503092, 503612, 504137, 504663]","[491886, 492486, 493086, 493686, 494286, 494886, 495486, 496087, 496607, 497164, 497744, 498301, 498818, 499358, 499917, 500446, 500935, 501463, 502014, 502546, 503049, 503569, 504101, 504633]",73,SB,U,R,ITMSR,1.1
2,400,trial,0,22,22,22,trial,"['S', 'S', 'S', 'S', 'S', 'S', 'S', 'C', 'C', 'C', 'C', 'C', 'C', 'C', 'C', 'C', 'C', 'C', 'C', 'C', 'C', 'C', 'C']","[510662, 511102, 511509, 511805, 512167, 512570, 512970, 513362, 513670, 514030, 514386, 514738, 515079, 515431, 515769, 516131, 516465, 516816, 517146, 517458, 517826, 518172, 518513]","[510802, 511209, 511602, 511894, 512262, 512652, 513064, 513453, 513777, 514112, 514466, 514830, 515159, 515504, 515866, 516198, 516553, 516888, 517243, 517561, 517910, 518249, 518607]","[56, 247, 237, 174, 89, 231, 84, 106, 104, 69, 22, 64, 246, 45, 28, 19, 21, 20, 65, 46, 79, 26, 40]","[510740, 511170, 511560, 511812, 512175, 512577, 512977, 513371, 513677, 514038, 514394, 514743, 515087, 515439, 515778, 516141, 516473, 516826, 517153, 517512, 517833, 518179, 518520]","[510262, 510662, 511063, 511462, 511862, 512262, 512662, 513062, 513382, 513690, 514050, 514406, 514758, 515099, 515451, 515789, 516151, 516485, 516836, 517166, 517478, 517847, 518192, 518533]",73,SB,U,R,ITMSR,1.1
5,600,trial,0,23,23,23,trial,"['S', 'S', 'S', 'S', 'S', 'S', 'S', 'C', 'C', 'C', 'C', 'C', 'C', 'C', 'C', 'C', 'C', 'C', 'C', 'C', 'C', 'C', 'C']","[524506, 525193, 525893, 526456, 527090, 527657, 528278, 528825, 529420, 529973, 530560, 531088, 531607, 532158, 532704, 533196, 533705, 534276, 534773, 535299, 535772, 536320, 536774]","[524654, 525374, 525990, 526578, 527222, 527779, 528381, 528958, 529561, 530123, 530705, 531223, 531745, 532287, 532834, 533345, 533865, 534371, 534888, 535372, 535882, 536398, 536869]","[62, 21, 161, 193, 254, 243, 65, 44, 30, 14, 10, 221, 226, 219, 2, 215, 208, 15, 206, 176, 243, 212, 219]","[524512, 525302, 525945, 526509, 527098, 527729, 528286, 528832, 529499, 530072, 530568, 531165, 531615, 532166, 532711, 533293, 533799, 534283, 534781, 535307, 535780, 536325, 536782]","[524129, 524729, 525329, 525929, 526529, 527129, 527729, 528329, 528845, 529440, 529993, 530580, 531108, 531628, 532178, 532724, 533216, 533725, 534296, 534793, 535319, 535792, 536340, 536794]",73,SB,U,R,ITMSR,1.1
4,400,trial,0,24,24,24,trial,"['S', 'S', 'S', 'S', 'S', 'S', 'S', 'S', 'C', 'C', 'C', 'C', 'C', 'C', 'C', 'C', 'C', 'C', 'C', 'C', 'C', 'C', 'C', 'C']","[542500, 542897, 543257, 543576, 543942, 544318, 544735, 545107, 545523, 545905, 546273, 546648, 547051, 547418, 547781, 548155, 548487, 548873, 549242, 549601, 549956, 550311, 550677, 551029]","[542594, 543001, 543335, 543668, 544037, 544416, 544833, 545212, 545637, 546002, 546373, 546774, 547149, 547526, 547880, 548257, 548611, 548970, 549337, 549681, 550025, 550397, 550756, 551134]","[20, 239, 163, 227, 36, 5, 29, 76, 91, 123, 109, 134, 148, 143, 156, 168, 154, 159, 147, 124, 179, 138, 141, 191]","[542551, 542956, 543266, 543583, 543948, 544324, 544742, 545115, 545530, 545913, 546280, 546654, 547057, 547424, 547787, 548161, 548494, 548880, 549250, 549608, 549963, 550319, 550684, 551035]","[542396, 542795, 543195, 543595, 543995, 544395, 544795, 545196, 545543, 545925, 546293, 546668, 547072, 547438, 547801, 548175, 548507, 548893, 549262, 549621, 549976, 550331, 550697, 551049]",73,SB,U,R,ITMSR,1.1
2,400,trial,0,25,25,25,trial,"['S', 'S', 'S', 'S', 'S', 'S', 'S', 'C', 'C', 'C', 'C', 'C', 'C', 'C', 'C', 'C', 'C', 'C', 'C', 'C', 'C', 'C', 'C']","[557227, 557626, 557998, 558364, 558756, 559149, 559541, 559925, 560296, 560697, 561077, 561427, 561815, 562198, 562564, 562936, 563300, 563670, 564035, 564423, 564784, 565145, 565516]","[557340, 557725, 558104, 558467, 558855, 559259, 559649, 560062, 560438, 560812, 561186, 561548, 561910, 562289, 562667, 563038, 563399, 563789, 564137, 564511, 564884, 565257, 565629]","[114, 122, 146, 112, 56, 100, 124, 143, 142, 103, 98, 141, 88, 81, 90, 106, 143, 119, 144, 99, 126, 148, 163]","[557234, 557633, 558004, 558370, 558764, 559155, 559548, 559931, 560303, 560704, 561084, 561434, 561822, 562204, 562571, 562944, 563307, 563677, 564042, 564430, 564791, 565151, 565523]","[556844, 557242, 557642, 558042, 558442, 558842, 559242, 559642, 559945, 560316, 560717, 561097, 561447, 561836, 562219, 562584, 562956, 563320, 563690, 564056, 564443, 564804, 565165, 565536]",73,SB,U,R,ITMSR,1.1
3,600,trial,0,26,26,26,trial,"['S', 'S', 'S', 'S', 'S', 'S', 'S', 'S', 'C', 'C', 'C', 'C', 'C', 'C', 'C', 'C', 'C', 'C', 'C', 'C', 'C', 'C', 'C', 'C']","[571128, 571433, 572072, 572713, 573319, 573923, 574515, 575104, 575700, 576282, 576845, 577444, 577959, 578506, 579048, 579567, 580085, 580611, 581114, 581683, 582211, 582784, 583324, 583857]","[571193, 571652, 572346, 573008, 573595, 574201, 574780, 575361, 575933, 576517, 577092, 577650, 578165, 578724, 579251, 579739, 580243, 580795, 581305, 581885, 582409, 583012, 583474, 583991]","[123, 70, 81, 89, 98, 71, 5, 94, 48, 101, 201, 250, 28, 189, 48, 121, 225, 38, 128, 24, 227, 9, 159, 129]","[571134, 571586, 572257, 572950, 573324, 573929, 574522, 575109, 575707, 576286, 577003, 577451, 577966, 578510, 579053, 579572, 580092, 580616, 581120, 581687, 582216, 582791, 583397, 583863]","[570974, 571574, 572174, 572774, 573374, 573974, 574574, 575174, 575720, 576302, 576865, 577464, 577979, 578526, 579068, 579587, 580105, 580631, 581134, 581703, 582232, 582804, 583344, 583877]",73,SB,U,R,ITMSR,1.1
2,600,trial,0,27,27,27,trial,"['S', 'S', 'S', 'S', 'S', 'S', 'S', 'S', 'C', 'C', 'C', 'C', 'C', 'C', 'C', 'C', 'C', 'C', 'C', 'C', 'C', 'C', 'C', 'C']","[589749, 590135, 590643, 591251, 591856, 592466, 593060, 593686, 594280, 594767, 595228, 595784, 596298, 596849, 597411, 597974, 598463, 599041, 599581, 600076, 600617, 601060, 601567, 602023]","[589847, 590326, 590977, 591555, 592164, 592745, 593362, 593972, 594461, 594956, 595445, 596042, 596523, 597028, 597590, 598159, 598642, 599213, 599731, 600221, 600720, 601248, 601697, 602158]","[141, 47, 120, 123, 163, 170, 177, 123, 97, 117, 129, 128, 74, 3, 91, 78, 44, 59, 222, 77, 156, 78, 139, 7]","[589756, 590256, 590649, 591258, 591863, 592473, 593067, 593866, 594394, 594775, 595234, 595790, 596474, 596929, 597417, 597980, 598470, 599138, 599665, 600159, 600625, 601179, 601636, 602101]","[589578, 590178, 590778, 591378, 591978, 592578, 593178, 593778, 594300, 594787, 595248, 595804, 596318, 596869, 597431, 597994, 598483, 599061, 599601, 600096, 600637, 601080, 601587, 602043]",73,SB,U,R,ITMSR,1.1
0,400,trial,0,28,28,28,trial,"['S', 'S', 'S', 'S', 'S', 'S', 'S', 'C', 'C', 'C', 'C', 'C', 'C', 'C', 'C', 'C', 'C', 'C', 'C', 'C', 'C', 'C', 'C']","[607947, 608355, 608756, 609126, 609540, 609910, 610286, 610676, 611015, 611366, 611759, 612121, 612491, 612849, 613188, 613535, 613890, 614262, 614632, 615003, 615353, 615704, 616065]","[608124, 608483, 608822, 609215, 609641, 610003, 610385, 610778, 611106, 611462, 611848, 612205, 612579, 612932, 613278, 613617, 613979, 614353, 614719, 615077, 615435, 615780, 616139]","[139, 190, 39, 135, 74, 27, 17, 231, 235, 242, 1, 245, 228, 232, 231, 17, 193, 22, 230, 11, 27, 235, 186]","[608050, 608362, 608761, 609130, 609545, 609915, 610291, 610682, 611021, 611372, 611763, 612126, 612496, 612855, 613194, 613541, 613894, 614268, 614638, 615008, 615357, 615709, 616070]","[607568, 607968, 608368, 608769, 609168, 609568, 609968, 610368, 610696, 611035, 611386, 611779, 612141, 612511, 612869, 613208, 613555, 613910, 614282, 614652, 615023, 615373, 615725, 616085]",73,SB,U,R,ITMSR,1.1
5,400,trial,0,29,29,29,trial,"['S', 'S', 'S', 'S', 'S', 'S', 'S', 'C', 'C', 'C', 'C', 'C', 'C', 'C', 'C', 'C', 'C', 'C', 'C', 'C', 'C', 'C', 'C']","[621857, 622324, 622756, 623181, 623582, 623981, 624393, 624798, 625168, 625552, 625925, 626314, 626674, 627053, 627385, 627755, 628123, 628497, 628846, 629215, 629496, 629892, 630263]","[621981, 622438, 622855, 623300, 623686, 624089, 624508, 624894, 625264, 625650, 626020, 626396, 626755, 627129, 627479, 627841, 628197, 628564, 628907, 629235, 629615, 629933, 630353]","[168, 33, 255, 52, 67, 75, 108, 52, 96, 129, 61, 108, 76, 89, 31, 18, 47, 239, 28, 179, 135, 243, 118]","[621913, 622331, 622764, 623187, 623589, 623988, 624399, 624804, 625175, 625558, 625932, 626319, 626679, 627059, 627392, 627761, 628129, 628503, 628854, 629221, 629501, 629899, 630269]","[621647, 622047, 622447, 622848, 623247, 623647, 624047, 624447, 624818, 625188, 625572, 625945, 626334, 626694, 627074, 627405, 627775, 628143, 628517, 628866, 629235, 629516, 629912, 630283]",73,SB,U,R,ITMSR,1.1
0,400,trial,0,30,30,30,trial,"['S', 'S', 'S', 'S', 'S', 'S', 'S', 'C', 'C', 'C', 'C', 'C', 'C', 'C', 'C', 'C', 'C', 'C', 'C', 'C', 'C', 'C', 'C']","[655190, 655648, 656076, 656523, 656959, 657331, 657698, 658073, 658426, 658828, 659206, 659573, 659983, 660365, 660708, 661132, 661513, 661890, 662268, 662662, 663049, 663422, 663819]","[655301, 655784, 656218, 656641, 657078, 657446, 657827, 658193, 658545, 658937, 659302, 659684, 660071, 660471, 660827, 661213, 661602, 661978, 662346, 662731, 663133, 663503, 663901]","[184, 178, 185, 81, 152, 205, 178, 165, 139, 152, 152, 194, 178, 193, 208, 173, 215, 211, 198, 124, 215, 156, 202]","[655245, 655709, 656156, 656577, 656966, 657337, 657704, 658079, 658433, 658835, 659212, 659579, 659989, 660371, 660715, 661138, 661519, 661896, 662274, 662670, 663054, 663429, 663825]","[654956, 655356, 655756, 656156, 656557, 656957, 657357, 657757, 658093, 658446, 658848, 659226, 659593, 660003, 660385, 660728, 661152, 661533, 661910, 662288, 662682, 663069, 663442, 663839]",73,SB,U,R,ITMSR,1.1
5,600,trial,0,31,31,31,trial,"['S', 'S', 'S', 'S', 'S', 'S', 'S', 'C', 'C', 'C', 'C', 'C', 'C', 'C', 'C', 'C', 'C', 'C', 'C', 'C', 'C', 'C', 'C']","[669204, 670227, 670948, 671564, 672149, 672739, 673318, 673900, 674501, 675005, 675585, 676201, 676708, 677293, 677823, 678376, 678937, 679489, 680016, 680523, 681076, 681568, 682097]","[669279, 670399, 671111, 671676, 672242, 672791, 673419, 673988, 674545, 675109, 675658, 676273, 676790, 677364, 677899, 678462, 679022, 679566, 680095, 680614, 681128, 681692, 682175]","[73, 196, 204, 12, 42, 17, 90, 159, 115, 118, 127, 138, 152, 60, 134, 131, 157, 89, 74, 111, 57, 131, 151]","[669211, 670348, 671062, 671571, 672156, 672748, 673326, 673907, 674507, 675012, 675592, 676207, 676715, 677301, 677831, 678382, 678944, 679496, 680025, 680529, 681082, 681575, 682103]","[669148, 669748, 670348, 670948, 671548, 672148, 672748, 673348, 673921, 674521, 675025, 675605, 676221, 676728, 677313, 677843, 678396, 678957, 679510, 680036, 680543, 681096, 681588, 682117]",73,SB,U,R,ITMSR,1.1
2,600,trial,0,32,32,32,trial,"['S', 'S', 'S', 'S', 'S', 'S', 'S', 'C', 'C', 'C', 'C', 'C', 'C', 'C', 'C', 'C', 'C', 'C', 'C', 'C', 'C', 'C', 'C']","[688180, 688818, 689495, 690068, 690697, 691275, 691896, 692484, 693028, 693572, 694202, 694712, 695233, 695766, 696256, 696766, 697209, 697777, 698285, 698795, 699301, 699797, 700340]","[688285, 688948, 689601, 690195, 690775, 691362, 691981, 692560, 693090, 693676, 694289, 694801, 695332, 695857, 696377, 696855, 697315, 697890, 698400, 698918, 699416, 699913, 700425]","[118, 47, 61, 46, 39, 45, 34, 19, 19, 11, 241, 88, 99, 65, 63, 79, 119, 255, 67, 53, 38, 82, 3]","[688187, 688826, 689503, 690076, 690705, 691283, 691903, 692491, 693037, 693581, 694211, 694719, 695239, 695773, 696264, 696773, 697216, 697785, 698294, 698870, 699309, 699860, 700349]","[687774, 688374, 688974, 689574, 690174, 690775, 691374, 691974, 692504, 693048, 693592, 694222, 694732, 695254, 695786, 696276, 696786, 697229, 697797, 698305, 698815, 699321, 699817, 700360]",73,SB,U,R,ITMSR,1.1
4,400,trial,0,33,33,33,trial,"['B', 'S', 'S', 'S', 'S', 'S', 'S', 'S', 'C', 'C', 'C', 'C', 'C', 'C', 'C', 'C', 'C', 'C', 'C', 'C', 'C', 'C', 'C', 'C']","[705744, 706204, 706590, 706930, 707290, 707704, 708105, 708496, 708898, 709269, 709659, 710021, 710420, 710791, 711141, 711538, 711907, 712278, 712678, 713047, 713456, 713829, 714229, 714567]","[705874, 706361, 706710, 707042, 707393, 707795, 708213, 708617, 709008, 709385, 709761, 710134, 710518, 710900, 711256, 711632, 712009, 712399, 712751, 713165, 713564, 713946, 714328, 714699]","[247, 226, 37, 8, 54, 162, 84, 103, 79, 111, 82, 93, 78, 94, 130, 105, 59, 75, 35, 65, 21, 41, 177, 39]","[705767, 706310, 706599, 706994, 707297, 707709, 708111, 708502, 708905, 709274, 709666, 710026, 710427, 710797, 711147, 711544, 711914, 712285, 712683, 713054, 713512, 713837, 714237, 714574]","[705757, 706157, 706557, 706957, 707357, 707757, 708157, 708557, 708918, 709289, 709679, 710041, 710440, 710811, 711161, 711558, 711927, 712298, 712698, 713067, 713476, 713849, 714249, 714587]",73,SB,U,R,ITMSR,1.1
4,600,trial,0,34,34,34,trial,"['S', 'S', 'S', 'S', 'S', 'S', 'S', 'C', 'C', 'C', 'C', 'C', 'C', 'C', 'C', 'C', 'C', 'C', 'C', 'C', 'C', 'C', 'C']","[720304, 721132, 721814, 722450, 723074, 723617, 724201, 724788, 725337, 725917, 726458, 727004, 727527, 728049, 728541, 729080, 729632, 730149, 730691, 731168, 731671, 732212, 732701]","[720503, 721288, 721983, 722606, 723194, 723741, 724298, 724885, 725441, 726007, 726558, 727110, 727657, 728179, 728683, 729236, 729782, 730304, 730828, 731323, 731826, 732340, 732831]","[181, 179, 191, 184, 122, 138, 138, 76, 120, 85, 102, 126, 137, 145, 144, 150, 146, 147, 147, 159, 161, 144, 151]","[720441, 721219, 721930, 722540, 723155, 723698, 724210, 724835, 725388, 725963, 726518, 727064, 727606, 728135, 728615, 729171, 729730, 730256, 730787, 731258, 731741, 732291, 732786]","[720119, 720719, 721319, 721920, 722520, 723120, 723720, 724320, 724808, 725357, 725937, 726478, 727024, 727547, 728069, 728561, 729100, 729652, 730169, 730712, 731188, 731692, 732232, 732721]",73,SB,U,R,ITMSR,1.1
2,400,trial,0,35,35,35,trial,"['S', 'S', 'S', 'S', 'S', 'S', 'S', 'C', 'C', 'C', 'C', 'C', 'C', 'C', 'C', 'C', 'C', 'C', 'C', 'C', 'C', 'C', 'C']","[738884, 739280, 739623, 740022, 740428, 740824, 741213, 741614, 741986, 742380, 742738, 743112, 743467, 743830, 744169, 744555, 744914, 745262, 745638, 745973, 746344, 746676, 747061]","[739003, 739400, 739728, 740146, 740531, 740935, 741329, 741747, 742112, 742473, 742846, 743217, 743567, 743940, 744295, 744634, 745016, 745373, 745729, 746083, 746456, 746808, 747164]","[78, 156, 95, 66, 228, 159, 168, 178, 14, 217, 11, 15, 241, 62, 242, 204, 31, 13, 229, 37, 214, 241, 55]","[738941, 739343, 739631, 740030, 740435, 740831, 741219, 741619, 741993, 742388, 742746, 743118, 743473, 743837, 744177, 744564, 744922, 745270, 745648, 745981, 746354, 746683, 747068]","[738499, 738899, 739299, 739699, 740099, 740499, 740899, 741299, 741634, 742006, 742401, 742758, 743132, 743487, 743851, 744189, 744576, 744934, 745282, 745658, 745993, 746364, 746696, 747081]",73,SB,U,R,ITMSR,1.1
3,600,trial,0,36,36,36,trial,"['S', 'S', 'S', 'S', 'S', 'S', 'S', 'S', 'C', 'C', 'C', 'C', 'C', 'C', 'C', 'C', 'C', 'C', 'C', 'C', 'C', 'C', 'C', 'C']","[752416, 752784, 753523, 754139, 754752, 755356, 755958, 756542, 757102, 757666, 758235, 758770, 759308, 759828, 760353, 760822, 761321, 761844, 762363, 762909, 763360, 763872, 764383, 764852]","[752502, 752932, 753745, 754351, 755011, 755581, 756160, 756747, 757301, 757880, 758459, 758977, 759521, 760035, 760561, 761029, 761546, 762106, 762612, 763116, 763557, 764071, 764521, 765025]","[186, 101, 235, 131, 16, 25, 240, 233, 220, 218, 232, 196, 212, 221, 234, 234, 246, 34, 234, 9, 235, 227, 103, 208]","[752466, 752863, 753642, 754279, 754893, 755476, 756051, 756661, 757228, 757799, 758361, 758903, 759410, 759956, 760482, 760948, 761458, 761995, 762512, 763047, 763493, 763982, 764470, 764949]","[752379, 752979, 753580, 754179, 754779, 755379, 755979, 756579, 757122, 757686, 758255, 758790, 759328, 759848, 760373, 760842, 761341, 761864, 762383, 762929, 763380, 763892, 764403, 764872]",73,SB,U,R,ITMSR,1.1
3,400,trial,0,37,37,37,trial,"['S', 'S', 'S', 'S', 'S', 'S', 'S', 'C', 'C', 'C', 'C', 'C', 'C', 'C', 'C', 'C', 'C', 'C', 'C', 'C', 'C', 'C', 'C']","[770863, 771245, 771610, 772000, 772397, 772786, 773176, 773570, 773955, 774350, 774730, 775087, 775467, 775870, 776187, 776572, 776974, 777379, 777755, 778109, 778509, 778880, 779267]","[770968, 771320, 771697, 772079, 772448, 772875, 773281, 773666, 774051, 774425, 774800, 775183, 775554, 775954, 776282, 776655, 777068, 777459, 777845, 778180, 778595, 778964, 779358]","[147, 184, 131, 159, 126, 205, 65, 213, 94, 54, 133, 182, 147, 133, 176, 139, 217, 65, 181, 124, 217, 139, 6]","[770871, 771253, 771658, 772009, 772404, 772794, 773242, 773620, 774024, 774396, 774735, 775154, 775516, 775915, 776233, 776579, 776981, 777388, 777816, 778118, 778517, 778923, 779275]","[770497, 770897, 771297, 771697, 772098, 772498, 772898, 773298, 773591, 773976, 774370, 774750, 775107, 775487, 775890, 776207, 776592, 776994, 777399, 777775, 778129, 778529, 778900, 779287]",73,SB,U,R,ITMSR,1.1
1,400,trial,0,38,38,38,trial,"['S', 'S', 'S', 'S', 'S', 'S', 'S', 'C', 'C', 'C', 'C', 'C', 'C', 'C', 'C', 'C', 'C', 'C', 'C', 'C', 'C', 'C', 'C']","[785037, 785454, 785837, 786260, 786636, 787033, 787443, 787826, 788204, 788615, 789007, 789376, 789782, 790176, 790593, 790945, 791321, 791715, 792093, 792483, 792834, 793263, 793666]","[785139, 785547, 785943, 786330, 786750, 787128, 787528, 787923, 788297, 788719, 789107, 789476, 789882, 790274, 790691, 791042, 791415, 791805, 792190, 792577, 792945, 793339, 793750]","[179, 213, 251, 250, 248, 46, 89, 11, 232, 43, 222, 244, 249, 164, 208, 18, 194, 204, 18, 144, 160, 140, 145]","[785046, 785461, 785845, 786270, 786706, 787041, 787450, 787833, 788211, 788622, 789015, 789423, 789789, 790226, 790601, 790952, 791329, 791723, 792100, 792491, 792898, 793272, 793723]","[784714, 785114, 785514, 785914, 786314, 786714, 787115, 787514, 787846, 788225, 788635, 789027, 789396, 789803, 790196, 790614, 790965, 791341, 791735, 792113, 792503, 792854, 793283, 793687]",73,SB,U,R,ITMSR,1.1
2,400,trial,0,39,39,39,trial,"['S', 'S', 'S', 'S', 'S', 'S', 'S', 'C', 'C', 'C', 'C', 'C', 'C', 'C', 'C', 'C', 'C', 'C', 'C', 'C', 'C', 'C', 'C']","[799418, 799842, 800261, 800647, 801052, 801457, 801848, 802268, 802641, 803048, 803409, 803763, 804130, 804529, 804860, 805220, 805623, 805990, 806346, 806704, 807087, 807444, 807821]","[799533, 799963, 800367, 800766, 801130, 801549, 801961, 802339, 802734, 803068, 803503, 803783, 804151, 804549, 804880, 805240, 805643, 806010, 806366, 806724, 807107, 807464, 807841]","[101, 119, 139, 137, 141, 147, 107, 123, 129, 67, 115, 71, 162, 95, 110, 78, 67, 100, 126, 80, 27, 61, 66]","[799498, 799921, 800334, 800654, 801060, 801464, 801855, 802275, 802651, 803053, 803418, 803769, 804136, 804535, 804868, 805227, 805629, 805997, 806353, 806711, 807095, 807452, 807827]","[799130, 799531, 799930, 800330, 800730, 801130, 801530, 801930, 802288, 802661, 803068, 803429, 803783, 804150, 804549, 804880, 805240, 805643, 806010, 806366, 806724, 807107, 807464, 807841]",73,SB,U,R,ITMSR,1.1
3,600,trial,0,40,40,40,trial,"['S', 'S', 'S', 'S', 'S', 'S', 'S', 'S', 'C', 'C', 'C', 'C', 'C', 'C', 'C', 'C', 'C', 'C', 'C', 'C', 'C', 'C', 'C', 'C', 'C', 'C', 'C', 'C', 'C', 'C', 'C', 'C', 'C', 'C']","[813900, 814636, 815261, 815899, 816497, 816598, 817107, 817695, 818274, 818376, 818851, 818953, 819457, 819557, 820048, 820148, 820616, 820716, 821207, 821812, 821912, 822400, 822500, 822978, 823580, 824098, 824613, 825197, 825300, 825760, 825860, 826309, 826411, 826806]","[814154, 814878, 815521, 816141, 816517, 816771, 817334, 817715, 818296, 818413, 818872, 819015, 819477, 819617, 820068, 820219, 820636, 820806, 821439, 821832, 822040, 822420, 822616, 823203, 823683, 824270, 824799, 825220, 825436, 825780, 825978, 826330, 826458, 827003]","[43, 168, 110, 6, 96, 12, 48, 131, 10, 203, 36, 203, 86, 190, 17, 204, 27, 141, 152, 86, 0, 155, 238, 92, 55, 51, 65, 100, 43, 104, 69, 109, 51, 112]","[813908, 814831, 815379, 815905, 816504, 816667, 817115, 817702, 818280, 818376, 818857, 818955, 819464, 819557, 820056, 820148, 820623, 820734, 821212, 821819, 821968, 822407, 822509, 823099, 823586, 824105, 824621, 825203, 825351, 825766, 825870, 826313, 826411, 826809]","[813538, 814138, 814738, 815338, 815938, 816538, 817138, 817738, 818294, 818871, 819477, 820068, 820636, 821227, 821832, 822420, 822999, 823600, 824118, 824633, 825218, 825780, 826329, 826826]",73,SB,U,R,ITMSR,1.1
0,600,trial,0,41,41,41,trial,"['S', 'S', 'S', 'S', 'S', 'S', 'S', 'C', 'C', 'C', 'C', 'C', 'C', 'C', 'C', 'C', 'C', 'C', 'C', 'C', 'C', 'C', 'C', 'C', 'C', 'C', 'C', 'C', 'C', 'C', 'C']","[832683, 833289, 833921, 834537, 835117, 835721, 836337, 836979, 837476, 838022, 838554, 839068, 839601, 840130, 840676, 840776, 841145, 841245, 841691, 841791, 842214, 842746, 842846, 843251, 843351, 843765, 843865, 844307, 844407, 844849, 844949]","[832820, 833445, 834069, 834714, 835272, 835853, 836480, 837130, 837641, 838167, 838685, 839222, 839741, 840246, 840696, 840796, 841165, 841268, 841711, 841849, 842363, 842766, 842897, 843271, 843419, 843785, 843983, 844327, 844494, 844869, 844992]","[31, 28, 65, 31, 70, 252, 3, 0, 7, 18, 212, 6, 186, 221, 200, 63, 187, 83, 232, 112, 182, 199, 128, 211, 181, 164, 16, 194, 108, 59, 226]","[832691, 833296, 833929, 834638, 835212, 835725, 836344, 836982, 837479, 838027, 838562, 839074, 839606, 840137, 840679, 840776, 841148, 841245, 841694, 841799, 842220, 842754, 842850, 843257, 843361, 843771, 843868, 844314, 844409, 844855, 844949]","[832276, 832876, 833476, 834076, 834676, 835276, 835876, 836476, 836999, 837496, 838042, 838574, 839088, 839621, 840151, 840696, 841165, 841711, 842234, 842766, 843271, 843785, 844327, 844869]",73,SB,U,R,ITMSR,1.1
2,600,trial,0,42,42,42,trial,"['S', 'S', 'S', 'S', 'S', 'S', 'S', 'C', 'C', 'C', 'C', 'C', 'C', 'C', 'C', 'C', 'C', 'C', 'C', 'C', 'C', 'C', 'C', 'C', 'C', 'C', 'C']","[850784, 851456, 852094, 852683, 853350, 853970, 854561, 855173, 855762, 856389, 856916, 857453, 857966, 858585, 859122, 859591, 860165, 860265, 860655, 861225, 861325, 861711, 861811, 862287, 862387, 862812, 863372]","[850924, 851616, 852221, 852846, 853486, 854097, 854665, 855311, 855869, 856473, 857019, 857547, 858084, 858676, 859219, 859687, 860185, 860285, 860773, 861245, 861345, 861731, 861834, 862307, 862407, 862832, 863392]","[80, 59, 205, 162, 58, 35, 194, 254, 205, 189, 7, 46, 202, 173, 186, 180, 148, 66, 188, 150, 41, 229, 87, 172, 42, 179, 176]","[850791, 851464, 852100, 852690, 853357, 853976, 854566, 855178, 855768, 856397, 856920, 857461, 857973, 858591, 859127, 859599, 860168, 860265, 860662, 861230, 861325, 861714, 861811, 862291, 862387, 862816, 863376]","[850439, 851038, 851638, 852238, 852838, 853438, 854038, 854638, 855193, 855782, 856409, 856936, 857474, 857986, 858605, 859142, 859611, 860185, 860675, 861245, 861731, 862307, 862832, 863392]",73,SB,U,R,ITMSR,1.1
4,600,trial,0,43,43,43,trial,"['S', 'S', 'S', 'S', 'S', 'S', 'S', 'S', 'S', 'C', 'C', 'C', 'C', 'C', 'C', 'C', 'C', 'C', 'C', 'C', 'C', 'C', 'C', 'C', 'C', 'C', 'C', 'C', 'C', 'C', 'C', 'C', 'C']","[869170, 869905, 870524, 870626, 871135, 871756, 872351, 872451, 872973, 873617, 874142, 874242, 874645, 874745, 875131, 875231, 875703, 875803, 876173, 876273, 876705, 876805, 877194, 877294, 877701, 878188, 878724, 879203, 879710, 880228, 880328, 880737, 881262]","[869258, 870005, 870546, 870648, 871248, 871861, 872371, 872471, 873075, 873708, 874162, 874262, 874665, 874765, 875151, 875258, 875723, 875825, 876193, 876303, 876725, 876825, 877214, 877320, 877721, 878305, 878744, 879223, 879730, 880248, 880348, 880757, 881282]","[162, 184, 90, 160, 69, 237, 240, 215, 235, 176, 23, 163, 235, 47, 219, 231, 193, 118, 226, 163, 224, 108, 235, 215, 234, 204, 121, 180, 133, 165, 39, 139, 160]","[869170, 869969, 870533, 870626, 871145, 871826, 872353, 872451, 873040, 873655, 874149, 874242, 874651, 874745, 875137, 875231, 875708, 875805, 876179, 876273, 876709, 876805, 877197, 877294, 877706, 878196, 878727, 879210, 879715, 880235, 880328, 880744, 881267]","[868937, 869537, 870137, 870737, 871337, 871938, 872538, 873138, 873637, 874162, 874665, 875151, 875723, 876193, 876725, 877214, 877721, 878209, 878744, 879223, 879730, 880248, 880757, 881282]",73,SB,U,R,ITMSR,1.1
0,400,trial,0,44,44,44,trial,"['S', 'S', 'S', 'S', 'S', 'S', 'S', 'S', 'C', 'C', 'C', 'C', 'C', 'C', 'C', 'C', 'C', 'C', 'C', 'C', 'C', 'C', 'C', 'C']","[886969, 887329, 887689, 888012, 888367, 888745, 889139, 889542, 889935, 890317, 890699, 891075, 891469, 891830, 892231, 892597, 892988, 893365, 893731, 894103, 894477, 894855, 895246, 895571]","[887067, 887432, 887775, 888032, 888453, 888765, 889240, 889665, 889955, 890412, 890719, 891162, 891489, 891850, 892251, 892617, 893082, 893467, 893824, 894184, 894497, 894946, 895266, 895670]","[28, 24, 30, 208, 228, 233, 103, 233, 235, 224, 229, 216, 3, 160, 252, 194, 242, 21, 213, 180, 235, 236, 218, 21]","[887011, 887341, 887729, 888020, 888372, 888750, 889147, 889546, 889938, 890326, 890704, 891083, 891476, 891834, 892237, 892603, 892995, 893372, 893740, 894111, 894484, 894862, 895254, 895579]","[886804, 887203, 887603, 888003, 888403, 888803, 889203, 889603, 889955, 890337, 890719, 891096, 891489, 891850, 892251, 892617, 893008, 893385, 893751, 894124, 894497, 894875, 895266, 895591]",73,SB,U,R,ITMSR,1.1
1,600,trial,0,45,45,45,trial,"['S', 'S', 'S', 'S', 'S', 'S', 'S', 'S', 'C', 'C', 'C', 'C', 'C', 'C', 'C', 'C', 'C', 'C', 'C', 'C', 'C', 'C', 'C', 'C', 'C', 'C', 'C']","[901167, 901520, 902196, 902802, 903408, 904009, 904610, 905163, 905762, 905862, 906372, 906472, 906926, 907490, 907590, 908045, 908577, 909123, 909668, 910199, 910799, 911296, 911791, 912295, 912825, 913274, 913788]","[901269, 901784, 902445, 903046, 903664, 904243, 904854, 905428, 905782, 905968, 906392, 906591, 907158, 907510, 907643, 908189, 908726, 909292, 909834, 910364, 910918, 911468, 911934, 912487, 912948, 913463, 913939]","[44, 133, 42, 45, 103, 138, 139, 158, 117, 47, 137, 38, 44, 92, 179, 203, 235, 247, 214, 45, 55, 67, 35, 44, 68, 72, 230]","[901226, 901719, 902373, 902995, 903601, 904161, 904783, 905337, 905763, 905906, 906377, 906513, 907083, 907494, 907592, 908048, 908581, 909126, 909760, 910305, 910872, 911401, 911893, 912429, 912900, 913405, 913868]","[901040, 901640, 902240, 902840, 903440, 904040, 904640, 905240, 905782, 906392, 906946, 907510, 908065, 908597, 909144, 909688, 910219, 910819, 911316, 911811, 912315, 912845, 913294, 913808]",73,SB,U,R,ITMSR,1.1
5,600,trial,0,46,46,46,trial,"['S', 'S', 'S', 'S', 'S', 'S', 'S', 'S', 'S', 'S', 'C', 'C', 'C', 'C', 'C', 'C', 'C', 'C', 'C', 'C', 'C', 'C', 'C', 'C', 'C', 'C', 'C', 'C', 'C', 'C', 'C', 'C', 'C', 'C', 'C', 'C']","[919484, 919805, 919905, 920539, 920639, 921205, 921865, 922409, 923011, 923661, 924213, 924313, 924796, 924896, 925352, 925452, 925883, 925983, 926451, 926551, 927000, 927102, 927547, 927647, 928097, 928604, 929143, 929676, 930199, 930675, 930775, 931222, 931324, 931699, 932228, 932328]","[919561, 919825, 919925, 920559, 920772, 921476, 922094, 922701, 923287, 923895, 924233, 924432, 924816, 925026, 925372, 925575, 925903, 926102, 926471, 926692, 927021, 927230, 927567, 927782, 928318, 928784, 929361, 929850, 930362, 930695, 930825, 931243, 931387, 931864, 932248, 932430]","[102, 226, 187, 166, 189, 96, 75, 112, 75, 82, 255, 58, 242, 44, 73, 68, 86, 53, 106, 74, 125, 80, 155, 53, 80, 84, 126, 150, 164, 169, 28, 32, 16, 135, 187, 54]","[919544, 919811, 919906, 920539, 920751, 921210, 922041, 922620, 923171, 923802, 924220, 924350, 924804, 924956, 925359, 925469, 925889, 926035, 926456, 926612, 927005, 927159, 927552, 927647, 928102, 928610, 929149, 929759, 930204, 930679, 930775, 931227, 931330, 931705, 932234, 932334]","[919484, 920084, 920684, 921284, 921884, 922484, 923084, 923684, 924233, 924816, 925372, 925903, 926471, 927021, 927567, 928117, 928624, 929163, 929696, 930220, 930695, 931243, 931719, 932248]",73,SB,U,R,ITMSR,1.1
5,400,trial,0,47,47,47,trial,"['S', 'S', 'S', 'S', 'S', 'S', 'S', 'C', 'C', 'C', 'C', 'C', 'C', 'C', 'C', 'C', 'C', 'C', 'C', 'C', 'C', 'C', 'C', 'C']","[937902, 938462, 938859, 939278, 939736, 940118, 940523, 940924, 941314, 941685, 942038, 942427, 942787, 943171, 943502, 943881, 944234, 944334, 944601, 944979, 945344, 945721, 946076, 946417]","[937922, 938482, 938880, 939298, 939756, 940138, 940544, 940944, 941334, 941705, 942058, 942447, 942808, 943192, 943522, 943901, 944254, 944354, 944621, 944999, 945364, 945741, 946096, 946437]","[167, 121, 104, 5, 74, 221, 42, 240, 194, 117, 136, 49, 148, 72, 109, 41, 115, 35, 40, 116, 69, 52, 86, 92]","[937908, 938465, 938864, 939284, 939741, 940125, 940528, 940930, 941320, 941690, 942043, 942432, 942793, 943175, 943506, 943886, 944239, 944334, 944607, 944984, 945350, 945726, 946082, 946422]","[937750, 938150, 938550, 938950, 939351, 939750, 940150, 940550, 940944, 941334, 941705, 942058, 942447, 942808, 943192, 943522, 943901, 944254, 944621, 944999, 945364, 945741, 946096, 946437]",73,SB,U,R,ITMSR,1.1
5,400,trial,0,48,48,48,trial,"['S', 'S', 'S', 'S', 'S', 'S', 'S', 'S', 'S', 'S', 'C', 'C', 'C', 'C', 'C', 'C', 'C', 'C', 'C', 'C', 'C', 'C', 'C', 'C', 'C', 'C']","[951997, 952317, 952418, 952714, 952814, 953108, 953490, 953876, 954297, 954711, 955110, 955474, 955855, 956254, 956633, 956998, 957355, 957749, 958120, 958477, 958820, 959207, 959577, 959966, 960348, 960749]","[952065, 952337, 952477, 952734, 952857, 953260, 953649, 954050, 954466, 954880, 955262, 955634, 956001, 956380, 956752, 957123, 957487, 957868, 958245, 958609, 958978, 959358, 959706, 960100, 960479, 960849]","[100, 182, 8, 64, 0, 88, 151, 32, 128, 121, 161, 75, 168, 162, 41, 229, 23, 120, 101, 229, 14, 148, 156, 157, 123, 223]","[952031, 952323, 952427, 952720, 952814, 953115, 953497, 953962, 954303, 954718, 955117, 955574, 955862, 956260, 956641, 957006, 957362, 957756, 958128, 958486, 958826, 959214, 959584, 959973, 960355, 960755]","[951959, 952359, 952759, 953159, 953560, 953960, 954360, 954760, 955130, 955494, 955875, 956274, 956653, 957018, 957375, 957769, 958140, 958497, 958840, 959227, 959597, 959986, 960368, 960770]",73,SB,U,R,ITMSR,1.1
1,600,trial,0,49,49,49,trial,"['B', 'S', 'S', 'S', 'S', 'S', 'S', 'S', 'C', 'C', 'C', 'C', 'C', 'C', 'C', 'C', 'C', 'C', 'C', 'C', 'C', 'C', 'C', 'C', 'C', 'C']","[966415, 966735, 967438, 968088, 968681, 969279, 969880, 970482, 971060, 971552, 971970, 972431, 972865, 973288, 973684, 974007, 974202, 974369, 974593, 974783, 975164, 975554, 975962, 976335, 976717, 977138]","[966514, 966867, 967642, 968250, 968905, 969554, 970161, 970743, 971284, 971770, 972162, 972598, 973062, 973467, 973825, 974067, 974231, 974430, 974643, 974841, 975293, 975686, 976103, 976488, 976910, 977333]","[49, 154, 82, 109, 190, 192, 230, 195, 159, 101, 79, 7, 53, 99, 46, 228, 77, 130, 34, 86, 113, 82, 133, 72, 72, 137]","[966440, 966743, 967558, 968168, 968816, 969427, 970052, 970643, 971186, 971694, 972078, 972499, 972962, 973387, 973765, 974044, 974211, 974402, 974601, 974790, 975171, 975561, 975969, 976343, 976724, 977144]","[966426, 967026, 967626, 968226, 968826, 969426, 970027, 970626, 971080, 971572, 971991, 972451, 972886, 973308, 973704, 974027, 974389, 974803, 975184, 975575, 975982, 976355, 976737, 977158]",73,SB,U,R,ITMSR,1.1
4,400,trial,0,50,50,50,trial,"['S', 'S', 'S', 'S', 'S', 'S', 'S', 'C', 'C', 'C', 'C', 'C', 'C', 'C', 'C', 'C', 'C', 'C', 'C', 'C', 'C', 'C', 'C']","[982904, 983349, 983773, 984178, 984591, 984990, 985424, 985805, 986205, 986587, 986975, 987365, 987790, 988150, 988527, 988915, 989317, 989698, 990062, 990465, 990863, 991221, 991610]","[983116, 983527, 983940, 984353, 984768, 985180, 985565, 985955, 986343, 986720, 987103, 987489, 987912, 988295, 988667, 989060, 989459, 989838, 990222, 990590, 990993, 991373, 991745]","[219, 123, 102, 132, 105, 162, 140, 142, 126, 111, 127, 139, 152, 135, 137, 155, 148, 119, 73, 94, 102, 62, 102]","[982910, 983355, 983780, 984185, 984698, 984995, 985431, 985812, 986212, 986593, 986982, 987370, 987797, 988155, 988534, 988921, 989323, 989703, 990147, 990471, 990869, 991229, 991618]","[982641, 983042, 983442, 983842, 984242, 984642, 985042, 985442, 985825, 986225, 986607, 986995, 987385, 987810, 988170, 988547, 988935, 989337, 989718, 990082, 990485, 990883, 991241, 991630]",73,SB,U,R,ITMSR,1.1
3,400,trial,0,51,51,51,trial,"['S', 'S', 'S', 'S', 'S', 'S', 'S', 'C', 'C', 'C', 'C', 'C', 'C', 'C', 'C', 'C', 'C', 'C', 'C', 'C', 'C', 'C', 'C']","[997544, 997981, 998395, 998812, 999212, 999609, 1000012, 1000391, 1000773, 1001152, 1001524, 1001912, 1002296, 1002658, 1003066, 1003440, 1003802, 1004168, 1004561, 1004886, 1005290, 1005672, 1006045]","[997685, 998104, 998500, 998924, 999321, 999711, 1000125, 1000504, 1000889, 1001241, 1001636, 1001987, 1002384, 1002760, 1003152, 1003535, 1003910, 1004262, 1004660, 1005028, 1005393, 1005770, 1006149]","[188, 119, 120, 96, 101, 97, 141, 126, 79, 97, 128, 123, 140, 128, 112, 145, 122, 122, 167, 90, 119, 124, 148]","[997550, 997988, 998402, 998818, 999218, 999614, 1000018, 1000397, 1000779, 1001158, 1001530, 1001918, 1002302, 1002664, 1003072, 1003445, 1003807, 1004174, 1004566, 1004892, 1005296, 1005676, 1006051]","[997241, 997641, 998041, 998441, 998841, 999241, 999641, 1000041, 1000411, 1000793, 1001172, 1001544, 1001932, 1002316, 1002678, 1003086, 1003460, 1003822, 1004188, 1004581, 1004906, 1005310, 1005692, 1006065]",73,SB,U,R,ITMSR,1.1
0,600,trial,0,52,52,52,trial,"['S', 'S', 'S', 'S', 'S', 'S', 'S', 'C', 'C', 'C', 'C', 'C', 'C', 'C', 'C', 'C', 'C', 'C', 'C', 'C', 'C', 'C', 'C']","[1011783, 1012539, 1013187, 1013803, 1014405, 1015053, 1015616, 1016169, 1016655, 1017145, 1017650, 1018181, 1018697, 1019272, 1019793, 1020297, 1020802, 1021313, 1021857, 1022365, 1022913, 1023399, 1023929]","[1011903, 1012654, 1013330, 1013935, 1014539, 1015165, 1015742, 1016302, 1016795, 1017294, 1017811, 1018364, 1018889, 1019469, 1019956, 1020493, 1020995, 1021521, 1022052, 1022571, 1023102, 1023597, 1024082]","[77, 168, 203, 173, 94, 52, 58, 30, 53, 9, 68, 50, 69, 60, 220, 51, 76, 145, 107, 171, 119, 142, 161]","[1011789, 1012544, 1013193, 1013809, 1014412, 1015061, 1015623, 1016176, 1016740, 1017243, 1017748, 1018188, 1018705, 1019280, 1019800, 1020304, 1020808, 1021319, 1021863, 1022371, 1022920, 1023406, 1023935]","[1011573, 1012173, 1012773, 1013373, 1013974, 1014573, 1015173, 1015773, 1016189, 1016675, 1017165, 1017670, 1018201, 1018717, 1019292, 1019813, 1020317, 1020822, 1021333, 1021877, 1022385, 1022934, 1023419, 1023949]",73,SB,U,R,ITMSR,1.1
1,400,trial,0,53,53,53,trial,"['S', 'S', 'S', 'S', 'S', 'S', 'S', 'C', 'C', 'C', 'C', 'C', 'C', 'C', 'C', 'C', 'C', 'C', 'C', 'C', 'C', 'C', 'C']","[1030063, 1030425, 1030825, 1031176, 1031548, 1031924, 1032313, 1032751, 1033111, 1033528, 1033906, 1034293, 1034678, 1035055, 1035440, 1035844, 1036223, 1036587, 1036952, 1037347, 1037718, 1038088, 1038467]","[1030189, 1030546, 1030917, 1031296, 1031656, 1032050, 1032420, 1032871, 1033235, 1033641, 1034002, 1034388, 1034739, 1035157, 1035535, 1035934, 1036316, 1036679, 1037039, 1037441, 1037818, 1038185, 1038560]","[249, 77, 138, 73, 137, 128, 151, 108, 76, 142, 168, 173, 145, 150, 163, 195, 175, 154, 172, 164, 167, 149, 171]","[1030070, 1030431, 1030830, 1031182, 1031554, 1031930, 1032320, 1032758, 1033120, 1033534, 1033912, 1034298, 1034684, 1035061, 1035445, 1035850, 1036228, 1036593, 1036958, 1037352, 1037724, 1038094, 1038472]","[1029625, 1030025, 1030425, 1030825, 1031225, 1031625, 1032025, 1032425, 1032771, 1033132, 1033548, 1033926, 1034313, 1034698, 1035075, 1035460, 1035864, 1036243, 1036607, 1036973, 1037367, 1037739, 1038108, 1038487]",73,SB,U,R,ITMSR,1.1
2,600,trial,0,54,54,54,trial,"['S', 'S', 'S', 'S', 'S', 'S', 'S', 'C', 'C', 'C', 'C', 'C', 'C', 'C', 'C', 'C', 'C', 'C', 'C', 'C', 'C', 'C', 'C']","[1067817, 1068584, 1069203, 1069859, 1070501, 1071078, 1071686, 1072286, 1072802, 1073373, 1073897, 1074432, 1074987, 1075493, 1076009, 1076503, 1077061, 1077547, 1078063, 1078584, 1079066, 1079600, 1080107]","[1067953, 1068762, 1069370, 1070015, 1070638, 1071239, 1071846, 1072411, 1072971, 1073516, 1074008, 1074524, 1075112, 1075601, 1076122, 1076620, 1077193, 1077697, 1078189, 1078675, 1079186, 1079714, 1080185]","[227, 73, 156, 17, 169, 114, 137, 30, 130, 193, 29, 79, 206, 237, 218, 146, 96, 156, 185, 76, 106, 142, 82]","[1067895, 1068593, 1069298, 1069970, 1070572, 1071167, 1071694, 1072367, 1072809, 1073459, 1073905, 1074442, 1075063, 1075554, 1076081, 1076575, 1077148, 1077626, 1078139, 1078591, 1079073, 1079680, 1080116]","[1067645, 1068246, 1068845, 1069445, 1070045, 1070645, 1071245, 1071845, 1072306, 1072822, 1073393, 1073917, 1074452, 1075007, 1075513, 1076029, 1076524, 1077081, 1077567, 1078083, 1078604, 1079086, 1079620, 1080127]",73,SB,U,R,ITMSR,1.1
1,600,trial,0,55,55,55,trial,"['B', 'S', 'S', 'S', 'S', 'S', 'S', 'S', 'C', 'C', 'C', 'C', 'C', 'C', 'C', 'C', 'C', 'C', 'C', 'C', 'C', 'C', 'C', 'C']","[1085425, 1085901, 1086523, 1087117, 1087739, 1088347, 1088932, 1089566, 1090186, 1090778, 1091330, 1091865, 1092473, 1093032, 1093578, 1094087, 1094597, 1095143, 1095638, 1096182, 1096694, 1097181, 1097778, 1098271]","[1085539, 1086130, 1086749, 1087363, 1087965, 1088547, 1089124, 1089785, 1090327, 1090951, 1091458, 1091988, 1092636, 1093172, 1093719, 1094280, 1094757, 1095293, 1095833, 1096400, 1096850, 1097388, 1097951, 1098466]","[17, 11, 8, 61, 93, 124, 252, 115, 42, 19, 8, 247, 85, 27, 214, 19, 72, 25, 58, 59, 61, 70, 17, 59]","[1085487, 1086077, 1086707, 1087301, 1087907, 1088490, 1089085, 1089731, 1090279, 1090893, 1091400, 1091939, 1092564, 1093110, 1093670, 1094194, 1094687, 1095225, 1095741, 1096334, 1096798, 1097307, 1097859, 1098388]","[1085436, 1086036, 1086637, 1087237, 1087837, 1088437, 1089037, 1089637, 1090206, 1090798, 1091350, 1091885, 1092493, 1093052, 1093598, 1094107, 1094617, 1095163, 1095658, 1096202, 1096714, 1097201, 1097798, 1098291]",73,SB,U,R,ITMSR,1.1
1,600,trial,0,56,56,56,trial,"['S', 'S', 'S', 'S', 'S', 'S', 'S', 'C', 'C', 'C', 'C', 'C', 'C', 'C', 'C', 'C', 'C', 'C', 'C', 'C', 'C', 'C', 'C']","[1104225, 1105076, 1105745, 1106361, 1107010, 1107610, 1108260, 1108767, 1109336, 1109928, 1110428, 1111002, 1111557, 1112058, 1112572, 1113203, 1113765, 1114350, 1114901, 1115416, 1115983, 1116528, 1117041]","[1104345, 1105186, 1105844, 1106511, 1107125, 1107685, 1108360, 1108882, 1109480, 1110021, 1110539, 1111129, 1111617, 1112192, 1112732, 1113305, 1113865, 1114466, 1114997, 1115529, 1116104, 1116639, 1117139]","[163, 107, 71, 239, 153, 90, 62, 156, 198, 79, 182, 198, 54, 246, 17, 53, 121, 104, 180, 19, 250, 126, 159]","[1104300, 1105084, 1105795, 1106457, 1107082, 1107618, 1108328, 1108843, 1109421, 1109963, 1110490, 1111076, 1111562, 1112137, 1112667, 1113249, 1113824, 1114419, 1114953, 1115480, 1116058, 1116602, 1117103]","[1104068, 1104668, 1105268, 1105868, 1106468, 1107068, 1107668, 1108269, 1108787, 1109356, 1109948, 1110448, 1111022, 1111577, 1112078, 1112592, 1113223, 1113785, 1114370, 1114921, 1115437, 1116003, 1116548, 1117061]",73,SB,U,R,ITMSR,1.1
5,600,trial,0,57,57,57,trial,"['S', 'S', 'S', 'S', 'S', 'S', 'S', 'C', 'C', 'C', 'C', 'C', 'C', 'C', 'C', 'C', 'C', 'C', 'C', 'C', 'C', 'C', 'C', 'C']","[1122793, 1123433, 1124148, 1124727, 1125351, 1125921, 1126553, 1127168, 1127737, 1128292, 1128897, 1129406, 1130016, 1130579, 1131143, 1131681, 1132231, 1132834, 1133310, 1133968, 1134068, 1134466, 1135049, 1135606]","[1122936, 1123589, 1124222, 1124833, 1125465, 1126066, 1126665, 1127300, 1127874, 1128478, 1128986, 1129552, 1130106, 1130711, 1131226, 1131810, 1132323, 1132968, 1133475, 1133988, 1134088, 1134572, 1135198, 1135720]","[124, 182, 14, 18, 146, 165, 183, 154, 233, 1, 168, 195, 148, 190, 255, 169, 123, 238, 8, 222, 100, 213, 215, 212]","[1122887, 1123556, 1124194, 1124795, 1125416, 1126012, 1126623, 1127247, 1127811, 1128384, 1128939, 1129501, 1130023, 1130664, 1131149, 1131757, 1132274, 1132920, 1133430, 1133976, 1134068, 1134533, 1135128, 1135675]","[1122407, 1123006, 1123606, 1124206, 1124806, 1125406, 1126006, 1126606, 1127188, 1127757, 1128312, 1128918, 1129426, 1130036, 1130599, 1131163, 1131701, 1132251, 1132854, 1133330, 1133988, 1134486, 1135069, 1135626]",73,SB,U,R,ITMSR,1.1
1,400,trial,0,58,58,58,trial,"['S', 'S', 'S', 'S', 'S', 'S', 'S', 'S', 'C', 'C', 'C', 'C', 'C', 'C', 'C', 'C', 'C', 'C', 'C', 'C', 'C', 'C', 'C', 'C']","[1141515, 1141873, 1142233, 1142560, 1142896, 1143263, 1143653, 1144066, 1144440, 1144816, 1145235, 1145629, 1146053, 1146465, 1146854, 1147242, 1147663, 1148075, 1148462, 1148865, 1149276, 1149642, 1150053, 1150486]","[1141646, 1142004, 1142333, 1142652, 1142992, 1143358, 1143766, 1144175, 1144554, 1144924, 1145338, 1145748, 1146159, 1146562, 1146936, 1147336, 1147760, 1148164, 1148556, 1148967, 1149364, 1149760, 1150157, 1150585]","[46, 74, 8, 68, 104, 98, 35, 110, 38, 43, 40, 66, 106, 139, 33, 130, 125, 102, 74, 109, 70, 103, 143, 113]","[1141521, 1141879, 1142240, 1142568, 1142902, 1143271, 1143660, 1144073, 1144449, 1144824, 1145241, 1145636, 1146060, 1146471, 1146861, 1147249, 1147669, 1148082, 1148469, 1148873, 1149283, 1149650, 1150059, 1150492]","[1141350, 1141750, 1142150, 1142550, 1142950, 1143350, 1143750, 1144151, 1144460, 1144836, 1145255, 1145649, 1146073, 1146485, 1146874, 1147262, 1147683, 1148095, 1148482, 1148886, 1149296, 1149662, 1150073, 1150507]",73,SB,U,R,ITMSR,1.1
4,600,trial,0,59,59,59,trial,"['B', 'S', 'S', 'S', 'S', 'S', 'S', 'S', 'C', 'C', 'C', 'C', 'C', 'C', 'C', 'C', 'C', 'C', 'C', 'C', 'C', 'C', 'C', 'C']","[1156173, 1156517, 1157249, 1157888, 1158530, 1159132, 1159739, 1160361, 1160887, 1161477, 1162017, 1162594, 1163070, 1163616, 1164188, 1164691, 1165230, 1165783, 1166308, 1166844, 1167372, 1167910, 1168444, 1168970]","[1156205, 1156638, 1157441, 1158086, 1158703, 1159277, 1159879, 1160555, 1161061, 1161632, 1162206, 1162691, 1163261, 1163780, 1164331, 1164877, 1165400, 1165917, 1166497, 1167015, 1167535, 1168056, 1168593, 1169104]","[182, 99, 36, 54, 31, 155, 10, 34, 34, 17, 20, 128, 50, 25, 211, 34, 41, 50, 48, 72, 69, 107, 116, 122]","[1156173, 1156525, 1157256, 1158003, 1158642, 1159139, 1159814, 1160492, 1161005, 1161585, 1162130, 1162601, 1163198, 1163623, 1164283, 1164782, 1165237, 1165790, 1166314, 1166852, 1167379, 1167917, 1168450, 1168977]","[1156187, 1156786, 1157386, 1157986, 1158586, 1159186, 1159786, 1160386, 1160907, 1161497, 1162037, 1162614, 1163090, 1163636, 1164208, 1164711, 1165250, 1165803, 1166328, 1166864, 1167392, 1167930, 1168464, 1168990]",73,SB,U,R,ITMSR,1.1
5,600,trial,0,60,60,60,trial,"['S', 'S', 'S', 'S', 'S', 'S', 'S', 'C', 'C', 'C', 'C', 'C', 'C', 'C', 'C', 'C', 'C', 'C', 'C', 'C', 'C', 'C', 'C', 'C']","[1174941, 1175729, 1176395, 1177047, 1177647, 1178268, 1178908, 1179457, 1180042, 1180633, 1181206, 1181783, 1181883, 1182406, 1182964, 1183565, 1184106, 1184640, 1185159, 1185736, 1186282, 1186845, 1187405, 1187968]","[1175055, 1175891, 1176531, 1177208, 1177812, 1178430, 1179048, 1179619, 1180192, 1180777, 1181333, 1181803, 1181943, 1182543, 1183110, 1183688, 1184232, 1184761, 1185316, 1185826, 1186419, 1186975, 1187554, 1188082]","[111, 142, 103, 118, 115, 187, 167, 120, 103, 129, 109, 70, 200, 66, 142, 39, 65, 255, 87, 31, 15, 196, 46, 34]","[1174947, 1175735, 1176400, 1177053, 1177654, 1178274, 1178915, 1179464, 1180048, 1180639, 1181213, 1181789, 1181888, 1182412, 1182970, 1183572, 1184113, 1184647, 1185166, 1185742, 1186356, 1186852, 1187488, 1187974]","[1174728, 1175328, 1175928, 1176528, 1177128, 1177729, 1178328, 1178928, 1179478, 1180062, 1180653, 1181227, 1181803, 1182426, 1182984, 1183585, 1184126, 1184660, 1185179, 1185756, 1186302, 1186865, 1187425, 1187988]",73,SB,U,R,ITMSR,1.1
2,400,trial,0,61,61,61,trial,"['S', 'S', 'S', 'S', 'S', 'S', 'S', 'C', 'C', 'C', 'C', 'C', 'C', 'C', 'C', 'C', 'C', 'C', 'C', 'C', 'C', 'C', 'C']","[1193560, 1193924, 1194431, 1194865, 1195294, 1195688, 1196091, 1196508, 1196883, 1197293, 1197659, 1198057, 1198430, 1198836, 1199207, 1199584, 1199970, 1200354, 1200721, 1201093, 1201483, 1201869, 1202237]","[1193656, 1194019, 1194526, 1194967, 1195389, 1195804, 1196206, 1196610, 1196987, 1197395, 1197765, 1198149, 1198532, 1198922, 1199300, 1199669, 1200061, 1200442, 1200812, 1201195, 1201573, 1201972, 1202341]","[112, 114, 40, 100, 76, 98, 117, 133, 131, 127, 126, 147, 190, 141, 177, 160, 173, 112, 139, 151, 155, 188, 174]","[1193567, 1193929, 1194439, 1194872, 1195301, 1195695, 1196097, 1196513, 1196891, 1197300, 1197667, 1198063, 1198436, 1198842, 1199211, 1199589, 1199975, 1200360, 1200728, 1201099, 1201488, 1201873, 1202241]","[1193384, 1193784, 1194184, 1194584, 1194984, 1195384, 1195784, 1196184, 1196528, 1196903, 1197314, 1197679, 1198077, 1198450, 1198856, 1199227, 1199604, 1199990, 1200374, 1200741, 1201113, 1201503, 1201889, 1202257]",73,SB,U,R,ITMSR,1.1
1,400,trial,0,62,62,62,trial,"['B', 'S', 'S', 'S', 'S', 'S', 'S', 'S', 'C', 'C', 'C', 'C', 'C', 'C', 'C', 'C', 'C', 'C', 'C', 'C', 'C', 'C', 'C', 'C']","[1207948, 1208330, 1208723, 1209118, 1209515, 1209906, 1210298, 1210708, 1211129, 1211499, 1211889, 1212263, 1212646, 1213022, 1213420, 1213794, 1214189, 1214573, 1214948, 1215297, 1215693, 1216051, 1216459, 1216827]","[1208070, 1208475, 1208830, 1209233, 1209646, 1210030, 1210413, 1210825, 1211231, 1211604, 1211980, 1212371, 1212767, 1213153, 1213533, 1213915, 1214303, 1214676, 1215054, 1215436, 1215808, 1216212, 1216596, 1216964]","[231, 40, 60, 88, 99, 117, 86, 85, 111, 194, 159, 208, 235, 217, 235, 154, 105, 122, 164, 130, 162, 166, 174, 179]","[1208020, 1208336, 1208729, 1209123, 1209521, 1209911, 1210305, 1210716, 1211136, 1211505, 1211893, 1212268, 1212651, 1213027, 1213425, 1213799, 1214196, 1214579, 1214953, 1215303, 1215699, 1216057, 1216465, 1216833]","[1207959, 1208358, 1208758, 1209158, 1209559, 1209958, 1210358, 1210758, 1211149, 1211520, 1211909, 1212283, 1212666, 1213042, 1213441, 1213814, 1214210, 1214594, 1214968, 1215318, 1215713, 1216071, 1216479, 1216847]",73,SB,U,R,ITMSR,1.1
2,600,trial,0,63,63,63,trial,"['B', 'S', 'S', 'S', 'S', 'S', 'S', 'S', 'C', 'C', 'C', 'C', 'C', 'C', 'C', 'C', 'C', 'C', 'C', 'C', 'C', 'C', 'C', 'C']","[1222550, 1222912, 1223638, 1224260, 1224881, 1225453, 1226040, 1226677, 1227266, 1227816, 1228426, 1228971, 1229499, 1230085, 1230616, 1231155, 1231718, 1232274, 1232819, 1233378, 1233930, 1234442, 1234979, 1235511]","[1222571, 1223050, 1223816, 1224488, 1225131, 1225686, 1226293, 1226898, 1227447, 1228076, 1228616, 1229149, 1229734, 1230294, 1230830, 1231381, 1231968, 1232513, 1233030, 1233608, 1234122, 1234617, 1235169, 1235679]","[199, 129, 109, 80, 155, 112, 105, 64, 76, 80, 65, 91, 104, 79, 138, 149, 139, 101, 110, 132, 108, 166, 145, 169]","[1222550, 1222918, 1223745, 1224434, 1225057, 1225609, 1226229, 1226812, 1227398, 1227968, 1228432, 1228977, 1229505, 1230092, 1230622, 1231161, 1231724, 1232402, 1232823, 1233384, 1233937, 1234448, 1234984, 1235517]","[1222562, 1223162, 1223762, 1224363, 1224962, 1225562, 1226162, 1226762, 1227286, 1227836, 1228446, 1228991, 1229519, 1230105, 1230637, 1231175, 1231738, 1232294, 1232839, 1233398, 1233950, 1234462, 1234999, 1235531]",73,SB,U,R,ITMSR,1.1
3,400,trial,0,64,64,64,trial,"['B', 'S', 'S', 'S', 'S', 'S', 'S', 'S', 'C', 'C', 'C', 'C', 'C', 'C', 'C', 'C', 'C', 'C', 'C', 'C', 'C', 'C', 'C', 'C']","[1241256, 1241698, 1242086, 1242424, 1242814, 1243184, 1243589, 1243977, 1244394, 1244800, 1245191, 1245587, 1245978, 1246366, 1246765, 1247154, 1247548, 1247944, 1248326, 1248734, 1249106, 1249519, 1249911, 1250300]","[1241390, 1241878, 1242213, 1242541, 1242930, 1243318, 1243717, 1244123, 1244527, 1244935, 1245308, 1245702, 1246100, 1246480, 1246882, 1247283, 1247668, 1248054, 1248444, 1248856, 1249243, 1249660, 1250056, 1250419]","[211, 199, 168, 135, 142, 81, 144, 122, 102, 120, 71, 81, 116, 99, 107, 108, 104, 96, 116, 125, 114, 203, 202, 183]","[1241296, 1241811, 1242151, 1242486, 1242873, 1243262, 1243663, 1244057, 1244475, 1244881, 1245258, 1245641, 1245985, 1246372, 1246829, 1247235, 1247613, 1248011, 1248391, 1248793, 1249187, 1249586, 1249987, 1250357]","[1241268, 1241668, 1242068, 1242468, 1242868, 1243268, 1243668, 1244068, 1244414, 1244820, 1245211, 1245607, 1245998, 1246386, 1246785, 1247174, 1247568, 1247964, 1248346, 1248754, 1249126, 1249539, 1249931, 1250320]",73,SB,U,R,ITMSR,1.1
0,600,trial,0,65,65,65,trial,"['S', 'S', 'S', 'S', 'S', 'S', 'S', 'C', 'C', 'C', 'C', 'C', 'C', 'C', 'C', 'C', 'C', 'C', 'C', 'C', 'C', 'C', 'C']","[1255957, 1256726, 1257307, 1257923, 1258518, 1259117, 1259719, 1260381, 1260920, 1261484, 1261990, 1262545, 1263120, 1263675, 1264226, 1264743, 1265258, 1265763, 1266306, 1266887, 1267381, 1267888, 1268476]","[1256080, 1256898, 1257488, 1258085, 1258650, 1259276, 1259899, 1260498, 1261072, 1261628, 1262125, 1262689, 1263219, 1263789, 1264369, 1264898, 1265409, 1265932, 1266436, 1266993, 1267493, 1267993, 1268595]","[110, 30, 132, 77, 61, 66, 99, 39, 52, 48, 27, 185, 146, 180, 188, 7, 251, 40, 12, 255, 212, 2, 199]","[1256017, 1256848, 1257391, 1258013, 1258580, 1259216, 1259838, 1260439, 1261002, 1261566, 1262083, 1262632, 1263128, 1263682, 1264235, 1264836, 1265334, 1265859, 1266314, 1266894, 1267389, 1267936, 1268556]","[1255743, 1256343, 1256943, 1257543, 1258143, 1258743, 1259343, 1259943, 1260401, 1260940, 1261504, 1262010, 1262565, 1263140, 1263695, 1264246, 1264763, 1265278, 1265783, 1266326, 1266907, 1267401, 1267908, 1268496]",73,SB,U,R,ITMSR,1.1
3,600,trial,0,66,66,66,trial,"['B', 'S', 'S', 'S', 'S', 'S', 'S', 'S', 'C', 'C', 'C', 'C', 'C', 'C', 'C', 'C', 'C', 'C', 'C', 'C', 'C', 'C', 'C', 'C']","[1273840, 1274219, 1274888, 1275538, 1276157, 1276812, 1277363, 1277984, 1278580, 1279111, 1279735, 1280306, 1280830, 1281442, 1282013, 1282518, 1283091, 1283636, 1284186, 1284720, 1285308, 1285821, 1286419, 1286951]","[1273865, 1274579, 1275235, 1275848, 1276389, 1276988, 1277642, 1278254, 1278776, 1279310, 1279915, 1280446, 1281020, 1281606, 1282127, 1282653, 1283223, 1283766, 1284298, 1284897, 1285447, 1285970, 1286569, 1287077]","[116, 74, 151, 163, 86, 218, 251, 65, 17, 13, 199, 206, 227, 160, 53, 94, 77, 180, 72, 171, 121, 151, 117, 133]","[1273840, 1274494, 1275130, 1275769, 1276316, 1276926, 1277577, 1278186, 1278708, 1279254, 1279855, 1280395, 1280956, 1281560, 1282020, 1282606, 1283098, 1283712, 1284192, 1284834, 1285395, 1285908, 1286424, 1287018]","[1273851, 1274451, 1275052, 1275651, 1276251, 1276851, 1277451, 1278051, 1278600, 1279131, 1279755, 1280326, 1280850, 1281462, 1282033, 1282538, 1283111, 1283656, 1284206, 1284740, 1285328, 1285841, 1286439, 1286971]",73,SB,U,R,ITMSR,1.1
3,400,trial,0,67,67,67,trial,"['S', 'S', 'S', 'S', 'S', 'S', 'S', 'C', 'C', 'C', 'C', 'C', 'C', 'C', 'C', 'C', 'C', 'C', 'C', 'C', 'C', 'C', 'C']","[1292731, 1293143, 1293485, 1293898, 1294291, 1294709, 1295089, 1295497, 1295884, 1296261, 1296611, 1297005, 1297355, 1297716, 1298086, 1298455, 1298844, 1299193, 1299555, 1299905, 1300321, 1300712, 1301065]","[1292905, 1293256, 1293588, 1293976, 1294397, 1294804, 1295203, 1295597, 1295976, 1296356, 1296705, 1297112, 1297471, 1297810, 1298188, 1298570, 1298952, 1299319, 1299676, 1300007, 1300418, 1300812, 1301198]","[151, 194, 14, 100, 35, 102, 37, 216, 250, 246, 13, 85, 225, 248, 233, 240, 109, 29, 249, 10, 28, 73, 10]","[1292859, 1293147, 1293489, 1293904, 1294298, 1294715, 1295096, 1295502, 1295890, 1296269, 1296618, 1297011, 1297360, 1297722, 1298094, 1298460, 1298849, 1299201, 1299563, 1299911, 1300328, 1300718, 1301073]","[1292339, 1292739, 1293139, 1293539, 1293939, 1294339, 1294739, 1295139, 1295517, 1295904, 1296281, 1296631, 1297026, 1297375, 1297736, 1298106, 1298476, 1298864, 1299213, 1299575, 1299926, 1300341, 1300732, 1301085]",73,SB,U,R,ITMSR,1.1
4,400,trial,0,68,68,68,trial,"['S', 'S', 'S', 'S', 'S', 'S', 'S', 'C', 'C', 'C', 'C', 'C', 'C', 'C', 'C', 'C', 'C', 'C', 'C', 'C', 'C', 'C', 'C']","[1306951, 1307392, 1307755, 1308134, 1308529, 1308918, 1309330, 1309751, 1310132, 1310542, 1310905, 1311286, 1311681, 1312063, 1312452, 1312829, 1313233, 1313593, 1313999, 1314398, 1314758, 1315150, 1315552]","[1307105, 1307515, 1307875, 1308238, 1308641, 1309023, 1309438, 1309858, 1310240, 1310638, 1311005, 1311384, 1311767, 1312147, 1312530, 1312908, 1313321, 1313701, 1314089, 1314493, 1314873, 1315249, 1315649]","[85, 79, 50, 99, 4, 86, 39, 54, 245, 56, 40, 42, 253, 33, 254, 31, 66, 89, 41, 250, 57, 77, 106]","[1306957, 1307398, 1307761, 1308139, 1308536, 1308924, 1309336, 1309757, 1310139, 1310548, 1310911, 1311292, 1311687, 1312068, 1312458, 1312834, 1313239, 1313600, 1314004, 1314404, 1314763, 1315156, 1315556]","[1306609, 1307010, 1307410, 1307810, 1308210, 1308610, 1309010, 1309410, 1309771, 1310152, 1310562, 1310925, 1311306, 1311702, 1312083, 1312472, 1312849, 1313253, 1313613, 1314019, 1314418, 1314778, 1315170, 1315572]",73,SB,U,R,ITMSR,1.1
5,400,trial,0,69,69,69,trial,"['S', 'S', 'S', 'S', 'S', 'S', 'S', 'C', 'C', 'C', 'C', 'C', 'C', 'C', 'C', 'C', 'C', 'C', 'C', 'C', 'C', 'C', 'C']","[1321105, 1321582, 1321988, 1322394, 1322840, 1323210, 1323628, 1324045, 1324433, 1324823, 1325219, 1325616, 1326004, 1326396, 1326777, 1327155, 1327533, 1327935, 1328344, 1328723, 1329125, 1329507, 1329909]","[1321151, 1321658, 1322074, 1322484, 1322925, 1323305, 1323728, 1324145, 1324539, 1324929, 1325318, 1325710, 1326106, 1326481, 1326865, 1327246, 1327632, 1328020, 1328429, 1328816, 1329223, 1329599, 1329988]","[192, 26, 49, 151, 138, 228, 177, 215, 73, 90, 112, 90, 111, 74, 93, 92, 96, 151, 143, 100, 119, 139, 112]","[1321113, 1321588, 1321994, 1322399, 1322845, 1323215, 1323633, 1324050, 1324439, 1324829, 1325225, 1325621, 1326010, 1326402, 1326783, 1327160, 1327539, 1327941, 1328350, 1328729, 1329131, 1329512, 1329915]","[1320923, 1321323, 1321723, 1322123, 1322523, 1322924, 1323323, 1323723, 1324065, 1324453, 1324844, 1325239, 1325636, 1326024, 1326416, 1326797, 1327175, 1327553, 1327955, 1328364, 1328743, 1329145, 1329527, 1329929]",73,SB,U,R,ITMSR,1.1
4,600,trial,0,70,70,70,trial,"['B', 'S', 'S', 'S', 'S', 'S', 'S', 'S', 'C', 'C', 'C', 'C', 'C', 'C', 'C', 'C', 'C', 'C', 'C', 'C', 'C', 'C', 'C', 'C', 'C', 'C', 'C', 'C']","[1335257, 1335590, 1336290, 1336949, 1337569, 1338187, 1338834, 1339398, 1340001, 1340615, 1341202, 1341763, 1342311, 1342888, 1343400, 1344003, 1344573, 1345197, 1345771, 1346345, 1346445, 1346906, 1347458, 1347558, 1348048, 1348148, 1348578, 1348678]","[1335308, 1335727, 1336522, 1337159, 1337799, 1338363, 1338918, 1339552, 1340153, 1340786, 1341380, 1341893, 1342441, 1343015, 1343574, 1344157, 1344696, 1345311, 1345906, 1346365, 1346506, 1347038, 1347478, 1347601, 1348068, 1348202, 1348598, 1348752]","[127, 223, 227, 77, 73, 3, 70, 182, 203, 116, 221, 187, 148, 200, 218, 161, 162, 155, 185, 103, 113, 243, 167, 71, 85, 243, 110, 20]","[1335257, 1335670, 1336476, 1337093, 1337740, 1338302, 1338841, 1339523, 1340079, 1340621, 1341317, 1341771, 1342395, 1342897, 1343516, 1344110, 1344579, 1345272, 1345843, 1346352, 1346451, 1346913, 1347464, 1347567, 1348054, 1348148, 1348583, 1348686]","[1335269, 1335869, 1336469, 1337069, 1337669, 1338269, 1338869, 1339469, 1340021, 1340635, 1341222, 1341784, 1342331, 1342908, 1343420, 1344023, 1344593, 1345217, 1345792, 1346365, 1346926, 1347478, 1348068, 1348598]",73,SB,U,R,ITMSR,1.1
0,600,trial,0,71,71,71,trial,"['S', 'S', 'S', 'S', 'S', 'S', 'S', 'C', 'C', 'C', 'C', 'C', 'C', 'C', 'C', 'C', 'C', 'C', 'C', 'C', 'C', 'C', 'C']","[1354278, 1354917, 1355467, 1356079, 1356725, 1357355, 1357989, 1358583, 1359166, 1359709, 1360281, 1360875, 1361447, 1362023, 1362558, 1363119, 1363658, 1364227, 1364807, 1365331, 1365848, 1366377, 1366970]","[1354407, 1355086, 1355642, 1356222, 1356864, 1357459, 1358099, 1358698, 1359280, 1359817, 1360375, 1360987, 1361541, 1362120, 1362679, 1363206, 1363756, 1364315, 1364892, 1365401, 1365926, 1366464, 1367049]","[11, 39, 16, 90, 136, 136, 108, 184, 210, 97, 108, 110, 35, 136, 92, 74, 162, 106, 84, 83, 67, 162, 89]","[1354284, 1355003, 1355474, 1356163, 1356807, 1357411, 1358041, 1358590, 1359174, 1359717, 1360286, 1360927, 1361491, 1362030, 1362569, 1363128, 1363667, 1364236, 1364860, 1365342, 1365909, 1366385, 1366974]","[1353927, 1354527, 1355127, 1355727, 1356327, 1356928, 1357528, 1358128, 1358603, 1359186, 1359729, 1360301, 1360896, 1361467, 1362043, 1362578, 1363139, 1363678, 1364247, 1364827, 1365351, 1365868, 1366397, 1366990]",73,SB,U,R,ITMSR,1.1
2,400,trial,0,72,72,72,trial,"['S', 'S', 'S', 'S', 'S', 'S', 'S', 'S', 'C', 'C', 'C', 'C', 'C', 'C', 'C', 'C', 'C', 'C', 'C', 'C', 'C', 'C', 'C', 'C']","[1372872, 1373228, 1373543, 1373864, 1374206, 1374613, 1374995, 1375424, 1375823, 1376184, 1376536, 1376920, 1377308, 1377694, 1378052, 1378422, 1378793, 1379160, 1379521, 1379907, 1380274, 1380632, 1380994, 1381340]","[1372964, 1373316, 1373633, 1373956, 1374309, 1374715, 1375120, 1375522, 1375904, 1376279, 1376650, 1377012, 1377380, 1377759, 1378132, 1378505, 1378861, 1379233, 1379608, 1379973, 1380354, 1380716, 1381075, 1381426]","[229, 1, 25, 10, 74, 116, 63, 153, 73, 75, 222, 186, 142, 47, 94, 204, 149, 189, 108, 121, 212, 179, 160, 168]","[1372880, 1373234, 1373548, 1373871, 1374213, 1374618, 1375000, 1375430, 1375828, 1376190, 1376544, 1376928, 1377316, 1377701, 1378060, 1378429, 1378801, 1379167, 1379581, 1379915, 1380281, 1380639, 1381001, 1381348]","[1372740, 1373140, 1373540, 1373940, 1374340, 1374740, 1375140, 1375540, 1375843, 1376204, 1376557, 1376941, 1377328, 1377714, 1378072, 1378442, 1378813, 1379180, 1379542, 1379928, 1380294, 1380653, 1381014, 1381360]",73,SB,U,R,ITMSR,1.1
3,600,trial,0,73,73,73,trial,"['B', 'S', 'S', 'S', 'S', 'S', 'S', 'S', 'C', 'C', 'C', 'C', 'C', 'C', 'C', 'C', 'C', 'C', 'C', 'C', 'C', 'C', 'C', 'C']","[1386867, 1387250, 1387959, 1388557, 1389202, 1389777, 1390361, 1391009, 1391608, 1392205, 1392761, 1393331, 1393819, 1394453, 1394951, 1395497, 1395989, 1396478, 1397023, 1397782, 1398286, 1398808, 1399303, 1399800]","[1386906, 1387668, 1388240, 1388883, 1389395, 1389901, 1390555, 1391125, 1391726, 1392295, 1392871, 1393379, 1393887, 1394524, 1395065, 1395553, 1396083, 1396571, 1397113, 1397838, 1398378, 1398867, 1399419, 1399892]","[136, 222, 208, 210, 205, 164, 254, 18, 20, 210, 230, 144, 31, 196, 226, 140, 147, 107, 126, 106, 137, 143, 238, 197]","[1386867, 1387569, 1388152, 1388763, 1389327, 1389859, 1390368, 1391016, 1391661, 1392214, 1392769, 1393337, 1393825, 1394461, 1395027, 1395506, 1395998, 1396530, 1397030, 1397820, 1398294, 1398815, 1399310, 1399805]","[1386880, 1387479, 1388078, 1388678, 1389278, 1389878, 1390478, 1391078, 1391628, 1392225, 1392781, 1393351, 1393839, 1394473, 1394971, 1395517, 1396009, 1396498, 1397043, 1397803, 1398306, 1398829, 1399323, 1399820]",73,SB,U,R,ITMSR,1.1
4,400,trial,0,74,74,74,trial,"['B', 'S', 'S', 'S', 'S', 'S', 'S', 'S', 'C', 'C', 'C', 'C', 'C', 'C', 'C', 'C', 'C', 'C', 'C', 'C', 'C', 'C', 'C', 'C']","[1405491, 1405860, 1406283, 1406679, 1407066, 1407428, 1407813, 1408202, 1408595, 1408992, 1409376, 1409721, 1410091, 1410479, 1410828, 1411209, 1411572, 1411962, 1412368, 1412717, 1413080, 1413449, 1413828, 1414209]","[1405650, 1406045, 1406436, 1406793, 1407169, 1407537, 1407920, 1408333, 1408715, 1409106, 1409479, 1409844, 1410182, 1410576, 1410927, 1411318, 1411686, 1412050, 1412435, 1412831, 1413165, 1413552, 1413913, 1414307]","[146, 229, 210, 193, 221, 28, 1, 242, 25, 239, 223, 230, 7, 5, 229, 120, 247, 195, 162, 230, 173, 239, 241, 219]","[1405590, 1405971, 1406366, 1406687, 1407074, 1407433, 1407819, 1408209, 1408602, 1408999, 1409383, 1409726, 1410097, 1410485, 1410835, 1411217, 1411579, 1411969, 1412375, 1412723, 1413087, 1413454, 1413833, 1414216]","[1405504, 1405904, 1406304, 1406704, 1407105, 1407504, 1407904, 1408304, 1408615, 1409012, 1409396, 1409741, 1410111, 1410499, 1410848, 1411229, 1411592, 1411982, 1412388, 1412738, 1413100, 1413469, 1413848, 1414230]",73,SB,U,R,ITMSR,1.1
5,400,trial,0,75,75,75,trial,"['S', 'S', 'S', 'S', 'S', 'S', 'S', 'C', 'C', 'C', 'C', 'C', 'C', 'C', 'C', 'C', 'C', 'C', 'C', 'C', 'C', 'C', 'C']","[1420319, 1420718, 1421124, 1421520, 1421911, 1422311, 1422738, 1423145, 1423531, 1423923, 1424303, 1424684, 1425082, 1425456, 1425838, 1426217, 1426585, 1426987, 1427354, 1427718, 1428097, 1428507, 1428889]","[1420479, 1420855, 1421275, 1421667, 1422063, 1422458, 1422871, 1423262, 1423656, 1424027, 1424408, 1424798, 1425179, 1425565, 1425934, 1426332, 1426678, 1427100, 1427459, 1427825, 1428207, 1428620, 1428997]","[183, 187, 64, 46, 46, 61, 49, 44, 14, 47, 54, 56, 55, 40, 43, 72, 7, 58, 19, 20, 66, 59, 53]","[1420326, 1420725, 1421130, 1421527, 1421917, 1422317, 1422744, 1423152, 1423537, 1423929, 1424310, 1424690, 1425088, 1425463, 1425844, 1426224, 1426591, 1426993, 1427360, 1427724, 1428103, 1428513, 1428896]","[1420009, 1420408, 1420808, 1421208, 1421608, 1422008, 1422408, 1422808, 1423165, 1423551, 1423943, 1424323, 1424704, 1425102, 1425476, 1425858, 1426237, 1426605, 1427007, 1427374, 1427738, 1428117, 1428527, 1428909]",73,SB,U,R,ITMSR,1.1
0,400,trial,0,76,76,76,trial,"['S', 'S', 'S', 'S', 'S', 'S', 'S', 'C', 'C', 'C', 'C', 'C', 'C', 'C', 'C', 'C', 'C', 'C', 'C', 'C', 'C', 'C', 'C', 'C']","[1435055, 1435438, 1435827, 1436291, 1436665, 1437046, 1437428, 1437820, 1437920, 1438209, 1438596, 1439002, 1439382, 1439781, 1440167, 1440561, 1440936, 1441331, 1441713, 1442113, 1442502, 1442868, 1443250, 1443642]","[1435075, 1435560, 1435931, 1436353, 1436772, 1437142, 1437448, 1437840, 1437940, 1438229, 1438616, 1439022, 1439403, 1439801, 1440187, 1440581, 1440956, 1441351, 1441733, 1442134, 1442522, 1442888, 1443270, 1443662]","[121, 61, 71, 37, 87, 117, 137, 124, 90, 80, 80, 43, 34, 28, 253, 11, 23, 76, 69, 210, 62, 196, 215, 254]","[1435060, 1435443, 1435831, 1436296, 1436672, 1437051, 1437433, 1437826, 1437920, 1438213, 1438601, 1439007, 1439387, 1439787, 1440173, 1440566, 1440941, 1441336, 1441718, 1442118, 1442507, 1442873, 1443255, 1443646]","[1434713, 1435112, 1435512, 1435912, 1436312, 1436712, 1437112, 1437512, 1437840, 1438229, 1438616, 1439022, 1439403, 1439801, 1440187, 1440581, 1440956, 1441351, 1441733, 1442134, 1442522, 1442888, 1443270, 1443662]",73,SB,U,R,ITMSR,1.1
0,400,trial,0,77,77,77,trial,"['B', 'S', 'S', 'S', 'S', 'S', 'S', 'S', 'C', 'C', 'C', 'C', 'C', 'C', 'C', 'C', 'C', 'C', 'C', 'C', 'C', 'C', 'C', 'C']","[1449435, 1449809, 1450224, 1450608, 1450985, 1451397, 1451789, 1452190, 1452613, 1453021, 1453404, 1453804, 1454171, 1454552, 1454943, 1455360, 1455774, 1456123, 1456506, 1456883, 1457285, 1457678, 1458050, 1458435]","[1449574, 1449999, 1450372, 1450764, 1451130, 1451538, 1451929, 1452346, 1452754, 1453147, 1453538, 1453919, 1454289, 1454656, 1455069, 1455438, 1455873, 1456248, 1456632, 1456993, 1457395, 1457786, 1458176, 1458548]","[109, 126, 121, 117, 123, 123, 119, 126, 151, 131, 142, 110, 142, 164, 98, 93, 78, 95, 34, 79, 96, 52, 62, 3]","[1449513, 1449933, 1450311, 1450614, 1450991, 1451403, 1451795, 1452196, 1452618, 1453026, 1453409, 1453810, 1454177, 1454557, 1454950, 1455366, 1455780, 1456130, 1456514, 1456889, 1457291, 1457684, 1458056, 1458441]","[1449447, 1449847, 1450247, 1450647, 1451047, 1451447, 1451847, 1452248, 1452633, 1453041, 1453424, 1453825, 1454191, 1454572, 1454963, 1455380, 1455794, 1456143, 1456526, 1456903, 1457305, 1457698, 1458070, 1458455]",73,SB,U,R,ITMSR,1.1
2,600,trial,0,78,78,78,trial,"['S', 'S', 'S', 'S', 'S', 'S', 'S', 'S', 'C', 'C', 'C', 'C', 'C', 'C', 'C', 'C', 'C', 'C', 'C', 'C', 'C', 'C', 'C', 'C', 'C', 'C', 'C']","[1481880, 1482192, 1482815, 1483389, 1483988, 1484610, 1485225, 1485824, 1486379, 1486479, 1486906, 1487012, 1487501, 1488051, 1488577, 1489111, 1489638, 1490179, 1490719, 1491235, 1491765, 1491865, 1492320, 1492865, 1493474, 1493976, 1494478]","[1481997, 1482488, 1483107, 1483707, 1484276, 1484869, 1485444, 1486027, 1486399, 1486528, 1486932, 1487125, 1487722, 1488267, 1488796, 1489357, 1489902, 1490424, 1490971, 1491435, 1491785, 1491961, 1492535, 1493071, 1493632, 1494145, 1494649]","[180, 107, 128, 121, 108, 4, 97, 38, 169, 8, 177, 54, 207, 236, 36, 217, 233, 203, 139, 72, 101, 217, 165, 179, 65, 12, 63]","[1481886, 1482201, 1483001, 1483602, 1484181, 1484802, 1485349, 1485963, 1486384, 1486493, 1486911, 1487062, 1487650, 1488182, 1488727, 1489233, 1489780, 1490328, 1490880, 1491241, 1491767, 1491909, 1492463, 1492871, 1493557, 1493983, 1494486]","[1481725, 1482326, 1482925, 1483525, 1484125, 1484725, 1485325, 1485925, 1486399, 1486926, 1487521, 1488071, 1488598, 1489131, 1489658, 1490199, 1490739, 1491255, 1491785, 1492340, 1492885, 1493494, 1493996, 1494498]",73,SB,U,R,ITMSR,1.1
5,600,trial,0,79,79,79,trial,"['B', 'S', 'S', 'S', 'S', 'S', 'S', 'S', 'C', 'C', 'C', 'C', 'C', 'C', 'C', 'C', 'C', 'C', 'C', 'C', 'C', 'C', 'C', 'C', 'C', 'C', 'C', 'C', 'C', 'C', 'C']","[1500017, 1500475, 1501152, 1501732, 1502334, 1502946, 1503564, 1504201, 1504863, 1505509, 1506067, 1506653, 1507268, 1507369, 1507856, 1508378, 1508917, 1509017, 1509465, 1509565, 1510021, 1510121, 1510566, 1510666, 1511149, 1511689, 1512173, 1512737, 1512837, 1513238, 1513340]","[1500111, 1500748, 1501408, 1502015, 1502562, 1503122, 1503755, 1504380, 1504992, 1505628, 1506087, 1506742, 1507288, 1507414, 1507876, 1508398, 1508937, 1509051, 1509485, 1509613, 1510041, 1510156, 1510586, 1510687, 1511308, 1511798, 1512299, 1512757, 1512886, 1513259, 1513360]","[194, 37, 76, 225, 217, 188, 113, 134, 195, 89, 177, 175, 80, 148, 209, 4, 221, 166, 8, 176, 229, 156, 225, 160, 62, 106, 192, 174, 98, 25, 91]","[1500017, 1500482, 1501303, 1501737, 1502341, 1502953, 1503569, 1504206, 1504868, 1505516, 1506074, 1506658, 1507274, 1507371, 1507859, 1508383, 1508918, 1509027, 1509470, 1509570, 1510023, 1510121, 1510569, 1510669, 1511154, 1511694, 1512178, 1512739, 1512839, 1513241, 1513340]","[1500028, 1500628, 1501229, 1501829, 1502429, 1503029, 1503629, 1504229, 1504883, 1505529, 1506087, 1506673, 1507288, 1507876, 1508398, 1508937, 1509485, 1510041, 1510586, 1511170, 1511709, 1512194, 1512757, 1513259]",73,SB,U,R,ITMSR,1.1
1,600,trial,0,80,80,80,trial,"['S', 'S', 'S', 'S', 'S', 'S', 'S', 'S', 'C', 'C', 'C', 'C', 'C', 'C', 'C', 'C', 'C', 'C', 'C', 'C', 'C', 'C', 'C', 'C']","[1519009, 1519423, 1519913, 1520487, 1521047, 1521654, 1522233, 1522835, 1523456, 1524019, 1524570, 1525169, 1525655, 1526240, 1526754, 1527348, 1527880, 1528403, 1528968, 1529538, 1530143, 1530596, 1531171, 1531724]","[1519108, 1519618, 1520159, 1520791, 1521361, 1521951, 1522560, 1523180, 1523706, 1524246, 1524823, 1525390, 1525915, 1526516, 1527005, 1527572, 1528118, 1528673, 1529242, 1529792, 1530350, 1530818, 1531403, 1531948]","[177, 151, 75, 76, 53, 54, 67, 77, 81, 48, 39, 22, 90, 47, 220, 239, 230, 18, 1, 255, 241, 221, 188, 102]","[1519014, 1519429, 1520026, 1520669, 1521262, 1521847, 1522464, 1523042, 1523599, 1524169, 1524743, 1525175, 1525817, 1526440, 1526906, 1527354, 1528024, 1528591, 1529160, 1529691, 1530279, 1530744, 1531313, 1531857]","[1518854, 1519454, 1520054, 1520654, 1521254, 1521854, 1522454, 1523054, 1523476, 1524039, 1524590, 1525189, 1525676, 1526260, 1526774, 1527368, 1527900, 1528423, 1528988, 1529559, 1530163, 1530616, 1531191, 1531744]",73,SB,U,R,ITMSR,1.1
0,600,trial,0,81,81,81,trial,"['B', 'S', 'S', 'S', 'S', 'S', 'S', 'S', 'C', 'C', 'C', 'C', 'C', 'C', 'C', 'C', 'C', 'C', 'C', 'C', 'C', 'C', 'C', 'C']","[1537296, 1537720, 1538340, 1538977, 1539531, 1540131, 1540725, 1541343, 1541976, 1542516, 1543112, 1543664, 1544198, 1544718, 1545262, 1545819, 1546332, 1546864, 1547392, 1547942, 1548477, 1549003, 1549491, 1549980]","[1537422, 1538080, 1538710, 1539279, 1539860, 1540460, 1541057, 1541665, 1542234, 1542809, 1543364, 1543917, 1544413, 1544972, 1545505, 1546021, 1546622, 1547131, 1547616, 1548172, 1548679, 1549174, 1549686, 1550198]","[79, 204, 185, 159, 180, 163, 181, 153, 155, 145, 159, 135, 97, 128, 95, 52, 83, 90, 81, 133, 105, 63, 50, 61]","[1537337, 1537971, 1538629, 1539198, 1539763, 1540367, 1540933, 1541571, 1542145, 1542722, 1543292, 1543820, 1544336, 1544879, 1545390, 1545917, 1546520, 1547053, 1547537, 1548088, 1548605, 1549105, 1549601, 1550120]","[1537309, 1537908, 1538508, 1539108, 1539708, 1540308, 1540909, 1541509, 1541996, 1542536, 1543132, 1543684, 1544218, 1544738, 1545282, 1545839, 1546352, 1546884, 1547412, 1547962, 1548497, 1549023, 1549511, 1550000]",73,SB,U,R,ITMSR,1.1
1,400,trial,0,82,82,82,trial,"['S', 'S', 'S', 'S', 'S', 'S', 'S', 'C', 'C', 'C', 'C', 'C', 'C', 'C', 'C', 'C', 'C', 'C', 'C', 'C', 'C', 'C', 'C']","[1555880, 1556322, 1556711, 1557144, 1557539, 1557933, 1558328, 1558717, 1559118, 1559501, 1559880, 1560253, 1560629, 1560980, 1561370, 1561738, 1562117, 1562477, 1562854, 1563212, 1563615, 1564000, 1564401]","[1556032, 1556447, 1556824, 1557245, 1557654, 1558050, 1558466, 1558827, 1559238, 1559623, 1559999, 1560375, 1560758, 1561095, 1561461, 1561842, 1562220, 1562579, 1562874, 1563323, 1563710, 1564124, 1564492]","[84, 97, 152, 131, 209, 172, 163, 231, 199, 178, 191, 183, 179, 163, 177, 182, 176, 161, 166, 190, 134, 143, 140]","[1555970, 1556328, 1556716, 1557149, 1557545, 1557939, 1558334, 1558722, 1559124, 1559506, 1559885, 1560258, 1560633, 1560983, 1561374, 1561743, 1562121, 1562483, 1562859, 1563218, 1563621, 1564006, 1564406]","[1555623, 1556023, 1556423, 1556824, 1557224, 1557624, 1558024, 1558424, 1558737, 1559138, 1559521, 1559900, 1560273, 1560649, 1561000, 1561390, 1561758, 1562137, 1562498, 1562874, 1563232, 1563635, 1564020, 1564421]",73,SB,U,R,ITMSR,1.1
3,600,trial,0,83,83,83,trial,"['S', 'S', 'S', 'S', 'S', 'S', 'S', 'S', 'S', 'C', 'C', 'C', 'C', 'C', 'C', 'C', 'C', 'C', 'C', 'C', 'C', 'C', 'C', 'C', 'C']","[1569968, 1570734, 1570834, 1571401, 1571501, 1572071, 1572644, 1573261, 1573853, 1574462, 1575038, 1575554, 1576124, 1576626, 1577230, 1577716, 1578261, 1578783, 1579273, 1579801, 1580307, 1580818, 1581320, 1581824, 1582361]","[1570131, 1570754, 1570955, 1571421, 1571622, 1572301, 1572903, 1573502, 1574023, 1574593, 1575227, 1575716, 1576261, 1576800, 1577345, 1577857, 1578381, 1578929, 1579423, 1579965, 1580473, 1580976, 1581473, 1581974, 1582482]","[228, 169, 243, 58, 23, 191, 86, 3, 237, 236, 6, 28, 244, 41, 181, 248, 200, 185, 26, 186, 193, 255, 196, 195, 99]","[1569972, 1570741, 1570915, 1571407, 1571550, 1572251, 1572652, 1573426, 1573968, 1574519, 1575140, 1575645, 1576203, 1576733, 1577293, 1577721, 1578266, 1578874, 1579279, 1579808, 1580311, 1580824, 1581392, 1581902, 1582416]","[1569773, 1570373, 1570973, 1571573, 1572173, 1572773, 1573373, 1573974, 1574482, 1575058, 1575574, 1576144, 1576646, 1577250, 1577736, 1578281, 1578803, 1579293, 1579821, 1580327, 1580838, 1581340, 1581844, 1582381]",73,SB,U,R,ITMSR,1.1
2,400,trial,0,84,84,84,trial,"['B', 'S', 'S', 'S', 'S', 'S', 'S', 'S', 'C', 'C', 'C', 'C', 'C', 'C', 'C', 'C', 'C', 'C', 'C', 'C', 'C', 'C', 'C', 'C', 'C']","[1587997, 1588441, 1588866, 1589164, 1589548, 1589918, 1590295, 1590686, 1591103, 1591494, 1591879, 1592258, 1592646, 1592985, 1593357, 1593457, 1593731, 1594124, 1594499, 1594876, 1595254, 1595642, 1595965, 1596343, 1596739]","[1588156, 1588626, 1588975, 1589276, 1589667, 1590041, 1590425, 1590825, 1591232, 1591633, 1592001, 1592367, 1592731, 1593089, 1593377, 1593477, 1593829, 1594227, 1594599, 1594983, 1595356, 1595744, 1596068, 1596455, 1596838]","[166, 224, 241, 28, 102, 120, 170, 161, 197, 139, 106, 78, 128, 104, 86, 56, 98, 42, 90, 251, 13, 255, 149, 227, 201]","[1588061, 1588448, 1588874, 1589171, 1589554, 1589924, 1590300, 1590691, 1591108, 1591500, 1591885, 1592264, 1592652, 1592991, 1593364, 1593457, 1593736, 1594130, 1594505, 1594884, 1595260, 1595649, 1595972, 1596348, 1596745]","[1588009, 1588409, 1588809, 1589209, 1589609, 1590009, 1590409, 1590809, 1591123, 1591514, 1591899, 1592279, 1592666, 1593005, 1593377, 1593751, 1594144, 1594519, 1594896, 1595274, 1595662, 1595985, 1596363, 1596760]",73,SB,U,R,ITMSR,1.1
5,600,trial,0,85,85,85,trial,"['B', 'S', 'S', 'S', 'S', 'S', 'S', 'S', 'C', 'C', 'C', 'C', 'C', 'C', 'C', 'C', 'C', 'C', 'C', 'C', 'C', 'C', 'C', 'C']","[1602132, 1602516, 1603194, 1603799, 1604407, 1605015, 1605684, 1606283, 1606803, 1607375, 1607922, 1608480, 1609047, 1609528, 1610051, 1610594, 1611087, 1611692, 1612269, 1612803, 1613319, 1613822, 1614337, 1614863]","[1602245, 1602919, 1603525, 1604140, 1604750, 1605357, 1605942, 1606540, 1607050, 1607576, 1608097, 1608614, 1609193, 1609677, 1610185, 1610714, 1611202, 1611830, 1612441, 1612956, 1613433, 1613947, 1614476, 1614984]","[143, 157, 157, 194, 139, 148, 161, 185, 109, 241, 24, 63, 56, 199, 100, 118, 18, 163, 137, 245, 30, 210, 44, 3]","[1602132, 1602522, 1603420, 1603805, 1604668, 1605022, 1605850, 1606434, 1606980, 1607525, 1607929, 1608488, 1609053, 1609536, 1610057, 1610602, 1611094, 1611700, 1612275, 1612810, 1613325, 1613829, 1614343, 1614870]","[1602144, 1602744, 1603344, 1603944, 1604544, 1605144, 1605744, 1606344, 1606823, 1607395, 1607942, 1608500, 1609067, 1609548, 1610072, 1610614, 1611107, 1611712, 1612290, 1612823, 1613339, 1613842, 1614357, 1614883]",73,SB,U,R,ITMSR,1.1
5,400,trial,0,86,86,86,trial,"['S', 'S', 'S', 'S', 'S', 'S', 'S', 'C', 'C', 'C', 'C', 'C', 'C', 'C', 'C', 'C', 'C', 'C', 'C', 'C', 'C', 'C', 'C', 'C', 'C']","[1620682, 1621228, 1621650, 1622056, 1622481, 1622864, 1623263, 1623654, 1624055, 1624463, 1624851, 1625263, 1625669, 1625985, 1626401, 1626801, 1627204, 1627595, 1627700, 1628002, 1628384, 1628751, 1628851, 1629151, 1629521]","[1620808, 1621396, 1621770, 1622181, 1622603, 1623018, 1623378, 1623753, 1624160, 1624582, 1625008, 1625363, 1625789, 1626145, 1626541, 1626917, 1627319, 1627620, 1627720, 1628027, 1628491, 1628771, 1628900, 1629273, 1629648]","[52, 249, 71, 99, 127, 241, 210, 148, 143, 92, 170, 182, 149, 140, 150, 200, 208, 201, 225, 195, 184, 135, 250, 196, 173]","[1620689, 1621234, 1621656, 1622063, 1622487, 1622868, 1623267, 1623660, 1624060, 1624468, 1624856, 1625269, 1625675, 1625991, 1626407, 1626805, 1627209, 1627600, 1627700, 1628006, 1628388, 1628756, 1628851, 1629155, 1629527]","[1620484, 1620884, 1621284, 1621684, 1622084, 1622484, 1622884, 1623284, 1623674, 1624075, 1624483, 1624871, 1625283, 1625689, 1626005, 1626421, 1626821, 1627224, 1627615, 1628022, 1628404, 1628771, 1629171, 1629541]",73,SB,U,R,ITMSR,1.1
5,400,trial,0,87,87,87,trial,"['B', 'S', 'S', 'S', 'S', 'S', 'S', 'S', 'C', 'C', 'C', 'C', 'C', 'C', 'C', 'C', 'C', 'C', 'C', 'C', 'C', 'C', 'C', 'C']","[1634960, 1635332, 1635735, 1636126, 1636520, 1636913, 1637298, 1637692, 1638085, 1638468, 1638851, 1639231, 1639615, 1640016, 1640375, 1640754, 1641121, 1641534, 1641875, 1642269, 1642648, 1643017, 1643421, 1643768]","[1635098, 1635500, 1635868, 1636297, 1636664, 1637070, 1637433, 1637827, 1638230, 1638609, 1638981, 1639368, 1639741, 1640122, 1640501, 1640866, 1641236, 1641641, 1642051, 1642394, 1642763, 1643158, 1643523, 1643888]","[235, 100, 129, 213, 88, 199, 197, 177, 186, 184, 202, 200, 184, 127, 181, 136, 156, 217, 149, 148, 200, 179, 252, 88]","[1635057, 1635338, 1635740, 1636132, 1636526, 1636918, 1637303, 1637697, 1638090, 1638473, 1638856, 1639235, 1639621, 1640024, 1640380, 1640760, 1641127, 1641539, 1641880, 1642274, 1642653, 1643022, 1643426, 1643774]","[1634971, 1635372, 1635771, 1636171, 1636571, 1636971, 1637371, 1637771, 1638105, 1638488, 1638872, 1639251, 1639635, 1640036, 1640395, 1640774, 1641141, 1641554, 1641895, 1642289, 1642669, 1643037, 1643441, 1643788]",73,SB,U,R,ITMSR,1.1
