pitch,ioi,event,.thisRepN,.thisTrialN,.thisN,.thisIndex,event,tap_types,tap_times,release_times,peak_pressures,peak_times,tone_times,subject,experimenter,register,handedness,experiment,version,
,,SPR,0,-1,-1,0,SPR,"['P', 'P', 'P', 'P', 'P', 'P', 'P', 'P', 'P', 'P', 'P', 'P', 'P', 'P', 'P', 'P', 'P', 'P', 'P', 'P', 'P', 'P', 'P', 'P', 'P', 'P', 'P', 'P', 'P', 'P']","[33953, 34803, 40163, 40392, 40717, 41017, 41372, 41839, 42243, 42785, 43220, 43694, 44179, 44631, 45143, 45658, 46130, 46612, 47120, 47600, 48066, 48560, 49040, 49557, 50046, 50540, 51057, 51464, 51991, 52451]","[34216, 35136, 40223, 40425, 40760, 41061, 41427, 41890, 42318, 42849, 43297, 43749, 44234, 44686, 45223, 45713, 46157, 46696, 47190, 47641, 48133, 48648, 49110, 49647, 50128, 50604, 51103, 51557, 52046, 52552]","[178, 195, 231, 237, 164, 58, 37, 139, 75, 99, 167, 126, 140, 200, 31, 175, 212, 47, 1, 199, 2, 110, 82, 231, 32, 218, 177, 220, 60, 23]","[34068, 34966, 40172, 40398, 40725, 41026, 41380, 41847, 42250, 42791, 43227, 43701, 44185, 44637, 45151, 45664, 46135, 46618, 47125, 47606, 48074, 48565, 49047, 49566, 50053, 50546, 51061, 51471, 51997, 52458]",,52,SB,L,R,ITMSR,1.0,
0,500,practice,0,0,0,0,practice,"['B', 'S', 'S', 'S', 'S', 'S', 'S', 'S', 'C', 'C', 'C', 'C', 'C', 'C', 'C', 'C', 'C', 'C', 'C', 'C', 'C', 'C', 'C', 'C']","[145501, 145906, 146446, 146975, 147564, 147991, 148455, 148820, 149395, 149972, 150501, 150992, 151544, 152028, 152577, 153123, 153688, 154167, 154735, 155283, 155765, 156326, 156834, 157336]","[145529, 145984, 146531, 147059, 147593, 148057, 148529, 148898, 149472, 150052, 150580, 151063, 151600, 152120, 152650, 153195, 153732, 154217, 154804, 155354, 155844, 156394, 156907, 157421]","[249, 182, 166, 75, 15, 80, 34, 215, 57, 216, 223, 21, 77, 37, 59, 79, 30, 66, 103, 113, 43, 203, 194, 145]","[145501, 145912, 146452, 146983, 147572, 147998, 148463, 148829, 149401, 150013, 150507, 150998, 151550, 152078, 152584, 153131, 153695, 154175, 154741, 155324, 155805, 156333, 156840, 157344]","[145529, 146028, 146529, 147028, 147528, 148029, 148529, 149028, 149436, 150012, 150542, 151032, 151584, 152069, 152617, 153163, 153729, 154208, 154775, 155324, 155805, 156366, 156874, 157377]",52,SB,L,R,ITMSR,1.0,
1,500,practice,0,1,1,1,practice,"['S', 'S', 'S', 'S', 'S', 'S', 'S', 'C', 'C', 'C', 'C', 'C', 'C', 'C', 'C', 'C', 'C', 'C', 'C', 'C', 'C', 'C', 'C']","[162759, 163284, 163850, 164410, 164973, 165665, 166253, 167014, 167811, 168486, 169066, 169619, 170204, 170793, 171377, 171905, 172550, 173106, 173712, 174364, 174948, 175557, 176133]","[162852, 163353, 163930, 164477, 165076, 165743, 166321, 167104, 167898, 168581, 169185, 169724, 170283, 170896, 171491, 172028, 172666, 173228, 173760, 174537, 175121, 175709, 176309]","[38, 84, 87, 29, 52, 64, 6, 29, 1, 17, 184, 245, 182, 233, 111, 3, 229, 242, 108, 214, 127, 205, 179]","[162813, 163324, 163892, 164446, 165038, 165704, 166293, 167067, 167874, 168529, 169143, 169698, 170210, 170859, 171447, 171975, 172557, 173177, 173720, 174455, 175024, 175632, 176225]","[162741, 163240, 163740, 164241, 164741, 165240, 165740, 166241, 167054, 167851, 168525, 169106, 169659, 170244, 170832, 171416, 171944, 172590, 173146, 173752, 174403, 174988, 175596, 176173]",52,SB,L,R,ITMSR,1.0,
4,500,practice,0,2,2,2,practice,"['S', 'S', 'S', 'S', 'S', 'C', 'C', 'C', 'C', 'C', 'C', 'C', 'C', 'C', 'C', 'C', 'C', 'C', 'C', 'C', 'C']","[181808, 182433, 183252, 184004, 184848, 185643, 186627, 187447, 188105, 188915, 189580, 190182, 191124, 191872, 192588, 193285, 194020, 194700, 195433, 196117, 196844]","[181924, 182597, 183382, 184130, 185011, 185791, 186764, 187591, 188337, 189102, 189735, 190359, 191243, 192016, 192717, 193397, 194168, 194879, 195568, 196235, 196995]","[13, 231, 2, 9, 45, 164, 253, 24, 73, 5, 226, 201, 140, 248, 250, 232, 2, 60, 50, 42, 66]","[181866, 182525, 183323, 184077, 184947, 185711, 186697, 187528, 188231, 189025, 189663, 190282, 191195, 191946, 192675, 193355, 194118, 194786, 195520, 196192, 196937]","[181749, 182249, 182749, 183248, 183748, 184249, 184749, 185248, 185681, 186665, 187486, 188143, 188953, 189619, 190221, 191163, 191910, 192626, 193324, 194059, 194739, 195472, 196156, 196883]",52,SB,L,R,ITMSR,1.0,
5,500,practice,0,3,3,3,practice,"['S', 'S', 'S', 'S', 'C', 'C', 'C', 'C', 'C', 'C', 'C', 'C', 'C', 'C', 'C', 'C', 'C', 'C', 'C', 'C']","[202634, 203807, 204852, 205831, 206908, 207920, 208945, 209811, 210533, 211235, 212003, 212862, 213682, 214529, 215365, 216258, 217174, 218096, 218909, 219662]","[202730, 203968, 205069, 206013, 207176, 208390, 209331, 210042, 210715, 211459, 212236, 213038, 213868, 214677, 215604, 216554, 217431, 218375, 219186]","[37, 92, 19, 239, 69, 50, 72, 51, 11, 26, 31, 221, 170, 128, 46, 65, 249, 29, 151]","[202678, 203893, 204991, 205935, 207028, 208303, 209184, 209911, 210627, 211316, 212112, 212952, 213778, 214612, 215489, 216379, 217289, 218211, 219004]","[202435, 202936, 203436, 203935, 204436, 204936, 205435, 205935, 206949, 207961, 208986, 209852, 210574, 211275, 212043, 212902, 213723, 214569, 215405, 216299, 217214, 218136, 218949, 219703]",52,SB,L,R,ITMSR,1.0,
2,500,practice,0,4,4,4,practice,"['S', 'S', 'S', 'S', 'C', 'C', 'C', 'C', 'C', 'C', 'C', 'C', 'C', 'C', 'C', 'C', 'C', 'C', 'C', 'C']","[225199, 226185, 227472, 228558, 229843, 231034, 231921, 232863, 233760, 234670, 235559, 236481, 237403, 238309, 239198, 240119, 241010, 241966, 242939, 243938]","[225375, 226445, 227784, 228960, 230377, 231246, 232122, 233145, 234099, 234957, 235875, 236772, 237681, 238598, 239421, 240381, 241266, 242266, 243236, 244199]","[122, 10, 43, 251, 48, 29, 129, 52, 43, 39, 45, 21, 54, 24, 84, 70, 110, 239, 55, 96]","[225303, 226360, 227622, 228834, 230049, 231038, 231924, 232870, 233991, 234676, 235565, 236485, 237408, 238315, 239202, 240123, 241013, 241970, 242946, 243943]","[225040, 225539, 226038, 226539, 227039, 227538, 228038, 228539, 229883, 231074, 231961, 232903, 233800, 234711, 235599, 236522, 237444, 238350, 239239, 240159, 241050, 242007, 242979, 243979]",52,SB,L,R,ITMSR,1.0,
3,500,practice,0,5,5,5,practice,"['S', 'S', 'S', 'S', 'C', 'C', 'C', 'C', 'C', 'C', 'C', 'C', 'C', 'C', 'C', 'C', 'C', 'C', 'C', 'C']","[249490, 250690, 251659, 252674, 253764, 254894, 255803, 256603, 257344, 258328, 259192, 260021, 260822, 261687, 262627, 263706, 264671, 265605, 266680, 267487]","[249672, 250866, 251999, 253046, 254281, 255238, 256077, 256909, 257755, 258655, 259525, 260297, 261171, 262117, 263132, 264120, 265095, 265946, 266901]","[120, 211, 151, 215, 56, 231, 206, 90, 102, 64, 5, 220, 203, 250, 51, 174, 32, 109, 220]","[249569, 250818, 251664, 252678, 253769, 254898, 255808, 256608, 257348, 258333, 259197, 260026, 260826, 261691, 262632, 263712, 264675, 265610, 266686]","[249451, 249951, 250450, 250950, 251451, 251951, 252450, 252950, 253804, 254935, 255844, 256644, 257385, 258369, 259232, 260062, 260862, 261728, 262668, 263746, 264712, 265646, 266721, 267528]",52,SB,L,R,ITMSR,1.0,
5,400,trial,0,6,6,6,trial,"['S', 'S', 'S', 'C', 'C', 'C', 'C', 'C', 'C', 'C', 'C', 'C', 'C', 'C', 'C', 'C', 'C', 'C', 'C']","[318809, 319851, 320824, 321975, 322939, 323728, 324391, 325360, 326494, 327574, 328569, 329595, 330601, 331575, 332537, 333559, 334530, 335567, 336625]","[319287, 320183, 321231, 322248, 323174, 323941, 324595, 325704, 326903, 327983, 328930, 329950, 330945, 331937, 332901, 333925, 334946, 335973]","[68, 236, 43, 15, 14, 80, 89, 247, 100, 54, 97, 66, 233, 50, 1, 211, 143, 180]","[318969, 319856, 320828, 321979, 322944, 323731, 324396, 325537, 326497, 327578, 328573, 329601, 330605, 331579, 332541, 333562, 334534, 335569]","[318486, 318886, 319287, 319686, 320087, 320487, 320886, 321287, 322016, 322979, 323769, 324431, 325400, 326535, 327615, 328609, 329635, 330642, 331616, 332577, 333599, 334571, 335607, 336665]",52,SB,L,R,ITMSR,1.0,
4,600,trial,0,7,7,7,trial,"['S', 'S', 'S', 'C', 'C', 'C', 'C', 'C', 'C', 'C', 'C', 'C', 'C', 'C', 'C', 'C', 'C', 'C', 'C']","[343463, 344601, 345826, 347154, 348436, 349566, 350660, 351863, 353041, 354169, 355317, 356454, 357524, 359319, 360427, 361555, 362632, 363740, 364934]","[343896, 344981, 346350, 347656, 348960, 349992, 350981, 352071, 353267, 354420, 355650, 356784, 357889, 359570, 360737, 361856, 362959, 364078]","[235, 57, 40, 235, 22, 38, 233, 9, 229, 22, 27, 46, 40, 14, 17, 4, 31, 202]","[343468, 344604, 345830, 347157, 348439, 349570, 350663, 351867, 353043, 354173, 355320, 356457, 357526, 359322, 360430, 361559, 362635, 363744]","[342359, 342959, 343559, 344159, 344759, 345359, 345959, 346559, 347193, 348475, 349604, 350698, 351901, 353080, 354207, 355355, 356493, 357563, 359358, 360466, 361593, 362671, 363779, 364973]",52,SB,L,R,ITMSR,1.0,
5,600,trial,0,8,8,8,trial,"['S', 'S', 'S', 'S', 'S', 'S', 'S', 'C', 'C', 'C', 'C', 'C', 'C', 'C', 'C', 'C', 'C', 'C', 'C', 'C', 'C', 'C', 'C']","[371336, 371733, 372262, 372833, 373408, 373995, 374495, 375137, 375783, 376429, 376990, 377533, 378065, 378638, 379192, 379756, 380346, 380955, 381572, 382203, 382780, 383356, 383963]","[371447, 371916, 372407, 372947, 373497, 374095, 374717, 375324, 375932, 376585, 377151, 377715, 378227, 378799, 379358, 379914, 380502, 381108, 381733, 382427, 382988, 383544, 384105]","[72, 117, 136, 54, 254, 55, 4, 117, 32, 83, 115, 168, 111, 62, 75, 61, 255, 149, 184, 175, 190, 218, 198]","[371404, 371838, 372268, 372902, 373412, 373999, 374500, 375143, 375862, 376433, 376995, 377538, 378071, 378743, 379284, 379760, 380349, 380960, 381577, 382209, 382784, 383361, 383968]","[370684, 371284, 371885, 372485, 373085, 373685, 374285, 374885, 375178, 375824, 376470, 377030, 377574, 378105, 378679, 379233, 379797, 380387, 380995, 381613, 382243, 382821, 383396, 384004]",52,SB,L,R,ITMSR,1.0,
3,600,trial,0,9,9,9,trial,"['S', 'S', 'S', 'S', 'S', 'S', 'S', 'C', 'C', 'C', 'C', 'C', 'C', 'C', 'C', 'C', 'C', 'C', 'C', 'C', 'C', 'C', 'C']","[389788, 390562, 391103, 391626, 392199, 392766, 393507, 394087, 394699, 395277, 395853, 396464, 397004, 397546, 398205, 398838, 399429, 400088, 400691, 401314, 402015, 402617, 403225]","[390112, 390715, 391235, 391867, 392410, 393084, 393726, 394327, 394898, 395474, 396107, 396680, 397229, 397779, 398455, 399075, 399697, 400340, 400909, 401506, 402150, 402825, 403417]","[223, 216, 108, 173, 162, 179, 192, 196, 170, 184, 195, 146, 109, 185, 129, 149, 197, 147, 188, 155, 109, 214, 215]","[389863, 390567, 391108, 391630, 392203, 392770, 393511, 394091, 394704, 395282, 395857, 396468, 397008, 397551, 398343, 398842, 399434, 400240, 400696, 401318, 402021, 402621, 403230]","[389348, 389948, 390548, 391148, 391748, 392348, 392948, 393548, 394128, 394739, 395318, 395893, 396505, 397044, 397587, 398245, 398878, 399469, 400129, 400732, 401354, 402056, 402658, 403265]",52,SB,L,R,ITMSR,1.0,
3,600,trial,0,10,10,10,trial,"['S', 'S', 'S', 'S', 'S', 'S', 'S', 'S', 'C', 'C', 'C', 'C', 'C', 'C', 'C', 'C', 'C', 'C', 'C', 'C', 'C', 'C', 'C', 'C']","[409284, 409940, 410393, 410928, 411462, 411968, 412509, 413029, 413547, 414219, 414732, 415223, 415662, 416326, 416993, 417632, 418195, 418799, 419399, 419953, 420499, 421130, 421764, 422318]","[409340, 409963, 410414, 411021, 411542, 412062, 412587, 413084, 413613, 414309, 414806, 415287, 415738, 416427, 417110, 417689, 418285, 418870, 419475, 420012, 420566, 421196, 421811, 422372]","[48, 215, 32, 136, 224, 87, 111, 43, 146, 168, 141, 128, 112, 159, 200, 167, 200, 98, 86, 168, 165, 191, 85, 121]","[409290, 409947, 410398, 410933, 411522, 411973, 412514, 413033, 413551, 414224, 414737, 415228, 415667, 416331, 416998, 417637, 418199, 418803, 419403, 419957, 420502, 421134, 421770, 422323]","[409062, 409662, 410262, 410862, 411462, 412062, 412662, 413262, 413588, 414260, 414773, 415263, 415703, 416366, 417034, 417673, 418236, 418839, 419439, 419993, 420540, 421171, 421805, 422359]",52,SB,L,R,ITMSR,1.0,
4,400,trial,0,11,11,11,trial,"['S', 'S', 'S', 'S', 'C', 'C', 'C', 'C', 'C', 'C', 'C', 'C', 'C', 'C', 'C', 'C', 'C', 'C', 'C', 'C']","[428918, 429342, 429929, 430513, 431066, 431614, 432105, 432700, 433169, 433627, 434039, 434443, 434874, 435398, 435870, 436320, 436782, 437243, 437738, 438197]","[429009, 429430, 430036, 430616, 431143, 431707, 432256, 432815, 433315, 433709, 434118, 434504, 434937, 435520, 435980, 436406, 436858, 437317, 437797, 438266]","[208, 155, 182, 151, 170, 141, 230, 193, 182, 123, 175, 83, 139, 231, 197, 124, 84, 232, 124, 131]","[428923, 429348, 429934, 430517, 431070, 431620, 432109, 432704, 433173, 433632, 434044, 434448, 434878, 435402, 435875, 436325, 436787, 437246, 437741, 438202]","[428037, 428436, 428836, 429237, 429636, 430036, 430437, 430836, 431105, 431652, 432144, 432739, 433208, 433666, 434077, 434482, 434913, 435436, 435908, 436359, 436820, 437281, 437777, 438236]",52,SB,L,R,ITMSR,1.0,
2,400,trial,0,12,12,12,trial,"['S', 'S', 'S', 'S', 'S', 'C', 'C', 'C', 'C', 'C', 'C', 'C', 'C', 'C', 'C', 'C', 'C', 'C', 'C', 'C', 'C']","[444156, 444703, 445316, 445831, 446409, 447008, 447731, 448290, 448753, 449275, 449785, 450171, 450625, 451047, 451516, 451932, 452383, 452855, 453318, 453822, 454424]","[444227, 444784, 445395, 445903, 446537, 447098, 447837, 448406, 448923, 449401, 449878, 450267, 450705, 451113, 451590, 452005, 452441, 452920, 453383, 453937, 454524]","[144, 1, 75, 196, 224, 85, 95, 228, 80, 89, 64, 102, 73, 80, 38, 127, 40, 157, 69, 207, 177]","[444162, 444708, 445321, 445836, 446414, 447013, 447736, 448296, 448758, 449281, 449790, 450177, 450629, 451052, 451521, 451937, 452389, 452860, 453323, 453826, 454429]","[443901, 444301, 444700, 445101, 445501, 445900, 446301, 446700, 447048, 447771, 448330, 448793, 449315, 449825, 450211, 450666, 451088, 451557, 451973, 452423, 452895, 453358, 453863, 454465]",52,SB,L,R,ITMSR,1.0,
5,600,trial,0,13,13,13,trial,"['S', 'S', 'S', 'S', 'S', 'S', 'S', 'S', 'S', 'C', 'C', 'C', 'C', 'C', 'C', 'C', 'C', 'C', 'C', 'C', 'C', 'C', 'C', 'C', 'C']","[460177, 460792, 461280, 461800, 462320, 462765, 463172, 463733, 464212, 464696, 465191, 465688, 466123, 466556, 466920, 467291, 467720, 468108, 468473, 468979, 469498, 469945, 470424, 470919, 471435]","[460306, 460891, 461384, 461884, 462394, 462848, 463282, 463811, 464296, 464780, 465300, 465773, 466214, 466648, 466980, 467351, 467818, 468194, 468568, 469098, 469633, 470098, 470562, 471060, 471554]","[53, 137, 215, 107, 27, 54, 30, 146, 86, 75, 92, 157, 142, 158, 145, 50, 159, 138, 127, 192, 197, 211, 209, 226, 178]","[460183, 460797, 461284, 461804, 462325, 462769, 463178, 463738, 464218, 464700, 465196, 465692, 466128, 466562, 466924, 467295, 467724, 468113, 468478, 468984, 469504, 469950, 470429, 470924, 471440]","[459842, 460442, 461042, 461642, 462242, 462842, 463442, 464043, 464737, 465231, 465729, 466163, 466596, 466961, 467332, 467761, 468149, 468513, 469019, 469538, 469986, 470465, 470960, 471476]",52,SB,L,R,ITMSR,1.0,
4,400,trial,0,14,14,14,trial,"['S', 'S', 'S', 'S', 'S', 'S', 'C', 'C', 'C', 'C', 'C', 'C', 'C', 'C', 'C', 'C', 'C', 'C', 'C', 'C', 'C', 'C']","[477324, 477797, 478181, 478675, 479148, 479746, 480283, 480850, 481358, 481824, 482276, 482835, 483364, 483864, 484325, 484805, 485293, 485754, 486204, 486691, 487259, 487789]","[477411, 477908, 478348, 478799, 479351, 479905, 480462, 481017, 481537, 481933, 482385, 482898, 483450, 483928, 484379, 484882, 485344, 485798, 486270, 486810, 487347, 487865]","[176, 139, 246, 230, 18, 245, 51, 245, 255, 198, 160, 67, 84, 8, 85, 53, 147, 25, 125, 184, 185, 145]","[477372, 477803, 478185, 478680, 479263, 479750, 480371, 480857, 481363, 481829, 482280, 482840, 483371, 483869, 484331, 484810, 485297, 485761, 486209, 486695, 487264, 487793]","[477107, 477505, 477905, 478306, 478705, 479106, 479506, 479905, 480321, 480888, 481396, 481862, 482315, 482874, 483402, 483903, 484364, 484843, 485331, 485792, 486243, 486729, 487298, 487828]",52,SB,L,R,ITMSR,1.0,
3,400,trial,0,15,15,15,trial,"['S', 'S', 'S', 'S', 'S', 'S', 'C', 'C', 'C', 'C', 'C', 'C', 'C', 'C', 'C', 'C', 'C', 'C', 'C', 'C', 'C', 'C']","[493539, 494078, 494680, 495133, 495709, 496205, 496735, 497316, 497842, 498289, 498762, 499270, 499726, 500103, 500487, 500985, 501623, 502237, 502812, 503411, 503967, 504440]","[493618, 494163, 494759, 495208, 495789, 496300, 496843, 497445, 497937, 498373, 498868, 499334, 499777, 500162, 500573, 501096, 501808, 502403, 503006, 503588, 504143, 504570]","[67, 190, 67, 31, 42, 77, 1, 97, 100, 170, 35, 70, 7, 76, 43, 69, 97, 154, 194, 178, 195, 197]","[493542, 494083, 494684, 495136, 495713, 496209, 496739, 497321, 497846, 498293, 498766, 499275, 499732, 500108, 500491, 500992, 501629, 502243, 502818, 503416, 503972, 504445]","[493387, 493788, 494188, 494588, 494989, 495388, 495789, 496189, 496776, 497356, 497883, 498329, 498802, 499310, 499767, 500144, 500528, 501025, 501663, 502278, 502852, 503451, 504007, 504480]",52,SB,L,R,ITMSR,1.0,
0,400,trial,0,16,16,16,trial,"['S', 'S', 'S', 'S', 'S', 'C', 'C', 'C', 'C', 'C', 'C', 'C', 'C', 'C', 'C', 'C', 'C', 'C', 'C', 'C', 'C']","[511077, 511465, 512070, 512492, 513010, 513542, 513960, 514437, 514851, 515300, 515726, 516200, 516667, 517006, 517365, 517742, 518146, 518575, 518966, 519298, 519672]","[511173, 511559, 512148, 512593, 513070, 513605, 514048, 514537, 514940, 515400, 515850, 516306, 516760, 517098, 517455, 517824, 518257, 518640, 519007, 519357, 519731]","[98, 8, 176, 135, 150, 179, 184, 174, 201, 182, 181, 146, 103, 195, 172, 192, 197, 147, 61, 235, 23]","[511084, 511502, 512075, 512498, 513016, 513547, 513964, 514442, 514856, 515305, 515731, 516205, 516672, 517011, 517370, 517747, 518151, 518580, 518971, 519303, 519678]","[510266, 510664, 511065, 511465, 511864, 512265, 512664, 513064, 513583, 514000, 514478, 514891, 515341, 515767, 516241, 516708, 517047, 517405, 517782, 518187, 518616, 519007, 519339, 519712]",52,SB,L,R,ITMSR,1.0,
1,400,trial,0,17,17,17,trial,"['S', 'S', 'S', 'S', 'S', 'S', 'C', 'C', 'C', 'C', 'C', 'C', 'C', 'C', 'C', 'C', 'C', 'C', 'C', 'C', 'C', 'C']","[525331, 525716, 526171, 526667, 527200, 527759, 528269, 528789, 529308, 529798, 530241, 530697, 531168, 531680, 532163, 532521, 532886, 533213, 533607, 533952, 534320, 534769]","[525398, 525795, 526370, 526901, 527447, 527980, 528451, 528980, 529491, 529935, 530405, 530836, 531375, 531888, 532313, 532599, 532971, 533301, 533719, 534037, 534448, 534888]","[50, 112, 104, 96, 104, 118, 100, 171, 149, 184, 190, 138, 182, 174, 202, 108, 77, 85, 143, 96, 133, 173]","[525335, 525721, 526177, 526672, 527205, 527764, 528274, 528793, 529312, 529803, 530244, 530702, 531173, 531685, 532167, 532526, 532891, 533218, 533612, 533956, 534325, 534773]","[525121, 525521, 525922, 526321, 526722, 527122, 527521, 527922, 528309, 528829, 529347, 529838, 530281, 530737, 531208, 531720, 532203, 532560, 532926, 533253, 533647, 533992, 534360, 534808]",52,SB,L,R,ITMSR,1.0,
0,600,trial,0,18,18,18,trial,"['B', 'S', 'S', 'S', 'S', 'S', 'S', 'S', 'S', 'S', 'S', 'S', 'S', 'C', 'C', 'C', 'C', 'C', 'C', 'C', 'C', 'C', 'C', 'C', 'C', 'C', 'C', 'C', 'C']","[540312, 540666, 541195, 541541, 541863, 542188, 542523, 542862, 543203, 543526, 543848, 544185, 544540, 544814, 545136, 545444, 545801, 546126, 546514, 546932, 547317, 547694, 548093, 548451, 548831, 549202, 549611, 550018, 550416]","[540483, 540977, 541274, 541631, 541952, 542294, 542629, 542967, 543291, 543623, 543940, 544292, 544630, 544909, 545206, 545563, 545893, 546231, 546660, 547045, 547422, 547773, 548161, 548517, 548902, 549319, 549680, 550099, 550483]","[184, 223, 217, 117, 135, 197, 196, 228, 149, 189, 176, 254, 61, 224, 208, 192, 84, 58, 105, 102, 5, 22, 68, 80, 78, 110, 7, 87, 66]","[540349, 540849, 541200, 541572, 541870, 542193, 542528, 542867, 543209, 543529, 543854, 544189, 544574, 544818, 545140, 545448, 545806, 546132, 546521, 546938, 547323, 547700, 548098, 548457, 548835, 549208, 549616, 550023, 550422]","[540341, 540941, 541541, 542141, 542741, 543340, 543940, 544540, 544855, 545176, 545484, 545842, 546166, 546554, 546972, 547357, 547734, 548133, 548492, 548872, 549242, 549652, 550059, 550457]",52,SB,L,R,ITMSR,1.0,
0,600,trial,0,19,19,19,trial,"['S', 'S', 'S', 'S', 'S', 'S', 'S', 'S', 'S', 'S', 'S', 'S', 'S', 'C', 'C', 'C', 'C', 'C', 'C', 'C', 'C', 'C', 'C', 'C', 'C', 'C', 'C', 'C', 'C', 'C', 'C', 'C', 'C', 'C', 'C', 'C']","[556185, 556531, 556869, 557221, 557563, 557934, 558282, 558636, 558989, 559323, 559673, 560005, 560345, 560661, 560989, 561272, 561624, 561981, 562298, 562556, 562900, 563210, 563514, 563798, 564111, 564440, 564760, 565024, 565335, 565600, 565933, 566204, 566497, 566852, 567151, 567395]","[556267, 556615, 556963, 557283, 557658, 558007, 558354, 558702, 559069, 559401, 559745, 560088, 560440, 560743, 561057, 561355, 561711, 562053, 562374, 562643, 562968, 563288, 563579, 563865, 564182, 564510, 564840, 565100, 565408, 565686, 565992, 566300, 566591, 566926, 567230]","[189, 139, 154, 98, 157, 38, 195, 254, 64, 127, 124, 9, 155, 87, 110, 94, 100, 99, 102, 142, 131, 156, 100, 72, 94, 109, 119, 74, 68, 74, 21, 144, 71, 255, 105]","[556190, 556535, 556874, 557227, 557568, 557934, 558288, 558641, 558994, 559328, 559678, 560011, 560349, 560667, 560993, 561277, 561630, 561986, 562304, 562561, 562906, 563215, 563520, 563803, 564116, 564445, 564765, 565029, 565341, 565605, 565938, 566209, 566503, 566858, 567156]","[556135, 556734, 557334, 557934, 558534, 559134, 559734, 560334, 560702, 561030, 561665, 562022, 562338, 562940, 563251, 563555, 564152, 564481, 564801, 565376, 565974, 566538, 566892, 567191]",52,SB,L,R,ITMSR,1.0,
3,400,trial,0,20,20,20,trial,"['S', 'S', 'S', 'S', 'S', 'S', 'S', 'C', 'C', 'C', 'C', 'C', 'C', 'C', 'C', 'C', 'C', 'C', 'C', 'C', 'C', 'C', 'C']","[573230, 573685, 574044, 574588, 575008, 575372, 575741, 576123, 576593, 577203, 577911, 578499, 578920, 579354, 579753, 580169, 580552, 581017, 581504, 582004, 582550, 583051, 583578]","[573352, 573814, 574113, 574697, 575121, 575453, 575833, 576232, 576792, 577567, 578020, 578615, 579099, 579506, 579896, 580250, 580639, 581089, 581586, 582066, 582625, 583133, 583643]","[123, 208, 21, 205, 33, 104, 57, 204, 89, 88, 142, 1, 249, 226, 13, 251, 66, 251, 3, 252, 22, 19, 24]","[573303, 573685, 574049, 574595, 575014, 575376, 575746, 576130, 576599, 577480, 577915, 578506, 578989, 579458, 579844, 580176, 580556, 581022, 581510, 582010, 582555, 583057, 583584]","[572886, 573286, 573685, 574086, 574486, 574886, 575287, 575686, 576163, 576633, 577244, 577951, 578540, 578961, 579394, 579793, 580209, 580592, 581057, 581544, 582044, 582591, 583092, 583618]",52,SB,L,R,ITMSR,1.0,
4,600,trial,0,21,21,21,trial,"['S', 'S', 'S', 'S', 'S', 'S', 'S', 'S', 'S', 'S', 'S', 'S', 'S', 'S', 'C', 'C', 'C', 'C', 'C', 'C', 'C', 'C', 'C', 'C', 'C', 'C', 'C', 'C', 'C', 'C']","[589375, 589731, 590048, 590358, 590710, 591025, 591355, 591691, 592039, 592389, 592708, 593010, 593305, 593634, 593941, 594253, 594561, 594905, 595279, 595756, 596199, 596579, 596982, 597480, 598002, 598423, 598854, 599156, 599448, 599869]","[589465, 589802, 590128, 590444, 590792, 591124, 591454, 591770, 592136, 592473, 592789, 593069, 593384, 593716, 594017, 594331, 594628, 595012, 595424, 595877, 596306, 596698, 597151, 597576, 598092, 598523, 598955, 599247, 599536, 599961]","[108, 127, 180, 117, 169, 163, 144, 174, 215, 175, 224, 74, 81, 85, 171, 159, 155, 179, 140, 145, 135, 209, 219, 245, 49, 163, 149, 196, 137, 184]","[589379, 589737, 590052, 590363, 590715, 591030, 591361, 591696, 592044, 592394, 592713, 593016, 593310, 593640, 593946, 594257, 594566, 594909, 595284, 595762, 596204, 596584, 596986, 597485, 598008, 598428, 598859, 599160, 599453, 599874]","[589345, 589945, 590545, 591145, 591746, 592346, 592946, 593546, 593980, 594291, 594599, 594944, 595317, 595794, 596238, 596618, 597020, 597519, 598040, 598462, 598892, 599194, 599487, 599908]",52,SB,L,R,ITMSR,1.0,
1,600,trial,0,22,22,22,trial,"['S', 'S', 'S', 'S', 'S', 'S', 'S', 'C', 'C', 'C', 'C', 'C', 'C', 'C', 'C', 'C', 'C', 'C', 'C', 'C', 'C', 'C', 'C']","[605767, 606503, 606877, 607329, 607702, 609015, 609485, 610064, 610494, 610834, 611155, 611738, 612243, 612804, 613358, 613922, 614534, 615149, 615739, 616336, 616933, 617539, 618146]","[606136, 606597, 607084, 607448, 608736, 609162, 609635, 610191, 610610, 610932, 611320, 611964, 612476, 613041, 613605, 614178, 614811, 615378, 615947, 616564, 617148, 617755, 618392]","[86, 117, 179, 209, 210, 46, 56, 201, 31, 2, 26, 126, 69, 124, 75, 197, 67, 116, 205, 189, 230, 243, 252]","[605898, 606509, 606882, 607333, 607706, 609021, 609491, 610068, 610499, 610840, 611162, 611864, 612423, 612808, 613362, 613927, 614539, 615244, 615743, 616477, 617032, 617544, 618236]","[605523, 606124, 606724, 607324, 607924, 608524, 609124, 609724, 610104, 610534, 610874, 611194, 611777, 612283, 612843, 613397, 613961, 614574, 615189, 615779, 616376, 616973, 617579, 618185]",52,SB,L,R,ITMSR,1.0,
1,400,trial,0,23,23,23,trial,"['S', 'S', 'S', 'S', 'S', 'S', 'S', 'S', 'S', 'C', 'C', 'C', 'C', 'C', 'C', 'C', 'C', 'C', 'C', 'C', 'C', 'C', 'C', 'C', 'C']","[623643, 623990, 624317, 624646, 625037, 625400, 625827, 626160, 626542, 626922, 627267, 627589, 627922, 628238, 628600, 628990, 629380, 629756, 630148, 630553, 630888, 631256, 631639, 632012, 632367]","[623754, 624066, 624387, 624736, 625123, 625495, 625898, 626241, 626615, 626998, 627335, 627668, 627982, 628317, 628694, 629074, 629467, 629856, 630231, 630610, 630948, 631319, 631691, 632079, 632433]","[207, 148, 129, 210, 242, 247, 189, 226, 158, 20, 143, 217, 150, 250, 143, 254, 4, 232, 1, 9, 230, 183, 215, 224, 255]","[623648, 623995, 624321, 624651, 625041, 625403, 625831, 626165, 626546, 626928, 627272, 627593, 627928, 628242, 628605, 628995, 629384, 629761, 630152, 630557, 630892, 631261, 631643, 632016, 632372]","[623642, 624043, 624443, 624842, 625243, 625643, 626043, 626444, 626962, 627307, 627629, 627961, 628278, 628639, 629029, 629420, 629795, 630188, 630592, 630928, 631296, 631678, 632051, 632407]",52,SB,L,R,ITMSR,1.0,
0,400,trial,0,24,24,24,trial,"['S', 'S', 'S', 'S', 'S', 'S', 'S', 'S', 'S', 'S', 'C', 'C', 'C', 'C', 'C', 'C', 'C', 'C', 'C', 'C', 'C', 'C', 'C', 'C', 'C', 'C']","[638065, 638366, 638628, 639010, 639351, 639689, 640008, 640302, 640646, 640936, 641240, 641537, 641846, 642196, 642576, 642958, 643319, 643678, 644073, 644454, 644784, 645108, 645470, 645874, 646256, 646679]","[638110, 638420, 638701, 639111, 639432, 639763, 640072, 640378, 640707, 641008, 641321, 641616, 641937, 642291, 642668, 643044, 643440, 643769, 644177, 644533, 644867, 645178, 645541, 645956, 646360, 646737]","[119, 132, 168, 200, 142, 205, 166, 196, 115, 117, 178, 166, 153, 197, 180, 218, 163, 138, 194, 156, 198, 135, 189, 192, 18, 155]","[638083, 638371, 638631, 639014, 639356, 639692, 640013, 640306, 640651, 640941, 641244, 641541, 641851, 642201, 642580, 642963, 643324, 643682, 644077, 644459, 644788, 645113, 645474, 645879, 646260, 646683]","[638065, 638465, 638865, 639264, 639665, 640065, 640465, 640866, 641281, 641577, 641887, 642237, 642617, 642999, 643359, 643719, 644114, 644495, 644825, 645148, 645511, 645914, 646296, 646720]",52,SB,L,R,ITMSR,1.0,
5,400,trial,0,25,25,25,trial,"['S', 'S', 'S', 'S', 'S', 'S', 'S', 'C', 'C', 'C', 'C', 'C', 'C', 'C', 'C', 'C', 'C', 'C', 'C', 'C', 'C', 'C', 'C']","[652759, 653125, 653594, 653997, 654401, 654876, 655283, 655624, 655932, 656276, 656754, 657205, 657588, 658032, 658458, 658910, 659363, 659829, 660278, 660685, 661137, 661564, 661996]","[652846, 653212, 653678, 654086, 654486, 654951, 655372, 655705, 656014, 656385, 656855, 657298, 657668, 658114, 658554, 658993, 659452, 659951, 660387, 660805, 661227, 661666, 662105]","[232, 146, 188, 146, 185, 192, 146, 218, 115, 194, 201, 206, 195, 178, 218, 240, 3, 204, 230, 200, 198, 205, 239]","[652763, 653130, 653598, 654001, 654406, 654880, 655288, 655628, 655938, 656280, 656758, 657210, 657592, 658036, 658462, 658914, 659366, 659833, 660282, 660690, 661141, 661568, 662000]","[652530, 652931, 653331, 653730, 654131, 654530, 654930, 655331, 655665, 655973, 656317, 656794, 657246, 657629, 658072, 658498, 658951, 659403, 659869, 660319, 660725, 661178, 661605, 662037]",52,SB,L,R,ITMSR,1.0,
1,600,trial,0,26,26,26,trial,"['S', 'S', 'S', 'S', 'S', 'S', 'S', 'S', 'S', 'S', 'S', 'S', 'C', 'C', 'C', 'C', 'C', 'C', 'C', 'C', 'C', 'C', 'C', 'C', 'C', 'C', 'C', 'C']","[667860, 668216, 668581, 668949, 669328, 669710, 670116, 670481, 670855, 671219, 671578, 671956, 672299, 672711, 673087, 673466, 673845, 674199, 674580, 675028, 675486, 675922, 676379, 676753, 677140, 677515, 677908, 678290]","[667941, 668309, 668666, 669024, 669393, 669779, 670167, 670562, 670923, 671283, 671651, 672036, 672395, 672812, 673176, 673554, 673922, 674322, 674693, 675129, 675580, 675997, 676458, 676859, 677233, 677595, 677991, 678372]","[147, 151, 155, 167, 149, 157, 92, 148, 178, 131, 157, 174, 211, 172, 206, 185, 192, 248, 125, 223, 233, 179, 243, 247, 248, 209, 167, 170]","[667864, 668220, 668584, 668954, 669332, 669715, 670121, 670484, 670860, 671223, 671582, 671960, 672302, 672716, 673091, 673470, 673849, 674202, 674583, 675032, 675490, 675927, 676383, 676757, 677144, 677519, 677911, 678294]","[667708, 668308, 668907, 669507, 670107, 670707, 671307, 671907, 672338, 672750, 673127, 673506, 673885, 674239, 674620, 675067, 675525, 675961, 676418, 676793, 677180, 677555, 677948, 678330]",52,SB,L,R,ITMSR,1.0,
2,600,trial,0,27,27,27,trial,"['S', 'S', 'S', 'S', 'S', 'S', 'S', 'S', 'S', 'S', 'S', 'S', 'S', 'C', 'C', 'C', 'C', 'C', 'C', 'C', 'C', 'C', 'C', 'C', 'C', 'C', 'C', 'C', 'C']","[683748, 684076, 684368, 684687, 685026, 685379, 685818, 686180, 686553, 686920, 687272, 687642, 687992, 688319, 688703, 689078, 689444, 689837, 690197, 690541, 690896, 691279, 691632, 691962, 692310, 692736, 693234, 693669, 694029]","[683816, 684139, 684441, 684766, 685122, 685470, 685917, 686272, 686646, 687012, 687361, 687724, 688065, 688402, 688793, 689162, 689539, 689922, 690263, 690614, 690985, 691346, 691689, 692038, 692369, 692810, 693304, 693741, 694122]","[138, 127, 151, 175, 213, 147, 189, 167, 188, 223, 253, 163, 131, 186, 130, 106, 55, 136, 176, 118, 219, 148, 137, 244, 84, 183, 198, 191, 210]","[683752, 684080, 684372, 684692, 685030, 685384, 685822, 686184, 686557, 686924, 687277, 687646, 687996, 688323, 688708, 689082, 689448, 689842, 690202, 690545, 690900, 691283, 691636, 691966, 692315, 692741, 693237, 693673, 694033]","[683710, 684309, 684908, 685508, 686108, 686708, 687308, 687908, 688360, 688744, 689119, 689484, 689878, 690238, 690582, 690936, 691319, 691673, 692002, 692350, 692776, 693274, 693709, 694070]",52,SB,L,R,ITMSR,1.0,
2,400,trial,0,28,28,28,trial,"['S', 'S', 'S', 'S', 'S', 'S', 'S', 'S', 'S', 'C', 'C', 'C', 'C', 'C', 'C', 'C', 'C', 'C', 'C', 'C', 'C', 'C', 'C', 'C', 'C']","[699526, 699835, 700174, 700523, 700870, 701279, 701642, 702034, 702414, 702824, 703174, 703506, 703828, 704164, 704537, 704899, 705236, 705572, 705929, 706287, 706658, 707022, 707375, 707734, 708107]","[699603, 699914, 700244, 700598, 700953, 701346, 701713, 702112, 702503, 702899, 703257, 703578, 703902, 704260, 704622, 704970, 705302, 705646, 706009, 706367, 706742, 707122, 707460, 707819, 708190]","[189, 197, 175, 176, 189, 141, 206, 183, 58, 166, 204, 185, 200, 192, 217, 182, 200, 209, 184, 240, 249, 164, 214, 227, 111]","[699530, 699838, 700179, 700528, 700873, 701284, 701646, 702039, 702418, 702828, 703178, 703511, 703833, 704167, 704541, 704903, 705240, 705576, 705933, 706291, 706662, 707026, 707378, 707738, 708112]","[699436, 699835, 700234, 700635, 701035, 701434, 701835, 702234, 702865, 703214, 703547, 703868, 704204, 704577, 704940, 705276, 705612, 705970, 706327, 706699, 707062, 707416, 707775, 708148]",52,SB,L,R,ITMSR,1.0,
2,600,trial,0,29,29,29,trial,"['S', 'S', 'S', 'S', 'S', 'S', 'S', 'S', 'S', 'S', 'S', 'S', 'C', 'C', 'C', 'C', 'C', 'C', 'C', 'C', 'C', 'C', 'C', 'C', 'C', 'C', 'C', 'C']","[714089, 714431, 714782, 715143, 715474, 715837, 716204, 716541, 716902, 717218, 717588, 717925, 718269, 718635, 718990, 719366, 719704, 720059, 720405, 720829, 721175, 721558, 721974, 722368, 722782, 723216, 723587, 723973]","[714158, 714505, 714845, 715208, 715547, 715921, 716261, 716633, 716968, 717301, 717648, 717996, 718336, 718724, 719096, 719453, 719778, 720144, 720527, 720902, 721260, 721642, 722045, 722443, 722848, 723288, 723664, 724064]","[218, 52, 172, 190, 158, 225, 154, 100, 202, 197, 168, 210, 177, 144, 141, 238, 200, 221, 224, 172, 223, 216, 174, 247, 228, 228, 213, 3]","[714093, 714431, 714786, 715147, 715479, 715840, 716207, 716546, 716906, 717222, 717592, 717928, 718274, 718640, 718995, 719370, 719708, 720064, 720409, 720833, 721179, 721562, 721978, 722371, 722786, 723220, 723591, 723976]","[713832, 714431, 715030, 715630, 716230, 716830, 717430, 718030, 718310, 718675, 719031, 719407, 719745, 720100, 720446, 720870, 721216, 721599, 722015, 722409, 722823, 723257, 723628, 724014]",52,SB,L,R,ITMSR,1.0,
4,400,trial,0,30,30,30,trial,"['S', 'S', 'S', 'S', 'S', 'S', 'S', 'S', 'C', 'C', 'C', 'C', 'C', 'C', 'C', 'C', 'C', 'C', 'C', 'C', 'C', 'C', 'C', 'C']","[750905, 751247, 751642, 751976, 752516, 752781, 753129, 753504, 753891, 754201, 754581, 754963, 755395, 755785, 756190, 756582, 756970, 757342, 757692, 758110, 758516, 758873, 759292, 759664]","[750991, 751329, 751721, 752025, 752556, 752858, 753211, 753580, 753955, 754272, 754665, 755062, 755481, 755876, 756279, 756672, 757058, 757413, 757778, 758181, 758603, 758976, 759377, 759754]","[198, 33, 115, 28, 79, 160, 1, 237, 242, 232, 215, 7, 10, 12, 191, 239, 223, 163, 6, 236, 230, 15, 227, 212]","[750909, 751304, 751646, 751995, 752523, 752786, 753133, 753508, 753896, 754205, 754585, 754967, 755400, 755790, 756194, 756586, 756974, 757346, 757696, 758115, 758520, 758877, 759297, 759669]","[750776, 751175, 751576, 751976, 752375, 752776, 753175, 753575, 753930, 754239, 754620, 755002, 755434, 755823, 756229, 756621, 757009, 757381, 757731, 758149, 758554, 758912, 759330, 759702]",52,SB,L,R,ITMSR,1.0,
5,600,trial,0,31,31,31,trial,"['S', 'S', 'S', 'S', 'S', 'S', 'S', 'S', 'S', 'S', 'S', 'S', 'S', 'C', 'C', 'C', 'C', 'C', 'C', 'C', 'C', 'C', 'C', 'C', 'C', 'C', 'C', 'C', 'C']","[765460, 765839, 766239, 766654, 767011, 767413, 767764, 768075, 768482, 768814, 769141, 769500, 769861, 770246, 770606, 771001, 771391, 771823, 772229, 772618, 772974, 773322, 773696, 774063, 774469, 774951, 775412, 775804, 776205]","[765510, 765902, 766322, 766716, 767092, 767483, 767835, 768140, 768547, 768880, 769224, 769582, 769944, 770329, 770700, 771089, 771523, 771937, 772306, 772701, 773052, 773424, 773778, 774158, 774639, 775087, 775500, 775930, 776316]","[176, 135, 248, 136, 139, 189, 125, 68, 119, 21, 162, 231, 210, 234, 210, 233, 13, 239, 211, 7, 165, 217, 210, 236, 242, 25, 209, 10, 34]","[765465, 765843, 766244, 766659, 767016, 767418, 767769, 768080, 768486, 768819, 769145, 769504, 769866, 770250, 770610, 771006, 771395, 771827, 772234, 772622, 772978, 773326, 773701, 774066, 774473, 774957, 775416, 775809, 776209]","[765434, 766034, 766635, 767235, 767835, 768435, 769035, 769635, 770286, 770647, 771042, 771432, 771863, 772270, 772659, 773014, 773362, 773737, 774104, 774509, 774991, 775452, 775844, 776246]",52,SB,L,R,ITMSR,1.0,
1,600,trial,0,32,32,32,trial,"['B', 'S', 'S', 'S', 'S', 'S', 'S', 'S', 'S', 'S', 'S', 'S', 'C', 'C', 'C', 'C', 'C', 'C', 'C', 'C', 'C', 'C', 'C', 'C', 'C', 'C', 'C', 'C']","[781900, 782271, 782659, 783043, 783385, 783784, 784155, 784562, 784998, 785354, 785808, 786254, 786721, 787213, 787572, 787992, 788428, 788788, 789241, 789691, 790182, 790615, 791139, 791664, 792136, 792662, 793107, 793625]","[781941, 782345, 782683, 783126, 783460, 783851, 784179, 784642, 785019, 785453, 785830, 786278, 786842, 787265, 787648, 788097, 788503, 788852, 789332, 789772, 790286, 790734, 791229, 791785, 792225, 792752, 793218, 793696]","[186, 27, 29, 226, 249, 21, 27, 239, 1, 107, 12, 22, 43, 235, 19, 30, 21, 224, 52, 42, 51, 55, 50, 54, 8, 228, 12, 58]","[781927, 782275, 782663, 783047, 783389, 783788, 784160, 784566, 785002, 785412, 785812, 786258, 786724, 787217, 787576, 787996, 788431, 788791, 789245, 789695, 790187, 790619, 791142, 791668, 792140, 792666, 793111, 793628]","[781927, 782527, 783126, 783726, 784326, 784926, 785526, 786126, 786760, 787253, 787611, 788032, 788467, 788828, 789280, 789731, 790221, 790654, 791179, 791703, 792175, 792701, 793147, 793664]",52,SB,L,R,ITMSR,1.0,
0,600,trial,0,33,33,33,trial,"['S', 'S', 'S', 'S', 'S', 'S', 'S', 'S', 'S', 'S', 'C', 'C', 'C', 'C', 'C', 'C', 'C', 'C', 'C', 'C', 'C', 'C', 'C', 'C', 'C', 'C']","[799449, 799940, 800412, 800823, 801255, 801681, 802080, 802523, 802890, 803236, 803637, 804070, 804478, 804932, 805269, 805700, 806114, 806581, 807054, 807478, 807951, 808413, 808883, 809375, 809854, 810353]","[799539, 800073, 800559, 800888, 801329, 801739, 802181, 802582, 802968, 803316, 803714, 804196, 804571, 805025, 805365, 805856, 806232, 806667, 807133, 807578, 808029, 808521, 808984, 809468, 809963, 810476]","[173, 212, 8, 58, 218, 64, 220, 148, 207, 202, 188, 173, 238, 162, 161, 234, 224, 249, 249, 5, 213, 21, 31, 231, 248, 33]","[799454, 799944, 800416, 800827, 801260, 801687, 802084, 802527, 802894, 803240, 803642, 804074, 804483, 804936, 805274, 805705, 806119, 806585, 807058, 807482, 807956, 808417, 808887, 809380, 809859, 810409]","[799209, 799808, 800407, 801007, 801607, 802207, 802807, 803407, 803678, 804111, 804518, 804972, 805310, 805740, 806155, 806622, 807095, 807519, 807992, 808454, 808924, 809415, 809894, 810393]",52,SB,L,R,ITMSR,1.0,
5,400,trial,0,34,34,34,trial,"['S', 'S', 'S', 'S', 'S', 'S', 'S', 'S', 'C', 'C', 'C', 'C', 'C', 'C', 'C', 'C', 'C', 'C', 'C', 'C', 'C', 'C', 'C', 'C']","[816076, 816452, 816817, 817224, 817598, 818025, 818426, 818820, 819233, 819640, 820064, 820487, 820882, 821294, 821701, 822121, 822533, 822952, 823352, 823741, 824130, 824513, 824928, 825291]","[816146, 816522, 816908, 817306, 817683, 818104, 818512, 818895, 819312, 819706, 820146, 820563, 820944, 821359, 821774, 822190, 822598, 823003, 823413, 823809, 824181, 824590, 824981, 825368]","[175, 173, 187, 253, 210, 32, 241, 6, 12, 192, 245, 248, 221, 207, 216, 24, 157, 103, 153, 248, 167, 4, 161, 12]","[816080, 816457, 816821, 817228, 817602, 818028, 818428, 818824, 819237, 819643, 820068, 820491, 820886, 821297, 821706, 822125, 822537, 822957, 823357, 823745, 824134, 824517, 824934, 825296]","[816052, 816451, 816851, 817252, 817651, 818052, 818452, 818851, 819273, 819681, 820105, 820528, 820923, 821335, 821741, 822162, 822574, 822992, 823393, 823782, 824171, 824554, 824969, 825331]",52,SB,L,R,ITMSR,1.0,
2,400,trial,0,35,35,35,trial,"['S', 'S', 'S', 'S', 'S', 'S', 'S', 'C', 'C', 'C', 'C', 'C', 'C', 'C', 'C', 'C', 'C', 'C', 'C', 'C', 'C', 'C', 'C']","[831328, 831776, 832187, 832659, 833096, 833521, 833922, 834299, 834736, 835168, 835557, 835933, 836319, 836722, 837134, 837560, 837993, 838407, 838805, 839164, 839601, 839996, 840375]","[831410, 831858, 832321, 832679, 833188, 833574, 834001, 834399, 834829, 835246, 835637, 836009, 836412, 836802, 837223, 837661, 838097, 838509, 838909, 839269, 839725, 840090, 840465]","[230, 242, 240, 108, 197, 157, 250, 19, 25, 8, 248, 4, 23, 216, 242, 15, 25, 7, 17, 224, 245, 212, 10]","[831332, 831779, 832191, 832663, 833098, 833521, 833922, 834304, 834740, 835173, 835561, 835937, 836323, 836726, 837139, 837563, 837998, 838411, 838809, 839169, 839605, 840001, 840378]","[831122, 831520, 831921, 832321, 832721, 833122, 833521, 833922, 834339, 834777, 835209, 835598, 835974, 836360, 836762, 837175, 837601, 838034, 838448, 838846, 839204, 839642, 840037, 840416]",52,SB,L,R,ITMSR,1.0,
1,600,trial,0,36,36,36,trial,"['B', 'S', 'S', 'S', 'S', 'S', 'S', 'S', 'S', 'S', 'S', 'C', 'C', 'C', 'C', 'C', 'C', 'C', 'C', 'C', 'C', 'C', 'C', 'C', 'C', 'C', 'C']","[846133, 846476, 846891, 847280, 847694, 848100, 848473, 848869, 849319, 849721, 850184, 850630, 851010, 851453, 851883, 852313, 852718, 853083, 853468, 853875, 854329, 854752, 855196, 855603, 855997, 856425, 856855]","[846177, 846569, 846971, 847372, 847809, 848187, 848560, 848958, 849398, 849826, 850271, 850724, 851140, 851582, 852024, 852420, 852804, 853187, 853555, 853981, 854416, 854846, 855299, 855692, 856099, 856512, 856953]","[21, 238, 218, 207, 198, 253, 210, 9, 109, 247, 213, 13, 2, 220, 24, 42, 103, 245, 182, 22, 216, 221, 167, 250, 12, 254, 254]","[846133, 846480, 846895, 847284, 847698, 848104, 848477, 848873, 849324, 849725, 850188, 850633, 851015, 851458, 851887, 852317, 852723, 853087, 853472, 853879, 854333, 854756, 855200, 855607, 856002, 856429, 856859]","[846159, 846759, 847360, 847960, 848560, 849160, 849760, 850360, 850669, 851050, 851492, 851922, 852353, 852757, 853123, 853508, 853914, 854369, 854792, 855235, 855643, 856037, 856465, 856895]",52,SB,L,R,ITMSR,1.0,
2,400,trial,0,37,37,37,trial,"['S', 'S', 'S', 'S', 'S', 'S', 'S', 'C', 'C', 'C', 'C', 'C', 'C', 'C', 'C', 'C', 'C', 'C', 'C', 'C', 'C', 'C', 'C']","[862509, 862872, 863403, 863884, 864293, 864732, 865182, 865649, 866138, 866626, 867107, 867589, 868051, 868497, 868900, 869339, 869794, 870233, 870696, 871164, 871627, 872114, 872546]","[862596, 863058, 863528, 863986, 864391, 864863, 865284, 865778, 866323, 866825, 867309, 867760, 868209, 868592, 868976, 869487, 869948, 870369, 870840, 871314, 871755, 872249, 872731]","[228, 228, 25, 245, 14, 17, 15, 24, 21, 48, 46, 51, 47, 25, 182, 20, 44, 38, 56, 48, 59, 50, 85]","[862514, 862877, 863407, 863888, 864296, 864736, 865186, 865654, 866142, 866630, 867111, 867593, 868056, 868501, 868904, 869343, 869798, 870237, 870701, 871168, 871631, 872119, 872619]","[862259, 862657, 863057, 863458, 863857, 864258, 864658, 865057, 865689, 866179, 866667, 867147, 867630, 868091, 868538, 868940, 869380, 869834, 870274, 870736, 871204, 871667, 872155, 872587]",52,SB,L,R,ITMSR,1.0,
0,600,trial,0,38,38,38,trial,"['S', 'S', 'S', 'S', 'S', 'S', 'S', 'S', 'S', 'S', 'C', 'C', 'C', 'C', 'C', 'C', 'C', 'C', 'C', 'C', 'C', 'C', 'C', 'C', 'C', 'C']","[878097, 878494, 878909, 879390, 879819, 880230, 880706, 881221, 881727, 882246, 882728, 883208, 883777, 884263, 884706, 885161, 885545, 886030, 886531, 887048, 887498, 887985, 888455, 888939, 889400, 889889]","[878188, 878581, 879017, 879492, 879888, 880344, 880802, 881327, 881824, 882372, 882905, 883481, 884031, 884405, 884898, 885278, 885714, 886146, 886689, 887149, 887653, 888129, 888603, 889080, 889563, 890037]","[220, 5, 248, 9, 29, 14, 4, 6, 197, 247, 16, 2, 34, 228, 41, 22, 37, 20, 29, 25, 19, 201, 57, 36, 80, 68]","[878100, 878498, 878912, 879394, 879848, 880234, 880710, 881226, 881731, 882250, 882733, 883212, 883781, 884268, 884710, 885166, 885550, 886035, 886535, 887051, 887502, 887989, 888459, 888942, 889404, 889892]","[878020, 878619, 879219, 879819, 880419, 881019, 881619, 882220, 882768, 883249, 883818, 884303, 884747, 885201, 885585, 886071, 886572, 887089, 887538, 888026, 888496, 888980, 889441, 889929]",52,SB,L,R,ITMSR,1.0,
4,600,trial,0,39,39,39,trial,"['S', 'S', 'S', 'S', 'S', 'S', 'S', 'S', 'S', 'S', 'C', 'C', 'C', 'C', 'C', 'C', 'C', 'C', 'C', 'C', 'C', 'C', 'C', 'C', 'C', 'C']","[895578, 896030, 896450, 896916, 897352, 897826, 898288, 898765, 899302, 899732, 900217, 900685, 901140, 901581, 902056, 902569, 903025, 903458, 903952, 904471, 904978, 905463, 905957, 906484, 906967, 907476]","[895647, 896122, 896535, 896995, 897447, 897900, 898344, 898854, 899395, 899826, 900328, 900818, 901269, 901698, 902196, 902684, 903142, 903590, 904100, 904622, 905124, 905633, 906092, 906641, 907097, 907615]","[170, 151, 19, 22, 52, 125, 155, 42, 19, 48, 71, 61, 55, 36, 29, 245, 52, 54, 82, 97, 99, 95, 102, 118, 80, 91]","[895583, 896034, 896454, 896919, 897356, 897863, 898292, 898769, 899306, 899734, 900221, 900688, 901144, 901585, 902061, 902574, 903028, 903462, 903955, 904541, 904981, 905466, 905959, 906487, 906970, 907481]","[895426, 896026, 896626, 897226, 897826, 898426, 899026, 899627, 900255, 900723, 901179, 901619, 902094, 902607, 903063, 903496, 903991, 904510, 905017, 905501, 905996, 906522, 907005, 907514]",52,SB,L,R,ITMSR,1.0,
4,600,trial,0,40,40,40,trial,"['S', 'S', 'S', 'S', 'S', 'S', 'S', 'S', 'S', 'C', 'C', 'C', 'C', 'C', 'C', 'C', 'C', 'C', 'C', 'C', 'C', 'C', 'C', 'C', 'C']","[913219, 913627, 914077, 914568, 915039, 915592, 916107, 916644, 917157, 917773, 918296, 918788, 919321, 919844, 920446, 920999, 921539, 922077, 922610, 923193, 923743, 924314, 924873, 925438, 925957]","[913303, 913727, 914200, 914698, 915191, 915732, 916262, 916792, 917368, 917929, 918419, 918923, 919426, 919982, 920592, 921171, 921713, 922218, 922773, 923381, 923973, 924474, 925088, 925641, 926166]","[30, 21, 15, 105, 108, 83, 121, 86, 122, 79, 84, 103, 58, 123, 128, 94, 108, 70, 105, 75, 95, 91, 106, 109, 78]","[913222, 913630, 914081, 914571, 915043, 915647, 916111, 916648, 917160, 917776, 918300, 918792, 919325, 919848, 920450, 921004, 921542, 922081, 922614, 923198, 923746, 924317, 924876, 925442, 925960]","[913192, 913792, 914392, 914992, 915592, 916192, 916792, 917392, 917812, 918335, 918827, 919359, 919882, 920484, 921037, 921578, 922116, 922648, 923232, 923782, 924352, 924911, 925476, 925996]",52,SB,L,R,ITMSR,1.0,
2,600,trial,0,41,41,41,trial,"['S', 'S', 'S', 'S', 'S', 'S', 'S', 'C', 'C', 'C', 'C', 'C', 'C', 'C', 'C', 'C', 'C', 'C', 'C', 'C', 'C', 'C', 'C']","[931863, 932385, 933171, 933873, 934497, 935161, 935668, 936204, 936716, 937239, 937748, 938244, 938737, 939271, 939784, 940314, 940773, 941268, 941723, 942185, 942692, 943217, 943699]","[931986, 932744, 933364, 934065, 934745, 935363, 935861, 936372, 936886, 937418, 937918, 938407, 938910, 939410, 939933, 940444, 940928, 941412, 941842, 942307, 942806, 943330, 943814]","[70, 35, 121, 141, 119, 134, 130, 93, 85, 100, 62, 86, 89, 106, 124, 102, 136, 121, 93, 114, 128, 116, 127]","[931866, 932389, 933174, 933876, 934500, 935164, 935672, 936208, 936719, 937243, 937751, 938248, 938740, 939274, 939787, 940318, 940776, 941272, 941726, 942189, 942695, 943221, 943704]","[931745, 932344, 932944, 933544, 934145, 934745, 935345, 935945, 936245, 936757, 937280, 937789, 938285, 938777, 939312, 939825, 940354, 940814, 941308, 941763, 942226, 942733, 943257, 943739]",52,SB,L,R,ITMSR,1.0,
1,400,trial,0,42,42,42,trial,"['S', 'S', 'S', 'S', 'S', 'S', 'C', 'C', 'C', 'C', 'C', 'C', 'C', 'C', 'C', 'C', 'C', 'C', 'C', 'C', 'C', 'C']","[949670, 950226, 950657, 951096, 951643, 952167, 952705, 953276, 953781, 954297, 954777, 955240, 955737, 956180, 956683, 957220, 957719, 958225, 958725, 959212, 959713, 960230]","[949781, 950355, 950766, 951208, 951776, 952286, 952822, 953411, 953927, 954432, 954895, 955353, 955853, 956319, 956798, 957347, 957867, 958361, 958846, 959393, 959888, 960390]","[105, 95, 64, 101, 27, 73, 125, 104, 115, 76, 43, 72, 110, 77, 83, 134, 126, 100, 88, 76, 103, 73]","[949675, 950231, 950660, 951100, 951647, 952170, 952708, 953280, 953785, 954301, 954780, 955243, 955740, 956184, 956686, 957223, 957722, 958229, 958728, 959216, 959717, 960233]","[949409, 949810, 950209, 950609, 951010, 951409, 951810, 952210, 952744, 953316, 953821, 954337, 954816, 955280, 955777, 956220, 956723, 957259, 957759, 958265, 958765, 959252, 959753, 960270]",52,SB,L,R,ITMSR,1.0,
1,400,trial,0,43,43,43,trial,"['S', 'S', 'S', 'S', 'S', 'S', 'C', 'C', 'C', 'C', 'C', 'C', 'C', 'C', 'C', 'C', 'C', 'C', 'C', 'C', 'C', 'C']","[966147, 966608, 967103, 967618, 968068, 968532, 969190, 969719, 970242, 970764, 971299, 971804, 972322, 972852, 973336, 973881, 974386, 974909, 975401, 975920, 976438, 976925]","[966231, 966720, 967225, 967712, 968163, 968647, 969286, 969818, 970356, 970889, 971432, 971938, 972480, 972976, 973425, 973982, 974524, 975100, 975542, 976021, 976595, 977078]","[13, 52, 57, 253, 38, 24, 31, 73, 61, 30, 59, 28, 68, 47, 64, 54, 102, 63, 46, 69, 89, 61]","[966151, 966612, 967106, 967620, 968071, 968537, 969194, 969723, 970245, 970767, 971303, 971807, 972325, 972855, 973340, 973885, 974390, 974913, 975406, 975924, 976442, 976928]","[965962, 966363, 966763, 967163, 967564, 967963, 968364, 968764, 969230, 969758, 970281, 970804, 971338, 971843, 972361, 972892, 973376, 973921, 974426, 974949, 975440, 975960, 976478, 976964]",52,SB,L,R,ITMSR,1.0,
3,400,trial,0,44,44,44,trial,"['B', 'S', 'S', 'S', 'S', 'S', 'S', 'C', 'C', 'C', 'C', 'C', 'C', 'C', 'C', 'C', 'C', 'C', 'C', 'C', 'C', 'C', 'C']","[982633, 983065, 983528, 984014, 984561, 985111, 985625, 986169, 986673, 987193, 987786, 988274, 988795, 989295, 989750, 990273, 990764, 991216, 991744, 992178, 992703, 993203, 993696]","[982674, 983169, 983624, 984114, 984660, 985247, 985749, 986292, 986791, 987293, 987894, 988398, 988887, 989393, 989846, 990366, 990846, 991292, 991815, 992279, 992842, 993349, 993818]","[78, 71, 48, 29, 242, 33, 158, 30, 4, 29, 56, 246, 227, 27, 39, 235, 245, 24, 178, 52, 84, 57, 22]","[982633, 983069, 983531, 984017, 984565, 985114, 985626, 986173, 986677, 987196, 987788, 988277, 988800, 989299, 989755, 990277, 990768, 991220, 991749, 992182, 992707, 993207, 993699]","[982662, 983061, 983460, 983861, 984260, 984660, 985061, 985460, 986210, 986714, 987234, 987827, 988314, 988835, 989335, 989791, 990314, 990804, 991256, 991784, 992219, 992744, 993244, 993736]",52,SB,L,R,ITMSR,1.0,
2,600,trial,0,45,45,45,trial,"['S', 'S', 'S', 'S', 'S', 'S', 'S', 'S', 'C', 'C', 'C', 'C', 'C', 'C', 'C', 'C', 'C', 'C', 'C', 'C', 'C', 'C', 'C', 'C']","[999345, 999877, 1000400, 1000924, 1001440, 1001937, 1002489, 1003045, 1003600, 1004149, 1004724, 1005256, 1005817, 1006284, 1006756, 1007245, 1007891, 1008441, 1009049, 1009637, 1010162, 1010790, 1011396, 1011966]","[999419, 999989, 1000523, 1001042, 1001536, 1002055, 1002611, 1003199, 1003764, 1004288, 1004852, 1005383, 1005921, 1006407, 1006888, 1007462, 1008033, 1008623, 1009226, 1009767, 1010358, 1010987, 1011611, 1012171]","[217, 245, 196, 253, 227, 203, 38, 52, 79, 68, 46, 47, 60, 43, 49, 55, 50, 62, 44, 34, 52, 75, 127, 124]","[999349, 999881, 1000404, 1000928, 1001443, 1001940, 1002492, 1003048, 1003604, 1004153, 1004727, 1005260, 1005820, 1006288, 1006759, 1007249, 1007894, 1008444, 1009053, 1009641, 1010166, 1010794, 1011400, 1011970]","[999087, 999686, 1000286, 1000886, 1001486, 1002086, 1002686, 1003286, 1003640, 1004189, 1004765, 1005296, 1005857, 1006324, 1006796, 1007286, 1007932, 1008482, 1009089, 1009678, 1010202, 1010831, 1011436, 1012006]",52,SB,L,R,ITMSR,1.0,
0,400,trial,0,46,46,46,trial,"['S', 'S', 'S', 'S', 'S', 'S', 'C', 'C', 'C', 'C', 'C', 'C', 'C', 'C', 'C', 'C', 'C', 'C', 'C', 'C', 'C', 'C']","[1017979, 1018464, 1019027, 1019500, 1019958, 1020514, 1020967, 1021474, 1021943, 1022440, 1022920, 1023380, 1023795, 1024294, 1024887, 1025453, 1025966, 1026434, 1026891, 1027329, 1027830, 1028296]","[1018039, 1018562, 1019114, 1019588, 1020075, 1020638, 1021092, 1021597, 1022059, 1022524, 1023044, 1023464, 1023892, 1024398, 1024980, 1025531, 1026052, 1026530, 1027003, 1027425, 1027927, 1028396]","[95, 245, 0, 242, 15, 248, 36, 227, 20, 7, 22, 4, 251, 255, 222, 218, 24, 253, 32, 27, 30, 38]","[1017982, 1018468, 1019031, 1019504, 1019963, 1020517, 1020971, 1021477, 1021947, 1022444, 1022923, 1023385, 1023799, 1024299, 1024891, 1025457, 1025970, 1026438, 1026895, 1027333, 1027834, 1028299]","[1017714, 1018114, 1018514, 1018913, 1019314, 1019713, 1020113, 1020514, 1021007, 1021514, 1021983, 1022481, 1022960, 1023421, 1023836, 1024334, 1024927, 1025494, 1026007, 1026475, 1026931, 1027369, 1027870, 1028336]",52,SB,L,R,ITMSR,1.0,
3,400,trial,0,47,47,47,trial,"['S', 'S', 'S', 'S', 'S', 'S', 'C', 'C', 'C', 'C', 'C', 'C', 'C', 'C', 'C', 'C', 'C', 'C', 'C', 'C', 'C', 'C']","[1034124, 1034675, 1035155, 1035702, 1036269, 1036822, 1037365, 1037997, 1038451, 1039082, 1039543, 1040002, 1040477, 1041021, 1041564, 1042103, 1042637, 1043190, 1043740, 1044292, 1044869, 1045393]","[1034203, 1034772, 1035276, 1035784, 1036352, 1036899, 1037451, 1038112, 1038562, 1039148, 1039637, 1040081, 1040570, 1041115, 1041675, 1042216, 1042739, 1043295, 1043860, 1044422, 1044978, 1045534]","[12, 244, 252, 48, 13, 10, 17, 0, 200, 11, 9, 225, 12, 255, 34, 251, 14, 16, 232, 42, 13, 33]","[1034129, 1034679, 1035159, 1035707, 1036273, 1036826, 1037370, 1038001, 1038456, 1039086, 1039548, 1040007, 1040481, 1041027, 1041568, 1042108, 1042640, 1043194, 1043745, 1044296, 1044873, 1045398]","[1033935, 1034336, 1034735, 1035136, 1035536, 1035935, 1036336, 1036736, 1037406, 1038038, 1038491, 1039123, 1039584, 1040043, 1040518, 1041061, 1041604, 1042144, 1042677, 1043230, 1043780, 1044332, 1044910, 1045434]",52,SB,L,R,ITMSR,1.0,
3,600,trial,0,48,48,48,trial,"['S', 'S', 'S', 'S', 'S', 'S', 'S', 'S', 'C', 'C', 'C', 'C', 'C', 'C', 'C', 'C', 'C', 'C', 'C', 'C', 'C', 'C', 'C', 'C']","[1051032, 1051584, 1052042, 1052524, 1053116, 1053687, 1054302, 1054851, 1055400, 1055987, 1056522, 1057044, 1057683, 1058199, 1058714, 1059246, 1059823, 1060356, 1060866, 1061403, 1061962, 1062494, 1063029, 1063590]","[1051113, 1051668, 1052140, 1052604, 1053191, 1053768, 1054370, 1054927, 1055490, 1056090, 1056612, 1057137, 1057761, 1058276, 1058791, 1059345, 1059947, 1060455, 1060954, 1061499, 1062038, 1062599, 1063123, 1063698]","[128, 208, 253, 9, 229, 47, 42, 255, 28, 38, 52, 57, 25, 33, 238, 50, 7, 37, 31, 59, 247, 53, 29, 56]","[1051037, 1051588, 1052047, 1052529, 1053120, 1053691, 1054307, 1054854, 1055405, 1055991, 1056526, 1057048, 1057686, 1058203, 1058719, 1059250, 1059828, 1060360, 1060870, 1061407, 1061966, 1062497, 1063032, 1063595]","[1050885, 1051485, 1052085, 1052685, 1053285, 1053885, 1054485, 1055084, 1055440, 1056027, 1056563, 1057085, 1057724, 1058240, 1058754, 1059287, 1059863, 1060397, 1060907, 1061443, 1062002, 1062535, 1063069, 1063630]",52,SB,L,R,ITMSR,1.0,
5,400,trial,0,49,49,49,trial,"['S', 'S', 'S', 'S', 'S', 'S', 'C', 'C', 'C', 'C', 'C', 'C', 'C', 'C', 'C', 'C', 'C', 'C', 'C', 'C', 'C', 'C']","[1069210, 1069703, 1070217, 1070733, 1071268, 1071865, 1072354, 1072865, 1073413, 1073951, 1074498, 1074990, 1075542, 1076064, 1076626, 1077215, 1077750, 1078202, 1078690, 1079230, 1079707, 1080251]","[1069270, 1069779, 1070313, 1070809, 1071347, 1071919, 1072436, 1072936, 1073516, 1074028, 1074569, 1075095, 1075622, 1076135, 1076703, 1077279, 1077819, 1078283, 1078766, 1079321, 1079801, 1080340]","[168, 228, 243, 244, 240, 110, 184, 171, 186, 217, 3, 206, 45, 33, 46, 8, 241, 248, 21, 30, 5, 25]","[1069215, 1069707, 1070221, 1070736, 1071273, 1071870, 1072358, 1072869, 1073417, 1073955, 1074501, 1074994, 1075546, 1076067, 1076629, 1077219, 1077755, 1078206, 1078693, 1079233, 1079711, 1080255]","[1069113, 1069512, 1069913, 1070313, 1070712, 1071113, 1071512, 1071912, 1072395, 1072906, 1073454, 1073991, 1074539, 1075031, 1075582, 1076105, 1076667, 1077256, 1077790, 1078243, 1078730, 1079271, 1079747, 1080292]",52,SB,L,R,ITMSR,1.0,
4,400,trial,0,50,50,50,trial,"['B', 'S', 'S', 'S', 'S', 'S', 'C', 'C', 'C', 'C', 'C', 'C', 'C', 'C', 'C', 'C', 'C', 'C', 'C', 'C', 'C', 'C']","[1085991, 1086467, 1086989, 1087579, 1088036, 1088523, 1089055, 1089669, 1090222, 1090780, 1091283, 1091777, 1092280, 1092809, 1093296, 1093840, 1094331, 1094860, 1095374, 1095901, 1096446, 1096956]","[1086030, 1086559, 1087072, 1087653, 1088124, 1088613, 1089133, 1089733, 1090309, 1090870, 1091378, 1091875, 1092386, 1092902, 1093410, 1093918, 1094448, 1094975, 1095478, 1095994, 1096532, 1097036]","[48, 10, 61, 62, 84, 99, 18, 17, 3, 227, 49, 45, 52, 15, 58, 8, 47, 16, 43, 44, 45, 234]","[1085991, 1086472, 1086993, 1087583, 1088040, 1088525, 1089059, 1089673, 1090225, 1090784, 1091288, 1091781, 1092283, 1092813, 1093299, 1093843, 1094335, 1094864, 1095378, 1095905, 1096451, 1096961]","[1086018, 1086417, 1086818, 1087217, 1087618, 1088018, 1088417, 1088818, 1089093, 1089708, 1090260, 1090819, 1091321, 1091816, 1092319, 1092847, 1093335, 1093878, 1094370, 1094898, 1095412, 1095940, 1096484, 1096994]",52,SB,L,R,ITMSR,1.0,
3,600,trial,0,51,51,51,trial,"['S', 'S', 'S', 'S', 'S', 'S', 'S', 'S', 'S', 'C', 'C', 'C', 'C', 'C', 'C', 'C', 'C', 'C', 'C', 'C', 'C', 'C', 'C', 'C', 'C']","[1102752, 1103380, 1103899, 1104399, 1104952, 1105457, 1105973, 1106499, 1107004, 1107548, 1108017, 1108526, 1109049, 1109567, 1110055, 1110606, 1111112, 1111613, 1112184, 1112710, 1113218, 1113758, 1114287, 1114820, 1115342]","[1102826, 1103451, 1103968, 1104465, 1105027, 1105532, 1106048, 1106574, 1107106, 1107624, 1108107, 1108619, 1109160, 1109651, 1110158, 1110709, 1111208, 1111726, 1112287, 1112806, 1113316, 1113836, 1114406, 1114957, 1115466]","[64, 191, 255, 14, 227, 247, 238, 26, 75, 12, 40, 172, 26, 224, 167, 137, 44, 51, 19, 252, 30, 254, 82, 30, 3]","[1102756, 1103385, 1103904, 1104400, 1104955, 1105460, 1105976, 1106503, 1107008, 1107551, 1108020, 1108530, 1109051, 1109570, 1110059, 1110610, 1111116, 1111617, 1112187, 1112713, 1113221, 1113762, 1114291, 1114824, 1115346]","[1102599, 1103199, 1103799, 1104399, 1104999, 1105599, 1106198, 1106798, 1107589, 1108058, 1108567, 1109090, 1109608, 1110095, 1110646, 1111152, 1111654, 1112224, 1112751, 1113259, 1113798, 1114328, 1114860, 1115382]",52,SB,L,R,ITMSR,1.0,
0,400,trial,0,52,52,52,trial,"['S', 'S', 'S', 'S', 'S', 'C', 'C', 'C', 'C', 'C', 'C', 'C', 'C', 'C', 'C', 'C', 'C', 'C', 'C', 'C', 'C']","[1121371, 1121906, 1122497, 1123008, 1123508, 1124112, 1124744, 1125303, 1125803, 1126335, 1126851, 1127347, 1127868, 1128409, 1128963, 1129485, 1130019, 1130572, 1131096, 1131642, 1132198]","[1121433, 1121997, 1122571, 1123126, 1123622, 1124183, 1124848, 1125415, 1125940, 1126453, 1126960, 1127442, 1127971, 1128514, 1129055, 1129607, 1130131, 1130707, 1131238, 1131854, 1132428]","[112, 4, 255, 41, 27, 11, 239, 25, 29, 41, 29, 15, 3, 9, 249, 17, 59, 24, 36, 23, 255]","[1121398, 1121911, 1122501, 1123011, 1123512, 1124115, 1124747, 1125306, 1125806, 1126338, 1126854, 1127350, 1127872, 1128412, 1128966, 1129488, 1130022, 1130575, 1131099, 1131645, 1132203]","[1120971, 1121371, 1121771, 1122170, 1122571, 1122970, 1123371, 1123771, 1124153, 1124785, 1125344, 1125843, 1126376, 1126892, 1127388, 1127909, 1128450, 1129004, 1129526, 1130059, 1130612, 1131137, 1131682, 1132238]",52,SB,L,R,ITMSR,1.0,
5,600,trial,0,53,53,53,trial,"['S', 'S', 'S', 'S', 'S', 'S', 'S', 'S', 'C', 'C', 'C', 'C', 'C', 'C', 'C', 'C', 'C', 'C', 'C', 'C', 'C', 'C', 'C', 'C']","[1137669, 1138227, 1138787, 1139263, 1139758, 1140389, 1140934, 1141543, 1142093, 1142715, 1143220, 1143727, 1144355, 1144867, 1145387, 1145926, 1146494, 1147078, 1147623, 1148166, 1148735, 1149323, 1149901, 1150458]","[1137739, 1138351, 1138885, 1139387, 1139889, 1140493, 1141045, 1141670, 1142233, 1142838, 1143346, 1143839, 1144488, 1145004, 1145540, 1146095, 1146715, 1147202, 1147720, 1148238, 1148850, 1149465, 1150059, 1150673]","[198, 185, 251, 1, 49, 41, 253, 4, 18, 1, 252, 26, 234, 23, 37, 36, 17, 20, 2, 241, 14, 10, 24, 30]","[1137673, 1138231, 1138787, 1139267, 1139761, 1140392, 1140937, 1141547, 1142097, 1142718, 1143223, 1143730, 1144359, 1144870, 1145391, 1145930, 1146498, 1147081, 1147626, 1148171, 1148739, 1149327, 1149905, 1150461]","[1137587, 1138187, 1138787, 1139387, 1139987, 1140587, 1141186, 1141786, 1142133, 1142756, 1143261, 1143768, 1144395, 1144907, 1145427, 1145966, 1146534, 1147118, 1147664, 1148207, 1148776, 1149364, 1149941, 1150498]",52,SB,L,R,ITMSR,1.0,
1,400,trial,0,54,54,54,trial,"['S', 'S', 'S', 'S', 'S', 'C', 'C', 'C', 'C', 'C', 'C', 'C', 'C', 'C', 'C', 'C', 'C', 'C', 'C', 'C', 'C']","[1174907, 1175437, 1176016, 1176600, 1177160, 1177741, 1178329, 1178848, 1179362, 1179927, 1180495, 1181064, 1181615, 1182193, 1182751, 1183320, 1183917, 1184528, 1185134, 1185807, 1186363]","[1175044, 1175592, 1176174, 1176749, 1177365, 1177963, 1178490, 1179059, 1179585, 1180148, 1180734, 1181280, 1181876, 1182457, 1182994, 1183553, 1184172, 1184688, 1185361, 1185943]","[78, 64, 58, 64, 82, 69, 89, 78, 107, 105, 100, 88, 108, 91, 79, 95, 98, 59, 104, 83]","[1174910, 1175440, 1176020, 1176603, 1177164, 1177745, 1178332, 1178852, 1179366, 1179931, 1180499, 1181068, 1181618, 1182196, 1182754, 1183323, 1183921, 1184531, 1185138, 1185811]","[1174565, 1174966, 1175365, 1175766, 1176166, 1176565, 1176966, 1177365, 1177781, 1178369, 1178888, 1179402, 1179967, 1180534, 1181104, 1181655, 1182232, 1182790, 1183360, 1183956, 1184568, 1185173, 1185847, 1186403]",52,SB,L,R,ITMSR,1.0,
5,600,trial,0,55,55,55,trial,"['B', 'S', 'S', 'S', 'S', 'S', 'S', 'S', 'C', 'C', 'C', 'C', 'C', 'C', 'C', 'C', 'C', 'C', 'C', 'C', 'C', 'C', 'C', 'C']","[1191799, 1192294, 1193000, 1193520, 1194168, 1194710, 1195393, 1195949, 1196532, 1197147, 1197787, 1198376, 1198924, 1199529, 1200119, 1200739, 1201342, 1201926, 1202525, 1203097, 1203734, 1204311, 1204888, 1205531]","[1191860, 1192427, 1193113, 1193676, 1194263, 1194798, 1195520, 1196070, 1196673, 1197278, 1197891, 1198561, 1199140, 1199773, 1200363, 1200992, 1201602, 1202212, 1202779, 1203362, 1203966, 1204564, 1205191]","[152, 238, 21, 109, 93, 36, 49, 71, 97, 69, 67, 67, 102, 73, 59, 55, 86, 91, 87, 96, 80, 78, 73]","[1191799, 1192299, 1193003, 1193524, 1194172, 1194714, 1195398, 1195953, 1196535, 1197151, 1197791, 1198380, 1198928, 1199533, 1200122, 1200743, 1201346, 1201929, 1202528, 1203100, 1203737, 1204315, 1204892]","[1191827, 1192427, 1193026, 1193626, 1194226, 1194826, 1195426, 1196026, 1196572, 1197188, 1197828, 1198416, 1198964, 1199569, 1200159, 1200780, 1201383, 1201967, 1202566, 1203137, 1203775, 1204352, 1204929, 1205571]",52,SB,L,R,ITMSR,1.0,
1,600,trial,0,56,56,56,trial,"['B', 'S', 'S', 'S', 'S', 'S', 'S', 'S', 'C', 'C', 'C', 'C', 'C', 'C', 'C', 'C', 'C', 'C', 'C', 'C', 'C', 'C', 'C', 'C']","[1210920, 1211498, 1212095, 1212667, 1213270, 1213870, 1214482, 1215076, 1215691, 1216223, 1216813, 1217382, 1217990, 1218597, 1219173, 1219742, 1220386, 1220982, 1221558, 1222203, 1222797, 1223382, 1224006, 1224636]","[1210947, 1211595, 1212230, 1212823, 1213418, 1214021, 1214643, 1215255, 1215847, 1216444, 1217041, 1217601, 1218227, 1218808, 1219383, 1219969, 1220543, 1221214, 1221814, 1222473, 1223048, 1223657, 1224270, 1224877]","[14, 205, 207, 15, 30, 232, 1, 55, 50, 46, 0, 53, 76, 72, 28, 51, 36, 62, 34, 3, 57, 52, 40, 20]","[1210920, 1211503, 1212100, 1212672, 1213274, 1213875, 1214486, 1215080, 1215695, 1216228, 1216817, 1217386, 1217995, 1218601, 1219178, 1219746, 1220390, 1220986, 1221562, 1222208, 1222801, 1223386, 1224010, 1224641]","[1210947, 1211547, 1212147, 1212747, 1213347, 1213947, 1214547, 1215148, 1215730, 1216263, 1216852, 1217422, 1218029, 1218636, 1219213, 1219781, 1220425, 1221021, 1221598, 1222243, 1222837, 1223421, 1224045, 1224676]",52,SB,L,R,ITMSR,1.0,
2,400,trial,0,57,57,57,trial,"['S', 'S', 'S', 'S', 'S', 'C', 'C', 'C', 'C', 'C', 'C', 'C', 'C', 'C', 'C', 'C', 'C', 'C', 'C', 'C', 'C']","[1230406, 1231085, 1231671, 1232229, 1232893, 1233489, 1234185, 1234791, 1235368, 1235946, 1236517, 1237159, 1237773, 1238403, 1239005, 1239604, 1240223, 1240882, 1241484, 1242133, 1242725]","[1230501, 1231166, 1231746, 1232350, 1233025, 1233615, 1234357, 1234921, 1235509, 1236063, 1236711, 1237353, 1237974, 1238645, 1239214, 1239823, 1240485, 1241134, 1241692, 1242351, 1242970]","[38, 191, 203, 22, 23, 34, 231, 34, 233, 147, 238, 251, 37, 202, 245, 4, 11, 237, 30, 8, 49]","[1230410, 1231090, 1231695, 1232234, 1232900, 1233494, 1234189, 1234796, 1235373, 1235950, 1236523, 1237164, 1237777, 1238408, 1239010, 1239608, 1240227, 1240886, 1241489, 1242137, 1242730]","[1230071, 1230471, 1230870, 1231270, 1231671, 1232070, 1232471, 1232871, 1233529, 1234226, 1234832, 1235408, 1235987, 1236557, 1237199, 1237814, 1238444, 1239046, 1239645, 1240263, 1240923, 1241525, 1242174, 1242766]",52,SB,L,R,ITMSR,1.0,
1,600,trial,0,58,58,58,trial,"['S', 'S', 'S', 'S', 'S', 'S', 'S', 'C', 'C', 'C', 'C', 'C', 'C', 'C', 'C', 'C', 'C', 'C', 'C', 'C', 'C', 'C', 'C']","[1248737, 1249326, 1249895, 1250479, 1251052, 1251633, 1252256, 1252884, 1253599, 1254231, 1254807, 1255421, 1255987, 1256579, 1257156, 1257744, 1258301, 1258874, 1259462, 1260067, 1260661, 1261246, 1261817]","[1248863, 1249475, 1250008, 1250597, 1251151, 1251793, 1252439, 1253065, 1253787, 1254380, 1255013, 1255626, 1256184, 1256770, 1257409, 1258005, 1258509, 1259084, 1259693, 1260309, 1260896, 1261491, 1262071]","[248, 30, 17, 224, 35, 252, 224, 30, 37, 252, 73, 63, 74, 78, 54, 19, 52, 55, 26, 71, 61, 83, 85]","[1248741, 1249330, 1249899, 1250482, 1251055, 1251637, 1252261, 1252888, 1253604, 1254235, 1254811, 1255425, 1255991, 1256583, 1257160, 1257748, 1258306, 1258878, 1259466, 1260071, 1260664, 1261250, 1261821]","[1248354, 1248954, 1249554, 1250154, 1250753, 1251353, 1251953, 1252553, 1252924, 1253639, 1254270, 1254847, 1255460, 1256027, 1256619, 1257195, 1257784, 1258341, 1258913, 1259501, 1260106, 1260700, 1261286, 1261856]",52,SB,L,R,ITMSR,1.0,
0,400,trial,0,59,59,59,trial,"['S', 'S', 'S', 'S', 'S', 'C', 'C', 'C', 'C', 'C', 'C', 'C', 'C', 'C', 'C', 'C', 'C', 'C', 'C', 'C', 'C']","[1267982, 1268623, 1269270, 1269853, 1270481, 1271221, 1271897, 1272521, 1273143, 1273763, 1274376, 1275023, 1275620, 1276259, 1276896, 1277572, 1278157, 1278730, 1279412, 1280118, 1280776]","[1268145, 1268782, 1269403, 1269987, 1270656, 1271486, 1272156, 1272706, 1273373, 1273986, 1274615, 1275264, 1275862, 1276465, 1277143, 1277790, 1278369, 1278965, 1279654, 1280301, 1280974]","[31, 40, 16, 205, 45, 7, 39, 236, 4, 12, 225, 32, 225, 23, 177, 254, 206, 235, 222, 187, 127]","[1267986, 1268628, 1269275, 1269858, 1270487, 1271226, 1271902, 1272609, 1273148, 1273767, 1274380, 1275027, 1275624, 1276263, 1276899, 1277576, 1278161, 1278733, 1279416, 1280122, 1280779]","[1267563, 1267961, 1268362, 1268761, 1269161, 1269562, 1269961, 1270362, 1271262, 1271938, 1272561, 1273184, 1273803, 1274417, 1275064, 1275661, 1276300, 1276937, 1277613, 1278197, 1278771, 1279453, 1280158, 1280817]",52,SB,L,R,ITMSR,1.0,
3,600,trial,0,60,60,60,trial,"['B', 'S', 'S', 'S', 'S', 'S', 'S', 'S', 'C', 'C', 'C', 'C', 'C', 'C', 'C', 'C', 'C', 'C', 'C', 'C', 'C', 'C', 'C', 'C']","[1286176, 1286804, 1287380, 1287940, 1288562, 1289167, 1289749, 1290404, 1290973, 1291556, 1292217, 1292774, 1293357, 1293939, 1294510, 1295064, 1295649, 1296259, 1296882, 1297460, 1298024, 1298628, 1299189, 1299788]","[1286283, 1286939, 1287565, 1288141, 1288769, 1289371, 1289972, 1290582, 1291179, 1291772, 1292412, 1293020, 1293541, 1294089, 1294647, 1295223, 1295818, 1296389, 1297049, 1297583, 1298178, 1298791, 1299336, 1299951]","[27, 192, 242, 42, 35, 34, 98, 134, 238, 38, 29, 40, 34, 20, 215, 248, 41, 34, 55, 209, 35, 15, 24, 30]","[1286220, 1286856, 1287458, 1287945, 1288566, 1289172, 1289753, 1290461, 1290977, 1291560, 1292221, 1292778, 1293361, 1293943, 1294515, 1295068, 1295654, 1296263, 1296885, 1297465, 1298028, 1298632, 1299193, 1299791]","[1286204, 1286804, 1287404, 1288004, 1288604, 1289204, 1289804, 1290404, 1291014, 1291596, 1292258, 1292815, 1293398, 1293979, 1294551, 1295105, 1295689, 1296300, 1296922, 1297501, 1298065, 1298668, 1299229, 1299828]",52,SB,L,R,ITMSR,1.0,
4,600,trial,0,61,61,61,trial,"['S', 'S', 'S', 'S', 'S', 'S', 'S', 'S', 'C', 'C', 'C', 'C', 'C', 'C', 'C', 'C', 'C', 'C', 'C', 'C', 'C', 'C', 'C', 'C']","[1305424, 1305958, 1306483, 1307035, 1307738, 1308299, 1308849, 1309484, 1310065, 1310658, 1311259, 1311844, 1312409, 1313085, 1313695, 1314296, 1314847, 1315444, 1316004, 1316573, 1317199, 1317783, 1318326, 1318909]","[1305592, 1306120, 1306660, 1307260, 1307910, 1308517, 1309102, 1309697, 1310305, 1310872, 1311490, 1312073, 1312600, 1313264, 1313871, 1314502, 1315082, 1315688, 1316237, 1316843, 1317393, 1317945, 1318566, 1319163]","[18, 12, 22, 47, 53, 254, 46, 206, 34, 75, 59, 55, 25, 24, 27, 5, 47, 29, 26, 38, 30, 14, 34, 39]","[1305518, 1305963, 1306540, 1307040, 1307743, 1308390, 1308853, 1309539, 1310069, 1310663, 1311263, 1311849, 1312413, 1313089, 1313699, 1314300, 1314851, 1315448, 1316008, 1316577, 1317202, 1317787, 1318330, 1318914]","[1305284, 1305883, 1306483, 1307083, 1307683, 1308283, 1308883, 1309484, 1310103, 1310697, 1311297, 1311883, 1312447, 1313124, 1313733, 1314334, 1314885, 1315482, 1316042, 1316612, 1317237, 1317822, 1318365, 1318947]",52,SB,L,R,ITMSR,1.0,
1,400,trial,0,62,62,62,trial,"['S', 'S', 'S', 'S', 'C', 'C', 'C', 'C', 'C', 'C', 'C', 'C', 'C', 'C', 'C', 'C', 'C', 'C', 'C', 'C']","[1324729, 1325413, 1326014, 1326687, 1327431, 1328108, 1328795, 1329424, 1330019, 1330657, 1331339, 1331903, 1332532, 1333154, 1333828, 1334513, 1335177, 1335869, 1336552, 1337172]","[1325049, 1325590, 1326251, 1326908, 1327641, 1328329, 1329036, 1329648, 1330293, 1330897, 1331582, 1332171, 1332786, 1333414, 1334129, 1334789, 1335503, 1336181, 1336837, 1337452]","[21, 47, 83, 35, 45, 175, 66, 64, 70, 83, 57, 79, 95, 145, 86, 84, 93, 93, 102, 97]","[1324825, 1325417, 1326018, 1326691, 1327435, 1328112, 1328798, 1329428, 1330023, 1330661, 1331343, 1331907, 1332536, 1333157, 1333832, 1334517, 1335181, 1335872, 1336556, 1337176]","[1324328, 1324729, 1325128, 1325529, 1325929, 1326328, 1326729, 1327128, 1327470, 1328148, 1328834, 1329464, 1330059, 1330697, 1331379, 1331943, 1332572, 1333193, 1333867, 1334552, 1335217, 1335909, 1336592, 1337211]",52,SB,L,R,ITMSR,1.0,
3,400,trial,0,63,63,63,trial,"['S', 'S', 'S', 'S', 'S', 'C', 'C', 'C', 'C', 'C', 'C', 'C', 'C', 'C', 'C', 'C', 'C', 'C', 'C', 'C', 'C']","[1342788, 1343454, 1344101, 1344731, 1345403, 1346111, 1346727, 1347319, 1347972, 1348628, 1349287, 1349899, 1350486, 1351090, 1351702, 1352328, 1352951, 1353618, 1354233, 1354900, 1355566]","[1342922, 1343621, 1344254, 1344958, 1345628, 1346313, 1346958, 1347562, 1348189, 1348830, 1349492, 1350127, 1350695, 1351365, 1351965, 1352604, 1353212, 1353901, 1354536, 1355188, 1355844]","[41, 66, 13, 41, 66, 22, 140, 52, 69, 85, 36, 57, 91, 33, 76, 61, 46, 19, 63, 77, 33]","[1342792, 1343457, 1344105, 1344734, 1345405, 1346114, 1346731, 1347322, 1347975, 1348632, 1349291, 1349903, 1350489, 1351094, 1351705, 1352331, 1352954, 1353622, 1354236, 1354904, 1355570]","[1342628, 1343029, 1343428, 1343828, 1344229, 1344628, 1345029, 1345429, 1346152, 1346767, 1347359, 1348013, 1348669, 1349327, 1349940, 1350526, 1351131, 1351743, 1352369, 1352991, 1353659, 1354273, 1354941, 1355607]",52,SB,L,R,ITMSR,1.0,
4,600,trial,0,64,64,64,trial,"['S', 'S', 'S', 'S', 'S', 'S', 'S', 'C', 'C', 'C', 'C', 'C', 'C', 'C', 'C', 'C', 'C', 'C', 'C', 'C', 'C', 'C', 'C']","[1361336, 1361957, 1362563, 1363188, 1363804, 1364416, 1365048, 1365658, 1366249, 1366840, 1367445, 1368049, 1368648, 1369221, 1369824, 1370405, 1370991, 1371556, 1372139, 1372746, 1373415, 1374046, 1374635]","[1361528, 1362091, 1362751, 1363381, 1363986, 1364628, 1365277, 1365895, 1366493, 1367080, 1367718, 1368309, 1368885, 1369477, 1370045, 1370607, 1371182, 1371782, 1372367, 1372975, 1373611, 1374289, 1374855]","[66, 63, 132, 60, 89, 24, 54, 64, 109, 71, 89, 68, 96, 102, 77, 52, 66, 94, 95, 84, 72, 106, 55]","[1361340, 1361960, 1362565, 1363191, 1363807, 1364420, 1365051, 1365661, 1366252, 1366843, 1367449, 1368053, 1368651, 1369224, 1369827, 1370409, 1370994, 1371559, 1372142, 1372750, 1373419, 1374049, 1374640]","[1360978, 1361577, 1362178, 1362778, 1363378, 1363978, 1364578, 1365178, 1365696, 1366288, 1366879, 1367484, 1368087, 1368686, 1369260, 1369863, 1370443, 1371029, 1371594, 1372178, 1372784, 1373454, 1374085, 1374673]",52,SB,L,R,ITMSR,1.0,
5,400,trial,0,65,65,65,trial,"['B', 'S', 'S', 'S', 'S', 'C', 'C', 'C', 'C', 'C', 'C', 'C', 'C', 'C', 'C', 'C', 'C', 'C', 'C', 'C', 'C']","[1379982, 1380495, 1381172, 1381785, 1382418, 1383120, 1383817, 1384481, 1385061, 1385670, 1386238, 1386808, 1387408, 1388006, 1388677, 1389326, 1389921, 1390517, 1391132, 1391750, 1392362]","[1380018, 1380672, 1381383, 1382009, 1382638, 1383349, 1384088, 1384734, 1385273, 1385840, 1386419, 1386996, 1387621, 1388257, 1388888, 1389588, 1390151, 1390740, 1391380, 1392018, 1392614]","[158, 57, 25, 42, 50, 8, 55, 82, 43, 41, 81, 81, 63, 79, 104, 69, 66, 81, 112, 76, 89]","[1379982, 1380500, 1381176, 1381788, 1382422, 1383124, 1383821, 1384485, 1385065, 1385674, 1386243, 1386811, 1387411, 1388010, 1388680, 1389328, 1389924, 1390521, 1391135, 1391754, 1392365]","[1380009, 1380410, 1380809, 1381210, 1381610, 1382009, 1382410, 1382809, 1383160, 1383858, 1384521, 1385102, 1385710, 1386278, 1386849, 1387449, 1388047, 1388718, 1389367, 1389962, 1390558, 1391172, 1391791, 1392403]",52,SB,L,R,ITMSR,1.0,
2,400,trial,0,66,66,66,trial,"['S', 'S', 'S', 'S', 'C', 'C', 'C', 'C', 'C', 'C', 'C', 'C', 'C', 'C', 'C', 'C', 'C', 'C', 'C', 'C']","[1398240, 1398948, 1399672, 1400349, 1401116, 1401836, 1402486, 1403145, 1403817, 1404437, 1405052, 1405728, 1406324, 1406907, 1407558, 1408198, 1408836, 1409498, 1410168, 1410817]","[1398363, 1399096, 1399856, 1400583, 1401322, 1402104, 1402773, 1403443, 1404133, 1404688, 1405343, 1405982, 1406569, 1407211, 1407820, 1408455, 1409070, 1409751, 1410448, 1411076]","[11, 50, 79, 94, 70, 86, 84, 70, 64, 90, 79, 61, 88, 56, 58, 97, 42, 70, 94, 99]","[1398245, 1398952, 1399675, 1400353, 1401120, 1401839, 1402490, 1403149, 1403822, 1404441, 1405056, 1405731, 1406328, 1406911, 1407561, 1408201, 1408840, 1409503, 1410172, 1410820]","[1398064, 1398463, 1398862, 1399263, 1399662, 1400062, 1400463, 1400862, 1401156, 1401877, 1402526, 1403186, 1403857, 1404478, 1405092, 1405768, 1406364, 1406948, 1407598, 1408238, 1408876, 1409539, 1410208, 1410857]",52,SB,L,R,ITMSR,1.0,
2,600,trial,0,67,67,67,trial,"['S', 'S', 'S', 'S', 'S', 'S', 'S', 'S', 'C', 'C', 'C', 'C', 'C', 'C', 'C', 'C', 'C', 'C', 'C', 'C', 'C', 'C', 'C', 'C']","[1416542, 1417119, 1417686, 1418284, 1418910, 1419385, 1419982, 1420619, 1421216, 1421816, 1422401, 1423010, 1423624, 1424247, 1424820, 1425438, 1426077, 1426699, 1427335, 1427983, 1428579, 1429213, 1429862, 1430496]","[1416749, 1417310, 1417863, 1418416, 1419040, 1419548, 1420195, 1420829, 1421423, 1422004, 1422607, 1423236, 1423863, 1424480, 1425071, 1425686, 1426360, 1426965, 1427598, 1428219, 1428849, 1429493, 1430174, 1430744]","[38, 52, 230, 80, 224, 64, 105, 53, 18, 45, 35, 81, 121, 38, 101, 90, 110, 113, 93, 61, 117, 119, 110, 118]","[1416547, 1417123, 1417755, 1418287, 1418955, 1419389, 1419986, 1420623, 1421220, 1421821, 1422405, 1423014, 1423628, 1424251, 1424823, 1425544, 1426081, 1426704, 1427437, 1427987, 1428583, 1429216, 1429958, 1430600]","[1416511, 1417110, 1417710, 1418310, 1418910, 1419510, 1420110, 1420710, 1421256, 1421856, 1422442, 1423050, 1423665, 1424287, 1424861, 1425478, 1426117, 1426740, 1427376, 1428024, 1428620, 1429254, 1429903, 1430537]",52,SB,L,R,ITMSR,1.0,
5,400,trial,0,68,68,68,trial,"['S', 'S', 'S', 'S', 'S', 'C', 'C', 'C', 'C', 'C', 'C', 'C', 'C', 'C', 'C', 'C', 'C', 'C', 'C', 'C', 'C']","[1436332, 1437008, 1437659, 1438321, 1439015, 1439638, 1440294, 1440928, 1441515, 1442170, 1442828, 1443511, 1444156, 1444822, 1445434, 1446105, 1446801, 1447447, 1448051, 1448718, 1449357]","[1436496, 1437167, 1437831, 1438505, 1439194, 1439854, 1440538, 1441140, 1441758, 1442435, 1443080, 1443789, 1444419, 1445089, 1445673, 1446373, 1447056, 1447676, 1448315, 1448987, 1449635]","[233, 30, 235, 37, 254, 54, 31, 91, 89, 69, 88, 93, 100, 74, 83, 95, 93, 18, 114, 77, 74]","[1436336, 1437012, 1437664, 1438325, 1439020, 1439642, 1440297, 1440931, 1441519, 1442174, 1442832, 1443514, 1444159, 1444826, 1445438, 1446108, 1446805, 1447565, 1448054, 1448722, 1449361]","[1436304, 1436703, 1437104, 1437504, 1437903, 1438304, 1438703, 1439104, 1439679, 1440334, 1440968, 1441556, 1442210, 1442869, 1443552, 1444197, 1444862, 1445475, 1446146, 1446842, 1447488, 1448091, 1448759, 1449398]",52,SB,L,R,ITMSR,1.0,
0,600,trial,0,69,69,69,trial,"['S', 'S', 'S', 'S', 'S', 'S', 'S', 'C', 'C', 'C', 'C', 'C', 'C', 'C', 'C', 'C', 'C', 'C', 'C', 'C', 'C', 'C', 'C']","[1455247, 1455959, 1456673, 1457349, 1457977, 1458587, 1459148, 1459771, 1460470, 1461148, 1461814, 1462427, 1463033, 1463678, 1464229, 1464863, 1465525, 1466142, 1466773, 1467444, 1468060, 1468717, 1469305]","[1455345, 1456094, 1456792, 1457478, 1458118, 1458703, 1459310, 1459926, 1460601, 1461300, 1461976, 1462562, 1463208, 1463871, 1464485, 1465127, 1465766, 1466399, 1467022, 1467681, 1468292, 1468940, 1469573]","[68, 232, 51, 86, 43, 27, 85, 36, 64, 82, 70, 55, 90, 60, 80, 125, 137, 91, 110, 101, 91, 108, 90]","[1455251, 1455964, 1456676, 1457353, 1457980, 1458590, 1459152, 1459774, 1460474, 1461151, 1461817, 1462431, 1463037, 1463762, 1464341, 1464975, 1465637, 1466230, 1466863, 1467537, 1468164, 1468720, 1469308]","[1455079, 1455679, 1456278, 1456878, 1457478, 1458078, 1458678, 1459278, 1459812, 1460510, 1461188, 1461855, 1462467, 1463073, 1463718, 1464269, 1464903, 1465566, 1466182, 1466814, 1467485, 1468100, 1468758, 1469345]",52,SB,L,R,ITMSR,1.0,
3,600,trial,0,70,70,70,trial,"['S', 'S', 'S', 'S', 'S', 'S', 'S', 'C', 'C', 'C', 'C', 'C', 'C', 'C', 'C', 'C', 'C', 'C', 'C', 'C', 'C', 'C', 'C']","[1475236, 1475893, 1476514, 1477219, 1477826, 1478468, 1479130, 1479776, 1480409, 1481033, 1481646, 1482287, 1482954, 1483581, 1484223, 1484866, 1485507, 1486166, 1486774, 1487440, 1488067, 1488693, 1489301]","[1475369, 1476065, 1476691, 1477380, 1478051, 1478679, 1479332, 1479970, 1480679, 1481283, 1481925, 1482542, 1483246, 1483841, 1484462, 1485171, 1485784, 1486407, 1487051, 1487714, 1488357, 1488935, 1489517]","[60, 64, 67, 34, 61, 73, 66, 72, 119, 73, 81, 9, 74, 86, 89, 66, 61, 110, 114, 100, 79, 111, 130]","[1475239, 1475897, 1476592, 1477223, 1477911, 1478561, 1479134, 1479854, 1480492, 1481141, 1481650, 1482384, 1482958, 1483585, 1484226, 1484870, 1485512, 1486261, 1486777, 1487443, 1488072, 1488783, 1489382]","[1474861, 1475460, 1476060, 1476660, 1477260, 1477860, 1478460, 1479060, 1479817, 1480450, 1481073, 1481687, 1482328, 1482994, 1483622, 1484264, 1484907, 1485548, 1486206, 1486815, 1487480, 1488108, 1488734, 1489342]",52,SB,L,R,ITMSR,1.0,
0,600,trial,0,71,71,71,trial,"['B', 'S', 'S', 'S', 'S', 'S', 'S', 'S', 'C', 'C', 'C', 'C', 'C', 'C', 'C', 'C', 'C', 'C', 'C', 'C', 'C', 'C', 'C', 'C']","[1494960, 1495616, 1496237, 1496829, 1497467, 1498125, 1498775, 1499372, 1499936, 1500547, 1501138, 1501746, 1502346, 1502943, 1503556, 1504097, 1504715, 1505332, 1505941, 1506534, 1507168, 1507764, 1508354, 1508996]","[1495148, 1495755, 1496374, 1497013, 1497661, 1498296, 1498874, 1499531, 1500099, 1500708, 1501296, 1501906, 1502529, 1503117, 1503718, 1504296, 1504932, 1505469, 1506129, 1506735, 1507349, 1507921, 1508553, 1509225]","[244, 232, 223, 91, 238, 205, 153, 38, 18, 26, 15, 3, 36, 64, 58, 65, 103, 74, 110, 104, 75, 55, 50, 55]","[1495004, 1495621, 1496241, 1496900, 1497532, 1498220, 1498831, 1499375, 1499940, 1500551, 1501210, 1501832, 1502350, 1502947, 1503559, 1504101, 1504719, 1505336, 1505945, 1506537, 1507171, 1507768, 1508357, 1508999]","[1494987, 1495587, 1496187, 1496787, 1497388, 1497988, 1498588, 1499188, 1499976, 1500588, 1501178, 1501787, 1502387, 1502984, 1503596, 1504138, 1504755, 1505373, 1505982, 1506575, 1507209, 1507805, 1508395, 1509037]",52,SB,L,R,ITMSR,1.0,
0,400,trial,0,72,72,72,trial,"['S', 'S', 'S', 'S', 'S', 'C', 'C', 'C', 'C', 'C', 'C', 'C', 'C', 'C', 'C', 'C', 'C', 'C', 'C', 'C', 'C']","[1514510, 1515151, 1515805, 1516435, 1517056, 1517718, 1518339, 1518906, 1519586, 1520215, 1520854, 1521475, 1522064, 1522688, 1523295, 1523918, 1524520, 1525188, 1525851, 1526519, 1527285]","[1514604, 1515272, 1515924, 1516635, 1517240, 1517888, 1518536, 1519175, 1519857, 1520496, 1521160, 1521748, 1522380, 1522958, 1523618, 1524227, 1524803, 1525470, 1526120, 1526755, 1527465]","[119, 55, 66, 110, 92, 110, 136, 34, 110, 232, 246, 45, 81, 215, 80, 51, 36, 74, 90, 65, 83]","[1514546, 1515154, 1515808, 1516437, 1517059, 1517720, 1518341, 1518910, 1519588, 1520219, 1520857, 1521478, 1522067, 1522692, 1523298, 1523922, 1524525, 1525191, 1525854, 1526523, 1527288]","[1514510, 1514908, 1515309, 1515709, 1516108, 1516509, 1516908, 1517308, 1517759, 1518380, 1518947, 1519627, 1520256, 1520894, 1521516, 1522105, 1522728, 1523336, 1523958, 1524560, 1525228, 1525892, 1526559, 1527325]",52,SB,L,R,ITMSR,1.0,
4,400,trial,0,73,73,73,trial,"['S', 'S', 'S', 'S', 'S', 'C', 'C', 'C', 'C', 'C', 'C', 'C', 'C', 'C', 'C', 'C', 'C', 'C', 'C', 'C', 'C']","[1532977, 1533611, 1534323, 1535006, 1535582, 1536280, 1536918, 1537480, 1538088, 1538715, 1539360, 1540012, 1540638, 1541262, 1541886, 1542492, 1543097, 1543759, 1544392, 1545088, 1545984]","[1533088, 1533747, 1534400, 1535150, 1535752, 1536449, 1537082, 1537701, 1538317, 1538907, 1539536, 1540267, 1540934, 1541518, 1542135, 1542745, 1543346, 1544008, 1544666, 1545317, 1546255]","[27, 243, 78, 5, 38, 95, 5, 17, 69, 109, 48, 241, 36, 35, 254, 50, 78, 66, 123, 114, 81]","[1532981, 1533615, 1534327, 1535010, 1535645, 1536357, 1536921, 1537483, 1538092, 1538717, 1539363, 1540086, 1540641, 1541345, 1541967, 1542586, 1543100, 1543833, 1544494, 1545181, 1546076]","[1532921, 1533322, 1533721, 1534121, 1534522, 1534921, 1535322, 1535722, 1536319, 1536957, 1537518, 1538126, 1538753, 1539398, 1540050, 1540676, 1541301, 1541924, 1542531, 1543136, 1543797, 1544430, 1545126, 1546022]",52,SB,L,R,ITMSR,1.0,
2,600,trial,0,74,74,74,trial,"['S', 'S', 'S', 'S', 'S', 'S', 'C', 'C', 'C', 'C', 'C', 'C', 'C', 'C', 'C', 'C', 'C', 'C', 'C', 'C', 'C', 'C']","[1551500, 1552172, 1552872, 1553623, 1554376, 1555230, 1556022, 1556990, 1557711, 1558272, 1558944, 1559612, 1560262, 1560939, 1561626, 1562318, 1562984, 1563633, 1564262, 1564879, 1565529, 1566246]","[1551636, 1552321, 1552988, 1553756, 1554546, 1555408, 1556201, 1557161, 1557880, 1558453, 1559144, 1559826, 1560482, 1561175, 1561810, 1562512, 1563119, 1563783, 1564421, 1565088, 1565719, 1566447]","[16, 219, 31, 224, 245, 14, 17, 187, 250, 56, 118, 218, 233, 34, 65, 6, 162, 216, 222, 24, 38, 12]","[1551502, 1552175, 1552875, 1553626, 1554380, 1555233, 1556026, 1556995, 1557715, 1558275, 1558947, 1559615, 1560265, 1560943, 1561628, 1562322, 1562989, 1563637, 1564266, 1564883, 1565533, 1566251]","[1551500, 1552099, 1552699, 1553299, 1553899, 1554498, 1555098, 1555698, 1556063, 1557030, 1557751, 1558312, 1558984, 1559653, 1560302, 1560980, 1561666, 1562358, 1563025, 1563673, 1564303, 1564919, 1565570, 1566286]",52,SB,L,R,ITMSR,1.0,
5,600,trial,0,75,75,75,trial,"['S', 'S', 'S', 'S', 'S', 'S', 'S', 'S', 'C', 'C', 'C', 'C', 'C', 'C', 'C', 'C', 'C', 'C', 'C', 'C', 'C', 'C', 'C', 'C']","[1571800, 1572406, 1572989, 1573541, 1574128, 1574744, 1575303, 1575977, 1576560, 1577163, 1577852, 1578488, 1579151, 1579822, 1580520, 1581144, 1581787, 1582435, 1583107, 1583803, 1584509, 1585199, 1585999, 1586646]","[1571939, 1572574, 1573133, 1573695, 1574290, 1574892, 1575497, 1576128, 1576736, 1577385, 1577976, 1578674, 1579364, 1580052, 1580732, 1581364, 1582028, 1582718, 1583377, 1584078, 1584818, 1585461, 1586249, 1586919]","[29, 17, 42, 54, 54, 42, 58, 71, 5, 35, 254, 98, 213, 1, 243, 69, 69, 254, 12, 206, 249, 94, 157, 79]","[1571804, 1572410, 1572994, 1573545, 1574131, 1574746, 1575306, 1575982, 1576563, 1577166, 1577856, 1578491, 1579154, 1579825, 1580523, 1581148, 1581791, 1582439, 1583111, 1583806, 1584513, 1585203, 1586080, 1586650]","[1571770, 1572370, 1572970, 1573569, 1574169, 1574769, 1575369, 1575969, 1576600, 1577203, 1577892, 1578528, 1579192, 1579863, 1580561, 1581185, 1581828, 1582476, 1583148, 1583844, 1584549, 1585240, 1586039, 1586686]",52,SB,L,R,ITMSR,1.0,
3,400,trial,0,76,76,76,trial,"['S', 'S', 'S', 'S', 'C', 'C', 'C', 'C', 'C', 'C', 'C', 'C', 'C', 'C', 'C', 'C', 'C', 'C', 'C', 'C']","[1592525, 1593227, 1593950, 1594635, 1595251, 1595968, 1596575, 1597126, 1597700, 1598298, 1598907, 1599503, 1600133, 1600753, 1601314, 1601918, 1602483, 1603204, 1603796, 1604395]","[1592698, 1593374, 1594056, 1594796, 1595461, 1596174, 1596773, 1597324, 1597923, 1598461, 1599117, 1599721, 1600309, 1600929, 1601506, 1602084, 1602678, 1603405, 1603977, 1604568]","[251, 0, 232, 216, 212, 138, 170, 255, 23, 72, 126, 30, 80, 16, 23, 47, 238, 22, 237, 33]","[1592614, 1593231, 1593954, 1594639, 1595254, 1595971, 1596578, 1597130, 1597704, 1598302, 1598910, 1599508, 1600136, 1600757, 1601318, 1601923, 1602488, 1603209, 1603801, 1604399]","[1592150, 1592549, 1592948, 1593349, 1593749, 1594148, 1594549, 1594948, 1595291, 1596009, 1596615, 1597166, 1597741, 1598339, 1598948, 1599544, 1600174, 1600793, 1601354, 1601958, 1602524, 1603245, 1603836, 1604435]",52,SB,L,R,ITMSR,1.0,
4,400,trial,0,77,77,77,trial,"['S', 'S', 'S', 'S', 'S', 'C', 'C', 'C', 'C', 'C', 'C', 'C', 'C', 'C', 'C', 'C', 'C', 'C', 'C', 'C', 'C']","[1610217, 1610788, 1611373, 1611945, 1612537, 1613155, 1613702, 1614233, 1614815, 1615389, 1615991, 1616524, 1617056, 1617810, 1618458, 1619061, 1619605, 1620105, 1620684, 1621266, 1621857]","[1610346, 1610923, 1611499, 1612083, 1612664, 1613264, 1613861, 1614411, 1614985, 1615587, 1616146, 1616727, 1617282, 1617929, 1618631, 1619201, 1619776, 1620267, 1620875, 1621489, 1622111]","[226, 248, 33, 54, 66, 28, 25, 70, 54, 8, 52, 20, 213, 43, 13, 54, 39, 81, 25, 17, 59]","[1610222, 1610792, 1611377, 1611950, 1612541, 1613160, 1613705, 1614235, 1614818, 1615392, 1615993, 1616527, 1617173, 1617813, 1618462, 1619065, 1619609, 1620109, 1620687, 1621269, 1621861]","[1609848, 1610248, 1610647, 1611047, 1611448, 1611847, 1612248, 1612648, 1613194, 1613741, 1614271, 1614854, 1615427, 1616029, 1616563, 1617094, 1617849, 1618496, 1619099, 1619644, 1620144, 1620722, 1621305, 1621896]",52,SB,L,R,ITMSR,1.0,
1,400,trial,0,78,78,78,trial,"['S', 'S', 'S', 'S', 'S', 'C', 'C', 'C', 'C', 'C', 'C', 'C', 'C', 'C', 'C', 'C', 'C', 'C', 'C', 'C', 'C']","[1665341, 1666001, 1666650, 1667239, 1667880, 1668498, 1669103, 1669648, 1670249, 1670837, 1671491, 1672123, 1672755, 1673364, 1674045, 1674692, 1675354, 1675953, 1676599, 1677247, 1677942]","[1665625, 1666249, 1666838, 1667475, 1668072, 1668659, 1669272, 1669865, 1670454, 1671079, 1671760, 1672373, 1673018, 1673657, 1674312, 1674958, 1675630, 1676262, 1676866, 1677457, 1678210]","[213, 182, 136, 244, 34, 59, 63, 54, 81, 103, 97, 83, 87, 138, 77, 145, 97, 30, 101, 104, 73]","[1665449, 1666092, 1666751, 1667244, 1667886, 1668502, 1669106, 1669651, 1670253, 1670841, 1671494, 1672126, 1672758, 1673367, 1674048, 1674695, 1675357, 1676040, 1676603, 1677250, 1677946]","[1665049, 1665449, 1665850, 1666249, 1666650, 1667050, 1667449, 1667850, 1668538, 1669142, 1669688, 1670289, 1670877, 1671531, 1672163, 1672795, 1673404, 1674085, 1674731, 1675394, 1675993, 1676639, 1677287, 1677981]",52,SB,L,R,ITMSR,1.0,
4,400,trial,0,79,79,79,trial,"['S', 'S', 'S', 'S', 'S', 'C', 'C', 'C', 'C', 'C', 'C', 'C', 'C', 'C', 'C', 'C', 'C', 'C', 'C', 'C', 'C']","[1683560, 1684278, 1684928, 1685594, 1686333, 1687027, 1687704, 1688412, 1689159, 1689903, 1690566, 1691238, 1691913, 1692638, 1693389, 1694066, 1694790, 1695496, 1696212, 1696949, 1697690]","[1683735, 1684449, 1685202, 1685875, 1686568, 1687342, 1688046, 1688715, 1689455, 1690129, 1690866, 1691501, 1692193, 1692959, 1693667, 1694353, 1695068, 1695794, 1696514, 1697244, 1697934]","[48, 229, 13, 167, 254, 44, 13, 2, 50, 66, 77, 100, 38, 158, 71, 33, 73, 124, 115, 101, 73]","[1683563, 1684280, 1684932, 1685596, 1686337, 1687030, 1687707, 1688415, 1689163, 1689906, 1690570, 1691241, 1691917, 1692641, 1693392, 1694070, 1694793, 1695499, 1696216, 1696953, 1697693]","[1683420, 1683818, 1684218, 1684619, 1685018, 1685419, 1685819, 1686218, 1687065, 1687743, 1688451, 1689197, 1689942, 1690604, 1691277, 1691952, 1692677, 1693427, 1694104, 1694828, 1695535, 1696250, 1696988, 1697728]",52,SB,L,R,ITMSR,1.0,
2,400,trial,0,80,80,80,trial,"['S', 'S', 'S', 'S', 'C', 'C', 'C', 'C', 'C', 'C', 'C', 'C', 'C', 'C', 'C', 'C', 'C', 'C', 'C', 'C']","[1703588, 1704256, 1704929, 1705592, 1706386, 1707110, 1707777, 1708471, 1709117, 1709790, 1710435, 1711117, 1711808, 1712544, 1713230, 1713945, 1714703, 1715356, 1716051, 1716784]","[1703758, 1704406, 1705081, 1705753, 1706527, 1707300, 1707993, 1708653, 1709278, 1709919, 1710640, 1711313, 1712046, 1712776, 1713443, 1714157, 1714917, 1715627, 1716295, 1717032]","[13, 94, 248, 82, 218, 199, 240, 233, 242, 3, 83, 59, 10, 42, 30, 5, 241, 193, 219, 196]","[1703592, 1704260, 1704934, 1705596, 1706390, 1707114, 1707781, 1708475, 1709122, 1709794, 1710438, 1711121, 1711811, 1712548, 1713234, 1713948, 1714707, 1715361, 1716056, 1716788]","[1703300, 1703699, 1704098, 1704499, 1704898, 1705298, 1705699, 1706098, 1706427, 1707151, 1707817, 1708512, 1709158, 1709831, 1710476, 1711158, 1711849, 1712584, 1713270, 1713985, 1714744, 1715396, 1716091, 1716825]",52,SB,L,R,ITMSR,1.0,
2,600,trial,0,81,81,81,trial,"['S', 'S', 'S', 'S', 'S', 'S', 'S', 'S', 'C', 'C', 'C', 'C', 'C', 'C', 'C', 'C', 'C', 'C', 'C', 'C', 'C', 'C', 'C', 'C']","[1722207, 1722739, 1723269, 1723763, 1724303, 1724926, 1725442, 1726083, 1726686, 1727245, 1727801, 1728324, 1728861, 1729389, 1730052, 1730604, 1731093, 1731630, 1732163, 1732669, 1733146, 1733756, 1734295, 1734893]","[1722344, 1722887, 1723409, 1723916, 1724447, 1725062, 1725664, 1726254, 1726810, 1727377, 1727904, 1728429, 1728940, 1729489, 1730145, 1730713, 1731230, 1731746, 1732254, 1732773, 1733270, 1733871, 1734424, 1735047]","[63, 24, 209, 226, 14, 177, 185, 16, 252, 125, 208, 230, 236, 27, 213, 210, 10, 3, 168, 229, 28, 175, 28, 30]","[1722210, 1722742, 1723272, 1723766, 1724307, 1724931, 1725445, 1726086, 1726690, 1727251, 1727805, 1728327, 1728865, 1729393, 1730057, 1730607, 1731096, 1731634, 1732167, 1732673, 1733150, 1733761, 1734299, 1734896]","[1722198, 1722797, 1723397, 1723997, 1724597, 1725197, 1725797, 1726397, 1726727, 1727286, 1727842, 1728364, 1728902, 1729430, 1730093, 1730644, 1731134, 1731671, 1732204, 1732710, 1733186, 1733796, 1734336, 1734934]",52,SB,L,R,ITMSR,1.0,
0,400,trial,0,82,82,82,trial,"['B', 'S', 'S', 'S', 'S', 'C', 'C', 'C', 'C', 'C', 'C', 'C', 'C', 'C', 'C', 'C', 'C', 'C', 'C', 'C', 'C']","[1740693, 1741207, 1741855, 1742473, 1743054, 1743862, 1744510, 1745132, 1745732, 1746353, 1746931, 1747623, 1748265, 1748964, 1749642, 1750264, 1750884, 1751515, 1752167, 1752837, 1753559]","[1740728, 1741353, 1741996, 1742576, 1743220, 1744000, 1744686, 1745356, 1745997, 1746610, 1747170, 1747836, 1748501, 1749198, 1749870, 1750584, 1751149, 1751771, 1752437, 1753128, 1753842]","[119, 222, 191, 10, 0, 10, 197, 211, 18, 235, 41, 1, 22, 252, 46, 24, 14, 29, 30, 12, 213]","[1740693, 1741210, 1741860, 1742475, 1743058, 1743866, 1744516, 1745136, 1745736, 1746357, 1746934, 1747628, 1748270, 1748969, 1749645, 1750269, 1750888, 1751519, 1752171, 1752841, 1753563]","[1740721, 1741121, 1741521, 1741922, 1742321, 1742722, 1743122, 1743521, 1743902, 1744550, 1745173, 1745772, 1746394, 1746971, 1747663, 1748305, 1749005, 1749683, 1750304, 1750925, 1751556, 1752208, 1752878, 1753600]",52,SB,L,R,ITMSR,1.0,
3,400,trial,0,83,83,83,trial,"['S', 'S', 'S', 'S', 'S', 'C', 'C', 'C', 'C', 'C', 'C', 'C', 'C', 'C', 'C', 'C', 'C', 'C', 'C', 'C', 'C']","[1759556, 1760211, 1760872, 1761496, 1762092, 1762737, 1763367, 1764019, 1764646, 1765246, 1765925, 1766486, 1767074, 1767754, 1768321, 1768929, 1769515, 1770067, 1770601, 1771149, 1771771]","[1759688, 1760299, 1760993, 1761583, 1762187, 1762877, 1763520, 1764133, 1764740, 1765337, 1766033, 1766556, 1767185, 1767835, 1768432, 1769020, 1769581, 1770178, 1770713, 1771252, 1771867]","[234, 157, 179, 220, 247, 197, 249, 6, 160, 159, 79, 45, 101, 235, 251, 186, 4, 244, 166, 56, 251]","[1759561, 1760216, 1760877, 1761500, 1762097, 1762741, 1763372, 1764023, 1764651, 1765251, 1765931, 1766490, 1767078, 1767757, 1768324, 1768934, 1769519, 1770071, 1770604, 1771152, 1771774]","[1759089, 1759490, 1759890, 1760289, 1760690, 1761089, 1761489, 1761890, 1762778, 1763407, 1764060, 1764686, 1765286, 1765965, 1766526, 1767114, 1767794, 1768361, 1768970, 1769555, 1770107, 1770642, 1771190, 1771811]",52,SB,L,R,ITMSR,1.0,
1,600,trial,0,84,84,84,trial,"['S', 'S', 'S', 'S', 'S', 'S', 'S', 'C', 'C', 'C', 'C', 'C', 'C', 'C', 'C', 'C', 'C', 'C', 'C', 'C', 'C', 'C', 'C']","[1777709, 1778311, 1778878, 1779521, 1780232, 1780832, 1781400, 1782041, 1782713, 1783332, 1784001, 1784721, 1785283, 1785861, 1786444, 1787058, 1787704, 1788386, 1788965, 1789469, 1789970, 1790477, 1791135]","[1777729, 1778405, 1778987, 1779639, 1780312, 1780917, 1781487, 1782080, 1782787, 1783412, 1784082, 1784809, 1785385, 1785961, 1786561, 1787191, 1787827, 1788463, 1789004, 1789552, 1790073, 1790517, 1791202]","[141, 199, 75, 152, 98, 14, 186, 244, 75, 6, 217, 168, 47, 106, 117, 87, 14, 230, 212, 39, 152, 186, 223]","[1777714, 1778315, 1778881, 1779525, 1780275, 1780877, 1781405, 1782046, 1782717, 1783335, 1784006, 1784725, 1785288, 1785864, 1786447, 1787062, 1787708, 1788390, 1788971, 1789472, 1789974, 1790483, 1791139]","[1777231, 1777831, 1778432, 1779032, 1779632, 1780232, 1780832, 1781432, 1782080, 1782753, 1783371, 1784041, 1784761, 1785323, 1785901, 1786483, 1787098, 1787744, 1788426, 1789004, 1789508, 1790010, 1790517, 1791174]",52,SB,L,R,ITMSR,1.0,
5,600,trial,0,85,85,85,trial,"['S', 'S', 'S', 'S', 'S', 'S', 'S', 'C', 'C', 'C', 'C', 'C', 'C', 'C', 'C', 'C', 'C', 'C', 'C', 'C', 'C', 'C', 'C']","[1796874, 1797409, 1798020, 1798631, 1799242, 1799934, 1800565, 1801105, 1801794, 1802396, 1803016, 1803587, 1804272, 1804908, 1805478, 1806071, 1806697, 1807342, 1807965, 1808596, 1809220, 1809888, 1810506]","[1796993, 1797520, 1798135, 1798757, 1799369, 1800037, 1800682, 1801271, 1801957, 1802589, 1803251, 1803739, 1804379, 1805003, 1805638, 1806254, 1806944, 1807579, 1808227, 1808817, 1809468, 1810146]","[245, 238, 120, 187, 171, 163, 227, 8, 11, 244, 242, 234, 219, 155, 243, 241, 27, 31, 38, 94, 126, 38]","[1796879, 1797412, 1798025, 1798635, 1799246, 1799939, 1800569, 1801109, 1801798, 1802400, 1803020, 1803591, 1804276, 1804913, 1805483, 1806075, 1806701, 1807346, 1807969, 1808600, 1809223, 1809893]","[1796482, 1797082, 1797682, 1798282, 1798882, 1799482, 1800082, 1800682, 1801146, 1801835, 1802436, 1803057, 1803628, 1804312, 1804949, 1805518, 1806111, 1806738, 1807382, 1808006, 1808636, 1809260, 1809929, 1810546]",52,SB,L,R,ITMSR,1.0,
4,600,trial,0,86,86,86,trial,"['S', 'S', 'S', 'S', 'S', 'S', 'S', 'C', 'C', 'C', 'C', 'C', 'C', 'C', 'C', 'C', 'C', 'C', 'C', 'C', 'C', 'C', 'C']","[1816304, 1816881, 1817542, 1818158, 1819010, 1819597, 1820241, 1820859, 1821455, 1822116, 1822778, 1823467, 1824143, 1824778, 1825471, 1826104, 1826732, 1827382, 1828037, 1828704, 1829359, 1830005, 1830605]","[1816455, 1817052, 1817688, 1818318, 1819160, 1819825, 1820405, 1821012, 1821684, 1822354, 1823004, 1823765, 1824410, 1825069, 1825742, 1826359, 1826985, 1827649, 1828262, 1828902, 1829526, 1830176, 1830750]","[24, 53, 254, 243, 46, 99, 60, 249, 103, 61, 124, 128, 105, 136, 55, 128, 155, 122, 97, 59, 80, 86, 56]","[1816308, 1816885, 1817546, 1818162, 1819014, 1819599, 1820246, 1820864, 1821457, 1822119, 1822781, 1823469, 1824146, 1824781, 1825474, 1826107, 1826735, 1827385, 1828040, 1828708, 1829363, 1830009, 1830609]","[1815962, 1816561, 1817161, 1817761, 1818361, 1818961, 1819561, 1820162, 1820898, 1821494, 1822154, 1822817, 1823506, 1824182, 1824817, 1825510, 1826143, 1826770, 1827421, 1828075, 1828743, 1829397, 1830043, 1830643]",52,SB,L,R,ITMSR,1.0,
3,600,trial,0,87,87,87,trial,"['S', 'S', 'S', 'S', 'S', 'S', 'S', 'C', 'C', 'C', 'C', 'C', 'C', 'C', 'C', 'C', 'C', 'C', 'C', 'C', 'C', 'C', 'C']","[1836350, 1836991, 1837602, 1838428, 1839129, 1839769, 1840401, 1841036, 1841649, 1842274, 1842881, 1843551, 1844209, 1844851, 1845478, 1846120, 1846770, 1847429, 1848078, 1848698, 1849331, 1849994, 1850647]","[1836459, 1837118, 1837704, 1838562, 1839319, 1839956, 1840592, 1841226, 1841868, 1842509, 1843126, 1843744, 1844431, 1845086, 1845729, 1846351, 1847008, 1847675, 1848320, 1848938, 1849615, 1850262, 1850909]","[47, 69, 19, 143, 93, 48, 40, 127, 136, 101, 102, 116, 132, 118, 131, 134, 131, 140, 121, 95, 111, 158, 78]","[1836353, 1836995, 1837606, 1838431, 1839132, 1839773, 1840473, 1841039, 1841652, 1842277, 1842884, 1843554, 1844212, 1844854, 1845481, 1846123, 1846773, 1847431, 1848081, 1848701, 1849334, 1849996, 1850650]","[1836200, 1836801, 1837401, 1838001, 1838601, 1839201, 1839801, 1840401, 1841077, 1841689, 1842315, 1842922, 1843592, 1844249, 1844891, 1845519, 1846161, 1846810, 1847470, 1848119, 1848738, 1849371, 1850035, 1850688]",52,SB,L,R,ITMSR,1.0,
0,600,trial,0,88,88,88,trial,"['B', 'S', 'S', 'S', 'S', 'S', 'S', 'S', 'C', 'C', 'C', 'C', 'C', 'C', 'C', 'C', 'C', 'C', 'C', 'C', 'C', 'C', 'C', 'C']","[1856263, 1856917, 1857601, 1858151, 1858750, 1859364, 1860045, 1860636, 1861362, 1862006, 1862578, 1863169, 1863788, 1864470, 1865128, 1865819, 1866490, 1867186, 1867950, 1868673, 1869418, 1870168, 1870829, 1871671]","[1856355, 1857089, 1857737, 1858302, 1858909, 1859543, 1860179, 1860873, 1861550, 1862164, 1862801, 1863408, 1864009, 1864704, 1865399, 1866091, 1866793, 1867479, 1868204, 1868924, 1869705, 1870414, 1871104, 1871900]","[133, 6, 4, 94, 122, 109, 80, 73, 76, 61, 95, 97, 66, 19, 47, 114, 89, 80, 85, 63, 102, 105, 111, 90]","[1856291, 1856921, 1857604, 1858155, 1858753, 1859368, 1860048, 1860639, 1861366, 1862010, 1862582, 1863172, 1863792, 1864474, 1865133, 1865823, 1866493, 1867190, 1867953, 1868677, 1869422, 1870171, 1870832, 1871675]","[1856291, 1856890, 1857490, 1858091, 1858691, 1859291, 1859891, 1860491, 1861402, 1862046, 1862619, 1863209, 1863829, 1864511, 1865168, 1865860, 1866530, 1867227, 1867991, 1868713, 1869459, 1870209, 1870870, 1871712]",52,SB,L,R,ITMSR,1.0,
0,600,trial,0,89,89,89,trial,"['S', 'S', 'S', 'S', 'S', 'S', 'S', 'C', 'C', 'C', 'C', 'C', 'C', 'C', 'C', 'C', 'C', 'C', 'C', 'C', 'C', 'C', 'C']","[1877624, 1878272, 1878991, 1879733, 1880396, 1880994, 1881614, 1882281, 1882955, 1883578, 1884189, 1884840, 1885470, 1886148, 1886795, 1887460, 1888131, 1888851, 1889508, 1890119, 1890762, 1891459, 1892057]","[1877785, 1878445, 1879108, 1879849, 1880650, 1881196, 1881831, 1882533, 1883150, 1883841, 1884460, 1885048, 1885709, 1886418, 1887053, 1887741, 1888351, 1889106, 1889739, 1890383, 1891033, 1891718]","[60, 103, 60, 3, 81, 68, 67, 72, 20, 66, 60, 91, 89, 89, 27, 70, 60, 52, 60, 34, 56, 49]","[1877627, 1878275, 1878995, 1879736, 1880399, 1880999, 1881618, 1882286, 1882960, 1883582, 1884193, 1884845, 1885474, 1886152, 1886799, 1887464, 1888216, 1888856, 1889512, 1890122, 1890766, 1891463]","[1877302, 1877902, 1878502, 1879102, 1879702, 1880302, 1880902, 1881502, 1882321, 1882995, 1883619, 1884229, 1884880, 1885510, 1886188, 1886835, 1887501, 1888172, 1888891, 1889549, 1890159, 1890802, 1891500, 1892098]",52,SB,L,R,ITMSR,1.0,
2,400,trial,0,90,90,90,trial,"['B', 'S', 'S', 'S', 'S', 'C', 'C', 'C', 'C', 'C', 'C', 'C', 'C', 'C', 'C', 'C', 'C', 'C', 'C', 'C', 'C']","[1897609, 1898267, 1898991, 1899745, 1900486, 1901294, 1901998, 1902696, 1903348, 1904012, 1904704, 1905411, 1906104, 1906789, 1907508, 1908178, 1908894, 1909555, 1910272, 1910968, 1911650]","[1897723, 1898436, 1899131, 1899883, 1900647, 1901545, 1902226, 1902965, 1903602, 1904253, 1904955, 1905656, 1906343, 1907070, 1907771, 1908452, 1909137, 1909846, 1910526, 1911228, 1911928]","[187, 55, 38, 62, 254, 70, 55, 59, 28, 76, 76, 5, 71, 84, 250, 89, 80, 64, 73, 91, 63]","[1897653, 1898271, 1898995, 1899749, 1900489, 1901298, 1902002, 1902700, 1903352, 1904096, 1904708, 1905415, 1906109, 1906793, 1907512, 1908183, 1908897, 1909558, 1910275, 1910972, 1911654]","[1897637, 1898037, 1898436, 1898836, 1899237, 1899636, 1900037, 1900437, 1901334, 1902039, 1902737, 1903388, 1904053, 1904745, 1905452, 1906145, 1906830, 1907549, 1908218, 1908934, 1909596, 1910312, 1911009, 1911691]",52,SB,L,R,ITMSR,1.0,
