pitch,ioi,event,.thisRepN,.thisTrialN,.thisN,.thisIndex,event,tap_types,tap_times,release_times,peak_pressures,peak_times,tone_times,subject,experimenter,register,handedness,experiment,version,
,,SPR,0,-1,-1,0,SPR,"['P', 'P', 'P', 'P', 'P', 'P', 'P', 'P', 'P', 'P', 'P', 'P', 'P', 'P', 'P', 'P', 'P', 'P', 'P', 'P', 'P', 'P', 'P', 'P', 'P', 'P', 'P', 'P', 'P', 'P']","[31052, 31639, 33305, 33838, 34367, 34883, 35388, 35907, 36393, 36928, 37468, 37984, 38517, 39045, 39593, 40115, 40638, 41172, 41725, 42234, 42745, 43288, 43786, 44299, 44813, 45363, 45885, 46397, 46941, 47488]","[31194, 31713, 33460, 33961, 34494, 35024, 35525, 36017, 36521, 37030, 37551, 38076, 38602, 39131, 39676, 40196, 40715, 41247, 41775, 42320, 42859, 43384, 43901, 44392, 44905, 45455, 45993, 46518, 47015, 47580]","[239, 130, 3, 28, 35, 110, 61, 234, 39, 215, 195, 143, 142, 222, 175, 177, 144, 119, 42, 91, 165, 143, 175, 98, 131, 78, 176, 175, 80, 24]","[31104, 31641, 33370, 33878, 34422, 34929, 35441, 35946, 36441, 36968, 37501, 37989, 38521, 39050, 39600, 40120, 40643, 41180, 41732, 42242, 42780, 43323, 43819, 44331, 44844, 45367, 45919, 46429, 46946, 47493]",,58,SB,L,R,ITMSR,1.0,
5,500,practice,0,0,0,0,practice,"['S', 'S', 'S', 'S', 'S', 'S', 'S', 'C', 'C', 'C', 'C', 'C', 'C', 'C', 'C', 'C', 'C', 'C', 'C', 'C', 'C', 'C', 'C', 'C']","[111416, 111818, 112272, 112772, 113272, 113792, 114260, 114741, 115232, 115703, 116125, 116515, 116908, 117286, 117639, 117974, 118299, 118644, 118971, 119279, 119606, 119907, 120200, 120474]","[111526, 111938, 112397, 112871, 113353, 113861, 114329, 114814, 115308, 115825, 116242, 116637, 117037, 117399, 117738, 118088, 118400, 118750, 119083, 119391, 119690, 120007, 120288]","[38, 103, 107, 83, 60, 217, 216, 3, 7, 40, 16, 72, 33, 214, 254, 242, 254, 213, 230, 244, 224, 32, 4]","[111480, 111822, 112276, 112776, 113276, 113797, 114273, 114747, 115237, 115708, 116130, 116519, 116913, 117326, 117644, 118022, 118304, 118650, 119012, 119332, 119611, 119911, 120204]","[110759, 111259, 111760, 112260, 112759, 113260, 113761, 114260, 114782, 115272, 115743, 116165, 116555, 116948, 117326, 117680, 118014, 118339, 118684, 119012, 119319, 119647, 119948, 120241]",58,SB,L,R,ITMSR,1.0,
3,500,practice,0,1,1,1,practice,"['S', 'S', 'S', 'S', 'S', 'S', 'S', 'C', 'C', 'C', 'C', 'C', 'C', 'C', 'C', 'C', 'C', 'C', 'C', 'C', 'C', 'C', 'C']","[126436, 126971, 127456, 127948, 128459, 128953, 129437, 129943, 130468, 131041, 131635, 132283, 132975, 133679, 134379, 135066, 135727, 136459, 137164, 137889, 138648, 139440, 140204]","[126534, 127060, 127514, 128053, 128542, 129052, 129522, 130026, 130530, 131126, 131694, 132355, 133062, 133739, 134430, 135121, 135780, 136505, 137229, 137956, 138716, 139497, 140266]","[69, 24, 49, 26, 31, 15, 35, 69, 13, 148, 231, 242, 249, 32, 197, 238, 215, 246, 181, 252, 218, 255, 22]","[126465, 126978, 127461, 127952, 128463, 128959, 129442, 129947, 130475, 131048, 131641, 132289, 132980, 133684, 134385, 135071, 135733, 136463, 137170, 137894, 138653, 139445, 140209]","[125935, 126436, 126936, 127435, 127936, 128436, 128935, 129435, 129984, 130508, 131082, 131676, 132324, 133015, 133720, 134420, 135106, 135768, 136500, 137204, 137929, 138689, 139481, 140244]",58,SB,L,R,ITMSR,1.0,
2,500,practice,0,2,2,2,practice,"['S', 'S', 'S', 'S', 'S', 'S', 'S', 'C', 'C', 'C', 'C', 'C', 'C', 'C', 'C', 'C', 'C', 'C', 'C', 'C', 'C', 'C', 'C']","[146486, 147050, 147546, 148024, 148526, 149065, 149552, 150032, 150595, 151219, 151841, 152557, 153282, 154082, 154937, 155836, 156738, 157675, 158673, 159678, 160710, 161807, 162977]","[146565, 147120, 147623, 148118, 148611, 149143, 149635, 150137, 150719, 151336, 152004, 152681, 153441, 154198, 155056, 155962, 156841, 157752, 158761, 159768, 160781, 161896, 163042]","[167, 124, 34, 143, 61, 147, 246, 19, 37, 175, 244, 170, 19, 36, 22, 250, 9, 152, 141, 107, 241, 144, 218]","[146514, 147058, 147554, 148030, 148533, 149071, 149557, 150038, 150600, 151225, 151846, 152563, 153286, 154087, 154942, 155841, 156743, 157681, 158680, 159683, 160716, 161813, 162982]","[146015, 146514, 147014, 147515, 148015, 148514, 149014, 149515, 150073, 150636, 151260, 151881, 152598, 153323, 154123, 154978, 155877, 156779, 157716, 158713, 159719, 160750, 161848, 163017]",58,SB,L,R,ITMSR,1.0,
1,500,practice,0,3,3,3,practice,"['S', 'S', 'S', 'S', 'S', 'S', 'S', 'C', 'C', 'C', 'C', 'C', 'C', 'C', 'C', 'C', 'C', 'C', 'C', 'C', 'C', 'C', 'C']","[168904, 169463, 169945, 170421, 170909, 171430, 171971, 172488, 172999, 173518, 174070, 174663, 175377, 176105, 176839, 177594, 178363, 179160, 179932, 180712, 181495, 182309, 183141]","[169036, 169573, 170052, 170520, 171010, 171538, 172071, 172598, 173090, 173623, 174168, 174787, 175499, 176265, 176999, 177722, 178483, 179283, 180040, 180835, 181591, 182413, 183236]","[184, 185, 198, 214, 191, 233, 89, 211, 168, 5, 246, 254, 242, 124, 255, 117, 163, 127, 54, 190, 144, 144, 188]","[168934, 169469, 169951, 170426, 170914, 171437, 172000, 172494, 173005, 173523, 174075, 174668, 175382, 176112, 176844, 177646, 178370, 179167, 179972, 180718, 181501, 182317, 183147]","[168494, 168993, 169493, 169994, 170493, 170993, 171494, 171994, 172527, 173038, 173557, 174109, 174702, 175417, 176145, 176878, 177634, 178403, 179200, 179972, 180752, 181534, 182348, 183181]",58,SB,L,R,ITMSR,1.0,
0,500,practice,0,4,4,4,practice,"['S', 'S', 'S', 'S', 'S', 'S', 'S', 'C', 'C', 'C', 'C', 'C', 'C', 'C', 'C', 'C', 'C', 'C', 'C', 'C', 'C', 'C', 'C']","[189315, 189883, 190439, 190941, 191415, 191938, 192439, 192939, 193463, 193991, 194497, 195025, 195561, 196077, 196566, 197039, 197460, 197844, 198309, 198820, 199408, 199939, 200494]","[189401, 189953, 190499, 191036, 191513, 192024, 192514, 193037, 193552, 194091, 194606, 195103, 195674, 196183, 196670, 197144, 197582, 197956, 198381, 198913, 199448, 200037, 200594]","[212, 249, 44, 132, 79, 76, 13, 25, 9, 92, 191, 147, 156, 229, 223, 220, 234, 186, 126, 213, 49, 132, 149]","[189342, 189891, 190452, 190948, 191444, 191947, 192444, 192946, 193470, 193998, 194503, 195031, 195567, 196082, 196572, 197045, 197467, 197851, 198315, 198825, 199414, 199944, 200500]","[188939, 189438, 189938, 190439, 190939, 191438, 191938, 192439, 192979, 193504, 194031, 194538, 195065, 195602, 196118, 196606, 197080, 197500, 197884, 198349, 198860, 199448, 199980, 200535]",58,SB,L,R,ITMSR,1.0,
4,500,practice,0,5,5,5,practice,"['S', 'S', 'S', 'S', 'S', 'S', 'S', 'C', 'C', 'C', 'C', 'C', 'C', 'C', 'C', 'C', 'C', 'C', 'C', 'C', 'C', 'C', 'C']","[206518, 207136, 207669, 208167, 208702, 209178, 209666, 210111, 210624, 211130, 211640, 212151, 212677, 213160, 213600, 214017, 214448, 214858, 215236, 215589, 215940, 216336, 216724]","[206594, 207248, 207783, 208280, 208759, 209271, 209795, 210276, 210772, 211268, 211793, 212284, 212806, 213299, 213762, 214170, 214572, 214972, 215352, 215729, 216065, 216443, 216845]","[56, 73, 187, 195, 24, 196, 179, 48, 234, 220, 53, 31, 226, 0, 39, 51, 235, 186, 4, 205, 216, 68, 119]","[206523, 207166, 207675, 208174, 208709, 209183, 209710, 210115, 210629, 211135, 211645, 212156, 212682, 213166, 213605, 214021, 214453, 214864, 215286, 215595, 215945, 216343, 216729]","[206167, 206665, 207166, 207666, 208165, 208665, 209166, 209666, 210150, 210663, 211169, 211679, 212190, 212715, 213198, 213639, 214055, 214487, 214896, 215274, 215627, 215979, 216375, 216763]",58,SB,L,R,ITMSR,1.0,
4,600,trial,0,6,6,6,trial,"['S', 'S', 'S', 'S', 'S', 'S', 'S', 'S', 'C', 'C', 'C', 'C', 'C', 'C', 'C', 'C', 'C', 'C', 'C', 'C', 'C', 'C', 'C', 'C']","[251528, 251978, 252532, 253131, 253727, 254318, 254927, 255538, 256145, 256922, 257743, 258592, 259507, 260500, 261479, 262477, 263544, 264607, 265712, 266773, 267819, 268950, 270097, 271289]","[251606, 252088, 252624, 253203, 253792, 254380, 254994, 255620, 256205, 257005, 257842, 258644, 259594, 260576, 261557, 262532, 263600, 264665, 265764, 266838, 267904, 269033, 270202, 271361]","[84, 37, 65, 34, 233, 22, 38, 35, 172, 208, 222, 148, 67, 250, 31, 70, 218, 236, 134, 118, 186, 152, 255, 214]","[251565, 251984, 252535, 253136, 253734, 254324, 254932, 255544, 256151, 256927, 257748, 258598, 259512, 260505, 261484, 262481, 263548, 264613, 265717, 266779, 267825, 268955, 270102, 271295]","[251256, 251855, 252455, 253056, 253656, 254256, 254856, 255456, 256184, 256960, 257781, 258630, 259546, 260539, 261518, 262515, 263582, 264645, 265750, 266812, 267857, 268989, 270136, 271328]",58,SB,L,R,ITMSR,1.0,
2,400,trial,0,7,7,7,trial,"['S', 'S', 'S', 'S', 'S', 'S', 'S', 'C', 'C', 'C', 'C', 'C', 'C', 'C', 'C', 'C', 'C', 'C', 'C', 'C', 'C', 'C', 'C', 'C', 'C', 'C']","[277195, 277640, 277978, 278389, 278760, 279148, 279576, 279950, 280308, 280628, 280940, 281248, 281536, 281812, 282139, 282473, 282781, 283069, 283340, 283816, 284096, 284654, 285467, 286290, 287106, 287946]","[277295, 277730, 278075, 278482, 278864, 279266, 279701, 280071, 280422, 280744, 281070, 281368, 281636, 281901, 282184, 282574, 282887, 283148, 283449, 283916, 284191, 284797, 285599, 286413, 287220, 288040]","[181, 160, 49, 52, 104, 123, 100, 81, 48, 73, 57, 52, 69, 106, 107, 125, 102, 110, 97, 63, 216, 92, 77, 42, 54, 249]","[277199, 277647, 277984, 278394, 278764, 279152, 279580, 279954, 280313, 280632, 280945, 281253, 281540, 281817, 282144, 282477, 282786, 283073, 283344, 283821, 284101, 284715, 285472, 286296, 287111, 287951]","[276824, 277223, 277622, 278023, 278422, 278822, 279223, 279622, 279991, 280348, 280669, 280981, 281288, 281577, 282179, 282514, 282821, 283110, 283856, 284694, 285507, 286330, 287147, 287986]",58,SB,L,R,ITMSR,1.0,
2,600,trial,0,8,8,8,trial,"['S', 'S', 'S', 'S', 'S', 'S', 'S', 'S', 'C', 'C', 'C', 'C', 'C', 'C', 'C', 'C', 'C', 'C', 'C', 'C', 'C', 'C', 'C', 'C']","[293937, 294421, 294868, 295437, 296013, 296606, 297191, 297788, 298442, 299063, 299753, 300493, 301272, 302064, 302842, 303590, 304359, 305161, 305986, 306805, 307706, 308591, 309542, 310532]","[294013, 294529, 294982, 295544, 296100, 296706, 297279, 297897, 298522, 299153, 299848, 300609, 301369, 302161, 302925, 303676, 304452, 305242, 306086, 306894, 307791, 308675, 309647, 310627]","[2, 60, 86, 76, 102, 61, 15, 252, 159, 239, 203, 180, 127, 68, 23, 225, 67, 113, 105, 165, 202, 168, 157, 248]","[293976, 294424, 294897, 295442, 296017, 296611, 297197, 297794, 298448, 299068, 299759, 300500, 301279, 302071, 302850, 303595, 304366, 305167, 305992, 306812, 307713, 308594, 309549, 310539]","[293669, 294268, 294868, 295469, 296069, 296669, 297269, 297869, 298482, 299104, 299794, 300533, 301313, 302104, 302882, 303631, 304400, 305202, 306027, 306845, 307746, 308631, 309582, 310573]",58,SB,L,R,ITMSR,1.0,
0,400,trial,0,9,9,9,trial,"['S', 'S', 'S', 'S', 'S', 'S', 'S', 'C', 'C', 'C', 'C', 'C', 'C', 'C', 'C', 'C', 'C', 'C', 'C', 'C', 'C', 'C', 'C', 'C', 'C', 'C', 'C', 'C']","[316612, 316963, 317371, 317777, 318184, 318599, 319028, 319436, 319800, 320058, 320569, 320891, 321201, 321507, 321778, 322501, 322736, 323436, 323753, 324030, 324558, 325448, 326178, 326414, 326978, 327773, 329401, 331048]","[316699, 317066, 317474, 317878, 318283, 318686, 319109, 319516, 319872, 320136, 320647, 320967, 321287, 321595, 321876, 322582, 322819, 323530, 323850, 324131, 324696, 325571, 326282, 326497, 327074, 327841, 329484, 331105]","[171, 128, 233, 109, 87, 69, 60, 27, 38, 20, 48, 32, 117, 110, 231, 191, 221, 33, 36, 252, 34, 106, 40, 181, 7, 208, 40, 74]","[316652, 316967, 317419, 317782, 318188, 318602, 319033, 319441, 319804, 320063, 320574, 320900, 321208, 321514, 321784, 322507, 322742, 323440, 323759, 324036, 324562, 325453, 326183, 326456, 326983, 327778, 329406, 331055]","[316378, 316777, 317176, 317577, 317976, 318376, 318777, 319176, 319476, 319841, 320610, 320931, 321242, 321548, 322541, 323477, 323793, 324598, 325488, 326218, 327019, 327814, 329442, 331088]",58,SB,L,R,ITMSR,1.0,
2,600,trial,0,10,10,10,trial,"['S', 'S', 'S', 'S', 'S', 'S', 'S', 'S', 'C', 'C', 'C', 'C', 'C', 'C', 'C', 'C', 'C', 'C', 'C', 'C', 'C', 'C', 'C', 'C']","[336771, 337332, 337894, 338451, 339075, 339653, 340269, 340900, 341453, 342289, 343195, 344169, 345150, 346074, 347137, 348294, 349483, 350758, 352088, 353480, 354961, 356408, 357904, 359328]","[336836, 337390, 337945, 338513, 339138, 339705, 340310, 340942, 341509, 342340, 343260, 344221, 345220, 346169, 347214, 348357, 349566, 350823, 352155, 353558, 355040, 356465, 357981, 359394]","[19, 41, 51, 88, 105, 66, 222, 20, 192, 159, 218, 154, 203, 47, 235, 21, 217, 192, 29, 184, 114, 90, 182, 230]","[336800, 337336, 337900, 338454, 339080, 339658, 340274, 340905, 341460, 342295, 343201, 344174, 345155, 346116, 347143, 348302, 349487, 350765, 352093, 353485, 354966, 356414, 357910, 359333]","[336569, 337168, 337768, 338368, 338967, 339567, 340167, 340767, 341493, 342330, 343235, 344210, 345191, 346115, 347177, 348335, 349523, 350798, 352129, 353520, 355002, 356449, 357945, 359368]",58,SB,L,R,ITMSR,1.0,
4,400,trial,0,11,11,11,trial,"['S', 'S', 'S', 'S', 'S', 'S', 'S', 'C', 'C', 'C', 'C', 'C', 'C', 'C', 'C', 'C', 'C', 'C', 'C', 'C', 'C', 'C', 'C', 'C']","[365185, 365577, 365938, 366351, 366785, 367190, 367553, 368004, 368339, 368593, 368996, 369509, 370025, 370485, 370964, 371434, 371875, 372272, 372634, 372963, 373302, 373634, 373975, 374305]","[365267, 365659, 366026, 366462, 366882, 367295, 367647, 368102, 368440, 368683, 369082, 369616, 370088, 370592, 371081, 371537, 371986, 372381, 372754, 373089, 373413, 373757, 374087, 374420]","[12, 34, 111, 122, 119, 80, 79, 66, 18, 24, 17, 13, 225, 52, 51, 31, 1, 40, 36, 32, 45, 57, 50, 61]","[365227, 365582, 365941, 366355, 366790, 367195, 367558, 368008, 368345, 368598, 369001, 369514, 370030, 370490, 370969, 371440, 371880, 372277, 372638, 372969, 373307, 373639, 373980, 374309]","[364918, 365318, 365717, 366117, 366518, 366917, 367318, 367718, 368043, 368377, 369035, 369548, 370064, 370524, 371003, 371473, 371913, 372311, 372672, 373002, 373341, 373672, 374013, 374343]",58,SB,L,R,ITMSR,1.0,
0,600,trial,0,12,12,12,trial,"['S', 'S', 'S', 'S', 'S', 'S', 'S', 'S', 'C', 'C', 'C', 'C', 'C', 'C', 'C', 'C', 'C', 'C', 'C', 'C', 'C', 'C', 'C', 'C', 'C']","[380225, 380632, 381168, 381770, 382366, 382997, 383565, 384198, 384837, 385428, 386003, 386552, 387117, 387671, 388178, 388628, 389074, 389463, 389810, 390113, 390428, 390713, 391742, 393537, 395453]","[380293, 380720, 381273, 381887, 382497, 383138, 383726, 384320, 384949, 385529, 386114, 386674, 387169, 387749, 388293, 388737, 389139, 389545, 389900, 390209, 390522, 390799, 391792, 393579, 395531]","[58, 28, 78, 102, 144, 111, 85, 68, 166, 244, 151, 134, 74, 85, 129, 223, 149, 105, 146, 189, 200, 222, 203, 35, 67]","[380258, 380644, 381173, 381775, 382369, 383001, 383570, 384202, 384843, 385433, 386009, 386558, 387121, 387677, 388185, 388634, 389080, 389466, 389816, 390118, 390432, 390718, 391746, 393542, 395458]","[380032, 380632, 381232, 381832, 382432, 383032, 383632, 384232, 384877, 385469, 386043, 386592, 387158, 387712, 388218, 388669, 389114, 389504, 389851, 390154, 390468, 391783, 393578, 395494]",58,SB,L,R,ITMSR,1.0,
1,600,trial,0,13,13,13,trial,"['S', 'S', 'S', 'S', 'S', 'S', 'S', 'S', 'C', 'C', 'C', 'C', 'C', 'C', 'C', 'C', 'C', 'C', 'C', 'C', 'C', 'C', 'C', 'C']","[401247, 401755, 402220, 402807, 403390, 404012, 404615, 405187, 405810, 406412, 407023, 407615, 408246, 408822, 409407, 410042, 410643, 411238, 411834, 412469, 413092, 413671, 414278, 414891]","[401336, 401844, 402329, 402931, 403514, 404110, 404674, 405275, 405895, 406500, 407124, 407709, 408333, 408920, 409496, 410118, 410735, 411341, 411932, 412569, 413192, 413783, 414346, 414963]","[231, 24, 198, 12, 33, 238, 207, 193, 205, 224, 6, 255, 206, 214, 247, 200, 2, 240, 229, 6, 18, 67, 217, 168]","[401253, 401761, 402226, 402812, 403396, 404018, 404621, 405192, 405816, 406418, 407028, 407620, 408251, 408827, 409412, 410048, 410648, 411243, 411839, 412473, 413097, 413675, 414283, 414897]","[401061, 401661, 402262, 402862, 403462, 404062, 404662, 405262, 405850, 406452, 407062, 407655, 408286, 408861, 409447, 410082, 410683, 411278, 411874, 412509, 413131, 413711, 414317, 414930]",58,SB,L,R,ITMSR,1.0,
1,400,trial,0,14,14,14,trial,"['S', 'S', 'S', 'S', 'S', 'S', 'S', 'C', 'C', 'C', 'C', 'C', 'C', 'C', 'C', 'C', 'C', 'C', 'C', 'C', 'C', 'C', 'C', 'C', 'C']","[420681, 421138, 421508, 421914, 422307, 422707, 423089, 423493, 423857, 424133, 424611, 424890, 425354, 426074, 426696, 427192, 427650, 428080, 428463, 428835, 429192, 429521, 429828, 430166, 430491]","[420763, 421228, 421609, 422010, 422386, 422777, 423183, 423600, 423961, 424219, 424694, 424992, 425461, 426161, 426789, 427309, 427743, 428164, 428541, 428922, 429270, 429622, 429917, 430231, 430569]","[66, 12, 21, 35, 8, 255, 22, 53, 57, 221, 13, 33, 31, 241, 8, 3, 250, 243, 211, 196, 191, 241, 162, 186, 165]","[420725, 421143, 421514, 421918, 422312, 422711, 423094, 423498, 423862, 424138, 424615, 424895, 425358, 426079, 426701, 427197, 427656, 428085, 428468, 428840, 429198, 429527, 429834, 430171, 430497]","[420459, 420859, 421260, 421659, 422060, 422460, 422859, 423260, 423532, 423897, 424650, 425394, 426114, 426735, 427232, 427689, 428120, 428503, 428874, 429232, 429560, 429868, 430205, 430530]",58,SB,L,R,ITMSR,1.0,
0,400,trial,0,15,15,15,trial,"['S', 'S', 'S', 'S', 'S', 'S', 'S', 'C', 'C', 'C', 'C', 'C', 'C', 'C', 'C', 'C', 'C', 'C', 'C', 'C', 'C', 'C', 'C', 'C', 'C', 'C']","[436378, 436784, 437184, 437564, 437985, 438391, 438802, 439186, 439492, 439750, 440220, 440695, 441066, 441315, 441684, 442028, 442357, 442655, 442939, 443646, 444042, 444385, 444813, 445318, 445784, 446265]","[436462, 436875, 437268, 437652, 438070, 438480, 438887, 439276, 439563, 439839, 440305, 440784, 441159, 441394, 441754, 442131, 442469, 442774, 443051, 443757, 444157, 444482, 444903, 445359, 445852, 446338]","[18, 36, 57, 121, 161, 112, 104, 104, 29, 61, 78, 42, 48, 219, 23, 6, 178, 9, 239, 245, 227, 204, 57, 101, 198, 36]","[436420, 436789, 437189, 437568, 437988, 438395, 438806, 439190, 439497, 439754, 440224, 440699, 441071, 441321, 441690, 442034, 442362, 442660, 442944, 443652, 444047, 444390, 444817, 445323, 445790, 446270]","[436140, 436539, 436938, 437339, 437739, 438138, 438539, 438938, 439227, 439532, 440260, 440735, 441107, 441724, 442068, 442397, 442695, 443686, 444083, 444426, 444854, 445359, 445825, 446306]",58,SB,L,R,ITMSR,1.0,
5,400,trial,0,16,16,16,trial,"['S', 'S', 'S', 'S', 'S', 'S', 'S', 'C', 'C', 'C', 'C', 'C', 'C', 'C', 'C', 'C', 'C', 'C', 'C', 'C', 'C', 'C', 'C', 'C']","[452009, 452403, 452814, 453252, 453635, 453999, 454378, 454758, 455106, 455408, 455714, 455995, 456615, 457192, 457798, 458435, 459113, 459784, 460520, 461260, 461968, 462735, 463516, 464363]","[452069, 452505, 452905, 453324, 453712, 454106, 454468, 454835, 455199, 455480, 455784, 456088, 456707, 457282, 457840, 458491, 459171, 459825, 460564, 461330, 462039, 462814, 463600, 464437]","[213, 23, 0, 154, 178, 14, 226, 228, 19, 252, 214, 41, 183, 243, 170, 246, 64, 203, 112, 116, 74, 214, 153, 109]","[452036, 452408, 452819, 453258, 453642, 454004, 454383, 454763, 455111, 455413, 455719, 456000, 456620, 457198, 457803, 458441, 459119, 459790, 460526, 461266, 461975, 462741, 463523, 464369]","[451705, 452106, 452505, 452905, 453306, 453705, 454106, 454506, 454799, 455147, 455448, 455754, 456655, 457233, 457838, 458476, 459154, 459825, 460561, 461300, 462009, 462776, 463556, 464404]",58,SB,L,R,ITMSR,1.0,
3,400,trial,0,17,17,17,trial,"['S', 'S', 'S', 'S', 'S', 'S', 'S', 'C', 'C', 'C', 'C', 'C', 'C', 'C', 'C', 'C', 'C', 'C', 'C', 'C', 'C', 'C', 'C', 'C', 'C']","[470016, 470383, 470811, 471214, 471657, 472043, 472450, 472846, 473205, 473484, 473997, 474344, 474674, 475018, 475386, 475695, 476040, 476383, 476695, 477001, 477300, 477587, 477862, 478522, 478875]","[470086, 470469, 470885, 471303, 471747, 472120, 472545, 472947, 473284, 473591, 474087, 474450, 474782, 475137, 475495, 475831, 476146, 476488, 476797, 477117, 477411, 477694, 477969, 478586, 478978]","[1, 216, 8, 243, 237, 230, 20, 236, 224, 43, 87, 208, 157, 130, 104, 40, 81, 158, 98, 136, 117, 124, 115, 237, 40]","[470051, 470389, 470815, 471219, 471662, 472048, 472456, 472889, 473210, 473489, 474004, 474350, 474680, 475025, 475394, 475700, 476046, 476389, 476702, 477007, 477307, 477592, 477869, 478528, 478881]","[469799, 470200, 470599, 471000, 471400, 471799, 472200, 472599, 472887, 473245, 474038, 474385, 474715, 475059, 475426, 475736, 476081, 476424, 476736, 477041, 477340, 477628, 478563, 478915]",58,SB,L,R,ITMSR,1.0,
1,600,trial,0,18,18,18,trial,"['S', 'S', 'S', 'S', 'S', 'S', 'S', 'S', 'C', 'C', 'C', 'C', 'C', 'C', 'C', 'C', 'C', 'C', 'C', 'C', 'C', 'C', 'C', 'C', 'C']","[484435, 484996, 485447, 486047, 486597, 487194, 487780, 488397, 488993, 489551, 490087, 490553, 490962, 491319, 491627, 491934, 492290, 492600, 492906, 493223, 493524, 493816, 494091, 494979, 496125]","[484511, 485089, 485564, 486136, 486717, 487319, 487860, 488482, 489061, 489661, 490179, 490670, 491090, 491426, 491734, 492052, 492397, 492712, 493009, 493330, 493641, 493943, 494184, 495080, 496189]","[45, 91, 70, 189, 0, 40, 100, 228, 85, 211, 143, 209, 193, 195, 172, 254, 247, 243, 245, 1, 23, 236, 245, 125, 103]","[484471, 485028, 485485, 486073, 486603, 487199, 487785, 488403, 488998, 489556, 490092, 490558, 490969, 491325, 491633, 491940, 492295, 492606, 492912, 493229, 493530, 493822, 494097, 494985, 496130]","[484247, 484847, 485447, 486047, 486647, 487247, 487847, 488448, 489032, 489590, 490127, 490593, 491001, 491359, 491667, 491973, 492329, 492640, 492946, 493262, 493563, 493855, 495019, 496164]",58,SB,L,R,ITMSR,1.0,
5,400,trial,0,19,19,19,trial,"['S', 'S', 'S', 'S', 'S', 'S', 'S', 'C', 'C', 'C', 'C', 'C', 'C', 'C', 'C', 'C', 'C', 'C', 'C', 'C', 'C', 'C', 'C', 'C']","[501898, 502305, 502731, 503179, 503643, 504064, 504484, 504900, 505294, 505667, 506077, 506452, 506820, 507208, 507612, 508013, 508412, 508760, 509095, 509387, 509713, 510012, 510281, 511429]","[501989, 502389, 502814, 503286, 503726, 504171, 504607, 504991, 505416, 505767, 506173, 506566, 506939, 507307, 507708, 508086, 508484, 508848, 509186, 509490, 509792, 510100, 510374, 511502]","[158, 207, 213, 226, 244, 70, 28, 218, 41, 187, 113, 157, 218, 176, 220, 188, 222, 38, 222, 14, 172, 237, 245, 2]","[501949, 502311, 502737, 503185, 503648, 504068, 504489, 504906, 505337, 505673, 506084, 506498, 506826, 507214, 507617, 508017, 508417, 508765, 509102, 509392, 509718, 510017, 510285, 511434]","[501726, 502125, 502525, 502926, 503325, 503726, 504126, 504525, 504940, 505334, 505708, 506118, 506492, 506860, 507248, 507653, 508054, 508452, 508801, 509135, 509427, 509754, 510053, 511469]",58,SB,L,R,ITMSR,1.0,
4,600,trial,0,20,20,20,trial,"['S', 'S', 'S', 'S', 'S', 'S', 'S', 'S', 'C', 'C', 'C', 'C', 'C', 'C', 'C', 'C', 'C', 'C', 'C', 'C', 'C', 'C', 'C', 'C']","[517364, 517931, 518459, 519011, 519604, 520194, 520844, 521435, 522039, 522712, 523467, 524231, 525101, 525988, 526853, 527813, 528835, 529866, 530960, 532129, 533248, 534406, 535603, 536705]","[517430, 517996, 518529, 519113, 519681, 520244, 520905, 521512, 522117, 522779, 523545, 524311, 525175, 526071, 526912, 527866, 528921, 529943, 531027, 532192, 533331, 534492, 535675, 536781]","[68, 254, 235, 235, 166, 220, 212, 152, 223, 220, 255, 196, 117, 165, 51, 72, 162, 67, 78, 205, 167, 152, 131, 92]","[517396, 517960, 518465, 519018, 519611, 520194, 520850, 521440, 522044, 522718, 523473, 524236, 525107, 525995, 526858, 527817, 528840, 529871, 530965, 532134, 533253, 534412, 535607, 536711]","[517194, 517793, 518393, 518993, 519593, 520194, 520794, 521394, 522078, 522750, 523505, 524269, 525139, 526026, 526892, 527851, 528874, 529904, 530999, 532167, 533286, 534445, 535642, 536743]",58,SB,L,R,ITMSR,1.0,
0,600,trial,0,21,21,21,trial,"['S', 'S', 'S', 'S', 'S', 'S', 'S', 'S', 'C', 'C', 'C', 'C', 'C', 'C', 'C', 'C', 'C', 'C', 'C', 'C', 'C', 'C', 'C', 'C', 'C']","[542496, 542992, 543399, 543964, 544565, 545162, 545760, 546341, 546896, 547374, 547787, 548162, 548491, 548792, 549086, 549399, 549692, 549974, 551021, 552338, 553729, 555015, 556308, 557591, 558886]","[542563, 543087, 543522, 544083, 544695, 545288, 545866, 546451, 547004, 547468, 547892, 548257, 548604, 548908, 549178, 549491, 549801, 550077, 551069, 552432, 553779, 555074, 556408, 557666, 558942]","[72, 228, 29, 92, 238, 27, 170, 218, 217, 155, 253, 10, 11, 234, 178, 218, 188, 214, 90, 247, 132, 34, 198, 221, 106]","[542503, 542998, 543437, 543968, 544570, 545168, 545765, 546345, 546902, 547379, 547792, 548167, 548496, 548797, 549091, 549404, 549696, 549979, 551025, 552343, 553734, 555022, 556313, 557595, 558892]","[542223, 542823, 543423, 544022, 544622, 545222, 545822, 546422, 546936, 547415, 547827, 548203, 548532, 548833, 549127, 549440, 549733, 551062, 552379, 553769, 555056, 556349, 557632, 558926]",58,SB,L,R,ITMSR,1.0,
3,600,trial,0,22,22,22,trial,"['S', 'S', 'S', 'S', 'S', 'S', 'S', 'S', 'C', 'C', 'C', 'C', 'C', 'C', 'C', 'C', 'C', 'C', 'C', 'C', 'C', 'C', 'C', 'C']","[564942, 565406, 565925, 566483, 567116, 567716, 568338, 568973, 569541, 570170, 570802, 571425, 572090, 572854, 573703, 574570, 575488, 576490, 577575, 578737, 579871, 580940, 582055, 583176]","[565028, 565502, 565984, 566579, 567216, 567833, 568444, 569070, 569637, 570309, 570897, 571536, 572211, 572940, 573808, 574641, 575581, 576565, 577658, 578799, 579911, 581025, 582116, 583258]","[21, 88, 162, 20, 24, 69, 123, 25, 208, 12, 161, 252, 21, 181, 235, 174, 223, 156, 190, 139, 206, 241, 130, 235]","[564979, 565411, 565932, 566489, 567142, 567755, 568341, 568977, 569546, 570175, 570809, 571430, 572095, 572859, 573708, 574575, 575493, 576495, 577582, 578742, 579876, 580945, 582061, 583181]","[564716, 565316, 565916, 566516, 567116, 567716, 568316, 568916, 569581, 570211, 570843, 571465, 572131, 572895, 573744, 574611, 575528, 576531, 577615, 578778, 579911, 580980, 582095, 583217]",58,SB,L,R,ITMSR,1.0,
3,600,trial,0,23,23,23,trial,"['S', 'S', 'S', 'S', 'S', 'S', 'S', 'S', 'C', 'C', 'C', 'C', 'C', 'C', 'C', 'C', 'C', 'C', 'C', 'C', 'C', 'C', 'C', 'C', 'C']","[588820, 589323, 589819, 590398, 590998, 591617, 592215, 592757, 593300, 593746, 594180, 594561, 594897, 595188, 595506, 595803, 596100, 596371, 608303, 608937, 609455, 609891, 610249, 610580, 610899]","[588880, 589400, 589908, 590466, 591080, 591698, 592294, 592846, 593389, 593857, 594262, 594643, 594985, 595287, 595601, 595900, 596203, 596457, 608353, 609048, 609575, 610023, 610372, 610694, 611010]","[110, 197, 94, 203, 32, 236, 207, 211, 233, 10, 218, 229, 1, 0, 11, 15, 39, 32, 163, 31, 244, 246, 11, 184, 206]","[588827, 589329, 589826, 590400, 590998, 591623, 592222, 592764, 593305, 593754, 594187, 594567, 594903, 595192, 595511, 595808, 596105, 596376, 608321, 608983, 609498, 609932, 610298, 610640, 610906]","[588599, 589198, 589798, 590398, 590998, 591598, 592198, 592798, 593341, 593786, 594221, 594601, 594937, 595228, 595547, 595844, 596141, 608344, 608977, 609496, 609932, 610289, 610621, 610939]",58,SB,L,R,ITMSR,1.0,
5,600,trial,0,24,24,24,trial,"['S', 'S', 'S', 'S', 'S', 'S', 'S', 'C', 'C', 'C', 'C', 'C', 'C', 'C', 'C', 'C', 'C', 'C', 'C', 'C', 'C', 'C', 'C']","[616771, 617421, 618093, 618806, 619433, 620089, 620680, 621302, 622083, 622879, 623695, 624475, 625302, 626231, 627131, 628038, 628959, 629859, 630795, 631700, 632668, 633665, 634645]","[616890, 617499, 618157, 618856, 619532, 620169, 620767, 621398, 622163, 622944, 623771, 624570, 625404, 626310, 627217, 628108, 629010, 629927, 630889, 631784, 632742, 633747, 634722]","[215, 8, 189, 31, 167, 90, 111, 245, 94, 114, 160, 222, 204, 136, 184, 144, 144, 210, 147, 216, 200, 45, 238]","[616820, 617426, 618097, 618811, 619439, 620097, 620686, 621309, 622088, 622882, 623702, 624516, 625307, 626238, 627137, 628045, 628965, 629866, 630802, 631708, 632676, 633670, 634649]","[616382, 616982, 617582, 618182, 618782, 619382, 619982, 620582, 621342, 622124, 622919, 623735, 624516, 625343, 626272, 627172, 628078, 629000, 629900, 630836, 631741, 632709, 633706, 634686]",58,SB,L,R,ITMSR,1.0,
1,400,trial,0,25,25,25,trial,"['S', 'S', 'S', 'S', 'S', 'S', 'S', 'C', 'C', 'C', 'C', 'C', 'C', 'C', 'C', 'C', 'C', 'C', 'C', 'C', 'C', 'C', 'C', 'C']","[640657, 641057, 641425, 641836, 642242, 642629, 643076, 643482, 643860, 644214, 644571, 644920, 645242, 645561, 645840, 647712, 648152, 648622, 649142, 649667, 650140, 650592, 651043, 651544]","[640741, 641153, 641541, 641913, 642341, 642742, 643180, 643589, 643955, 644313, 644660, 644996, 645325, 645626, 645919, 647814, 648255, 648709, 649226, 649759, 650274, 650737, 651157, 651649]","[161, 201, 23, 106, 101, 155, 114, 56, 53, 44, 245, 7, 80, 49, 68, 38, 65, 31, 4, 39, 74, 20, 247, 68]","[640696, 641063, 641430, 641841, 642246, 642632, 643080, 643486, 643865, 644218, 644576, 644925, 645246, 645566, 645844, 647716, 648157, 648627, 649147, 649672, 650144, 650596, 651048, 651549]","[640340, 640741, 641140, 641541, 641941, 642341, 642742, 643141, 643521, 643900, 644253, 644611, 644960, 645281, 645601, 647751, 648192, 648662, 649182, 649707, 650179, 650632, 651082, 651584]",58,SB,L,R,ITMSR,1.0,
4,400,trial,0,26,26,26,trial,"['S', 'S', 'S', 'S', 'S', 'S', 'S', 'C', 'C', 'C', 'C', 'C', 'C', 'C', 'C', 'C', 'C', 'C', 'C', 'C', 'C', 'C', 'C', 'C', 'C', 'C', 'C', 'C']","[657485, 657853, 658198, 658621, 659010, 659388, 659756, 660164, 660510, 660810, 661091, 661557, 661977, 662427, 662847, 663067, 663303, 664014, 664454, 665041, 665303, 665677, 666557, 667056, 667286, 667489, 667966, 668199]","[657603, 657957, 658317, 658733, 659134, 659510, 659886, 660279, 660600, 660914, 661183, 661639, 662075, 662487, 662922, 663124, 663394, 664132, 664563, 665126, 665396, 665791, 666667, 667122, 667380, 667591, 668057]","[15, 41, 68, 69, 94, 83, 108, 69, 3, 21, 20, 203, 251, 141, 185, 223, 236, 71, 30, 15, 212, 17, 84, 149, 139, 219, 9]","[657533, 657858, 658202, 658625, 659015, 659393, 659760, 660169, 660515, 660815, 661096, 661596, 661982, 662433, 662854, 663073, 663357, 664019, 664493, 665047, 665337, 665683, 666597, 667064, 667293, 667493, 667972]","[657087, 657485, 657886, 658285, 658685, 659086, 659485, 659886, 660202, 660548, 660848, 661596, 662016, 662465, 662886, 663342, 664052, 664493, 665079, 665715, 666596, 667095, 667528, 668005]",58,SB,L,R,ITMSR,1.0,
5,600,trial,0,27,27,27,trial,"['S', 'S', 'S', 'S', 'S', 'S', 'S', 'S', 'C', 'C', 'C', 'C', 'C', 'C', 'C', 'C', 'C', 'C', 'C', 'C', 'C', 'C', 'C', 'C']","[673932, 674490, 675035, 675590, 676139, 676706, 677266, 677875, 678446, 679097, 679733, 680382, 681011, 681691, 682320, 682956, 683700, 684406, 685159, 685977, 686795, 687714, 688648, 689571]","[674013, 674581, 675150, 675687, 676219, 676829, 677376, 677994, 678563, 679197, 679849, 680492, 681117, 681803, 682437, 683055, 683829, 684530, 685251, 686105, 686902, 687776, 688755, 689672]","[200, 39, 216, 208, 153, 226, 231, 196, 214, 201, 1, 214, 182, 208, 107, 77, 95, 23, 190, 88, 74, 64, 99, 45]","[673965, 674494, 675040, 675594, 676173, 676710, 677271, 677912, 678487, 679102, 679738, 680388, 681015, 681697, 682327, 682962, 683706, 684413, 685164, 686018, 686801, 687719, 688689, 689580]","[673702, 674302, 674903, 675503, 676103, 676703, 677303, 677903, 678487, 679138, 679774, 680423, 681052, 681732, 682360, 682996, 683741, 684446, 685200, 686017, 686835, 687755, 688689, 689611]",58,SB,L,R,ITMSR,1.0,
2,400,trial,0,28,28,28,trial,"['S', 'S', 'S', 'S', 'S', 'S', 'S', 'C', 'C', 'C', 'C', 'C', 'C', 'C', 'C', 'C', 'C', 'C', 'C', 'C', 'C', 'C', 'C', 'C', 'C', 'C', 'C']","[695343, 695727, 696116, 696544, 696924, 697328, 697737, 698118, 698429, 698699, 699096, 699516, 699888, 700112, 700566, 701029, 701459, 701845, 702270, 702969, 703373, 703790, 704024, 704650, 705041, 705435, 705674]","[695416, 695852, 696252, 696656, 697052, 697452, 697829, 698236, 698537, 698798, 699219, 699607, 699976, 700200, 700672, 701106, 701552, 701934, 702395, 703041, 703462, 703862, 704121, 704772, 705121, 705528]","[89, 188, 224, 221, 226, 205, 217, 23, 12, 8, 61, 138, 75, 86, 189, 2, 10, 91, 121, 250, 46, 90, 61, 134, 19, 91]","[695376, 695762, 696169, 696576, 696930, 697333, 697743, 698123, 698434, 698745, 699101, 699523, 699895, 700143, 700572, 701036, 701468, 701886, 702328, 702977, 703381, 703831, 704056, 704704, 705047, 705480]","[695053, 695451, 695852, 696252, 696651, 697052, 697452, 697852, 698159, 698470, 699137, 699556, 699928, 700607, 701070, 701500, 701886, 702311, 703009, 703414, 703831, 704691, 705082, 705475]",58,SB,L,R,ITMSR,1.0,
3,400,trial,0,29,29,29,trial,"['S', 'S', 'S', 'S', 'S', 'S', 'S', 'C', 'C', 'C', 'C', 'C', 'C', 'C', 'C', 'C', 'C', 'C', 'C', 'C', 'C', 'C', 'C', 'C', 'C', 'C', 'C', 'C', 'C']","[711070, 711510, 711914, 712303, 712665, 713063, 713473, 713890, 714246, 714525, 714928, 715351, 715759, 715981, 716193, 716411, 717071, 717469, 717831, 718023, 718838, 719254, 719651, 719872, 720662, 721086, 721468, 721657, 722432]","[711151, 711623, 712008, 712394, 712776, 713153, 713573, 713987, 714329, 714601, 715010, 715453, 715835, 716060, 716306, 716502, 717178, 717552, 717889, 718104, 718937, 719315, 719718, 719944, 720747, 721181, 721541, 721716, 722547]","[209, 205, 248, 75, 21, 63, 70, 77, 68, 48, 15, 34, 226, 22, 107, 110, 221, 19, 6, 59, 12, 163, 236, 8, 43, 162, 207, 207, 113]","[711110, 711555, 711919, 712307, 712723, 713068, 713517, 713930, 714287, 714530, 714932, 715392, 715799, 716013, 716242, 716452, 717076, 717509, 717836, 718027, 718843, 719261, 719656, 719878, 720667, 721092, 721473, 721664, 722437]","[710852, 711251, 711652, 712051, 712452, 712852, 713251, 713652, 713930, 714287, 714969, 715392, 715799, 716233, 717112, 717509, 717872, 718878, 719295, 719691, 720703, 721127, 721509, 722472]",58,SB,L,R,ITMSR,1.0,
3,600,trial,0,30,30,30,trial,"['S', 'S', 'S', 'S', 'S', 'S', 'S', 'S', 'C', 'C', 'C', 'C', 'C', 'C', 'C', 'C', 'C', 'C', 'C', 'C', 'C', 'C', 'C', 'C']","[733092, 733622, 734176, 734760, 735350, 735908, 736498, 737105, 737680, 738354, 739014, 739721, 740456, 741087, 741773, 742466, 743149, 743879, 744586, 745348, 746067, 746822, 747460, 748267]","[733198, 733715, 734277, 734853, 735441, 735972, 736565, 737184, 737779, 738465, 739122, 739816, 740570, 741191, 741875, 742575, 743254, 743977, 744676, 745420, 746209, 746934, 747565, 748360]","[57, 253, 27, 20, 2, 178, 14, 126, 190, 154, 173, 210, 217, 196, 155, 136, 168, 193, 168, 5, 57, 236, 236, 232]","[733133, 733627, 734181, 734767, 735354, 735913, 736503, 737110, 737686, 738360, 739020, 739726, 740461, 741091, 741778, 742473, 743155, 743884, 744592, 745353, 746072, 746828, 747465, 748271]","[732866, 733466, 734066, 734666, 735266, 735866, 736466, 737067, 737721, 738395, 739054, 739762, 740497, 741128, 741814, 742507, 743190, 743919, 744627, 745389, 746107, 746862, 747500, 748308]",58,SB,L,R,ITMSR,1.0,
0,400,trial,0,31,31,31,trial,"['S', 'S', 'S', 'S', 'S', 'S', 'S', 'C', 'C', 'C', 'C', 'C', 'C', 'C', 'C', 'C', 'C', 'C', 'C', 'C', 'C', 'C', 'C', 'C']","[753915, 754306, 754696, 755096, 755478, 755881, 756281, 756675, 757054, 757448, 757800, 758153, 758562, 758941, 759221, 759677, 760070, 760465, 760895, 761328, 761753, 762140, 762501, 762883]","[753984, 754395, 754826, 755192, 755601, 756026, 756393, 756791, 757166, 757548, 757916, 758264, 758667, 759022, 759298, 759783, 760194, 760580, 760995, 761412, 761845, 762231, 762604, 762972]","[153, 58, 103, 255, 101, 93, 76, 129, 65, 229, 39, 255, 16, 137, 49, 112, 9, 16, 208, 219, 15, 241, 37, 15]","[753944, 754311, 754700, 755101, 755529, 755936, 756285, 756678, 757058, 757453, 757806, 758158, 758567, 758946, 759228, 759684, 760074, 760470, 760901, 761334, 761758, 762145, 762506, 762889]","[753627, 754026, 754425, 754826, 755225, 755625, 756026, 756425, 756716, 757095, 757488, 757840, 758194, 758602, 758981, 759717, 760111, 760506, 760936, 761368, 761793, 762180, 762542, 762924]",58,SB,L,R,ITMSR,1.0,
1,400,trial,0,32,32,32,trial,"['S', 'S', 'S', 'S', 'S', 'S', 'S', 'S', 'C', 'C', 'C', 'C', 'C', 'C', 'C', 'C', 'C', 'C', 'C', 'C', 'C', 'C', 'C', 'C']","[768850, 769240, 769659, 770079, 770473, 770876, 771269, 771656, 772008, 772354, 772655, 773018, 773393, 773776, 774154, 774508, 774876, 775263, 775625, 775990, 776361, 776714, 777079, 777453]","[768936, 769332, 769750, 770152, 770560, 770949, 771344, 771715, 772091, 772434, 772738, 773098, 773497, 773881, 774232, 774608, 774979, 775369, 775731, 776091, 776454, 776817, 777190, 777551]","[15, 231, 31, 241, 41, 34, 45, 236, 32, 37, 18, 0, 0, 32, 180, 252, 17, 7, 5, 243, 226, 227, 204, 119]","[768897, 769273, 769665, 770083, 770480, 770881, 771274, 771662, 772014, 772359, 772661, 773023, 773434, 773823, 774159, 774548, 774921, 775303, 775664, 776030, 776407, 776762, 777084, 777496]","[768669, 769070, 769470, 769869, 770270, 770669, 771069, 771470, 772047, 772393, 772695, 773057, 773433, 773816, 774194, 774548, 774916, 775303, 775664, 776030, 776400, 776754, 777118, 777493]",58,SB,L,R,ITMSR,1.0,
5,600,trial,0,33,33,33,trial,"['S', 'S', 'S', 'S', 'S', 'S', 'S', 'C', 'C', 'C', 'C', 'C', 'C', 'C', 'C', 'C', 'C', 'C', 'C', 'C', 'C', 'C', 'C']","[783605, 784178, 784841, 785454, 786055, 786652, 787235, 787838, 788410, 788967, 789535, 790141, 790720, 791301, 791859, 792459, 793050, 793635, 794183, 794782, 795420, 795985, 796553]","[783656, 784242, 784898, 785513, 786103, 786726, 787302, 787919, 788487, 789037, 789616, 790212, 790797, 791401, 791952, 792536, 793127, 793690, 794277, 794864, 795496, 796072, 796654]","[95, 220, 41, 29, 92, 6, 205, 241, 176, 147, 172, 111, 158, 127, 96, 78, 177, 107, 155, 255, 108, 119, 121]","[783611, 784183, 784846, 785458, 786060, 786656, 787241, 787844, 788416, 788972, 789540, 790148, 790726, 791342, 791864, 792466, 793055, 793639, 794225, 794789, 795426, 795991, 796559]","[783229, 783830, 784430, 785030, 785630, 786230, 786830, 787430, 787878, 788451, 789008, 789575, 790181, 790761, 791342, 791900, 792500, 793091, 793675, 794223, 794822, 795460, 796025, 796594]",58,SB,L,R,ITMSR,1.0,
2,400,trial,0,34,34,34,trial,"['S', 'S', 'S', 'S', 'S', 'S', 'S', 'C', 'C', 'C', 'C', 'C', 'C', 'C', 'C', 'C', 'C', 'C', 'C', 'C', 'C', 'C', 'C']","[802241, 802608, 803011, 803396, 803815, 804228, 804623, 805035, 805409, 805749, 806112, 806523, 806917, 807312, 807712, 808125, 808511, 808907, 809289, 809701, 810094, 810480, 810882]","[802332, 802701, 803133, 803532, 803938, 804334, 804745, 805124, 805516, 805857, 806228, 806628, 807007, 807402, 807824, 808207, 808552, 808985, 809412, 809785, 810165, 810575, 810971]","[201, 248, 14, 27, 57, 63, 25, 224, 22, 250, 240, 129, 213, 115, 152, 59, 62, 208, 180, 241, 155, 116, 236]","[802273, 802638, 803048, 803402, 803860, 804262, 804675, 805075, 805414, 805799, 806166, 806569, 806922, 807353, 807766, 808130, 808514, 808913, 809339, 809707, 810100, 810522, 810889]","[801933, 802332, 802733, 803133, 803532, 803933, 804332, 804732, 805075, 805449, 805789, 806153, 806563, 806958, 807353, 807752, 808166, 808552, 808947, 809329, 809742, 810134, 810520, 810923]",58,SB,L,R,ITMSR,1.0,
4,600,trial,0,35,35,35,trial,"['S', 'S', 'S', 'S', 'S', 'S', 'S', 'S', 'C', 'C', 'C', 'C', 'C', 'C', 'C', 'C', 'C', 'C', 'C', 'C', 'C', 'C', 'C', 'C']","[816878, 817276, 817800, 818381, 819009, 819614, 820224, 820847, 821420, 822033, 822637, 823246, 823885, 824531, 825132, 825745, 826349, 827026, 827694, 828292, 828924, 829541, 830167, 830801]","[816948, 817398, 817891, 818495, 819118, 819708, 820313, 820900, 821504, 822109, 822724, 823351, 823948, 824629, 825238, 825838, 826400, 827098, 827786, 828402, 829034, 829662, 830280, 830926]","[141, 0, 100, 239, 212, 101, 136, 231, 99, 24, 89, 109, 22, 130, 211, 148, 220, 38, 111, 250, 7, 12, 27, 25]","[816914, 817335, 817847, 818419, 819047, 819648, 820257, 820862, 821426, 822072, 822677, 823289, 823891, 824570, 825172, 825784, 826354, 827032, 827732, 828342, 828976, 829592, 830226, 830859]","[816648, 817247, 817847, 818447, 819047, 819647, 820247, 820847, 821458, 822072, 822676, 823284, 823923, 824569, 825170, 825784, 826388, 827065, 827732, 828331, 828962, 829580, 830205, 830839]",58,SB,L,R,ITMSR,1.0,
1,600,trial,0,36,36,36,trial,"['S', 'S', 'S', 'S', 'S', 'S', 'S', 'S', 'C', 'C', 'C', 'C', 'C', 'C', 'C', 'C', 'C', 'C', 'C', 'C', 'C', 'C', 'C', 'C']","[836895, 837334, 837752, 838335, 838892, 839495, 840092, 840734, 841335, 841933, 842502, 843067, 843708, 844341, 844966, 845549, 846110, 846740, 847342, 847975, 848596, 849186, 849779, 850383]","[836968, 837438, 837840, 838394, 838969, 839562, 840169, 840819, 841391, 841993, 842593, 843155, 843807, 844401, 845039, 845652, 846216, 846851, 847435, 848063, 848671, 849281, 849881, 850465]","[72, 64, 5, 196, 255, 4, 56, 6, 53, 68, 67, 44, 66, 3, 228, 223, 186, 187, 145, 120, 50, 141, 49, 192]","[836899, 837338, 837758, 838335, 838897, 839499, 840096, 840750, 841340, 841937, 842506, 843071, 843713, 844346, 844972, 845554, 846116, 846746, 847347, 847979, 848601, 849190, 849840, 850387]","[836535, 837135, 837735, 838335, 838934, 839534, 840134, 840734, 841374, 841972, 842542, 843107, 843748, 844381, 845005, 845589, 846149, 846780, 847381, 848015, 848635, 849225, 849818, 850422]",58,SB,L,R,ITMSR,1.0,
3,400,trial,0,37,37,37,trial,"['S', 'S', 'S', 'S', 'S', 'S', 'S', 'C', 'C', 'C', 'C', 'C', 'C', 'C', 'C', 'C', 'C', 'C', 'C', 'C', 'C', 'C', 'C']","[856180, 856579, 857084, 857490, 857906, 858288, 858706, 859119, 859475, 859821, 860145, 860491, 860860, 861193, 861541, 861883, 862212, 862533, 862894, 863218, 863595, 863967, 864297]","[856275, 856685, 857222, 857591, 858004, 858391, 858797, 859203, 859595, 859934, 860259, 860598, 860919, 861283, 861646, 861988, 862338, 862663, 862994, 863341, 863692, 864057, 864435]","[36, 205, 249, 34, 38, 82, 1, 205, 63, 40, 12, 220, 175, 217, 229, 252, 220, 228, 186, 225, 219, 120, 139]","[856230, 856629, 857150, 857495, 857910, 858292, 858712, 859125, 859528, 859875, 860150, 860536, 860863, 861197, 861546, 861928, 862253, 862593, 862940, 863270, 863599, 864011, 864356]","[855992, 856391, 856792, 857192, 857591, 857992, 858391, 858791, 859159, 859515, 859862, 860185, 860531, 860901, 861234, 861582, 861924, 862253, 862573, 862935, 863258, 863636, 864008, 864337]",58,SB,L,R,ITMSR,1.0,
5,600,trial,0,38,38,38,trial,"['S', 'S', 'S', 'S', 'S', 'S', 'S', 'S', 'C', 'C', 'C', 'C', 'C', 'C', 'C', 'C', 'C', 'C', 'C', 'C', 'C', 'C', 'C', 'C']","[870270, 870694, 871199, 871798, 872358, 873038, 873575, 874127, 874730, 875324, 875921, 876517, 877075, 877652, 878245, 878791, 879368, 880015, 880622, 881233, 881847, 882452, 883035, 883696]","[870356, 870798, 871299, 871909, 872485, 873126, 873697, 874270, 874834, 875415, 875991, 876591, 877176, 877725, 878338, 878914, 879448, 880087, 880709, 881325, 881929, 882532, 883144, 883780]","[23, 44, 212, 234, 36, 8, 169, 205, 191, 130, 136, 67, 115, 139, 33, 87, 91, 110, 138, 70, 73, 68, 100, 130]","[870317, 870700, 871204, 871804, 872410, 873060, 873579, 874131, 874771, 875330, 875925, 876521, 877080, 877659, 878253, 878798, 879373, 880019, 880627, 881240, 881889, 882457, 883081, 883703]","[870038, 870638, 871238, 871838, 872438, 873038, 873638, 874238, 874771, 875365, 875962, 876558, 877116, 877692, 878285, 878831, 879409, 880056, 880662, 881273, 881888, 882493, 883076, 883736]",58,SB,L,R,ITMSR,1.0,
0,600,trial,0,39,39,39,trial,"['S', 'S', 'S', 'S', 'S', 'S', 'S', 'S', 'C', 'C', 'C', 'C', 'C', 'C', 'C', 'C', 'C', 'C', 'C', 'C', 'C', 'C', 'C', 'C']","[889536, 889964, 890546, 891168, 891794, 892347, 892939, 893527, 894095, 894651, 895196, 895767, 896287, 896855, 897438, 897996, 898555, 899129, 899674, 900245, 900828, 901363, 901927, 902474]","[889632, 890099, 890625, 891249, 891824, 892430, 893033, 893643, 894196, 894757, 895290, 895831, 896384, 896955, 897531, 898082, 898672, 899235, 899774, 900347, 900925, 901475, 902009, 902583]","[218, 4, 224, 117, 155, 192, 1, 4, 199, 180, 98, 187, 123, 245, 235, 216, 237, 223, 183, 204, 140, 203, 100, 135]","[889581, 890009, 890551, 891170, 891810, 892352, 892943, 893531, 894100, 894655, 895201, 895773, 896293, 896860, 897443, 898001, 898560, 899133, 899679, 900251, 900834, 901368, 901933, 902479]","[889394, 889994, 890594, 891194, 891794, 892394, 892993, 893593, 894136, 894692, 895237, 895808, 896327, 896896, 897478, 898036, 898595, 899170, 899715, 900286, 900869, 901403, 901967, 902514]",58,SB,L,R,ITMSR,1.0,
0,400,trial,0,40,40,40,trial,"['S', 'S', 'S', 'S', 'S', 'S', 'S', 'C', 'C', 'C', 'C', 'C', 'C', 'C', 'C', 'C', 'C', 'C', 'C', 'C', 'C', 'C', 'C']","[908303, 908677, 909061, 909493, 909928, 910346, 910760, 911142, 911524, 911890, 912301, 912665, 913050, 913442, 913842, 914231, 914621, 915006, 915403, 915809, 916210, 916597, 917012]","[908395, 908788, 909160, 909585, 910002, 910429, 910849, 911226, 911602, 911978, 912369, 912777, 913158, 913548, 913918, 914310, 914707, 915089, 915492, 915901, 916298, 916698, 917089]","[199, 191, 236, 204, 218, 235, 49, 88, 242, 1, 72, 217, 241, 192, 76, 230, 51, 89, 247, 68, 218, 237, 170]","[908350, 908682, 909066, 909498, 909933, 910351, 910766, 911149, 911528, 911895, 912306, 912718, 913054, 913447, 913848, 914238, 914629, 915012, 915444, 915851, 916219, 916605, 917021]","[908110, 908510, 908909, 909309, 909710, 910109, 910510, 910910, 911182, 911564, 911931, 912342, 912705, 913090, 913482, 913883, 914272, 914662, 915047, 915443, 915850, 916250, 916637, 917053]",58,SB,L,R,ITMSR,1.0,
2,400,trial,0,41,41,41,trial,"['S', 'S', 'S', 'S', 'S', 'S', 'S', 'S', 'C', 'C', 'C', 'C', 'C', 'C', 'C', 'C', 'C', 'C', 'C', 'C', 'C', 'C', 'C', 'C']","[922944, 923334, 923667, 924002, 924378, 924778, 925124, 925530, 925977, 926386, 926769, 927155, 927521, 927906, 928271, 928674, 929057, 929421, 929816, 930196, 930578, 930976, 931379, 931783]","[923023, 923436, 923756, 924101, 924448, 924849, 925216, 925625, 926045, 926475, 926853, 927237, 927605, 927988, 928373, 928783, 929152, 929523, 929924, 930311, 930680, 931081, 931459, 931868]","[198, 202, 176, 226, 227, 241, 21, 25, 23, 20, 233, 40, 168, 143, 206, 177, 222, 194, 205, 223, 162, 251, 214, 168]","[922985, 923372, 923701, 924006, 924395, 924778, 925129, 925535, 925982, 926391, 926775, 927161, 927528, 927911, 928276, 928715, 929097, 929471, 929820, 930245, 930621, 930981, 931384, 931789]","[922778, 923177, 923578, 923977, 924378, 924778, 925177, 925578, 926017, 926427, 926810, 927196, 927561, 927946, 928312, 928714, 929097, 929462, 929857, 930237, 930619, 931016, 931420, 931823]",58,SB,L,R,ITMSR,1.0,
4,600,trial,0,42,42,42,trial,"['S', 'S', 'S', 'S', 'S', 'S', 'S', 'S', 'C', 'C', 'C', 'C', 'C', 'C', 'C', 'C', 'C', 'C', 'C', 'C', 'C', 'C', 'C', 'C']","[937573, 937953, 938507, 939138, 939757, 940398, 940982, 941582, 942170, 942755, 943347, 943989, 944588, 945177, 945782, 946365, 946971, 947574, 948161, 948785, 949329, 949924, 950482, 951072]","[937671, 938076, 938599, 939234, 939852, 940482, 941070, 941667, 942262, 942858, 943449, 944092, 944672, 945282, 945880, 946478, 947054, 947652, 948246, 948880, 949438, 950044, 950572, 951205]","[59, 14, 55, 30, 248, 232, 231, 215, 182, 203, 94, 227, 218, 0, 193, 18, 188, 60, 53, 187, 164, 189, 134, 237]","[937623, 938007, 938511, 939143, 939787, 940403, 940985, 941615, 942209, 942760, 943393, 944027, 944594, 945217, 945787, 946410, 946976, 947612, 948166, 948791, 949370, 949982, 950488, 951123]","[937381, 937981, 938582, 939182, 939782, 940382, 940982, 941582, 942209, 942793, 943385, 944027, 944626, 945215, 945820, 946404, 947009, 947612, 948200, 948824, 949367, 949962, 950520, 951110]",58,SB,L,R,ITMSR,1.0,
0,600,trial,0,43,43,43,trial,"['S', 'S', 'S', 'S', 'S', 'S', 'S', 'S', 'C', 'C', 'C', 'C', 'C', 'C', 'C', 'C', 'C', 'C', 'C', 'C', 'C', 'C', 'C', 'C']","[956739, 957023, 957598, 958168, 958774, 959410, 959992, 960603, 961215, 961793, 962352, 962972, 963592, 964178, 964792, 965401, 965957, 966551, 967138, 967735, 968321, 968921, 969495, 970057]","[956826, 957123, 957698, 958271, 958868, 959498, 960068, 960699, 961313, 961866, 962442, 963045, 963651, 964247, 964918, 965450, 966047, 966645, 967238, 967814, 968421, 969004, 969548, 970139]","[163, 153, 214, 255, 13, 177, 169, 239, 188, 142, 202, 186, 115, 81, 108, 224, 94, 65, 71, 54, 13, 99, 251, 199]","[956776, 957029, 957603, 958172, 958778, 959415, 959998, 960608, 961220, 961797, 962356, 962976, 963597, 964185, 964796, 965405, 965961, 966557, 967143, 967742, 968327, 968925, 969500, 970062]","[956497, 957097, 957698, 958298, 958898, 959498, 960098, 960698, 961256, 961833, 962393, 963012, 963633, 964218, 964833, 965441, 965997, 966592, 967179, 967776, 968361, 968962, 969536, 970097]",58,SB,L,R,ITMSR,1.0,
5,400,trial,0,44,44,44,trial,"['S', 'S', 'S', 'S', 'S', 'S', 'S', 'C', 'C', 'C', 'C', 'C', 'C', 'C', 'C', 'C', 'C', 'C', 'C', 'C', 'C', 'C', 'C']","[975900, 976325, 976832, 977212, 977648, 978061, 978429, 978819, 979182, 979552, 979940, 980335, 980728, 981131, 981508, 981903, 982298, 982717, 983081, 983486, 983898, 984313, 984669]","[975964, 976416, 976934, 977335, 977734, 978152, 978506, 978908, 979274, 979644, 980037, 980422, 980815, 981213, 981608, 982017, 982414, 982813, 983179, 983598, 983997, 984402, 984772]","[165, 238, 37, 95, 245, 10, 220, 212, 222, 253, 191, 148, 170, 121, 179, 180, 206, 159, 163, 158, 93, 96, 174]","[975905, 976330, 976836, 977215, 977653, 978065, 978435, 978824, 979187, 979557, 979944, 980375, 980734, 981138, 981549, 981944, 982352, 982759, 983088, 983527, 983904, 984353, 984722]","[975733, 976134, 976534, 976934, 977335, 977734, 978135, 978535, 978860, 979222, 979593, 979981, 980375, 980768, 981172, 981549, 981944, 982338, 982758, 983121, 983527, 983939, 984353, 984710]",58,SB,L,R,ITMSR,1.0,
1,400,trial,0,45,45,45,trial,"['S', 'S', 'S', 'S', 'S', 'S', 'S', 'S', 'C', 'C', 'C', 'C', 'C', 'C', 'C', 'C', 'C', 'C', 'C', 'C', 'C', 'C', 'C', 'C']","[990489, 990870, 991227, 991547, 991904, 992241, 992622, 993012, 993400, 993745, 994063, 994483, 994911, 995270, 995656, 996011, 996384, 996752, 997122, 997499, 997918, 998286, 998664, 999049]","[990564, 990966, 991322, 991651, 991971, 992308, 992704, 993104, 993478, 993840, 994168, 994579, 994974, 995380, 995762, 996123, 996482, 996836, 997236, 997601, 998009, 998402, 998768, 999161]","[144, 166, 212, 253, 232, 216, 42, 237, 220, 251, 18, 252, 243, 170, 224, 175, 79, 115, 177, 135, 125, 102, 49, 67]","[990524, 990876, 991234, 991596, 991904, 992247, 992626, 993042, 993404, 993751, 994067, 994488, 994917, 995276, 995661, 996054, 996424, 996757, 997126, 997505, 997923, 998330, 998704, 999054]","[990306, 990704, 991105, 991505, 991904, 992305, 992704, 993104, 993439, 993784, 994103, 994523, 994951, 995309, 995695, 996050, 996423, 996792, 997161, 997538, 997957, 998326, 998704, 999089]",58,SB,L,R,ITMSR,1.0,
3,400,trial,0,46,46,46,trial,"['S', 'S', 'S', 'S', 'S', 'S', 'S', 'C', 'C', 'C', 'C', 'C', 'C', 'C', 'C', 'C', 'C', 'C', 'C', 'C', 'C', 'C', 'C']","[1004666, 1005104, 1005494, 1005884, 1006271, 1006665, 1007069, 1007482, 1007848, 1008225, 1008567, 1008965, 1009338, 1009733, 1010083, 1010502, 1010924, 1011301, 1011682, 1012079, 1012442, 1012825, 1013216]","[1004744, 1005219, 1005615, 1005940, 1006348, 1006753, 1007130, 1007537, 1007932, 1008287, 1008631, 1009034, 1009422, 1009795, 1010154, 1010600, 1011003, 1011390, 1011789, 1012166, 1012533, 1012916, 1013301]","[148, 216, 252, 126, 133, 11, 194, 228, 204, 160, 105, 251, 27, 248, 2, 75, 123, 162, 65, 79, 193, 36, 30]","[1004701, 1005109, 1005498, 1005889, 1006277, 1006670, 1007074, 1007490, 1007852, 1008230, 1008573, 1008972, 1009379, 1009738, 1010088, 1010507, 1010930, 1011306, 1011740, 1012126, 1012446, 1012866, 1013222]","[1004414, 1004815, 1005214, 1005615, 1006015, 1006414, 1006815, 1007214, 1007522, 1007889, 1008266, 1008608, 1009005, 1009379, 1009773, 1010123, 1010542, 1010965, 1011342, 1011723, 1012119, 1012483, 1012866, 1013257]",58,SB,L,R,ITMSR,1.0,
3,600,trial,0,47,47,47,trial,"['S', 'S', 'S', 'S', 'S', 'S', 'S', 'S', 'C', 'C', 'C', 'C', 'C', 'C', 'C', 'C', 'C', 'C', 'C', 'C', 'C', 'C', 'C', 'C']","[1019053, 1019448, 1019980, 1020574, 1021179, 1021788, 1022389, 1023019, 1023632, 1024271, 1024930, 1025550, 1026156, 1026786, 1027417, 1028037, 1028685, 1029341, 1029956, 1030572, 1031160, 1031849, 1032494, 1033191]","[1019118, 1019550, 1020067, 1020672, 1021264, 1021853, 1022472, 1023097, 1023721, 1024355, 1025009, 1025638, 1026260, 1026888, 1027519, 1028145, 1028802, 1029429, 1030024, 1030665, 1031267, 1031925, 1032605, 1033271]","[93, 109, 154, 231, 89, 81, 113, 68, 140, 165, 113, 95, 165, 118, 101, 134, 110, 247, 210, 81, 117, 58, 72, 69]","[1019059, 1019453, 1019984, 1020607, 1021212, 1021795, 1022395, 1023052, 1023637, 1024276, 1024936, 1025555, 1026161, 1026792, 1027423, 1028042, 1028740, 1029348, 1029962, 1030577, 1031165, 1031855, 1032499, 1033197]","[1018848, 1019448, 1020048, 1020648, 1021248, 1021847, 1022447, 1023047, 1023673, 1024312, 1024970, 1025591, 1026197, 1026827, 1027458, 1028077, 1028725, 1029382, 1029996, 1030612, 1031200, 1031889, 1032535, 1033232]",58,SB,L,R,ITMSR,1.0,
5,400,trial,0,48,48,48,trial,"['S', 'S', 'S', 'S', 'S', 'S', 'S', 'S', 'C', 'C', 'C', 'C', 'C', 'C', 'C', 'C', 'C', 'C', 'C', 'C', 'C', 'C', 'C', 'C', 'C', 'C']","[1038782, 1039151, 1039527, 1039830, 1040186, 1040516, 1040884, 1041275, 1041665, 1042012, 1042316, 1042613, 1042878, 1043193, 1043497, 1043778, 1044257, 1044567, 1044994, 1045346, 1045690, 1046028, 1046356, 1046752, 1047092, 1047437]","[1038836, 1039251, 1039624, 1039923, 1040249, 1040601, 1040986, 1041386, 1041744, 1042104, 1042410, 1042710, 1042972, 1043311, 1043612, 1043884, 1044360, 1044685, 1045073, 1045443, 1045795, 1046122, 1046474, 1046861, 1047206, 1047544]","[197, 136, 186, 204, 116, 182, 251, 229, 197, 247, 209, 194, 202, 205, 186, 182, 172, 163, 63, 72, 159, 80, 146, 70, 80, 78]","[1038810, 1039156, 1039533, 1039835, 1040200, 1040521, 1040888, 1041281, 1041670, 1042016, 1042321, 1042617, 1042883, 1043251, 1043553, 1043784, 1044261, 1044572, 1045000, 1045351, 1045739, 1046033, 1046400, 1046757, 1047141, 1047443]","[1038585, 1038986, 1039385, 1039785, 1040186, 1040585, 1040986, 1041386, 1041705, 1042053, 1042357, 1042654, 1043233, 1043537, 1044297, 1044608, 1045035, 1045387, 1045731, 1046069, 1046396, 1046793, 1047133, 1047478]",58,SB,L,R,ITMSR,1.0,
1,600,trial,0,49,49,49,trial,"['S', 'S', 'S', 'S', 'S', 'S', 'S', 'S', 'C', 'C', 'C', 'C', 'C', 'C', 'C', 'C', 'C', 'C', 'C', 'C', 'C', 'C', 'C', 'C']","[1053306, 1053661, 1054266, 1054819, 1055437, 1056041, 1056628, 1057261, 1057904, 1058468, 1059075, 1059662, 1060257, 1060856, 1061456, 1062020, 1062606, 1063160, 1063741, 1064293, 1064902, 1065509, 1066107, 1066679]","[1053366, 1053787, 1054387, 1054963, 1055527, 1056163, 1056713, 1057363, 1057995, 1058564, 1059142, 1059737, 1060333, 1060931, 1061512, 1062096, 1062678, 1063226, 1063805, 1064383, 1064942, 1065588, 1066146, 1066748]","[149, 181, 122, 204, 89, 117, 117, 122, 234, 205, 165, 118, 164, 210, 141, 158, 135, 157, 99, 156, 200, 43, 242, 2]","[1053335, 1053712, 1054311, 1054873, 1055442, 1056048, 1056633, 1057267, 1057908, 1058472, 1059080, 1059667, 1060261, 1060860, 1061459, 1062025, 1062611, 1063165, 1063746, 1064298, 1064907, 1065515, 1066113, 1066684]","[1053163, 1053763, 1054363, 1054963, 1055563, 1056163, 1056763, 1057363, 1057943, 1058507, 1059115, 1059701, 1060296, 1060895, 1061495, 1062060, 1062645, 1063199, 1063781, 1064333, 1064941, 1065548, 1066146, 1066719]",58,SB,L,R,ITMSR,1.0,
4,400,trial,0,50,50,50,trial,"['S', 'S', 'S', 'S', 'S', 'S', 'S', 'S', 'C', 'C', 'C', 'C', 'C', 'C', 'C', 'C', 'C', 'C', 'C', 'C', 'C', 'C', 'C', 'C']","[1072485, 1072897, 1073285, 1073701, 1074070, 1074397, 1074734, 1075127, 1075471, 1075840, 1076221, 1076592, 1076998, 1077398, 1077758, 1078116, 1078496, 1078889, 1079266, 1079631, 1080037, 1080407, 1080773, 1081159]","[1072543, 1072986, 1073394, 1073793, 1074144, 1074495, 1074830, 1075201, 1075546, 1075944, 1076328, 1076696, 1077096, 1077491, 1077863, 1078232, 1078609, 1079001, 1079375, 1079741, 1080130, 1080514, 1080893, 1081262]","[222, 169, 217, 180, 78, 225, 135, 95, 148, 75, 90, 93, 75, 90, 100, 149, 91, 213, 156, 154, 127, 152, 155, 142]","[1072489, 1072900, 1073289, 1073705, 1074075, 1074401, 1074739, 1075140, 1075478, 1075880, 1076270, 1076598, 1077005, 1077402, 1077763, 1078167, 1078537, 1078894, 1079271, 1079686, 1080043, 1080413, 1080779, 1081164]","[1072327, 1072727, 1073127, 1073526, 1073927, 1074326, 1074726, 1075127, 1075510, 1075878, 1076259, 1076630, 1077037, 1077437, 1077796, 1078155, 1078535, 1078928, 1079305, 1079669, 1080076, 1080445, 1080811, 1081197]",58,SB,L,R,ITMSR,1.0,
4,400,trial,0,51,51,51,trial,"['S', 'S', 'S', 'S', 'S', 'S', 'S', 'C', 'C', 'C', 'C', 'C', 'C', 'C', 'C', 'C', 'C', 'C', 'C', 'C', 'C', 'C', 'C']","[1086950, 1087351, 1087803, 1088243, 1088643, 1089009, 1089385, 1089782, 1090168, 1090555, 1090970, 1091328, 1091728, 1092107, 1092508, 1092926, 1093336, 1093758, 1094144, 1094505, 1094905, 1095351, 1095755]","[1087043, 1087450, 1087898, 1088339, 1088732, 1089100, 1089488, 1089881, 1090251, 1090644, 1091056, 1091450, 1091834, 1092216, 1092606, 1093043, 1093440, 1093853, 1094254, 1094612, 1095028, 1095431, 1095871]","[212, 244, 217, 171, 72, 127, 170, 108, 237, 79, 62, 118, 96, 71, 60, 100, 4, 147, 65, 3, 45, 127, 75]","[1086989, 1087356, 1087808, 1088290, 1088679, 1089061, 1089438, 1089840, 1090176, 1090563, 1091008, 1091384, 1091780, 1092146, 1092562, 1092977, 1093377, 1093796, 1094189, 1094565, 1094968, 1095390, 1095803]","[1086733, 1087131, 1087532, 1087932, 1088331, 1088732, 1089131, 1089531, 1089820, 1090206, 1090593, 1091008, 1091366, 1091767, 1092146, 1092546, 1092965, 1093374, 1093796, 1094182, 1094544, 1094943, 1095390, 1095793]",58,SB,L,R,ITMSR,1.0,
2,600,trial,0,52,52,52,trial,"['S', 'S', 'S', 'S', 'S', 'S', 'S', 'S', 'C', 'C', 'C', 'C', 'C', 'C', 'C', 'C', 'C', 'C', 'C', 'C', 'C', 'C', 'C', 'C']","[1101839, 1102385, 1102881, 1103382, 1103982, 1104582, 1105197, 1105782, 1106353, 1106957, 1107569, 1108167, 1108760, 1109359, 1109941, 1110544, 1111138, 1111784, 1112438, 1113040, 1113667, 1114261, 1114848, 1115430]","[1101918, 1102474, 1102926, 1103459, 1104053, 1104647, 1105293, 1105853, 1106456, 1107053, 1107653, 1108255, 1108846, 1109444, 1110049, 1110605, 1111244, 1111864, 1112520, 1113136, 1113708, 1114351, 1114937, 1115530]","[222, 11, 211, 194, 214, 215, 218, 95, 221, 172, 105, 197, 60, 159, 134, 113, 124, 44, 104, 68, 100, 209, 112, 245]","[1101875, 1102391, 1102888, 1103399, 1103982, 1104584, 1105202, 1105799, 1106357, 1106962, 1107576, 1108172, 1108766, 1109364, 1109946, 1110549, 1111143, 1111790, 1112444, 1113046, 1113672, 1114303, 1114852, 1115479]","[1101583, 1102183, 1102783, 1103382, 1103982, 1104582, 1105182, 1105782, 1106394, 1106998, 1107609, 1108207, 1108801, 1109399, 1109982, 1110585, 1111179, 1111825, 1112478, 1113080, 1113708, 1114302, 1114889, 1115470]",58,SB,L,R,ITMSR,1.0,
2,600,trial,0,53,53,53,trial,"['S', 'S', 'S', 'S', 'S', 'S', 'S', 'S', 'C', 'C', 'C', 'C', 'C', 'C', 'C', 'C', 'C', 'C', 'C', 'C', 'C', 'C', 'C', 'C']","[1121375, 1121822, 1122396, 1122988, 1123592, 1124198, 1124786, 1125391, 1126013, 1126638, 1127191, 1127733, 1128307, 1128903, 1129481, 1130104, 1130671, 1131253, 1131842, 1132413, 1133037, 1133632, 1134213, 1134844]","[1121444, 1121929, 1122484, 1123069, 1123677, 1124271, 1124844, 1125463, 1126094, 1126699, 1127263, 1127812, 1128383, 1128971, 1129575, 1130194, 1130758, 1131348, 1131931, 1132511, 1133129, 1133719, 1134302, 1134909]","[179, 231, 1, 120, 129, 31, 236, 113, 85, 227, 40, 44, 3, 186, 35, 231, 239, 48, 44, 38, 51, 60, 84, 35]","[1121381, 1121870, 1122399, 1122993, 1123598, 1124226, 1124792, 1125396, 1126019, 1126644, 1127232, 1127738, 1128314, 1128907, 1129485, 1130113, 1130676, 1131260, 1131848, 1132420, 1133044, 1133638, 1134219, 1134850]","[1121222, 1121822, 1122422, 1123022, 1123622, 1124222, 1124823, 1125423, 1126053, 1126678, 1127232, 1127774, 1128347, 1128943, 1129522, 1130144, 1130712, 1131293, 1131883, 1132453, 1133078, 1133673, 1134254, 1134884]",58,SB,L,R,ITMSR,1.0,
1,400,trial,0,54,54,54,trial,"['S', 'S', 'S', 'S', 'S', 'S', 'S', 'C', 'C', 'C', 'C', 'C', 'C', 'C', 'C', 'C', 'C', 'C', 'C', 'C', 'C', 'C', 'C']","[1143111, 1143476, 1143884, 1144293, 1144722, 1145156, 1145592, 1146001, 1146364, 1146737, 1147112, 1147527, 1147895, 1148269, 1148651, 1149040, 1149432, 1149814, 1150199, 1150577, 1150949, 1151328, 1151742]","[1143209, 1143574, 1143983, 1144392, 1144830, 1145231, 1145678, 1146097, 1146455, 1146812, 1147200, 1147607, 1147972, 1148345, 1148731, 1149112, 1149500, 1149900, 1150272, 1150669, 1151043, 1151426, 1151820]","[246, 231, 19, 241, 237, 128, 141, 145, 147, 92, 85, 227, 29, 14, 23, 159, 140, 238, 206, 21, 36, 252, 155]","[1143152, 1143481, 1143888, 1144297, 1144727, 1145161, 1145597, 1146006, 1146370, 1146743, 1147117, 1147533, 1147900, 1148274, 1148657, 1149046, 1149440, 1149853, 1150238, 1150616, 1150990, 1151384, 1151748]","[1142922, 1143321, 1143721, 1144122, 1144521, 1144922, 1145322, 1145721, 1146041, 1146403, 1146776, 1147152, 1147567, 1147934, 1148309, 1148691, 1149079, 1149471, 1149853, 1150238, 1150616, 1150989, 1151368, 1151781]",58,SB,L,R,ITMSR,1.0,
1,600,trial,0,55,55,55,trial,"['S', 'S', 'S', 'S', 'S', 'S', 'S', 'S', 'C', 'C', 'C', 'C', 'C', 'C', 'C', 'C', 'C', 'C', 'C', 'C', 'C', 'C', 'C', 'C']","[1157430, 1157819, 1158478, 1159109, 1159683, 1160231, 1160827, 1161424, 1162004, 1162590, 1163160, 1163732, 1164343, 1164940, 1165540, 1166108, 1166658, 1167256, 1167846, 1168470, 1169092, 1169654, 1170221, 1170855]","[1157495, 1157915, 1158549, 1159189, 1159766, 1160339, 1160938, 1161526, 1162106, 1162678, 1163266, 1163853, 1164441, 1165022, 1165633, 1166192, 1166758, 1167343, 1167960, 1168560, 1169143, 1169746, 1170317, 1170932]","[21, 210, 161, 210, 251, 38, 208, 164, 203, 252, 169, 237, 167, 191, 205, 188, 172, 158, 120, 31, 137, 89, 84, 174]","[1157462, 1157878, 1158500, 1159114, 1159687, 1160236, 1160833, 1161455, 1162010, 1162594, 1163204, 1163738, 1164348, 1164945, 1165545, 1166113, 1166663, 1167261, 1167902, 1168513, 1169096, 1169660, 1170226, 1170862]","[1157278, 1157878, 1158478, 1159078, 1159678, 1160279, 1160879, 1161479, 1162044, 1162630, 1163200, 1163771, 1164383, 1164980, 1165580, 1166147, 1166698, 1167296, 1167886, 1168509, 1169131, 1169693, 1170260, 1170894]",58,SB,L,R,ITMSR,1.0,
4,400,trial,0,56,56,56,trial,"['S', 'S', 'S', 'S', 'S', 'S', 'S', 'C', 'C', 'C', 'C', 'C', 'C', 'C', 'C', 'C', 'C', 'C', 'C', 'C', 'C', 'C', 'C']","[1176840, 1177231, 1177661, 1178088, 1178522, 1178936, 1179366, 1179763, 1180149, 1180537, 1180923, 1181317, 1181713, 1182108, 1182488, 1182867, 1183283, 1183703, 1184087, 1184502, 1184927, 1185295, 1185710]","[1176916, 1177321, 1177739, 1178163, 1178590, 1179029, 1179446, 1179839, 1180243, 1180614, 1181012, 1181415, 1181798, 1182205, 1182575, 1182965, 1183369, 1183791, 1184179, 1184601, 1185018, 1185377, 1185797]","[21, 219, 16, 239, 73, 255, 6, 131, 212, 132, 218, 215, 120, 185, 184, 252, 237, 208, 194, 125, 81, 37, 103]","[1176878, 1177236, 1177666, 1178093, 1178557, 1178940, 1179371, 1179770, 1180188, 1180544, 1180930, 1181322, 1181719, 1182146, 1182493, 1182871, 1183287, 1183708, 1184093, 1184540, 1184934, 1185302, 1185715]","[1176625, 1177023, 1177423, 1177824, 1178223, 1178624, 1179024, 1179423, 1179801, 1180187, 1180575, 1180961, 1181356, 1181752, 1182146, 1182527, 1182906, 1183322, 1183741, 1184125, 1184540, 1184965, 1185334, 1185748]",58,SB,L,R,ITMSR,1.0,
5,400,trial,0,57,57,57,trial,"['S', 'S', 'S', 'S', 'S', 'S', 'S', 'C', 'C', 'C', 'C', 'C', 'C', 'C', 'C', 'C', 'C', 'C', 'C', 'C', 'C', 'C', 'C']","[1191302, 1191734, 1192107, 1192505, 1192853, 1193304, 1193717, 1194114, 1194499, 1194878, 1195264, 1195637, 1196038, 1196435, 1196792, 1197180, 1197592, 1197957, 1198392, 1198792, 1199217, 1199653, 1200018]","[1191379, 1191830, 1192202, 1192606, 1192940, 1193379, 1193786, 1194198, 1194569, 1194961, 1195333, 1195738, 1196149, 1196513, 1196888, 1197294, 1197683, 1198068, 1198484, 1198871, 1199309, 1199693, 1200089]","[108, 218, 255, 40, 248, 184, 129, 178, 178, 166, 28, 170, 174, 54, 117, 107, 135, 124, 15, 84, 109, 85, 3]","[1191342, 1191777, 1192143, 1192542, 1192887, 1193334, 1193747, 1194155, 1194505, 1194883, 1195281, 1195677, 1196088, 1196478, 1196832, 1197220, 1197633, 1198003, 1198433, 1198832, 1199257, 1199670, 1200067]","[1191080, 1191480, 1191879, 1192280, 1192680, 1193079, 1193480, 1193879, 1194155, 1194540, 1194918, 1195304, 1195677, 1196079, 1196476, 1196832, 1197220, 1197633, 1197998, 1198433, 1198832, 1199257, 1199693, 1200059]",58,SB,L,R,ITMSR,1.0,
3,600,trial,0,58,58,58,trial,"['S', 'S', 'S', 'S', 'S', 'S', 'S', 'S', 'C', 'C', 'C', 'C', 'C', 'C', 'C', 'C', 'C', 'C', 'C', 'C', 'C', 'C', 'C', 'C']","[1206028, 1206335, 1206941, 1207559, 1208160, 1208752, 1209374, 1209951, 1210522, 1211075, 1211651, 1212208, 1212756, 1213308, 1213885, 1214432, 1215024, 1215607, 1216161, 1216691, 1217317, 1217863, 1218399, 1218933]","[1206126, 1206471, 1207078, 1207652, 1208247, 1208854, 1209466, 1210047, 1210616, 1211157, 1211739, 1212249, 1212796, 1213386, 1213965, 1214520, 1215100, 1215684, 1216243, 1216806, 1217357, 1217927, 1218495, 1219022]","[232, 222, 224, 121, 245, 111, 139, 129, 149, 155, 117, 71, 169, 239, 230, 80, 37, 27, 239, 49, 15, 192, 40, 91]","[1206072, 1206386, 1207001, 1207565, 1208166, 1208758, 1209379, 1209956, 1210527, 1211079, 1211657, 1212213, 1212761, 1213315, 1213889, 1214438, 1215030, 1215613, 1216166, 1216696, 1217323, 1217867, 1218405, 1218938]","[1205847, 1206447, 1207047, 1207647, 1208247, 1208847, 1209447, 1210047, 1210562, 1211116, 1211692, 1212249, 1212796, 1213348, 1213926, 1214473, 1215065, 1215647, 1216201, 1216732, 1217357, 1217903, 1218440, 1218973]",58,SB,L,R,ITMSR,1.0,
3,400,trial,0,59,59,59,trial,"['S', 'S', 'S', 'S', 'S', 'S', 'S', 'S', 'C', 'C', 'C', 'C', 'C', 'C', 'C', 'C', 'C', 'C', 'C', 'C', 'C', 'C', 'C', 'C']","[1224723, 1225142, 1225513, 1225928, 1226262, 1226628, 1227008, 1227377, 1227791, 1228196, 1228564, 1228963, 1229377, 1229761, 1230162, 1230568, 1230997, 1231396, 1231822, 1232200, 1232581, 1233019, 1233410, 1233804]","[1224805, 1225241, 1225612, 1226011, 1226365, 1226720, 1227115, 1227486, 1227898, 1228312, 1228695, 1229063, 1229468, 1229884, 1230261, 1230680, 1231105, 1231489, 1231903, 1232292, 1232687, 1233106, 1233483, 1233892]","[51, 248, 203, 171, 227, 201, 192, 222, 197, 205, 237, 156, 116, 165, 41, 151, 195, 180, 52, 89, 125, 194, 152, 3]","[1224766, 1225146, 1225519, 1225933, 1226299, 1226634, 1227052, 1227421, 1227838, 1228249, 1228624, 1228969, 1229382, 1229817, 1230169, 1230609, 1231041, 1231436, 1231862, 1232248, 1232631, 1233063, 1233415, 1233845]","[1224577, 1224977, 1225376, 1225777, 1226177, 1226577, 1226978, 1227377, 1227832, 1228236, 1228605, 1229003, 1229418, 1229802, 1230202, 1230609, 1231038, 1231436, 1231862, 1232240, 1232621, 1233059, 1233451, 1233845]",58,SB,L,R,ITMSR,1.0,
2,600,trial,0,60,60,60,trial,"['S', 'S', 'S', 'S', 'S', 'S', 'S', 'S', 'C', 'C', 'C', 'C', 'C', 'C', 'C', 'C', 'C', 'C', 'C', 'C', 'C', 'C', 'C', 'C']","[1239325, 1239750, 1240322, 1240921, 1241512, 1242112, 1242722, 1243302, 1243900, 1244472, 1245090, 1245671, 1246227, 1246841, 1247448, 1248031, 1248624, 1249184, 1249786, 1250365, 1250939, 1251497, 1252162, 1252769]","[1239413, 1239866, 1240451, 1241000, 1241601, 1242202, 1242791, 1243404, 1244000, 1244550, 1245178, 1245764, 1246320, 1246908, 1247534, 1248119, 1248689, 1249260, 1249870, 1250451, 1251019, 1251565, 1252239, 1252864]","[201, 134, 126, 33, 74, 40, 17, 45, 23, 31, 4, 75, 222, 138, 38, 230, 20, 255, 149, 158, 249, 1, 69, 100]","[1239374, 1239800, 1240376, 1240952, 1241545, 1242147, 1242728, 1243309, 1243940, 1244477, 1245096, 1245678, 1246234, 1246843, 1247490, 1248038, 1248630, 1249189, 1249793, 1250370, 1250947, 1251505, 1252167, 1252774]","[1239176, 1239776, 1240376, 1240976, 1241576, 1242176, 1242775, 1243375, 1243940, 1244513, 1245130, 1245712, 1246268, 1246881, 1247489, 1248071, 1248664, 1249224, 1249826, 1250406, 1250979, 1251537, 1252203, 1252809]",58,SB,L,R,ITMSR,1.0,
4,600,trial,0,61,61,61,trial,"['S', 'S', 'S', 'S', 'S', 'S', 'S', 'C', 'C', 'C', 'C', 'C', 'C', 'C', 'C', 'C', 'C', 'C', 'C', 'C', 'C', 'C', 'C']","[1258675, 1259215, 1259911, 1260617, 1261245, 1261838, 1262445, 1263085, 1263674, 1264279, 1264869, 1265472, 1266102, 1266712, 1267277, 1267835, 1268428, 1269014, 1269587, 1270192, 1270748, 1271322, 1271915]","[1258762, 1259301, 1259979, 1260698, 1261332, 1261948, 1262555, 1263167, 1263733, 1264358, 1264942, 1265554, 1266207, 1266806, 1267395, 1267960, 1268505, 1269122, 1269664, 1270250, 1270836, 1271386, 1271971]","[146, 138, 171, 104, 191, 186, 190, 169, 147, 189, 106, 125, 20, 37, 23, 224, 192, 204, 133, 12, 97, 44, 5]","[1258714, 1259222, 1259917, 1260623, 1261250, 1261843, 1262450, 1263090, 1263680, 1264284, 1264874, 1265477, 1266106, 1266716, 1267281, 1267841, 1268432, 1269020, 1269594, 1270197, 1270754, 1271328, 1271921]","[1258331, 1258930, 1259530, 1260130, 1260730, 1261330, 1261930, 1262530, 1263124, 1263713, 1264318, 1264908, 1265511, 1266141, 1266751, 1267315, 1267873, 1268466, 1269053, 1269625, 1270231, 1270787, 1271360, 1271954]",58,SB,L,R,ITMSR,1.0,
0,400,trial,0,62,62,62,trial,"['S', 'S', 'S', 'S', 'S', 'S', 'S', 'S', 'C', 'C', 'C', 'C', 'C', 'C', 'C', 'C', 'C', 'C', 'C', 'C', 'C', 'C', 'C', 'C']","[1277802, 1278209, 1278514, 1278829, 1279218, 1279588, 1279973, 1280386, 1280775, 1281133, 1281495, 1281855, 1282253, 1282648, 1283026, 1283435, 1283811, 1284235, 1284648, 1285016, 1285426, 1285832, 1286251, 1286659]","[1277885, 1278295, 1278633, 1278944, 1279312, 1279678, 1280089, 1280483, 1280881, 1281245, 1281595, 1281932, 1282365, 1282753, 1283137, 1283531, 1283917, 1284322, 1284738, 1285117, 1285521, 1285924, 1286364, 1286729]","[177, 214, 255, 249, 13, 234, 13, 237, 193, 218, 152, 129, 188, 169, 97, 78, 183, 83, 113, 222, 47, 1, 82, 34]","[1277842, 1278243, 1278565, 1278885, 1279253, 1279592, 1280020, 1280390, 1280816, 1281138, 1281536, 1281859, 1282293, 1282693, 1283075, 1283440, 1283817, 1284239, 1284654, 1285057, 1285433, 1285839, 1286306, 1286666]","[1277654, 1278053, 1278452, 1278853, 1279253, 1279652, 1280053, 1280452, 1280816, 1281174, 1281536, 1281896, 1282293, 1282689, 1283066, 1283476, 1283852, 1284276, 1284688, 1285057, 1285467, 1285872, 1286292, 1286700]",58,SB,L,R,ITMSR,1.0,
4,400,trial,0,63,63,63,trial,"['S', 'S', 'S', 'S', 'S', 'S', 'S', 'S', 'C', 'C', 'C', 'C', 'C', 'C', 'C', 'C', 'C', 'C', 'C', 'C', 'C', 'C', 'C', 'C']","[1292535, 1292924, 1293299, 1293646, 1293910, 1294292, 1294691, 1295059, 1295485, 1295840, 1296242, 1296623, 1297051, 1297419, 1297814, 1298202, 1298577, 1298960, 1299813, 1300205, 1300561, 1300957, 1301334, 1301726]","[1292612, 1293032, 1293385, 1293740, 1294009, 1294357, 1294757, 1295127, 1295559, 1295916, 1296317, 1296711, 1297103, 1297499, 1297907, 1298293, 1298675, 1299102, 1299906, 1300292, 1300653, 1301058, 1301453, 1301835]","[19, 39, 34, 27, 38, 5, 207, 18, 236, 31, 241, 167, 73, 150, 183, 160, 181, 145, 173, 153, 206, 137, 156, 118]","[1292573, 1292968, 1293303, 1293651, 1293958, 1294297, 1294696, 1295064, 1295490, 1295843, 1296246, 1296628, 1297057, 1297424, 1297818, 1298208, 1298582, 1298965, 1299854, 1300211, 1300567, 1300964, 1301340, 1301731]","[1292357, 1292758, 1293158, 1293557, 1293958, 1294357, 1294757, 1295158, 1295523, 1295879, 1296280, 1296661, 1297089, 1297458, 1297853, 1298240, 1298616, 1298999, 1299852, 1300244, 1300599, 1300996, 1301372, 1301765]",58,SB,L,R,ITMSR,1.0,
1,400,trial,0,64,64,64,trial,"['S', 'S', 'S', 'S', 'S', 'S', 'S', 'S', 'C', 'C', 'C', 'C', 'C', 'C', 'C', 'C', 'C', 'C', 'C', 'C', 'C', 'C', 'C', 'C']","[1307637, 1307999, 1308313, 1308651, 1309004, 1309391, 1309827, 1310199, 1310568, 1310944, 1311351, 1311748, 1312176, 1312558, 1312970, 1313370, 1313747, 1314176, 1314586, 1314959, 1315329, 1315734, 1316096, 1317080]","[1307725, 1308105, 1308420, 1308734, 1309127, 1309494, 1309901, 1310310, 1310663, 1311042, 1311433, 1311840, 1312254, 1312654, 1313059, 1313461, 1313847, 1314233, 1314669, 1315032, 1315416, 1315827, 1316196, 1317178]","[78, 250, 233, 172, 7, 223, 147, 195, 159, 161, 23, 230, 182, 230, 211, 170, 202, 239, 121, 99, 26, 186, 11, 101]","[1307682, 1308054, 1308317, 1308655, 1309063, 1309395, 1309847, 1310204, 1310572, 1310949, 1311355, 1311753, 1312181, 1312562, 1312974, 1313375, 1313752, 1314182, 1314591, 1314963, 1315337, 1315739, 1316100, 1317086]","[1307426, 1307827, 1308226, 1308626, 1309027, 1309426, 1309827, 1310227, 1310608, 1310984, 1311390, 1311788, 1312216, 1312598, 1313009, 1313410, 1313786, 1314215, 1314625, 1314999, 1315368, 1315774, 1316135, 1317120]",58,SB,L,R,ITMSR,1.0,
3,400,trial,0,65,65,65,trial,"['S', 'S', 'S', 'S', 'S', 'S', 'S', 'S', 'C', 'C', 'C', 'C', 'C', 'C', 'C', 'C', 'C', 'C', 'C', 'C', 'C', 'C', 'C', 'C']","[1323065, 1323420, 1323779, 1324110, 1324470, 1324853, 1325211, 1325591, 1325991, 1326403, 1326776, 1327164, 1327524, 1327929, 1328319, 1328698, 1329110, 1329479, 1329849, 1330263, 1330667, 1331057, 1331462, 1331874]","[1323125, 1323538, 1323874, 1324205, 1324581, 1324960, 1325324, 1325711, 1326097, 1326495, 1326868, 1327238, 1327623, 1328046, 1328431, 1328802, 1329209, 1329590, 1329969, 1330374, 1330750, 1331152, 1331562, 1331956]","[206, 9, 220, 8, 21, 19, 184, 198, 222, 169, 163, 48, 156, 152, 153, 142, 140, 195, 194, 166, 146, 104, 75, 202]","[1323092, 1323480, 1323819, 1324112, 1324475, 1324910, 1325253, 1325650, 1325997, 1326409, 1326783, 1327205, 1327580, 1327985, 1328378, 1328747, 1329117, 1329485, 1329855, 1330270, 1330728, 1331097, 1331468, 1331914]","[1322910, 1323311, 1323711, 1324110, 1324511, 1324910, 1325310, 1325711, 1326031, 1326444, 1326817, 1327205, 1327564, 1327970, 1328360, 1328739, 1329150, 1329519, 1329890, 1330304, 1330708, 1331097, 1331503, 1331914]",58,SB,L,R,ITMSR,1.0,
4,600,trial,0,66,66,66,trial,"['S', 'S', 'S', 'S', 'S', 'S', 'S', 'S', 'C', 'C', 'C', 'C', 'C', 'C', 'C', 'C', 'C', 'C', 'C', 'C', 'C', 'C', 'C', 'C']","[1337844, 1338233, 1338827, 1339462, 1340068, 1340654, 1341221, 1341895, 1342497, 1343129, 1343724, 1344342, 1344968, 1345560, 1346170, 1346814, 1347449, 1348037, 1348671, 1349288, 1349914, 1350542, 1351150, 1351821]","[1337937, 1338377, 1338943, 1339594, 1340198, 1340775, 1341327, 1341990, 1342630, 1343241, 1343846, 1344444, 1345057, 1345662, 1346273, 1346923, 1347563, 1348165, 1348783, 1349411, 1350031, 1350680, 1351247, 1351917]","[7, 31, 41, 12, 188, 207, 172, 168, 232, 187, 144, 107, 86, 191, 160, 144, 151, 174, 120, 162, 146, 137, 97, 112]","[1337883, 1338295, 1338866, 1339523, 1340132, 1340722, 1341259, 1341895, 1342502, 1343167, 1343729, 1344348, 1344975, 1345566, 1346177, 1346852, 1347457, 1348100, 1348676, 1349294, 1349920, 1350548, 1351156, 1351826]","[1337696, 1338295, 1338895, 1339495, 1340095, 1340695, 1341295, 1341895, 1342535, 1343167, 1343763, 1344380, 1345006, 1345599, 1346208, 1346852, 1347487, 1348075, 1348710, 1349326, 1349952, 1350581, 1351188, 1351860]",58,SB,L,R,ITMSR,1.0,
2,400,trial,0,67,67,67,trial,"['S', 'S', 'S', 'S', 'S', 'S', 'S', 'S', 'C', 'C', 'C', 'C', 'C', 'C', 'C', 'C', 'C', 'C', 'C', 'C', 'C', 'C', 'C', 'C']","[1357368, 1357755, 1358126, 1358466, 1358787, 1359139, 1359507, 1359919, 1360280, 1360666, 1361060, 1361467, 1361865, 1362246, 1362658, 1363026, 1363418, 1363813, 1364216, 1364576, 1365003, 1365420, 1365795, 1366205]","[1357464, 1357853, 1358234, 1358579, 1358925, 1359259, 1359638, 1360025, 1360410, 1360812, 1361165, 1361574, 1361984, 1362388, 1362796, 1363095, 1363523, 1363941, 1364344, 1364707, 1365123, 1365553, 1365953, 1366348]","[231, 254, 229, 18, 41, 26, 18, 221, 47, 245, 220, 171, 195, 192, 200, 123, 164, 235, 225, 215, 183, 192, 210, 154]","[1357403, 1357759, 1358177, 1358519, 1358851, 1359196, 1359560, 1359959, 1360284, 1360719, 1361065, 1361472, 1361869, 1362251, 1362663, 1363032, 1363423, 1363818, 1364221, 1364581, 1365008, 1365425, 1365885, 1366289]","[1357187, 1357586, 1357985, 1358386, 1358785, 1359185, 1359586, 1359985, 1360321, 1360706, 1361100, 1361508, 1361905, 1362286, 1362699, 1363066, 1363459, 1363854, 1364256, 1364617, 1365044, 1365460, 1365835, 1366246]",58,SB,L,R,ITMSR,1.0,
0,600,trial,0,68,68,68,trial,"['S', 'S', 'S', 'S', 'S', 'S', 'S', 'S', 'C', 'C', 'C', 'C', 'C', 'C', 'C', 'C', 'C', 'C', 'C', 'C', 'C', 'C', 'C', 'C']","[1372187, 1372589, 1373189, 1373792, 1374336, 1374998, 1375589, 1376118, 1376728, 1377334, 1377950, 1378562, 1379145, 1379733, 1380326, 1380932, 1381561, 1382176, 1382776, 1383332, 1383973, 1384625, 1385227, 1385775]","[1372279, 1372707, 1373310, 1373897, 1374465, 1375091, 1375665, 1376239, 1376885, 1377457, 1378075, 1378694, 1379232, 1379846, 1380455, 1381041, 1381651, 1382277, 1382876, 1383441, 1384096, 1384707, 1385314, 1385849]","[209, 11, 232, 236, 7, 119, 148, 202, 206, 212, 181, 155, 153, 160, 199, 158, 123, 153, 116, 74, 155, 114, 158, 87]","[1372228, 1372633, 1373241, 1373797, 1374389, 1375003, 1375603, 1376123, 1376732, 1377338, 1377955, 1378568, 1379151, 1379737, 1380331, 1380937, 1381566, 1382181, 1382781, 1383339, 1383979, 1384630, 1385231, 1385816]","[1371990, 1372589, 1373189, 1373789, 1374389, 1374989, 1375589, 1376189, 1376769, 1377375, 1377990, 1378603, 1379185, 1379774, 1380367, 1380972, 1381602, 1382216, 1382816, 1383372, 1384013, 1384666, 1385268, 1385816]",58,SB,L,R,ITMSR,1.0,
2,400,trial,0,69,69,69,trial,"['S', 'S', 'S', 'S', 'S', 'S', 'S', 'S', 'C', 'C', 'C', 'C', 'C', 'C', 'C', 'C', 'C', 'C', 'C', 'C', 'C', 'C', 'C', 'C']","[1391416, 1391805, 1392135, 1392472, 1392833, 1393233, 1393634, 1394006, 1394434, 1394848, 1395238, 1395620, 1396045, 1396456, 1396919, 1397340, 1397735, 1398162, 1398529, 1398962, 1399360, 1399778, 1400173, 1400588]","[1391494, 1391896, 1392269, 1392593, 1392923, 1393333, 1393739, 1394086, 1394551, 1394966, 1395345, 1395723, 1396176, 1396597, 1397019, 1397442, 1397851, 1398256, 1398640, 1399062, 1399490, 1399896, 1400320, 1400695]","[127, 131, 26, 21, 213, 150, 126, 112, 158, 154, 207, 242, 231, 16, 209, 248, 245, 194, 183, 139, 191, 116, 119, 182]","[1391422, 1391846, 1392202, 1392535, 1392854, 1393262, 1393683, 1394010, 1394439, 1394853, 1395243, 1395625, 1396050, 1396460, 1396924, 1397345, 1397739, 1398167, 1398535, 1398968, 1399366, 1399784, 1400240, 1400594]","[1391234, 1391633, 1392032, 1392433, 1392833, 1393233, 1393634, 1394033, 1394475, 1394888, 1395278, 1395660, 1396085, 1396497, 1396960, 1397381, 1397776, 1398203, 1398569, 1399003, 1399401, 1399819, 1400214, 1400629]",58,SB,L,R,ITMSR,1.0,
2,600,trial,0,70,70,70,trial,"['S', 'S', 'S', 'S', 'S', 'S', 'S', 'S', 'C', 'C', 'C', 'C', 'C', 'C', 'C', 'C', 'C', 'C', 'C', 'C', 'C', 'C', 'C', 'C']","[1406192, 1406580, 1407157, 1407774, 1408375, 1408944, 1409533, 1410120, 1410705, 1411338, 1411913, 1412505, 1413129, 1413752, 1414348, 1414939, 1415617, 1416259, 1416896, 1417506, 1418089, 1418718, 1419343, 1419931]","[1406286, 1406717, 1407266, 1407881, 1408480, 1409072, 1409650, 1410240, 1410821, 1411408, 1412001, 1412619, 1413241, 1413879, 1414473, 1415078, 1415702, 1416383, 1417035, 1417656, 1418248, 1418845, 1419489, 1420069]","[73, 26, 214, 195, 134, 157, 163, 179, 59, 245, 6, 151, 184, 109, 106, 25, 123, 112, 216, 178, 78, 44, 56, 154]","[1406196, 1406643, 1407162, 1407779, 1408381, 1408980, 1409541, 1410124, 1410767, 1411344, 1411971, 1412572, 1413135, 1413760, 1414352, 1414945, 1415623, 1416264, 1416900, 1417511, 1418174, 1418777, 1419350, 1419937]","[1406031, 1406630, 1407230, 1407831, 1408431, 1409031, 1409631, 1410231, 1410746, 1411379, 1411953, 1412545, 1413170, 1413792, 1414388, 1414979, 1415658, 1416300, 1416937, 1417546, 1418130, 1418759, 1419383, 1419971]",58,SB,L,R,ITMSR,1.0,
0,400,trial,0,71,71,71,trial,"['S', 'S', 'S', 'S', 'S', 'S', 'S', 'S', 'C', 'C', 'C', 'C', 'C', 'C', 'C', 'C', 'C', 'C', 'C', 'C', 'C', 'C', 'C', 'C']","[1425690, 1426105, 1426478, 1426842, 1427161, 1427511, 1427873, 1428244, 1428686, 1429056, 1429468, 1429859, 1430231, 1430654, 1431067, 1431438, 1431866, 1432269, 1432706, 1433165, 1433564, 1433956, 1434328, 1434729]","[1425794, 1426203, 1426579, 1426938, 1427269, 1427597, 1427990, 1428323, 1428762, 1429165, 1429575, 1429970, 1430335, 1430736, 1431174, 1431569, 1431980, 1432403, 1432788, 1433218, 1433645, 1434044, 1434420, 1434829]","[29, 246, 7, 248, 48, 48, 22, 49, 234, 39, 220, 19, 31, 213, 208, 246, 205, 239, 140, 118, 214, 148, 151, 204]","[1425695, 1426110, 1426483, 1426847, 1427166, 1427513, 1427877, 1428249, 1428692, 1429060, 1429473, 1429864, 1430236, 1430660, 1431073, 1431443, 1431872, 1432275, 1432712, 1433171, 1433570, 1433962, 1434334, 1434734]","[1425511, 1425909, 1426310, 1426710, 1427110, 1427511, 1427910, 1428311, 1428726, 1429097, 1429509, 1429900, 1430272, 1430694, 1431107, 1431479, 1431907, 1432309, 1432747, 1433205, 1433605, 1433997, 1434369, 1434770]",58,SB,L,R,ITMSR,1.0,
3,600,trial,0,72,72,72,trial,"['S', 'S', 'S', 'S', 'S', 'S', 'S', 'S', 'C', 'C', 'C', 'C', 'C', 'C', 'C', 'C', 'C', 'C', 'C', 'C', 'C', 'C', 'C', 'C']","[1440608, 1441026, 1441595, 1442190, 1442785, 1443426, 1443998, 1444574, 1445127, 1445749, 1446350, 1446983, 1447552, 1448126, 1448734, 1449336, 1449921, 1450488, 1451085, 1451675, 1452286, 1452890, 1453471, 1454109]","[1440696, 1441149, 1441696, 1442257, 1442895, 1443519, 1444097, 1444658, 1445215, 1445833, 1446457, 1447064, 1447663, 1448245, 1448848, 1449440, 1450060, 1450610, 1451210, 1451806, 1452412, 1453008, 1453582, 1454223]","[82, 76, 34, 18, 28, 178, 211, 205, 216, 164, 18, 192, 54, 229, 211, 182, 245, 193, 219, 17, 127, 202, 200, 250]","[1440648, 1441086, 1441600, 1442194, 1442789, 1443467, 1444002, 1444579, 1445132, 1445754, 1446354, 1446988, 1447556, 1448130, 1448738, 1449340, 1449925, 1450492, 1451089, 1451679, 1452292, 1452894, 1453475, 1454113]","[1440425, 1441026, 1441626, 1442226, 1442826, 1443426, 1444026, 1444626, 1445168, 1445789, 1446390, 1447023, 1447592, 1448167, 1448774, 1449376, 1449962, 1450528, 1451125, 1451715, 1452326, 1452931, 1453511, 1454149]",58,SB,L,R,ITMSR,1.0,
5,600,trial,0,73,73,73,trial,"['S', 'S', 'S', 'S', 'S', 'S', 'S', 'S', 'C', 'C', 'C', 'C', 'C', 'C', 'C', 'C', 'C', 'C', 'C', 'C', 'C', 'C', 'C', 'C']","[1459675, 1460103, 1460653, 1461249, 1461865, 1462503, 1463049, 1463655, 1464293, 1464907, 1465482, 1466081, 1466643, 1467309, 1467936, 1468533, 1469147, 1469762, 1470427, 1471088, 1471722, 1472319, 1472942, 1473539]","[1459761, 1460204, 1460726, 1461336, 1461939, 1462542, 1463127, 1463751, 1464372, 1464995, 1465577, 1466164, 1466738, 1467414, 1468029, 1468609, 1469235, 1469861, 1470507, 1471187, 1471772, 1472397, 1472990, 1473604]","[250, 0, 107, 181, 101, 206, 221, 191, 126, 151, 218, 74, 154, 169, 35, 90, 83, 91, 47, 149, 213, 161, 134, 164]","[1459714, 1460145, 1460658, 1461254, 1461870, 1462522, 1463055, 1463660, 1464298, 1464912, 1465487, 1466087, 1466648, 1467314, 1467942, 1468538, 1469152, 1469767, 1470433, 1471093, 1471727, 1472323, 1472947, 1473543]","[1459504, 1460103, 1460703, 1461303, 1461903, 1462503, 1463103, 1463702, 1464334, 1464947, 1465523, 1466122, 1466684, 1467350, 1467976, 1468573, 1469188, 1469803, 1470468, 1471128, 1471763, 1472360, 1472983, 1473580]",58,SB,L,R,ITMSR,1.0,
5,600,trial,0,74,74,74,trial,"['S', 'S', 'S', 'S', 'S', 'S', 'S', 'S', 'C', 'C', 'C', 'C', 'C', 'C', 'C', 'C', 'C', 'C', 'C', 'C', 'C', 'C', 'C', 'C']","[1479243, 1479709, 1480241, 1480801, 1481391, 1482017, 1482636, 1483216, 1483825, 1484429, 1485039, 1485655, 1486263, 1486875, 1487459, 1488057, 1488678, 1489289, 1489928, 1490543, 1491158, 1491751, 1492340, 1492968]","[1479314, 1479853, 1480345, 1480913, 1481501, 1482128, 1482746, 1483283, 1483899, 1484535, 1485112, 1485743, 1486325, 1486973, 1487538, 1488168, 1488800, 1489368, 1490004, 1490648, 1491261, 1491864, 1492456, 1493074]","[250, 249, 223, 175, 188, 204, 18, 184, 119, 137, 83, 253, 99, 223, 200, 133, 129, 113, 240, 181, 175, 211, 157, 136]","[1479248, 1479762, 1480283, 1480842, 1481396, 1482022, 1482641, 1483223, 1483828, 1484435, 1485044, 1485661, 1486269, 1486880, 1487464, 1488063, 1488684, 1489294, 1489935, 1490548, 1491163, 1491757, 1492346, 1492973]","[1479084, 1479683, 1480283, 1480883, 1481483, 1482083, 1482683, 1483283, 1483866, 1484470, 1485079, 1485696, 1486304, 1486915, 1487500, 1488098, 1488718, 1489330, 1489969, 1490583, 1491198, 1491791, 1492380, 1493009]",58,SB,L,R,ITMSR,1.0,
5,400,trial,0,75,75,75,trial,"['S', 'S', 'S', 'S', 'S', 'S', 'S', 'S', 'C', 'C', 'C', 'C', 'C', 'C', 'C', 'C', 'C', 'C', 'C', 'C', 'C', 'C', 'C', 'C']","[1498759, 1499121, 1499474, 1499777, 1500122, 1500480, 1500876, 1501318, 1501704, 1502110, 1502466, 1502879, 1503280, 1503664, 1504063, 1504453, 1504838, 1505245, 1505665, 1506055, 1506432, 1506857, 1507264, 1507674]","[1498845, 1499234, 1499597, 1499889, 1500232, 1500590, 1500998, 1501409, 1501803, 1502203, 1502579, 1502957, 1503368, 1503748, 1504168, 1504569, 1504934, 1505336, 1505743, 1506151, 1506520, 1506948, 1507338, 1507764]","[30, 45, 46, 18, 251, 54, 40, 251, 252, 247, 46, 214, 30, 144, 24, 12, 226, 125, 161, 96, 98, 105, 68, 179]","[1498801, 1499168, 1499479, 1499783, 1500183, 1500484, 1500880, 1501323, 1501708, 1502114, 1502470, 1502883, 1503284, 1503668, 1504067, 1504458, 1504842, 1505286, 1505669, 1506060, 1506437, 1506862, 1507269, 1507679]","[1498547, 1498946, 1499346, 1499747, 1500146, 1500547, 1500947, 1501346, 1501745, 1502150, 1502507, 1502919, 1503321, 1503705, 1504104, 1504493, 1504878, 1505286, 1505705, 1506096, 1506472, 1506897, 1507305, 1507715]",58,SB,L,R,ITMSR,1.0,
1,600,trial,0,76,76,76,trial,"['S', 'S', 'S', 'S', 'S', 'S', 'S', 'S', 'C', 'C', 'C', 'C', 'C', 'C', 'C', 'C', 'C', 'C', 'C', 'C', 'C', 'C', 'C', 'C']","[1513305, 1513787, 1514317, 1514877, 1515470, 1516070, 1516681, 1517271, 1517840, 1518449, 1519046, 1519657, 1520312, 1520917, 1521539, 1522132, 1522698, 1523377, 1523956, 1524544, 1525145, 1525718, 1526326, 1526902]","[1513400, 1513886, 1514422, 1514973, 1515557, 1516158, 1516792, 1517383, 1517940, 1518527, 1519157, 1519741, 1520402, 1521024, 1521627, 1522222, 1522813, 1523473, 1524073, 1524662, 1525226, 1525821, 1526436, 1527018]","[189, 194, 0, 227, 227, 194, 236, 228, 193, 221, 214, 191, 119, 174, 203, 209, 190, 125, 151, 151, 115, 139, 42, 105]","[1513345, 1513841, 1514322, 1514883, 1515470, 1516087, 1516685, 1517276, 1517844, 1518453, 1519050, 1519662, 1520317, 1520921, 1521544, 1522137, 1522702, 1523383, 1523961, 1524549, 1525149, 1525722, 1526331, 1526907]","[1513070, 1513670, 1514270, 1514870, 1515470, 1516070, 1516670, 1517271, 1517880, 1518488, 1519085, 1519696, 1520352, 1520957, 1521579, 1522171, 1522738, 1523417, 1523995, 1524584, 1525184, 1525757, 1526366, 1526941]",58,SB,L,R,ITMSR,1.0,
0,600,trial,0,77,77,77,trial,"['S', 'S', 'S', 'S', 'S', 'S', 'S', 'S', 'C', 'C', 'C', 'C', 'C', 'C', 'C', 'C', 'C', 'C', 'C', 'C', 'C', 'C', 'C', 'C']","[1532561, 1532953, 1533535, 1534111, 1534735, 1535343, 1535896, 1536556, 1537135, 1537753, 1538334, 1538933, 1539565, 1540199, 1540846, 1541404, 1542019, 1542633, 1543240, 1543829, 1544437, 1545050, 1545651, 1546285]","[1532632, 1533071, 1533615, 1534212, 1534857, 1535455, 1536056, 1536675, 1537246, 1537860, 1538456, 1539033, 1539617, 1540287, 1540927, 1541497, 1542102, 1542722, 1543343, 1543910, 1544477, 1545136, 1545765, 1546411]","[68, 0, 60, 43, 198, 196, 14, 217, 218, 248, 251, 193, 157, 150, 114, 167, 96, 143, 92, 46, 172, 83, 127, 91]","[1532569, 1532959, 1533552, 1534140, 1534735, 1535349, 1535900, 1536561, 1537142, 1537759, 1538339, 1538938, 1539568, 1540204, 1540853, 1541410, 1542025, 1542639, 1543248, 1543836, 1544443, 1545059, 1545711, 1546292]","[1532336, 1532935, 1533535, 1534135, 1534735, 1535335, 1535935, 1536534, 1537175, 1537794, 1538374, 1538973, 1539606, 1540240, 1540886, 1541444, 1542060, 1542674, 1543280, 1543870, 1544477, 1545091, 1545692, 1546326]",58,SB,L,R,ITMSR,1.0,
0,400,trial,0,78,78,78,trial,"['S', 'S', 'S', 'S', 'S', 'S', 'S', 'S', 'C', 'C', 'C', 'C', 'C', 'C', 'C', 'C', 'C', 'C', 'C', 'C', 'C', 'C', 'C', 'C', 'C']","[1566352, 1566750, 1567124, 1567455, 1567765, 1568122, 1568523, 1568914, 1569326, 1569683, 1570051, 1570395, 1570753, 1571090, 1571410, 1571752, 1572086, 1572418, 1572737, 1573060, 1573377, 1573669, 1573993, 1574290, 1574568]","[1566455, 1566844, 1567228, 1567560, 1567876, 1568202, 1568598, 1569014, 1569426, 1569779, 1570137, 1570493, 1570830, 1571197, 1571529, 1571860, 1572186, 1572504, 1572825, 1573155, 1573471, 1573754, 1574059, 1574372]","[18, 14, 31, 78, 63, 81, 18, 101, 85, 83, 38, 76, 38, 78, 74, 38, 37, 57, 15, 24, 6, 26, 235, 20]","[1566398, 1566754, 1567128, 1567459, 1567766, 1568128, 1568528, 1568918, 1569330, 1569687, 1570055, 1570399, 1570757, 1571093, 1571414, 1571757, 1572090, 1572422, 1572742, 1573064, 1573382, 1573673, 1573998, 1574294]","[1566166, 1566565, 1566964, 1567365, 1567765, 1568164, 1568565, 1568964, 1569367, 1569724, 1570092, 1570436, 1570794, 1571131, 1571450, 1571792, 1572126, 1572459, 1572777, 1573100, 1573417, 1573709, 1574034, 1574331]",58,SB,L,R,ITMSR,1.0,
3,600,trial,0,79,79,79,trial,"['S', 'S', 'S', 'S', 'S', 'S', 'S', 'S', 'C', 'C', 'C', 'C', 'C', 'C', 'C', 'C', 'C', 'C', 'C', 'C', 'C', 'C', 'C', 'C']","[1580217, 1580618, 1581177, 1581812, 1582438, 1582993, 1583575, 1584184, 1584809, 1585396, 1585987, 1586586, 1587205, 1587821, 1588418, 1589065, 1589680, 1590260, 1590862, 1591481, 1592055, 1592689, 1593302, 1593894]","[1580299, 1580745, 1581285, 1581916, 1582520, 1583075, 1583669, 1584269, 1584873, 1585460, 1586053, 1586659, 1587275, 1587884, 1588490, 1589155, 1589758, 1590340, 1590950, 1591558, 1592143, 1592756, 1593405, 1593976]","[75, 248, 39, 51, 249, 245, 186, 200, 150, 109, 142, 143, 127, 122, 89, 154, 128, 160, 193, 166, 204, 126, 181, 148]","[1580221, 1580624, 1581181, 1581816, 1582442, 1582998, 1583581, 1584189, 1584815, 1585402, 1585992, 1586590, 1587211, 1587828, 1588424, 1589070, 1589686, 1590266, 1590867, 1591486, 1592060, 1592695, 1593307, 1593899]","[1580068, 1580668, 1581268, 1581869, 1582469, 1583069, 1583669, 1584269, 1584849, 1585436, 1586028, 1586626, 1587246, 1587862, 1588459, 1589105, 1589721, 1590300, 1590902, 1591522, 1592095, 1592729, 1593342, 1593934]",58,SB,L,R,ITMSR,1.0,
1,600,trial,0,80,80,80,trial,"['S', 'S', 'S', 'S', 'S', 'S', 'S', 'S', 'C', 'C', 'C', 'C', 'C', 'C', 'C', 'C', 'C', 'C', 'C', 'C', 'C', 'C', 'C', 'C']","[1599767, 1600140, 1600685, 1601325, 1601876, 1602486, 1603129, 1603699, 1604249, 1604813, 1605417, 1606010, 1606594, 1607166, 1607780, 1608392, 1609005, 1609585, 1610246, 1610888, 1611486, 1612065, 1612686, 1613313]","[1599854, 1600288, 1600820, 1601447, 1602003, 1602606, 1603238, 1603824, 1604371, 1604926, 1605529, 1606102, 1606688, 1607266, 1607881, 1608502, 1609081, 1609697, 1610341, 1610971, 1611563, 1612178, 1612780, 1613414]","[226, 4, 27, 23, 12, 253, 249, 21, 241, 237, 217, 182, 163, 147, 177, 184, 156, 211, 156, 172, 126, 123, 107, 176]","[1599805, 1600206, 1600689, 1601329, 1601881, 1602490, 1603133, 1603703, 1604294, 1604818, 1605476, 1606014, 1606599, 1607171, 1607785, 1608396, 1609010, 1609590, 1610251, 1610892, 1611491, 1612070, 1612690, 1613317]","[1599577, 1600177, 1600777, 1601377, 1601977, 1602577, 1603177, 1603776, 1604288, 1604852, 1605456, 1606049, 1606634, 1607205, 1607820, 1608431, 1609044, 1609624, 1610286, 1610928, 1611526, 1612104, 1612726, 1613352]",58,SB,L,R,ITMSR,1.0,
1,400,trial,0,81,81,81,trial,"['S', 'S', 'S', 'S', 'S', 'S', 'S', 'S', 'C', 'C', 'C', 'C', 'C', 'C', 'C', 'C', 'C', 'C', 'C', 'C', 'C', 'C', 'C', 'C', 'C']","[1619134, 1619524, 1619801, 1620128, 1620540, 1620908, 1621314, 1621702, 1622096, 1622452, 1622814, 1623193, 1623537, 1623891, 1624249, 1624602, 1624936, 1625276, 1625598, 1625910, 1626229, 1626513, 1627074, 1627526, 1627922]","[1619216, 1619631, 1619937, 1620240, 1620647, 1621026, 1621386, 1621813, 1622212, 1622567, 1622906, 1623275, 1623638, 1624002, 1624359, 1624697, 1625047, 1625388, 1625715, 1626011, 1626328, 1626633, 1627205, 1627645, 1628038]","[35, 47, 99, 78, 61, 66, 160, 253, 0, 255, 22, 220, 18, 209, 203, 183, 11, 195, 234, 222, 204, 230, 7, 239, 235]","[1619171, 1619566, 1619860, 1620179, 1620544, 1620912, 1621320, 1621706, 1622102, 1622457, 1622818, 1623198, 1623541, 1623897, 1624307, 1624606, 1624940, 1625322, 1625655, 1625955, 1626233, 1626517, 1627132, 1627586, 1627976]","[1618975, 1619376, 1619776, 1620176, 1620577, 1620976, 1621377, 1621777, 1622135, 1622492, 1622853, 1623232, 1623576, 1623930, 1624289, 1624641, 1624976, 1625316, 1625637, 1625950, 1626268, 1627114, 1627566, 1627962]",58,SB,L,R,ITMSR,1.0,
2,400,trial,0,82,82,82,trial,"['S', 'S', 'S', 'S', 'S', 'S', 'S', 'S', 'C', 'C', 'C', 'C', 'C', 'C', 'C', 'C', 'C', 'C', 'C', 'C', 'C', 'C', 'C', 'C']","[1633879, 1634283, 1634550, 1634874, 1635257, 1635641, 1636058, 1636452, 1636856, 1637218, 1637592, 1637976, 1638339, 1638744, 1639157, 1639533, 1639918, 1640312, 1640702, 1641083, 1641457, 1641848, 1642269, 1642681]","[1633947, 1634383, 1634683, 1634985, 1635368, 1635740, 1636161, 1636534, 1636963, 1637330, 1637696, 1638082, 1638451, 1638836, 1639242, 1639645, 1640027, 1640419, 1640805, 1641184, 1641569, 1641956, 1642366, 1642782]","[0, 34, 84, 35, 28, 10, 231, 220, 5, 255, 194, 204, 191, 122, 133, 170, 178, 209, 183, 84, 178, 166, 179, 185]","[1633909, 1634324, 1634610, 1634878, 1635261, 1635646, 1636100, 1636457, 1636861, 1637261, 1637595, 1638018, 1638400, 1638748, 1639162, 1639574, 1639923, 1640317, 1640743, 1641139, 1641497, 1641888, 1642309, 1642723]","[1633731, 1634130, 1634531, 1634930, 1635331, 1635731, 1636130, 1636531, 1636896, 1637259, 1637633, 1638017, 1638380, 1638785, 1639197, 1639574, 1639958, 1640352, 1640742, 1641123, 1641497, 1641888, 1642309, 1642722]",58,SB,L,R,ITMSR,1.0,
0,400,trial,0,83,83,83,trial,"['S', 'S', 'S', 'S', 'S', 'S', 'S', 'S', 'C', 'C', 'C', 'C', 'C', 'C', 'C', 'C', 'C', 'C', 'C', 'C', 'C', 'C', 'C', 'C']","[1648203, 1648560, 1648858, 1649187, 1649565, 1649930, 1650328, 1650709, 1651091, 1651470, 1651858, 1652227, 1652603, 1652978, 1653379, 1653790, 1654148, 1654507, 1654890, 1655283, 1655680, 1656010, 1656448, 1656830]","[1648303, 1648686, 1649012, 1649336, 1649684, 1650055, 1650461, 1650837, 1651177, 1651584, 1651966, 1652312, 1652703, 1653094, 1653474, 1653890, 1654253, 1654611, 1655010, 1655407, 1655788, 1656141, 1656562, 1656924]","[172, 50, 87, 97, 6, 39, 55, 28, 213, 9, 204, 97, 137, 184, 149, 145, 181, 137, 189, 176, 151, 198, 39, 32]","[1648248, 1648618, 1648921, 1649256, 1649612, 1649988, 1650387, 1650764, 1651132, 1651474, 1651900, 1652268, 1652654, 1653037, 1653420, 1653831, 1654196, 1654548, 1654934, 1655337, 1655736, 1656079, 1656502, 1656871]","[1648037, 1648437, 1648836, 1649236, 1649637, 1650036, 1650437, 1650837, 1651132, 1651511, 1651899, 1652268, 1652643, 1653018, 1653420, 1653830, 1654189, 1654548, 1654931, 1655323, 1655720, 1656050, 1656488, 1656870]",58,SB,L,R,ITMSR,1.0,
4,400,trial,0,84,84,84,trial,"['S', 'S', 'S', 'S', 'S', 'S', 'S', 'S', 'C', 'C', 'C', 'C', 'C', 'C', 'C', 'C', 'C', 'C', 'C', 'C', 'C', 'C', 'C', 'C']","[1662566, 1662969, 1663335, 1663676, 1664060, 1664427, 1664812, 1665206, 1665564, 1665929, 1666342, 1666734, 1667130, 1667490, 1667892, 1668260, 1668682, 1669059, 1669457, 1669829, 1670220, 1670589, 1670970, 1671352]","[1662660, 1663089, 1663455, 1663797, 1664143, 1664514, 1664911, 1665290, 1665652, 1666019, 1666429, 1666849, 1667249, 1667595, 1667990, 1668381, 1668794, 1669158, 1669531, 1669946, 1670334, 1670699, 1671058, 1671463]","[38, 48, 69, 90, 212, 69, 241, 135, 165, 119, 92, 219, 186, 175, 46, 140, 109, 71, 203, 74, 93, 69, 82, 123]","[1662570, 1663029, 1663375, 1663722, 1664066, 1664430, 1664816, 1665232, 1665570, 1665968, 1666345, 1666739, 1667190, 1667493, 1667896, 1668265, 1668746, 1669120, 1669465, 1669835, 1670280, 1670635, 1671014, 1671394]","[1662406, 1662806, 1663206, 1663605, 1664006, 1664405, 1664805, 1665206, 1665602, 1665968, 1666380, 1666772, 1667169, 1667528, 1667931, 1668298, 1668720, 1669098, 1669495, 1669867, 1670258, 1670628, 1671009, 1671391]",58,SB,L,R,ITMSR,1.0,
5,600,trial,0,85,85,85,trial,"['S', 'S', 'S', 'S', 'S', 'S', 'S', 'S', 'C', 'C', 'C', 'C', 'C', 'C', 'C', 'C', 'C', 'C', 'C', 'C', 'C', 'C', 'C', 'C']","[1677086, 1677426, 1678001, 1678696, 1679244, 1679811, 1680406, 1681010, 1681635, 1682282, 1682862, 1683496, 1684124, 1684728, 1685379, 1686007, 1686634, 1687256, 1687841, 1688424, 1689044, 1689753, 1690381, 1690977]","[1677163, 1677557, 1678113, 1678784, 1679354, 1679931, 1680519, 1681104, 1681712, 1682348, 1682945, 1683580, 1684208, 1684823, 1685455, 1686087, 1686727, 1687339, 1687928, 1688487, 1689115, 1689824, 1690461, 1691059]","[219, 11, 3, 172, 9, 253, 13, 1, 221, 105, 207, 150, 109, 63, 105, 119, 219, 191, 20, 209, 139, 182, 200, 185]","[1677128, 1677500, 1678045, 1678735, 1679284, 1679815, 1680409, 1681014, 1681638, 1682287, 1682866, 1683501, 1684129, 1684785, 1685385, 1686014, 1686639, 1687261, 1687847, 1688429, 1689050, 1689757, 1690385, 1690981]","[1676876, 1677475, 1678075, 1678675, 1679276, 1679876, 1680476, 1681076, 1681676, 1682323, 1682903, 1683536, 1684164, 1684768, 1685420, 1686047, 1686675, 1687297, 1687881, 1688465, 1689084, 1689793, 1690422, 1691018]",58,SB,L,R,ITMSR,1.0,
2,600,trial,0,86,86,86,trial,"['S', 'S', 'S', 'S', 'S', 'S', 'S', 'S', 'C', 'C', 'C', 'C', 'C', 'C', 'C', 'C', 'C', 'C', 'C', 'C', 'C', 'C', 'C', 'C']","[1696880, 1697305, 1697788, 1698332, 1698921, 1699512, 1700065, 1700652, 1701202, 1701739, 1702340, 1702930, 1703548, 1704161, 1704729, 1705290, 1705905, 1706513, 1707104, 1707685, 1708271, 1708889, 1709453, 1710074]","[1696951, 1697419, 1697872, 1698436, 1699006, 1699589, 1700145, 1700732, 1701300, 1701821, 1702420, 1703002, 1703645, 1704235, 1704794, 1705383, 1705954, 1706590, 1707176, 1707761, 1708323, 1708966, 1709544, 1710155]","[58, 9, 208, 208, 149, 54, 71, 33, 125, 68, 11, 50, 25, 14, 202, 250, 31, 20, 41, 188, 212, 198, 23, 39]","[1696918, 1697358, 1697810, 1698365, 1698957, 1699518, 1700072, 1700658, 1701243, 1701744, 1702346, 1702935, 1703556, 1704169, 1704737, 1705345, 1705911, 1706554, 1707111, 1707726, 1708278, 1708898, 1709459, 1710080]","[1696589, 1697188, 1697788, 1698388, 1698989, 1699589, 1700189, 1700789, 1701242, 1701780, 1702380, 1702971, 1703588, 1704202, 1704769, 1705330, 1705946, 1706554, 1707145, 1707725, 1708311, 1708930, 1709494, 1710114]",58,SB,L,R,ITMSR,1.0,
5,400,trial,0,87,87,87,trial,"['S', 'S', 'S', 'S', 'S', 'S', 'S', 'C', 'C', 'C', 'C', 'C', 'C', 'C', 'C', 'C', 'C', 'C', 'C', 'C', 'C', 'C', 'C']","[1715990, 1716447, 1716847, 1717267, 1717664, 1718083, 1718454, 1718870, 1719243, 1719610, 1719998, 1720371, 1720762, 1721140, 1721507, 1721903, 1722324, 1722723, 1723109, 1723504, 1723888, 1724312, 1724713]","[1716071, 1716550, 1716937, 1717371, 1717771, 1718156, 1718546, 1718947, 1719347, 1719730, 1720077, 1720482, 1720864, 1721232, 1721594, 1721995, 1722405, 1722813, 1723183, 1723580, 1723964, 1724396, 1724807]","[208, 252, 252, 195, 253, 191, 211, 109, 199, 207, 140, 169, 130, 110, 96, 134, 74, 11, 41, 33, 77, 16, 71]","[1716029, 1716452, 1716850, 1717271, 1717668, 1718087, 1718458, 1718875, 1719247, 1719614, 1720001, 1720378, 1720805, 1721145, 1721511, 1721907, 1722364, 1722765, 1723151, 1723511, 1723895, 1724353, 1724753]","[1715815, 1716214, 1716615, 1717014, 1717414, 1717815, 1718214, 1718615, 1718910, 1719283, 1719651, 1720039, 1720412, 1720803, 1721181, 1721547, 1721944, 1722364, 1722764, 1723150, 1723544, 1723928, 1724353, 1724753]",58,SB,L,R,ITMSR,1.0,
