pitch,ioi,event,.thisRepN,.thisTrialN,.thisN,.thisIndex,event,tap_types,tap_times,release_times,peak_pressures,peak_times,tone_times,subject,experimenter,register,handedness,experiment,version,
,,SPR,0,-1,-1,0,SPR,"['P', 'P', 'P', 'P', 'P', 'P', 'P', 'P', 'P', 'P', 'P', 'P', 'P', 'P', 'P', 'P', 'P', 'P', 'P', 'P', 'P', 'P', 'P', 'P', 'P', 'P', 'P', 'P', 'P', 'P']","[36674, 37303, 37891, 38524, 39189, 39853, 40478, 41145, 41778, 42361, 42959, 43670, 44281, 44946, 45564, 46217, 46837, 47503, 48123, 48719, 49344, 50002, 50614, 51250, 51898, 52539, 53218, 53817, 54445, 55098]","[36790, 37400, 38009, 38617, 39290, 39929, 40564, 41195, 41863, 42466, 43064, 43756, 44344, 45007, 45652, 46324, 46941, 47608, 48209, 48826, 49433, 50102, 50700, 51275, 51999, 52604, 53314, 53910, 54529, 55183]","[100, 62, 246, 64, 61, 85, 124, 170, 91, 74, 43, 5, 23, 139, 171, 6, 2, 117, 231, 134, 53, 86, 123, 131, 174, 133, 152, 161, 140, 139]","[36679, 37308, 37895, 38528, 39193, 39857, 40481, 41149, 41783, 42366, 42963, 43674, 44284, 44952, 45570, 46222, 46841, 47507, 48129, 48722, 49347, 50007, 50617, 51253, 51901, 52542, 53223, 53820, 54450, 55101]",,99,EM,U,R,ITMSR,1.1,
5,500,practice,0,0,0,0,practice,"['S', 'S', 'S', 'S', 'S', 'S', 'S', 'C', 'C', 'C', 'C', 'C', 'C', 'C', 'C', 'C', 'C', 'C', 'C', 'C', 'C', 'C', 'C']","[164234, 164749, 165262, 165779, 166288, 166801, 167275, 167788, 168309, 168785, 169276, 169749, 170228, 170731, 171232, 171709, 172193, 172680, 173166, 173637, 174112, 174615, 175111]","[164466, 164913, 165407, 165912, 166417, 166922, 167383, 167897, 168365, 168889, 169380, 169867, 170328, 170827, 171335, 171797, 172296, 172766, 173268, 173757, 174226, 174698, 175190]","[21, 222, 31, 46, 25, 90, 64, 35, 0, 43, 15, 54, 24, 0, 224, 2, 247, 218, 9, 245, 211, 234, 210]","[164288, 164755, 165267, 165783, 166293, 166805, 167279, 167793, 168314, 168790, 169281, 169754, 170232, 170735, 171236, 171714, 172196, 172684, 173170, 173641, 174116, 174620, 175116]","[163811, 164311, 164810, 165310, 165810, 166310, 166810, 167310, 167809, 168329, 168805, 169296, 169769, 170248, 170752, 171252, 171729, 172213, 172700, 173186, 173657, 174132, 174636, 175131]",99,EM,U,R,ITMSR,1.1,
1,500,practice,0,1,1,1,practice,"['S', 'S', 'S', 'S', 'S', 'S', 'S', 'S', 'C', 'C', 'C', 'C', 'C', 'C', 'C', 'C', 'C', 'C', 'C', 'C', 'C', 'C', 'C', 'C']","[180495, 180961, 181425, 181888, 182377, 182842, 183343, 183856, 184329, 184711, 185128, 185629, 186172, 186637, 187088, 187524, 188009, 188439, 188935, 189413, 189905, 190383, 190851, 191319]","[180575, 181054, 181561, 182054, 182478, 182941, 183449, 183940, 184418, 184850, 185510, 185930, 186312, 186786, 187225, 187721, 188136, 188580, 189040, 189492, 189979, 190454, 190942, 191413]","[205, 186, 139, 24, 142, 61, 198, 227, 128, 141, 139, 3, 162, 83, 83, 81, 66, 38, 87, 34, 135, 141, 161, 79]","[180501, 180965, 181430, 181892, 182385, 182847, 183349, 183861, 184335, 184717, 185293, 185635, 186246, 186711, 187182, 187609, 188081, 188516, 188941, 189418, 189911, 190387, 190857, 191323]","[180440, 180940, 181440, 181940, 182440, 182940, 183440, 183940, 184349, 184731, 185148, 185649, 186192, 186657, 187108, 187544, 188029, 188460, 188955, 189433, 189925, 190403, 190871, 191339]",99,EM,U,R,ITMSR,1.1,
2,500,practice,0,2,2,2,practice,"['S', 'S', 'S', 'S', 'S', 'S', 'S', 'C', 'C', 'C', 'C', 'C', 'C', 'C', 'C', 'C', 'C', 'C', 'C', 'C', 'C', 'C', 'C']","[197124, 197640, 198145, 198638, 199138, 199620, 200142, 200645, 201142, 201643, 202132, 202596, 203068, 203587, 204055, 204568, 205010, 205546, 206023, 206458, 206989, 207484, 207933]","[197226, 197747, 198258, 198750, 199241, 199709, 200243, 200740, 201364, 201793, 202209, 202663, 203194, 203682, 204158, 204617, 205107, 205646, 206101, 206583, 207098, 207603, 208062]","[173, 109, 212, 43, 177, 45, 104, 31, 211, 208, 208, 68, 134, 235, 154, 39, 205, 192, 63, 26, 18, 49, 104]","[197131, 197647, 198194, 198643, 199145, 199625, 200151, 200648, 201317, 201710, 202136, 202603, 203075, 203593, 204062, 204572, 205018, 205590, 206028, 206466, 206996, 207541, 207939]","[196758, 197258, 197758, 198258, 198758, 199258, 199758, 200258, 200665, 201162, 201663, 202152, 202616, 203088, 203608, 204076, 204589, 205030, 205566, 206043, 206478, 207009, 207504, 207953]",99,EM,U,R,ITMSR,1.1,
3,500,practice,0,3,3,3,practice,"['S', 'S', 'S', 'S', 'S', 'S', 'S', 'C', 'C', 'C', 'C', 'C', 'C', 'C', 'C', 'C', 'C', 'C', 'C', 'C', 'C', 'C', 'C']","[213647, 214204, 214771, 215252, 215757, 216247, 216732, 217242, 217764, 218236, 218702, 219142, 219724, 220224, 220744, 221261, 221772, 222243, 222725, 223237, 223718, 224191, 224653]","[213805, 214297, 214860, 215339, 215853, 216411, 216881, 217437, 217895, 218433, 218875, 219396, 219889, 220447, 220937, 221440, 221937, 222400, 222925, 223432, 223886, 224331, 224752]","[221, 102, 4, 85, 90, 198, 115, 112, 35, 139, 110, 182, 119, 5, 232, 145, 152, 192, 220, 175, 189, 142, 98]","[213736, 214209, 214778, 215259, 215816, 216309, 216775, 217336, 217833, 218350, 218806, 219266, 219808, 220320, 220848, 221265, 221776, 222325, 222816, 223315, 223801, 224243, 224658]","[213285, 213785, 214285, 214786, 215286, 215786, 216286, 216786, 217262, 217784, 218256, 218722, 219162, 219744, 220244, 220764, 221281, 221792, 222263, 222745, 223257, 223738, 224211, 224673]",99,EM,U,R,ITMSR,1.1,
4,500,practice,0,4,4,4,practice,"['S', 'S', 'S', 'S', 'S', 'S', 'S', 'C', 'C', 'C', 'C', 'C', 'C', 'C', 'C', 'C', 'C', 'C', 'C', 'C', 'C', 'C', 'C']","[230380, 230945, 231542, 232039, 232529, 233039, 233550, 234038, 234548, 235051, 235512, 235981, 236469, 236897, 237430, 237936, 238392, 238905, 239326, 239833, 240319, 240800, 241281]","[230553, 231138, 231725, 232156, 232679, 233175, 233654, 234193, 234727, 235153, 235664, 236118, 236593, 237058, 237547, 237978, 238507, 238963, 239420, 240017, 240452, 240953, 241394]","[114, 33, 83, 245, 56, 82, 15, 106, 53, 52, 74, 25, 48, 77, 39, 2, 205, 168, 41, 104, 71, 137, 80]","[230463, 231017, 231612, 232080, 232598, 233044, 233556, 234043, 234631, 235056, 235517, 236034, 236474, 236977, 237436, 237942, 238445, 238912, 239332, 239929, 240324, 240863, 241285]","[230112, 230612, 231112, 231612, 232112, 232612, 233112, 233612, 234058, 234568, 235071, 235532, 236001, 236489, 236917, 237450, 237956, 238412, 238925, 239346, 239853, 240339, 240820, 241301]",99,EM,U,R,ITMSR,1.1,
0,500,practice,0,5,5,5,practice,"['S', 'S', 'S', 'S', 'S', 'S', 'S', 'C', 'C', 'C', 'C', 'C', 'C', 'C', 'C', 'C', 'C', 'C', 'C', 'C', 'C', 'C', 'C']","[247269, 247774, 248313, 248799, 249349, 249871, 250379, 250927, 251472, 251911, 252339, 252828, 253248, 253741, 254231, 254699, 255187, 255617, 256110, 256579, 257015, 257515, 257970]","[247404, 247938, 248462, 248975, 249512, 250014, 250526, 251047, 251593, 252003, 252462, 252908, 253344, 253856, 254325, 254802, 255300, 255754, 256237, 256650, 257114, 257606, 258081]","[229, 15, 9, 129, 86, 138, 82, 184, 69, 56, 41, 124, 14, 26, 6, 218, 125, 178, 42, 20, 121, 16, 62]","[247317, 247858, 248383, 248859, 249416, 249942, 250385, 250978, 251478, 251915, 252343, 252832, 253254, 253799, 254237, 254703, 255192, 255621, 256115, 256584, 257019, 257522, 257975]","[247052, 247553, 248052, 248552, 249052, 249552, 250052, 250552, 250947, 251492, 251931, 252359, 252848, 253268, 253761, 254252, 254720, 255207, 255637, 256130, 256600, 257035, 257536, 257990]",99,EM,U,R,ITMSR,1.1,
0,600,trial,0,6,6,6,trial,"['S', 'S', 'S', 'S', 'S', 'S', 'S', 'S', 'C', 'C', 'C', 'C', 'C', 'C', 'C', 'C', 'C', 'C', 'C', 'C', 'C', 'C', 'C', 'C']","[314613, 314902, 315512, 316168, 316725, 317281, 317888, 318539, 319163, 319644, 320223, 320745, 321265, 321721, 322245, 322738, 323202, 323744, 324314, 324851, 325394, 325888, 326425, 326915]","[314745, 315058, 315740, 316307, 316873, 317484, 318086, 318654, 319298, 319801, 320400, 320925, 321390, 321882, 322449, 322918, 323411, 324019, 324557, 325041, 325547, 326064, 326555, 327095]","[249, 52, 186, 55, 239, 51, 28, 56, 186, 76, 116, 79, 98, 141, 149, 161, 142, 103, 80, 78, 83, 240, 233, 130]","[314618, 314906, 315517, 316252, 316785, 317363, 317980, 318545, 319167, 319650, 320312, 320824, 321271, 321788, 322347, 322835, 323308, 323848, 324320, 324932, 325401, 325960, 326430, 326919]","[314458, 315058, 315658, 316258, 316858, 317458, 318058, 318658, 319183, 319664, 320243, 320765, 321285, 321741, 322265, 322758, 323222, 323764, 324334, 324871, 325414, 325908, 326445, 326935]",99,EM,U,R,ITMSR,1.1,
5,400,trial,0,7,7,7,trial,"['S', 'S', 'S', 'S', 'S', 'S', 'C', 'C', 'C', 'C', 'C', 'C', 'C', 'C', 'C', 'C', 'C', 'C', 'C', 'C', 'C', 'C', 'C', 'C']","[332766, 333403, 334023, 334123, 334657, 335354, 336622, 337149, 337852, 338352, 339021, 339548, 340152, 340726, 341308, 341873, 342447, 343008, 343631, 344193, 344762, 344862, 345328, 345430]","[332931, 333594, 334043, 334246, 334879, 335541, 336823, 337494, 338066, 338660, 339220, 339749, 340324, 340843, 341478, 341996, 342593, 343198, 343817, 344345, 344782, 344882, 345348, 345450]","[87, 134, 200, 200, 87, 61, 109, 137, 27, 111, 118, 208, 176, 123, 31, 206, 153, 86, 97, 255, 201, 111, 242, 52]","[332771, 333511, 334028, 334172, 334662, 335361, 336744, 337404, 337947, 338525, 339026, 339554, 340160, 340732, 341315, 341879, 342453, 343016, 343639, 344198, 344768, 344864, 345335, 345430]","[332403, 332803, 333203, 333603, 334003, 334403, 334803, 335203, 336642, 337169, 337872, 338372, 339041, 339568, 340172, 340746, 341328, 341893, 342467, 343028, 343651, 344213, 344782, 345348]",99,EM,U,R,ITMSR,1.1,
3,600,trial,0,8,8,8,trial,"['S', 'S', 'S', 'S', 'S', 'S', 'S', 'S', 'C', 'C', 'C', 'C', 'C', 'C', 'C', 'C', 'C', 'C', 'C', 'C', 'C', 'C', 'C', 'C']","[351250, 351856, 352368, 352866, 353421, 353978, 354573, 355145, 355744, 356376, 356944, 357481, 358031, 358553, 359158, 359687, 360255, 360832, 361390, 362013, 362553, 363097, 363632, 364236]","[351447, 351995, 352473, 353080, 353672, 354229, 354787, 355319, 355852, 356537, 357082, 357632, 358265, 358708, 359349, 359904, 360457, 360998, 361610, 362121, 362660, 363227, 363765, 364362]","[172, 211, 38, 130, 159, 98, 128, 98, 84, 56, 138, 141, 151, 176, 208, 25, 234, 168, 227, 155, 85, 137, 123, 88]","[351257, 351860, 352376, 352872, 353430, 353982, 354579, 355151, 355752, 356444, 356952, 357487, 358039, 358561, 359257, 359819, 360363, 360928, 361396, 362021, 362560, 363142, 363637, 364242]","[351139, 351739, 352339, 352940, 353539, 354139, 354739, 355339, 355764, 356397, 356964, 357501, 358051, 358573, 359178, 359707, 360275, 360852, 361410, 362033, 362573, 363117, 363652, 364256]",99,EM,U,R,ITMSR,1.1,
4,400,trial,0,9,9,9,trial,"['S', 'S', 'S', 'S', 'S', 'S', 'C', 'C', 'C', 'C', 'C', 'C', 'C', 'C', 'C', 'C', 'C', 'C', 'C', 'C', 'C', 'C', 'C', 'C', 'C', 'C']","[369772, 370386, 371041, 371629, 371729, 372221, 372811, 373419, 374067, 374699, 375609, 376248, 376885, 376985, 377409, 378050, 378693, 378795, 379313, 379413, 379910, 380461, 381100, 381680, 382550, 382650]","[369999, 370649, 371278, 371649, 371816, 372360, 373024, 373592, 374306, 374922, 375789, 376652, 376905, 377042, 377567, 378203, 378713, 378862, 379333, 379465, 380026, 380645, 381248, 381816, 382570, 382742]","[33, 51, 11, 3, 213, 133, 97, 208, 55, 46, 46, 252, 150, 255, 197, 152, 26, 56, 240, 35, 42, 65, 205, 156, 250, 7]","[369904, 370534, 371048, 371633, 371747, 372229, 372818, 373425, 374222, 374843, 375616, 376339, 376894, 377001, 377502, 378122, 378703, 378810, 379319, 379413, 379978, 380576, 381192, 381765, 382558, 382700]","[369593, 369993, 370393, 370793, 371193, 371593, 371993, 372393, 372831, 373439, 374087, 374719, 375629, 376268, 376905, 377430, 378071, 378713, 379333, 379930, 380481, 381120, 381700, 382570]",99,EM,U,R,ITMSR,1.1,
4,600,trial,0,10,10,10,trial,"['B', 'S', 'S', 'S', 'S', 'S', 'S', 'S', 'S', 'C', 'C', 'C', 'C', 'C', 'C', 'C', 'C', 'C', 'C', 'C', 'C', 'C', 'C', 'C', 'C', 'C', 'C', 'C', 'C', 'C', 'C', 'C', 'C']","[388300, 388742, 388842, 389368, 390338, 390801, 391267, 391841, 392455, 393080, 393659, 394214, 394314, 394777, 394878, 395333, 395435, 395917, 396017, 396485, 396587, 397007, 397107, 397537, 397637, 398166, 398764, 398864, 399353, 399879, 400424, 400997, 401558]","[388320, 388762, 388941, 389506, 390435, 390901, 391433, 391987, 392584, 393177, 393772, 394234, 394334, 394797, 394898, 395353, 395473, 395937, 396145, 396505, 396661, 397027, 397232, 397557, 397698, 398309, 398784, 398884, 399455, 399899, 400444, 401017, 401579]","[116, 118, 0, 210, 82, 174, 172, 170, 74, 196, 197, 103, 180, 114, 109, 99, 140, 101, 210, 230, 242, 112, 152, 112, 148, 137, 111, 54, 85, 145, 97, 113, 97]","[388300, 388746, 388860, 389450, 390375, 390809, 391336, 391914, 392495, 393117, 393717, 394215, 394314, 394781, 394878, 395337, 395435, 395921, 396055, 396490, 396590, 397010, 397107, 397540, 397637, 398245, 398768, 398864, 399362, 399884, 400429, 401000, 401563]","[388313, 388913, 389513, 390113, 390713, 391313, 391913, 392513, 393100, 393679, 394234, 394797, 395353, 395937, 396505, 397027, 397557, 398186, 398784, 399373, 399899, 400444, 401017, 401579]",99,EM,U,R,ITMSR,1.1,
2,600,trial,0,11,11,11,trial,"['S', 'S', 'S', 'S', 'S', 'S', 'S', 'S', 'S', 'S', 'C', 'C', 'C', 'C', 'C', 'C', 'C', 'C', 'C', 'C', 'C', 'C', 'C', 'C', 'C', 'C', 'C', 'C', 'C']","[407331, 407985, 408561, 409162, 409782, 409882, 410424, 410524, 411116, 411611, 411711, 412328, 412905, 413005, 413492, 413592, 414042, 414611, 415164, 415751, 416288, 416838, 417367, 418046, 418650, 419182, 419678, 420150, 420250]","[407529, 408183, 408730, 409325, 409802, 409984, 410444, 410584, 411245, 411631, 411800, 412478, 412925, 413067, 413512, 413612, 414176, 414631, 415184, 415771, 416421, 416858, 417387, 418066, 418670, 419289, 419698, 420170, 420278]","[243, 144, 96, 50, 254, 235, 162, 181, 18, 243, 37, 223, 251, 231, 8, 75, 230, 164, 108, 168, 208, 57, 169, 187, 47, 193, 225, 4, 110]","[407457, 408083, 408654, 409167, 409786, 409882, 410430, 410524, 411195, 411617, 411711, 412426, 412911, 413009, 413499, 413592, 414130, 414619, 415168, 415757, 416379, 416843, 417372, 418050, 418653, 419188, 419684, 420150, 420260]","[407241, 407841, 408441, 409041, 409641, 410242, 410842, 411442, 411731, 412348, 412925, 413512, 414062, 414631, 415184, 415771, 416308, 416858, 417387, 418066, 418670, 419202, 419698, 420170]",99,EM,U,R,ITMSR,1.1,
1,400,trial,0,12,12,12,trial,"['B', 'S', 'S', 'S', 'S', 'S', 'C', 'C', 'C', 'C', 'C', 'C', 'C', 'C', 'C', 'C', 'C', 'C', 'C', 'C', 'C', 'C']","[425865, 426327, 426865, 427350, 427917, 428446, 429012, 429580, 430174, 430757, 431301, 431946, 432525, 433074, 433586, 434104, 434612, 435154, 435657, 436218, 436729, 437237]","[425954, 426446, 426990, 427570, 428097, 428563, 429218, 429752, 430385, 430910, 431461, 432089, 432660, 433167, 433700, 434241, 434741, 435272, 435780, 436288, 436837, 437342]","[85, 173, 171, 112, 177, 53, 20, 31, 222, 34, 34, 1, 21, 243, 227, 9, 204, 153, 214, 66, 241, 147]","[425876, 426332, 426872, 427355, 427921, 428452, 429019, 429648, 430272, 430817, 431385, 431952, 432585, 433080, 433594, 434111, 434670, 435216, 435664, 436225, 436738, 437243]","[425876, 426276, 426676, 427076, 427476, 427876, 428276, 428676, 429032, 429600, 430194, 430777, 431321, 431966, 432545, 433094, 433606, 434124, 434632, 435174, 435677, 436238, 436749, 437257]",99,EM,U,R,ITMSR,1.1,
4,600,trial,0,13,13,13,trial,"['S', 'S', 'S', 'S', 'S', 'S', 'S', 'C', 'C', 'C', 'C', 'C', 'C', 'C', 'C', 'C', 'C', 'C', 'C', 'C', 'C', 'C', 'C']","[443027, 443583, 444205, 444877, 445536, 446196, 446780, 447331, 447989, 448572, 449143, 449687, 450248, 450838, 451398, 451928, 452492, 453026, 453617, 454156, 454712, 455287, 455847]","[443154, 443789, 444393, 445067, 445683, 446281, 446889, 447465, 448095, 448687, 449338, 449829, 450432, 450996, 451539, 452041, 452534, 453046, 453637, 454264, 454817, 455307, 455932]","[61, 96, 33, 230, 137, 47, 116, 19, 22, 106, 121, 9, 11, 94, 124, 162, 107, 48, 228, 243, 231, 133, 106]","[443033, 443678, 444210, 444965, 445540, 446200, 446787, 447337, 447994, 448578, 449210, 449693, 450317, 450843, 451404, 451932, 452498, 453031, 453621, 454228, 454749, 455290, 455854]","[442738, 443338, 443938, 444538, 445138, 445739, 446338, 446938, 447351, 448009, 448592, 449163, 449708, 450268, 450859, 451418, 451948, 452512, 453046, 453637, 454176, 454732, 455307, 455867]",99,EM,U,R,ITMSR,1.1,
1,600,trial,0,14,14,14,trial,"['S', 'S', 'S', 'S', 'S', 'S', 'S', 'C', 'C', 'C', 'C', 'C', 'C', 'C', 'C', 'C', 'C', 'C', 'C', 'C', 'C', 'C', 'C']","[461775, 462407, 462989, 463563, 464123, 464826, 465492, 466182, 466808, 467421, 468051, 468641, 469186, 469757, 470324, 470864, 471467, 472057, 472636, 473190, 473740, 474287, 474901]","[461885, 462517, 463098, 463643, 464239, 464917, 465568, 466276, 466910, 467542, 468163, 468721, 469261, 469898, 470416, 470959, 471555, 472165, 472723, 473325, 473819, 474433, 475005]","[111, 14, 27, 31, 78, 170, 184, 176, 88, 228, 30, 87, 244, 38, 94, 28, 238, 218, 56, 200, 85, 106, 44]","[461833, 462412, 462995, 463568, 464128, 464830, 465501, 466185, 466816, 467427, 468057, 468689, 469192, 469762, 470328, 470867, 471472, 472121, 472642, 473264, 473745, 474290, 474903]","[461664, 462263, 462863, 463463, 464063, 464663, 465263, 465863, 466202, 466828, 467441, 468071, 468661, 469207, 469777, 470344, 470884, 471487, 472077, 472656, 473210, 473760, 474307, 474921]",99,EM,U,R,ITMSR,1.1,
0,600,trial,0,15,15,15,trial,"['B', 'S', 'S', 'S', 'S', 'S', 'S', 'S', 'S', 'S', 'S', 'S', 'S', 'S', 'C', 'C', 'C', 'C', 'C', 'C', 'C', 'C', 'C', 'C', 'C', 'C', 'C', 'C', 'C', 'C', 'C', 'C', 'C', 'C', 'C']","[480579, 481073, 481686, 481787, 482225, 482325, 482859, 482959, 483393, 483494, 483921, 484021, 484513, 484613, 485118, 485218, 485744, 486353, 486819, 487408, 487510, 487992, 488486, 488586, 489054, 489624, 490140, 491419, 492045, 492670, 493771, 494968, 495068, 495525, 495625]","[480599, 481093, 481707, 481807, 482245, 482345, 482879, 482979, 483414, 483514, 483941, 484041, 484533, 484633, 485138, 485238, 485835, 486373, 486937, 487428, 487530, 488091, 488506, 488606, 489074, 489645, 490231, 491501, 492084, 492690, 493842, 494988, 495088, 495545, 495646]","[1, 54, 73, 1, 1, 1, 56, 1, 152, 3, 62, 79, 1, 1, 48, 1, 112, 1, 88, 82, 76, 1, 140, 1, 61, 2, 172, 159, 82, 1, 104, 165, 67, 157, 54]","[480579, 481079, 481688, 481787, 482225, 482325, 482861, 482959, 483397, 483494, 483924, 484021, 484513, 484613, 485121, 485218, 485814, 486353, 486876, 487411, 487510, 487998, 488491, 488586, 489056, 489624, 490141, 491460, 492065, 492670, 493811, 494971, 495068, 495528, 495625]","[480591, 481191, 481792, 482392, 482992, 483592, 484192, 484792, 485138, 485764, 486373, 486839, 487428, 488012, 488506, 489074, 489645, 490160, 491439, 492065, 492690, 493791, 494988, 495545]",99,EM,U,R,ITMSR,1.1,
0,400,trial,0,16,16,16,trial,"['S', 'S', 'S', 'S', 'S', 'C', 'C', 'C', 'C', 'C', 'C', 'C', 'C', 'C', 'C', 'C', 'C', 'C', 'C', 'C', 'C']","[501408, 502086, 502643, 503272, 503841, 504424, 504989, 505573, 506214, 506888, 508226, 508793, 509334, 509958, 510531, 511110, 511685, 512231, 512850, 513376, 513894]","[501513, 502174, 502796, 503369, 503937, 504516, 505110, 505688, 506348, 506940, 508348, 508918, 509456, 510066, 510639, 511248, 511796, 512365, 512972, 513510, 513998]","[252, 102, 43, 165, 19, 14, 23, 24, 19, 14, 174, 56, 45, 89, 97, 105, 2, 127, 142, 106, 85]","[501414, 502133, 502724, 503278, 503888, 504477, 505051, 505629, 506276, 506918, 508279, 508852, 509387, 509964, 510587, 511168, 511735, 512237, 512901, 513417, 513929]","[501100, 501500, 501900, 502300, 502701, 503101, 503501, 503901, 504444, 505009, 505593, 506234, 506908, 508247, 508813, 509355, 509978, 510552, 511130, 511705, 512251, 512870, 513396, 513914]",99,EM,U,R,ITMSR,1.1,
5,600,trial,0,17,17,17,trial,"['S', 'S', 'S', 'S', 'S', 'S', 'S', 'S', 'S', 'C', 'C', 'C', 'C', 'C', 'C', 'C', 'C', 'C', 'C', 'C', 'C', 'C', 'C', 'C', 'C', 'C']","[519449, 520064, 520164, 520627, 521145, 521704, 522370, 522902, 523408, 523998, 524560, 525151, 525732, 526320, 526940, 527441, 527541, 528035, 528628, 529225, 529823, 530355, 530928, 531504, 532008, 532576]","[519549, 520084, 520184, 520753, 521238, 521802, 522390, 522923, 523507, 524103, 524694, 525255, 525752, 526340, 526960, 527461, 527561, 528055, 528723, 529294, 529922, 530459, 531066, 531581, 532152, 532741]","[251, 36, 2, 232, 88, 201, 36, 36, 144, 187, 247, 233, 20, 65, 18, 158, 77, 119, 139, 175, 193, 240, 154, 184, 18, 46]","[519485, 520065, 520164, 520632, 521147, 521740, 522374, 522903, 523442, 524050, 524625, 525203, 525733, 526322, 526945, 527444, 527541, 528039, 528633, 529226, 529828, 530416, 530993, 531509, 532013, 532579]","[519400, 520000, 520600, 521200, 521800, 522400, 523000, 523600, 524018, 524580, 525171, 525752, 526340, 526960, 527461, 528055, 528648, 529245, 529843, 530375, 530948, 531524, 532028, 532596]",99,EM,U,R,ITMSR,1.1,
3,400,trial,0,18,18,18,trial,"['S', 'S', 'S', 'S', 'S', 'C', 'C', 'C', 'C', 'C', 'C', 'C', 'C', 'C', 'C', 'C', 'C', 'C', 'C', 'C', 'C', 'C']","[538314, 538860, 539531, 540169, 540844, 541469, 542200, 542814, 542914, 543457, 544047, 544662, 545283, 545851, 546430, 547096, 547750, 548377, 548892, 549593, 550183, 550750]","[538434, 538988, 539683, 540317, 541004, 541585, 542270, 542834, 542934, 543534, 544134, 544759, 545380, 545949, 546530, 547193, 547841, 548463, 549040, 549689, 550281, 550770]","[231, 232, 187, 227, 251, 71, 205, 185, 128, 25, 197, 134, 33, 32, 162, 180, 189, 138, 44, 213, 210, 67]","[538322, 538867, 539596, 540252, 540931, 541531, 542233, 542817, 542914, 543496, 544080, 544718, 545339, 545909, 546493, 547153, 547793, 548432, 548978, 549625, 550233, 550755]","[538087, 538487, 538887, 539287, 539687, 540087, 540487, 540888, 541489, 542220, 542834, 543477, 544067, 544683, 545303, 545871, 546450, 547117, 547770, 548397, 548912, 549613, 550203, 550770]",99,EM,U,R,ITMSR,1.1,
5,600,trial,0,19,19,19,trial,"['S', 'S', 'S', 'S', 'S', 'S', 'S', 'S', 'C', 'C', 'C', 'C', 'C', 'C', 'C', 'C', 'C', 'C', 'C', 'C', 'C', 'C', 'C', 'C']","[556852, 556952, 557508, 558134, 558786, 559350, 559979, 560552, 561097, 561715, 562334, 562888, 563425, 564005, 564569, 565174, 565764, 566293, 566933, 567518, 568097, 568715, 569271, 569816]","[556872, 556993, 557528, 558154, 558806, 559429, 560065, 560648, 561197, 561839, 562377, 562969, 563532, 564109, 564662, 565260, 565855, 566410, 567006, 567574, 568204, 568757, 569366, 569910]","[88, 61, 19, 75, 73, 245, 114, 146, 178, 224, 159, 104, 212, 220, 223, 238, 247, 11, 214, 143, 225, 165, 202, 9]","[556859, 556952, 557509, 558139, 558787, 559353, 560013, 560589, 561102, 561774, 562341, 562893, 563472, 564068, 564605, 565181, 565770, 566353, 566938, 567552, 568154, 568722, 569323, 569822]","[556429, 557028, 557628, 558228, 558828, 559428, 560028, 560628, 561117, 561735, 562354, 562908, 563445, 564025, 564589, 565194, 565784, 566313, 566953, 567538, 568117, 568735, 569291, 569836]",99,EM,U,R,ITMSR,1.1,
2,600,trial,0,20,20,20,trial,"['S', 'S', 'S', 'S', 'S', 'S', 'S', 'C', 'C', 'C', 'C', 'C', 'C', 'C', 'C', 'C', 'C', 'C', 'C', 'C', 'C', 'C', 'C']","[575915, 576551, 577210, 577736, 578373, 578718, 579530, 580189, 580802, 581392, 581964, 582531, 583106, 583664, 584243, 584844, 585388, 585992, 586560, 587124, 587710, 588284, 588889]","[576012, 576620, 577281, 577850, 578437, 578921, 579594, 580233, 580878, 581483, 582036, 582599, 583182, 583751, 584326, 584925, 585472, 586055, 586644, 587208, 587789, 588356, 588975]","[33, 55, 82, 81, 249, 74, 73, 23, 23, 81, 43, 47, 91, 100, 91, 77, 93, 65, 240, 179, 99, 85, 64]","[575920, 576556, 577214, 577740, 578379, 578822, 579536, 580194, 580808, 581396, 581967, 582535, 583110, 583670, 584249, 584848, 585392, 586000, 586594, 587130, 587716, 588289, 588921]","[575531, 576130, 576730, 577330, 577930, 578530, 579130, 579730, 580209, 580823, 581412, 581984, 582551, 583127, 583684, 584263, 584864, 585408, 586012, 586580, 587144, 587730, 588304, 588909]",99,EM,U,R,ITMSR,1.1,
2,400,trial,0,21,21,21,trial,"['S', 'S', 'S', 'S', 'S', 'C', 'C', 'C', 'C', 'C', 'C', 'C', 'C', 'C', 'C', 'C', 'C', 'C', 'C', 'C', 'C']","[594744, 595385, 596046, 596633, 597284, 597941, 598567, 599412, 599874, 600901, 601610, 602296, 602803, 604829, 607705, 608283, 608834, 609405, 610009, 610588, 611180]","[594837, 595531, 596144, 596762, 597376, 598009, 598667, 599519, 599981, 600982, 601734, 602376, 602884, 604928, 607804, 608366, 608912, 609483, 610070, 610678, 611245]","[5, 97, 82, 90, 86, 110, 236, 211, 160, 40, 167, 227, 254, 10, 188, 195, 194, 198, 203, 223, 155]","[594750, 595391, 596102, 596712, 597292, 597947, 598575, 599447, 599939, 600942, 601663, 602323, 602806, 604833, 607718, 608333, 608896, 609430, 610041, 610615, 611215]","[594590, 594990, 595390, 595790, 596190, 596590, 596990, 597390, 597961, 598587, 599432, 599895, 600921, 601630, 602316, 602823, 604849, 607725, 608303, 608855, 609425, 610029, 610608, 611201]",99,EM,U,R,ITMSR,1.1,
0,400,trial,0,22,22,22,trial,"['S', 'S', 'C', 'C', 'C', 'C', 'C', 'C', 'C', 'C', 'C', 'C', 'C', 'C', 'C', 'C', 'C', 'C']","[618755, 619388, 620067, 620683, 621237, 621918, 622496, 623086, 623633, 624236, 624815, 625386, 625964, 626568, 627187, 627838, 628487, 629096]","[618912, 619565, 620215, 620825, 621360, 622032, 622625, 623191, 623767, 624378, 624949, 625477, 626072, 626681, 627301, 627953, 628674, 629287]","[48, 223, 244, 59, 196, 202, 23, 0, 2, 201, 26, 24, 198, 118, 246, 204, 139, 157]","[618835, 619490, 620096, 620758, 621313, 621977, 622565, 623141, 623700, 624332, 624919, 625439, 626029, 626624, 627256, 627900, 628591, 629187]","[616695, 617095, 617495, 617895, 618295, 618695, 619096, 619496, 620087, 620703, 621257, 621938, 622516, 623106, 623653, 624257, 624835, 625406, 625984, 626588, 627207, 627858, 628507, 629116]",99,EM,U,R,ITMSR,1.1,
5,400,trial,0,23,23,23,trial,"['B', 'S', 'S', 'S', 'S', 'C', 'C', 'C', 'C', 'C', 'C', 'C', 'C', 'C', 'C', 'C', 'C', 'C', 'C', 'C', 'C']","[634777, 635357, 636096, 636725, 637355, 638044, 638733, 639407, 640049, 640698, 641344, 641992, 642648, 643292, 643902, 644555, 645177, 645785, 646427, 647087, 647755]","[634801, 635522, 636247, 636876, 637499, 638193, 638902, 639597, 640261, 640805, 641494, 642132, 642777, 643433, 644065, 644672, 645301, 645950, 646567, 647208, 647814]","[188, 241, 216, 199, 106, 157, 113, 47, 129, 5, 128, 134, 69, 145, 253, 10, 195, 12, 123, 7, 24]","[634777, 635444, 636156, 636795, 637422, 638113, 638826, 639479, 640166, 640749, 641414, 642070, 642652, 643377, 643986, 644560, 645184, 645789, 646433, 647089, 647757]","[634788, 635188, 635588, 635988, 636388, 636788, 637188, 637588, 638064, 638753, 639427, 640069, 640718, 641364, 642012, 642668, 643312, 643922, 644575, 645197, 645805, 646447, 647107, 647775]",99,EM,U,R,ITMSR,1.1,
1,400,trial,0,24,24,24,trial,"['S', 'S', 'S', 'S', 'S', 'S', 'S', 'S', 'C', 'C', 'C', 'C', 'C', 'C', 'C', 'C', 'C', 'C', 'C', 'C', 'C', 'C', 'C', 'C', 'C', 'C', 'C', 'C', 'C', 'C', 'C']","[653646, 654317, 654983, 655085, 655611, 655729, 656297, 656397, 656994, 657106, 658403, 658506, 659074, 659207, 659664, 659768, 660337, 660451, 661123, 661748, 661867, 662474, 663102, 663773, 664384, 665752, 665854, 666445, 667049, 667655, 668315]","[653780, 654451, 655005, 655130, 655634, 655749, 656317, 656418, 657014, 657126, 658426, 658536, 659098, 659227, 659688, 659789, 660357, 660471, 661168, 661768, 661888, 662494, 663152, 663829, 664404, 665773, 665874, 666518, 667163, 667801, 668405]","[65, 71, 127, 183, 100, 51, 253, 161, 114, 46, 52, 161, 191, 51, 85, 75, 21, 43, 48, 169, 40, 29, 44, 49, 48, 123, 93, 95, 175, 35, 112]","[653666, 654342, 654986, 655085, 655614, 655735, 656300, 656397, 656997, 657111, 658421, 658516, 659078, 659213, 659666, 659768, 660342, 660452, 661131, 661750, 661867, 662479, 663142, 663823, 664385, 665754, 665870, 666508, 667055, 667739, 668372]","[653358, 653757, 654157, 654557, 654957, 655357, 655757, 656157, 657014, 658423, 659094, 659684, 660357, 661143, 661768, 662494, 663122, 663793, 664404, 665773, 666465, 667069, 667675, 668335]",99,EM,U,R,ITMSR,1.1,
4,400,trial,0,25,25,25,trial,"['B', 'S', 'S', 'S', 'S', 'S', 'C', 'C', 'C', 'C', 'C', 'C', 'C', 'C', 'C', 'C', 'C', 'C', 'C', 'C', 'C', 'C', 'C', 'C', 'C', 'C', 'C']","[673990, 674458, 675058, 675668, 676258, 676835, 677444, 678039, 678647, 679283, 679383, 679960, 680062, 680637, 680737, 681243, 681345, 682635, 682737, 683277, 683874, 684500, 685120, 685799, 686397, 686987, 687596]","[674066, 674669, 675273, 675835, 676392, 676952, 677616, 678139, 678813, 679303, 679426, 679981, 680082, 680657, 680757, 681263, 681381, 682656, 682801, 683457, 684046, 684650, 685313, 685944, 686511, 687118, 687696]","[165, 224, 11, 90, 2, 167, 240, 136, 217, 210, 113, 153, 198, 203, 10, 127, 48, 98, 107, 219, 254, 96, 107, 225, 141, 24, 198]","[673990, 674464, 675059, 675676, 676261, 676841, 677449, 678045, 678650, 679286, 679383, 679964, 680064, 680640, 680737, 681245, 681365, 682640, 682769, 683281, 683878, 684507, 685124, 685892, 686402, 686993, 687599]","[674003, 674403, 674803, 675203, 675603, 676003, 676403, 676803, 677464, 678060, 678667, 679303, 679981, 680657, 681263, 682655, 683297, 683894, 684520, 685140, 685819, 686417, 687007, 687617]",99,EM,U,R,ITMSR,1.1,
1,600,trial,0,26,26,26,trial,"['S', 'S', 'S', 'S', 'S', 'S', 'S', 'S', 'S', 'S', 'S', 'S', 'C', 'C', 'C', 'C', 'C', 'C', 'C', 'C', 'C', 'C', 'C', 'C', 'C', 'C', 'C', 'C', 'C', 'C']","[693627, 694241, 694341, 694929, 695029, 695645, 695745, 696301, 696515, 696913, 697013, 697559, 698103, 698727, 698827, 700081, 700716, 701309, 701936, 702546, 703159, 703699, 703799, 704306, 704916, 705546, 706164, 706775, 707434, 708154]","[693647, 694261, 694436, 694949, 695091, 695665, 695849, 696435, 696535, 696933, 697033, 697579, 698203, 698747, 698849, 700187, 700791, 701405, 702039, 702568, 703179, 703719, 703819, 704416, 705013, 705566, 706270, 706893, 707503, 708245]","[2, 72, 234, 227, 198, 170, 229, 128, 27, 17, 48, 27, 240, 112, 37, 171, 11, 95, 37, 166, 33, 11, 86, 177, 248, 118, 251, 132, 68, 111]","[693630, 694244, 694341, 694933, 695029, 695650, 695795, 696305, 696517, 696920, 697013, 697563, 698105, 698729, 698827, 700085, 700721, 701313, 701940, 702552, 703162, 703703, 703799, 704309, 704921, 705550, 706167, 706779, 707437, 708191]","[693313, 693913, 694513, 695113, 695713, 696313, 696913, 697513, 698123, 698747, 700101, 700736, 701329, 701956, 702566, 703179, 703719, 704326, 704936, 705566, 706184, 706795, 707454, 708174]",99,EM,U,R,ITMSR,1.1,
3,600,trial,0,27,27,27,trial,"['S', 'S', 'S', 'S', 'S', 'S', 'S', 'S', 'S', 'S', 'C', 'C', 'C', 'C', 'C', 'C', 'C', 'C', 'C', 'C', 'C', 'C', 'C', 'C', 'C', 'C']","[714033, 714134, 714759, 715428, 715528, 716070, 716706, 717351, 717923, 718023, 718610, 719235, 719833, 720427, 721032, 721611, 722275, 722869, 723474, 724056, 724644, 725301, 725903, 726473, 727105, 727698]","[714053, 714181, 714889, 715448, 715548, 716178, 716848, 717465, 717943, 718050, 718710, 719362, 719945, 720543, 721117, 721701, 722375, 722995, 723576, 724212, 724867, 725398, 725968, 726579, 727196, 727789]","[149, 145, 51, 8, 36, 191, 239, 96, 246, 196, 238, 127, 142, 214, 177, 7, 209, 136, 124, 174, 128, 15, 155, 155, 124, 196]","[714037, 714134, 714762, 715433, 715528, 716076, 716711, 717357, 717928, 718023, 718613, 719239, 719837, 720430, 721036, 721615, 722278, 722872, 723477, 724129, 724647, 725304, 725906, 726476, 727109, 727701]","[713924, 714524, 715124, 715724, 716324, 716924, 717524, 718125, 718630, 719255, 719853, 720447, 721052, 721631, 722295, 722889, 723494, 724076, 724664, 725321, 725923, 726493, 727126, 727718]",99,EM,U,R,ITMSR,1.1,
3,400,trial,0,28,28,28,trial,"['S', 'S', 'S', 'S', 'S', 'S', 'C', 'C', 'C', 'C', 'C', 'C', 'C', 'C', 'C', 'C', 'C', 'C', 'C', 'C', 'C', 'C', 'C', 'C', 'C', 'C']","[733679, 734341, 734938, 735038, 735572, 736178, 736278, 736880, 737484, 738143, 738738, 739386, 739979, 740079, 740652, 741292, 741893, 741993, 742566, 743190, 743292, 743848, 743948, 744466, 745114, 745774]","[733699, 734361, 734958, 735082, 735671, 736198, 736375, 736979, 737603, 738278, 738831, 739513, 739999, 740133, 740756, 741312, 741913, 742036, 742673, 743211, 743312, 743868, 743999, 744486, 745134, 745879]","[71, 46, 148, 19, 184, 229, 7, 66, 17, 86, 116, 7, 24, 227, 107, 81, 141, 249, 89, 113, 173, 183, 254, 137, 115, 139]","[733683, 734345, 734941, 735038, 735577, 736181, 736278, 736883, 737487, 738147, 738742, 739389, 739983, 740079, 740655, 741295, 741896, 742000, 742569, 743193, 743292, 743852, 743948, 744469, 745117, 745778]","[733199, 733599, 733999, 734399, 734799, 735199, 735599, 736000, 736299, 736900, 737504, 738163, 738758, 739406, 739999, 740672, 741312, 741913, 742586, 743211, 743868, 744486, 745134, 745794]",99,EM,U,R,ITMSR,1.1,
2,400,trial,0,29,29,29,trial,"['S', 'S', 'S', 'S', 'S', 'C', 'C', 'C', 'C', 'C', 'C', 'C', 'C', 'C', 'C', 'C', 'C', 'C', 'C', 'C', 'C', 'C']","[751619, 752146, 752787, 753382, 753881, 754529, 755227, 755907, 756487, 757108, 757707, 758343, 758926, 759569, 760185, 760754, 760854, 761485, 762128, 762685, 763295, 763983]","[751679, 752231, 752808, 753435, 753901, 754629, 755371, 756014, 756507, 757128, 757727, 758363, 759003, 759589, 760205, 760774, 760876, 761544, 762148, 762705, 763315, 764003]","[161, 244, 84, 80, 37, 140, 186, 84, 50, 53, 230, 235, 239, 67, 173, 94, 79, 42, 55, 185, 211, 175]","[751624, 752151, 752793, 753387, 753886, 754535, 755233, 755912, 756494, 757114, 757713, 758349, 758931, 759573, 760188, 760758, 760854, 761490, 762133, 762690, 763300, 763985]","[751422, 751822, 752222, 752622, 753022, 753422, 753822, 754222, 754549, 755247, 755928, 756507, 757128, 757727, 758363, 758946, 759589, 760205, 760774, 761505, 762148, 762705, 763315, 764003]",99,EM,U,R,ITMSR,1.1,
2,400,trial,0,30,30,30,trial,"['S', 'S', 'S', 'S', 'S', 'S', 'C', 'C', 'C', 'C', 'C', 'C', 'C', 'C', 'C', 'C', 'C', 'C', 'C', 'C', 'C', 'C']","[780546, 781142, 781745, 781851, 782313, 782843, 783539, 784048, 784722, 785307, 785983, 786445, 787037, 787591, 788238, 788761, 789353, 789937, 790475, 791121, 791713, 792290]","[780705, 781262, 781771, 781871, 782438, 782969, 783627, 784141, 784852, 785393, 786003, 786547, 787132, 787694, 788331, 788888, 789432, 790065, 790572, 791247, 791820, 792369]","[27, 235, 99, 111, 134, 63, 39, 54, 28, 96, 190, 69, 209, 104, 31, 217, 127, 144, 44, 92, 44, 99]","[780551, 781147, 781755, 781851, 782318, 782848, 783544, 784053, 784727, 785313, 785987, 786450, 787097, 787597, 788243, 788841, 789360, 789944, 790483, 791197, 791721, 792297]","[780426, 780826, 781227, 781626, 782026, 782426, 782826, 783226, 783559, 784068, 784742, 785327, 786003, 786465, 787057, 787611, 788258, 788781, 789373, 789957, 790495, 791141, 791733, 792310]",99,EM,U,R,ITMSR,1.1,
4,400,trial,0,31,31,31,trial,"['S', 'S', 'S', 'S', 'S', 'C', 'C', 'C', 'C', 'C', 'C', 'C', 'C', 'C', 'C', 'C', 'C', 'C', 'C', 'C', 'C']","[798255, 798830, 799529, 800092, 800726, 801361, 801963, 802598, 803161, 803745, 804317, 804986, 805552, 806146, 806660, 807183, 807784, 808436, 809034, 809586, 810195]","[798392, 798985, 799637, 800220, 800811, 801452, 802072, 802683, 803268, 803838, 804410, 805066, 805638, 806225, 806787, 807351, 807891, 808545, 809113, 809688, 810274]","[194, 226, 176, 156, 26, 240, 215, 142, 89, 97, 150, 117, 60, 127, 149, 204, 57, 139, 94, 101, 241]","[798262, 798837, 799538, 800151, 800735, 801400, 802027, 802606, 803168, 803752, 804324, 804995, 805561, 806156, 806719, 807259, 807820, 808443, 809043, 809623, 810204]","[797999, 798398, 798798, 799198, 799598, 799998, 800398, 800798, 801381, 801983, 802618, 803181, 803765, 804337, 805006, 805572, 806166, 806680, 807203, 807804, 808456, 809054, 809606, 810215]",99,EM,U,R,ITMSR,1.1,
0,400,trial,0,32,32,32,trial,"['S', 'S', 'S', 'S', 'S', 'C', 'C', 'C', 'C', 'C', 'C', 'C', 'C', 'C', 'C', 'C', 'C', 'C', 'C', 'C', 'C']","[815553, 816146, 816910, 817502, 818111, 818733, 819343, 819949, 820544, 821080, 821649, 822244, 822858, 823409, 824022, 824577, 825197, 825810, 826443, 827015, 827604]","[815665, 816259, 817007, 817579, 818264, 818825, 819426, 820056, 820616, 821189, 821746, 822346, 822953, 823511, 824103, 824651, 825290, 825874, 826551, 827149, 827709]","[156, 116, 192, 27, 198, 104, 200, 184, 59, 234, 218, 86, 12, 151, 45, 107, 119, 21, 1, 10, 210]","[815559, 816152, 816915, 817507, 818117, 818738, 819347, 819953, 820549, 821086, 821655, 822250, 822864, 823415, 824030, 824584, 825233, 825817, 826450, 827083, 827657]","[815519, 815919, 816319, 816719, 817119, 817519, 817920, 818319, 818753, 819363, 819970, 820564, 821100, 821669, 822264, 822878, 823429, 824042, 824597, 825218, 825830, 826463, 827035, 827624]",99,EM,U,R,ITMSR,1.1,
1,400,trial,0,33,33,33,trial,"['S', 'S', 'S', 'S', 'S', 'C', 'C', 'C', 'C', 'C', 'C', 'C', 'C', 'C', 'C', 'C', 'C', 'C', 'C', 'C', 'C']","[833232, 833830, 834450, 835121, 835749, 836398, 836971, 837640, 838238, 838817, 839407, 840029, 840605, 841219, 841819, 842383, 843029, 843613, 844198, 844740, 845321]","[833315, 833920, 834578, 835245, 835850, 836463, 837097, 837715, 838334, 838913, 839517, 840118, 840705, 841330, 841925, 842462, 843122, 843706, 844286, 844818, 845426]","[77, 3, 157, 238, 15, 43, 149, 144, 80, 196, 72, 182, 246, 252, 122, 248, 121, 17, 36, 231, 92]","[833239, 833838, 834509, 835125, 835787, 836404, 837031, 837648, 838278, 838852, 839453, 840036, 840641, 841226, 841861, 842389, 843069, 843620, 844246, 844746, 845367]","[833209, 833609, 834009, 834409, 834809, 835209, 835609, 836009, 836418, 836992, 837660, 838258, 838837, 839427, 840049, 840625, 841239, 841839, 842403, 843049, 843633, 844218, 844760, 845341]",99,EM,U,R,ITMSR,1.1,
2,400,trial,0,34,34,34,trial,"['S', 'S', 'S', 'S', 'S', 'C', 'C', 'C', 'C', 'C', 'C', 'C', 'C', 'C', 'C', 'C', 'C', 'C', 'C', 'C', 'C']","[851160, 851753, 852508, 853190, 853754, 854373, 854953, 855566, 856116, 856673, 857237, 857853, 858506, 859027, 859611, 860199, 860805, 861391, 861980, 862526, 863083]","[851286, 851910, 852629, 853255, 853842, 854467, 855092, 855655, 856230, 856794, 857405, 857973, 858577, 859115, 859719, 860219, 860884, 861456, 862044, 862587, 863174]","[28, 227, 95, 230, 208, 145, 107, 82, 238, 220, 213, 111, 162, 164, 233, 146, 150, 44, 162, 93, 163]","[851225, 851863, 852556, 853227, 853761, 854374, 855029, 855600, 856123, 856735, 857317, 857887, 858512, 859063, 859615, 860205, 860811, 861395, 861983, 862554, 863090]","[850719, 851119, 851519, 851919, 852319, 852719, 853120, 853519, 854393, 854973, 855586, 856136, 856693, 857257, 857873, 858526, 859047, 859631, 860219, 860825, 861411, 862000, 862546, 863104]",99,EM,U,R,ITMSR,1.1,
4,400,trial,0,35,35,35,trial,"['S', 'S', 'S', 'S', 'S', 'S', 'C', 'C', 'C', 'C', 'C', 'C', 'C', 'C', 'C', 'C', 'C', 'C', 'C', 'C', 'C', 'C']","[868717, 869317, 870017, 870117, 870546, 871129, 871670, 872779, 873535, 874025, 874519, 875121, 876357, 876914, 877436, 877966, 878554, 879110, 879721, 880319, 880915, 881543]","[868737, 869474, 870037, 870137, 870718, 871231, 871828, 872991, 873563, 874174, 874615, 875248, 876461, 877047, 877527, 877988, 878676, 879205, 879820, 880381, 880995, 881629]","[45, 172, 57, 63, 128, 157, 73, 148, 36, 120, 92, 126, 71, 35, 90, 247, 220, 208, 226, 12, 5, 223]","[868719, 869387, 870021, 870117, 870629, 871152, 871756, 872892, 873546, 874088, 874570, 875185, 876399, 876919, 877441, 877971, 878559, 879115, 879726, 880324, 880921, 881548]","[868587, 868987, 869387, 869787, 870188, 870587, 870987, 871387, 871690, 872799, 873555, 874045, 874540, 875141, 876377, 876934, 877456, 877986, 878574, 879130, 879741, 880339, 880935, 881563]",99,EM,U,R,ITMSR,1.1,
0,600,trial,0,36,36,36,trial,"['S', 'S', 'S', 'S', 'S', 'S', 'S', 'C', 'C', 'C', 'C', 'C', 'C', 'C', 'C', 'C', 'C', 'C', 'C', 'C', 'C', 'C', 'C']","[887161, 887747, 888400, 889013, 889653, 890229, 890866, 891407, 892072, 892637, 893220, 893784, 894318, 894885, 895508, 896014, 896547, 897095, 897638, 898131, 898970, 899546, 900059]","[887276, 887895, 888528, 889127, 889780, 890360, 890967, 891541, 892197, 892760, 893317, 893862, 894423, 894998, 895610, 896135, 896667, 897240, 897712, 898258, 899084, 899672, 900197]","[78, 173, 160, 234, 56, 15, 126, 127, 230, 188, 152, 156, 1, 68, 128, 70, 153, 212, 246, 48, 6, 131, 233]","[887226, 887812, 888407, 889073, 889712, 890288, 890905, 891476, 892139, 892701, 893231, 893822, 894324, 894947, 895514, 896071, 896616, 897169, 897676, 898189, 899028, 899613, 900140]","[886870, 887469, 888069, 888669, 889269, 889869, 890469, 891069, 891427, 892092, 892657, 893240, 893804, 894338, 894905, 895528, 896034, 896567, 897115, 897658, 898151, 898990, 899566, 900079]",99,EM,U,R,ITMSR,1.1,
5,400,trial,0,37,37,37,trial,"['S', 'S', 'S', 'S', 'S', 'C', 'C', 'C', 'C', 'C', 'C', 'C', 'C', 'C', 'C', 'C', 'C', 'C', 'C', 'C', 'C']","[905634, 906207, 906832, 907459, 908040, 908657, 909169, 909780, 910358, 910938, 911586, 912158, 912747, 913323, 913859, 914451, 915012, 915580, 916203, 916788, 917393]","[905720, 906303, 906920, 907540, 908151, 908738, 909273, 909873, 910445, 911017, 911694, 912242, 912833, 913419, 913973, 914532, 915110, 915695, 916288, 916877, 917413]","[201, 25, 5, 112, 96, 77, 35, 240, 199, 169, 241, 107, 236, 130, 181, 252, 148, 255, 153, 216, 30]","[905640, 906214, 906841, 907465, 908095, 908665, 909212, 909821, 910398, 910974, 911624, 912197, 912798, 913367, 913929, 914479, 915047, 915636, 916213, 916836, 917400]","[905580, 905980, 906380, 906780, 907181, 907581, 907981, 908381, 908677, 909189, 909800, 910379, 910958, 911606, 912178, 912768, 913343, 913880, 914471, 915032, 915600, 916224, 916808, 917413]",99,EM,U,R,ITMSR,1.1,
4,600,trial,0,38,38,38,trial,"['B', 'S', 'S', 'S', 'S', 'S', 'S', 'S', 'C', 'C', 'C', 'C', 'C', 'C', 'C', 'C', 'C', 'C', 'C', 'C', 'C', 'C', 'C', 'C']","[923100, 923706, 924271, 924843, 925400, 926052, 926599, 927247, 927854, 928367, 928909, 929517, 930184, 930688, 931350, 931955, 932556, 933199, 933794, 934410, 935015, 935589, 936173, 936737]","[923195, 923810, 924400, 924946, 925498, 926112, 926722, 927367, 927969, 928474, 929038, 929630, 930273, 930810, 931452, 932050, 932677, 933318, 933889, 934461, 935138, 935695, 936264, 936820]","[73, 120, 95, 210, 92, 218, 202, 188, 70, 220, 170, 243, 176, 172, 228, 175, 167, 160, 159, 176, 78, 121, 92, 228]","[923125, 923749, 924350, 924889, 925438, 926055, 926657, 927288, 927905, 928418, 928962, 929570, 930217, 930755, 931396, 931961, 932621, 933261, 933842, 934443, 935056, 935635, 936226, 936770]","[923112, 923712, 924312, 924912, 925512, 926112, 926712, 927312, 927874, 928387, 928929, 929538, 930204, 930708, 931371, 931975, 932576, 933219, 933814, 934430, 935035, 935609, 936194, 936757]",99,EM,U,R,ITMSR,1.1,
0,400,trial,0,39,39,39,trial,"['S', 'S', 'S', 'S', 'S', 'C', 'C', 'C', 'C', 'C', 'C', 'C', 'C', 'C', 'C', 'C', 'C', 'C', 'C', 'C', 'C']","[942370, 942994, 943621, 944251, 944976, 945600, 946188, 946829, 947409, 947943, 948550, 949168, 949738, 950275, 950811, 951481, 952045, 952632, 953212, 953703, 954297]","[942455, 943113, 943697, 944328, 945054, 945676, 946285, 946915, 947489, 948014, 948618, 949256, 949826, 950348, 950917, 951581, 952120, 952753, 953268, 953792, 954353]","[59, 1, 47, 52, 250, 222, 84, 202, 150, 15, 175, 5, 167, 244, 33, 86, 253, 104, 8, 171, 66]","[942377, 943000, 943629, 944288, 945017, 945609, 946199, 946837, 947465, 947951, 948558, 949175, 949746, 950309, 950819, 951537, 952055, 952713, 953220, 953762, 954302]","[942320, 942721, 943120, 943520, 943920, 944320, 944720, 945120, 945620, 946208, 946849, 947429, 947963, 948570, 949188, 949758, 950295, 950831, 951501, 952066, 952652, 953232, 953723, 954317]",99,EM,U,R,ITMSR,1.1,
4,600,trial,0,40,40,40,trial,"['S', 'S', 'S', 'S', 'S', 'S', 'S', 'C', 'C', 'C', 'C', 'C', 'C', 'C', 'C', 'C', 'C', 'C', 'C', 'C', 'C', 'C', 'C']","[960161, 960803, 961425, 962129, 962721, 963355, 963948, 964535, 965052, 965610, 966199, 966827, 967386, 967952, 968589, 969102, 969633, 970250, 970821, 971414, 971934, 972550, 973152]","[960282, 960890, 961564, 962231, 962826, 963432, 964059, 964624, 965180, 965699, 966290, 966896, 967459, 968002, 968628, 969190, 969765, 970326, 970924, 971482, 972026, 972618, 973249]","[233, 96, 232, 61, 148, 230, 60, 207, 161, 225, 172, 241, 226, 134, 3, 7, 65, 18, 108, 212, 112, 183, 247]","[960215, 960849, 961492, 962184, 962771, 963364, 963999, 964572, 965122, 965618, 966207, 966837, 967395, 967961, 968597, 969148, 969707, 970258, 970870, 971421, 971942, 972556, 973205]","[959902, 960502, 961102, 961702, 962302, 962903, 963502, 964102, 964555, 965072, 965630, 966219, 966847, 967406, 967972, 968609, 969122, 969653, 970270, 970841, 971435, 971954, 972570, 973172]",99,EM,U,R,ITMSR,1.1,
5,600,trial,0,41,41,41,trial,"['S', 'S', 'S', 'S', 'S', 'S', 'S', 'C', 'C', 'C', 'C', 'C', 'C', 'C', 'C', 'C', 'C', 'C', 'C', 'C', 'C', 'C', 'C']","[978837, 979483, 980159, 980802, 981523, 982191, 982793, 983366, 983950, 984534, 985134, 985739, 986404, 987038, 987624, 988220, 988808, 989391, 989987, 990584, 991233, 991820, 992396]","[978928, 979587, 980302, 980899, 981645, 982275, 982936, 983487, 984061, 984655, 985267, 985834, 986529, 987134, 987742, 988312, 988884, 989481, 990054, 990740, 991436, 991988, 992524]","[191, 83, 22, 128, 78, 122, 150, 97, 255, 40, 215, 154, 84, 211, 251, 136, 73, 127, 84, 161, 101, 233, 157]","[978841, 979489, 980166, 980850, 981530, 982197, 982798, 983372, 983958, 984540, 985196, 985746, 986411, 987044, 987630, 988226, 988816, 989399, 989995, 990589, 991236, 991824, 992400]","[978626, 979226, 979826, 980426, 981026, 981626, 982226, 982827, 983386, 983970, 984554, 985154, 985759, 986424, 987058, 987644, 988240, 988828, 989411, 990007, 990604, 991253, 991840, 992416]",99,EM,U,R,ITMSR,1.1,
3,600,trial,0,42,42,42,trial,"['S', 'S', 'S', 'S', 'S', 'S', 'S', 'C', 'C', 'C', 'C', 'C', 'C', 'C', 'C', 'C', 'C', 'C', 'C', 'C', 'C', 'C', 'C']","[998253, 998898, 999513, 1000103, 1000793, 1001375, 1001903, 1002595, 1003281, 1003835, 1004475, 1005020, 1005573, 1006188, 1006840, 1007451, 1008037, 1008590, 1009149, 1009754, 1010321, 1010881, 1011522]","[998344, 998970, 999641, 1000260, 1000893, 1001481, 1002031, 1002615, 1003372, 1003855, 1004519, 1005040, 1005645, 1006312, 1006921, 1007471, 1008142, 1008672, 1009245, 1009821, 1010371, 1010902, 1011603]","[73, 94, 176, 36, 80, 36, 246, 105, 148, 82, 78, 64, 29, 43, 106, 188, 193, 145, 46, 166, 164, 228, 160]","[998257, 998904, 999521, 1000111, 1000800, 1001380, 1001977, 1002600, 1003311, 1003841, 1004492, 1005021, 1005609, 1006194, 1006846, 1007457, 1008045, 1008643, 1009154, 1009759, 1010327, 1010887, 1011526]","[998066, 998666, 999266, 999866, 1000466, 1001066, 1001666, 1002266, 1002615, 1003301, 1003855, 1004495, 1005040, 1005593, 1006209, 1006860, 1007471, 1008057, 1008610, 1009169, 1009774, 1010341, 1010902, 1011543]",99,EM,U,R,ITMSR,1.1,
5,400,trial,0,43,43,43,trial,"['B', 'S', 'S', 'S', 'S', 'C', 'C', 'C', 'C', 'C', 'C', 'C', 'C', 'C', 'C', 'C', 'C', 'C', 'C', 'C', 'C']","[1016892, 1017558, 1018120, 1018839, 1019476, 1020029, 1020665, 1021258, 1021858, 1022540, 1023142, 1023703, 1024282, 1024883, 1025582, 1026178, 1026838, 1027440, 1028094, 1028659, 1029282]","[1016982, 1017659, 1018269, 1018929, 1019582, 1020115, 1020759, 1021278, 1021878, 1022560, 1023218, 1023723, 1024302, 1024903, 1025602, 1026198, 1026859, 1027460, 1028114, 1028679, 1029379]","[152, 19, 92, 111, 115, 220, 99, 62, 210, 188, 73, 195, 219, 213, 63, 142, 138, 149, 105, 21, 232]","[1016892, 1017564, 1018128, 1018844, 1019483, 1020036, 1020672, 1021262, 1021860, 1022545, 1023148, 1023706, 1024288, 1024889, 1025588, 1026185, 1026842, 1027441, 1028099, 1028663, 1029288]","[1016903, 1017304, 1017704, 1018104, 1018504, 1018904, 1019304, 1019704, 1020049, 1020685, 1021278, 1021878, 1022560, 1023162, 1023723, 1024302, 1024903, 1025602, 1026198, 1026859, 1027460, 1028114, 1028679, 1029302]",99,EM,U,R,ITMSR,1.1,
2,600,trial,0,44,44,44,trial,"['S', 'S', 'S', 'S', 'S', 'S', 'S', 'C', 'C', 'C', 'C', 'C', 'C', 'C', 'C', 'C', 'C', 'C', 'C', 'C', 'C', 'C', 'C', 'C']","[1034953, 1035646, 1036386, 1037042, 1037725, 1038379, 1038919, 1039515, 1040080, 1040180, 1040711, 1041315, 1041885, 1043191, 1043761, 1044400, 1044946, 1045591, 1046175, 1048056, 1048685, 1049978, 1051308, 1051977]","[1034973, 1035666, 1036406, 1037149, 1037745, 1038447, 1039047, 1039535, 1040100, 1040207, 1040731, 1041335, 1041905, 1043272, 1043861, 1044420, 1045025, 1045611, 1046195, 1048076, 1048706, 1049998, 1051328, 1051997]","[9, 210, 106, 94, 189, 45, 238, 112, 115, 114, 64, 59, 72, 68, 8, 7, 226, 72, 139, 235, 20, 229, 101, 130]","[1034958, 1035651, 1036391, 1037049, 1037728, 1038385, 1038927, 1039517, 1040088, 1040180, 1040716, 1041317, 1041889, 1043240, 1043767, 1044400, 1044953, 1045595, 1046179, 1048060, 1048685, 1049982, 1051310, 1051981]","[1034660, 1035260, 1035860, 1036461, 1037061, 1037661, 1038261, 1038861, 1039535, 1040100, 1040731, 1041335, 1041905, 1043211, 1043781, 1044420, 1044966, 1045611, 1046195, 1048076, 1048706, 1049998, 1051328, 1051997]",99,EM,U,R,ITMSR,1.1,
3,400,trial,0,45,45,45,trial,"['S', 'S', 'S', 'C', 'C', 'C', 'C', 'C', 'C', 'C', 'C', 'C', 'C', 'C', 'C', 'C', 'C', 'C', 'C', 'C', 'C']","[1058074, 1058796, 1060209, 1060784, 1061405, 1061507, 1062744, 1064616, 1065113, 1065904, 1066004, 1067310, 1069446, 1070012, 1070715, 1072018, 1072706, 1073251, 1074672, 1075364, 1076025]","[1058094, 1058816, 1060229, 1060879, 1061425, 1061527, 1062764, 1064732, 1065133, 1065924, 1066024, 1067330, 1069466, 1070032, 1070735, 1072038, 1072727, 1073271, 1074692, 1075384, 1076045]","[211, 91, 66, 139, 106, 5, 4, 54, 50, 61, 5, 46, 102, 171, 68, 63, 91, 100, 215, 149, 119]","[1058078, 1058798, 1060210, 1060788, 1061407, 1061511, 1062745, 1064690, 1065115, 1065905, 1066009, 1067312, 1069448, 1070017, 1070717, 1072021, 1072708, 1073253, 1074678, 1075369, 1076031]","[1057645, 1058045, 1058445, 1058845, 1059245, 1059645, 1060045, 1060445, 1060804, 1061425, 1062764, 1064636, 1065133, 1065924, 1067330, 1069466, 1070032, 1070735, 1072038, 1072727, 1073271, 1074692, 1075384, 1076045]",99,EM,U,R,ITMSR,1.1,
0,600,trial,0,46,46,46,trial,"['B', 'S', 'S', 'S', 'S', 'S', 'S', 'C', 'C', 'C', 'C', 'C', 'C', 'C', 'C', 'C', 'C', 'C', 'C', 'C', 'C', 'C', 'C', 'C']","[1081498, 1082208, 1082777, 1083438, 1084038, 1084743, 1085452, 1086019, 1086600, 1087953, 1088536, 1090178, 1090731, 1091187, 1091774, 1102295, 1102957, 1103059, 1103506, 1104036, 1104545, 1105114, 1105631, 1106199]","[1081518, 1082228, 1082797, 1083458, 1084058, 1084765, 1085472, 1086040, 1086620, 1087973, 1088557, 1090198, 1090751, 1091207, 1091794, 1102514, 1102978, 1103083, 1103526, 1104056, 1104565, 1105134, 1105651, 1106220]","[31, 101, 140, 82, 99, 38, 27, 69, 46, 52, 76, 37, 72, 55, 78, 12, 48, 102, 200, 188, 249, 153, 158, 85]","[1081498, 1082211, 1082783, 1083439, 1084039, 1084744, 1085452, 1086020, 1086603, 1087955, 1088539, 1090179, 1090734, 1091189, 1091776, 1102511, 1102958, 1103059, 1103510, 1104040, 1104550, 1105119, 1105635, 1106203]","[1081511, 1082110, 1082711, 1083310, 1083910, 1084510, 1085110, 1085710, 1086040, 1086620, 1087973, 1088557, 1090198, 1090751, 1091207, 1091794, 1102315, 1102978, 1103526, 1104056, 1104565, 1105134, 1105651, 1106220]",99,EM,U,R,ITMSR,1.1,
1,600,trial,0,47,47,47,trial,"['S', 'S', 'S', 'S', 'S', 'S', 'S', 'S', 'C', 'C', 'C', 'C', 'C', 'C', 'C', 'C', 'C', 'C', 'C', 'C', 'C', 'C', 'C', 'C']","[1111731, 1112299, 1112845, 1113488, 1114104, 1114738, 1115295, 1115918, 1116524, 1117170, 1117662, 1118157, 1118708, 1119233, 1119755, 1120320, 1120921, 1121435, 1121981, 1122470, 1123087, 1123638, 1124196, 1124785]","[1111818, 1112320, 1112865, 1113508, 1114124, 1114758, 1115315, 1115938, 1116666, 1117221, 1117750, 1118244, 1118799, 1119253, 1119852, 1120340, 1120941, 1121455, 1122001, 1122490, 1123187, 1123658, 1124216, 1124805]","[201, 218, 211, 239, 235, 224, 111, 227, 194, 176, 175, 133, 163, 127, 166, 94, 107, 158, 162, 156, 155, 93, 98, 107]","[1111734, 1112304, 1112850, 1113493, 1114109, 1114744, 1115300, 1115922, 1116526, 1117177, 1117667, 1118161, 1118713, 1119235, 1119761, 1120323, 1120923, 1121441, 1121984, 1122477, 1123093, 1123641, 1124199, 1124788]","[1111521, 1112120, 1112720, 1113320, 1113920, 1114520, 1115120, 1115720, 1116545, 1117190, 1117682, 1118177, 1118728, 1119253, 1119775, 1120340, 1120941, 1121455, 1122001, 1122490, 1123107, 1123658, 1124216, 1124805]",99,EM,U,R,ITMSR,1.1,
3,400,trial,0,48,48,48,trial,"['S', 'S', 'S', 'S', 'S', 'C', 'C', 'C', 'C', 'C', 'C', 'C', 'C', 'C', 'C', 'C', 'C', 'C', 'C', 'C', 'C', 'C']","[1130893, 1131460, 1132030, 1132612, 1133167, 1133681, 1134199, 1134800, 1135427, 1135962, 1136512, 1137079, 1137678, 1138279, 1138828, 1139450, 1139996, 1140531, 1141019, 1141121, 1141714, 1142304]","[1130913, 1131480, 1132050, 1132632, 1133187, 1133701, 1134219, 1134820, 1135448, 1135982, 1136532, 1137099, 1137698, 1138299, 1138848, 1139470, 1140016, 1140551, 1141039, 1141141, 1141734, 1142324]","[137, 247, 95, 199, 234, 113, 68, 73, 73, 106, 15, 73, 59, 193, 119, 76, 59, 5, 78, 11, 155, 59]","[1130899, 1131466, 1132033, 1132616, 1133173, 1133687, 1134200, 1134802, 1135433, 1135968, 1136517, 1137081, 1137684, 1138284, 1138833, 1139456, 1140001, 1140537, 1141025, 1141121, 1141721, 1142306]","[1130566, 1130966, 1131365, 1131765, 1132165, 1132565, 1132965, 1133365, 1133701, 1134219, 1134820, 1135448, 1135982, 1136532, 1137099, 1137698, 1138299, 1138848, 1139470, 1140016, 1140551, 1141039, 1141734, 1142324]",99,EM,U,R,ITMSR,1.1,
5,600,trial,0,49,49,49,trial,"['S', 'S', 'S', 'S', 'S', 'S', 'S', 'C', 'C', 'C', 'C', 'C', 'C', 'C', 'C', 'C', 'C', 'C', 'C', 'C', 'C', 'C', 'C']","[1147889, 1148370, 1148783, 1149372, 1149970, 1151166, 1151708, 1152232, 1152821, 1153389, 1153950, 1154503, 1155022, 1155637, 1156235, 1156774, 1157389, 1158643, 1159168, 1160348, 1160900, 1162604, 1163191]","[1147955, 1148448, 1148803, 1149485, 1150061, 1151245, 1151776, 1152337, 1152908, 1153478, 1154044, 1154566, 1155115, 1155719, 1156306, 1156860, 1157409, 1158663, 1159188, 1160368, 1160920, 1162625, 1163211]","[25, 85, 241, 112, 130, 32, 193, 153, 142, 93, 236, 112, 120, 117, 173, 116, 72, 44, 30, 83, 54, 94, 72]","[1147895, 1148376, 1148788, 1149376, 1149972, 1151171, 1151715, 1152236, 1152827, 1153394, 1153955, 1154509, 1155024, 1155645, 1156241, 1156782, 1157391, 1158644, 1159169, 1160348, 1160901, 1162607, 1163191]","[1147635, 1148235, 1148835, 1149435, 1150035, 1150636, 1151235, 1151835, 1152252, 1152841, 1153410, 1153970, 1154523, 1155042, 1155657, 1156255, 1156794, 1157409, 1158663, 1159188, 1160368, 1160920, 1162625, 1163211]",99,EM,U,R,ITMSR,1.1,
2,600,trial,0,50,50,50,trial,"['S', 'S', 'S', 'S', 'S', 'S', 'S', 'S', 'C', 'C', 'C', 'C', 'C', 'C', 'C', 'C', 'C', 'C', 'C', 'C', 'C', 'C', 'C', 'C']","[1169014, 1169564, 1170159, 1170718, 1171315, 1171876, 1172505, 1173113, 1173636, 1174211, 1174788, 1175402, 1175995, 1176594, 1177205, 1177804, 1178405, 1178951, 1179518, 1180080, 1180719, 1181275, 1181861, 1182454]","[1169132, 1169732, 1170272, 1170877, 1171477, 1171977, 1172630, 1173242, 1173750, 1174306, 1174908, 1175510, 1176097, 1176717, 1177286, 1177894, 1178427, 1179047, 1179596, 1180101, 1180783, 1181372, 1181928, 1182475]","[254, 224, 135, 88, 116, 79, 241, 154, 41, 14, 252, 238, 50, 36, 18, 237, 54, 5, 240, 169, 98, 134, 240, 38]","[1169015, 1169568, 1170163, 1170722, 1171319, 1171881, 1172507, 1173117, 1173642, 1174216, 1174792, 1175406, 1175998, 1176597, 1177209, 1177808, 1178411, 1178954, 1179523, 1180084, 1180723, 1181280, 1181864, 1182458]","[1168816, 1169416, 1170016, 1170616, 1171216, 1171816, 1172416, 1173016, 1173656, 1174232, 1174808, 1175422, 1176015, 1176614, 1177225, 1177824, 1178425, 1178971, 1179538, 1180100, 1180739, 1181295, 1181881, 1182474]",99,EM,U,R,ITMSR,1.1,
1,600,trial,0,51,51,51,trial,"['S', 'S', 'S', 'S', 'S', 'S', 'S', 'C', 'C', 'C', 'C', 'C', 'C', 'C', 'C', 'C', 'C', 'C', 'C', 'C', 'C', 'C', 'C']","[1188409, 1189022, 1189558, 1190267, 1190870, 1191491, 1192128, 1192730, 1193331, 1193902, 1194513, 1195088, 1195686, 1196223, 1196814, 1197428, 1197960, 1198525, 1199108, 1199644, 1200258, 1200840, 1201431]","[1188500, 1189097, 1189690, 1190341, 1190934, 1191559, 1192148, 1192805, 1193351, 1193958, 1194615, 1195147, 1195747, 1196314, 1196884, 1197480, 1198054, 1198597, 1199169, 1199735, 1200337, 1200897, 1201487]","[17, 228, 245, 232, 249, 20, 159, 46, 114, 159, 11, 241, 0, 5, 221, 237, 34, 239, 191, 225, 228, 147, 234]","[1188413, 1189027, 1189562, 1190270, 1190874, 1191494, 1192132, 1192734, 1193335, 1193906, 1194517, 1195092, 1195691, 1196227, 1196817, 1197434, 1197964, 1198529, 1199112, 1199648, 1200262, 1200844, 1201434]","[1188069, 1188669, 1189269, 1189869, 1190469, 1191069, 1191669, 1192269, 1192750, 1193351, 1193922, 1194533, 1195108, 1195706, 1196243, 1196834, 1197448, 1197980, 1198545, 1199128, 1199664, 1200278, 1200860, 1201452]",99,EM,U,R,ITMSR,1.1,
3,600,trial,0,52,52,52,trial,"['S', 'S', 'S', 'S', 'S', 'S', 'S', 'S', 'C', 'C', 'C', 'C', 'C', 'C', 'C', 'C', 'C', 'C', 'C', 'C', 'C', 'C', 'C', 'C']","[1206868, 1207383, 1207958, 1208535, 1209123, 1209729, 1210340, 1210938, 1211513, 1212110, 1212720, 1213280, 1213862, 1214457, 1215053, 1215671, 1216240, 1216797, 1217394, 1217939, 1218511, 1219093, 1219708, 1220238]","[1206888, 1207405, 1207981, 1208620, 1209194, 1209794, 1210391, 1210958, 1211580, 1212188, 1212771, 1213338, 1213953, 1214560, 1215077, 1215733, 1216334, 1216870, 1217462, 1218027, 1218589, 1219177, 1219764, 1220301]","[156, 212, 75, 12, 254, 20, 233, 135, 241, 45, 36, 29, 234, 126, 149, 127, 214, 216, 4, 219, 108, 161, 215, 149]","[1206873, 1207387, 1207962, 1208538, 1209127, 1209731, 1210343, 1210942, 1211516, 1212113, 1212723, 1213284, 1213865, 1214462, 1215058, 1215676, 1216244, 1216801, 1217397, 1217943, 1218516, 1219098, 1219713, 1220243]","[1206810, 1207409, 1208009, 1208609, 1209209, 1209809, 1210409, 1211010, 1211533, 1212130, 1212740, 1213300, 1213882, 1214477, 1215073, 1215691, 1216260, 1216817, 1217414, 1217959, 1218531, 1219113, 1219728, 1220258]",99,EM,U,R,ITMSR,1.1,
1,400,trial,0,53,53,53,trial,"['S', 'S', 'S', 'S', 'S', 'C', 'C', 'C', 'C', 'C', 'C', 'C', 'C', 'C', 'C', 'C', 'C', 'C', 'C', 'C', 'C']","[1225669, 1226271, 1226906, 1227551, 1228126, 1228760, 1229326, 1229933, 1230593, 1231158, 1231763, 1232390, 1232990, 1233548, 1234144, 1234778, 1235324, 1235894, 1236445, 1237067, 1237640]","[1225745, 1226356, 1226975, 1227611, 1228185, 1228831, 1229386, 1230035, 1230635, 1231236, 1231833, 1232471, 1233047, 1233667, 1234243, 1234854, 1235398, 1235939, 1236506, 1237150, 1237660]","[124, 226, 175, 168, 21, 201, 26, 58, 197, 43, 251, 219, 227, 63, 11, 29, 215, 65, 40, 134, 25]","[1225671, 1226274, 1226909, 1227555, 1228129, 1228764, 1229329, 1229936, 1230596, 1231161, 1231766, 1232393, 1232994, 1233550, 1234147, 1234781, 1235328, 1235898, 1236449, 1237070, 1237644]","[1225615, 1226015, 1226415, 1226815, 1227215, 1227615, 1228015, 1228416, 1228780, 1229346, 1229954, 1230613, 1231178, 1231783, 1232410, 1233010, 1233568, 1234164, 1234798, 1235344, 1235914, 1236465, 1237087, 1237660]",99,EM,U,R,ITMSR,1.1,
3,600,trial,0,54,54,54,trial,"['S', 'S', 'S', 'S', 'S', 'S', 'S', 'S', 'C', 'C', 'C', 'C', 'C', 'C', 'C', 'C', 'C', 'C', 'C', 'C', 'C', 'C', 'C', 'C']","[1252397, 1252962, 1253599, 1254135, 1254752, 1255313, 1255901, 1256388, 1257013, 1257553, 1258164, 1258758, 1259337, 1259862, 1260470, 1261081, 1261656, 1262223, 1262845, 1263394, 1263952, 1264506, 1265120, 1265727]","[1252503, 1253087, 1253652, 1254232, 1254772, 1255395, 1255921, 1256486, 1257095, 1257646, 1258262, 1258827, 1259404, 1259958, 1260562, 1261168, 1261734, 1262243, 1262942, 1263486, 1264037, 1264619, 1265207, 1265810]","[71, 9, 6, 95, 119, 8, 0, 66, 93, 57, 73, 53, 255, 41, 68, 51, 46, 24, 45, 22, 50, 94, 60, 90]","[1252399, 1252965, 1253602, 1254137, 1254756, 1255314, 1255903, 1256390, 1257016, 1257555, 1258167, 1258761, 1259340, 1259865, 1260472, 1261083, 1261659, 1262224, 1262849, 1263398, 1263955, 1264509, 1265122, 1265730]","[1252208, 1252807, 1253407, 1254007, 1254607, 1255207, 1255808, 1256408, 1257033, 1257573, 1258184, 1258778, 1259357, 1259882, 1260490, 1261101, 1261676, 1262243, 1262865, 1263414, 1263972, 1264526, 1265140, 1265747]",99,EM,U,R,ITMSR,1.1,
4,400,trial,0,55,55,55,trial,"['B', 'S', 'S', 'S', 'S', 'S', 'C', 'C', 'C', 'C', 'C', 'C', 'C', 'C', 'C', 'C', 'C', 'C', 'C', 'C', 'C', 'C']","[1271138, 1271610, 1272250, 1272869, 1273438, 1274009, 1274573, 1275170, 1275704, 1276345, 1276902, 1277508, 1278149, 1278776, 1279334, 1279976, 1280550, 1281114, 1281731, 1282324, 1282934, 1283524]","[1271158, 1271777, 1272351, 1272961, 1273537, 1274102, 1274653, 1275190, 1275806, 1276404, 1276996, 1277563, 1278229, 1278796, 1279419, 1279996, 1280626, 1281192, 1281799, 1282383, 1283013, 1283622]","[10, 63, 84, 247, 6, 36, 24, 155, 243, 199, 229, 201, 3, 193, 14, 192, 48, 20, 8, 239, 232, 36]","[1271138, 1271613, 1272253, 1272872, 1273441, 1274012, 1274576, 1275174, 1275708, 1276349, 1276906, 1277512, 1278152, 1278780, 1279336, 1279980, 1280553, 1281118, 1281735, 1282328, 1282937, 1283528]","[1271151, 1271552, 1271951, 1272351, 1272751, 1273151, 1273551, 1273951, 1274593, 1275190, 1275724, 1276365, 1276922, 1277528, 1278169, 1278796, 1279354, 1279996, 1280570, 1281134, 1281752, 1282344, 1282954, 1283544]",99,EM,U,R,ITMSR,1.1,
4,600,trial,0,56,56,56,trial,"['S', 'S', 'S', 'S', 'S', 'S', 'C', 'C', 'C', 'C', 'C', 'C', 'C', 'C', 'C', 'C', 'C', 'C', 'C', 'C', 'C', 'C', 'C', 'C']","[1289771, 1290374, 1290971, 1292230, 1292825, 1293479, 1294047, 1294639, 1295237, 1295842, 1296423, 1297028, 1297593, 1298196, 1298734, 1299390, 1300531, 1311556, 1312111, 1312694, 1313263, 1313364, 1313840, 1313940]","[1289791, 1290394, 1290991, 1292250, 1292845, 1293596, 1294067, 1294713, 1295322, 1295862, 1296443, 1297102, 1297613, 1298216, 1298823, 1299410, 1300551, 1311576, 1312131, 1312714, 1313283, 1313418, 1313860, 1313960]","[241, 69, 198, 239, 229, 65, 234, 81, 38, 221, 4, 145, 133, 178, 30, 239, 82, 100, 164, 139, 225, 175, 89, 48]","[1289773, 1290376, 1290973, 1292233, 1292826, 1293481, 1294049, 1294642, 1295239, 1295844, 1296425, 1297032, 1297596, 1298199, 1298737, 1299392, 1300532, 1311557, 1312113, 1312696, 1313266, 1313364, 1313842, 1313943]","[1289344, 1289943, 1290542, 1291142, 1291742, 1292342, 1292942, 1293542, 1294067, 1294659, 1295257, 1295862, 1296443, 1297048, 1297613, 1298216, 1298754, 1299410, 1300551, 1311576, 1312131, 1312714, 1313283, 1313860]",99,EM,U,R,ITMSR,1.1,
5,400,trial,0,57,57,57,trial,"['S', 'S', 'S', 'S', 'S', 'C', 'C', 'C', 'C', 'C', 'C', 'C', 'C', 'C', 'C', 'C', 'C', 'C', 'C', 'C', 'C']","[1319961, 1320515, 1321048, 1321623, 1322187, 1322786, 1323396, 1323976, 1324550, 1325088, 1325682, 1326292, 1326840, 1327438, 1328054, 1328648, 1329206, 1329817, 1330414, 1330982, 1331566]","[1320115, 1320674, 1321196, 1321759, 1322337, 1323001, 1323585, 1324099, 1324647, 1325208, 1325799, 1326390, 1326966, 1327544, 1328156, 1328701, 1329271, 1329837, 1330434, 1331002, 1331644]","[128, 103, 120, 104, 78, 91, 104, 38, 33, 60, 68, 69, 54, 50, 23, 248, 212, 180, 207, 94, 13]","[1319964, 1320518, 1321051, 1321626, 1322190, 1322789, 1323399, 1323980, 1324554, 1325091, 1325686, 1326296, 1326843, 1327441, 1328057, 1328652, 1329209, 1329820, 1330417, 1330985, 1331569]","[1319553, 1319952, 1320352, 1320752, 1321152, 1321552, 1321952, 1322352, 1322806, 1323416, 1323996, 1324570, 1325108, 1325702, 1326312, 1326860, 1327458, 1328074, 1328668, 1329226, 1329837, 1330434, 1331002, 1331586]",99,EM,U,R,ITMSR,1.1,
5,600,trial,0,58,58,58,trial,"['S', 'S', 'S', 'S', 'S', 'S', 'S', 'S', 'C', 'C', 'C', 'C', 'C', 'C', 'C', 'C', 'C', 'C', 'C', 'C', 'C', 'C', 'C', 'C']","[1337419, 1337984, 1338620, 1339205, 1339797, 1340362, 1341024, 1341620, 1342223, 1342844, 1343429, 1343994, 1344573, 1345158, 1345768, 1346356, 1346945, 1347517, 1348111, 1348720, 1349286, 1349848, 1350464, 1351054]","[1337523, 1338097, 1338714, 1339296, 1339884, 1340481, 1341111, 1341722, 1342327, 1342959, 1343510, 1344061, 1344593, 1345178, 1345841, 1346404, 1347040, 1347594, 1348182, 1348781, 1349371, 1349964, 1350520, 1351133]","[40, 92, 74, 55, 23, 81, 46, 61, 46, 83, 1, 24, 12, 123, 208, 216, 34, 63, 48, 3, 11, 73, 32, 105]","[1337422, 1337987, 1338625, 1339208, 1339800, 1340366, 1341026, 1341624, 1342227, 1342848, 1343432, 1343998, 1344576, 1345163, 1345773, 1346360, 1346949, 1347520, 1348114, 1348724, 1349291, 1349852, 1350468, 1351058]","[1337237, 1337837, 1338437, 1339037, 1339637, 1340237, 1340837, 1341437, 1342243, 1342864, 1343449, 1344014, 1344593, 1345178, 1345788, 1346376, 1346965, 1347537, 1348131, 1348740, 1349306, 1349868, 1350484, 1351074]",99,EM,U,R,ITMSR,1.1,
4,600,trial,0,59,59,59,trial,"['S', 'S', 'S', 'S', 'S', 'S', 'S', 'C', 'C', 'C', 'C', 'C', 'C', 'C', 'C', 'C', 'C', 'C', 'C', 'C', 'C', 'C', 'C']","[1356989, 1357594, 1358179, 1358790, 1359403, 1359960, 1360519, 1361146, 1361697, 1362309, 1362884, 1363458, 1364052, 1364677, 1365254, 1365785, 1366372, 1367011, 1367612, 1368189, 1368775, 1369367, 1369939]","[1357087, 1357682, 1358260, 1358926, 1359492, 1360069, 1360587, 1361236, 1361818, 1362411, 1362982, 1363539, 1364146, 1364767, 1365327, 1365881, 1366464, 1367096, 1367705, 1368209, 1368842, 1369442, 1369959]","[46, 75, 117, 128, 100, 74, 255, 97, 62, 121, 48, 51, 252, 76, 68, 36, 103, 92, 250, 70, 48, 70, 41]","[1356993, 1357598, 1358181, 1358793, 1359406, 1359964, 1360524, 1361149, 1361701, 1362312, 1362888, 1363462, 1364057, 1364680, 1365257, 1365789, 1366376, 1367015, 1367616, 1368194, 1368779, 1369370, 1369944]","[1356691, 1357291, 1357891, 1358491, 1359091, 1359691, 1360291, 1360891, 1361166, 1361717, 1362329, 1362904, 1363478, 1364072, 1364697, 1365274, 1365805, 1366392, 1367031, 1367632, 1368209, 1368795, 1369388, 1369959]",99,EM,U,R,ITMSR,1.1,
2,600,trial,0,60,60,60,trial,"['S', 'S', 'S', 'S', 'S', 'S', 'S', 'C', 'C', 'C', 'C', 'C', 'C', 'C', 'C', 'C', 'C', 'C', 'C', 'C', 'C', 'C', 'C']","[1375916, 1376520, 1377145, 1377728, 1378371, 1378989, 1379592, 1380225, 1380820, 1381410, 1381968, 1382556, 1383135, 1383752, 1384285, 1384875, 1385465, 1386049, 1386618, 1387195, 1387766, 1388370, 1388993]","[1376003, 1376651, 1377216, 1377838, 1378475, 1379117, 1379686, 1380245, 1380950, 1381516, 1382059, 1382635, 1383237, 1383795, 1384379, 1384937, 1385485, 1386127, 1386696, 1387236, 1387827, 1388440, 1389085]","[55, 100, 64, 72, 88, 101, 82, 14, 14, 73, 92, 46, 82, 107, 90, 65, 15, 73, 94, 69, 89, 81, 136]","[1375919, 1376523, 1377149, 1377731, 1378374, 1378992, 1379595, 1380229, 1380825, 1381413, 1381971, 1382559, 1383138, 1383754, 1384288, 1384879, 1385468, 1386052, 1386621, 1387198, 1387769, 1388374, 1388995]","[1375756, 1376356, 1376956, 1377556, 1378156, 1378756, 1379356, 1379956, 1380245, 1380840, 1381430, 1381988, 1382576, 1383155, 1383772, 1384305, 1384895, 1385485, 1386070, 1386638, 1387215, 1387786, 1388390, 1389014]",99,EM,U,R,ITMSR,1.1,
5,600,trial,0,61,61,61,trial,"['S', 'S', 'S', 'S', 'S', 'S', 'S', 'C', 'C', 'C', 'C', 'C', 'C', 'C', 'C', 'C', 'C', 'C', 'C', 'C', 'C', 'C', 'C']","[1395045, 1395665, 1396286, 1396940, 1397524, 1398113, 1398715, 1399336, 1399953, 1400548, 1401094, 1401721, 1402320, 1402956, 1403546, 1404154, 1404729, 1405371, 1405930, 1406464, 1407125, 1407700, 1408288]","[1395117, 1395685, 1396385, 1396961, 1397544, 1398133, 1398769, 1399356, 1399973, 1400629, 1401180, 1401741, 1402391, 1403014, 1403566, 1404254, 1404785, 1405418, 1405974, 1406534, 1407197, 1407774, 1408376]","[77, 42, 45, 32, 67, 4, 34, 11, 50, 18, 38, 16, 245, 51, 174, 118, 31, 65, 106, 86, 57, 113, 49]","[1395048, 1395670, 1396289, 1396944, 1397527, 1398117, 1398718, 1399340, 1399957, 1400551, 1401096, 1401724, 1402324, 1402960, 1403549, 1404156, 1404732, 1405374, 1405933, 1406467, 1407128, 1407704, 1408291]","[1394808, 1395408, 1396008, 1396609, 1397208, 1397808, 1398408, 1399008, 1399356, 1399973, 1400568, 1401114, 1401741, 1402340, 1402976, 1403566, 1404174, 1404749, 1405391, 1405950, 1406484, 1407145, 1407720, 1408308]",99,EM,U,R,ITMSR,1.1,
0,400,trial,0,62,62,62,trial,"['S', 'S', 'S', 'S', 'S', 'C', 'C', 'C', 'C', 'C', 'C', 'C', 'C', 'C', 'C', 'C', 'C', 'C', 'C', 'C', 'C']","[1414424, 1415036, 1415670, 1416310, 1416892, 1417484, 1418067, 1418626, 1419254, 1419834, 1420460, 1421033, 1421666, 1422310, 1422891, 1423466, 1424080, 1424698, 1425300, 1425876, 1426496]","[1414547, 1415142, 1415855, 1416352, 1416952, 1417504, 1418092, 1418684, 1419274, 1419878, 1420480, 1421053, 1421686, 1422343, 1422911, 1423486, 1424100, 1424718, 1425333, 1425896, 1426516]","[75, 92, 16, 226, 0, 248, 19, 1, 208, 44, 212, 252, 8, 218, 254, 196, 154, 20, 8, 0, 226]","[1414427, 1415038, 1415673, 1416313, 1416895, 1417487, 1418070, 1418628, 1419257, 1419836, 1420463, 1421036, 1421668, 1422312, 1422894, 1423467, 1424082, 1424700, 1425302, 1425879, 1426499]","[1414019, 1414419, 1414819, 1415219, 1415619, 1416019, 1416419, 1416819, 1417504, 1418087, 1418646, 1419274, 1419854, 1420480, 1421053, 1421686, 1422330, 1422911, 1423486, 1424100, 1424718, 1425320, 1425896, 1426516]",99,EM,U,R,ITMSR,1.1,
2,400,trial,0,63,63,63,trial,"['S', 'S', 'S', 'S', 'S', 'C', 'C', 'C', 'C', 'C', 'C', 'C', 'C', 'C', 'C', 'C', 'C', 'C', 'C', 'C', 'C']","[1432580, 1433195, 1433843, 1434424, 1435061, 1435632, 1436212, 1436793, 1437391, 1438028, 1438639, 1439222, 1439862, 1440373, 1440968, 1441584, 1442148, 1442796, 1443432, 1444022, 1444625]","[1432638, 1433245, 1433883, 1434504, 1435116, 1435697, 1436271, 1436868, 1437454, 1438096, 1438725, 1439289, 1439912, 1440484, 1441030, 1441649, 1442168, 1442824, 1443452, 1444042, 1444645]","[81, 13, 68, 89, 63, 81, 52, 77, 47, 94, 84, 83, 62, 82, 221, 212, 5, 234, 30, 85, 56]","[1432582, 1433198, 1433846, 1434426, 1435064, 1435634, 1436215, 1436796, 1437394, 1438031, 1438642, 1439225, 1439865, 1440377, 1440971, 1441587, 1442151, 1442797, 1443434, 1444024, 1444626]","[1432267, 1432667, 1433067, 1433467, 1433867, 1434267, 1434668, 1435067, 1435652, 1436232, 1436813, 1437411, 1438048, 1438659, 1439242, 1439882, 1440393, 1440988, 1441604, 1442168, 1442817, 1443452, 1444042, 1444645]",99,EM,U,R,ITMSR,1.1,
2,400,trial,0,64,64,64,trial,"['S', 'S', 'S', 'S', 'S', 'C', 'C', 'C', 'C', 'C', 'C', 'C', 'C', 'C', 'C', 'C', 'C', 'C', 'C', 'C', 'C']","[1450701, 1451341, 1451921, 1452588, 1453178, 1453773, 1454327, 1454974, 1455572, 1456173, 1456753, 1457344, 1457910, 1458514, 1459095, 1459691, 1460258, 1460860, 1461420, 1462059, 1462605]","[1450827, 1451417, 1452003, 1452668, 1453256, 1453793, 1454375, 1455021, 1455620, 1456218, 1456822, 1457393, 1457930, 1458595, 1459142, 1459749, 1460316, 1460920, 1461481, 1462079, 1462679]","[139, 97, 127, 83, 104, 222, 19, 45, 97, 31, 78, 69, 49, 110, 71, 83, 92, 123, 123, 132, 127]","[1450703, 1451344, 1451924, 1452591, 1453181, 1453776, 1454330, 1454978, 1455575, 1456176, 1456756, 1457347, 1457913, 1458518, 1459098, 1459694, 1460260, 1460864, 1461422, 1462061, 1462607]","[1450431, 1450831, 1451231, 1451631, 1452032, 1452431, 1452831, 1453231, 1453793, 1454347, 1454994, 1455592, 1456193, 1456773, 1457364, 1457930, 1458534, 1459116, 1459712, 1460278, 1460880, 1461440, 1462079, 1462625]",99,EM,U,R,ITMSR,1.1,
1,400,trial,0,65,65,65,trial,"['S', 'S', 'S', 'S', 'S', 'C', 'C', 'C', 'C', 'C', 'C', 'C', 'C', 'C', 'C', 'C', 'C', 'C', 'C', 'C', 'C']","[1468648, 1469202, 1469734, 1470342, 1470926, 1471466, 1471997, 1472627, 1473217, 1473802, 1474409, 1474969, 1475573, 1476141, 1476747, 1477345, 1477972, 1478539, 1479152, 1479768, 1480365]","[1468713, 1469222, 1469787, 1470362, 1470979, 1471520, 1472061, 1472703, 1473238, 1473876, 1474460, 1474989, 1475621, 1476189, 1476806, 1477410, 1478033, 1478601, 1479226, 1479829, 1480438]","[143, 106, 113, 90, 122, 129, 131, 69, 105, 136, 110, 97, 100, 78, 54, 74, 96, 47, 41, 93, 101]","[1468651, 1469205, 1469737, 1470346, 1470928, 1471468, 1472000, 1472630, 1473219, 1473804, 1474412, 1474972, 1475575, 1476144, 1476750, 1477348, 1477976, 1478541, 1479155, 1479771, 1480367]","[1468347, 1468746, 1469146, 1469546, 1469946, 1470346, 1470746, 1471147, 1471486, 1472017, 1472647, 1473238, 1473822, 1474429, 1474989, 1475593, 1476161, 1476767, 1477365, 1477992, 1478559, 1479172, 1479788, 1480385]",99,EM,U,R,ITMSR,1.1,
1,600,trial,0,66,66,66,trial,"['S', 'S', 'S', 'S', 'S', 'S', 'S', 'C', 'C', 'C', 'C', 'C', 'C', 'C', 'C', 'C', 'C', 'C', 'C', 'C', 'C', 'C', 'C']","[1486478, 1487062, 1487640, 1488296, 1488928, 1489564, 1490159, 1490783, 1491351, 1491918, 1492578, 1493122, 1493721, 1494278, 1494947, 1495519, 1496103, 1496719, 1497278, 1497951, 1498573, 1499129, 1499779]","[1486566, 1487160, 1487751, 1488316, 1488948, 1489627, 1490236, 1490803, 1491402, 1492003, 1492618, 1493225, 1493789, 1494356, 1494967, 1495539, 1496199, 1496786, 1497367, 1498028, 1498593, 1499149, 1499799]","[131, 76, 64, 55, 83, 88, 89, 68, 83, 113, 47, 125, 129, 116, 66, 80, 148, 98, 128, 89, 83, 67, 29]","[1486481, 1487065, 1487643, 1488300, 1488931, 1489566, 1490161, 1490786, 1491355, 1491921, 1492581, 1493124, 1493723, 1494281, 1494949, 1495522, 1496105, 1496722, 1497281, 1497954, 1498577, 1499132, 1499783]","[1486046, 1486645, 1487245, 1487845, 1488445, 1489045, 1489645, 1490245, 1490803, 1491372, 1491938, 1492598, 1493142, 1493741, 1494298, 1494967, 1495539, 1496123, 1496739, 1497298, 1497971, 1498593, 1499149, 1499799]",99,EM,U,R,ITMSR,1.1,
1,600,trial,0,67,67,67,trial,"['S', 'S', 'S', 'S', 'S', 'S', 'S', 'S', 'C', 'C', 'C', 'C', 'C', 'C', 'C', 'C', 'C', 'C', 'C', 'C', 'C', 'C', 'C', 'C']","[1505537, 1506111, 1506726, 1507398, 1507975, 1508604, 1509206, 1509841, 1510450, 1511080, 1511667, 1512215, 1512815, 1513443, 1514021, 1514616, 1515200, 1515800, 1516394, 1517022, 1517599, 1518193, 1518815, 1519414]","[1505628, 1506211, 1506848, 1507497, 1508060, 1508624, 1509300, 1509861, 1510576, 1511197, 1511773, 1512322, 1512896, 1513536, 1514046, 1514685, 1515268, 1515894, 1516418, 1517070, 1517712, 1518286, 1518910, 1519534]","[42, 74, 116, 52, 62, 248, 26, 42, 85, 125, 95, 91, 68, 87, 84, 69, 73, 57, 88, 84, 83, 126, 120, 64]","[1505541, 1506114, 1506729, 1507402, 1507979, 1508606, 1509210, 1509848, 1510454, 1511084, 1511671, 1512219, 1512820, 1513447, 1514024, 1514620, 1515204, 1515803, 1516398, 1517025, 1517602, 1518195, 1518817, 1519418]","[1505394, 1505994, 1506594, 1507194, 1507794, 1508395, 1508994, 1509594, 1510470, 1511100, 1511687, 1512236, 1512835, 1513463, 1514041, 1514636, 1515220, 1515821, 1516414, 1517042, 1517619, 1518213, 1518835, 1519434]",99,EM,U,R,ITMSR,1.1,
0,400,trial,0,68,68,68,trial,"['S', 'S', 'S', 'S', 'S', 'C', 'C', 'C', 'C', 'C', 'C', 'C', 'C', 'C', 'C', 'C', 'C', 'C', 'C', 'C', 'C']","[1524890, 1525451, 1526094, 1526779, 1527407, 1528056, 1528656, 1529275, 1529920, 1530493, 1531129, 1531749, 1532343, 1533021, 1533624, 1534245, 1534795, 1535374, 1535928, 1536496, 1536993]","[1524970, 1525542, 1526167, 1526840, 1527486, 1528176, 1528724, 1529368, 1529990, 1530513, 1531204, 1531828, 1532437, 1533075, 1533708, 1534301, 1534860, 1535430, 1536015, 1536541, 1537013]","[59, 98, 248, 17, 28, 98, 73, 101, 61, 9, 85, 108, 76, 87, 113, 94, 70, 42, 241, 31, 183]","[1524893, 1525454, 1526099, 1526784, 1527410, 1528059, 1528659, 1529278, 1529924, 1530498, 1531132, 1531752, 1532345, 1533024, 1533627, 1534248, 1534798, 1535377, 1535932, 1536499, 1536997]","[1524792, 1525192, 1525592, 1525992, 1526392, 1526792, 1527192, 1527592, 1528076, 1528676, 1529295, 1529940, 1530513, 1531149, 1531769, 1532363, 1533041, 1533644, 1534265, 1534815, 1535394, 1535948, 1536516, 1537013]",99,EM,U,R,ITMSR,1.1,
3,600,trial,0,69,69,69,trial,"['S', 'S', 'S', 'S', 'S', 'S', 'S', 'C', 'C', 'C', 'C', 'C', 'C', 'C', 'C', 'C', 'C', 'C', 'C', 'C', 'C', 'C', 'C']","[1542798, 1543390, 1544046, 1544679, 1545296, 1545943, 1546513, 1547100, 1547679, 1548300, 1548913, 1549494, 1550072, 1550653, 1551243, 1551846, 1552455, 1553042, 1553646, 1554216, 1554789, 1555379, 1556070]","[1542818, 1543410, 1544131, 1544768, 1545432, 1545963, 1546605, 1547120, 1547793, 1548320, 1548991, 1549514, 1550092, 1550673, 1551263, 1551930, 1552533, 1553128, 1553667, 1554239, 1554809, 1555474, 1556091]","[251, 112, 228, 35, 152, 104, 254, 231, 76, 182, 255, 15, 174, 185, 233, 41, 22, 16, 33, 33, 5, 234, 53]","[1542801, 1543395, 1544052, 1544683, 1545300, 1545947, 1546517, 1547105, 1547683, 1548304, 1548917, 1549498, 1550076, 1550658, 1551247, 1551851, 1552459, 1553046, 1553651, 1554221, 1554793, 1555384, 1556074]","[1542350, 1542950, 1543550, 1544151, 1544750, 1545350, 1545950, 1546550, 1547120, 1547699, 1548320, 1548933, 1549514, 1550092, 1550673, 1551263, 1551866, 1552475, 1553062, 1553666, 1554236, 1554809, 1555399, 1556090]",99,EM,U,R,ITMSR,1.1,
0,600,trial,0,70,70,70,trial,"['B', 'S', 'S', 'S', 'S', 'S', 'S', 'S', 'C', 'C', 'C', 'C', 'C', 'C', 'C', 'C', 'C', 'C', 'C', 'C', 'C', 'C', 'C', 'C']","[1561388, 1561846, 1562508, 1563136, 1563746, 1564306, 1564835, 1565500, 1566120, 1566757, 1567329, 1567863, 1568497, 1569106, 1569728, 1570332, 1570922, 1571468, 1572063, 1572662, 1573282, 1573815, 1574491, 1575035]","[1561445, 1561994, 1562705, 1563280, 1563852, 1564412, 1564953, 1565589, 1566234, 1566839, 1567396, 1567938, 1568608, 1569210, 1569811, 1570430, 1570983, 1571563, 1572155, 1572744, 1573352, 1573896, 1574511, 1575105]","[75, 116, 40, 81, 20, 52, 215, 64, 5, 50, 5, 227, 5, 60, 185, 39, 225, 249, 254, 200, 54, 33, 131, 245]","[1561388, 1561852, 1562512, 1563140, 1563750, 1564311, 1564840, 1565502, 1566125, 1566761, 1567333, 1567868, 1568501, 1569111, 1569734, 1570335, 1570927, 1571472, 1572067, 1572667, 1573286, 1573819, 1574495, 1575041]","[1561400, 1562000, 1562600, 1563200, 1563800, 1564400, 1565000, 1565600, 1566140, 1566777, 1567349, 1567883, 1568517, 1569126, 1569748, 1570352, 1570942, 1571488, 1572083, 1572682, 1573302, 1573835, 1574511, 1575055]",99,EM,U,R,ITMSR,1.1,
0,600,trial,0,71,71,71,trial,"['S', 'S', 'S', 'S', 'S', 'S', 'S', 'S', 'C', 'C', 'C', 'C', 'C', 'C', 'C', 'C', 'C', 'C', 'C', 'C', 'C', 'C', 'C', 'C']","[1580418, 1581066, 1581606, 1582194, 1582774, 1583391, 1583994, 1584569, 1585145, 1585742, 1586372, 1586954, 1587547, 1588110, 1588752, 1589388, 1590016, 1590654, 1591229, 1591787, 1592386, 1592920, 1593504, 1594081]","[1580534, 1581123, 1581715, 1582282, 1582838, 1583451, 1584058, 1584660, 1585217, 1585824, 1586458, 1587032, 1587646, 1588198, 1588835, 1589487, 1590130, 1590745, 1591278, 1591881, 1592457, 1592999, 1593571, 1594176]","[96, 138, 83, 41, 192, 230, 220, 53, 94, 106, 123, 69, 58, 42, 70, 80, 103, 102, 56, 69, 28, 234, 15, 38]","[1580419, 1581068, 1581608, 1582196, 1582778, 1583395, 1583997, 1584573, 1585148, 1585744, 1586375, 1586957, 1587550, 1588113, 1588755, 1589391, 1590018, 1590657, 1591232, 1591791, 1592389, 1592924, 1593506, 1594084]","[1580382, 1580982, 1581582, 1582182, 1582782, 1583382, 1583982, 1584582, 1585165, 1585762, 1586392, 1586974, 1587567, 1588130, 1588772, 1589408, 1590036, 1590674, 1591249, 1591808, 1592407, 1592940, 1593524, 1594101]",99,EM,U,R,ITMSR,1.1,
4,400,trial,0,72,72,72,trial,"['B', 'S', 'S', 'S', 'S', 'S', 'C', 'C', 'C', 'C', 'C', 'C', 'C', 'C', 'C', 'C', 'C', 'C', 'C', 'C', 'C', 'C']","[1599494, 1599998, 1600514, 1601140, 1601661, 1602260, 1602893, 1603495, 1604117, 1604661, 1605292, 1605863, 1606469, 1607129, 1607676, 1608244, 1608792, 1609387, 1609968, 1610546, 1611127, 1611700]","[1599543, 1600091, 1600644, 1601215, 1601734, 1602356, 1602975, 1603593, 1604185, 1604768, 1605350, 1605950, 1606534, 1607214, 1607753, 1608344, 1608866, 1609461, 1610038, 1610635, 1611203, 1611764]","[100, 88, 161, 90, 26, 25, 34, 60, 234, 72, 180, 9, 223, 42, 178, 76, 61, 60, 144, 70, 36, 26]","[1599509, 1600002, 1600517, 1601143, 1601665, 1602264, 1602896, 1603499, 1604120, 1604663, 1605295, 1605867, 1606472, 1607132, 1607681, 1608246, 1608796, 1609390, 1609972, 1610548, 1611132, 1611703]","[1599507, 1599907, 1600307, 1600707, 1601107, 1601507, 1601907, 1602307, 1602913, 1603515, 1604137, 1604681, 1605312, 1605883, 1606489, 1607149, 1607696, 1608264, 1608812, 1609407, 1609988, 1610566, 1611147, 1611720]",99,EM,U,R,ITMSR,1.1,
3,400,trial,0,73,73,73,trial,"['S', 'S', 'S', 'S', 'S', 'C', 'C', 'C', 'C', 'C', 'C', 'C', 'C', 'C', 'C', 'C', 'C', 'C', 'C', 'C', 'C']","[1617064, 1617693, 1618315, 1618931, 1619546, 1620190, 1620793, 1621404, 1622011, 1622638, 1623215, 1623805, 1624397, 1624962, 1625581, 1626161, 1626825, 1627415, 1628004, 1628557, 1629100]","[1617153, 1617755, 1618411, 1619022, 1619653, 1620259, 1620898, 1621482, 1622103, 1622737, 1623319, 1623909, 1624492, 1625069, 1625667, 1626263, 1626889, 1627438, 1628079, 1628607, 1629189]","[62, 51, 9, 86, 235, 45, 85, 63, 21, 33, 66, 62, 56, 42, 62, 35, 77, 15, 23, 19, 71]","[1617067, 1617696, 1618318, 1618934, 1619550, 1620193, 1620795, 1621407, 1622016, 1622641, 1623218, 1623809, 1624401, 1624965, 1625584, 1626165, 1626828, 1627418, 1628007, 1628561, 1629104]","[1617052, 1617452, 1617851, 1618251, 1618651, 1619051, 1619451, 1619851, 1620210, 1620813, 1621424, 1622031, 1622658, 1623235, 1623825, 1624417, 1624982, 1625602, 1626181, 1626845, 1627436, 1628024, 1628577, 1629120]",99,EM,U,R,ITMSR,1.1,
1,400,trial,0,74,74,74,trial,"['S', 'S', 'S', 'S', 'S', 'C', 'C', 'C', 'C', 'C', 'C', 'C', 'C', 'C', 'C', 'C', 'C', 'C', 'C', 'C', 'C']","[1634821, 1635386, 1635954, 1636531, 1637168, 1637762, 1638346, 1638953, 1639555, 1640196, 1640763, 1641375, 1641948, 1642541, 1643138, 1643738, 1644302, 1644899, 1645510, 1646089, 1646612]","[1634889, 1635464, 1636050, 1636620, 1637189, 1637858, 1638431, 1638976, 1639606, 1640216, 1640845, 1641436, 1642001, 1642614, 1643235, 1643809, 1644396, 1644953, 1645530, 1646109, 1646703]","[234, 38, 237, 255, 243, 45, 51, 29, 234, 13, 43, 42, 52, 25, 38, 252, 9, 35, 238, 147, 79]","[1634825, 1635389, 1635958, 1636535, 1637171, 1637765, 1638350, 1638957, 1639559, 1640200, 1640766, 1641379, 1641951, 1642544, 1643141, 1643741, 1644305, 1644902, 1645513, 1646094, 1646615]","[1634649, 1635048, 1635448, 1635848, 1636248, 1636648, 1637048, 1637448, 1637782, 1638366, 1638973, 1639575, 1640216, 1640783, 1641395, 1641968, 1642561, 1643158, 1643758, 1644322, 1644919, 1645530, 1646109, 1646632]",99,EM,U,R,ITMSR,1.1,
3,400,trial,0,75,75,75,trial,"['S', 'S', 'S', 'S', 'S', 'C', 'C', 'C', 'C', 'C', 'C', 'C', 'C', 'C', 'C', 'C', 'C', 'C', 'C', 'C', 'C', 'C']","[1652798, 1653355, 1653928, 1654582, 1655185, 1655811, 1656392, 1657026, 1657129, 1657606, 1658219, 1658758, 1659407, 1659967, 1660620, 1661172, 1661809, 1662383, 1662957, 1663552, 1664109, 1664712]","[1652898, 1653432, 1654013, 1654671, 1655205, 1655885, 1656482, 1657049, 1657149, 1657626, 1658337, 1658874, 1659427, 1660056, 1660747, 1661223, 1661901, 1662500, 1663013, 1663622, 1664198, 1664811]","[44, 52, 227, 238, 4, 103, 76, 168, 199, 22, 56, 96, 7, 73, 79, 32, 54, 26, 51, 40, 74, 11]","[1652801, 1653358, 1653932, 1654586, 1655188, 1655814, 1656395, 1657029, 1657129, 1657609, 1658223, 1658761, 1659410, 1659970, 1660623, 1661175, 1661811, 1662386, 1662960, 1663556, 1664112, 1664716]","[1652235, 1652635, 1653036, 1653435, 1653835, 1654235, 1654635, 1655035, 1655831, 1656412, 1657047, 1657626, 1658240, 1658778, 1659427, 1659987, 1660640, 1661192, 1661829, 1662403, 1662978, 1663572, 1664130, 1664732]",99,EM,U,R,ITMSR,1.1,
5,400,trial,0,76,76,76,trial,"['S', 'S', 'S', 'S', 'S', 'C', 'C', 'C', 'C', 'C', 'C', 'C', 'C', 'C', 'C', 'C', 'C', 'C', 'C', 'C', 'C']","[1670774, 1671451, 1672045, 1672738, 1673372, 1674039, 1674618, 1675337, 1675960, 1676495, 1677090, 1677649, 1678234, 1678879, 1679484, 1680089, 1680707, 1681345, 1681980, 1682567, 1683203]","[1670794, 1671510, 1672187, 1672827, 1673449, 1674133, 1674793, 1675357, 1675980, 1676623, 1677181, 1677795, 1678345, 1678899, 1679579, 1680197, 1680728, 1681428, 1682032, 1682636, 1683273]","[196, 82, 201, 171, 55, 34, 244, 59, 154, 244, 53, 169, 184, 157, 131, 12, 125, 230, 165, 193, 253]","[1670777, 1671455, 1672049, 1672741, 1673375, 1674042, 1674622, 1675341, 1675963, 1676499, 1677093, 1677655, 1678238, 1678883, 1679489, 1680094, 1680711, 1681349, 1681984, 1682571, 1683206]","[1670362, 1670762, 1671162, 1671562, 1671962, 1672363, 1672762, 1673162, 1674059, 1674638, 1675357, 1675980, 1676515, 1677110, 1677669, 1678254, 1678899, 1679504, 1680109, 1680728, 1681366, 1682000, 1682587, 1683223]",99,EM,U,R,ITMSR,1.1,
2,600,trial,0,77,77,77,trial,"['S', 'S', 'S', 'S', 'S', 'S', 'S', 'S', 'C', 'C', 'C', 'C', 'C', 'C', 'C', 'C', 'C', 'C', 'C', 'C', 'C', 'C', 'C', 'C', 'C']","[1688886, 1689483, 1690046, 1690707, 1691287, 1691884, 1692451, 1693078, 1693752, 1694332, 1694961, 1695581, 1696175, 1696768, 1697398, 1697960, 1698531, 1699125, 1699703, 1700271, 1700871, 1701459, 1701561, 1702117, 1702723]","[1688967, 1689580, 1690217, 1690727, 1691375, 1692001, 1692559, 1693200, 1693858, 1694467, 1695076, 1695601, 1696237, 1696865, 1697485, 1698053, 1698655, 1699262, 1699867, 1700374, 1700990, 1701479, 1701581, 1702197, 1702816]","[97, 240, 226, 48, 64, 61, 60, 83, 107, 74, 196, 223, 67, 27, 70, 92, 29, 9, 39, 95, 2, 176, 28, 224, 83]","[1688888, 1689485, 1690048, 1690710, 1691289, 1691887, 1692452, 1693080, 1693755, 1694336, 1694965, 1695584, 1696178, 1696770, 1697401, 1697964, 1698534, 1699129, 1699706, 1700274, 1700875, 1701463, 1701561, 1702121, 1702726]","[1688808, 1689407, 1690007, 1690607, 1691207, 1691807, 1692407, 1693007, 1693772, 1694352, 1694981, 1695601, 1696195, 1696788, 1697418, 1697980, 1698551, 1699145, 1699723, 1700291, 1700891, 1701479, 1702137, 1702744]",99,EM,U,R,ITMSR,1.1,
4,600,trial,0,78,78,78,trial,"['S', 'S', 'S', 'S', 'S', 'S', 'S', 'S', 'S', 'S', 'C', 'C', 'C', 'C', 'C', 'C', 'C', 'C', 'C', 'C', 'C', 'C', 'C', 'C', 'C', 'C', 'C', 'C']","[1718767, 1719350, 1719939, 1720504, 1720604, 1721049, 1721576, 1722116, 1722683, 1722783, 1723273, 1723373, 1723810, 1724403, 1725003, 1725573, 1726118, 1726218, 1726678, 1727269, 1727853, 1728481, 1729086, 1729734, 1730278, 1730861, 1731446, 1732672]","[1718886, 1719470, 1720056, 1720524, 1720628, 1721148, 1721691, 1722244, 1722703, 1722803, 1723293, 1723393, 1723924, 1724505, 1725023, 1725593, 1726138, 1726238, 1726698, 1727289, 1727940, 1728501, 1729106, 1729755, 1730298, 1730930, 1731529, 1732759]","[44, 58, 40, 160, 208, 196, 232, 171, 6, 47, 208, 42, 215, 160, 147, 249, 50, 72, 59, 152, 194, 134, 202, 165, 230, 171, 207, 96]","[1718773, 1719354, 1719945, 1720510, 1720604, 1721053, 1721580, 1722122, 1722689, 1722783, 1723278, 1723373, 1723815, 1724409, 1725007, 1725577, 1726123, 1726218, 1726683, 1727276, 1727858, 1728486, 1729088, 1729738, 1730283, 1730866, 1731451, 1732677]","[1718571, 1719170, 1719770, 1720370, 1720970, 1721570, 1722170, 1722770, 1723293, 1723830, 1724423, 1725023, 1725593, 1726138, 1726698, 1727289, 1727874, 1728501, 1729106, 1729754, 1730298, 1730881, 1731466, 1732692]",99,EM,U,R,ITMSR,1.1,
1,400,trial,0,79,79,79,trial,"['S', 'S', 'S', 'S', 'S', 'S', 'C', 'C', 'C', 'C', 'C', 'C', 'C', 'C', 'C', 'C', 'C', 'C', 'C', 'C', 'C', 'C', 'C']","[1738250, 1738718, 1739340, 1739881, 1740463, 1741023, 1741595, 1742163, 1743400, 1743991, 1744617, 1745255, 1745820, 1746445, 1747018, 1747631, 1748192, 1750086, 1750650, 1751886, 1751988, 1752516, 1753126]","[1738351, 1738885, 1739505, 1740063, 1740578, 1741134, 1741729, 1742183, 1743420, 1744011, 1744637, 1745275, 1745930, 1746465, 1747038, 1747713, 1748291, 1750199, 1750740, 1751906, 1752008, 1752536, 1753197]","[133, 231, 246, 184, 35, 37, 146, 69, 21, 34, 34, 107, 103, 170, 55, 0, 67, 77, 21, 254, 48, 39, 184]","[1738253, 1738723, 1739345, 1739886, 1740467, 1741027, 1741598, 1742163, 1743404, 1743992, 1744619, 1745256, 1745823, 1746447, 1747021, 1747635, 1748194, 1750089, 1750653, 1751889, 1751991, 1752520, 1753131]","[1738191, 1738591, 1738991, 1739392, 1739791, 1740191, 1740591, 1740991, 1741615, 1742183, 1743420, 1744011, 1744637, 1745275, 1745840, 1746465, 1747038, 1747651, 1748212, 1750106, 1750670, 1751906, 1752536, 1753146]",99,EM,U,R,ITMSR,1.1,
0,400,trial,0,80,80,80,trial,"['S', 'S', 'S', 'S', 'S', 'C', 'C', 'C', 'C', 'C', 'C', 'C', 'C', 'C', 'C', 'C', 'C', 'C', 'C', 'C', 'C', 'C']","[1758910, 1759489, 1760036, 1760589, 1761113, 1761733, 1762276, 1762918, 1763471, 1764018, 1764557, 1765158, 1765738, 1766358, 1766940, 1767524, 1768100, 1768689, 1769317, 1769940, 1770467, 1770567]","[1758984, 1759600, 1760145, 1760609, 1761133, 1761829, 1762437, 1762940, 1763575, 1764115, 1764706, 1765244, 1765822, 1766460, 1767030, 1767544, 1768120, 1768709, 1769424, 1770007, 1770487, 1770602]","[208, 200, 227, 191, 223, 226, 254, 133, 50, 231, 91, 187, 245, 117, 168, 147, 43, 4, 234, 214, 150, 217]","[1758915, 1759494, 1760040, 1760592, 1761117, 1761736, 1762280, 1762923, 1763473, 1764021, 1764561, 1765163, 1765743, 1766361, 1766943, 1767528, 1768103, 1768692, 1769321, 1769945, 1770472, 1770567]","[1758553, 1758953, 1759353, 1759753, 1760153, 1760553, 1760953, 1761353, 1761753, 1762296, 1762938, 1763491, 1764038, 1764577, 1765178, 1765758, 1766378, 1766960, 1767544, 1768120, 1768709, 1769337, 1769960, 1770487]",99,EM,U,R,ITMSR,1.1,
2,400,trial,0,81,81,81,trial,"['S', 'S', 'S', 'S', 'S', 'S', 'C', 'C', 'C', 'C', 'C', 'C', 'C', 'C', 'C', 'C', 'C', 'C', 'C', 'C', 'C', 'C']","[1776250, 1776898, 1777504, 1778066, 1778635, 1778735, 1779270, 1779863, 1780432, 1781098, 1781716, 1782335, 1782871, 1783525, 1784097, 1784682, 1785287, 1785895, 1786494, 1787104, 1787673, 1788272]","[1776270, 1776918, 1777525, 1778181, 1778655, 1778755, 1779346, 1779959, 1780452, 1781173, 1781805, 1782364, 1782955, 1783597, 1784192, 1784773, 1785378, 1785997, 1786578, 1787188, 1787774, 1788345]","[73, 62, 73, 43, 244, 119, 84, 23, 9, 69, 64, 73, 41, 99, 52, 237, 96, 222, 60, 34, 249, 61]","[1776254, 1776902, 1777506, 1778071, 1778638, 1778735, 1779274, 1779868, 1780436, 1781102, 1781721, 1782338, 1782874, 1783528, 1784100, 1784686, 1785291, 1785901, 1786498, 1787109, 1787678, 1788277]","[1775902, 1776302, 1776702, 1777102, 1777502, 1777902, 1778302, 1778702, 1779290, 1779884, 1780452, 1781118, 1781736, 1782355, 1782891, 1783545, 1784117, 1784702, 1785307, 1785915, 1786514, 1787124, 1787693, 1788292]",99,EM,U,R,ITMSR,1.1,
4,600,trial,0,82,82,82,trial,"['S', 'S', 'S', 'S', 'S', 'S', 'S', 'C', 'C', 'C', 'C', 'C', 'C', 'C', 'C', 'C', 'C', 'C', 'C', 'C', 'C', 'C', 'C']","[1794187, 1794786, 1795417, 1796068, 1796707, 1797312, 1797962, 1798568, 1799213, 1799751, 1800391, 1800962, 1801609, 1802142, 1802767, 1803303, 1803868, 1804466, 1805085, 1805742, 1806364, 1806910, 1807497]","[1794263, 1794903, 1795520, 1796165, 1796784, 1797424, 1798066, 1798657, 1799270, 1799866, 1800497, 1801088, 1801661, 1802234, 1802847, 1803424, 1803987, 1804559, 1805138, 1805814, 1806435, 1807002, 1807559]","[61, 93, 107, 67, 109, 87, 114, 82, 92, 114, 107, 87, 45, 109, 95, 240, 110, 70, 157, 12, 68, 38, 39]","[1794190, 1794789, 1795420, 1796071, 1796709, 1797315, 1797965, 1798573, 1799216, 1799755, 1800394, 1800966, 1801612, 1802145, 1802770, 1803310, 1803871, 1804471, 1805090, 1805747, 1806369, 1806912, 1807500]","[1793841, 1794441, 1795041, 1795641, 1796241, 1796841, 1797441, 1798041, 1798588, 1799233, 1799771, 1800411, 1800982, 1801629, 1802162, 1802787, 1803323, 1803888, 1804486, 1805105, 1805762, 1806384, 1806930, 1807517]",99,EM,U,R,ITMSR,1.1,
0,600,trial,0,83,83,83,trial,"['S', 'S', 'S', 'S', 'S', 'S', 'S', 'S', 'C', 'C', 'C', 'C', 'C', 'C', 'C', 'C', 'C', 'C', 'C', 'C', 'C', 'C', 'C', 'C']","[1812983, 1813492, 1814011, 1814651, 1815242, 1815831, 1816400, 1816993, 1817630, 1818264, 1818862, 1819442, 1820071, 1820594, 1821175, 1821751, 1822308, 1822853, 1823440, 1823971, 1824563, 1825143, 1825714, 1826306]","[1813088, 1813596, 1814247, 1814756, 1815308, 1815910, 1816421, 1817100, 1817660, 1818366, 1818946, 1819539, 1820133, 1820679, 1821278, 1821848, 1822423, 1822973, 1823539, 1824032, 1824670, 1825242, 1825824, 1826421]","[31, 39, 32, 37, 30, 68, 2, 219, 201, 12, 22, 210, 8, 168, 49, 59, 86, 245, 46, 20, 69, 40, 235, 233]","[1812987, 1813495, 1814014, 1814654, 1815245, 1815834, 1816403, 1816996, 1817635, 1818267, 1818866, 1819446, 1820076, 1820598, 1821178, 1821753, 1822311, 1822856, 1823443, 1823975, 1824566, 1825147, 1825718, 1826309]","[1812933, 1813532, 1814132, 1814732, 1815332, 1815932, 1816532, 1817133, 1817650, 1818285, 1818882, 1819462, 1820091, 1820614, 1821195, 1821771, 1822328, 1822873, 1823460, 1823991, 1824583, 1825163, 1825734, 1826326]",99,EM,U,R,ITMSR,1.1,
1,400,trial,0,84,84,84,trial,"['S', 'S', 'S', 'S', 'S', 'S', 'C', 'C', 'C', 'C', 'C', 'C', 'C', 'C', 'C', 'C', 'C', 'C', 'C', 'C', 'C', 'C']","[1831737, 1832281, 1832925, 1833492, 1834074, 1834643, 1835240, 1835766, 1836344, 1836974, 1837592, 1838200, 1838822, 1839406, 1840013, 1840595, 1841189, 1841763, 1842315, 1842962, 1843589, 1844178]","[1831843, 1832375, 1833029, 1833598, 1834201, 1834771, 1835357, 1835880, 1836473, 1837092, 1837694, 1838304, 1838922, 1839539, 1840132, 1840703, 1841315, 1841878, 1842477, 1843120, 1843738, 1844322]","[254, 0, 53, 49, 86, 64, 232, 255, 254, 3, 46, 213, 219, 99, 229, 8, 84, 42, 21, 85, 45, 86]","[1831740, 1832285, 1832928, 1833495, 1834077, 1834647, 1835244, 1835769, 1836347, 1836977, 1837594, 1838203, 1838825, 1839409, 1840016, 1840600, 1841191, 1841766, 1842319, 1842967, 1843595, 1844183]","[1831694, 1832094, 1832494, 1832894, 1833294, 1833694, 1834094, 1834494, 1835260, 1835786, 1836364, 1836994, 1837613, 1838220, 1838842, 1839426, 1840033, 1840615, 1841209, 1841783, 1842335, 1842982, 1843609, 1844198]",99,EM,U,R,ITMSR,1.1,
4,400,trial,0,85,85,85,trial,"['S', 'S', 'S', 'S', 'S', 'C', 'C', 'C', 'C', 'C', 'C', 'C', 'C', 'C', 'C', 'C', 'C', 'C', 'C', 'C', 'C']","[1850068, 1850664, 1851255, 1851853, 1852422, 1853020, 1853587, 1854191, 1854764, 1855363, 1855911, 1856524, 1857061, 1857642, 1858223, 1858844, 1859386, 1859992, 1860580, 1861158, 1861746]","[1850259, 1850812, 1851387, 1851975, 1852538, 1853146, 1853713, 1854284, 1854901, 1855484, 1856032, 1856631, 1857201, 1857772, 1858354, 1858967, 1859406, 1860013, 1860746, 1861260, 1861868]","[96, 68, 0, 23, 40, 50, 11, 210, 201, 230, 31, 166, 47, 19, 23, 151, 61, 202, 15, 221, 152]","[1850073, 1850671, 1851259, 1851859, 1852428, 1853027, 1853593, 1854194, 1854768, 1855366, 1855915, 1856527, 1857067, 1857648, 1858229, 1858884, 1859389, 1859996, 1860586, 1861161, 1861750]","[1849632, 1850032, 1850432, 1850832, 1851232, 1851632, 1852033, 1852432, 1853040, 1853607, 1854211, 1854784, 1855383, 1855931, 1856544, 1857081, 1857662, 1858243, 1858864, 1859406, 1860013, 1860600, 1861178, 1861766]",99,EM,U,R,ITMSR,1.1,
3,600,trial,0,86,86,86,trial,"['S', 'S', 'S', 'S', 'S', 'S', 'S', 'S', 'C', 'C', 'C', 'C', 'C', 'C', 'C', 'C', 'C', 'C', 'C', 'C', 'C', 'C', 'C', 'C']","[1867214, 1867774, 1868396, 1868987, 1869555, 1870119, 1870728, 1871299, 1871894, 1872436, 1873005, 1873606, 1874183, 1874788, 1875352, 1875924, 1876498, 1877040, 1877636, 1878256, 1878829, 1879430, 1880022, 1880603]","[1867240, 1867910, 1868502, 1869162, 1869716, 1870266, 1870879, 1871442, 1872037, 1872608, 1873158, 1873738, 1874313, 1874907, 1875504, 1876049, 1876629, 1877159, 1877738, 1878369, 1878947, 1879554, 1880119, 1880728]","[212, 218, 109, 0, 33, 15, 47, 21, 53, 0, 216, 224, 1, 167, 186, 3, 103, 244, 102, 83, 1, 23, 194, 144]","[1867217, 1867780, 1868400, 1868992, 1869561, 1870125, 1870735, 1871305, 1871900, 1872439, 1873012, 1873610, 1874188, 1874793, 1875358, 1875930, 1876501, 1877043, 1877637, 1878258, 1878836, 1879437, 1880026, 1880609]","[1867114, 1867714, 1868314, 1868914, 1869514, 1870114, 1870714, 1871314, 1871915, 1872456, 1873026, 1873626, 1874203, 1874808, 1875373, 1875944, 1876518, 1877060, 1877656, 1878276, 1878849, 1879450, 1880042, 1880623]",99,EM,U,R,ITMSR,1.1,
3,400,trial,0,87,87,87,trial,"['S', 'S', 'S', 'S', 'S', 'C', 'C', 'C', 'C', 'C', 'C', 'C', 'C', 'C', 'C', 'C', 'C', 'C', 'C', 'C', 'C']","[1886578, 1887228, 1887814, 1888416, 1889022, 1889600, 1890180, 1890802, 1891376, 1891982, 1892531, 1893116, 1893753, 1894346, 1894875, 1895460, 1896612, 1897769, 1898297, 1898891, 1899460]","[1886707, 1887335, 1887910, 1888525, 1889051, 1889740, 1890269, 1890919, 1891467, 1892103, 1892659, 1893230, 1893868, 1894458, 1894975, 1895558, 1896737, 1897899, 1898407, 1899021, 1899573]","[253, 87, 20, 222, 237, 60, 210, 73, 56, 44, 70, 50, 37, 73, 88, 8, 39, 35, 221, 30, 27]","[1886583, 1887233, 1887819, 1888420, 1889027, 1889602, 1890184, 1890807, 1891380, 1891987, 1892534, 1893122, 1893761, 1894351, 1894879, 1895467, 1896617, 1897777, 1898302, 1898896, 1899465]","[1886213, 1886613, 1887013, 1887413, 1887813, 1888214, 1888613, 1889013, 1889620, 1890200, 1890822, 1891396, 1892002, 1892551, 1893136, 1893773, 1894366, 1894895, 1895480, 1896632, 1897789, 1898317, 1898911, 1899480]",99,EM,U,R,ITMSR,1.1,
2,400,trial,0,88,88,88,trial,"['S', 'S', 'S', 'S', 'S', 'S', 'C', 'C', 'C', 'C', 'C', 'C', 'C', 'C', 'C', 'C', 'C', 'C', 'C', 'C', 'C', 'C']","[1905266, 1905861, 1906408, 1907002, 1907554, 1908163, 1908705, 1909282, 1909851, 1910444, 1911000, 1911589, 1912190, 1912798, 1913364, 1913928, 1914530, 1915133, 1915706, 1916292, 1916851, 1917471]","[1905384, 1905949, 1906520, 1907121, 1907677, 1908281, 1908818, 1909411, 1909955, 1910540, 1911106, 1911662, 1912313, 1912912, 1913491, 1914059, 1914671, 1915235, 1915798, 1916416, 1916969, 1917590]","[39, 31, 73, 66, 89, 104, 74, 114, 129, 82, 43, 23, 74, 128, 34, 118, 87, 30, 255, 76, 36, 33]","[1905270, 1905865, 1906413, 1907008, 1907559, 1908167, 1908710, 1909287, 1909856, 1910449, 1911005, 1911592, 1912197, 1912802, 1913369, 1913931, 1914535, 1915139, 1915710, 1916298, 1916855, 1917477]","[1905254, 1905653, 1906053, 1906453, 1906853, 1907253, 1907653, 1908054, 1908725, 1909302, 1909871, 1910464, 1911020, 1911609, 1912210, 1912818, 1913384, 1913948, 1914550, 1915153, 1915726, 1916312, 1916871, 1917491]",99,EM,U,R,ITMSR,1.1,
5,600,trial,0,89,89,89,trial,"['S', 'S', 'S', 'S', 'S', 'S', 'S', 'S', 'C', 'C', 'C', 'C', 'C', 'C', 'C', 'C', 'C', 'C', 'C', 'C', 'C', 'C', 'C', 'C']","[1923480, 1923585, 1924071, 1924656, 1925239, 1925856, 1926413, 1927041, 1927598, 1928228, 1928798, 1929389, 1929989, 1930586, 1931162, 1931744, 1932339, 1932971, 1933518, 1934075, 1934714, 1935286, 1935876, 1936479]","[1923505, 1923605, 1924183, 1924766, 1925341, 1925971, 1926565, 1927162, 1927714, 1928369, 1928913, 1929526, 1930110, 1930723, 1931287, 1931870, 1932491, 1933075, 1933696, 1934218, 1934874, 1935405, 1936028, 1936630]","[61, 146, 25, 40, 250, 28, 8, 66, 134, 245, 214, 57, 26, 41, 33, 38, 5, 21, 73, 37, 34, 65, 38, 89]","[1923483, 1923585, 1924076, 1924661, 1925244, 1925860, 1926418, 1927046, 1927602, 1928232, 1928801, 1929393, 1929992, 1930589, 1931167, 1931749, 1932345, 1932977, 1933521, 1934081, 1934717, 1935291, 1935880, 1936482]","[1923138, 1923738, 1924338, 1924938, 1925538, 1926138, 1926738, 1927339, 1927618, 1928248, 1928818, 1929409, 1930009, 1930606, 1931182, 1931764, 1932359, 1932991, 1933538, 1934095, 1934734, 1935306, 1935896, 1936499]",99,EM,U,R,ITMSR,1.1,
