pitch,ioi,event,.thisRepN,.thisTrialN,.thisN,.thisIndex,event,tap_types,tap_times,release_times,peak_pressures,peak_times,tone_times,subject,experimenter,register,handedness,experiment,version,
,,SPR,0,-1,-1,0,SPR,"['P', 'P', 'P', 'P', 'P', 'P', 'P', 'P', 'P', 'P', 'P', 'P', 'P', 'P', 'P', 'P', 'P', 'P', 'P', 'P', 'P', 'P', 'P', 'P', 'P', 'P', 'P', 'P', 'P', 'P']","[43764, 44365, 44930, 45536, 46131, 46693, 47279, 47851, 48422, 48968, 49567, 50134, 50736, 51321, 51870, 52431, 53008, 53603, 54152, 54713, 55329, 55959, 56514, 57086, 57658, 58224, 58793, 59377, 59880, 60489]","[43860, 44452, 45053, 45631, 46244, 46798, 47385, 47969, 48528, 49092, 49691, 50244, 50875, 51453, 52020, 52582, 53137, 53738, 54319, 54846, 55473, 56114, 56653, 57232, 57803, 58345, 58948, 59500, 60036, 60622]","[181, 1, 156, 81, 28, 17, 53, 133, 238, 71, 142, 35, 96, 72, 61, 47, 64, 57, 145, 39, 68, 28, 28, 233, 135, 6, 14, 8, 14, 29]","[43771, 44375, 45004, 45541, 46194, 46753, 47327, 47910, 48430, 49048, 49632, 50198, 50797, 51384, 51936, 52511, 53076, 53678, 54251, 54800, 55399, 56025, 56581, 57167, 57718, 58290, 58868, 59443, 59942, 60547]",,93,OR,U,R,ITMSR,1.1,
0,500,practice,0,0,0,0,practice,"['B', 'S', 'S', 'S', 'S', 'S', 'S', 'S', 'C', 'C', 'C', 'C', 'C', 'C', 'C', 'C', 'C', 'C', 'C', 'C', 'C', 'C', 'C', 'C', 'C']","[132208, 132861, 133157, 133625, 134168, 134630, 135139, 135592, 136080, 136462, 136781, 137056, 137297, 143398, 144317, 144658, 145745, 146160, 146577, 147529, 148005, 148635, 149276, 149569, 149970]","[132251, 132961, 133280, 133734, 134273, 134757, 135240, 135696, 136210, 136569, 136892, 137174, 137383, 143465, 144396, 144746, 145826, 146267, 146665, 147633, 148100, 148726, 149297, 149590, 150026]","[165, 116, 1, 217, 125, 151, 138, 109, 108, 131, 169, 95, 59, 32, 6, 131, 37, 173, 27, 63, 111, 56, 7, 39, 149]","[132208, 132915, 133206, 133634, 134220, 134684, 135189, 135640, 136138, 136519, 136833, 137112, 137331, 143407, 144359, 144702, 145783, 146196, 146587, 147576, 148049, 148672, 149282, 149585, 150006]","[132221, 132720, 133220, 133720, 134220, 134720, 135220, 135720, 136100, 136482, 136801, 137076, 143418, 144337, 144678, 145765, 146180, 146597, 147549, 148025, 148655, 149296, 149590, 149990]",93,OR,U,R,ITMSR,1.1,
4,500,practice,0,1,1,1,practice,"['S', 'C', 'C', 'C', 'C', 'C', 'C', 'C', 'C', 'C', 'C', 'C', 'C', 'C', 'C', 'C', 'C']","[158467, 160314, 160766, 161227, 161713, 162201, 162705, 163215, 163706, 164218, 164733, 165169, 165701, 166238, 166693, 167186, 167695]","[158552, 160423, 160847, 161305, 161789, 162277, 162784, 163287, 163765, 164293, 164811, 165226, 165773, 166320, 166765, 167271, 167759]","[143, 169, 53, 222, 208, 135, 1, 206, 5, 248, 226, 253, 119, 159, 210, 7, 210]","[158499, 160377, 160802, 161263, 161745, 162231, 162714, 163245, 163738, 164254, 164780, 165192, 165731, 166270, 166733, 167230, 167734]","[155448, 155949, 156449, 156949, 157449, 157949, 158449, 158949, 160334, 160786, 161247, 161733, 162221, 162725, 163235, 163726, 164238, 164753, 165189, 165721, 166258, 166713, 167206, 167715]",93,OR,U,R,ITMSR,1.1,
3,500,practice,0,2,2,2,practice,"['S', 'S', 'S', 'S', 'S', 'S', 'S', 'S', 'C', 'C', 'C', 'C', 'C', 'C', 'C', 'C', 'C', 'C', 'C', 'C', 'C', 'C', 'C', 'C']","[173742, 174109, 174542, 174900, 175340, 175799, 176305, 176815, 177327, 177716, 178128, 178565, 179010, 179427, 179863, 180302, 180756, 181271, 181771, 182242, 182752, 183181, 183650, 184085]","[173849, 174210, 174646, 174950, 175432, 175865, 176396, 176897, 177415, 177797, 178208, 178638, 179073, 179507, 179923, 180370, 180842, 181348, 181836, 182312, 182828, 183245, 183729, 184153]","[105, 54, 96, 59, 106, 170, 36, 238, 129, 230, 198, 61, 141, 33, 199, 214, 115, 228, 237, 90, 46, 229, 100, 46]","[173789, 174147, 174585, 174929, 175374, 175832, 176342, 176851, 177359, 177761, 178136, 178595, 179041, 179437, 179873, 180335, 180796, 181308, 181781, 182250, 182762, 183211, 183657, 184093]","[173410, 173910, 174409, 174909, 175409, 175909, 176409, 176909, 177347, 177736, 178148, 178585, 179031, 179447, 179884, 180322, 180776, 181292, 181791, 182262, 182772, 183201, 183670, 184105]",93,OR,U,R,ITMSR,1.1,
1,500,practice,0,3,3,3,practice,"['S', 'S', 'S', 'S', 'S', 'S', 'C', 'C', 'C', 'C', 'C', 'C', 'C', 'C', 'C', 'C', 'C', 'C', 'C', 'C', 'C', 'C']","[189897, 190352, 190815, 191882, 192362, 192833, 193360, 193920, 194386, 194863, 195392, 195790, 196313, 196818, 198616, 199251, 200093, 200558, 201000, 201445, 201881, 202373]","[190049, 190460, 190885, 191948, 192462, 192918, 193438, 193971, 194438, 194919, 195412, 195857, 196336, 196865, 198704, 199293, 200188, 200625, 201092, 201530, 201967, 202421]","[86, 89, 113, 171, 154, 214, 11, 168, 152, 102, 61, 238, 71, 92, 177, 9, 104, 149, 58, 31, 70, 85]","[189947, 190405, 190841, 191921, 192367, 192875, 193394, 193927, 194415, 194895, 195401, 195818, 196321, 196841, 198662, 199274, 200142, 200593, 201052, 201490, 201921, 202393]","[189408, 189908, 190408, 190908, 191408, 191908, 192408, 192908, 193380, 193940, 194406, 194883, 195412, 195810, 196333, 196838, 198636, 199271, 200113, 200578, 201020, 201465, 201901, 202393]",93,OR,U,R,ITMSR,1.1,
2,500,practice,0,4,4,4,practice,"['S', 'S', 'S', 'S', 'S', 'C', 'C', 'C', 'C', 'C', 'C', 'C', 'C', 'C', 'C', 'C', 'C', 'C', 'C', 'C', 'C']","[209050, 209567, 210063, 210629, 211110, 211627, 212128, 212584, 213053, 213535, 214016, 214492, 214958, 215434, 215925, 216392, 216878, 217374, 217854, 218386, 218795]","[209095, 209669, 210172, 210718, 211190, 211712, 212201, 212659, 213129, 213621, 214094, 214563, 215028, 215519, 216007, 216492, 216974, 217468, 217932, 218465, 218869]","[129, 116, 79, 179, 194, 206, 22, 205, 247, 39, 62, 126, 39, 68, 14, 6, 198, 42, 34, 169, 192]","[209059, 209627, 210115, 210684, 211151, 211663, 212166, 212621, 213061, 213579, 214057, 214525, 214964, 215441, 215960, 216443, 216911, 217383, 217863, 218393, 218832]","[207695, 208195, 208695, 209196, 209695, 210195, 210695, 211195, 211647, 212148, 212604, 213073, 213555, 214036, 214512, 214978, 215454, 215945, 216412, 216898, 217394, 217874, 218406, 218815]",93,OR,U,R,ITMSR,1.1,
5,500,practice,0,5,5,5,practice,"['S', 'S', 'S', 'S', 'S', 'S', 'S', 'S', 'C', 'C', 'C', 'C', 'C', 'C', 'C', 'C', 'C', 'C', 'C', 'C', 'C', 'C', 'C', 'C']","[224624, 224968, 225330, 225781, 226275, 226768, 227292, 227782, 228274, 228759, 229291, 229788, 230256, 230678, 231133, 231669, 232160, 232680, 233194, 233707, 234183, 234685, 235173, 235682]","[224711, 225057, 225406, 225885, 226355, 226861, 227392, 227859, 228349, 228834, 229351, 229866, 230329, 230758, 231193, 231747, 232235, 232733, 233257, 233757, 234248, 234735, 235245, 235746]","[104, 164, 64, 73, 33, 255, 25, 49, 152, 17, 60, 78, 207, 164, 135, 229, 62, 210, 23, 195, 131, 175, 173, 163]","[224630, 225005, 225337, 225831, 226307, 226819, 227332, 227826, 228306, 228792, 229314, 229828, 230300, 230724, 231161, 231695, 232190, 232710, 233229, 233730, 234215, 234690, 235217, 235689]","[224340, 224840, 225340, 225840, 226340, 226840, 227340, 227841, 228294, 228780, 229311, 229808, 230276, 230699, 231153, 231689, 232180, 232700, 233214, 233728, 234203, 234705, 235193, 235702]",93,OR,U,R,ITMSR,1.1,
1,400,trial,0,6,6,6,trial,"['S', 'S', 'S', 'S', 'S', 'S', 'S', 'S', 'C', 'C', 'C', 'C', 'C', 'C', 'C', 'C', 'C', 'C', 'C', 'C', 'C', 'C', 'C', 'C']","[249132, 249457, 249836, 250160, 250500, 250920, 251312, 251714, 252105, 252495, 252899, 253297, 253672, 254064, 254485, 254870, 255260, 255678, 256102, 256483, 256852, 257283, 257693, 258084]","[249180, 249518, 249903, 250226, 250567, 250985, 251374, 251782, 252173, 252563, 252960, 253362, 253733, 254142, 254551, 254922, 255325, 255751, 256158, 256562, 256936, 257348, 257764, 258153]","[150, 246, 192, 136, 52, 205, 168, 64, 166, 253, 69, 53, 223, 59, 204, 198, 64, 29, 218, 48, 100, 61, 243, 254]","[249140, 249462, 249842, 250165, 250508, 250927, 251318, 251721, 252110, 252504, 252907, 253305, 253679, 254070, 254493, 254877, 255266, 255685, 256109, 256489, 256859, 257290, 257699, 258091]","[248908, 249308, 249708, 250108, 250508, 250908, 251309, 251709, 252125, 252515, 252919, 253317, 253692, 254084, 254505, 254891, 255280, 255698, 256122, 256503, 256872, 257303, 257713, 258104]",93,OR,U,R,ITMSR,1.1,
5,400,trial,0,7,7,7,trial,"['S', 'S', 'S', 'S', 'S', 'S', 'S', 'C', 'C', 'C', 'C', 'C', 'C', 'C', 'C', 'C', 'C', 'C', 'C', 'C', 'C', 'C', 'C']","[263899, 264333, 264783, 265160, 265592, 265960, 266374, 266777, 267171, 267588, 267992, 268410, 268809, 269244, 269626, 270060, 270464, 270862, 271291, 271690, 272102, 272499, 272899]","[263988, 264415, 264857, 265243, 265670, 266029, 266417, 266851, 267243, 267683, 268064, 268477, 268876, 269312, 269687, 270128, 270532, 270943, 271348, 271762, 272166, 272563, 272961]","[218, 46, 46, 180, 196, 189, 28, 9, 192, 4, 18, 229, 63, 38, 97, 61, 232, 255, 222, 66, 81, 31, 214]","[263950, 264336, 264813, 265210, 265626, 265993, 266381, 266810, 267203, 267595, 267999, 268418, 268836, 269251, 269631, 270067, 270492, 270893, 271298, 271696, 272106, 272504, 272906]","[263610, 264010, 264410, 264810, 265210, 265610, 266010, 266411, 266797, 267191, 267608, 268012, 268430, 268829, 269264, 269646, 270081, 270484, 270882, 271311, 271710, 272122, 272519, 272919]",93,OR,U,R,ITMSR,1.1,
0,400,trial,0,8,8,8,trial,"['S', 'S', 'S', 'S', 'S', 'S', 'C', 'C', 'C', 'C', 'C', 'C', 'C', 'C', 'C', 'C', 'C', 'C', 'C', 'C', 'C', 'C']","[279346, 279802, 280220, 280627, 281051, 281442, 281839, 282200, 282617, 283038, 283470, 283846, 284264, 284660, 285044, 285451, 285882, 286268, 286680, 287071, 287451, 287843]","[279430, 279872, 280298, 280697, 281122, 281516, 281912, 282279, 282682, 283109, 283510, 283916, 284343, 284728, 285113, 285507, 285941, 286337, 286750, 287131, 287518, 287917]","[200, 113, 35, 151, 136, 106, 48, 91, 134, 19, 116, 105, 44, 51, 109, 15, 225, 10, 222, 25, 33, 92]","[279392, 279808, 280226, 280632, 281060, 281447, 281847, 282206, 282620, 283045, 283480, 283852, 284268, 284666, 285050, 285458, 285889, 286275, 286687, 287096, 287457, 287849]","[278678, 279078, 279478, 279878, 280279, 280678, 281078, 281478, 281859, 282220, 282637, 283058, 283490, 283866, 284284, 284680, 285064, 285471, 285902, 286288, 286700, 287091, 287471, 287863]",93,OR,U,R,ITMSR,1.1,
4,600,trial,0,9,9,9,trial,"['S', 'S', 'S', 'S', 'S', 'S', 'S', 'C', 'C', 'C', 'C', 'C', 'C', 'C', 'C', 'C', 'C', 'C', 'C', 'C', 'C', 'C', 'C']","[293769, 294327, 294947, 295560, 296159, 296763, 297354, 297919, 298531, 299115, 299676, 300230, 300836, 301375, 301930, 302489, 303026, 303625, 304161, 304721, 305277, 305811, 306330]","[293906, 294423, 295018, 295627, 296253, 296833, 297433, 297996, 298618, 299186, 299752, 300325, 300916, 301473, 302005, 302560, 303100, 303645, 304236, 304786, 305352, 305895, 306405]","[55, 227, 107, 26, 104, 143, 252, 251, 81, 72, 233, 7, 205, 233, 55, 217, 1, 112, 58, 206, 214, 61, 77]","[293820, 294380, 294955, 295593, 296166, 296785, 297406, 297957, 298564, 299154, 299728, 300276, 300875, 301427, 301935, 302496, 303034, 303633, 304168, 304761, 305305, 305864, 306335]","[293207, 293806, 294406, 295006, 295606, 296206, 296806, 297406, 297939, 298551, 299136, 299696, 300250, 300856, 301395, 301950, 302509, 303046, 303645, 304181, 304741, 305297, 305831, 306350]",93,OR,U,R,ITMSR,1.1,
2,400,trial,0,10,10,10,trial,"['S', 'S', 'S', 'S', 'S', 'S', 'S', 'C', 'C', 'C', 'C', 'C', 'C', 'C', 'C', 'C', 'C', 'C', 'C', 'C', 'C', 'C', 'C']","[312321, 312642, 313005, 313391, 313796, 314208, 314593, 315004, 315400, 315809, 316182, 316635, 317029, 317447, 317822, 319171, 319596, 319980, 320360, 320746, 321135, 321530, 321946]","[312402, 312698, 313073, 313446, 313847, 314255, 314654, 315063, 315432, 315863, 316247, 316693, 317083, 317500, 317890, 319243, 319627, 320046, 320446, 320840, 321205, 321634, 322027]","[38, 19, 28, 164, 109, 164, 165, 162, 137, 154, 196, 166, 170, 168, 22, 164, 88, 198, 16, 125, 224, 31, 107]","[312359, 312674, 313012, 313423, 313829, 314243, 314617, 315041, 315405, 315817, 316190, 316643, 317065, 317477, 317830, 319201, 319617, 320013, 320414, 320798, 321188, 321571, 321993]","[311842, 312242, 312642, 313042, 313442, 313842, 314242, 314642, 315024, 315420, 315829, 316203, 316655, 317049, 317467, 317842, 319192, 319617, 320001, 320380, 320766, 321155, 321550, 321966]",93,OR,U,R,ITMSR,1.1,
4,600,trial,0,11,11,11,trial,"['S', 'S', 'S', 'S', 'S', 'S', 'S', 'C', 'C', 'C', 'C', 'C', 'C', 'C', 'C', 'C', 'C', 'C', 'C', 'C', 'C', 'C', 'C']","[328005, 328725, 329372, 329951, 330582, 331155, 331781, 332356, 332936, 333704, 352524, 353096, 353734, 354236, 354778, 355276, 355762, 356328, 356813, 357298, 357818, 358316, 358841]","[328312, 328853, 329502, 330070, 330679, 331254, 331877, 332455, 333049, 333771, 352569, 353160, 353801, 354308, 354848, 355343, 355835, 356370, 356870, 357367, 357875, 358389, 358908]","[87, 69, 26, 167, 100, 226, 159, 176, 116, 15, 13, 195, 228, 138, 253, 63, 211, 142, 221, 87, 122, 214, 121]","[328077, 328795, 329435, 330034, 330634, 331213, 331823, 332418, 332992, 333734, 352529, 353105, 353764, 354243, 354787, 355284, 355769, 356336, 356822, 357334, 357825, 358351, 358848]","[327580, 328180, 328780, 329380, 329980, 330580, 331181, 331781, 332376, 332956, 333724, 352544, 353116, 353754, 354256, 354798, 355296, 355782, 356348, 356833, 357318, 357838, 358336, 358861]",93,OR,U,R,ITMSR,1.1,
0,600,trial,0,12,12,12,trial,"['S', 'S', 'S', 'S', 'S', 'S', 'S', 'S', 'C', 'C', 'C', 'C', 'C', 'C', 'C', 'C', 'C', 'C', 'C', 'C', 'C', 'C', 'C', 'C']","[364983, 365421, 365778, 366383, 367049, 367588, 368167, 368773, 369348, 369961, 370549, 371103, 371738, 372290, 372847, 373424, 373992, 374620, 375208, 375786, 376343, 376897, 377424, 378040]","[365072, 365514, 365859, 366466, 367100, 367657, 368228, 368852, 369438, 370037, 370641, 371174, 371810, 372337, 372926, 373466, 374060, 374678, 375257, 375844, 376408, 376977, 377509, 378113]","[158, 179, 129, 36, 191, 84, 222, 70, 71, 159, 140, 62, 146, 48, 75, 209, 52, 191, 176, 123, 131, 121, 83, 226]","[364985, 365470, 365786, 366391, 367057, 367595, 368176, 368781, 369400, 369993, 370587, 371111, 371746, 372299, 372881, 373428, 373999, 374629, 375216, 375813, 376373, 376937, 377462, 378075]","[364644, 365244, 365844, 366444, 367044, 367644, 368244, 368844, 369368, 369981, 370569, 371123, 371758, 372311, 372867, 373444, 374012, 374640, 375228, 375806, 376364, 376918, 377444, 378060]",93,OR,U,R,ITMSR,1.1,
0,400,trial,0,13,13,13,trial,"['S', 'S', 'S', 'S', 'C', 'C', 'C', 'C', 'C', 'C', 'C', 'C', 'C', 'C', 'C', 'C', 'C', 'C', 'C', 'C']","[385248, 385609, 385981, 386413, 386834, 387203, 387570, 387945, 388329, 388714, 389085, 389450, 389853, 390284, 390617, 390983, 391386, 391783, 392148, 392560]","[385298, 385672, 386037, 386481, 386888, 387250, 387646, 388007, 388386, 388782, 389153, 389507, 389944, 390349, 390697, 391074, 391453, 391832, 392226, 392621]","[144, 44, 120, 158, 183, 53, 90, 241, 32, 59, 145, 37, 138, 15, 105, 97, 85, 106, 167, 184]","[385254, 385615, 385987, 386423, 386843, 387210, 387577, 387953, 388337, 388721, 389092, 389457, 389860, 390292, 390624, 390990, 391394, 391790, 392155, 392571]","[383671, 384071, 384472, 384872, 385272, 385672, 386072, 386472, 386854, 387223, 387590, 387965, 388349, 388734, 389105, 389470, 389873, 390304, 390637, 391003, 391406, 391803, 392168, 392580]",93,OR,U,R,ITMSR,1.1,
4,400,trial,0,14,14,14,trial,"['S', 'S', 'S', 'S', 'S', 'S', 'S', 'C', 'C', 'C', 'C', 'C', 'C', 'C', 'C', 'C', 'C', 'C', 'C', 'C', 'C', 'C', 'C']","[398400, 398775, 399155, 399582, 399935, 400279, 400691, 401112, 401489, 401905, 402300, 402717, 403075, 403488, 403913, 404293, 404707, 405107, 405488, 405912, 406293, 406659, 407049]","[398490, 398867, 399251, 399672, 400018, 400394, 400798, 401211, 401580, 401996, 402381, 402796, 403167, 403578, 403997, 404379, 404795, 405194, 405582, 406011, 406374, 406754, 407147]","[222, 195, 223, 181, 166, 200, 159, 213, 146, 168, 101, 112, 129, 141, 138, 179, 138, 97, 89, 194, 139, 101, 112]","[398437, 398821, 399205, 399632, 399982, 400337, 400743, 401158, 401538, 401947, 402344, 402755, 403125, 403533, 403960, 404334, 404754, 405156, 405543, 405964, 406335, 406716, 407105]","[397985, 398385, 398785, 399185, 399585, 399985, 400386, 400786, 401132, 401509, 401925, 402320, 402737, 403095, 403508, 403933, 404313, 404727, 405127, 405508, 405933, 406313, 406679, 407069]",93,OR,U,R,ITMSR,1.1,
5,400,trial,0,15,15,15,trial,"['S', 'S', 'S', 'S', 'S', 'S', 'S', 'C', 'C', 'C', 'C', 'C', 'C', 'C', 'C', 'C', 'C', 'C', 'C', 'C', 'C', 'C', 'C']","[413128, 413416, 413783, 414156, 414530, 414920, 415318, 415715, 416145, 416556, 416954, 417373, 417753, 418178, 418579, 418993, 419402, 419817, 420218, 420628, 421025, 421426, 421816]","[413208, 413498, 413877, 414236, 414610, 415012, 415391, 415782, 416216, 416632, 417029, 417436, 417839, 418251, 418653, 419066, 419475, 419897, 420300, 420704, 421100, 421508, 421895]","[26, 14, 6, 165, 191, 147, 248, 125, 161, 200, 145, 253, 163, 105, 151, 179, 143, 148, 117, 82, 76, 132, 98]","[413171, 413457, 413815, 414200, 414574, 414964, 415357, 415754, 416181, 416596, 416993, 417403, 417800, 418219, 418621, 419018, 419430, 419848, 420247, 420665, 421048, 421435, 421850]","[412610, 413010, 413410, 413810, 414210, 414610, 415010, 415410, 415735, 416165, 416576, 416974, 417393, 417773, 418198, 418599, 419013, 419422, 419837, 420238, 420648, 421045, 421446, 421836]",93,OR,U,R,ITMSR,1.1,
2,600,trial,0,16,16,16,trial,"['S', 'S', 'S', 'S', 'S', 'S', 'C', 'C', 'C', 'C', 'C', 'C', 'C', 'C', 'C', 'C', 'C', 'C', 'C', 'C', 'C', 'C']","[428364, 428965, 429515, 430091, 430681, 431262, 431866, 432448, 433041, 433588, 434179, 434713, 435284, 435814, 436391, 436969, 437522, 438071, 438625, 439170, 439713, 440280]","[428498, 429049, 429600, 430174, 430759, 431356, 431963, 432550, 433147, 433693, 434274, 434845, 435363, 435900, 436469, 437055, 437606, 438163, 438738, 439265, 439815, 440371]","[171, 203, 150, 102, 160, 133, 82, 66, 95, 98, 88, 106, 58, 48, 46, 70, 74, 61, 101, 40, 21, 38]","[428411, 429000, 429546, 430127, 430713, 431280, 431891, 432490, 433079, 433625, 434192, 434727, 435304, 435845, 436413, 436990, 437553, 438111, 438666, 439204, 439737, 440327]","[427198, 427798, 428398, 428998, 429598, 430198, 430798, 431398, 431886, 432468, 433061, 433608, 434199, 434733, 435304, 435834, 436411, 436989, 437542, 438091, 438645, 439190, 439733, 440300]",93,OR,U,R,ITMSR,1.1,
5,600,trial,0,17,17,17,trial,"['S', 'S', 'S', 'S', 'S', 'S', 'S', 'C', 'C', 'C', 'C', 'C', 'C', 'C', 'C', 'C', 'C', 'C', 'C', 'C', 'C', 'C', 'C']","[446068, 446777, 447440, 448099, 448683, 449285, 449893, 450472, 451078, 451654, 452262, 452854, 453395, 453985, 454545, 455105, 455660, 456232, 456786, 457336, 457920, 458482, 459024]","[446163, 446916, 447597, 448229, 448821, 449402, 449995, 450591, 451183, 451748, 452340, 452939, 453494, 454076, 454624, 455197, 455758, 456318, 456871, 457424, 458012, 458549, 459099]","[165, 227, 230, 14, 20, 214, 183, 190, 188, 162, 168, 128, 164, 172, 172, 85, 105, 75, 95, 37, 32, 46, 129]","[446104, 446864, 447507, 448134, 448720, 449316, 449925, 450504, 451104, 451682, 452279, 452878, 453405, 453997, 454580, 455128, 455669, 456252, 456797, 457352, 457933, 458490, 459030]","[445730, 446330, 446930, 447531, 448130, 448730, 449330, 449930, 450492, 451098, 451674, 452282, 452874, 453415, 454005, 454565, 455126, 455681, 456252, 456806, 457356, 457940, 458502, 459044]",93,OR,U,R,ITMSR,1.1,
1,600,trial,0,18,18,18,trial,"['S', 'S', 'S', 'S', 'S', 'S', 'S', 'S', 'C', 'C', 'C', 'C', 'C', 'C', 'C', 'C', 'C', 'C', 'C', 'C', 'C', 'C', 'C', 'C']","[464856, 465225, 465776, 466347, 466955, 467508, 468141, 468759, 469313, 469954, 470535, 471136, 471727, 472299, 472852, 473390, 473968, 474594, 475166, 475747, 476320, 476868, 477490, 478071]","[464939, 465328, 465843, 466411, 467016, 467579, 468202, 468806, 469385, 469999, 470604, 471199, 471794, 472387, 472946, 473461, 474041, 474675, 475246, 475827, 476378, 476937, 477526, 478141]","[255, 240, 29, 161, 129, 114, 95, 10, 248, 253, 149, 231, 118, 110, 111, 30, 93, 112, 136, 146, 45, 195, 40, 22]","[464902, 465231, 465782, 466352, 466960, 467513, 468147, 468765, 469320, 469960, 470540, 471140, 471733, 472305, 472858, 473396, 473996, 474624, 475196, 475786, 476347, 476896, 477494, 478104]","[464592, 465192, 465793, 466392, 466992, 467592, 468192, 468792, 469334, 469975, 470555, 471156, 471747, 472320, 472872, 473410, 473988, 474614, 475186, 475767, 476340, 476888, 477510, 478091]",93,OR,U,R,ITMSR,1.1,
2,400,trial,0,19,19,19,trial,"['S', 'S', 'S', 'S', 'S', 'S', 'S', 'C', 'C', 'C', 'C', 'C', 'C', 'C', 'C', 'C', 'C', 'C', 'C', 'C', 'C', 'C', 'C']","[483953, 484308, 484701, 485131, 485537, 485944, 486362, 486758, 487170, 487567, 487927, 488340, 488745, 489151, 489531, 489914, 490332, 490738, 491154, 491540, 491944, 492350, 492748]","[484031, 484385, 484771, 485190, 485609, 486023, 486429, 486832, 487250, 487642, 488009, 488412, 488821, 489231, 489605, 489984, 490405, 490809, 491216, 491615, 492009, 492414, 492830]","[240, 220, 34, 43, 156, 68, 31, 141, 49, 150, 38, 58, 31, 225, 212, 124, 29, 9, 92, 67, 79, 59, 86]","[483981, 484353, 484706, 485136, 485543, 485950, 486369, 486764, 487215, 487573, 487937, 488347, 488755, 489158, 489537, 489944, 490341, 490747, 491163, 491573, 491952, 492358, 492756]","[483688, 484087, 484487, 484887, 485287, 485687, 486087, 486488, 486778, 487190, 487587, 487947, 488360, 488765, 489171, 489551, 489934, 490352, 490758, 491174, 491560, 491964, 492370, 492768]",93,OR,U,R,ITMSR,1.1,
1,400,trial,0,20,20,20,trial,"['S', 'S', 'S', 'S', 'S', 'S', 'C', 'C', 'C', 'C', 'C', 'C', 'C', 'C', 'C', 'C', 'C', 'C', 'C', 'C', 'C', 'C']","[499204, 499548, 499924, 500326, 500715, 501073, 501492, 501883, 502292, 502696, 503088, 503495, 503875, 504250, 504675, 505050, 505478, 505838, 506252, 506638, 507031, 507408]","[499270, 499619, 500009, 500401, 500777, 501136, 501548, 501948, 502360, 502763, 503148, 503556, 503956, 504337, 504709, 505115, 505539, 505919, 506320, 506696, 507090, 507484]","[15, 179, 62, 46, 134, 0, 168, 126, 250, 151, 233, 149, 47, 119, 2, 128, 246, 38, 235, 100, 150, 86]","[499214, 499554, 499932, 500334, 500724, 501080, 501499, 501890, 502298, 502702, 503095, 503502, 503881, 504256, 504683, 505057, 505517, 505846, 506256, 506644, 507037, 507414]","[498353, 498753, 499153, 499553, 499953, 500354, 500754, 501154, 501512, 501903, 502312, 502716, 503108, 503515, 503896, 504270, 504695, 505070, 505498, 505858, 506272, 506658, 507052, 507428]",93,OR,U,R,ITMSR,1.1,
3,600,trial,0,21,21,21,trial,"['S', 'S', 'S', 'S', 'S', 'C', 'C', 'C', 'C', 'C', 'C', 'C', 'C', 'C', 'C', 'C', 'C', 'C', 'C', 'C', 'C']","[514834, 515408, 516007, 516608, 517158, 517732, 518341, 518921, 519513, 520055, 520669, 521249, 521860, 522434, 523068, 523610, 524173, 524745, 525306, 525855, 526355]","[514921, 515503, 516099, 516698, 517254, 517850, 518425, 519021, 519598, 520146, 520760, 521335, 521912, 522505, 523147, 523695, 524247, 524819, 525374, 525920, 526440]","[58, 175, 91, 156, 63, 70, 95, 63, 78, 194, 240, 225, 2, 139, 123, 127, 158, 98, 249, 20, 208]","[514840, 515414, 516014, 516613, 517164, 517791, 518346, 518926, 519563, 520117, 520725, 521309, 521865, 522463, 523074, 523661, 524201, 524752, 525312, 525888, 526406]","[513037, 513637, 514237, 514837, 515437, 516037, 516637, 517237, 517752, 518361, 518941, 519533, 520075, 520689, 521269, 521880, 522455, 523088, 523630, 524193, 524765, 525326, 525875, 526375]",93,OR,U,R,ITMSR,1.1,
3,400,trial,0,22,22,22,trial,"['S', 'S', 'S', 'S', 'S', 'S', 'C', 'C', 'C', 'C', 'C', 'C', 'C', 'C', 'C', 'C', 'C', 'C', 'C', 'C', 'C', 'C']","[533050, 533335, 533700, 534069, 534439, 534874, 535270, 535654, 536061, 536437, 536845, 537220, 537632, 538038, 538420, 538826, 539217, 539624, 540019, 540441, 540834, 541232]","[533159, 533431, 533801, 534159, 534556, 535000, 535373, 535771, 536142, 536543, 536964, 537317, 537710, 538134, 538512, 538902, 539313, 539715, 540116, 540525, 540917, 541323]","[55, 124, 158, 46, 77, 63, 146, 237, 155, 227, 81, 161, 243, 209, 107, 203, 84, 103, 90, 26, 63, 85]","[533102, 533388, 533748, 534112, 534493, 534941, 535322, 535706, 536113, 536494, 536902, 537271, 537676, 538096, 538472, 538863, 539270, 539674, 540068, 540485, 540874, 541279]","[532160, 532559, 532959, 533359, 533760, 534159, 534559, 534959, 535290, 535674, 536081, 536457, 536865, 537240, 537652, 538058, 538440, 538846, 539237, 539644, 540039, 540461, 540854, 541252]",93,OR,U,R,ITMSR,1.1,
1,600,trial,0,23,23,23,trial,"['S', 'S', 'S', 'S', 'S', 'S', 'S', 'S', 'C', 'C', 'C', 'C', 'C', 'C', 'C', 'C', 'C', 'C', 'C', 'C', 'C', 'C', 'C', 'C']","[547174, 547699, 548187, 548746, 549301, 549873, 550459, 551034, 551619, 552129, 552691, 553293, 553891, 554466, 555036, 555622, 556183, 556790, 557326, 558461, 559013, 559553, 560091, 560653]","[547258, 547806, 548260, 548846, 549378, 549950, 550540, 551114, 551692, 552208, 552769, 553360, 553963, 554545, 555114, 555699, 556237, 556810, 557393, 558559, 559053, 559644, 560152, 560740]","[103, 217, 188, 152, 79, 166, 66, 6, 189, 38, 251, 206, 222, 162, 86, 105, 48, 34, 238, 160, 49, 174, 51, 22]","[547219, 547736, 548214, 548801, 549343, 549914, 550492, 551077, 551654, 552168, 552730, 553333, 553934, 554502, 555076, 555646, 556208, 556798, 557356, 558507, 559029, 559599, 560124, 560692]","[546962, 547561, 548161, 548761, 549361, 549961, 550561, 551161, 551640, 552150, 552711, 553313, 553911, 554486, 555056, 555642, 556204, 556810, 557346, 558481, 559033, 559574, 560111, 560673]",93,OR,U,R,ITMSR,1.1,
2,600,trial,0,24,24,24,trial,"['S', 'S', 'S', 'S', 'S', 'S', 'S', 'S', 'C', 'C', 'C', 'C', 'C', 'C', 'C', 'C', 'C', 'C', 'C', 'C', 'C', 'C', 'C', 'C']","[566736, 567074, 567633, 568231, 568824, 569401, 569977, 570634, 571209, 571745, 572324, 572945, 573485, 574049, 574571, 575091, 575645, 576229, 576775, 577300, 577851, 578362, 578927, 579463]","[566792, 567162, 567695, 568285, 568878, 569462, 570036, 570681, 571254, 571801, 572397, 573007, 573545, 574114, 574627, 575175, 575728, 576302, 576858, 577392, 577916, 578419, 578991, 579513]","[109, 130, 209, 182, 210, 247, 149, 35, 122, 169, 227, 231, 100, 0, 31, 128, 64, 53, 173, 152, 224, 83, 145, 12]","[566739, 567127, 567639, 568235, 568827, 569405, 569982, 570642, 571216, 571750, 572329, 572951, 573491, 574054, 574578, 575097, 575652, 576236, 576782, 577307, 577860, 578370, 578934, 579471]","[566468, 567068, 567668, 568268, 568868, 569468, 570068, 570669, 571229, 571765, 572344, 572965, 573505, 574069, 574592, 575111, 575665, 576249, 576795, 577320, 577871, 578382, 578947, 579483]",93,OR,U,R,ITMSR,1.1,
5,600,trial,0,25,25,25,trial,"['S', 'S', 'S', 'S', 'S', 'S', 'S', 'S', 'C', 'C', 'C', 'C', 'C', 'C', 'C', 'C', 'C', 'C', 'C', 'C', 'C', 'C', 'C', 'C']","[585068, 585533, 585995, 586601, 587170, 587798, 588402, 588989, 589601, 590203, 590780, 591380, 591985, 592616, 593181, 593813, 594384, 594990, 595586, 596206, 596829, 597405, 597984, 598614]","[585144, 585611, 586097, 586689, 587237, 587858, 588471, 589059, 589671, 590283, 590832, 591454, 592050, 592669, 593236, 593869, 594436, 595043, 595645, 596273, 596874, 597465, 598055, 598677]","[197, 208, 255, 1, 12, 59, 213, 255, 249, 185, 73, 251, 165, 145, 116, 151, 220, 185, 233, 110, 113, 114, 129, 127]","[585107, 585538, 586001, 586606, 587175, 587802, 588408, 588995, 589606, 590209, 590787, 591386, 591992, 592622, 593188, 593820, 594391, 594997, 595592, 596212, 596836, 597414, 597991, 598622]","[584835, 585435, 586035, 586635, 587235, 587835, 588435, 589035, 589621, 590223, 590800, 591400, 592005, 592636, 593201, 593833, 594404, 595010, 595606, 596226, 596849, 597425, 598004, 598634]",93,OR,U,R,ITMSR,1.1,
3,400,trial,0,26,26,26,trial,"['S', 'S', 'S', 'S', 'S', 'S', 'S', 'S', 'C', 'C', 'C', 'C', 'C', 'C', 'C', 'C', 'C', 'C', 'C', 'C', 'C', 'C', 'C', 'C']","[604649, 604977, 605320, 605605, 605970, 606340, 606723, 607099, 607514, 607875, 608289, 608667, 609059, 609444, 609852, 610245, 610658, 611045, 611460, 611851, 612221, 612646, 613039, 613433]","[604741, 605075, 605430, 605696, 606073, 606426, 606794, 607171, 607576, 607944, 608338, 608741, 609137, 609522, 609924, 610319, 610731, 611133, 611545, 611930, 612304, 612719, 613125, 613522]","[144, 124, 102, 201, 131, 169, 40, 147, 196, 58, 64, 153, 109, 135, 51, 46, 166, 98, 80, 12, 118, 195, 178, 147]","[604682, 604983, 605327, 605611, 605976, 606346, 606730, 607108, 607521, 607883, 608296, 608700, 609067, 609452, 609859, 610251, 610665, 611053, 611467, 611857, 612229, 612654, 613047, 613440]","[604382, 604782, 605182, 605582, 605982, 606382, 606782, 607182, 607534, 607895, 608309, 608687, 609079, 609464, 609872, 610265, 610678, 611065, 611480, 611871, 612241, 612666, 613059, 613453]",93,OR,U,R,ITMSR,1.1,
0,600,trial,0,27,27,27,trial,"['S', 'S', 'S', 'S', 'S', 'S', 'C', 'C', 'C', 'C', 'C', 'C', 'C', 'C', 'C', 'C', 'C', 'C', 'C', 'C', 'C', 'C']","[620164, 620732, 621339, 621918, 622542, 623115, 623733, 624299, 624896, 625461, 626057, 626651, 627263, 627819, 628406, 629021, 629613, 630189, 630785, 631360, 631947, 632547]","[620253, 620817, 621424, 622005, 622628, 623215, 623823, 624384, 624992, 625560, 626145, 626738, 627336, 627906, 628480, 629094, 629696, 630269, 630859, 631437, 632009, 632614]","[146, 159, 174, 151, 115, 11, 144, 166, 181, 181, 84, 66, 216, 214, 15, 141, 227, 183, 98, 250, 224, 221]","[620193, 620738, 621347, 621925, 622551, 623122, 623741, 624305, 624902, 625466, 626063, 626655, 627270, 627827, 628413, 629029, 629642, 630195, 630791, 631390, 631954, 632574]","[619016, 619615, 620215, 620815, 621415, 622015, 622615, 623215, 623753, 624319, 624916, 625481, 626077, 626671, 627283, 627840, 628426, 629041, 629634, 630209, 630805, 631380, 631967, 632567]",93,OR,U,R,ITMSR,1.1,
4,400,trial,0,28,28,28,trial,"['S', 'S', 'S', 'S', 'S', 'S', 'C', 'C', 'C', 'C', 'C', 'C', 'C', 'C', 'C', 'C', 'C', 'C', 'C', 'C', 'C', 'C']","[638879, 639220, 639612, 640013, 640410, 640799, 641222, 641627, 642039, 642441, 642836, 643256, 643671, 644109, 644491, 644889, 645318, 645744, 646149, 646588, 646999, 647395]","[638959, 639299, 639685, 640088, 640497, 640894, 641301, 641705, 642117, 642534, 642938, 643348, 643774, 644194, 644572, 644979, 645398, 645840, 646243, 646679, 647097, 647488]","[66, 140, 255, 161, 14, 54, 33, 75, 140, 100, 115, 129, 17, 172, 141, 46, 19, 79, 27, 21, 47, 107]","[638914, 639226, 639621, 640021, 640453, 640806, 641266, 641634, 642046, 642448, 642842, 643262, 643716, 644115, 644498, 644932, 645325, 645751, 646205, 646619, 647007, 647402]","[638056, 638456, 638856, 639256, 639656, 640056, 640456, 640856, 641242, 641647, 642059, 642461, 642856, 643276, 643691, 644129, 644511, 644909, 645338, 645764, 646169, 646608, 647019, 647415]",93,OR,U,R,ITMSR,1.1,
3,600,trial,0,29,29,29,trial,"['S', 'S', 'S', 'S', 'S', 'S', 'S', 'C', 'C', 'C', 'C', 'C', 'C', 'C', 'C', 'C', 'C', 'C', 'C', 'C', 'C', 'C', 'C']","[653310, 653935, 654576, 655202, 655830, 656408, 657013, 657603, 658171, 658711, 659266, 659815, 660356, 660927, 661468, 661992, 662587, 663126, 663690, 664203, 664739, 665251, 665811]","[653415, 654077, 654692, 655293, 655925, 656498, 657106, 657694, 658264, 658817, 659354, 659899, 660441, 661014, 661544, 662066, 662667, 663204, 663755, 664278, 664811, 665344, 665886]","[38, 1, 5, 82, 142, 106, 12, 172, 48, 127, 27, 77, 76, 22, 38, 25, 218, 143, 158, 17, 137, 82, 221]","[653368, 654000, 654638, 655255, 655879, 656443, 657067, 657610, 658205, 658719, 659310, 659851, 660362, 660960, 661476, 662000, 662620, 663158, 663700, 664236, 664767, 665281, 665820]","[652949, 653548, 654148, 654748, 655348, 655948, 656548, 657148, 657624, 658191, 658732, 659287, 659835, 660376, 660947, 661488, 662012, 662607, 663146, 663710, 664223, 664759, 665271, 665831]",93,OR,U,R,ITMSR,1.1,
4,400,trial,0,30,30,30,trial,"['S', 'S', 'S', 'S', 'S', 'S', 'S', 'C', 'C', 'C', 'C', 'C', 'C', 'C', 'C', 'C', 'C', 'C', 'C', 'C', 'C', 'C', 'C']","[686693, 687015, 687413, 687874, 688334, 688723, 689156, 689568, 689943, 690360, 690753, 691133, 691551, 691920, 692343, 692720, 693115, 693520, 693904, 694312, 694701, 695111, 695500]","[686784, 687110, 687495, 687943, 688386, 688793, 689219, 689635, 690014, 690416, 690807, 691206, 691608, 691994, 692399, 692790, 693175, 693585, 693968, 694379, 694782, 695184, 695593]","[41, 105, 200, 215, 180, 55, 20, 134, 32, 8, 224, 21, 238, 211, 13, 248, 41, 12, 71, 253, 52, 90, 227]","[686703, 687077, 687419, 687880, 688340, 688731, 689163, 689576, 689950, 690368, 690761, 691139, 691558, 691929, 692350, 692726, 693123, 693529, 693911, 694320, 694708, 695119, 695508]","[686438, 686837, 687237, 687637, 688037, 688437, 688837, 689238, 689588, 689964, 690380, 690774, 691153, 691571, 691940, 692363, 692740, 693135, 693540, 693924, 694332, 694721, 695131, 695520]",93,OR,U,R,ITMSR,1.1,
5,400,trial,0,31,31,31,trial,"['S', 'S', 'S', 'S', 'S', 'S', 'S', 'C', 'C', 'C', 'C', 'C', 'C', 'C', 'C', 'C', 'C', 'C', 'C', 'C', 'C', 'C', 'C']","[701217, 701634, 702020, 702442, 702863, 703262, 703671, 704039, 704415, 704805, 705221, 705633, 706024, 706437, 706836, 707226, 707639, 708031, 708421, 708846, 709238, 709620, 710007]","[701304, 701719, 702114, 702529, 702949, 703340, 703749, 704106, 704486, 704873, 705276, 705700, 706100, 706511, 706909, 707309, 707708, 708118, 708501, 708917, 709322, 709704, 710087]","[190, 171, 242, 185, 81, 118, 111, 175, 131, 198, 154, 89, 241, 171, 172, 131, 127, 130, 61, 99, 54, 133, 44]","[701258, 701674, 702026, 702448, 702909, 703269, 703678, 704047, 704423, 704813, 705228, 705641, 706030, 706444, 706842, 707233, 707647, 708037, 708428, 708852, 709279, 709627, 710014]","[700899, 701299, 701699, 702099, 702499, 702899, 703299, 703699, 704059, 704435, 704825, 705241, 705653, 706044, 706457, 706856, 707246, 707659, 708051, 708441, 708866, 709258, 709640, 710027]",93,OR,U,R,ITMSR,1.1,
3,600,trial,0,32,32,32,trial,"['S', 'S', 'S', 'S', 'S', 'S', 'C', 'C', 'C', 'C', 'C', 'C', 'C', 'C', 'C', 'C', 'C', 'C', 'C', 'C', 'C', 'C']","[716796, 717339, 717948, 718569, 719196, 719763, 720327, 720917, 721497, 722068, 722659, 723212, 723749, 724313, 724806, 725373, 725953, 726510, 727059, 727652, 728206, 728771]","[716857, 717421, 718050, 718691, 719305, 719887, 720442, 721031, 721623, 722182, 722761, 723325, 723886, 724429, 724972, 725526, 726072, 726652, 727153, 727767, 728309, 728895]","[36, 15, 125, 206, 239, 173, 168, 171, 176, 119, 139, 120, 159, 101, 93, 84, 89, 112, 36, 42, 192, 81]","[716803, 717345, 717954, 718638, 719251, 719816, 720332, 720922, 721503, 722074, 722664, 723275, 723756, 724318, 724886, 725379, 725959, 726515, 727111, 727658, 728258, 728775]","[715602, 716203, 716802, 717402, 718002, 718602, 719202, 719802, 720347, 720937, 721517, 722088, 722679, 723232, 723769, 724333, 724826, 725393, 725974, 726530, 727079, 727672, 728226, 728792]",93,OR,U,R,ITMSR,1.1,
1,600,trial,0,33,33,33,trial,"['S', 'S', 'S', 'S', 'S', 'S', 'C', 'C', 'C', 'C', 'C', 'C', 'C', 'C', 'C', 'C', 'C', 'C', 'C', 'C', 'C', 'C']","[735310, 735859, 736447, 737047, 737647, 738284, 738868, 739460, 740051, 740631, 741214, 741764, 742327, 742923, 743475, 744040, 744598, 745196, 745786, 746371, 746933, 747523]","[735411, 735970, 736575, 737204, 737787, 738406, 738976, 739557, 740128, 740719, 741270, 741842, 742347, 743018, 743554, 744147, 744683, 745290, 745866, 746462, 747038, 747621]","[62, 133, 174, 218, 153, 55, 14, 4, 198, 120, 120, 234, 1, 203, 116, 70, 179, 72, 251, 100, 3, 90]","[735337, 735919, 736520, 737124, 737712, 738344, 738935, 739512, 740093, 740673, 741242, 741813, 742327, 742952, 743504, 744085, 744644, 745240, 745840, 746377, 746986, 747579]","[734116, 734716, 735316, 735917, 736517, 737117, 737717, 738317, 738888, 739480, 740071, 740652, 741234, 741784, 742347, 742943, 743495, 744060, 744619, 745217, 745806, 746391, 746953, 747543]",93,OR,U,R,ITMSR,1.1,
2,600,trial,0,34,34,34,trial,"['S', 'S', 'S', 'S', 'S', 'S', 'C', 'C', 'C', 'C', 'C', 'C', 'C', 'C', 'C', 'C', 'C', 'C', 'C', 'C', 'C', 'C']","[754502, 755065, 755649, 756284, 756876, 757487, 758080, 758677, 759271, 759832, 760456, 761039, 761598, 762199, 762776, 763358, 763930, 764507, 765089, 765660, 766181, 766754]","[754608, 755190, 755766, 756446, 756994, 757583, 758182, 758776, 759385, 759942, 760549, 761141, 761709, 762329, 762873, 763469, 764015, 764606, 765171, 765743, 766275, 766851]","[97, 194, 210, 243, 235, 154, 179, 145, 141, 102, 119, 65, 115, 173, 78, 100, 79, 128, 87, 115, 31, 225]","[754561, 755140, 755718, 756350, 756941, 757539, 758130, 758728, 759327, 759876, 760501, 761095, 761650, 762253, 762809, 763416, 763962, 764555, 765122, 765709, 766232, 766790]","[753336, 753935, 754535, 755135, 755735, 756335, 756935, 757535, 758100, 758697, 759291, 759853, 760476, 761059, 761618, 762219, 762797, 763378, 763950, 764527, 765109, 765680, 766201, 766774]",93,OR,U,R,ITMSR,1.1,
4,600,trial,0,35,35,35,trial,"['S', 'S', 'S', 'S', 'S', 'S', 'C', 'C', 'C', 'C', 'C', 'C', 'C', 'C', 'C', 'C', 'C', 'C', 'C', 'C', 'C', 'C']","[773555, 774131, 774708, 775312, 775877, 776529, 777133, 777733, 778332, 778935, 779563, 780142, 780746, 781363, 781931, 782535, 783120, 783729, 784296, 784930, 785538, 786155]","[773638, 774207, 774799, 775405, 775979, 776606, 777224, 777814, 778421, 778996, 779641, 780230, 780811, 781443, 781999, 782603, 783201, 783801, 784372, 785006, 785605, 786217]","[177, 86, 212, 187, 53, 58, 158, 214, 71, 220, 40, 11, 3, 231, 155, 96, 82, 248, 212, 125, 187, 29]","[773583, 774161, 774744, 775355, 775910, 776538, 777163, 777767, 778361, 778966, 779590, 780171, 780752, 781400, 781938, 782569, 783156, 783761, 784324, 784959, 785563, 786183]","[772387, 772987, 773587, 774188, 774787, 775387, 775987, 776587, 777153, 777753, 778352, 778955, 779583, 780162, 780766, 781383, 781952, 782555, 783140, 783749, 784316, 784950, 785558, 786176]",93,OR,U,R,ITMSR,1.1,
1,600,trial,0,36,36,36,trial,"['S', 'S', 'S', 'S', 'S', 'S', 'S', 'C', 'C', 'C', 'C', 'C', 'C', 'C', 'C', 'C', 'C', 'C', 'C', 'C', 'C', 'C', 'C']","[792104, 792678, 793250, 793869, 794468, 795088, 795658, 796276, 796877, 797475, 798062, 798689, 799185, 799792, 800393, 800963, 801559, 802129, 802703, 803260, 803815, 804393, 804948]","[792198, 792771, 793353, 793975, 794563, 795198, 795766, 796368, 796977, 797572, 798170, 798789, 799367, 799938, 800502, 801063, 801627, 802216, 802788, 803344, 803883, 804474, 805043]","[229, 252, 237, 173, 119, 109, 151, 6, 61, 4, 12, 77, 64, 37, 247, 202, 238, 195, 137, 220, 100, 212, 246]","[792131, 792705, 793284, 793918, 794508, 795133, 795712, 796320, 796912, 797510, 798096, 798740, 799241, 799848, 800445, 801019, 801585, 802161, 802729, 803268, 803846, 804425, 804987]","[791527, 792127, 792727, 793327, 793927, 794527, 795127, 795727, 796296, 796897, 797495, 798082, 798709, 799205, 799812, 800413, 800984, 801580, 802149, 802723, 803280, 803835, 804413, 804968]",93,OR,U,R,ITMSR,1.1,
5,400,trial,0,37,37,37,trial,"['S', 'S', 'S', 'S', 'S', 'S', 'C', 'C', 'C', 'C', 'C', 'C', 'C', 'C', 'C', 'C', 'C', 'C', 'C', 'C', 'C', 'C']","[811186, 811548, 811933, 812343, 812731, 813130, 813558, 813975, 814377, 814774, 815212, 815580, 815967, 816360, 816754, 817174, 817559, 817970, 818371, 818767, 819187, 819569]","[811256, 811619, 812017, 812434, 812818, 813222, 813641, 814058, 814459, 814862, 815280, 815653, 816049, 816457, 816852, 817259, 817643, 818062, 818464, 818855, 819277, 819662]","[186, 168, 174, 81, 60, 117, 92, 110, 169, 178, 200, 62, 236, 113, 141, 141, 109, 143, 94, 76, 55, 69]","[811212, 811555, 811965, 812372, 812759, 813162, 813588, 813982, 814384, 814823, 815241, 815609, 815996, 816407, 816784, 817202, 817592, 818000, 818407, 818803, 819228, 819624]","[810403, 810803, 811203, 811603, 812003, 812403, 812803, 813203, 813578, 813996, 814397, 814794, 815233, 815600, 815987, 816380, 816774, 817195, 817580, 817990, 818392, 818787, 819207, 819589]",93,OR,U,R,ITMSR,1.1,
5,600,trial,0,38,38,38,trial,"['S', 'S', 'S', 'S', 'S', 'S', 'C', 'C', 'C', 'C', 'C', 'C', 'C', 'C', 'C', 'C', 'C', 'C', 'C', 'C', 'C', 'C']","[826440, 827000, 827588, 828211, 828762, 829367, 829958, 830563, 831142, 831747, 832293, 832900, 833474, 834087, 834649, 835288, 835908, 836517, 837087, 837731, 838341, 838935]","[826541, 827083, 827688, 828289, 828845, 829472, 830034, 830655, 831242, 831832, 832401, 832978, 833560, 834178, 834746, 835381, 836003, 836598, 837196, 837791, 838444, 839018]","[211, 165, 218, 153, 199, 122, 250, 60, 73, 215, 101, 232, 219, 74, 161, 255, 39, 194, 115, 32, 113, 242]","[826468, 827032, 827640, 828242, 828796, 829432, 829988, 830594, 831174, 831787, 832326, 832927, 833526, 834119, 834679, 835318, 835940, 836549, 837137, 837761, 838375, 838977]","[825253, 825853, 826454, 827053, 827653, 828253, 828853, 829453, 829978, 830583, 831162, 831767, 832313, 832920, 833495, 834107, 834669, 835308, 835928, 836537, 837107, 837751, 838361, 838956]",93,OR,U,R,ITMSR,1.1,
3,400,trial,0,39,39,39,trial,"['S', 'S', 'S', 'S', 'S', 'S', 'C', 'C', 'C', 'C', 'C', 'C', 'C', 'C', 'C', 'C', 'C', 'C', 'C', 'C', 'C', 'C']","[845474, 845838, 846229, 846638, 847052, 847441, 847877, 848267, 848672, 849045, 849471, 849884, 850292, 850683, 851103, 851464, 851877, 852292, 852705, 853113, 853496, 853914]","[845571, 845928, 846323, 846718, 847131, 847539, 847951, 848334, 848750, 849145, 849573, 849973, 850377, 850769, 851187, 851560, 851968, 852373, 852798, 853188, 853598, 854019]","[97, 59, 55, 234, 17, 27, 96, 110, 3, 201, 236, 254, 222, 41, 243, 237, 35, 248, 249, 208, 2, 46]","[845506, 845868, 846261, 846673, 847078, 847499, 847910, 848301, 848705, 849074, 849501, 849914, 850324, 850717, 851139, 851500, 851911, 852324, 852763, 853145, 853526, 853948]","[844693, 845092, 845492, 845892, 846292, 846692, 847092, 847492, 847897, 848287, 848692, 849065, 849491, 849904, 850312, 850703, 851123, 851484, 851897, 852312, 852725, 853133, 853516, 853934]",93,OR,U,R,ITMSR,1.1,
3,600,trial,0,40,40,40,trial,"['S', 'S', 'S', 'S', 'S', 'S', 'S', 'C', 'C', 'C', 'C', 'C', 'C', 'C', 'C', 'C', 'C', 'C', 'C', 'C', 'C', 'C', 'C']","[860343, 860870, 861399, 861990, 862617, 863195, 863795, 864357, 864970, 865571, 866163, 866738, 867337, 867948, 868547, 869151, 869747, 870371, 870949, 871563, 872120, 872685, 873323]","[860451, 860978, 861514, 862098, 862721, 863310, 863902, 864475, 865085, 865676, 866266, 866817, 867416, 868022, 868649, 869255, 869860, 870477, 871061, 871649, 872229, 872817, 873437]","[201, 21, 66, 46, 80, 50, 51, 38, 34, 31, 11, 251, 238, 230, 0, 197, 213, 243, 206, 195, 185, 209, 163]","[860392, 860921, 861451, 862046, 862675, 863255, 863842, 864404, 865018, 865608, 866202, 866774, 867373, 867982, 868594, 869195, 869792, 870416, 871000, 871600, 872159, 872735, 873370]","[859650, 860250, 860850, 861450, 862050, 862650, 863250, 863850, 864377, 864990, 865591, 866183, 866758, 867357, 867969, 868568, 869171, 869767, 870391, 870969, 871583, 872140, 872706, 873344]",93,OR,U,R,ITMSR,1.1,
2,600,trial,0,41,41,41,trial,"['S', 'S', 'S', 'S', 'S', 'S', 'S', 'C', 'C', 'C', 'C', 'C', 'C', 'C', 'C', 'C', 'C', 'C', 'C', 'C', 'C', 'C', 'C']","[879410, 879892, 880459, 881025, 881634, 882205, 882822, 883486, 884077, 884664, 885200, 885852, 886392, 886969, 887517, 888114, 888679, 889244, 889807, 890380, 890989, 891561, 892104]","[879541, 880048, 880610, 881170, 881785, 882354, 882967, 883588, 884185, 884773, 885334, 885940, 886538, 887088, 887660, 888251, 888808, 889392, 889975, 890523, 891111, 891710, 892264]","[21, 9, 170, 195, 180, 189, 108, 154, 123, 215, 150, 19, 101, 77, 75, 86, 65, 24, 135, 51, 237, 91, 24]","[879484, 879951, 880523, 881083, 881692, 882266, 882890, 883538, 884133, 884709, 885253, 885898, 886464, 887027, 887584, 888188, 888756, 889312, 889876, 890444, 891045, 891644, 892203]","[878746, 879346, 879946, 880546, 881146, 881746, 882347, 882946, 883506, 884098, 884684, 885220, 885872, 886412, 886989, 887537, 888134, 888699, 889264, 889827, 890400, 891010, 891581, 892124]",93,OR,U,R,ITMSR,1.1,
5,600,trial,0,42,42,42,trial,"['S', 'S', 'S', 'S', 'S', 'S', 'S', 'C', 'C', 'C', 'C', 'C', 'C', 'C', 'C', 'C', 'C', 'C', 'C', 'C', 'C', 'C', 'C']","[898274, 898956, 899564, 900204, 900793, 901362, 901964, 902576, 903193, 903779, 904382, 904960, 905540, 906120, 906722, 907295, 907844, 908489, 909058, 909619, 910192, 910756, 911281]","[898353, 899054, 899662, 900291, 900889, 901479, 902067, 902661, 903274, 903886, 904467, 905077, 905700, 906230, 906819, 907417, 907984, 908592, 909188, 909758, 910307, 910899, 911439]","[125, 227, 5, 166, 156, 189, 126, 173, 174, 92, 14, 241, 32, 51, 37, 130, 84, 19, 18, 34, 223, 45, 160]","[898302, 899001, 899607, 900244, 900834, 901408, 902004, 902621, 903248, 903816, 904423, 905009, 905609, 906145, 906764, 907360, 907920, 908541, 909106, 909667, 910254, 910825, 911323]","[897840, 898439, 899039, 899639, 900239, 900839, 901439, 902039, 902596, 903213, 903799, 904402, 904980, 905560, 906140, 906742, 907315, 907864, 908509, 909078, 909639, 910212, 910776, 911301]",93,OR,U,R,ITMSR,1.1,
1,400,trial,0,43,43,43,trial,"['S', 'S', 'S', 'S', 'S', 'S', 'C', 'C', 'C', 'C', 'C', 'C', 'C', 'C', 'C', 'C', 'C', 'C', 'C', 'C', 'C', 'C']","[917534, 917909, 918302, 918664, 919045, 919460, 919883, 920246, 920649, 921070, 921466, 921854, 922238, 922640, 923049, 923457, 923851, 924249, 924653, 925057, 925462, 925846]","[917638, 918008, 918378, 918752, 919142, 919556, 919970, 920351, 920786, 921200, 921580, 921973, 922375, 922753, 923158, 923588, 923968, 924364, 924759, 925150, 925560, 925972]","[183, 158, 55, 69, 47, 46, 36, 59, 50, 30, 15, 50, 247, 232, 232, 41, 17, 21, 245, 236, 245, 228]","[917587, 917948, 918348, 918701, 919080, 919495, 919921, 920302, 920745, 921126, 921524, 921917, 922278, 922694, 923097, 923514, 923908, 924307, 924697, 925105, 925511, 925891]","[916736, 917134, 917534, 917934, 918334, 918734, 919134, 919534, 919903, 920266, 920669, 921090, 921486, 921874, 922258, 922660, 923069, 923478, 923871, 924269, 924674, 925077, 925483, 925867]",93,OR,U,R,ITMSR,1.1,
0,400,trial,0,44,44,44,trial,"['S', 'S', 'S', 'S', 'C', 'C', 'C', 'C', 'C', 'C', 'C', 'C', 'C', 'C', 'C', 'C', 'C', 'C', 'C', 'C']","[933128, 933515, 933913, 934340, 934732, 935142, 935538, 935924, 936309, 936704, 937091, 937472, 937894, 938283, 938668, 939042, 939426, 939794, 940188, 940588]","[933231, 933619, 934019, 934426, 934841, 935246, 935647, 936015, 936406, 936799, 937194, 937570, 937975, 938385, 938759, 939134, 939514, 939881, 940280, 940675]","[175, 189, 197, 178, 151, 175, 154, 151, 150, 143, 138, 96, 77, 99, 83, 82, 77, 64, 78, 59]","[933176, 933541, 933952, 934378, 934770, 935187, 935584, 935968, 936360, 936751, 937144, 937517, 937918, 938328, 938693, 939065, 939451, 939822, 940222, 940612]","[931595, 931995, 932396, 932795, 933195, 933595, 933995, 934395, 934752, 935162, 935558, 935944, 936329, 936724, 937111, 937492, 937914, 938303, 938688, 939062, 939446, 939814, 940208, 940608]",93,OR,U,R,ITMSR,1.1,
2,400,trial,0,45,45,45,trial,"['S', 'S', 'S', 'S', 'C', 'C', 'C', 'C', 'C', 'C', 'C', 'C', 'C', 'C', 'C', 'C', 'C', 'C', 'C', 'C']","[947745, 948136, 948525, 948925, 949355, 949732, 950120, 950500, 950878, 951244, 951629, 952035, 952427, 952833, 953218, 953597, 953989, 954370, 954767, 955131]","[947849, 948230, 948617, 949011, 949449, 949838, 950219, 950592, 950975, 951353, 951726, 952127, 952525, 952921, 953311, 953691, 954092, 954477, 954869, 955229]","[131, 182, 162, 167, 136, 145, 120, 110, 106, 121, 106, 117, 97, 74, 67, 72, 84, 83, 67, 23]","[947789, 948175, 948572, 948960, 949399, 949767, 950140, 950540, 950916, 951284, 951672, 952081, 952454, 952856, 953255, 953638, 954031, 954417, 954798, 955180]","[946203, 946603, 947002, 947402, 947802, 948202, 948602, 949002, 949376, 949752, 950140, 950520, 950898, 951264, 951649, 952055, 952448, 952853, 953238, 953617, 954009, 954390, 954787, 955151]",93,OR,U,R,ITMSR,1.1,
0,400,trial,0,46,46,46,trial,"['S', 'S', 'S', 'S', 'C', 'C', 'C', 'C', 'C', 'C', 'C', 'C', 'C', 'C', 'C', 'C', 'C', 'C', 'C', 'C']","[962435, 962824, 963205, 963623, 964018, 964428, 964790, 965176, 965569, 965939, 966347, 966738, 967131, 967529, 967918, 968306, 968711, 969104, 969498, 969887]","[962530, 962914, 963294, 963701, 964103, 964511, 964882, 965264, 965656, 966026, 966429, 966827, 967224, 967609, 968017, 968394, 968794, 969189, 969573, 969962]","[134, 167, 147, 111, 103, 72, 92, 76, 84, 63, 45, 23, 62, 45, 45, 24, 24, 34, 48, 32]","[962450, 962859, 963226, 963641, 964044, 964453, 964831, 965210, 965613, 965978, 966367, 966758, 967175, 967546, 967964, 968322, 968745, 969119, 969510, 969923]","[960885, 961285, 961685, 962085, 962485, 962885, 963286, 963685, 964038, 964448, 964810, 965196, 965590, 965959, 966367, 966758, 967151, 967549, 967938, 968326, 968731, 969124, 969518, 969907]",93,OR,U,R,ITMSR,1.1,
4,400,trial,0,47,47,47,trial,"['S', 'S', 'S', 'S', 'C', 'C', 'C', 'C', 'C', 'C', 'C', 'C', 'C', 'C', 'C', 'C', 'C', 'C', 'C', 'C']","[977058, 977443, 977850, 978253, 978647, 979059, 979438, 979857, 980251, 980628, 981032, 981427, 981835, 982241, 982669, 983058, 983444, 983832, 984216, 984612]","[977154, 977525, 977939, 978327, 978734, 979139, 979522, 979939, 980329, 980708, 981123, 981518, 981911, 982312, 982750, 983114, 983532, 983915, 984296, 984687]","[157, 143, 120, 76, 86, 66, 69, 45, 19, 24, 22, 39, 43, 13, 27, 211, 31, 27, 40, 38]","[977072, 977485, 977884, 978276, 978686, 979084, 979456, 979877, 980272, 980648, 981052, 981441, 981855, 982268, 982695, 983085, 983471, 983865, 984254, 984645]","[975513, 975913, 976313, 976713, 977113, 977513, 977913, 978313, 978667, 979079, 979458, 979877, 980271, 980648, 981052, 981447, 981855, 982261, 982689, 983078, 983464, 983853, 984237, 984632]",93,OR,U,R,ITMSR,1.1,
2,400,trial,0,48,48,48,trial,"['S', 'S', 'S', 'S', 'S', 'S', 'C', 'C', 'C', 'C', 'C', 'C', 'C', 'C', 'C', 'C', 'C', 'C', 'C', 'C', 'C', 'C']","[991067, 991429, 991780, 992180, 992596, 993015, 993428, 993806, 994204, 994604, 994990, 995384, 995750, 996158, 996556, 996936, 997349, 997740, 998120, 998510, 998907, 999280]","[991145, 991501, 991863, 992250, 992663, 993087, 993500, 993881, 994282, 994677, 995066, 995454, 995826, 996240, 996636, 997014, 997429, 997814, 998207, 998591, 998989, 999357]","[156, 114, 114, 90, 79, 54, 38, 39, 54, 33, 28, 7, 54, 38, 36, 12, 16, 253, 21, 250, 38, 247]","[991094, 991453, 991821, 992207, 992611, 993049, 993457, 993839, 994241, 994621, 995004, 995421, 995785, 996194, 996593, 996953, 997386, 997775, 998153, 998548, 998939, 999296]","[990276, 990675, 991075, 991475, 991875, 992275, 992675, 993075, 993448, 993826, 994224, 994624, 995010, 995404, 995770, 996178, 996576, 996956, 997369, 997761, 998140, 998530, 998927, 999300]",93,OR,U,R,ITMSR,1.1,
0,600,trial,0,49,49,49,trial,"['S', 'S', 'S', 'S', 'S', 'C', 'C', 'C', 'C', 'C', 'C', 'C', 'C', 'C', 'C', 'C', 'C', 'C', 'C', 'C', 'C']","[1006776, 1007398, 1007997, 1008579, 1009206, 1009778, 1010426, 1011005, 1011542, 1012094, 1012641, 1013191, 1013753, 1014268, 1014824, 1015430, 1016007, 1016555, 1017055, 1017589, 1018183]","[1006908, 1007496, 1008100, 1008683, 1009314, 1009925, 1010516, 1011099, 1011648, 1012196, 1012759, 1013288, 1013843, 1014377, 1014937, 1015535, 1016084, 1016657, 1017190, 1017714, 1018270]","[188, 131, 92, 131, 122, 122, 29, 42, 90, 74, 101, 83, 77, 109, 84, 62, 30, 72, 58, 112, 106]","[1006822, 1007412, 1008019, 1008611, 1009250, 1009826, 1010466, 1011026, 1011588, 1012128, 1012686, 1013225, 1013775, 1014308, 1014882, 1015487, 1016045, 1016591, 1017122, 1017618, 1018222]","[1005090, 1005690, 1006290, 1006891, 1007490, 1008090, 1008690, 1009290, 1009798, 1010446, 1011025, 1011562, 1012114, 1012661, 1013211, 1013773, 1014288, 1014844, 1015450, 1016027, 1016576, 1017075, 1017609, 1018203]",93,OR,U,R,ITMSR,1.1,
1,400,trial,0,50,50,50,trial,"['S', 'S', 'S', 'S', 'C', 'C', 'C', 'C', 'C', 'C', 'C', 'C', 'C', 'C', 'C', 'C', 'C', 'C', 'C', 'C']","[1025541, 1025900, 1026287, 1026721, 1027130, 1027535, 1027915, 1028331, 1028716, 1029099, 1029485, 1029882, 1030280, 1030653, 1031065, 1031478, 1031860, 1032242, 1032629, 1033017]","[1025596, 1025992, 1026354, 1026789, 1027211, 1027608, 1027996, 1028416, 1028801, 1029174, 1029555, 1029958, 1030374, 1030744, 1031145, 1031554, 1031940, 1032329, 1032715, 1033088]","[86, 11, 224, 227, 221, 174, 200, 195, 179, 159, 168, 137, 185, 140, 164, 149, 159, 171, 180, 154]","[1025563, 1025938, 1026321, 1026753, 1027166, 1027564, 1027951, 1028364, 1028749, 1029111, 1029494, 1029899, 1030318, 1030665, 1031075, 1031490, 1031872, 1032253, 1032669, 1033050]","[1023988, 1024388, 1024788, 1025188, 1025588, 1025988, 1026388, 1026788, 1027150, 1027555, 1027935, 1028352, 1028737, 1029120, 1029506, 1029902, 1030300, 1030673, 1031085, 1031498, 1031880, 1032262, 1032649, 1033037]",93,OR,U,R,ITMSR,1.1,
4,600,trial,0,51,51,51,trial,"['S', 'S', 'S', 'S', 'S', 'C', 'C', 'C', 'C', 'C', 'C', 'C', 'C', 'C', 'C', 'C', 'C', 'C', 'C', 'C', 'C']","[1040307, 1040941, 1041488, 1042077, 1042667, 1043261, 1043847, 1044414, 1045001, 1045562, 1046142, 1046687, 1047240, 1047830, 1048369, 1048960, 1049505, 1050062, 1050586, 1051128, 1051652]","[1040414, 1041036, 1041575, 1042168, 1042761, 1043357, 1043932, 1044508, 1045085, 1045653, 1046230, 1046774, 1047318, 1047910, 1048454, 1049040, 1049593, 1050152, 1050677, 1051206, 1051765]","[62, 37, 245, 242, 19, 253, 203, 205, 172, 139, 213, 185, 197, 141, 190, 118, 207, 173, 212, 109, 209]","[1040365, 1040985, 1041524, 1042101, 1042709, 1043289, 1043871, 1044438, 1045019, 1045600, 1046176, 1046725, 1047279, 1047871, 1048397, 1048992, 1049548, 1050099, 1050627, 1051153, 1051693]","[1038538, 1039137, 1039737, 1040337, 1040937, 1041538, 1042138, 1042738, 1043281, 1043867, 1044434, 1045021, 1045582, 1046162, 1046707, 1047260, 1047851, 1048389, 1048980, 1049525, 1050082, 1050606, 1051148, 1051672]",93,OR,U,R,ITMSR,1.1,
3,400,trial,0,52,52,52,trial,"['S', 'S', 'S', 'S', 'S', 'S', 'C', 'C', 'C', 'C', 'C', 'C', 'C', 'C', 'C', 'C', 'C', 'C', 'C', 'C', 'C', 'C']","[1058189, 1058537, 1058922, 1059319, 1059700, 1060128, 1060530, 1060924, 1061327, 1061707, 1062128, 1062504, 1062871, 1063283, 1063682, 1064087, 1064496, 1064891, 1065296, 1065695, 1066123, 1066556]","[1058287, 1058627, 1059006, 1059394, 1059774, 1060210, 1060601, 1061010, 1061407, 1061787, 1062206, 1062585, 1062953, 1063351, 1063758, 1064159, 1064574, 1064958, 1065366, 1065765, 1066181, 1066612]","[3, 26, 231, 212, 186, 182, 128, 123, 146, 135, 107, 102, 123, 56, 84, 27, 100, 44, 73, 71, 66, 65]","[1058211, 1058588, 1058951, 1059343, 1059731, 1060171, 1060543, 1060959, 1061362, 1061740, 1062167, 1062534, 1062908, 1063306, 1063709, 1064126, 1064531, 1064905, 1065316, 1065712, 1066144, 1066579]","[1057393, 1057794, 1058194, 1058594, 1058994, 1059394, 1059794, 1060194, 1060550, 1060944, 1061347, 1061727, 1062148, 1062524, 1062891, 1063303, 1063702, 1064108, 1064516, 1064911, 1065316, 1065715, 1066143, 1066576]",93,OR,U,R,ITMSR,1.1,
0,600,trial,0,53,53,53,trial,"['S', 'S', 'S', 'S', 'S', 'C', 'C', 'C', 'C', 'C', 'C', 'C', 'C', 'C', 'C', 'C', 'C', 'C', 'C', 'C', 'C']","[1073896, 1074460, 1075056, 1075676, 1076318, 1076883, 1077434, 1077992, 1078568, 1079157, 1079713, 1080316, 1080871, 1081407, 1082000, 1082556, 1083116, 1083664, 1084218, 1084758, 1085314]","[1074002, 1074572, 1075151, 1075778, 1076398, 1076974, 1077541, 1078084, 1078670, 1079270, 1079817, 1080394, 1080962, 1081509, 1082091, 1082660, 1083207, 1083756, 1084313, 1084852, 1085385]","[243, 198, 221, 208, 111, 151, 148, 97, 67, 130, 124, 62, 27, 105, 62, 93, 111, 31, 115, 79, 47]","[1073941, 1074502, 1075097, 1075719, 1076344, 1076927, 1077486, 1078033, 1078596, 1079209, 1079758, 1080355, 1080907, 1081451, 1082030, 1082598, 1083161, 1083706, 1084259, 1084797, 1085334]","[1072172, 1072771, 1073371, 1073971, 1074571, 1075171, 1075771, 1076371, 1076903, 1077454, 1078012, 1078588, 1079177, 1079733, 1080336, 1080891, 1081427, 1082020, 1082576, 1083137, 1083684, 1084238, 1084778, 1085334]",93,OR,U,R,ITMSR,1.1,
2,400,trial,0,54,54,54,trial,"['S', 'S', 'S', 'S', 'S', 'S', 'C', 'C', 'C', 'C', 'C', 'C', 'C', 'C', 'C', 'C', 'C', 'C', 'C', 'C', 'C', 'C']","[1100428, 1100767, 1101153, 1101557, 1101993, 1102403, 1102784, 1103162, 1103578, 1103966, 1104332, 1104732, 1105120, 1105496, 1105897, 1106315, 1106690, 1107094, 1107479, 1107868, 1108263, 1108665]","[1100489, 1100840, 1101218, 1101626, 1102064, 1102466, 1102843, 1103216, 1103634, 1104024, 1104388, 1104780, 1105170, 1105545, 1105949, 1106359, 1106740, 1107145, 1107545, 1107920, 1108327, 1108727]","[243, 223, 239, 66, 235, 233, 239, 33, 182, 20, 24, 155, 197, 242, 7, 139, 204, 244, 197, 209, 218, 192]","[1100434, 1100771, 1101157, 1101560, 1101999, 1102407, 1102788, 1103166, 1103583, 1103970, 1104336, 1104736, 1105125, 1105500, 1105900, 1106321, 1106694, 1107099, 1107484, 1107873, 1108268, 1108670]","[1099614, 1100014, 1100414, 1100814, 1101214, 1101614, 1102014, 1102414, 1102804, 1103182, 1103598, 1103986, 1104352, 1104752, 1105140, 1105516, 1105917, 1106335, 1106710, 1107115, 1107500, 1107888, 1108283, 1108685]",93,OR,U,R,ITMSR,1.1,
0,400,trial,0,55,55,55,trial,"['S', 'S', 'S', 'S', 'S', 'C', 'C', 'C', 'C', 'C', 'C', 'C', 'C', 'C', 'C', 'C', 'C', 'C', 'C', 'C', 'C']","[1115627, 1116034, 1116418, 1116821, 1117225, 1117637, 1118014, 1118402, 1118782, 1119181, 1119541, 1119950, 1120344, 1120741, 1121119, 1121509, 1121904, 1122282, 1122670, 1123078, 1123472]","[1115699, 1116095, 1116492, 1116890, 1117284, 1117693, 1118090, 1118471, 1118854, 1119233, 1119613, 1120023, 1120408, 1120801, 1121192, 1121579, 1121971, 1122354, 1122729, 1123141, 1123526]","[235, 6, 248, 3, 193, 238, 221, 217, 225, 172, 213, 180, 206, 226, 227, 185, 241, 230, 210, 221, 146]","[1115632, 1116039, 1116423, 1116825, 1117231, 1117641, 1118019, 1118407, 1118787, 1119186, 1119546, 1119956, 1120349, 1120746, 1121124, 1121514, 1121909, 1122287, 1122674, 1123082, 1123476]","[1114465, 1114865, 1115266, 1115666, 1116066, 1116466, 1116866, 1117266, 1117657, 1118034, 1118423, 1118802, 1119201, 1119561, 1119970, 1120364, 1120761, 1121139, 1121529, 1121924, 1122302, 1122690, 1123098, 1123492]",93,OR,U,R,ITMSR,1.1,
1,400,trial,0,56,56,56,trial,"['S', 'S', 'S', 'S', 'S', 'S', 'C', 'C', 'C', 'C', 'C', 'C', 'C', 'C', 'C', 'C', 'C', 'C', 'C', 'C', 'C', 'C']","[1129714, 1130084, 1130499, 1130883, 1131304, 1131701, 1132090, 1132510, 1132910, 1133305, 1133711, 1134091, 1134513, 1134902, 1135289, 1135682, 1136104, 1136481, 1136873, 1137238, 1137655, 1138053]","[1129769, 1130149, 1130570, 1130950, 1131373, 1131765, 1132163, 1132567, 1132953, 1133350, 1133767, 1134158, 1134572, 1134973, 1135364, 1135751, 1136160, 1136545, 1136934, 1137309, 1137722, 1138118]","[242, 53, 210, 236, 227, 25, 190, 202, 179, 164, 156, 245, 179, 163, 177, 161, 168, 150, 190, 197, 215, 227]","[1129720, 1130088, 1130504, 1130888, 1131309, 1131705, 1132095, 1132515, 1132915, 1133310, 1133715, 1134095, 1134518, 1134908, 1135294, 1135686, 1136110, 1136486, 1136878, 1137242, 1137660, 1138058]","[1128949, 1129349, 1129749, 1130149, 1130549, 1130949, 1131350, 1131749, 1132110, 1132530, 1132930, 1133325, 1133731, 1134111, 1134533, 1134922, 1135309, 1135703, 1136124, 1136501, 1136893, 1137258, 1137675, 1138073]",93,OR,U,R,ITMSR,1.1,
2,400,trial,0,57,57,57,trial,"['S', 'S', 'S', 'S', 'S', 'C', 'C', 'C', 'C', 'C', 'C', 'C', 'C', 'C', 'C', 'C', 'C', 'C', 'C', 'C', 'C']","[1144950, 1145367, 1145751, 1146142, 1146523, 1146967, 1147357, 1147743, 1148139, 1148545, 1148932, 1149326, 1149689, 1150089, 1150483, 1150888, 1151287, 1151713, 1152117, 1152539, 1152922]","[1145010, 1145422, 1145822, 1146214, 1146589, 1147041, 1147422, 1147813, 1148193, 1148612, 1148999, 1149395, 1149751, 1150156, 1150554, 1150968, 1151352, 1151773, 1152185, 1152607, 1152997]","[157, 215, 184, 177, 212, 170, 199, 164, 200, 190, 153, 165, 146, 221, 228, 162, 204, 123, 154, 122, 186]","[1144956, 1145372, 1145756, 1146147, 1146528, 1146973, 1147363, 1147749, 1148144, 1148551, 1148938, 1149332, 1149697, 1150094, 1150488, 1150896, 1151292, 1151720, 1152123, 1152544, 1152928]","[1143786, 1144186, 1144586, 1144986, 1145387, 1145786, 1146186, 1146586, 1146987, 1147377, 1147763, 1148160, 1148565, 1148952, 1149346, 1149709, 1150109, 1150503, 1150908, 1151307, 1151733, 1152137, 1152559, 1152942]",93,OR,U,R,ITMSR,1.1,
0,600,trial,0,58,58,58,trial,"['S', 'S', 'S', 'S', 'S', 'C', 'C', 'C', 'C', 'C', 'C', 'C', 'C', 'C', 'C', 'C', 'C', 'C', 'C', 'C', 'C']","[1160003, 1160604, 1161186, 1161800, 1162382, 1162972, 1163552, 1164127, 1164683, 1165266, 1165837, 1166424, 1166984, 1167581, 1168147, 1168710, 1169298, 1169856, 1170434, 1171057, 1171618]","[1160170, 1160758, 1161345, 1161932, 1162526, 1163158, 1163748, 1164280, 1164878, 1165475, 1165978, 1166554, 1167097, 1167724, 1168292, 1168864, 1169436, 1169996, 1170530, 1171135, 1171693]","[14, 22, 7, 18, 254, 23, 4, 244, 9, 193, 250, 10, 249, 21, 242, 247, 214, 244, 148, 165, 109]","[1160008, 1160655, 1161254, 1161838, 1162440, 1162978, 1163611, 1164176, 1164732, 1165348, 1165842, 1166429, 1166989, 1167587, 1168153, 1168773, 1169357, 1169861, 1170440, 1171063, 1171627]","[1158250, 1158850, 1159450, 1160050, 1160650, 1161250, 1161850, 1162450, 1162992, 1163572, 1164147, 1164703, 1165286, 1165857, 1166444, 1167004, 1167601, 1168167, 1168730, 1169318, 1169876, 1170454, 1171077, 1171638]",93,OR,U,R,ITMSR,1.1,
3,400,trial,0,59,59,59,trial,"['S', 'S', 'S', 'S', 'S', 'C', 'C', 'C', 'C', 'C', 'C', 'C', 'C', 'C', 'C', 'C', 'C', 'C', 'C', 'C', 'C']","[1178428, 1178823, 1179200, 1179598, 1180016, 1180422, 1180811, 1181200, 1181584, 1181991, 1182356, 1182749, 1183172, 1183567, 1183955, 1184333, 1184709, 1185117, 1185509, 1185903, 1186295]","[1178491, 1178903, 1179271, 1179676, 1180079, 1180486, 1180874, 1181247, 1181649, 1182055, 1182417, 1182812, 1183230, 1183620, 1184012, 1184402, 1184787, 1185185, 1185588, 1185976, 1186379]","[209, 254, 251, 237, 201, 253, 12, 246, 19, 0, 252, 9, 207, 199, 214, 197, 175, 151, 133, 223, 169]","[1178434, 1178828, 1179205, 1179603, 1180021, 1180427, 1180815, 1181205, 1181589, 1181997, 1182360, 1182754, 1183177, 1183574, 1183961, 1184338, 1184715, 1185123, 1185515, 1185909, 1186301]","[1177263, 1177662, 1178062, 1178462, 1178862, 1179262, 1179662, 1180062, 1180442, 1180831, 1181220, 1181604, 1182011, 1182376, 1182769, 1183192, 1183587, 1183975, 1184353, 1184729, 1185137, 1185529, 1185923, 1186315]",93,OR,U,R,ITMSR,1.1,
3,600,trial,0,60,60,60,trial,"['S', 'S', 'S', 'S', 'S', 'C', 'C', 'C', 'C', 'C', 'C', 'C', 'C', 'C', 'C', 'C', 'C', 'C', 'C', 'C', 'C']","[1193424, 1194040, 1194634, 1195211, 1195817, 1196414, 1197009, 1197585, 1198174, 1198764, 1199352, 1199909, 1200518, 1201105, 1201701, 1202283, 1202856, 1203438, 1204001, 1204587, 1205170]","[1193633, 1194241, 1194891, 1195482, 1196109, 1196702, 1197302, 1197846, 1198413, 1198952, 1199608, 1200247, 1200823, 1201399, 1202037, 1202566, 1203171, 1203773, 1204361, 1204869]","[251, 254, 6, 17, 21, 18, 30, 14, 249, 185, 29, 42, 21, 14, 6, 20, 14, 255, 0, 218]","[1193477, 1194077, 1194705, 1195308, 1195911, 1196495, 1197125, 1197688, 1198244, 1198820, 1199449, 1200047, 1200669, 1201207, 1201799, 1202402, 1202972, 1203617, 1204097, 1204703]","[1191667, 1192267, 1192867, 1193467, 1194067, 1194668, 1195267, 1195867, 1196434, 1197029, 1197605, 1198194, 1198784, 1199372, 1199929, 1200538, 1201125, 1201721, 1202304, 1202876, 1203458, 1204021, 1204608, 1205190]",93,OR,U,R,ITMSR,1.1,
4,400,trial,0,61,61,61,trial,"['S', 'S', 'S', 'S', 'S', 'S', 'C', 'C', 'C', 'C', 'C', 'C', 'C', 'C', 'C', 'C', 'C', 'C', 'C', 'C', 'C', 'C']","[1211499, 1211881, 1212275, 1212637, 1213041, 1213463, 1213876, 1214268, 1214680, 1215089, 1215471, 1215903, 1216290, 1216685, 1217070, 1217466, 1217891, 1218292, 1218674, 1219094, 1219468, 1219854]","[1211587, 1211973, 1212357, 1212728, 1213126, 1213544, 1213961, 1214353, 1214756, 1215180, 1215553, 1215984, 1216375, 1216782, 1217168, 1217557, 1217993, 1218382, 1218768, 1219182, 1219560, 1219951]","[56, 35, 1, 225, 194, 194, 203, 148, 77, 59, 0, 165, 233, 38, 61, 33, 125, 127, 202, 244, 233, 222]","[1211540, 1211886, 1212280, 1212643, 1213047, 1213468, 1213882, 1214275, 1214687, 1215097, 1215478, 1215909, 1216297, 1216727, 1217077, 1217473, 1217897, 1218298, 1218682, 1219102, 1219502, 1219904]","[1210725, 1211125, 1211525, 1211925, 1212325, 1212725, 1213125, 1213526, 1213896, 1214288, 1214700, 1215109, 1215491, 1215923, 1216310, 1216705, 1217090, 1217486, 1217911, 1218312, 1218694, 1219115, 1219488, 1219874]",93,OR,U,R,ITMSR,1.1,
2,600,trial,0,62,62,62,trial,"['S', 'S', 'S', 'S', 'S', 'S', 'C', 'C', 'C', 'C', 'C', 'C', 'C', 'C', 'C', 'C', 'C', 'C', 'C', 'C', 'C', 'C']","[1226642, 1227260, 1227832, 1228433, 1229034, 1229654, 1230249, 1230822, 1231383, 1231942, 1232578, 1233139, 1233701, 1234239, 1234801, 1235400, 1235998, 1236523, 1237082, 1237646, 1238238, 1238784]","[1226946, 1227536, 1228168, 1228781, 1229357, 1229968, 1230576, 1231152, 1231721, 1232317, 1232855, 1233459, 1233986, 1234580, 1235148, 1235678, 1236239, 1236862, 1237428, 1237972, 1238514]","[23, 79, 85, 104, 94, 60, 44, 214, 243, 21, 11, 20, 17, 21, 16, 24, 215, 54, 4, 238, 0]","[1226801, 1227359, 1227948, 1228539, 1229105, 1229775, 1230333, 1230965, 1231500, 1232080, 1232673, 1233292, 1233873, 1234460, 1235015, 1235520, 1236056, 1236618, 1237301, 1237842, 1238398]","[1225491, 1226091, 1226691, 1227291, 1227891, 1228491, 1229091, 1229691, 1230269, 1230842, 1231404, 1231962, 1232599, 1233159, 1233721, 1234259, 1234821, 1235420, 1236018, 1236543, 1237102, 1237666, 1238258, 1238804]",93,OR,U,R,ITMSR,1.1,
3,600,trial,0,63,63,63,trial,"['S', 'S', 'S', 'S', 'S', 'C', 'C', 'C', 'C', 'C', 'C', 'C', 'C', 'C', 'C', 'C', 'C', 'C', 'C', 'C', 'C']","[1246162, 1246770, 1247318, 1247875, 1248519, 1249115, 1249697, 1250270, 1250830, 1251393, 1251958, 1252482, 1253051, 1253627, 1254174, 1254757, 1255315, 1255861, 1256392, 1256970, 1257523]","[1246330, 1246917, 1247473, 1248065, 1248713, 1249293, 1249881, 1250447, 1251055, 1251648, 1252210, 1252810, 1253336, 1253857, 1254448, 1255004, 1255553, 1256125, 1256610, 1257169, 1257720]","[232, 254, 214, 202, 238, 233, 219, 255, 15, 223, 205, 4, 216, 247, 233, 217, 24, 12, 247, 233, 221]","[1246221, 1246775, 1247324, 1247956, 1248524, 1249195, 1249778, 1250338, 1250927, 1251492, 1252015, 1252569, 1253159, 1253730, 1254257, 1254840, 1255420, 1256006, 1256489, 1257078, 1257621]","[1244367, 1244967, 1245568, 1246168, 1246768, 1247368, 1247968, 1248568, 1249135, 1249717, 1250290, 1250850, 1251414, 1251978, 1252502, 1253071, 1253647, 1254194, 1254777, 1255335, 1255881, 1256412, 1256990, 1257543]",93,OR,U,R,ITMSR,1.1,
4,400,trial,0,64,64,64,trial,"['S', 'S', 'S', 'S', 'S', 'S', 'C', 'C', 'C', 'C', 'C', 'C', 'C', 'C', 'C', 'C', 'C', 'C', 'C', 'C', 'C', 'C']","[1264071, 1264457, 1264832, 1265227, 1265599, 1265999, 1266390, 1266800, 1267192, 1267594, 1267982, 1268383, 1268769, 1269161, 1269552, 1269928, 1270369, 1270778, 1271172, 1271537, 1271931, 1272340]","[1264156, 1264532, 1264912, 1265302, 1265672, 1266073, 1266459, 1266875, 1267268, 1267638, 1268044, 1268444, 1268838, 1269218, 1269608, 1269992, 1270425, 1270842, 1271240, 1271623, 1272014, 1272423]","[151, 196, 220, 197, 143, 211, 129, 138, 14, 27, 140, 65, 17, 154, 20, 143, 94, 103, 66, 24, 107, 93]","[1264102, 1264462, 1264836, 1265233, 1265605, 1266004, 1266395, 1266805, 1267198, 1267600, 1267988, 1268389, 1268776, 1269169, 1269559, 1269937, 1270398, 1270786, 1271202, 1271570, 1271966, 1272375]","[1263279, 1263678, 1264078, 1264478, 1264878, 1265278, 1265678, 1266078, 1266410, 1266820, 1267212, 1267614, 1268002, 1268403, 1268789, 1269181, 1269572, 1269948, 1270389, 1270798, 1271192, 1271557, 1271951, 1272360]",93,OR,U,R,ITMSR,1.1,
4,600,trial,0,65,65,65,trial,"['S', 'S', 'S', 'S', 'S', 'C', 'C', 'C', 'C', 'C', 'C', 'C', 'C', 'C', 'C', 'C', 'C', 'C', 'C', 'C', 'C']","[1279721, 1280325, 1280911, 1281508, 1282045, 1282665, 1283260, 1283838, 1284376, 1284981, 1285518, 1286088, 1286647, 1287189, 1287730, 1288283, 1288836, 1289391, 1289973, 1290541, 1291032]","[1279921, 1280505, 1281035, 1281605, 1282109, 1282733, 1283313, 1283940, 1284455, 1285071, 1285614, 1286158, 1286734, 1287283, 1287816, 1288376, 1288909, 1289501, 1290060, 1290620, 1291123]","[8, 183, 92, 145, 27, 129, 93, 94, 192, 27, 73, 60, 154, 142, 180, 34, 25, 106, 34, 33, 191]","[1279804, 1280404, 1280967, 1281542, 1282052, 1282693, 1283265, 1283891, 1284409, 1285014, 1285569, 1286117, 1286680, 1287234, 1287762, 1288288, 1288840, 1289438, 1289977, 1290546, 1291037]","[1277952, 1278552, 1279152, 1279752, 1280352, 1280952, 1281552, 1282152, 1282685, 1283280, 1283858, 1284397, 1285001, 1285538, 1286108, 1286667, 1287209, 1287750, 1288303, 1288856, 1289411, 1289993, 1290561, 1291053]",93,OR,U,R,ITMSR,1.1,
5,600,trial,0,66,66,66,trial,"['S', 'S', 'S', 'S', 'S', 'C', 'C', 'C', 'C', 'C', 'C', 'C', 'C', 'C', 'C', 'C', 'C', 'C', 'C', 'C', 'C']","[1298231, 1298778, 1299365, 1299972, 1300602, 1301165, 1301772, 1302381, 1302982, 1303556, 1304147, 1304719, 1305310, 1305906, 1306540, 1307145, 1307714, 1308281, 1308831, 1309428, 1310022]","[1298327, 1298861, 1299446, 1300068, 1300692, 1301251, 1301859, 1302478, 1303079, 1303658, 1304240, 1304810, 1305401, 1305999, 1306614, 1307229, 1307795, 1308384, 1308919, 1309507, 1310075]","[145, 133, 15, 247, 243, 225, 223, 180, 199, 195, 177, 143, 79, 95, 104, 99, 95, 100, 97, 61, 145]","[1298280, 1298825, 1299382, 1300003, 1300615, 1301186, 1301792, 1302412, 1303002, 1303568, 1304175, 1304742, 1305326, 1305926, 1306562, 1307171, 1307737, 1308309, 1308853, 1309456, 1310040]","[1296439, 1297039, 1297639, 1298239, 1298839, 1299439, 1300039, 1300639, 1301185, 1301792, 1302402, 1303002, 1303576, 1304167, 1304739, 1305330, 1305926, 1306560, 1307165, 1307735, 1308301, 1308851, 1309448, 1310042]",93,OR,U,R,ITMSR,1.1,
1,400,trial,0,67,67,67,trial,"['S', 'S', 'S', 'S', 'C', 'C', 'C', 'C', 'C', 'C', 'C', 'C', 'C', 'C', 'C', 'C', 'C', 'C', 'C', 'C']","[1317127, 1317473, 1317867, 1318280, 1318678, 1319097, 1319475, 1319881, 1320287, 1320656, 1321067, 1321448, 1321856, 1322254, 1322672, 1323033, 1323474, 1323871, 1324250, 1324678]","[1317212, 1317549, 1317937, 1318331, 1318737, 1319160, 1319561, 1319963, 1320374, 1320743, 1321146, 1321519, 1321917, 1322319, 1322750, 1323136, 1323516, 1323936, 1324325, 1324728]","[206, 194, 138, 96, 57, 0, 161, 197, 189, 211, 154, 18, 150, 148, 110, 68, 83, 2, 89, 242]","[1317152, 1317494, 1317886, 1318298, 1318695, 1319118, 1319485, 1319894, 1320307, 1320673, 1321088, 1321477, 1321870, 1322274, 1322694, 1323058, 1323490, 1323894, 1324265, 1324699]","[1315536, 1315936, 1316336, 1316737, 1317136, 1317536, 1317936, 1318336, 1318699, 1319117, 1319495, 1319901, 1320307, 1320676, 1321088, 1321468, 1321876, 1322274, 1322692, 1323053, 1323494, 1323891, 1324270, 1324698]",93,OR,U,R,ITMSR,1.1,
1,600,trial,0,68,68,68,trial,"['S', 'S', 'S', 'S', 'S', 'S', 'C', 'C', 'C', 'C', 'C', 'C', 'C', 'C', 'C', 'C', 'C', 'C', 'C', 'C', 'C', 'C']","[1331337, 1331926, 1332523, 1333142, 1333744, 1334324, 1334967, 1335508, 1336083, 1336650, 1337213, 1337787, 1338339, 1338909, 1339459, 1340021, 1340583, 1341088, 1341638, 1342204, 1342731, 1343302]","[1331533, 1332059, 1332636, 1333218, 1333808, 1334406, 1335029, 1335595, 1336168, 1336736, 1337313, 1337873, 1338420, 1338991, 1339550, 1340088, 1340664, 1341174, 1341745, 1342296, 1342815, 1343401]","[23, 0, 30, 11, 242, 230, 208, 243, 95, 144, 95, 123, 15, 40, 160, 228, 201, 172, 75, 32, 252, 56]","[1331422, 1331930, 1332528, 1333148, 1333750, 1334329, 1334972, 1335514, 1336090, 1336656, 1337219, 1337792, 1338345, 1338916, 1339465, 1340026, 1340589, 1341092, 1341643, 1342212, 1342737, 1343334]","[1330193, 1330793, 1331393, 1331993, 1332593, 1333193, 1333793, 1334393, 1334987, 1335528, 1336103, 1336670, 1337233, 1337807, 1338359, 1338929, 1339480, 1340041, 1340603, 1341108, 1341658, 1342224, 1342751, 1343322]",93,OR,U,R,ITMSR,1.1,
5,600,trial,0,69,69,69,trial,"['S', 'S', 'S', 'S', 'S', 'S', 'C', 'C', 'C', 'C', 'C', 'C', 'C', 'C', 'C', 'C', 'C', 'C', 'C', 'C', 'C', 'C']","[1350114, 1350678, 1351277, 1351884, 1352448, 1353049, 1353627, 1354224, 1354815, 1355388, 1356003, 1356587, 1357179, 1357761, 1358326, 1358895, 1359479, 1360081, 1360640, 1361201, 1361743, 1362306]","[1350221, 1350802, 1351382, 1351979, 1352539, 1353151, 1353721, 1354314, 1354910, 1355472, 1356082, 1356643, 1357261, 1357825, 1358404, 1358992, 1359560, 1360166, 1360731, 1361276, 1361808, 1362382]","[119, 78, 204, 97, 114, 53, 192, 227, 126, 150, 94, 85, 53, 172, 92, 119, 137, 105, 255, 144, 11, 239]","[1350120, 1350683, 1351282, 1351890, 1352453, 1353054, 1353671, 1354230, 1354859, 1355397, 1356043, 1356592, 1357213, 1357767, 1358333, 1358930, 1359484, 1360120, 1360645, 1361247, 1361778, 1362343]","[1348955, 1349555, 1350155, 1350755, 1351355, 1351955, 1352555, 1353155, 1353647, 1354244, 1354835, 1355408, 1356023, 1356607, 1357199, 1357782, 1358346, 1358915, 1359499, 1360101, 1360660, 1361221, 1361763, 1362326]",93,OR,U,R,ITMSR,1.1,
1,600,trial,0,70,70,70,trial,"['S', 'S', 'S', 'S', 'S', 'S', 'C', 'C', 'C', 'C', 'C', 'C', 'C', 'C', 'C', 'C', 'C', 'C', 'C', 'C', 'C', 'C']","[1368911, 1369507, 1370125, 1370746, 1371305, 1371870, 1372521, 1373114, 1373683, 1374236, 1374827, 1375396, 1375968, 1376508, 1377084, 1377634, 1378212, 1378733, 1379347, 1379899, 1380463, 1381024]","[1369040, 1369615, 1370222, 1370857, 1371411, 1371975, 1372628, 1373216, 1373755, 1374326, 1374929, 1375481, 1376047, 1376603, 1377211, 1377701, 1378294, 1378789, 1379410, 1379973, 1380572, 1381081]","[185, 154, 72, 39, 229, 43, 98, 183, 5, 191, 216, 104, 180, 98, 148, 252, 220, 190, 148, 227, 103, 143]","[1368967, 1369512, 1370131, 1370753, 1371352, 1371876, 1372527, 1373120, 1373720, 1374241, 1374834, 1375435, 1375975, 1376562, 1377123, 1377673, 1378220, 1378742, 1379353, 1379937, 1380523, 1381051]","[1367751, 1368351, 1368951, 1369551, 1370151, 1370752, 1371352, 1371952, 1372541, 1373134, 1373703, 1374256, 1374848, 1375416, 1375988, 1376528, 1377104, 1377654, 1378232, 1378753, 1379367, 1379919, 1380483, 1381044]",93,OR,U,R,ITMSR,1.1,
4,600,trial,0,71,71,71,trial,"['S', 'S', 'S', 'S', 'S', 'C', 'C', 'C', 'C', 'C', 'C', 'C', 'C', 'C', 'C', 'C', 'C', 'C', 'C', 'C', 'C']","[1388295, 1388940, 1389542, 1390134, 1390741, 1391347, 1391912, 1392500, 1393047, 1393629, 1394185, 1394763, 1395332, 1395912, 1396480, 1397030, 1397569, 1398141, 1398697, 1399285, 1399846]","[1388447, 1389065, 1389667, 1390233, 1390853, 1391472, 1392007, 1392605, 1393167, 1393734, 1394298, 1394872, 1395421, 1396020, 1396582, 1397138, 1397685, 1398240, 1398797, 1399378, 1399945]","[72, 10, 22, 199, 254, 212, 177, 183, 206, 172, 172, 170, 146, 185, 146, 163, 156, 78, 31, 102, 97]","[1388383, 1388995, 1389602, 1390187, 1390800, 1391409, 1391964, 1392549, 1393099, 1393688, 1394241, 1394823, 1395371, 1395969, 1396530, 1397087, 1397640, 1398193, 1398742, 1399339, 1399902]","[1386600, 1387200, 1387800, 1388400, 1389000, 1389600, 1390200, 1390800, 1391367, 1391932, 1392520, 1393068, 1393649, 1394205, 1394783, 1395352, 1395932, 1396500, 1397050, 1397590, 1398161, 1398717, 1399305, 1399866]",93,OR,U,R,ITMSR,1.1,
0,600,trial,0,72,72,72,trial,"['S', 'S', 'S', 'S', 'S', 'C', 'C', 'C', 'C', 'C', 'C', 'C', 'C', 'C', 'C', 'C', 'C', 'C', 'C', 'C', 'C']","[1407089, 1407689, 1408297, 1408883, 1409490, 1410080, 1410668, 1411256, 1411819, 1412381, 1412950, 1413524, 1414066, 1414666, 1415236, 1415789, 1416351, 1416927, 1417483, 1417980, 1418566]","[1407204, 1407795, 1408419, 1408994, 1409598, 1410188, 1410784, 1411363, 1411948, 1412511, 1413058, 1413627, 1414181, 1414794, 1415332, 1415912, 1416443, 1417035, 1417611, 1418128, 1418660]","[15, 154, 138, 147, 118, 92, 184, 209, 75, 200, 64, 171, 1, 254, 184, 146, 144, 127, 253, 26, 211]","[1407147, 1407737, 1408357, 1408940, 1409545, 1410138, 1410720, 1411307, 1411871, 1412443, 1413019, 1413571, 1414122, 1414736, 1415286, 1415854, 1416403, 1416985, 1417542, 1418061, 1418605]","[1405366, 1405966, 1406566, 1407166, 1407766, 1408366, 1408966, 1409566, 1410100, 1410689, 1411276, 1411840, 1412401, 1412970, 1413544, 1414086, 1414686, 1415256, 1415810, 1416371, 1416947, 1417503, 1418000, 1418586]",93,OR,U,R,ITMSR,1.1,
5,400,trial,0,73,73,73,trial,"['S', 'S', 'S', 'S', 'C', 'C', 'C', 'C', 'C', 'C', 'C', 'C', 'C', 'C', 'C', 'C', 'C', 'C', 'C', 'C']","[1425640, 1426028, 1426414, 1426813, 1427197, 1427614, 1428016, 1428413, 1428798, 1429217, 1429603, 1430010, 1430416, 1430830, 1431250, 1431629, 1432074, 1432492, 1432901, 1433313]","[1425747, 1426116, 1426507, 1426925, 1427299, 1427699, 1428103, 1428476, 1428898, 1429297, 1429676, 1430084, 1430484, 1430888, 1431306, 1431693, 1432124, 1432556, 1432965, 1433371]","[200, 137, 133, 211, 150, 224, 202, 163, 61, 226, 103, 246, 17, 188, 173, 221, 143, 155, 174, 62]","[1425692, 1426075, 1426462, 1426864, 1427246, 1427660, 1428065, 1428435, 1428848, 1429257, 1429623, 1430027, 1430441, 1430856, 1431260, 1431658, 1432102, 1432524, 1432939, 1433344]","[1424075, 1424475, 1424875, 1425275, 1425675, 1426075, 1426476, 1426875, 1427217, 1427634, 1428036, 1428433, 1428818, 1429237, 1429623, 1430030, 1430436, 1430850, 1431270, 1431649, 1432094, 1432512, 1432921, 1433333]",93,OR,U,R,ITMSR,1.1,
3,400,trial,0,74,74,74,trial,"['S', 'S', 'S', 'S', 'C', 'C', 'C', 'C', 'C', 'C', 'C', 'C', 'C', 'C', 'C', 'C', 'C', 'C', 'C', 'C']","[1440239, 1440630, 1440994, 1441433, 1441837, 1442231, 1442612, 1442987, 1443384, 1443751, 1444135, 1444523, 1444932, 1445325, 1445711, 1446082, 1446476, 1446850, 1447230, 1447600]","[1440356, 1440736, 1441098, 1441521, 1441955, 1442324, 1442710, 1443085, 1443480, 1443856, 1444213, 1444629, 1445039, 1445420, 1445813, 1446179, 1446578, 1446938, 1447322, 1447706]","[169, 115, 61, 207, 92, 231, 133, 98, 83, 45, 233, 197, 215, 89, 168, 128, 200, 105, 142, 135]","[1440294, 1440681, 1441048, 1441473, 1441889, 1442284, 1442665, 1443038, 1443426, 1443799, 1444162, 1444576, 1444990, 1445378, 1445764, 1446128, 1446523, 1446902, 1447281, 1447653]","[1438697, 1439097, 1439497, 1439897, 1440297, 1440697, 1441097, 1441497, 1441857, 1442251, 1442632, 1443007, 1443404, 1443771, 1444155, 1444543, 1444952, 1445345, 1445731, 1446103, 1446496, 1446871, 1447250, 1447620]",93,OR,U,R,ITMSR,1.1,
2,600,trial,0,75,75,75,trial,"['S', 'S', 'S', 'S', 'S', 'C', 'C', 'C', 'C', 'C', 'C', 'C', 'C', 'C', 'C', 'C', 'C', 'C', 'C', 'C', 'C']","[1454782, 1455337, 1455962, 1456561, 1457170, 1457764, 1458351, 1458925, 1459502, 1460098, 1460653, 1461207, 1461808, 1462340, 1462920, 1463490, 1464070, 1464609, 1465195, 1465757, 1466335]","[1454921, 1455552, 1456169, 1456766, 1457443, 1458060, 1458649, 1459278, 1459820, 1460417, 1461019, 1461571, 1462131, 1462664, 1463213, 1463754, 1464380, 1464893, 1465519, 1466013]","[12, 4, 44, 32, 27, 23, 17, 31, 251, 219, 230, 251, 222, 251, 229, 184, 237, 249, 187, 215]","[1454840, 1455417, 1456055, 1456663, 1457304, 1457891, 1458573, 1459165, 1459746, 1460218, 1460798, 1461426, 1462028, 1462560, 1463058, 1463616, 1464227, 1464790, 1465444, 1465918]","[1453009, 1453609, 1454210, 1454810, 1455410, 1456010, 1456610, 1457210, 1457784, 1458371, 1458946, 1459522, 1460118, 1460673, 1461227, 1461828, 1462360, 1462940, 1463511, 1464090, 1464629, 1465216, 1465777, 1466355]",93,OR,U,R,ITMSR,1.1,
5,400,trial,0,76,76,76,trial,"['S', 'S', 'S', 'S', 'C', 'C', 'C', 'C', 'C', 'C', 'C', 'C', 'C', 'C', 'C', 'C', 'C', 'C', 'C', 'C']","[1473349, 1473746, 1474132, 1474512, 1474909, 1475350, 1475747, 1476153, 1476550, 1476942, 1477340, 1477735, 1478141, 1478541, 1478955, 1479353, 1479755, 1480170, 1480571, 1480976]","[1473439, 1473831, 1474239, 1474613, 1475001, 1475434, 1475856, 1476263, 1476652, 1477036, 1477443, 1477841, 1478251, 1478650, 1479069, 1479456, 1479864, 1480282, 1480670, 1481082]","[209, 233, 231, 177, 203, 95, 174, 123, 118, 209, 175, 202, 170, 187, 207, 114, 137, 215, 160, 201]","[1473393, 1473793, 1474182, 1474565, 1474961, 1475397, 1475807, 1476210, 1476598, 1476994, 1477389, 1477788, 1478200, 1478592, 1479014, 1479400, 1479802, 1480219, 1480622, 1481015]","[1471756, 1472156, 1472557, 1472957, 1473357, 1473757, 1474157, 1474557, 1474929, 1475371, 1475767, 1476173, 1476570, 1476962, 1477360, 1477755, 1478161, 1478561, 1478975, 1479373, 1479775, 1480190, 1480591, 1480996]",93,OR,U,R,ITMSR,1.1,
0,400,trial,0,77,77,77,trial,"['S', 'S', 'S', 'S', 'C', 'C', 'C', 'C', 'C', 'C', 'C', 'C', 'C', 'C', 'C', 'C', 'C', 'C', 'C', 'C']","[1487867, 1488247, 1488647, 1489044, 1489471, 1489850, 1490240, 1490655, 1491033, 1491423, 1491814, 1492218, 1492619, 1493014, 1493396, 1493797, 1494176, 1494593, 1494991, 1495367]","[1487977, 1488342, 1488735, 1489120, 1489544, 1489950, 1490340, 1490746, 1491131, 1491525, 1491905, 1492320, 1492719, 1493107, 1493506, 1493901, 1494280, 1494684, 1495084, 1495465]","[27, 15, 238, 165, 151, 195, 185, 171, 169, 167, 147, 173, 191, 143, 152, 142, 136, 110, 130, 102]","[1487917, 1488294, 1488690, 1489083, 1489510, 1489901, 1490284, 1490701, 1491077, 1491463, 1491855, 1492261, 1492660, 1493053, 1493431, 1493848, 1494219, 1494635, 1495024, 1495400]","[1486299, 1486699, 1487099, 1487499, 1487899, 1488300, 1488699, 1489099, 1489491, 1489870, 1490260, 1490675, 1491053, 1491443, 1491834, 1492238, 1492639, 1493035, 1493416, 1493817, 1494196, 1494614, 1495011, 1495387]",93,OR,U,R,ITMSR,1.1,
1,600,trial,0,78,78,78,trial,"['S', 'S', 'S', 'S', 'S', 'C', 'C', 'C', 'C', 'C', 'C', 'C', 'C', 'C', 'C', 'C', 'C', 'C', 'C', 'C', 'C']","[1506095, 1506673, 1507233, 1507844, 1508461, 1509060, 1509676, 1510289, 1510878, 1511460, 1512034, 1512603, 1513190, 1513803, 1514395, 1514969, 1515526, 1516083, 1516617, 1517223, 1517749]","[1506286, 1506817, 1507450, 1508019, 1508598, 1509172, 1509798, 1510394, 1510990, 1511581, 1512148, 1512710, 1513308, 1513908, 1514548, 1515084, 1515712, 1516197, 1516709, 1517290, 1517851]","[73, 251, 51, 207, 6, 106, 217, 81, 127, 115, 178, 5, 135, 177, 174, 56, 155, 166, 129, 17, 167]","[1506187, 1506737, 1507323, 1507915, 1508515, 1509115, 1509734, 1510345, 1510927, 1511523, 1512084, 1512651, 1513238, 1513866, 1514470, 1515034, 1515609, 1516136, 1516663, 1517268, 1517800]","[1504331, 1504931, 1505531, 1506131, 1506732, 1507331, 1507931, 1508531, 1509080, 1509696, 1510309, 1510898, 1511480, 1512054, 1512623, 1513210, 1513823, 1514415, 1514989, 1515546, 1516103, 1516637, 1517243, 1517769]",93,OR,U,R,ITMSR,1.1,
3,400,trial,0,79,79,79,trial,"['S', 'S', 'S', 'S', 'C', 'C', 'C', 'C', 'C', 'C', 'C', 'C', 'C', 'C', 'C', 'C', 'C', 'C', 'C', 'C']","[1524720, 1525105, 1525498, 1525897, 1526304, 1526701, 1527096, 1527484, 1527866, 1528248, 1528652, 1529041, 1529460, 1529861, 1530270, 1530671, 1531057, 1531455, 1531805, 1532210]","[1524801, 1525171, 1525571, 1525998, 1526378, 1526759, 1527163, 1527553, 1527938, 1528322, 1528725, 1529106, 1529521, 1529939, 1530335, 1530754, 1531122, 1531523, 1531888, 1532285]","[200, 220, 206, 226, 154, 253, 111, 96, 92, 27, 39, 182, 179, 215, 174, 140, 186, 143, 75, 227]","[1524755, 1525112, 1525505, 1525903, 1526310, 1526708, 1527102, 1527490, 1527872, 1528254, 1528659, 1529050, 1529468, 1529893, 1530277, 1530703, 1531064, 1531462, 1531812, 1532215]","[1523180, 1523580, 1523980, 1524380, 1524781, 1525181, 1525581, 1525981, 1526324, 1526721, 1527116, 1527504, 1527886, 1528268, 1528672, 1529061, 1529480, 1529881, 1530290, 1530691, 1531077, 1531475, 1531825, 1532230]",93,OR,U,R,ITMSR,1.1,
0,600,trial,0,80,80,80,trial,"['S', 'S', 'S', 'S', 'C', 'C', 'C', 'C', 'C', 'C', 'C', 'C', 'C', 'C', 'C', 'C', 'C', 'C', 'C', 'C']","[1539979, 1540569, 1541175, 1541800, 1542384, 1542999, 1543635, 1544231, 1544809, 1545408, 1546010, 1546601, 1547202, 1547789, 1548368, 1550965, 1551515, 1552069, 1552590, 1553141]","[1540111, 1540677, 1541269, 1541874, 1542529, 1543098, 1543728, 1544312, 1544915, 1545459, 1546085, 1546659, 1547278, 1547840, 1548450, 1551048, 1551583, 1552139, 1552692, 1553246]","[18, 98, 123, 2, 208, 100, 58, 19, 76, 226, 99, 159, 196, 145, 78, 66, 219, 229, 54, 24]","[1540048, 1540625, 1541222, 1541841, 1542466, 1543048, 1543680, 1544276, 1544855, 1545446, 1546058, 1546631, 1547244, 1547809, 1548407, 1551005, 1551558, 1552106, 1552637, 1553197]","[1537654, 1538254, 1538854, 1539454, 1540055, 1540654, 1541254, 1541854, 1542404, 1543019, 1543655, 1544251, 1544829, 1545428, 1546030, 1546621, 1547223, 1547809, 1548388, 1550985, 1551535, 1552089, 1552610, 1553161]",93,OR,U,R,ITMSR,1.1,
0,600,trial,0,81,81,81,trial,"['S', 'S', 'S', 'S', 'S', 'S', 'C', 'C', 'C', 'C', 'C', 'C', 'C', 'C', 'C', 'C', 'C', 'C', 'C', 'C', 'C', 'C']","[1559939, 1560598, 1561217, 1561825, 1562425, 1563030, 1563616, 1564200, 1564749, 1565325, 1565913, 1566502, 1567089, 1567660, 1568233, 1568818, 1569409, 1570001, 1570560, 1571171, 1571715, 1572265]","[1559999, 1560663, 1561298, 1561884, 1562502, 1563077, 1563698, 1564282, 1564820, 1565378, 1565961, 1566570, 1567150, 1567753, 1568322, 1568888, 1569505, 1570088, 1570642, 1571241, 1571824, 1572348]","[187, 172, 186, 94, 126, 77, 96, 16, 31, 7, 79, 150, 108, 29, 230, 14, 138, 236, 93, 84, 190, 228]","[1559944, 1560604, 1561223, 1561831, 1562431, 1563037, 1563623, 1564209, 1564756, 1565333, 1565920, 1566509, 1567094, 1567666, 1568273, 1568846, 1569414, 1570040, 1570567, 1571178, 1571763, 1572301]","[1558914, 1559514, 1560114, 1560714, 1561314, 1561914, 1562514, 1563114, 1563636, 1564220, 1564769, 1565345, 1565933, 1566522, 1567109, 1567680, 1568253, 1568838, 1569429, 1570021, 1570580, 1571191, 1571735, 1572285]",93,OR,U,R,ITMSR,1.1,
4,400,trial,0,82,82,82,trial,"['S', 'S', 'S', 'S', 'C', 'C', 'C', 'C', 'C', 'C', 'C', 'C', 'C', 'C', 'C', 'C', 'C', 'C', 'C', 'C']","[1579677, 1580045, 1580444, 1580845, 1581247, 1581655, 1582048, 1582436, 1582845, 1583263, 1583628, 1584032, 1584447, 1584835, 1585236, 1585612, 1586022, 1586433, 1586833, 1587246]","[1579745, 1580108, 1580506, 1580908, 1581310, 1581711, 1582117, 1582507, 1582913, 1583309, 1583702, 1584099, 1584489, 1584856, 1585287, 1585656, 1586089, 1586496, 1586891, 1587314]","[207, 148, 85, 101, 110, 54, 87, 71, 152, 19, 33, 118, 196, 49, 95, 28, 219, 111, 110, 178]","[1579682, 1580051, 1580451, 1580852, 1581253, 1581663, 1582055, 1582443, 1582853, 1583270, 1583635, 1584038, 1584455, 1584842, 1585244, 1585619, 1586030, 1586443, 1586843, 1587255]","[1578081, 1578481, 1578882, 1579282, 1579682, 1580082, 1580482, 1580882, 1581267, 1581675, 1582068, 1582456, 1582865, 1583283, 1583648, 1584052, 1584467, 1584856, 1585256, 1585632, 1586042, 1586453, 1586853, 1587266]",93,OR,U,R,ITMSR,1.1,
0,400,trial,0,83,83,83,trial,"['S', 'S', 'S', 'S', 'C', 'C', 'C', 'C', 'C', 'C', 'C', 'C', 'C', 'C', 'C', 'C', 'C', 'C', 'C', 'C']","[1594534, 1594913, 1595313, 1595722, 1596123, 1596498, 1596864, 1597235, 1597618, 1598000, 1598375, 1598756, 1599134, 1599524, 1599912, 1600277, 1600660, 1601061, 1601429, 1601817]","[1594635, 1594996, 1595386, 1595796, 1596179, 1596537, 1596903, 1597271, 1597662, 1598051, 1598439, 1598806, 1599196, 1599575, 1599949, 1600314, 1600706, 1601104, 1601490, 1601860]","[160, 18, 104, 121, 3, 2, 231, 130, 236, 85, 9, 36, 88, 30, 214, 96, 17, 31, 157, 218]","[1594588, 1594961, 1595339, 1595752, 1596144, 1596515, 1596882, 1597251, 1597638, 1598016, 1598403, 1598783, 1599160, 1599545, 1599923, 1600292, 1600672, 1601071, 1601440, 1601829]","[1593008, 1593408, 1593808, 1594208, 1594608, 1595009, 1595408, 1595808, 1596143, 1596518, 1596884, 1597255, 1597638, 1598020, 1598395, 1598776, 1599154, 1599544, 1599932, 1600297, 1600680, 1601081, 1601449, 1601837]",93,OR,U,R,ITMSR,1.1,
2,600,trial,0,84,84,84,trial,"['S', 'S', 'S', 'S', 'S', 'S', 'C', 'C', 'C', 'C', 'C', 'C', 'C', 'C', 'C', 'C', 'C', 'C', 'C', 'C', 'C', 'C']","[1608657, 1609230, 1609795, 1610389, 1610990, 1611606, 1612210, 1612827, 1613402, 1614002, 1614632, 1615207, 1615778, 1616351, 1616943, 1617555, 1618146, 1618717, 1619328, 1619916, 1620457, 1621043]","[1608728, 1609302, 1609875, 1610471, 1611070, 1611692, 1612289, 1612899, 1613568, 1614136, 1614763, 1615354, 1615919, 1616477, 1617107, 1617759, 1618338, 1618955, 1619547, 1620178, 1620710, 1621303]","[197, 8, 249, 242, 246, 205, 200, 107, 185, 135, 182, 124, 172, 69, 219, 103, 195, 71, 165, 213, 131, 7]","[1608675, 1609248, 1609820, 1610412, 1610996, 1611625, 1612228, 1612839, 1613424, 1614053, 1614656, 1615276, 1615794, 1616407, 1616999, 1617624, 1618193, 1618789, 1619354, 1619924, 1620577, 1621123]","[1607429, 1608028, 1608628, 1609228, 1609828, 1610428, 1611028, 1611628, 1612230, 1612847, 1613422, 1614022, 1614652, 1615227, 1615798, 1616371, 1616963, 1617575, 1618166, 1618737, 1619348, 1619936, 1620477, 1621063]",93,OR,U,R,ITMSR,1.1,
4,600,trial,0,85,85,85,trial,"['S', 'S', 'S', 'S', 'S', 'S', 'C', 'C', 'C', 'C', 'C', 'C', 'C', 'C', 'C', 'C', 'C', 'C', 'C', 'C', 'C', 'C']","[1627849, 1628432, 1629036, 1629656, 1630252, 1630831, 1631422, 1632041, 1632674, 1633233, 1633882, 1634471, 1635075, 1635685, 1636295, 1636897, 1637527, 1638127, 1638767, 1639346, 1639951, 1640544]","[1627960, 1628524, 1629125, 1629726, 1630302, 1630898, 1631485, 1632090, 1632734, 1633317, 1633952, 1634544, 1635133, 1635739, 1636360, 1636946, 1637602, 1638194, 1638814, 1639402, 1640018, 1640607]","[220, 162, 145, 227, 185, 162, 168, 26, 120, 160, 172, 186, 164, 1, 177, 244, 25, 200, 127, 38, 174, 75]","[1627873, 1628453, 1629054, 1629662, 1630267, 1630853, 1631429, 1632043, 1632678, 1633248, 1633898, 1634498, 1635087, 1635699, 1636312, 1636907, 1637531, 1638133, 1638770, 1639351, 1639968, 1640560]","[1626673, 1627273, 1627873, 1628473, 1629073, 1629673, 1630273, 1630873, 1631442, 1632061, 1632694, 1633253, 1633902, 1634491, 1635095, 1635705, 1636315, 1636917, 1637548, 1638147, 1638787, 1639366, 1639971, 1640564]",93,OR,U,R,ITMSR,1.1,
4,600,trial,0,86,86,86,trial,"['S', 'S', 'S', 'S', 'S', 'S', 'C', 'C', 'C', 'C', 'C', 'C', 'C', 'C', 'C', 'C', 'C', 'C', 'C', 'C', 'C', 'C']","[1647035, 1647621, 1648229, 1648843, 1649416, 1649995, 1650614, 1651195, 1651773, 1652372, 1652945, 1653482, 1654106, 1654685, 1655287, 1655851, 1656481, 1657032, 1657577, 1658169, 1658753, 1659255]","[1647214, 1647754, 1648366, 1648978, 1649528, 1650115, 1650743, 1651317, 1651878, 1652474, 1653055, 1653612, 1654215, 1654815, 1655350, 1655944, 1656558, 1657139, 1657671, 1658267, 1658832, 1659406]","[15, 232, 210, 205, 126, 115, 93, 251, 39, 238, 249, 39, 209, 61, 27, 6, 86, 35, 172, 54, 120, 48]","[1647115, 1647688, 1648288, 1648911, 1649466, 1650052, 1650670, 1651251, 1651824, 1652422, 1652989, 1653547, 1654164, 1654742, 1655313, 1655903, 1656530, 1657084, 1657622, 1658217, 1658800, 1659335]","[1645891, 1646491, 1647091, 1647691, 1648291, 1648891, 1649491, 1650092, 1650634, 1651215, 1651793, 1652392, 1652965, 1653502, 1654126, 1654705, 1655307, 1655871, 1656501, 1657052, 1657597, 1658189, 1658773, 1659275]",93,OR,U,R,ITMSR,1.1,
0,400,trial,0,87,87,87,trial,"['S', 'S', 'S', 'S', 'C', 'C', 'C', 'C', 'C', 'C', 'C', 'C', 'C', 'C', 'C', 'C', 'C', 'C', 'C', 'C']","[1666292, 1666688, 1667084, 1667470, 1667884, 1668256, 1668634, 1669041, 1669410, 1669804, 1670228, 1670593, 1670995, 1671357, 1671762, 1672167, 1672530, 1672897, 1673306, 1673729]","[1666362, 1666759, 1667156, 1667535, 1667956, 1668329, 1668709, 1669120, 1669482, 1669886, 1670270, 1670646, 1671052, 1671433, 1671829, 1672238, 1672623, 1672953, 1673368, 1673786]","[69, 201, 159, 200, 15, 140, 108, 52, 187, 107, 113, 156, 117, 119, 115, 42, 148, 216, 152, 129]","[1666297, 1666692, 1667088, 1667474, 1667890, 1668260, 1668639, 1669046, 1669414, 1669809, 1670233, 1670597, 1671002, 1671362, 1671769, 1672173, 1672536, 1672903, 1673312, 1673735]","[1664719, 1665119, 1665519, 1665920, 1666319, 1666719, 1667119, 1667519, 1667904, 1668276, 1668654, 1669061, 1669430, 1669824, 1670248, 1670614, 1671015, 1671377, 1671782, 1672187, 1672550, 1672918, 1673326, 1673749]",93,OR,U,R,ITMSR,1.1,
5,400,trial,0,88,88,88,trial,"['S', 'S', 'S', 'S', 'C', 'C', 'C', 'C', 'C', 'C', 'C', 'C', 'C', 'C', 'C', 'C', 'C', 'C', 'C', 'C']","[1680965, 1681337, 1681754, 1682149, 1682572, 1682991, 1683395, 1683788, 1684177, 1684586, 1684982, 1685380, 1685756, 1686151, 1686536, 1686916, 1687299, 1687686, 1688065, 1688445]","[1681043, 1681405, 1681812, 1682229, 1682652, 1683056, 1683467, 1683870, 1684242, 1684651, 1685056, 1685433, 1685839, 1686218, 1686616, 1686983, 1687374, 1687758, 1688129, 1688513]","[24, 42, 188, 2, 15, 246, 192, 236, 93, 119, 134, 106, 187, 159, 211, 143, 141, 148, 241, 6]","[1680985, 1681357, 1681764, 1682170, 1682593, 1683011, 1683417, 1683813, 1684194, 1684602, 1685004, 1685393, 1685782, 1686175, 1686561, 1686937, 1687320, 1687702, 1688086, 1688461]","[1679413, 1679812, 1680212, 1680612, 1681012, 1681412, 1681812, 1682212, 1682592, 1683011, 1683416, 1683808, 1684197, 1684606, 1685002, 1685400, 1685776, 1686171, 1686556, 1686936, 1687319, 1687706, 1688085, 1688465]",93,OR,U,R,ITMSR,1.1,
2,600,trial,0,89,89,89,trial,"['S', 'S', 'S', 'S', 'S', 'C', 'C', 'C', 'C', 'C', 'C', 'C', 'C', 'C', 'C', 'C', 'C', 'C', 'C', 'C', 'C']","[1695716, 1696317, 1696893, 1697458, 1698109, 1698698, 1699284, 1699859, 1700471, 1701057, 1701635, 1702211, 1702765, 1703327, 1703889, 1704464, 1705034, 1705617, 1706130, 1706719, 1707267]","[1695785, 1696378, 1696973, 1697552, 1698165, 1698759, 1699349, 1699916, 1700493, 1701093, 1701714, 1702279, 1702845, 1703400, 1703969, 1704524, 1705117, 1705667, 1706221, 1706783, 1707334]","[228, 207, 212, 249, 200, 219, 199, 107, 66, 79, 186, 199, 227, 174, 3, 142, 52, 46, 194, 102, 73]","[1695737, 1696329, 1696917, 1697479, 1698125, 1698713, 1699302, 1699873, 1700475, 1701063, 1701657, 1702223, 1702788, 1703341, 1703911, 1704481, 1705059, 1705630, 1706140, 1706732, 1707283]","[1693938, 1694537, 1695137, 1695737, 1696337, 1696937, 1697538, 1698138, 1698718, 1699304, 1699879, 1700491, 1701078, 1701655, 1702232, 1702786, 1703347, 1703909, 1704484, 1705054, 1705637, 1706150, 1706739, 1707287]",93,OR,U,R,ITMSR,1.1,
1,400,trial,0,90,90,90,trial,"['S', 'S', 'C', 'C', 'C', 'C', 'C', 'C', 'C', 'C', 'C', 'C', 'C', 'C', 'C', 'C', 'C', 'C']","[1715191, 1715597, 1715970, 1716390, 1716761, 1717161, 1717519, 1717942, 1718337, 1718687, 1719088, 1719501, 1719896, 1720262, 1720639, 1721048, 1721380, 1721777]","[1715279, 1715670, 1716049, 1716451, 1716858, 1717218, 1717607, 1717989, 1718393, 1718772, 1719140, 1719545, 1719940, 1720308, 1720700, 1721112, 1721447, 1721833]","[2, 206, 102, 72, 102, 224, 97, 21, 250, 87, 51, 188, 235, 107, 185, 175, 89, 63]","[1715214, 1715611, 1715994, 1716410, 1716785, 1717185, 1717535, 1717959, 1718358, 1718712, 1719108, 1719517, 1719917, 1720282, 1720662, 1721075, 1721400, 1721799]","[1712856, 1713256, 1713656, 1714056, 1714456, 1714856, 1715256, 1715656, 1715990, 1716410, 1716781, 1717181, 1717539, 1717962, 1718358, 1718707, 1719108, 1719521, 1719916, 1720282, 1720659, 1721068, 1721400, 1721797]",93,OR,U,R,ITMSR,1.1,
3,600,trial,0,91,91,91,trial,"['S', 'S', 'S', 'S', 'S', 'S', 'C', 'C', 'C', 'C', 'C', 'C', 'C', 'C', 'C', 'C', 'C', 'C', 'C', 'C', 'C', 'C']","[1728770, 1729336, 1729946, 1730540, 1731128, 1731723, 1732341, 1732921, 1733495, 1734055, 1734591, 1735142, 1735696, 1736236, 1736790, 1737341, 1737909, 1738460, 1739015, 1739549, 1740084, 1740634]","[1728866, 1729405, 1730053, 1730619, 1731220, 1731799, 1732444, 1732995, 1733595, 1734122, 1734693, 1735225, 1735831, 1736327, 1736903, 1737435, 1738016, 1738551, 1739109, 1739648, 1740175, 1740729]","[31, 15, 216, 181, 214, 149, 117, 145, 141, 134, 177, 83, 36, 85, 88, 101, 118, 116, 173, 129, 112, 242]","[1728778, 1729339, 1729950, 1730544, 1731134, 1731727, 1732348, 1732925, 1733500, 1734061, 1734598, 1735146, 1735703, 1736241, 1736796, 1737347, 1737914, 1738465, 1739021, 1739554, 1740092, 1740638]","[1727578, 1728178, 1728778, 1729378, 1729978, 1730578, 1731178, 1731778, 1732361, 1732941, 1733515, 1734075, 1734611, 1735162, 1735716, 1736256, 1736810, 1737361, 1737929, 1738480, 1739035, 1739569, 1740104, 1740654]",93,OR,U,R,ITMSR,1.1,
1,600,trial,0,92,92,92,trial,"['S', 'S', 'S', 'S', 'S', 'S', 'C', 'C', 'C', 'C', 'C', 'C', 'C', 'C', 'C', 'C', 'C', 'C', 'C', 'C', 'C', 'C']","[1747184, 1747756, 1748367, 1748993, 1749574, 1750154, 1750754, 1751340, 1751959, 1752511, 1753110, 1753691, 1754263, 1754800, 1755416, 1755976, 1756549, 1757097, 1757670, 1758217, 1758782, 1759354]","[1747290, 1747841, 1748481, 1749080, 1749666, 1750254, 1750874, 1751422, 1752068, 1752635, 1753197, 1753799, 1754372, 1754913, 1755500, 1756105, 1756666, 1757191, 1757737, 1758352, 1758859, 1759456]","[130, 21, 179, 177, 130, 161, 156, 120, 88, 220, 96, 165, 56, 172, 102, 6, 49, 84, 178, 226, 201, 128]","[1747190, 1747761, 1748372, 1749000, 1749580, 1750190, 1750760, 1751348, 1751963, 1752517, 1753116, 1753696, 1754268, 1754807, 1755421, 1756018, 1756554, 1757105, 1757675, 1758299, 1758787, 1759360]","[1746030, 1746630, 1747230, 1747830, 1748430, 1749030, 1749630, 1750231, 1750774, 1751360, 1751980, 1752531, 1753131, 1753711, 1754284, 1754820, 1755437, 1755996, 1756569, 1757117, 1757690, 1758237, 1758802, 1759374]",93,OR,U,R,ITMSR,1.1,
3,600,trial,0,93,93,93,trial,"['S', 'S', 'S', 'S', 'S', 'S', 'C', 'C', 'C', 'C', 'C', 'C', 'C', 'C', 'C', 'C', 'C', 'C', 'C', 'C', 'C', 'C']","[1766039, 1766643, 1767264, 1767836, 1768427, 1769034, 1769631, 1770230, 1770827, 1771396, 1771987, 1772553, 1773164, 1773728, 1774340, 1774921, 1775534, 1776107, 1776688, 1777257, 1777866, 1778369]","[1766208, 1766749, 1767368, 1767946, 1768497, 1769136, 1769731, 1770330, 1770917, 1771540, 1772080, 1772632, 1773230, 1773830, 1774387, 1775000, 1775591, 1776179, 1776761, 1777343, 1777931, 1778446]","[7, 212, 131, 183, 125, 51, 217, 23, 217, 19, 185, 45, 133, 222, 160, 43, 101, 92, 106, 212, 127, 218]","[1766120, 1766649, 1767268, 1767870, 1768432, 1769081, 1769637, 1770236, 1770883, 1771452, 1772015, 1772560, 1773167, 1773764, 1774343, 1774927, 1775551, 1776112, 1776709, 1777262, 1777869, 1778373]","[1764902, 1765502, 1766103, 1766702, 1767302, 1767902, 1768502, 1769102, 1769651, 1770250, 1770847, 1771416, 1772007, 1772573, 1773185, 1773748, 1774360, 1774941, 1775554, 1776128, 1776708, 1777277, 1777886, 1778390]",93,OR,U,R,ITMSR,1.1,
2,400,trial,0,94,94,94,trial,"['S', 'S', 'S', 'S', 'C', 'C', 'C', 'C', 'C', 'C', 'C', 'C', 'C', 'C', 'C', 'C', 'C', 'C', 'C', 'C']","[1785699, 1786076, 1786480, 1786853, 1787258, 1787642, 1788049, 1788457, 1788851, 1789231, 1789644, 1790031, 1790461, 1790837, 1791218, 1791621, 1792022, 1792410, 1792848, 1793222]","[1785800, 1786194, 1786589, 1787000, 1787363, 1787774, 1788166, 1788600, 1788955, 1789362, 1789740, 1790184, 1790541, 1790970, 1791308, 1791755, 1792167, 1792570, 1792868, 1793368]","[74, 200, 46, 197, 246, 166, 234, 194, 116, 183, 148, 182, 94, 108, 43, 55, 79, 77, 158, 171]","[1785705, 1786128, 1786485, 1786913, 1787265, 1787695, 1788056, 1788513, 1788856, 1789288, 1789648, 1790102, 1790466, 1790895, 1791223, 1791682, 1792027, 1792475, 1792852, 1793285]","[1784097, 1784497, 1784897, 1785297, 1785697, 1786097, 1786498, 1786898, 1787278, 1787662, 1788069, 1788477, 1788871, 1789251, 1789664, 1790051, 1790481, 1790857, 1791238, 1791641, 1792043, 1792430, 1792868, 1793242]",93,OR,U,R,ITMSR,1.1,
