pitch,ioi,event,.thisRepN,.thisTrialN,.thisN,.thisIndex,event,tap_types,tap_times,release_times,peak_pressures,peak_times,tone_times,subject,experimenter,register,handedness,experiment,version
,,SPR,0,-1,-1,0,SPR,"['P', 'P', 'P', 'P', 'P', 'P', 'P', 'P', 'P', 'P', 'P', 'P', 'P', 'P', 'P', 'P', 'P', 'P', 'P', 'P', 'P', 'P', 'P', 'P', 'P', 'P', 'P', 'P', 'P', 'P']","[13365, 15498, 15789, 16074, 16352, 16637, 16921, 17189, 17445, 17719, 17975, 18244, 18505, 18759, 19027, 19287, 19525, 19790, 20043, 20298, 20577, 20815, 21074, 21329, 21583, 21837, 22105, 22352, 22601, 22864]","[15307, 15616, 15907, 16204, 16466, 16750, 17038, 17299, 17565, 17833, 18092, 18357, 18612, 18873, 19133, 19380, 19628, 19898, 20140, 20396, 20669, 20909, 21163, 21431, 21661, 21924, 22203, 22443, 22701, 22969]","[195, 152, 140, 147, 142, 170, 161, 172, 149, 161, 144, 171, 146, 141, 154, 146, 144, 141, 148, 164, 146, 129, 153, 157, 161, 147, 116, 127, 147, 142]","[15125, 15562, 15792, 16076, 16412, 16640, 16923, 17191, 17447, 17721, 17977, 18246, 18507, 18762, 19030, 19290, 19528, 19792, 20045, 20299, 20579, 20817, 21076, 21331, 21585, 21840, 22108, 22355, 22603, 22866]",,68,EM,L,R,ITMSR,1.1
5,500,practice,0,0,0,0,practice,"['B', 'S', 'S', 'S', 'S', 'S', 'S', 'S', 'C', 'C', 'C', 'C', 'C', 'C', 'C', 'C', 'C', 'C', 'C', 'C', 'C', 'C', 'C', 'C']","[101556, 102059, 102406, 102894, 103406, 103914, 104425, 104907, 105410, 105850, 106321, 106838, 107347, 107830, 108319, 108793, 109264, 109731, 110194, 110670, 111138, 111631, 112116, 112593]","[101944, 102147, 102534, 103011, 103505, 104025, 104525, 105008, 105508, 105934, 106415, 106926, 107428, 107925, 108403, 108876, 109352, 109813, 110264, 110753, 111211, 111710, 112194, 112672]","[207, 142, 159, 147, 154, 149, 135, 140, 131, 88, 93, 114, 117, 144, 102, 84, 133, 84, 70, 68, 81, 90, 64, 79]","[101598, 102092, 102408, 102952, 103408, 103973, 104471, 104961, 105451, 105889, 106365, 106840, 107350, 107832, 108322, 108828, 109267, 109735, 110197, 110674, 111142, 111634, 112120, 112598]","[101569, 102068, 102568, 103068, 103568, 104068, 104568, 105068, 105431, 105870, 106341, 106858, 107367, 107850, 108339, 108813, 109284, 109751, 110214, 110690, 111158, 111651, 112136, 112613]",68,EM,L,R,ITMSR,1.1
4,500,practice,0,1,1,1,practice,"['S', 'S', 'S', 'S', 'S', 'S', 'S', 'C', 'C', 'C', 'C', 'C', 'C', 'C', 'C', 'C', 'C', 'C', 'C', 'C', 'C', 'C', 'C']","[118599, 118955, 119395, 119882, 120372, 120862, 121334, 121857, 122335, 122860, 123347, 123814, 124346, 124815, 125287, 125747, 126248, 126749, 127255, 127750, 128257, 128721, 129188]","[118659, 119046, 119495, 119969, 120468, 120949, 121420, 121933, 122406, 122934, 123415, 123885, 124403, 124889, 125350, 125799, 126294, 126807, 127305, 127809, 128327, 128820, 129269]","[81, 54, 100, 104, 90, 88, 92, 74, 71, 20, 23, 12, 0, 250, 207, 38, 20, 57, 51, 56, 38, 91, 34]","[118605, 118993, 119397, 119885, 120414, 120902, 121338, 121860, 122339, 122864, 123351, 123819, 124351, 124820, 125291, 125751, 126254, 126753, 127259, 127753, 128261, 128724, 129193]","[117963, 118463, 118963, 119463, 119963, 120463, 120963, 121463, 121877, 122355, 122881, 123367, 123834, 124366, 124835, 125307, 125767, 126268, 126769, 127276, 127770, 128277, 128741, 129208]",68,EM,L,R,ITMSR,1.1
0,500,practice,0,2,2,2,practice,"['S', 'S', 'S', 'C', 'C', 'C', 'C', 'C', 'C', 'C', 'C', 'C', 'C', 'C', 'C', 'C', 'C', 'C', 'C']","[134969, 137851, 138306, 138829, 139286, 139800, 140267, 140787, 141265, 141787, 142223, 142739, 143206, 143747, 144208, 144705, 145201, 145676, 146132]","[135077, 137934, 138398, 138912, 139358, 139869, 140343, 140860, 141335, 141850, 142306, 142807, 143278, 143836, 144291, 144789, 145264, 145759, 146223]","[24, 72, 70, 76, 72, 51, 98, 69, 43, 46, 48, 56, 0, 50, 58, 59, 249, 60, 25]","[135008, 137887, 138310, 138832, 139289, 139804, 140270, 140791, 141270, 141790, 142227, 142742, 143211, 143788, 144214, 144743, 145205, 145680, 146138]","[134925, 135426, 135926, 136426, 136926, 137426, 137926, 138426, 138849, 139307, 139821, 140288, 140807, 141285, 141807, 142243, 142759, 143226, 143767, 144228, 144726, 145221, 145696, 146152]",68,EM,L,R,ITMSR,1.1
2,500,practice,0,3,3,3,practice,"['S', 'S', 'S', 'S', 'S', 'C', 'C', 'C', 'C', 'C', 'C', 'C', 'C', 'C', 'C', 'C', 'C', 'C', 'C', 'C', 'C']","[151833, 153421, 153879, 154392, 154904, 155389, 155831, 156316, 156817, 157281, 157776, 158323, 158797, 159307, 159820, 160297, 160786, 161306, 161768, 162245, 162750]","[151916, 153498, 153960, 154491, 154985, 155476, 155905, 156414, 156901, 157375, 157860, 158408, 158881, 159404, 159906, 160380, 160881, 161405, 161863, 162373, 162864]","[36, 22, 42, 15, 243, 8, 205, 18, 229, 13, 20, 24, 4, 50, 33, 229, 236, 1, 200, 95, 39]","[151871, 153425, 153883, 154396, 154909, 155393, 155838, 156322, 156822, 157323, 157810, 158329, 158802, 159313, 159825, 160305, 160793, 161341, 161772, 162324, 162809]","[151504, 152004, 152504, 153005, 153505, 154005, 154505, 155005, 155409, 155851, 156336, 156837, 157301, 157796, 158343, 158817, 159327, 159840, 160317, 160806, 161326, 161788, 162265, 162770]",68,EM,L,R,ITMSR,1.1
3,500,practice,0,4,4,4,practice,"['S', 'S', 'S', 'S', 'C', 'C', 'C', 'C', 'C', 'C', 'C', 'C', 'C', 'C', 'C', 'C', 'C', 'C', 'C', 'C']","[170388, 170871, 171377, 171834, 172364, 172831, 173306, 173801, 174318, 174793, 175311, 175809, 176274, 176770, 177271, 177761, 178272, 178747, 179233, 179756]","[170494, 170987, 171451, 171932, 172445, 172906, 173392, 173907, 174454, 174902, 175430, 175925, 176423, 176919, 177423, 177898, 178420, 178895, 179369, 179866]","[75, 67, 178, 2, 167, 205, 205, 30, 58, 55, 68, 21, 46, 74, 82, 87, 103, 74, 65, 50]","[170444, 170932, 171383, 171875, 172397, 172865, 173341, 173858, 174394, 174861, 175372, 175869, 176360, 176863, 177354, 177831, 178365, 178822, 179306, 179816]","[168478, 168978, 169478, 169978, 170478, 170978, 171479, 171978, 172384, 172851, 173326, 173821, 174338, 174813, 175331, 175830, 176294, 176790, 177291, 177781, 178292, 178767, 179253, 179776]",68,EM,L,R,ITMSR,1.1
1,500,practice,0,5,5,5,practice,"['S', 'S', 'S', 'C', 'C', 'C', 'C', 'C', 'C', 'C', 'C', 'C', 'C', 'C', 'C', 'C', 'C', 'C', 'C']","[187593, 188125, 188630, 189150, 189622, 190176, 190658, 191181, 191660, 192211, 192664, 193230, 194449, 194919, 195398, 195865, 196367, 196859, 197334]","[187718, 188241, 188720, 189225, 189694, 190262, 190738, 191269, 191738, 192292, 192743, 193320, 194518, 194988, 195486, 195946, 196454, 196988, 197450]","[124, 76, 13, 2, 4, 62, 73, 74, 58, 47, 4, 69, 146, 34, 61, 55, 89, 84, 72]","[187662, 188179, 188674, 189154, 189628, 190219, 190662, 191226, 191664, 192216, 192669, 193281, 194452, 194923, 195402, 195870, 196371, 196921, 197385]","[185235, 185735, 186235, 186735, 187235, 187736, 188236, 188736, 189170, 189642, 190196, 190679, 191201, 191680, 192231, 192685, 193250, 194469, 194939, 195418, 195885, 196387, 196879, 197354]",68,EM,L,R,ITMSR,1.1
3,400,trial,0,6,6,6,trial,"['S', 'S', 'S', 'S', 'S', 'S', 'S', 'S', 'S', 'C', 'C', 'C', 'C', 'C', 'C', 'C', 'C', 'C', 'C', 'C', 'C', 'C', 'C', 'C', 'C', 'C']","[287017, 287264, 287656, 288037, 288306, 288687, 289058, 289439, 289825, 290790, 291052, 291421, 291710, 292035, 292397, 292734, 293073, 293450, 293796, 294195, 294573, 294982, 295351, 295760, 296184, 296537]","[287106, 287369, 287758, 288116, 288378, 288760, 289128, 289505, 289906, 290873, 291106, 291500, 291778, 292106, 292462, 292793, 293152, 293524, 293877, 294274, 294651, 295062, 295434, 295859, 296279, 296605]","[95, 122, 44, 69, 95, 69, 55, 232, 200, 34, 190, 234, 244, 117, 3, 190, 235, 200, 240, 205, 193, 226, 215, 31, 38, 26]","[287068, 287320, 287661, 288039, 288339, 288691, 289062, 289472, 289876, 290794, 291057, 291426, 291715, 292040, 292401, 292740, 293078, 293454, 293800, 294232, 294578, 295021, 295356, 295821, 296232, 296542]","[286802, 287202, 287602, 288002, 288402, 288802, 289202, 289602, 290810, 291441, 291730, 292056, 292417, 292754, 293093, 293470, 293816, 294215, 294593, 295002, 295371, 295780, 296204, 296557]",68,EM,L,R,ITMSR,1.1
3,400,trial,0,7,7,7,trial,"['S', 'S', 'S', 'S', 'C', 'C', 'C', 'C', 'C', 'C', 'C', 'C', 'C', 'C', 'C', 'C', 'C', 'C', 'C', 'C']","[303626, 304031, 304398, 304796, 305204, 305645, 306019, 306385, 306798, 307201, 307595, 307973, 308332, 308738, 309139, 309519, 309940, 310305, 310677, 311092]","[303709, 304109, 304488, 304878, 305276, 305708, 306087, 306439, 306876, 307276, 307648, 308033, 308391, 308803, 309199, 309584, 310005, 310377, 310773, 311169]","[101, 183, 75, 62, 79, 155, 26, 2, 19, 54, 12, 39, 45, 65, 51, 16, 33, 246, 48, 44]","[303630, 304058, 304446, 304800, 305241, 305649, 306022, 306390, 306802, 307238, 307599, 307977, 308336, 308742, 309143, 309524, 309944, 310309, 310726, 311096]","[302108, 302509, 302909, 303309, 303709, 304109, 304509, 304909, 305224, 305666, 306039, 306405, 306818, 307221, 307615, 307993, 308353, 308758, 309159, 309539, 309960, 310325, 310697, 311112]",68,EM,L,R,ITMSR,1.1
2,600,trial,0,8,8,8,trial,"['S', 'S', 'S', 'S', 'C', 'C', 'C', 'C', 'C', 'C', 'C', 'C', 'C', 'C', 'C', 'C', 'C', 'C', 'C', 'C']","[318764, 319340, 319932, 320536, 321156, 321704, 322248, 322848, 323447, 324029, 324593, 325166, 325767, 326311, 326886, 327431, 327975, 328522, 329106, 329658]","[318927, 319497, 320092, 320694, 321307, 321895, 322444, 323083, 323623, 324215, 324757, 325326, 325922, 326482, 327062, 327632, 328146, 328736, 329255, 329819]","[165, 162, 165, 167, 163, 171, 172, 169, 158, 167, 165, 158, 163, 159, 160, 158, 159, 136, 132, 133]","[318849, 319415, 320024, 320623, 321231, 321809, 322331, 322958, 323526, 324115, 324669, 325245, 325835, 326410, 326977, 327523, 328061, 328602, 329187, 329735]","[316468, 317068, 317668, 318268, 318868, 319468, 320068, 320668, 321176, 321724, 322268, 322868, 323467, 324049, 324613, 325186, 325787, 326331, 326906, 327451, 327995, 328542, 329126, 329678]",68,EM,L,R,ITMSR,1.1
4,600,trial,0,9,9,9,trial,"['S', 'S', 'S', 'C', 'C', 'C', 'C', 'C', 'C', 'C', 'C', 'C', 'C', 'C', 'C', 'C', 'C', 'C', 'C']","[338192, 338762, 339367, 339963, 340620, 341213, 341791, 342345, 342912, 343507, 344105, 344642, 345213, 345776, 346322, 346913, 347466, 348029, 348588]","[338281, 338865, 339464, 340046, 340687, 341277, 341875, 342413, 342970, 343572, 344168, 344710, 345287, 345836, 346382, 346980, 347546, 348103, 348644]","[105, 117, 124, 121, 68, 38, 98, 69, 38, 54, 77, 51, 37, 29, 47, 248, 60, 27, 26]","[338232, 338800, 339418, 340004, 340655, 341217, 341832, 342348, 342916, 343536, 344133, 344646, 345257, 345781, 346328, 346943, 347515, 348065, 348592]","[335214, 335814, 336414, 337014, 337614, 338214, 338814, 339415, 339983, 340640, 341233, 341811, 342365, 342932, 343527, 344125, 344663, 345233, 345796, 346342, 346933, 347486, 348049, 348608]",68,EM,L,R,ITMSR,1.1
2,400,trial,0,10,10,10,trial,"['S', 'S', 'C', 'C', 'C', 'C', 'C', 'C', 'C', 'C', 'C', 'C', 'C', 'C', 'C', 'C', 'C', 'C']","[356474, 356867, 357267, 357630, 357992, 358352, 358805, 359198, 359630, 360028, 360431, 360860, 361212, 361607, 362020, 362414, 362842, 363226]","[356561, 356956, 357335, 357695, 358065, 358438, 358893, 359273, 359702, 360092, 360493, 360919, 361277, 361669, 362102, 362500, 362915, 363302]","[65, 95, 78, 49, 56, 46, 82, 37, 61, 38, 24, 240, 23, 60, 19, 239, 218, 13]","[356477, 356921, 357271, 357635, 357996, 358356, 358809, 359231, 359633, 360032, 360436, 360865, 361217, 361611, 362024, 362419, 362845, 363230]","[354167, 354566, 354966, 355366, 355766, 356166, 356567, 356966, 357287, 357650, 358012, 358372, 358825, 359218, 359650, 360048, 360451, 360880, 361232, 361627, 362040, 362434, 362862, 363246]",68,EM,L,R,ITMSR,1.1
5,400,trial,0,11,11,11,trial,"['S', 'S', 'S', 'S', 'C', 'C', 'C', 'C', 'C', 'C', 'C', 'C', 'C', 'C', 'C', 'C', 'C', 'C', 'C', 'C']","[370095, 370481, 370868, 371229, 371631, 372028, 372432, 372833, 373233, 373629, 374033, 374388, 374788, 375183, 375584, 375954, 376360, 376733, 377147, 377516]","[370189, 370572, 370944, 371297, 371698, 372103, 372515, 372905, 373332, 373720, 374114, 374480, 374882, 375285, 375704, 376072, 376473, 376829, 377244, 377612]","[206, 32, 35, 28, 46, 246, 14, 39, 62, 65, 70, 89, 59, 61, 133, 110, 116, 82, 76, 36]","[370141, 370484, 370872, 371233, 371635, 372070, 372436, 372838, 373237, 373668, 374037, 374427, 374824, 375235, 375646, 376008, 376422, 376782, 377195, 377554]","[368565, 368965, 369366, 369765, 370165, 370565, 370965, 371365, 371651, 372048, 372452, 372853, 373253, 373649, 374053, 374408, 374808, 375203, 375604, 375974, 376380, 376753, 377167, 377536]",68,EM,L,R,ITMSR,1.1
1,600,trial,0,12,12,12,trial,"['S', 'S', 'S', 'S', 'C', 'C', 'C', 'C', 'C', 'C', 'C', 'C', 'C', 'C', 'C', 'C', 'C', 'C', 'C', 'C']","[385325, 385913, 386502, 387136, 387746, 388345, 388916, 389492, 390069, 390639, 391244, 391809, 392430, 392982, 393579, 394139, 394729, 395298, 395892, 396447]","[385415, 386009, 386612, 387232, 387832, 388433, 389018, 389592, 390187, 390756, 391365, 391949, 392548, 393110, 393686, 394233, 394855, 395437, 396023, 396589]","[79, 112, 115, 94, 101, 122, 110, 101, 119, 129, 142, 154, 144, 143, 128, 124, 132, 141, 145, 151]","[385372, 385917, 386553, 387171, 387791, 388391, 388963, 389544, 390125, 390699, 391313, 391892, 392492, 393051, 393637, 394184, 394785, 395369, 395955, 396511]","[382977, 383576, 384176, 384776, 385376, 385976, 386576, 387176, 387766, 388365, 388936, 389512, 390089, 390659, 391264, 391829, 392450, 393003, 393600, 394159, 394749, 395318, 395912, 396467]",68,EM,L,R,ITMSR,1.1
3,600,trial,0,13,13,13,trial,"['S', 'S', 'S', 'S', 'S', 'C', 'C', 'C', 'C', 'C', 'C', 'C', 'C', 'C', 'C', 'C', 'C', 'C', 'C', 'C', 'C']","[403871, 404474, 405040, 405669, 406302, 406884, 407500, 408068, 408632, 409205, 409794, 410365, 410934, 411469, 412013, 412591, 413123, 413668, 414211, 414780, 415335]","[404000, 404587, 405163, 405774, 406403, 407000, 407597, 408170, 408758, 409320, 409907, 410479, 411025, 411560, 412120, 412685, 413211, 413759, 414302, 414869, 415422]","[103, 73, 66, 82, 63, 57, 13, 247, 62, 59, 73, 21, 25, 215, 22, 10, 9, 222, 240, 229, 234]","[403940, 404529, 405105, 405726, 406350, 406948, 407553, 408117, 408694, 409269, 409846, 410409, 410976, 411498, 412072, 412633, 413168, 413673, 414259, 414834, 415368]","[402179, 402779, 403379, 403979, 404579, 405179, 405779, 406379, 406904, 407520, 408088, 408652, 409225, 409815, 410385, 410954, 411489, 412034, 412611, 413144, 413688, 414231, 414800, 415355]",68,EM,L,R,ITMSR,1.1
2,400,trial,0,14,14,14,trial,"['S', 'S', 'S', 'S', 'C', 'C', 'C', 'C', 'C', 'C', 'C', 'C', 'C', 'C', 'C', 'C', 'C', 'C', 'C', 'C']","[422304, 422727, 423100, 423457, 423861, 424242, 424635, 425019, 425404, 425812, 426167, 426543, 426936, 427310, 427687, 428056, 428456, 428828, 429208, 429570]","[422408, 422808, 423178, 423528, 423950, 424310, 424693, 425083, 425477, 425869, 426223, 426592, 427001, 427371, 427762, 428133, 428510, 428870, 429274, 429635]","[246, 27, 171, 148, 85, 76, 114, 108, 212, 88, 114, 222, 108, 69, 81, 178, 132, 161, 205, 179]","[422361, 422731, 423105, 423461, 423866, 424248, 424639, 425023, 425409, 425817, 426172, 426548, 426940, 427315, 427693, 428061, 428462, 428832, 429213, 429575]","[420795, 421195, 421595, 421995, 422395, 422795, 423195, 423596, 423881, 424262, 424655, 425039, 425424, 425832, 426187, 426563, 426956, 427330, 427707, 428077, 428476, 428848, 429229, 429590]",68,EM,L,R,ITMSR,1.1
3,600,trial,0,15,15,15,trial,"['S', 'S', 'S', 'S', 'C', 'C', 'C', 'C', 'C', 'C', 'C', 'C', 'C', 'C', 'C', 'C', 'C', 'C', 'C', 'C']","[437223, 437786, 438414, 439024, 439643, 440217, 440755, 441348, 441913, 442511, 443057, 443608, 444246, 444818, 445403, 445947, 446523, 447069, 447665, 448231]","[437348, 437917, 438534, 439143, 439723, 440313, 440868, 441443, 442002, 442595, 443138, 443710, 444366, 444936, 445507, 446046, 446621, 447175, 447754, 448317]","[210, 27, 10, 225, 239, 7, 26, 17, 236, 216, 119, 213, 12, 244, 108, 152, 101, 113, 177, 70]","[437284, 437853, 438418, 439028, 439648, 440221, 440811, 441353, 441918, 442544, 443089, 443646, 444305, 444878, 445453, 446005, 446529, 447125, 447716, 448273]","[434896, 435496, 436097, 436696, 437296, 437896, 438496, 439096, 439663, 440237, 440775, 441368, 441933, 442531, 443077, 443628, 444266, 444838, 445423, 445967, 446543, 447089, 447685, 448251]",68,EM,L,R,ITMSR,1.1
0,400,trial,0,16,16,16,trial,"['S', 'S', 'S', 'S', 'C', 'C', 'C', 'C', 'C', 'C', 'C', 'C', 'C', 'C', 'C', 'C', 'C', 'C', 'C', 'C']","[455298, 455707, 456072, 456474, 456903, 457297, 457684, 458042, 458498, 458900, 459276, 459653, 460071, 460444, 460865, 461228, 461609, 462013, 462393, 462782]","[455380, 455803, 456179, 456556, 456982, 457362, 457782, 458147, 458559, 458972, 459352, 459718, 460138, 460520, 460934, 461262, 461701, 462089, 462462, 462840]","[246, 247, 243, 33, 17, 68, 133, 165, 26, 111, 59, 77, 242, 96, 226, 169, 184, 200, 23, 105]","[455302, 455711, 456130, 456478, 456907, 457330, 457731, 458046, 458503, 458904, 459281, 459658, 460077, 460449, 460870, 461234, 461645, 462018, 462398, 462787]","[453776, 454176, 454576, 454976, 455376, 455776, 456176, 456577, 456923, 457317, 457704, 458062, 458518, 458920, 459296, 459673, 460091, 460464, 460886, 461248, 461629, 462033, 462413, 462802]",68,EM,L,R,ITMSR,1.1
4,400,trial,0,17,17,17,trial,"['S', 'S', 'S', 'S', 'S', 'C', 'C', 'C', 'C', 'C', 'C', 'C', 'C', 'C', 'C', 'C', 'C', 'C', 'C', 'C', 'C']","[469655, 470013, 470381, 470772, 471154, 471577, 471959, 472316, 472694, 473073, 473507, 473830, 474205, 474592, 474978, 475366, 475720, 476137, 476517, 476828, 477176]","[469733, 470114, 470513, 470878, 471257, 471676, 472038, 472396, 472751, 473141, 473564, 473901, 474265, 474663, 474998, 475441, 475794, 476203, 476556, 476913, 477243]","[99, 180, 232, 214, 121, 76, 252, 75, 7, 82, 80, 77, 66, 93, 223, 54, 122, 116, 90, 233, 176]","[469660, 470018, 470387, 470776, 471159, 471581, 471964, 472322, 472699, 473078, 473512, 473835, 474211, 474597, 474984, 475372, 475726, 476142, 476522, 476868, 477181]","[468133, 468533, 468933, 469334, 469733, 470133, 470533, 470933, 471597, 471980, 472336, 472714, 473093, 473527, 473850, 474225, 474612, 474998, 475386, 475740, 476157, 476537, 476848, 477196]",68,EM,L,R,ITMSR,1.1
0,400,trial,0,18,18,18,trial,"['S', 'S', 'S', 'S', 'C', 'C', 'C', 'C', 'C', 'C', 'C', 'C', 'C', 'C', 'C', 'C', 'C', 'C', 'C', 'C']","[484179, 484578, 484952, 485340, 485723, 486136, 486526, 486928, 487307, 487713, 488083, 488479, 488861, 489251, 489637, 490027, 490418, 490799, 491141, 491538]","[484262, 484658, 485030, 485433, 485831, 486203, 486618, 487003, 487371, 487758, 488169, 488554, 488942, 489336, 489723, 490109, 490490, 490866, 491215, 491608]","[254, 198, 167, 173, 133, 225, 45, 154, 75, 181, 112, 129, 158, 135, 112, 50, 122, 82, 19, 104]","[484185, 484583, 484957, 485345, 485729, 486142, 486532, 486933, 487313, 487718, 488136, 488483, 488867, 489287, 489643, 490061, 490423, 490805, 491147, 491543]","[482646, 483045, 483445, 483845, 484245, 484645, 485045, 485445, 485743, 486156, 486546, 486948, 487327, 487733, 488103, 488499, 488881, 489271, 489657, 490047, 490438, 490819, 491161, 491558]",68,EM,L,R,ITMSR,1.1
4,600,trial,0,19,19,19,trial,"['S', 'S', 'S', 'S', 'C', 'C', 'C', 'C', 'C', 'C', 'C', 'C', 'C', 'C', 'C', 'C', 'C', 'C', 'C', 'C']","[499381, 499985, 500597, 501203, 501813, 502386, 502955, 503580, 504155, 504739, 505329, 505894, 506451, 506997, 507554, 508106, 508666, 509223, 509812, 510372]","[499503, 500110, 500716, 501303, 501905, 502489, 503063, 503698, 504288, 504852, 505419, 505996, 506557, 507094, 507648, 508182, 508748, 509321, 509925, 510474]","[18, 72, 16, 21, 131, 117, 244, 95, 147, 144, 121, 199, 185, 17, 143, 40, 255, 97, 171, 169]","[499385, 500049, 500656, 501208, 501817, 502390, 502959, 503584, 504226, 504797, 505334, 505940, 506507, 507002, 507601, 508111, 508701, 509282, 509869, 510418]","[497055, 497655, 498255, 498855, 499456, 500056, 500656, 501256, 501833, 502406, 502975, 503600, 504175, 504759, 505349, 505914, 506471, 507017, 507574, 508126, 508686, 509243, 509832, 510392]",68,EM,L,R,ITMSR,1.1
0,600,trial,0,20,20,20,trial,"['S', 'S', 'S', 'S', 'S', 'C', 'C', 'C', 'C', 'C', 'C', 'C', 'C', 'C', 'C', 'C', 'C', 'C', 'C', 'C', 'C']","[517466, 518073, 518657, 519262, 519885, 520440, 521038, 521604, 522192, 522779, 523321, 523957, 524494, 525040, 525599, 526143, 526685, 527270, 527855, 528378, 528941]","[517571, 518177, 518755, 519343, 519961, 520518, 521112, 521662, 522276, 522869, 523430, 524061, 524589, 525157, 525722, 526259, 526812, 527367, 527934, 528505, 529056]","[9, 8, 178, 147, 186, 76, 52, 72, 9, 146, 203, 247, 137, 82, 205, 190, 142, 129, 168, 174, 136]","[517471, 518077, 518712, 519266, 519890, 520444, 521043, 521609, 522198, 522828, 523377, 524010, 524498, 525114, 525674, 526148, 526765, 527331, 527860, 528382, 528945]","[515753, 516353, 516952, 517552, 518152, 518752, 519352, 519952, 520460, 521058, 521624, 522212, 522799, 523341, 523977, 524514, 525060, 525619, 526163, 526705, 527290, 527875, 528398, 528961]",68,EM,L,R,ITMSR,1.1
2,600,trial,0,21,21,21,trial,"['S', 'S', 'S', 'S', 'S', 'S', 'C', 'C', 'C', 'C', 'C', 'C', 'C', 'C', 'C', 'C', 'C', 'C', 'C', 'C', 'C', 'C']","[535538, 536130, 536735, 537319, 537925, 538489, 539117, 539670, 540276, 540822, 541393, 541968, 542557, 543125, 543697, 544239, 544816, 545347, 545850, 546403, 546987, 547521]","[535656, 536258, 536881, 537421, 538068, 538663, 539284, 539834, 540462, 541037, 541545, 542146, 542759, 543270, 543830, 544403, 544977, 545523, 546013, 546607, 547133, 547673]","[34, 85, 8, 212, 221, 238, 7, 214, 230, 178, 221, 235, 203, 177, 214, 191, 209, 195, 160, 96, 149, 173]","[535542, 536133, 536738, 537323, 537928, 538492, 539220, 539779, 540278, 540825, 541396, 541971, 542664, 543129, 543704, 544243, 544820, 545350, 545930, 546406, 546990, 547524]","[534409, 535009, 535609, 536209, 536809, 537409, 538009, 538609, 539138, 539691, 540296, 540843, 541413, 541988, 542577, 543145, 543717, 544259, 544836, 545368, 545870, 546423, 547007, 547542]",68,EM,L,R,ITMSR,1.1
1,600,trial,0,22,22,22,trial,"['S', 'S', 'S', 'S', 'C', 'C', 'C', 'C', 'C', 'C', 'C', 'C', 'C', 'C', 'C', 'C', 'C', 'C', 'C', 'C']","[555325, 555936, 556588, 557154, 557789, 558407, 559014, 559612, 560231, 560825, 561463, 562055, 562611, 563184, 563775, 564342, 564901, 565498, 566100, 566676]","[555467, 556039, 556699, 557260, 557891, 558484, 559106, 559691, 560310, 560916, 561533, 562136, 562703, 563271, 563854, 564425, 564979, 565552, 566172, 566754]","[196, 215, 11, 243, 227, 243, 28, 14, 7, 231, 194, 235, 14, 5, 240, 253, 14, 33, 70, 74]","[555414, 555941, 556593, 557159, 557795, 558412, 559021, 559618, 560235, 560830, 561469, 562060, 562616, 563189, 563780, 564348, 564907, 565504, 566105, 566681]","[553031, 553631, 554231, 554831, 555431, 556032, 556632, 557232, 557809, 558427, 559034, 559632, 560251, 560845, 561483, 562075, 562631, 563204, 563795, 564362, 564921, 565518, 566120, 566696]",68,EM,L,R,ITMSR,1.1
4,400,trial,0,23,23,23,trial,"['S', 'S', 'S', 'S', 'C', 'C', 'C', 'C', 'C', 'C', 'C', 'C', 'C', 'C', 'C', 'C', 'C', 'C', 'C', 'C']","[573742, 574132, 574505, 574917, 575332, 575731, 576118, 576524, 576925, 577296, 577722, 578105, 578506, 578914, 579312, 579700, 580102, 580512, 580884, 581265]","[573833, 574227, 574631, 575020, 575415, 575806, 576194, 576612, 576990, 577338, 577789, 578170, 578564, 578958, 579371, 579743, 580189, 580566, 580969, 581350]","[117, 46, 112, 43, 248, 218, 185, 218, 210, 191, 243, 238, 3, 218, 195, 165, 22, 251, 33, 29]","[573746, 574136, 574510, 574921, 575337, 575736, 576123, 576529, 576930, 577301, 577727, 578110, 578510, 578919, 579318, 579705, 580107, 580517, 580889, 581269]","[572227, 572627, 573027, 573427, 573827, 574227, 574627, 575027, 575352, 575751, 576138, 576544, 576945, 577316, 577742, 578125, 578526, 578934, 579332, 579720, 580122, 580532, 580904, 581285]",68,EM,L,R,ITMSR,1.1
5,600,trial,0,24,24,24,trial,"['S', 'S', 'S', 'S', 'S', 'C', 'C', 'C', 'C', 'C', 'C', 'C', 'C', 'C', 'C', 'C', 'C', 'C', 'C', 'C', 'C']","[588634, 589245, 589819, 590440, 591038, 591645, 592204, 592781, 593337, 593990, 594562, 595126, 595702, 596278, 596845, 597411, 597983, 598550, 599097, 599661, 600190]","[588726, 589308, 589887, 590500, 591107, 591714, 592263, 592845, 593394, 594059, 594612, 595198, 595759, 596357, 596911, 597491, 598045, 598620, 599153, 599731, 600243]","[13, 67, 73, 8, 1, 193, 223, 236, 231, 232, 253, 210, 49, 41, 254, 231, 184, 223, 187, 181, 186]","[588639, 589249, 589824, 590444, 591043, 591651, 592209, 592786, 593341, 593995, 594567, 595132, 595706, 596282, 596850, 597416, 597987, 598555, 599102, 599667, 600196]","[586932, 587532, 588132, 588732, 589332, 589932, 590532, 591132, 591665, 592224, 592801, 593357, 594010, 594582, 595146, 595722, 596298, 596866, 597431, 598003, 598571, 599117, 599682, 600210]",68,EM,L,R,ITMSR,1.1
1,400,trial,0,25,25,25,trial,"['S', 'S', 'S', 'S', 'C', 'C', 'C', 'C', 'C', 'C', 'C', 'C', 'C', 'C', 'C', 'C', 'C', 'C', 'C', 'C']","[607379, 607762, 608133, 608522, 608917, 609370, 609755, 610202, 610605, 611003, 611408, 611809, 612221, 612620, 613008, 613407, 613792, 614189, 614573, 614957]","[607436, 607834, 608208, 608594, 608994, 609429, 609825, 610251, 610666, 611051, 611475, 611870, 612296, 612677, 613092, 613459, 613859, 614245, 614645, 615020]","[89, 7, 9, 13, 219, 167, 204, 157, 236, 182, 165, 161, 240, 204, 177, 193, 176, 222, 169, 233]","[607382, 607767, 608138, 608526, 608921, 609376, 609761, 610208, 610611, 611008, 611412, 611814, 612226, 612625, 613013, 613412, 613796, 614194, 614578, 614963]","[605856, 606256, 606656, 607056, 607456, 607856, 608257, 608656, 608937, 609390, 609775, 610222, 610625, 611023, 611428, 611829, 612241, 612640, 613028, 613427, 613812, 614209, 614593, 614977]",68,EM,L,R,ITMSR,1.1
5,600,trial,0,26,26,26,trial,"['S', 'S', 'S', 'S', 'S', 'S', 'C', 'C', 'C', 'C', 'C', 'C', 'C', 'C', 'C', 'C', 'C', 'C', 'C', 'C', 'C', 'C']","[621722, 622337, 622921, 623506, 624063, 624667, 625280, 625859, 626410, 626939, 627528, 628066, 628642, 629183, 629771, 630322, 630848, 631414, 631994, 632523, 633099, 633687]","[621817, 622404, 623005, 623580, 624164, 624740, 625379, 625946, 626509, 627064, 627636, 628161, 628742, 629281, 629854, 630394, 630934, 631487, 632070, 632594, 633181, 633761]","[87, 0, 223, 173, 217, 202, 184, 159, 189, 215, 232, 165, 222, 9, 196, 201, 148, 154, 197, 193, 177, 41]","[621726, 622341, 622926, 623511, 624068, 624672, 625286, 625866, 626416, 626945, 627533, 628071, 628648, 629187, 629776, 630327, 630854, 631420, 632000, 632528, 633105, 633692]","[620617, 621217, 621817, 622417, 623017, 623618, 624218, 624818, 625300, 625880, 626430, 626959, 627548, 628086, 628662, 629203, 629791, 630342, 630868, 631434, 632014, 632543, 633119, 633707]",68,EM,L,R,ITMSR,1.1
5,400,trial,0,27,27,27,trial,"['S', 'S', 'S', 'S', 'S', 'C', 'C', 'C', 'C', 'C', 'C', 'C', 'C', 'C', 'C', 'C', 'C', 'C', 'C', 'C', 'C']","[640716, 641092, 641489, 641883, 642273, 642681, 643045, 643400, 643809, 644208, 644587, 644995, 645389, 645791, 646176, 646535, 646917, 647321, 647693, 648122, 648499]","[640814, 641216, 641605, 641979, 642365, 642784, 643143, 643480, 643892, 644294, 644678, 645079, 645466, 645861, 646252, 646609, 646987, 647386, 647772, 648202, 648574]","[245, 38, 45, 13, 17, 8, 212, 207, 100, 188, 234, 221, 161, 159, 205, 216, 245, 197, 232, 134, 211]","[640721, 641161, 641489, 641889, 642277, 642685, 643050, 643406, 643814, 644213, 644593, 645000, 645393, 645796, 646181, 646540, 646921, 647326, 647698, 648127, 648504]","[639234, 639634, 640034, 640434, 640834, 641234, 641634, 642034, 642701, 643065, 643420, 643829, 644228, 644608, 645015, 645409, 645811, 646196, 646555, 646937, 647341, 647713, 648142, 648519]",68,EM,L,R,ITMSR,1.1
1,400,trial,0,28,28,28,trial,"['S', 'S', 'S', 'S', 'S', 'C', 'C', 'C', 'C', 'C', 'C', 'C', 'C', 'C', 'C', 'C', 'C', 'C', 'C', 'C', 'C']","[655752, 656128, 656509, 656879, 657272, 657678, 658058, 658434, 658828, 659203, 659561, 659935, 660234, 660657, 661055, 661450, 661873, 662253, 662628, 663012, 663431]","[655849, 656248, 656613, 656991, 657387, 657782, 658160, 658549, 658926, 659300, 659660, 660006, 660334, 660737, 661150, 661534, 661963, 662332, 662703, 663080, 663501]","[230, 40, 34, 251, 212, 158, 173, 251, 228, 235, 201, 214, 9, 241, 250, 228, 181, 229, 130, 212, 175]","[655757, 656132, 656514, 656885, 657278, 657684, 658064, 658440, 658834, 659208, 659566, 659940, 660239, 660662, 661060, 661496, 661928, 662258, 662634, 663016, 663437]","[654245, 654645, 655045, 655446, 655845, 656245, 656645, 657045, 657698, 658078, 658454, 658848, 659223, 659581, 659955, 660254, 660677, 661075, 661470, 661893, 662274, 662648, 663032, 663451]",68,EM,L,R,ITMSR,1.1
0,600,trial,0,29,29,29,trial,"['S', 'S', 'S', 'S', 'S', 'C', 'C', 'C', 'C', 'C', 'C', 'C', 'C', 'C', 'C', 'C', 'C', 'C', 'C', 'C', 'C']","[670935, 671520, 672119, 672714, 673323, 673924, 674525, 675107, 675679, 676258, 676829, 677384, 677953, 678543, 679059, 679640, 680205, 680826, 681370, 681962, 682488]","[671035, 671652, 672242, 672861, 673485, 674064, 674654, 675233, 675798, 676377, 676945, 677493, 678084, 678669, 679170, 679780, 680336, 680949, 681489, 682067, 682614]","[84, 127, 144, 157, 167, 155, 153, 147, 143, 153, 118, 114, 146, 145, 135, 155, 149, 149, 123, 138, 141]","[670982, 671580, 672174, 672769, 673394, 673982, 674596, 675160, 675737, 676312, 676877, 677442, 678017, 678600, 679110, 679713, 680269, 680890, 681432, 682010, 682544]","[669202, 669802, 670402, 671002, 671602, 672202, 672802, 673402, 673944, 674545, 675127, 675699, 676278, 676849, 677404, 677974, 678563, 679079, 679660, 680225, 680846, 681390, 681982, 682508]",68,EM,L,R,ITMSR,1.1
0,600,trial,0,30,30,30,trial,"['S', 'S', 'S', 'S', 'S', 'S', 'C', 'C', 'C', 'C', 'C', 'C', 'C', 'C', 'C', 'C', 'C', 'C', 'C', 'C', 'C', 'C']","[692317, 692894, 693488, 694079, 694657, 695228, 695844, 696419, 697011, 697552, 698141, 698717, 699333, 699882, 700478, 700991, 701560, 702115, 702708, 703247, 703847, 704359]","[692408, 692996, 693581, 694153, 694780, 695365, 695943, 696536, 697128, 697669, 698292, 698855, 699470, 700015, 700594, 701083, 701675, 702283, 702836, 703391, 703984, 704500]","[106, 121, 90, 65, 141, 123, 87, 83, 130, 148, 147, 151, 159, 128, 86, 12, 69, 119, 99, 77, 101, 111]","[692363, 692951, 693531, 694082, 694721, 695307, 695894, 696482, 697068, 697611, 698225, 698782, 699401, 699944, 700535, 701044, 701624, 702205, 702783, 703336, 703922, 704432]","[691202, 691800, 692400, 693000, 693600, 694200, 694800, 695400, 695864, 696439, 697031, 697572, 698161, 698737, 699353, 699902, 700498, 701011, 701580, 702135, 702728, 703267, 703867, 704379]",68,EM,L,R,ITMSR,1.1
1,400,trial,0,31,31,31,trial,"['S', 'S', 'S', 'S', 'C', 'C', 'C', 'C', 'C', 'C', 'C', 'C', 'C', 'C', 'C', 'C', 'C', 'C', 'C', 'C']","[711685, 712051, 712416, 712805, 713224, 713621, 714005, 714391, 714783, 715166, 715564, 715986, 716362, 716760, 717174, 717549, 717931, 718280, 718705, 719093]","[711762, 712137, 712504, 712902, 713321, 713696, 714128, 714488, 714901, 715337, 715702, 716113, 716522, 716914, 717300, 717687, 718049, 718407, 718811, 719203]","[46, 228, 86, 85, 100, 42, 93, 71, 74, 79, 34, 101, 86, 88, 76, 73, 44, 35, 30, 34]","[711689, 712055, 712420, 712809, 713228, 713625, 714009, 714394, 714787, 715275, 715640, 715990, 716448, 716764, 717178, 717553, 717936, 718285, 718710, 719098]","[710150, 710550, 710950, 711350, 711750, 712151, 712550, 712950, 713244, 713641, 714025, 714412, 714803, 715186, 715584, 716006, 716382, 716780, 717194, 717570, 717952, 718300, 718725, 719113]",68,EM,L,R,ITMSR,1.1
5,600,trial,0,32,32,32,trial,"['S', 'S', 'S', 'S', 'S', 'S', 'C', 'C', 'C', 'C', 'C', 'C', 'C', 'C', 'C', 'C', 'C', 'C', 'C', 'C', 'C', 'C']","[725952, 726605, 727196, 727784, 728354, 728983, 729601, 730170, 730750, 731329, 731892, 732455, 733038, 733618, 734192, 734764, 735358, 735981, 736557, 737112, 737666, 738242]","[726097, 726676, 727278, 727853, 728436, 729072, 729682, 730230, 730813, 731385, 731959, 732523, 733102, 733688, 734268, 734855, 735434, 736039, 736629, 737185, 737752, 738312]","[148, 173, 242, 10, 206, 187, 204, 77, 134, 0, 91, 63, 24, 63, 233, 48, 100, 231, 179, 160, 33, 78]","[726044, 726641, 727201, 727787, 728359, 729019, 729606, 730175, 730756, 731334, 731897, 732461, 733044, 733624, 734230, 734770, 735363, 735989, 736562, 737117, 737671, 738248]","[724836, 725436, 726036, 726636, 727236, 727836, 728436, 729036, 729621, 730190, 730770, 731350, 731912, 732475, 733058, 733638, 734212, 734784, 735378, 736002, 736577, 737132, 737686, 738263]",68,EM,L,R,ITMSR,1.1
4,400,trial,0,33,33,33,trial,"['S', 'S', 'S', 'S', 'C', 'C', 'C', 'C', 'C', 'C', 'C', 'C', 'C', 'C', 'C', 'C', 'C', 'C', 'C', 'C']","[745298, 745701, 746078, 746441, 746830, 747280, 747646, 748064, 748477, 748884, 749268, 749683, 750075, 750507, 750926, 751325, 751738, 752135, 752492, 752923]","[745388, 745794, 746177, 746549, 746943, 747354, 747730, 748152, 748556, 748962, 749365, 749744, 750157, 750585, 750999, 751375, 751785, 752197, 752565, 752988]","[124, 237, 15, 244, 21, 49, 154, 127, 144, 202, 215, 62, 88, 112, 81, 45, 77, 53, 83, 44]","[745302, 745706, 746082, 746445, 746833, 747286, 747652, 748069, 748483, 748889, 749275, 749689, 750081, 750512, 750932, 751332, 751746, 752142, 752498, 752928]","[743774, 744174, 744574, 744974, 745374, 745774, 746174, 746574, 746850, 747300, 747666, 748084, 748497, 748904, 749288, 749703, 750095, 750527, 750946, 751345, 751758, 752155, 752513, 752943]",68,EM,L,R,ITMSR,1.1
3,400,trial,0,34,34,34,trial,"['S', 'S', 'S', 'S', 'C', 'C', 'C', 'C', 'C', 'C', 'C', 'C', 'C', 'C', 'C', 'C', 'C', 'C', 'C', 'C']","[760212, 760604, 760977, 761390, 761780, 762220, 762606, 763008, 763444, 763846, 764214, 764627, 764996, 765376, 765793, 766189, 766612, 766974, 767386, 767779]","[760279, 760666, 761075, 761468, 761875, 762290, 762685, 763085, 763521, 763927, 764305, 764720, 765092, 765473, 765899, 766268, 766701, 767076, 767471, 767878]","[172, 92, 120, 7, 39, 199, 193, 159, 118, 74, 100, 151, 151, 204, 199, 162, 146, 111, 107, 173]","[760217, 760608, 760981, 761395, 761784, 762225, 762610, 763013, 763449, 763851, 764219, 764633, 765001, 765381, 765797, 766194, 766618, 766981, 767392, 767784]","[758666, 759066, 759467, 759866, 760266, 760666, 761066, 761466, 761800, 762241, 762626, 763028, 763464, 763866, 764234, 764647, 765016, 765396, 765813, 766210, 766632, 766994, 767406, 767799]",68,EM,L,R,ITMSR,1.1
2,400,trial,0,35,35,35,trial,"['S', 'S', 'S', 'S', 'C', 'C', 'C', 'C', 'C', 'C', 'C', 'C', 'C', 'C', 'C', 'C', 'C', 'C', 'C', 'C']","[774976, 775364, 775750, 776126, 776556, 776995, 777406, 777795, 778201, 778601, 778990, 779357, 779773, 780166, 780623, 780993, 781379, 781786, 782213, 782617]","[775059, 775445, 775830, 776232, 776630, 777041, 777426, 777863, 778279, 778680, 779080, 779460, 779880, 780273, 780705, 781095, 781499, 781857, 782292, 782703]","[93, 54, 86, 60, 226, 192, 196, 45, 104, 214, 217, 2, 143, 168, 147, 139, 199, 177, 147, 180]","[774980, 775368, 775754, 776130, 776561, 777000, 777411, 777801, 778206, 778604, 778994, 779361, 779779, 780170, 780628, 780999, 781384, 781791, 782218, 782621]","[773437, 773837, 774237, 774637, 775037, 775437, 775837, 776237, 776577, 777015, 777426, 777816, 778221, 778621, 779010, 779377, 779793, 780186, 780643, 781014, 781400, 781806, 782233, 782637]",68,EM,L,R,ITMSR,1.1
5,400,trial,0,36,36,36,trial,"['S', 'S', 'S', 'S', 'S', 'S', 'C', 'C', 'C', 'C', 'C', 'C', 'C', 'C', 'C', 'C', 'C', 'C', 'C', 'C', 'C', 'C']","[788988, 789377, 789771, 790158, 790571, 790961, 791351, 791752, 792152, 792515, 792907, 793287, 793672, 794071, 794476, 794864, 795253, 795612, 796023, 796396, 796783, 797156]","[789078, 789478, 789862, 790259, 790671, 791056, 791435, 791831, 792225, 792608, 793001, 793389, 793782, 794192, 794598, 794947, 795357, 795714, 796118, 796481, 796855, 797248]","[233, 244, 153, 163, 177, 79, 59, 71, 140, 171, 156, 190, 163, 33, 10, 0, 242, 170, 183, 152, 136, 146]","[788993, 789380, 789776, 790163, 790576, 790966, 791356, 791758, 792157, 792520, 792912, 793292, 793677, 794075, 794480, 794869, 795257, 795618, 796028, 796401, 796788, 797161]","[788271, 788670, 789070, 789470, 789870, 790270, 790670, 791070, 791371, 791772, 792172, 792536, 792927, 793307, 793692, 794091, 794497, 794884, 795273, 795632, 796043, 796417, 796803, 797176]",68,EM,L,R,ITMSR,1.1
3,400,trial,0,37,37,37,trial,"['S', 'S', 'S', 'S', 'C', 'C', 'C', 'C', 'C', 'C', 'C', 'C', 'C', 'C', 'C', 'C', 'C', 'C', 'C', 'C']","[804147, 804533, 804914, 805318, 805719, 806098, 806480, 806854, 807271, 807661, 808033, 808403, 808805, 809158, 809561, 809952, 810335, 810729, 811118, 811508]","[804239, 804656, 805037, 805426, 805825, 806196, 806556, 806936, 807344, 807713, 808096, 808456, 808867, 809237, 809631, 810038, 810428, 810810, 811215, 811601]","[106, 241, 29, 224, 148, 104, 113, 123, 79, 148, 55, 204, 189, 15, 22, 219, 41, 95, 114, 155]","[804150, 804537, 804918, 805322, 805724, 806106, 806486, 806859, 807276, 807667, 808039, 808410, 808810, 809164, 809567, 809958, 810340, 810734, 811123, 811513]","[802660, 803059, 803459, 803859, 804259, 804659, 805059, 805459, 805739, 806118, 806500, 806874, 807291, 807682, 808053, 808423, 808825, 809178, 809581, 809972, 810355, 810749, 811138, 811528]",68,EM,L,R,ITMSR,1.1
3,600,trial,0,38,38,38,trial,"['S', 'S', 'S', 'S', 'C', 'C', 'C', 'C', 'C', 'C', 'C', 'C', 'C', 'C', 'C', 'C', 'C', 'C', 'C', 'C']","[819162, 819824, 820383, 820960, 821591, 822194, 822792, 823332, 823945, 824571, 825165, 825748, 826369, 826941, 827520, 828087, 828699, 829304, 829895, 830462]","[819290, 819913, 820481, 821057, 821660, 822259, 822871, 823422, 824047, 824662, 825276, 825835, 826450, 827024, 827614, 828168, 828781, 829383, 829953, 830531]","[131, 90, 100, 86, 190, 252, 68, 19, 24, 98, 15, 240, 22, 4, 224, 3, 7, 36, 247, 31]","[819165, 819828, 820386, 820964, 821595, 822198, 822795, 823337, 823950, 824574, 825170, 825753, 826373, 826945, 827525, 828092, 828704, 829308, 829900, 830467]","[816868, 817468, 818068, 818668, 819268, 819868, 820468, 821068, 821611, 822214, 822812, 823352, 823965, 824591, 825185, 825768, 826389, 826961, 827540, 828107, 828719, 829324, 829915, 830482]",68,EM,L,R,ITMSR,1.1
1,600,trial,0,39,39,39,trial,"['S', 'S', 'S', 'S', 'S', 'C', 'C', 'C', 'C', 'C', 'C', 'C', 'C', 'C', 'C', 'C', 'C', 'C', 'C', 'C', 'C']","[837837, 838478, 839048, 839661, 840252, 840863, 841457, 842015, 842558, 843185, 843746, 844316, 844859, 845415, 846004, 846575, 847155, 847724, 848287, 848798, 849378]","[837927, 838579, 839195, 839794, 840351, 840997, 841555, 842129, 842691, 843303, 843868, 844441, 844983, 845521, 846118, 846654, 847257, 847873, 848419, 848896, 849462]","[192, 52, 96, 70, 55, 73, 172, 14, 250, 57, 50, 55, 37, 28, 91, 40, 94, 96, 99, 94, 54]","[837843, 838482, 839122, 839743, 840256, 840925, 841463, 842019, 842634, 843189, 843750, 844385, 844863, 845418, 846008, 846578, 847158, 847801, 848357, 848801, 849425]","[836166, 836766, 837366, 837966, 838566, 839166, 839767, 840366, 840883, 841477, 842035, 842578, 843205, 843766, 844336, 844879, 845435, 846024, 846595, 847175, 847745, 848307, 848818, 849398]",68,EM,L,R,ITMSR,1.1
5,400,trial,0,40,40,40,trial,"['S', 'S', 'S', 'S', 'C', 'C', 'C', 'C', 'C', 'C', 'C', 'C', 'C', 'C', 'C', 'C', 'C', 'C', 'C', 'C']","[856375, 856754, 857151, 857542, 857939, 858322, 858691, 859079, 859455, 859844, 860236, 860594, 860979, 861351, 861694, 862080, 862487, 862859, 863250, 863583]","[856455, 856841, 857226, 857622, 858010, 858395, 858754, 859157, 859523, 859909, 860306, 860677, 861066, 861415, 861809, 862171, 862580, 862955, 863350, 863698]","[48, 65, 5, 8, 203, 227, 189, 212, 204, 182, 205, 244, 232, 154, 43, 253, 4, 240, 42, 10]","[856379, 856759, 857192, 857546, 857945, 858328, 858695, 859084, 859459, 859849, 860270, 860631, 861020, 861380, 861751, 862126, 862533, 862911, 863302, 863644]","[854842, 855241, 855641, 856041, 856441, 856841, 857241, 857641, 857959, 858342, 858712, 859099, 859475, 859864, 860256, 860614, 860999, 861371, 861714, 862100, 862508, 862879, 863270, 863603]",68,EM,L,R,ITMSR,1.1
4,600,trial,0,41,41,41,trial,"['S', 'S', 'S', 'S', 'C', 'C', 'C', 'C', 'C', 'C', 'C', 'C', 'C', 'C', 'C', 'C', 'C', 'C', 'C', 'C']","[871422, 872018, 872614, 873183, 873816, 874342, 874883, 875405, 875958, 876493, 877111, 877621, 878129, 878681, 879202, 879705, 880282, 880788, 881302, 881800]","[871542, 872151, 872715, 873264, 873905, 874455, 875013, 875516, 876049, 876599, 877196, 877747, 878264, 878796, 879328, 879812, 880396, 880888, 881421, 881938]","[65, 39, 6, 1, 11, 40, 54, 11, 230, 252, 50, 63, 81, 30, 25, 21, 47, 222, 251, 19]","[871488, 872093, 872674, 873188, 873861, 874401, 874945, 875465, 875963, 876553, 877115, 877677, 878200, 878743, 879272, 879709, 880338, 880793, 881366, 881875]","[869142, 869742, 870342, 870942, 871542, 872142, 872742, 873342, 873836, 874362, 874903, 875425, 875978, 876513, 877131, 877641, 878149, 878701, 879222, 879725, 880302, 880808, 881323, 881820]",68,EM,L,R,ITMSR,1.1
0,400,trial,0,42,42,42,trial,"['C', 'C', 'C', 'C', 'C', 'C', 'C', 'C', 'C', 'C', 'C', 'C', 'C', 'C', 'C', 'C']","[890505, 890886, 891290, 891645, 892055, 892429, 892836, 893177, 893566, 893961, 894360, 894742, 895124, 895514, 895883, 896275]","[890594, 890972, 891401, 891766, 892154, 892569, 892951, 893310, 893686, 894052, 894459, 894856, 895235, 895621, 895990, 896379]","[89, 39, 73, 86, 77, 83, 72, 80, 47, 24, 253, 12, 13, 29, 52, 51]","[890509, 890890, 891294, 891712, 892060, 892433, 892896, 893248, 893628, 894010, 894365, 894818, 895186, 895518, 895887, 896279]","[887356, 887755, 888155, 888555, 888955, 889355, 889755, 890156, 890525, 890906, 891310, 891665, 892076, 892449, 892856, 893197, 893586, 893981, 894381, 894763, 895144, 895534, 895903, 896295]",68,EM,L,R,ITMSR,1.1
1,600,trial,0,43,43,43,trial,"['S', 'S', 'S', 'S', 'C', 'C', 'C', 'C', 'C', 'C', 'C', 'C', 'C', 'C', 'C', 'C', 'C', 'C', 'C', 'C']","[904211, 904810, 905411, 906020, 906602, 907170, 907691, 908226, 908798, 909382, 909966, 910527, 911097, 911663, 912217, 912830, 913380, 913918, 914497, 915040]","[904329, 904904, 905509, 906106, 906697, 907251, 907791, 908341, 908901, 909485, 910074, 910632, 911193, 911771, 912319, 912901, 913466, 914032, 914623, 915173]","[64, 49, 42, 43, 248, 229, 11, 15, 9, 49, 69, 57, 17, 41, 53, 47, 52, 48, 46, 78]","[904216, 904861, 905416, 906025, 906654, 907176, 907696, 908284, 908804, 909387, 909971, 910583, 911138, 911716, 912263, 912863, 913418, 913977, 914556, 915111]","[901913, 902512, 903112, 903712, 904312, 904912, 905512, 906113, 906622, 907190, 907711, 908247, 908818, 909402, 909986, 910547, 911117, 911683, 912237, 912850, 913400, 913938, 914518, 915060]",68,EM,L,R,ITMSR,1.1
2,600,trial,0,44,44,44,trial,"['S', 'S', 'S', 'S', 'S', 'C', 'C', 'C', 'C', 'C', 'C', 'C', 'C', 'C', 'C', 'C', 'C', 'C', 'C', 'C', 'C']","[922363, 922954, 923551, 924145, 924716, 925340, 925917, 926484, 927059, 927648, 928231, 928848, 929451, 930045, 930632, 931203, 931770, 932340, 932953, 933527, 934111]","[922468, 923047, 923667, 924261, 924834, 925446, 926025, 926594, 927162, 927761, 928343, 928946, 929526, 930118, 930700, 931302, 931884, 932439, 933092, 933629, 934195]","[104, 132, 96, 88, 65, 44, 72, 73, 71, 74, 62, 91, 48, 32, 33, 36, 5, 0, 48, 42, 10]","[922366, 922957, 923555, 924212, 924771, 925384, 925964, 926540, 927107, 927707, 928290, 928852, 929455, 930051, 930636, 931207, 931823, 932390, 933036, 933576, 934116]","[920619, 921218, 921818, 922418, 923018, 923618, 924218, 924818, 925360, 925937, 926504, 927079, 927668, 928251, 928868, 929471, 930065, 930652, 931223, 931790, 932360, 932973, 933548, 934131]",68,EM,L,R,ITMSR,1.1
1,400,trial,0,45,45,45,trial,"['S', 'S', 'S', 'S', 'C', 'C', 'C', 'C', 'C', 'C', 'C', 'C', 'C', 'C', 'C', 'C', 'C', 'C', 'C', 'C']","[941464, 941837, 942234, 942613, 943025, 943437, 943830, 944210, 944610, 944984, 945377, 945771, 946180, 946555, 946982, 947332, 947740, 948113, 948513, 948896]","[941545, 941921, 942295, 942683, 943112, 943511, 943904, 944317, 944726, 945083, 945490, 945866, 946259, 946642, 947091, 947463, 947838, 948239, 948609, 948988]","[40, 37, 18, 57, 48, 28, 23, 15, 31, 198, 251, 249, 173, 244, 26, 246, 197, 12, 212, 36]","[941468, 941841, 942239, 942617, 943029, 943442, 943835, 944216, 944614, 944989, 945382, 945776, 946185, 946561, 946988, 947402, 947746, 948118, 948570, 948900]","[939920, 940320, 940720, 941120, 941520, 941920, 942320, 942721, 943045, 943457, 943850, 944230, 944630, 945004, 945397, 945792, 946200, 946575, 947002, 947352, 947760, 948133, 948533, 948916]",68,EM,L,R,ITMSR,1.1
3,600,trial,0,46,46,46,trial,"['S', 'S', 'S', 'S', 'S', 'C', 'C', 'C', 'C', 'C', 'C', 'C', 'C', 'C', 'C', 'C', 'C', 'C', 'C', 'C', 'C']","[956062, 956676, 957276, 957887, 958481, 959084, 959692, 960250, 960821, 961391, 962000, 962605, 963181, 963712, 964332, 964891, 965476, 966054, 966576, 967154, 967701]","[956149, 956791, 957383, 957989, 958631, 959206, 959805, 960358, 960932, 961497, 962107, 962715, 963272, 963815, 964414, 964993, 965574, 966167, 966699, 967231, 967801]","[47, 97, 65, 108, 107, 56, 72, 81, 74, 62, 69, 239, 251, 183, 15, 225, 171, 3, 112, 185, 242]","[956066, 956679, 957280, 957891, 958485, 959161, 959696, 960254, 960825, 961396, 962004, 962610, 963186, 963717, 964336, 964896, 965479, 966059, 966581, 967159, 967704]","[954350, 954949, 955549, 956149, 956749, 957349, 957949, 958550, 959105, 959712, 960270, 960841, 961411, 962020, 962625, 963202, 963732, 964353, 964911, 965496, 966074, 966596, 967174, 967721]",68,EM,L,R,ITMSR,1.1
2,600,trial,0,47,47,47,trial,"['S', 'S', 'S', 'S', 'S', 'C', 'C', 'C', 'C', 'C', 'C', 'C', 'C', 'C', 'C', 'C', 'C', 'C', 'C', 'C', 'C']","[975010, 975619, 976231, 976814, 977460, 978056, 978628, 979181, 979766, 980350, 980885, 981486, 982052, 982616, 983141, 983713, 984261, 984828, 985400, 985944, 986505]","[975108, 975730, 976362, 976924, 977550, 978189, 978768, 979302, 979905, 980470, 981036, 981629, 982198, 982771, 983269, 983838, 984388, 984949, 985562, 986116, 986681]","[2, 199, 245, 247, 73, 244, 196, 179, 209, 164, 247, 30, 26, 250, 241, 234, 193, 139, 215, 197, 236]","[975014, 975624, 976235, 976818, 977464, 978061, 978632, 979186, 979770, 980355, 980982, 981573, 982056, 982723, 983144, 983716, 984265, 984833, 985403, 985949, 986510]","[973368, 973968, 974568, 975168, 975768, 976368, 976968, 977568, 978076, 978648, 979202, 979786, 980370, 980905, 981506, 982072, 982636, 983161, 983733, 984281, 984848, 985420, 985964, 986525]",68,EM,L,R,ITMSR,1.1
4,600,trial,0,48,48,48,trial,"['S', 'S', 'S', 'S', 'C', 'C', 'C', 'C', 'C', 'C', 'C', 'C', 'C', 'C', 'C', 'C', 'C', 'C', 'C', 'C']","[994161, 994726, 995345, 995879, 996529, 997087, 997645, 998210, 998782, 999332, 999858, 1000426, 1001020, 1001612, 1002160, 1002716, 1003287, 1003838, 1004371, 1004937]","[994262, 994813, 995424, 995957, 996581, 997164, 997720, 998289, 998876, 999400, 999934, 1000499, 1001109, 1001677, 1002238, 1002796, 1003371, 1003911, 1004464, 1004995]","[49, 20, 254, 242, 208, 147, 125, 102, 131, 115, 157, 227, 223, 231, 164, 180, 252, 64, 189, 239]","[994165, 994768, 995350, 995885, 996535, 997094, 997684, 998248, 998790, 999368, 999896, 1000430, 1001025, 1001617, 1002165, 1002721, 1003292, 1003842, 1004376, 1004940]","[991842, 992441, 993041, 993641, 994241, 994841, 995441, 996041, 996549, 997107, 997665, 998231, 998802, 999352, 999878, 1000446, 1001040, 1001632, 1002180, 1002736, 1003308, 1003858, 1004391, 1004957]",68,EM,L,R,ITMSR,1.1
4,400,trial,0,49,49,49,trial,"['S', 'S', 'S', 'S', 'C', 'C', 'C', 'C', 'C', 'C', 'C', 'C', 'C', 'C', 'C', 'C', 'C', 'C', 'C', 'C']","[1011956, 1012308, 1012723, 1013091, 1013529, 1013935, 1014300, 1014687, 1015058, 1015449, 1015806, 1016185, 1016544, 1016956, 1017325, 1017677, 1018074, 1018427, 1018832, 1019244]","[1012037, 1012426, 1012835, 1013206, 1013607, 1014009, 1014408, 1014785, 1015175, 1015567, 1015919, 1016287, 1016659, 1017047, 1017427, 1017781, 1018152, 1018522, 1018912, 1019323]","[102, 116, 41, 112, 28, 42, 31, 57, 83, 47, 56, 82, 72, 241, 45, 71, 53, 58, 45, 38]","[1011959, 1012311, 1012727, 1013094, 1013533, 1013939, 1014304, 1014691, 1015062, 1015453, 1015811, 1016188, 1016548, 1016962, 1017329, 1017681, 1018078, 1018431, 1018836, 1019249]","[1010396, 1010796, 1011196, 1011596, 1011996, 1012397, 1012797, 1013197, 1013549, 1013955, 1014320, 1014707, 1015078, 1015469, 1015826, 1016205, 1016564, 1016976, 1017346, 1017697, 1018094, 1018447, 1018852, 1019265]",68,EM,L,R,ITMSR,1.1
2,400,trial,0,50,50,50,trial,"['S', 'S', 'S', 'S', 'C', 'C', 'C', 'C', 'C', 'C', 'C', 'C', 'C', 'C', 'C', 'C', 'C', 'C', 'C', 'C']","[1026188, 1026573, 1026977, 1027331, 1027731, 1028135, 1028501, 1028853, 1029239, 1029641, 1029993, 1030413, 1030794, 1031192, 1031593, 1031980, 1032371, 1032748, 1033099, 1033494]","[1026296, 1026663, 1027054, 1027444, 1027835, 1028217, 1028585, 1028934, 1029286, 1029708, 1030095, 1030495, 1030865, 1031279, 1031644, 1032053, 1032427, 1032824, 1033192, 1033563]","[89, 41, 119, 254, 25, 235, 37, 243, 19, 49, 66, 32, 20, 250, 218, 6, 240, 32, 30, 238]","[1026192, 1026578, 1026983, 1027337, 1027736, 1028141, 1028506, 1028858, 1029243, 1029645, 1029997, 1030417, 1030799, 1031196, 1031598, 1031985, 1032375, 1032752, 1033103, 1033498]","[1024672, 1025072, 1025472, 1025872, 1026272, 1026672, 1027073, 1027472, 1027751, 1028155, 1028521, 1028873, 1029259, 1029661, 1030013, 1030433, 1030814, 1031213, 1031613, 1032000, 1032391, 1032768, 1033119, 1033515]",68,EM,L,R,ITMSR,1.1
0,600,trial,0,51,51,51,trial,"['S', 'S', 'S', 'S', 'S', 'C', 'C', 'C', 'C', 'C', 'C', 'C', 'C', 'C', 'C', 'C', 'C', 'C', 'C', 'C', 'C']","[1040517, 1041178, 1041772, 1042325, 1042892, 1043521, 1044081, 1044597, 1045172, 1045735, 1046289, 1046833, 1047426, 1047944, 1048483, 1048995, 1049551, 1050072, 1050677, 1051198, 1051686]","[1040614, 1041262, 1041843, 1042421, 1042980, 1043612, 1044159, 1044679, 1045251, 1045817, 1046347, 1046892, 1047482, 1048007, 1048558, 1049065, 1049614, 1050145, 1050727, 1051252, 1051753]","[55, 229, 7, 47, 252, 230, 253, 59, 32, 220, 23, 141, 15, 220, 12, 230, 13, 156, 64, 180, 143]","[1040520, 1041183, 1041777, 1042329, 1042897, 1043526, 1044087, 1044602, 1045177, 1045740, 1046294, 1046839, 1047431, 1047949, 1048488, 1049001, 1049556, 1050077, 1050683, 1051203, 1051692]","[1038889, 1039490, 1040090, 1040690, 1041290, 1041890, 1042490, 1043090, 1043542, 1044101, 1044617, 1045192, 1045755, 1046309, 1046853, 1047446, 1047964, 1048503, 1049015, 1049571, 1050092, 1050697, 1051218, 1051706]",68,EM,L,R,ITMSR,1.1
0,400,trial,0,52,52,52,trial,"['S', 'S', 'S', 'S', 'C', 'C', 'C', 'C', 'C', 'C', 'C', 'C', 'C', 'C', 'C', 'C', 'C', 'C', 'C', 'C']","[1058532, 1058895, 1059278, 1059670, 1060072, 1060461, 1060841, 1061217, 1061584, 1061976, 1062333, 1062684, 1063022, 1063374, 1063733, 1064089, 1064404, 1064759, 1065082, 1065409]","[1058639, 1058991, 1059367, 1059742, 1060154, 1060546, 1060924, 1061295, 1061667, 1062036, 1062418, 1062774, 1063119, 1063459, 1063806, 1064159, 1064485, 1064804, 1065155, 1065498]","[128, 83, 81, 52, 55, 22, 72, 61, 67, 19, 19, 80, 77, 68, 41, 7, 21, 8, 27, 1]","[1058535, 1058899, 1059282, 1059674, 1060077, 1060465, 1060845, 1061222, 1061588, 1061981, 1062338, 1062688, 1063026, 1063379, 1063737, 1064095, 1064410, 1064764, 1065086, 1065414]","[1057003, 1057403, 1057803, 1058203, 1058604, 1059003, 1059403, 1059803, 1060092, 1060482, 1060861, 1061237, 1061604, 1061996, 1062353, 1062704, 1063042, 1063394, 1063753, 1064109, 1064424, 1064779, 1065102, 1065430]",68,EM,L,R,ITMSR,1.1
5,600,trial,0,53,53,53,trial,"['S', 'S', 'S', 'S', 'C', 'C', 'C', 'C', 'C', 'C', 'C', 'C', 'C', 'C', 'C', 'C', 'C', 'C', 'C', 'C']","[1073466, 1074092, 1074701, 1075313, 1075950, 1076552, 1077130, 1077705, 1078311, 1078874, 1079431, 1079998, 1080564, 1081156, 1081730, 1082314, 1082877, 1083449, 1084044, 1084620]","[1073571, 1074189, 1074823, 1075458, 1076068, 1076651, 1077252, 1077830, 1078395, 1078976, 1079542, 1080095, 1080670, 1081281, 1081829, 1082394, 1082985, 1083565, 1084125, 1084720]","[80, 93, 77, 75, 102, 99, 93, 110, 99, 95, 55, 32, 73, 68, 95, 89, 71, 66, 98, 104]","[1073469, 1074096, 1074705, 1075317, 1075954, 1076556, 1077134, 1077709, 1078316, 1078878, 1079436, 1080003, 1080569, 1081161, 1081734, 1082318, 1082882, 1083453, 1084048, 1084624]","[1071159, 1071759, 1072359, 1072959, 1073559, 1074159, 1074759, 1075359, 1075970, 1076572, 1077150, 1077725, 1078331, 1078894, 1079451, 1080018, 1080584, 1081176, 1081750, 1082334, 1082897, 1083469, 1084064, 1084640]",68,EM,L,R,ITMSR,1.1
5,400,trial,0,54,54,54,trial,"['S', 'S', 'S', 'S', 'S', 'C', 'C', 'C', 'C', 'C', 'C', 'C', 'C', 'C', 'C', 'C', 'C', 'C', 'C', 'C', 'C']","[1093428, 1093804, 1094157, 1094534, 1094913, 1095322, 1095662, 1096029, 1096372, 1096743, 1097144, 1097493, 1097823, 1098174, 1098565, 1098904, 1099244, 1099560, 1099959, 1100273, 1100638]","[1093512, 1093900, 1094263, 1094630, 1095015, 1095412, 1095763, 1096112, 1096468, 1096838, 1097201, 1097589, 1097939, 1098297, 1098655, 1099004, 1099336, 1099679, 1100054, 1100386, 1100751]","[109, 83, 63, 54, 39, 5, 10, 15, 36, 46, 42, 60, 93, 83, 85, 40, 77, 88, 78, 42, 46]","[1093431, 1093807, 1094161, 1094539, 1094917, 1095327, 1095667, 1096034, 1096376, 1096748, 1097149, 1097497, 1097827, 1098178, 1098569, 1098909, 1099248, 1099565, 1099964, 1100279, 1100642]","[1091899, 1092299, 1092699, 1093099, 1093499, 1093899, 1094299, 1094700, 1095342, 1095682, 1096049, 1096392, 1096763, 1097164, 1097513, 1097843, 1098194, 1098585, 1098925, 1099265, 1099580, 1099979, 1100293, 1100658]",68,EM,L,R,ITMSR,1.1
3,600,trial,0,55,55,55,trial,"['S', 'S', 'S', 'S', 'S', 'C', 'C', 'C', 'C', 'C', 'C', 'C', 'C', 'C', 'C', 'C', 'C', 'C', 'C', 'C', 'C']","[1107663, 1108249, 1108859, 1109447, 1110057, 1110647, 1111216, 1111783, 1112328, 1112902, 1113469, 1114038, 1114592, 1115143, 1115712, 1116247, 1116818, 1117365, 1117887, 1118428, 1118994]","[1107792, 1108380, 1108956, 1109553, 1110155, 1110757, 1111318, 1111866, 1112436, 1113006, 1113596, 1114167, 1114699, 1115248, 1115800, 1116361, 1116928, 1117474, 1118004, 1118570, 1119158]","[93, 101, 89, 51, 77, 67, 75, 70, 96, 94, 129, 125, 90, 116, 108, 104, 78, 104, 99, 124, 126]","[1107667, 1108253, 1108864, 1109451, 1110062, 1110651, 1111220, 1111787, 1112332, 1112906, 1113474, 1114041, 1114596, 1115147, 1115715, 1116251, 1116821, 1117368, 1117891, 1118431, 1118997]","[1105980, 1106580, 1107180, 1107780, 1108380, 1108980, 1109580, 1110180, 1110667, 1111236, 1111803, 1112348, 1112922, 1113489, 1114058, 1114612, 1115163, 1115732, 1116267, 1116838, 1117385, 1117907, 1118448, 1119014]",68,EM,L,R,ITMSR,1.1
5,600,trial,0,56,56,56,trial,"['S', 'S', 'S', 'S', 'S', 'S', 'C', 'C', 'C', 'C', 'C', 'C', 'C', 'C', 'C', 'C', 'C', 'C', 'C', 'C', 'C', 'C']","[1125656, 1126260, 1126847, 1127421, 1128054, 1128665, 1129292, 1129836, 1130419, 1130955, 1131503, 1132060, 1132613, 1133182, 1133752, 1134284, 1134821, 1135371, 1135908, 1136475, 1136993, 1137530]","[1125798, 1126379, 1126979, 1127556, 1128158, 1128755, 1129397, 1129940, 1130556, 1131070, 1131619, 1132198, 1132758, 1133304, 1133872, 1134406, 1134948, 1135512, 1136055, 1136601, 1137124, 1137655]","[109, 120, 137, 106, 134, 91, 58, 74, 99, 39, 42, 104, 107, 103, 118, 71, 90, 58, 65, 42, 232, 83]","[1125660, 1126263, 1126849, 1127426, 1128057, 1128669, 1129297, 1129840, 1130422, 1130959, 1131506, 1132064, 1132616, 1133187, 1133755, 1134353, 1134825, 1135375, 1135911, 1136478, 1136997, 1137534]","[1124592, 1125192, 1125792, 1126392, 1126992, 1127592, 1128193, 1128792, 1129312, 1129857, 1130439, 1130975, 1131523, 1132080, 1132633, 1133202, 1133772, 1134304, 1134841, 1135391, 1135928, 1136495, 1137013, 1137550]",68,EM,L,R,ITMSR,1.1
1,600,trial,0,57,57,57,trial,"['S', 'S', 'S', 'S', 'S', 'S', 'C', 'C', 'C', 'C', 'C', 'C', 'C', 'C', 'C', 'C', 'C', 'C', 'C', 'C', 'C', 'C']","[1144407, 1145010, 1145644, 1146244, 1146851, 1147452, 1148035, 1148601, 1149152, 1149735, 1150321, 1150886, 1151421, 1152005, 1152547, 1153106, 1153687, 1154260, 1154850, 1155397, 1155992, 1156526]","[1144567, 1145181, 1145801, 1146395, 1147006, 1147584, 1148168, 1148727, 1149295, 1149895, 1150490, 1151043, 1151593, 1152177, 1152712, 1153240, 1153854, 1154427, 1155027, 1155578, 1156182, 1156749]","[157, 157, 106, 109, 117, 118, 107, 54, 126, 106, 99, 71, 130, 137, 118, 106, 119, 113, 96, 145, 130, 150]","[1144489, 1145089, 1145724, 1146326, 1146921, 1147521, 1148105, 1148605, 1149154, 1149819, 1150395, 1150892, 1151513, 1152101, 1152642, 1153170, 1153776, 1154354, 1154953, 1155401, 1155996, 1156530]","[1143325, 1143924, 1144524, 1145124, 1145724, 1146324, 1146925, 1147525, 1148055, 1148621, 1149172, 1149755, 1150341, 1150906, 1151441, 1152025, 1152567, 1153126, 1153708, 1154280, 1154870, 1155417, 1156013, 1156546]",68,EM,L,R,ITMSR,1.1
2,600,trial,0,58,58,58,trial,"['S', 'S', 'S', 'S', 'C', 'C', 'C', 'C', 'C', 'C', 'C', 'C', 'C', 'C', 'C', 'C', 'C', 'C', 'C', 'C']","[1164309, 1164891, 1165462, 1166043, 1166662, 1167219, 1167741, 1168309, 1168838, 1169403, 1169958, 1170494, 1171022, 1171567, 1172111, 1172648, 1173194, 1173705, 1174240, 1174770]","[1164452, 1165039, 1165601, 1166188, 1166806, 1167326, 1167890, 1168472, 1168978, 1169509, 1170103, 1170648, 1171179, 1171733, 1172261, 1172773, 1173315, 1173831, 1174353, 1174883]","[145, 127, 119, 124, 122, 94, 123, 116, 91, 121, 145, 122, 143, 121, 117, 97, 98, 94, 112, 126]","[1164312, 1164895, 1165465, 1166046, 1166731, 1167223, 1167745, 1168312, 1168842, 1169408, 1169961, 1170498, 1171025, 1171570, 1172115, 1172652, 1173197, 1173709, 1174243, 1174773]","[1162016, 1162616, 1163216, 1163816, 1164417, 1165016, 1165616, 1166216, 1166682, 1167239, 1167761, 1168329, 1168858, 1169423, 1169978, 1170514, 1171042, 1171587, 1172131, 1172668, 1173214, 1173725, 1174260, 1174790]",68,EM,L,R,ITMSR,1.1
5,400,trial,0,59,59,59,trial,"['S', 'S', 'S', 'S', 'C', 'C', 'C', 'C', 'C', 'C', 'C', 'C', 'C', 'C', 'C', 'C', 'C', 'C', 'C', 'C']","[1182041, 1182451, 1182851, 1183199, 1183594, 1184010, 1184378, 1184761, 1185150, 1185506, 1185890, 1186265, 1186638, 1186987, 1187390, 1187773, 1188129, 1188533, 1188916, 1189313]","[1182148, 1182543, 1182950, 1183300, 1183691, 1184096, 1184470, 1184851, 1185250, 1185632, 1185999, 1186368, 1186729, 1187095, 1187474, 1187850, 1188192, 1188601, 1188981, 1189361]","[138, 95, 106, 89, 44, 49, 69, 49, 80, 95, 71, 27, 28, 245, 172, 191, 166, 171, 212, 165]","[1182044, 1182455, 1182854, 1183203, 1183599, 1184015, 1184382, 1184766, 1185154, 1185510, 1185894, 1186270, 1186642, 1186992, 1187396, 1187779, 1188134, 1188538, 1188921, 1189320]","[1180526, 1180925, 1181325, 1181725, 1182125, 1182525, 1182925, 1183325, 1183614, 1184030, 1184398, 1184781, 1185170, 1185526, 1185910, 1186285, 1186658, 1187007, 1187410, 1187793, 1188149, 1188553, 1188936, 1189334]",68,EM,L,R,ITMSR,1.1
3,400,trial,0,60,60,60,trial,"['S', 'S', 'S', 'S', 'C', 'C', 'C', 'C', 'C', 'C', 'C', 'C', 'C', 'C', 'C', 'C', 'C', 'C', 'C', 'C']","[1196497, 1196883, 1197234, 1197642, 1198019, 1198437, 1198820, 1199228, 1199611, 1200000, 1200398, 1200793, 1201184, 1201563, 1201964, 1202354, 1202742, 1203076, 1203493, 1203918]","[1196607, 1196976, 1197349, 1197741, 1198137, 1198533, 1198915, 1199319, 1199715, 1200088, 1200475, 1200874, 1201274, 1201646, 1202053, 1202424, 1202801, 1203165, 1203568, 1203977]","[120, 73, 84, 34, 65, 44, 214, 101, 0, 217, 126, 75, 42, 226, 242, 5, 11, 214, 24, 248]","[1196502, 1196889, 1197238, 1197646, 1198023, 1198442, 1198826, 1199236, 1199617, 1200006, 1200405, 1200800, 1201191, 1201610, 1201970, 1202361, 1202749, 1203139, 1203501, 1203926]","[1194952, 1195352, 1195752, 1196152, 1196552, 1196952, 1197352, 1197752, 1198040, 1198457, 1198840, 1199248, 1199631, 1200020, 1200418, 1200813, 1201204, 1201583, 1201984, 1202374, 1202762, 1203096, 1203513, 1203938]",68,EM,L,R,ITMSR,1.1
4,600,trial,0,61,61,61,trial,"['S', 'S', 'S', 'S', 'C', 'C', 'C', 'C', 'C', 'C', 'C', 'C', 'C', 'C', 'C', 'C', 'C', 'C', 'C', 'C']","[1212041, 1212619, 1213131, 1213729, 1214326, 1214870, 1215435, 1215955, 1216560, 1217116, 1217735, 1218263, 1218805, 1219375, 1219903, 1220454, 1221019, 1221583, 1222114, 1222643]","[1212138, 1212708, 1213268, 1213849, 1214426, 1214966, 1215526, 1216046, 1216642, 1217207, 1217820, 1218348, 1218918, 1219501, 1220100, 1220697, 1221260, 1221801, 1222315, 1222910]","[184, 105, 188, 182, 232, 25, 102, 51, 37, 67, 195, 204, 103, 145, 193, 161, 155, 151, 116, 99]","[1212047, 1212625, 1213137, 1213734, 1214334, 1214877, 1215441, 1215963, 1216566, 1217123, 1217740, 1218319, 1218812, 1219381, 1220014, 1220460, 1221025, 1221590, 1222120, 1222650]","[1209696, 1210296, 1210896, 1211496, 1212096, 1212696, 1213296, 1213896, 1214346, 1214891, 1215455, 1215975, 1216580, 1217136, 1217755, 1218283, 1218825, 1219395, 1219923, 1220474, 1221039, 1221603, 1222134, 1222663]",68,EM,L,R,ITMSR,1.1
4,600,trial,0,62,62,62,trial,"['S', 'S', 'S', 'S', 'C', 'C', 'C', 'C', 'C', 'C', 'C', 'C', 'C', 'C', 'C', 'C', 'C', 'C', 'C', 'C']","[1230438, 1231045, 1231653, 1232275, 1232903, 1233472, 1234072, 1234593, 1235217, 1235808, 1236416, 1236984, 1237586, 1238168, 1238768, 1239346, 1239912, 1240487, 1241073, 1241667]","[1230627, 1231247, 1231856, 1232474, 1233115, 1233781, 1234347, 1234894, 1235491, 1236083, 1236648, 1237228, 1237836, 1238411, 1239014, 1239572, 1240176, 1240739, 1241323, 1241902]","[29, 24, 9, 78, 111, 117, 114, 112, 108, 108, 60, 60, 69, 46, 55, 65, 65, 70, 62, 81]","[1230443, 1231150, 1231762, 1232400, 1233026, 1233661, 1234253, 1234829, 1235418, 1235997, 1236547, 1237144, 1237767, 1238352, 1238945, 1239510, 1240089, 1240620, 1241253, 1241837]","[1228145, 1228745, 1229345, 1229945, 1230545, 1231145, 1231746, 1232346, 1232923, 1233492, 1234093, 1234613, 1235237, 1235828, 1236436, 1237004, 1237606, 1238189, 1238788, 1239366, 1239932, 1240507, 1241093, 1241688]",68,EM,L,R,ITMSR,1.1
4,400,trial,0,63,63,63,trial,"['S', 'S', 'S', 'S', 'C', 'C', 'C', 'C', 'C', 'C', 'C', 'C', 'C', 'C', 'C', 'C', 'C', 'C', 'C', 'C']","[1248613, 1249034, 1249434, 1249822, 1250220, 1250637, 1251034, 1251472, 1251847, 1252264, 1252714, 1253128, 1253509, 1253967, 1254394, 1254792, 1255225, 1255630, 1255986, 1256421]","[1248737, 1249150, 1249563, 1249951, 1250325, 1250740, 1251172, 1251594, 1251974, 1252363, 1252800, 1253209, 1253627, 1254063, 1254493, 1254901, 1255322, 1255723, 1256116, 1256526]","[35, 17, 46, 45, 249, 242, 4, 10, 12, 182, 240, 138, 245, 158, 212, 14, 11, 236, 218, 228]","[1248617, 1249038, 1249437, 1249892, 1250281, 1250698, 1251094, 1251476, 1251851, 1252270, 1252719, 1253134, 1253573, 1253972, 1254400, 1254796, 1255228, 1255635, 1255991, 1256426]","[1247099, 1247499, 1247899, 1248300, 1248699, 1249099, 1249499, 1249899, 1250240, 1250657, 1251054, 1251492, 1251867, 1252284, 1252734, 1253148, 1253529, 1253987, 1254414, 1254812, 1255245, 1255650, 1256006, 1256441]",68,EM,L,R,ITMSR,1.1
2,400,trial,0,64,64,64,trial,"['C', 'C', 'C', 'C', 'C', 'C', 'C', 'C', 'C', 'C', 'C', 'C', 'C', 'C', 'C', 'C']","[1264983, 1265406, 1265778, 1266169, 1266558, 1266936, 1267341, 1267731, 1268130, 1268524, 1268910, 1269305, 1269705, 1270094, 1270482, 1270883]","[1265061, 1265480, 1265872, 1266275, 1266679, 1267050, 1267432, 1267828, 1268225, 1268628, 1269020, 1269410, 1269764, 1270189, 1270579, 1270979]","[87, 65, 47, 80, 63, 18, 149, 146, 5, 218, 225, 234, 160, 165, 149, 168]","[1264987, 1265411, 1265781, 1266173, 1266563, 1266941, 1267347, 1267736, 1268135, 1268528, 1268915, 1269310, 1269710, 1270100, 1270488, 1270889]","[1261872, 1262272, 1262672, 1263072, 1263472, 1263873, 1264272, 1264672, 1265003, 1265426, 1265798, 1266189, 1266578, 1266956, 1267361, 1267751, 1268150, 1268544, 1268930, 1269325, 1269725, 1270114, 1270502, 1270903]",68,EM,L,R,ITMSR,1.1
1,600,trial,0,65,65,65,trial,"['S', 'S', 'S', 'S', 'C', 'C', 'C', 'C', 'C', 'C', 'C', 'C', 'C', 'C', 'C', 'C', 'C', 'C', 'C', 'C']","[1278889, 1279491, 1280099, 1280688, 1281290, 1281842, 1282437, 1282978, 1283554, 1284065, 1284709, 1285235, 1285822, 1286414, 1286988, 1287520, 1288133, 1288672, 1289236, 1289788]","[1279003, 1279579, 1280184, 1280765, 1281385, 1281921, 1282546, 1283101, 1283636, 1284150, 1284807, 1285360, 1285913, 1286499, 1287078, 1287622, 1288208, 1288772, 1289347, 1289907]","[227, 69, 155, 149, 177, 210, 203, 226, 231, 249, 250, 135, 8, 180, 167, 111, 47, 149, 105, 143]","[1278895, 1279497, 1280104, 1280695, 1281296, 1281848, 1282443, 1282984, 1283559, 1284069, 1284714, 1285241, 1285830, 1286420, 1286994, 1287527, 1288140, 1288678, 1289242, 1289794]","[1276604, 1277203, 1277803, 1278403, 1279003, 1279603, 1280203, 1280803, 1281310, 1281862, 1282457, 1282998, 1283574, 1284085, 1284729, 1285255, 1285842, 1286434, 1287008, 1287540, 1288153, 1288692, 1289256, 1289808]",68,EM,L,R,ITMSR,1.1
1,400,trial,0,66,66,66,trial,"['S', 'S', 'S', 'S', 'C', 'C', 'C', 'C', 'C', 'C', 'C', 'C', 'C', 'C', 'C', 'C', 'C', 'C', 'C', 'C']","[1296799, 1297165, 1297532, 1297909, 1298319, 1298704, 1299058, 1299460, 1299825, 1300213, 1300587, 1301015, 1301416, 1301758, 1302172, 1302572, 1302948, 1303336, 1303727, 1304099]","[1296871, 1297259, 1297651, 1298024, 1298419, 1298799, 1299179, 1299544, 1299953, 1300326, 1300672, 1301097, 1301504, 1301861, 1302270, 1302652, 1303033, 1303432, 1303834, 1304192]","[38, 54, 56, 14, 215, 174, 253, 17, 27, 243, 241, 255, 218, 209, 218, 216, 168, 169, 210, 184]","[1296803, 1297169, 1297537, 1297913, 1298324, 1298710, 1299063, 1299465, 1299829, 1300218, 1300592, 1301020, 1301422, 1301763, 1302178, 1302577, 1302955, 1303342, 1303732, 1304104]","[1295247, 1295647, 1296047, 1296447, 1296847, 1297247, 1297647, 1298048, 1298339, 1298724, 1299078, 1299480, 1299845, 1300233, 1300608, 1301036, 1301436, 1301778, 1302192, 1302592, 1302968, 1303356, 1303747, 1304119]",68,EM,L,R,ITMSR,1.1
3,400,trial,0,67,67,67,trial,"['S', 'S', 'S', 'S', 'S', 'C', 'C', 'C', 'C', 'C', 'C', 'C', 'C', 'C', 'C', 'C', 'C', 'C', 'C', 'C', 'C']","[1311457, 1311811, 1312156, 1312534, 1312927, 1313357, 1313673, 1314025, 1314381, 1314741, 1315096, 1315483, 1315835, 1316219, 1316578, 1316978, 1317334, 1317659, 1318067, 1318434, 1318770]","[1311528, 1311869, 1312277, 1312635, 1313026, 1313445, 1313740, 1314107, 1314469, 1314845, 1315188, 1315566, 1315931, 1316304, 1316670, 1317057, 1317440, 1317763, 1318151, 1318492, 1318864]","[81, 233, 64, 216, 10, 244, 213, 166, 228, 205, 214, 212, 203, 205, 0, 171, 0, 202, 210, 203, 202]","[1311460, 1311816, 1312159, 1312538, 1312931, 1313362, 1313678, 1314030, 1314385, 1314745, 1315100, 1315487, 1315841, 1316224, 1316583, 1316983, 1317338, 1317664, 1318072, 1318439, 1318775]","[1309921, 1310320, 1310721, 1311120, 1311520, 1311920, 1312320, 1312720, 1313377, 1313693, 1314045, 1314401, 1314761, 1315117, 1315503, 1315855, 1316239, 1316598, 1316998, 1317354, 1317679, 1318087, 1318454, 1318790]",68,EM,L,R,ITMSR,1.1
0,600,trial,0,68,68,68,trial,"['S', 'S', 'S', 'S', 'S', 'C', 'C', 'C', 'C', 'C', 'C', 'C', 'C', 'C', 'C', 'C', 'C', 'C', 'C', 'C', 'C']","[1325978, 1326619, 1327237, 1327816, 1328417, 1329038, 1329602, 1330179, 1330747, 1331362, 1331943, 1332595, 1333165, 1333755, 1334345, 1334930, 1335515, 1336082, 1336672, 1337224, 1337793]","[1326103, 1326751, 1327365, 1327940, 1328542, 1329155, 1329698, 1330257, 1330853, 1331462, 1332057, 1332671, 1333242, 1333840, 1334427, 1335033, 1335598, 1336182, 1336770, 1337324, 1337888]","[86, 78, 118, 87, 99, 83, 250, 31, 49, 18, 8, 14, 250, 20, 14, 2, 241, 36, 40, 239, 250]","[1325981, 1326622, 1327306, 1327821, 1328484, 1329098, 1329608, 1330184, 1330811, 1331367, 1332006, 1332599, 1333169, 1333761, 1334350, 1334935, 1335548, 1336133, 1336728, 1337274, 1337799]","[1324255, 1324855, 1325455, 1326055, 1326655, 1327255, 1327855, 1328455, 1329058, 1329623, 1330199, 1330767, 1331382, 1331963, 1332615, 1333185, 1333775, 1334365, 1334950, 1335535, 1336102, 1336692, 1337244, 1337814]",68,EM,L,R,ITMSR,1.1
5,600,trial,0,69,69,69,trial,"['S', 'S', 'S', 'S', 'S', 'C', 'C', 'C', 'C', 'C', 'C', 'C', 'C', 'C', 'C', 'C', 'C', 'C', 'C', 'C', 'C']","[1345146, 1345688, 1346271, 1346899, 1347468, 1348090, 1348672, 1349271, 1349813, 1350371, 1350957, 1351501, 1352077, 1352622, 1353216, 1353781, 1354343, 1354918, 1355466, 1356008, 1356589]","[1345218, 1345755, 1346345, 1346969, 1347546, 1348169, 1348770, 1349351, 1349892, 1350462, 1351054, 1351603, 1352172, 1352731, 1353315, 1353876, 1354422, 1355021, 1355546, 1356124, 1356707]","[8, 126, 153, 107, 84, 32, 61, 89, 55, 40, 53, 83, 57, 47, 58, 26, 66, 46, 64, 63, 30]","[1345152, 1345691, 1346274, 1346903, 1347472, 1348096, 1348676, 1349275, 1349817, 1350376, 1350961, 1351505, 1352081, 1352626, 1353220, 1353785, 1354347, 1354923, 1355470, 1356012, 1356593]","[1343389, 1343989, 1344589, 1345189, 1345789, 1346390, 1346989, 1347589, 1348110, 1348692, 1349292, 1349833, 1350391, 1350977, 1351521, 1352097, 1352642, 1353236, 1353801, 1354363, 1354938, 1355486, 1356028, 1356609]",68,EM,L,R,ITMSR,1.1
2,400,trial,0,70,70,70,trial,"['S', 'S', 'S', 'S', 'C', 'C', 'C', 'C', 'C', 'C', 'C', 'C', 'C', 'C', 'C', 'C', 'C', 'C', 'C', 'C']","[1363780, 1364160, 1364557, 1364936, 1365327, 1365722, 1366078, 1366447, 1366807, 1367201, 1367587, 1367980, 1368342, 1368763, 1369107, 1369518, 1369893, 1370291, 1370695, 1371082]","[1363876, 1364270, 1364665, 1365066, 1365450, 1365820, 1366201, 1366560, 1366919, 1367318, 1367701, 1368078, 1368446, 1368857, 1369206, 1369604, 1369977, 1370379, 1370778, 1371165]","[162, 114, 118, 106, 62, 36, 109, 101, 89, 78, 46, 45, 20, 28, 42, 238, 238, 239, 97, 45]","[1363783, 1364164, 1364560, 1364940, 1365331, 1365726, 1366082, 1366450, 1366811, 1367205, 1367591, 1367984, 1368347, 1368768, 1369111, 1369522, 1369899, 1370296, 1370699, 1371087]","[1362257, 1362656, 1363056, 1363457, 1363856, 1364256, 1364656, 1365056, 1365347, 1365742, 1366098, 1366467, 1366828, 1367221, 1367607, 1368000, 1368363, 1368783, 1369127, 1369538, 1369913, 1370311, 1370715, 1371102]",68,EM,L,R,ITMSR,1.1
4,400,trial,0,71,71,71,trial,"['S', 'S', 'S', 'S', 'C', 'C', 'C', 'C', 'C', 'C', 'C', 'C', 'C', 'C', 'C', 'C', 'C', 'C', 'C', 'C']","[1378048, 1378417, 1378793, 1379172, 1379602, 1380021, 1380382, 1380783, 1381150, 1381512, 1381893, 1382264, 1382677, 1383040, 1383422, 1383735, 1384139, 1384532, 1384916, 1385293]","[1378153, 1378536, 1378936, 1379313, 1379717, 1380125, 1380502, 1380902, 1381252, 1381625, 1382006, 1382386, 1382787, 1383148, 1383503, 1383853, 1384257, 1384648, 1385021, 1385389]","[95, 69, 80, 112, 86, 44, 54, 72, 40, 39, 38, 57, 65, 9, 253, 213, 254, 42, 42, 50]","[1378051, 1378421, 1378797, 1379175, 1379606, 1380025, 1380385, 1380787, 1381153, 1381516, 1381896, 1382268, 1382680, 1383044, 1383427, 1383740, 1384143, 1384537, 1384922, 1385298]","[1376528, 1376928, 1377328, 1377728, 1378128, 1378528, 1378928, 1379329, 1379622, 1380041, 1380402, 1380803, 1381170, 1381532, 1381913, 1382284, 1382697, 1383060, 1383442, 1383755, 1384159, 1384552, 1384936, 1385313]",68,EM,L,R,ITMSR,1.1
1,400,trial,0,72,72,72,trial,"['S', 'S', 'S', 'S', 'C', 'C', 'C', 'C', 'C', 'C', 'C', 'C', 'C', 'C', 'C', 'C', 'C', 'C', 'C', 'C']","[1392616, 1393015, 1393406, 1393781, 1394177, 1394600, 1394998, 1395399, 1395808, 1396193, 1396583, 1396942, 1397377, 1397738, 1398154, 1398537, 1398951, 1399319, 1399708, 1400109]","[1392727, 1393157, 1393540, 1393901, 1394324, 1394714, 1395147, 1395522, 1395911, 1396313, 1396712, 1397067, 1397487, 1397846, 1398274, 1398648, 1399044, 1399447, 1399808, 1400236]","[65, 79, 49, 76, 52, 56, 58, 68, 61, 56, 77, 46, 71, 23, 25, 3, 234, 255, 25, 26]","[1392619, 1393019, 1393412, 1393784, 1394181, 1394606, 1395002, 1395402, 1395812, 1396197, 1396587, 1396946, 1397381, 1397743, 1398158, 1398541, 1398956, 1399324, 1399713, 1400114]","[1391085, 1391485, 1391885, 1392285, 1392685, 1393085, 1393485, 1393885, 1394197, 1394620, 1395018, 1395419, 1395828, 1396213, 1396603, 1396962, 1397397, 1397758, 1398174, 1398557, 1398971, 1399340, 1399728, 1400129]",68,EM,L,R,ITMSR,1.1
3,600,trial,0,73,73,73,trial,"['S', 'S', 'S', 'S', 'S', 'C', 'C', 'C', 'C', 'C', 'C', 'C', 'C', 'C', 'C', 'C', 'C', 'C', 'C', 'C', 'C']","[1407580, 1408169, 1408762, 1409397, 1410024, 1410662, 1411265, 1411886, 1412442, 1413033, 1413600, 1414209, 1414801, 1415399, 1415992, 1416602, 1417162, 1417749, 1418341, 1418909, 1419537]","[1407698, 1408368, 1409056, 1409685, 1410308, 1410937, 1411534, 1412117, 1412717, 1413283, 1413883, 1414491, 1415059, 1415641, 1416282, 1416860, 1417439, 1418057, 1418645, 1419227, 1419807]","[112, 139, 158, 161, 166, 158, 163, 166, 172, 170, 174, 171, 169, 159, 164, 165, 167, 169, 177, 181, 176]","[1407646, 1408280, 1408940, 1409587, 1410168, 1410818, 1411406, 1412018, 1412614, 1413207, 1413752, 1414383, 1414968, 1415539, 1416196, 1416798, 1417318, 1417892, 1418520, 1419101, 1419700]","[1405851, 1406451, 1407051, 1407651, 1408251, 1408851, 1409452, 1410051, 1410682, 1411286, 1411906, 1412462, 1413053, 1413620, 1414230, 1414821, 1415419, 1416012, 1416622, 1417182, 1417769, 1418361, 1418929, 1419557]",68,EM,L,R,ITMSR,1.1
0,400,trial,0,74,74,74,trial,"['S', 'S', 'S', 'S', 'C', 'C', 'C', 'C', 'C', 'C', 'C', 'C', 'C', 'C', 'C', 'C', 'C', 'C', 'C', 'C']","[1426535, 1426900, 1427305, 1427665, 1428063, 1428486, 1428885, 1429277, 1429655, 1430013, 1430401, 1430822, 1431205, 1431585, 1432013, 1432378, 1432752, 1433148, 1433548, 1433874]","[1426650, 1427024, 1427405, 1427795, 1428201, 1428609, 1429038, 1429398, 1429766, 1430150, 1430550, 1430930, 1431319, 1431719, 1432124, 1432507, 1432873, 1433248, 1433636, 1434003]","[165, 148, 132, 129, 133, 115, 132, 126, 106, 128, 131, 132, 143, 137, 134, 137, 117, 103, 113, 121]","[1426538, 1426904, 1427308, 1427668, 1428066, 1428489, 1428888, 1429281, 1429659, 1430017, 1430404, 1430825, 1431268, 1431644, 1432072, 1432381, 1432820, 1433151, 1433552, 1433878]","[1424991, 1425391, 1425792, 1426191, 1426591, 1426991, 1427391, 1427791, 1428083, 1428506, 1428905, 1429297, 1429676, 1430033, 1430421, 1430842, 1431225, 1431605, 1432033, 1432398, 1432772, 1433168, 1433568, 1433894]",68,EM,L,R,ITMSR,1.1
2,600,trial,0,75,75,75,trial,"['S', 'S', 'S', 'S', 'C', 'C', 'C', 'C', 'C', 'C', 'C', 'C', 'C', 'C', 'C', 'C', 'C', 'C', 'C', 'C']","[1441716, 1442332, 1442916, 1443486, 1444075, 1444633, 1445181, 1445739, 1446304, 1446867, 1447399, 1447963, 1448514, 1449053, 1449613, 1450149, 1450680, 1451254, 1451797, 1452351]","[1441849, 1442450, 1443038, 1443604, 1444187, 1444758, 1445318, 1445867, 1446412, 1446967, 1447502, 1448066, 1448643, 1449216, 1449759, 1450284, 1450823, 1451403, 1451969, 1452534]","[150, 144, 137, 103, 82, 103, 119, 112, 124, 102, 34, 101, 72, 62, 72, 101, 102, 94, 118, 103]","[1441779, 1442334, 1442919, 1443552, 1444135, 1444701, 1445185, 1445809, 1446308, 1446871, 1447462, 1447966, 1448518, 1449056, 1449690, 1450209, 1450683, 1451317, 1451894, 1452431]","[1439403, 1440002, 1440602, 1441202, 1441802, 1442402, 1443002, 1443602, 1444096, 1444653, 1445201, 1445760, 1446324, 1446887, 1447419, 1447983, 1448535, 1449073, 1449633, 1450169, 1450700, 1451274, 1451817, 1452371]",68,EM,L,R,ITMSR,1.1
0,600,trial,0,76,76,76,trial,"['S', 'S', 'S', 'S', 'S', 'C', 'C', 'C', 'C', 'C', 'C', 'C', 'C', 'C', 'C', 'C', 'C', 'C', 'C', 'C', 'C']","[1459879, 1460492, 1461023, 1461646, 1462230, 1462836, 1463392, 1463994, 1464566, 1465177, 1465732, 1466303, 1466870, 1467452, 1468014, 1468572, 1469115, 1469655, 1470192, 1470760, 1471280]","[1459958, 1460591, 1461124, 1461746, 1462326, 1462930, 1463495, 1464103, 1464672, 1465288, 1465852, 1466390, 1466964, 1467558, 1468109, 1468663, 1469185, 1469758, 1470285, 1470855, 1471398]","[171, 27, 4, 71, 99, 74, 69, 79, 106, 89, 75, 44, 105, 87, 73, 73, 63, 71, 69, 77, 92]","[1459884, 1460497, 1461028, 1461650, 1462234, 1462840, 1463446, 1464050, 1464622, 1465230, 1465736, 1466344, 1466874, 1467456, 1468018, 1468576, 1469120, 1469659, 1470197, 1470765, 1471284]","[1458165, 1458765, 1459365, 1459965, 1460566, 1461165, 1461765, 1462365, 1462856, 1463412, 1464014, 1464586, 1465197, 1465752, 1466323, 1466890, 1467472, 1468034, 1468592, 1469135, 1469675, 1470212, 1470780, 1471300]",68,EM,L,R,ITMSR,1.1
0,400,trial,0,77,77,77,trial,"['S', 'S', 'S', 'S', 'C', 'C', 'C', 'C', 'C', 'C', 'C', 'C', 'C', 'C', 'C', 'C', 'C', 'C', 'C', 'C']","[1478364, 1478737, 1479109, 1479480, 1479875, 1480257, 1480652, 1481047, 1481424, 1481826, 1482187, 1482594, 1482990, 1483382, 1483745, 1484163, 1484563, 1484951, 1485310, 1485754]","[1478461, 1478847, 1479238, 1479583, 1479982, 1480351, 1480747, 1481138, 1481512, 1481899, 1482273, 1482685, 1483073, 1483467, 1483844, 1484249, 1484642, 1485050, 1485435, 1485845]","[110, 106, 124, 115, 93, 92, 71, 37, 60, 32, 27, 10, 236, 230, 232, 209, 209, 174, 127, 134]","[1478367, 1478740, 1479113, 1479483, 1479878, 1480261, 1480656, 1481051, 1481428, 1481829, 1482190, 1482597, 1482994, 1483386, 1483749, 1484167, 1484568, 1484955, 1485316, 1485758]","[1476811, 1477211, 1477611, 1478011, 1478411, 1478811, 1479212, 1479611, 1479896, 1480278, 1480672, 1481067, 1481444, 1481846, 1482207, 1482614, 1483010, 1483402, 1483765, 1484183, 1484583, 1484972, 1485330, 1485774]",68,EM,L,R,ITMSR,1.1
3,600,trial,0,78,78,78,trial,"['S', 'S', 'S', 'S', 'C', 'C', 'C', 'C', 'C', 'C', 'C', 'C', 'C', 'C', 'C', 'C', 'C', 'C', 'C', 'C']","[1497942, 1498500, 1499070, 1499662, 1500273, 1500816, 1501347, 1501889, 1502417, 1502967, 1503499, 1504025, 1504608, 1505101, 1505598, 1506122, 1506642, 1507161, 1507697, 1508241]","[1498030, 1498635, 1499202, 1499770, 1500400, 1500954, 1501468, 1502027, 1502556, 1503081, 1503616, 1504150, 1504718, 1505205, 1505722, 1506250, 1506775, 1507283, 1507800, 1508356]","[117, 106, 96, 47, 56, 70, 71, 85, 81, 85, 70, 85, 93, 61, 86, 100, 114, 103, 88, 88]","[1497946, 1498503, 1499073, 1499666, 1500277, 1500820, 1501351, 1501893, 1502422, 1502970, 1503503, 1504029, 1504612, 1505105, 1505602, 1506125, 1506646, 1507164, 1507701, 1508245]","[1495611, 1496211, 1496811, 1497411, 1498011, 1498611, 1499211, 1499811, 1500293, 1500836, 1501367, 1501910, 1502437, 1502987, 1503519, 1504045, 1504628, 1505121, 1505618, 1506142, 1506662, 1507181, 1507717, 1508261]",68,EM,L,R,ITMSR,1.1
1,600,trial,0,79,79,79,trial,"['S', 'S', 'S', 'S', 'C', 'C', 'C', 'C', 'C', 'C', 'C', 'C', 'C', 'C', 'C', 'C', 'C', 'C', 'C', 'C']","[1516281, 1516838, 1517404, 1518029, 1518620, 1519191, 1519710, 1520258, 1520756, 1521301, 1521852, 1522398, 1522936, 1523492, 1524012, 1524538, 1525113, 1525648, 1526168, 1526687]","[1516393, 1516938, 1517528, 1518139, 1518746, 1519284, 1519825, 1520385, 1520873, 1521411, 1521946, 1522491, 1523068, 1523595, 1524125, 1524637, 1525232, 1525768, 1526284, 1526809]","[91, 92, 99, 88, 80, 100, 96, 41, 18, 46, 71, 236, 35, 77, 51, 45, 48, 45, 1, 68]","[1516339, 1516844, 1517455, 1518066, 1518675, 1519227, 1519714, 1520262, 1520806, 1521305, 1521856, 1522403, 1522941, 1523496, 1524058, 1524577, 1525117, 1525711, 1526173, 1526691]","[1513953, 1514552, 1515152, 1515752, 1516352, 1516952, 1517552, 1518152, 1518640, 1519211, 1519730, 1520278, 1520776, 1521321, 1521872, 1522418, 1522956, 1523512, 1524032, 1524558, 1525133, 1525668, 1526189, 1526707]",68,EM,L,R,ITMSR,1.1
3,400,trial,0,80,80,80,trial,"['S', 'S', 'S', 'S', 'S', 'C', 'C', 'C', 'C', 'C', 'C', 'C', 'C', 'C', 'C', 'C', 'C', 'C', 'C', 'C', 'C']","[1534001, 1534398, 1534786, 1535145, 1535531, 1535978, 1536334, 1536705, 1537074, 1537447, 1537859, 1538226, 1538613, 1538992, 1539375, 1539729, 1540104, 1540468, 1540856, 1541233, 1541601]","[1534108, 1534513, 1534894, 1535275, 1535669, 1536084, 1536444, 1536801, 1537180, 1537574, 1537980, 1538358, 1538742, 1539121, 1539494, 1539855, 1540230, 1540581, 1540971, 1541348, 1541720]","[69, 100, 53, 35, 13, 242, 208, 5, 249, 255, 10, 18, 25, 36, 23, 38, 28, 222, 251, 230, 7]","[1534006, 1534401, 1534790, 1535151, 1535614, 1536026, 1536340, 1536709, 1537079, 1537452, 1537863, 1538230, 1538617, 1538996, 1539379, 1539733, 1540109, 1540473, 1540860, 1541238, 1541606]","[1532484, 1532884, 1533284, 1533684, 1534084, 1534484, 1534884, 1535284, 1535998, 1536354, 1536726, 1537094, 1537467, 1537880, 1538246, 1538633, 1539012, 1539395, 1539749, 1540124, 1540488, 1540876, 1541253, 1541621]",68,EM,L,R,ITMSR,1.1
3,400,trial,0,81,81,81,trial,"['S', 'S', 'S', 'S', 'C', 'C', 'C', 'C', 'C', 'C', 'C', 'C', 'C', 'C', 'C', 'C', 'C', 'C', 'C', 'C']","[1548911, 1549305, 1549699, 1550077, 1550462, 1550871, 1551257, 1551656, 1552017, 1552429, 1552819, 1553209, 1553584, 1553980, 1554333, 1554752, 1555087, 1555465, 1555853, 1556284]","[1548987, 1549389, 1549806, 1550208, 1550574, 1550944, 1551332, 1551738, 1552104, 1552508, 1552910, 1553294, 1553672, 1554080, 1554437, 1554844, 1555171, 1555568, 1555945, 1556356]","[98, 76, 94, 115, 89, 69, 253, 247, 88, 66, 71, 16, 63, 60, 41, 18, 250, 228, 25, 3]","[1548915, 1549308, 1549702, 1550081, 1550466, 1550875, 1551261, 1551663, 1552021, 1552433, 1552823, 1553213, 1553588, 1553984, 1554336, 1554756, 1555092, 1555470, 1555856, 1556287]","[1547359, 1547759, 1548160, 1548559, 1548959, 1549359, 1549759, 1550159, 1550482, 1550892, 1551277, 1551676, 1552037, 1552449, 1552839, 1553229, 1553604, 1554000, 1554353, 1554772, 1555107, 1555485, 1555873, 1556304]",68,EM,L,R,ITMSR,1.1
3,600,trial,0,82,82,82,trial,"['S', 'S', 'S', 'S', 'S', 'S', 'C', 'C', 'C', 'C', 'C', 'C', 'C', 'C', 'C', 'C', 'C', 'C', 'C', 'C', 'C', 'C']","[1563106, 1563700, 1564344, 1564936, 1565555, 1566158, 1566732, 1567303, 1567889, 1568512, 1569095, 1569693, 1570282, 1570839, 1571404, 1571983, 1572542, 1573128, 1573684, 1574269, 1574830, 1575402]","[1563297, 1563935, 1564601, 1565175, 1565788, 1566384, 1566948, 1567594, 1568214, 1568803, 1569385, 1569977, 1570536, 1571083, 1571664, 1572237, 1572817, 1573367, 1573971, 1574522, 1575072, 1575664]","[148, 150, 172, 149, 149, 165, 157, 185, 185, 185, 177, 175, 163, 173, 161, 160, 171, 164, 178, 160, 172, 165]","[1563203, 1563791, 1564480, 1565040, 1565674, 1566275, 1566843, 1567486, 1568088, 1568705, 1569269, 1569876, 1570410, 1571003, 1571560, 1572163, 1572720, 1573236, 1573848, 1574456, 1574976, 1575576]","[1561984, 1562584, 1563184, 1563784, 1564384, 1564984, 1565584, 1566184, 1566752, 1567323, 1567909, 1568532, 1569115, 1569713, 1570302, 1570860, 1571424, 1572003, 1572562, 1573148, 1573704, 1574289, 1574850, 1575422]",68,EM,L,R,ITMSR,1.1
4,600,trial,0,83,83,83,trial,"['S', 'S', 'S', 'S', 'S', 'C', 'C', 'C', 'C', 'C', 'C', 'C', 'C', 'C', 'C', 'C', 'C', 'C', 'C', 'C', 'C']","[1582656, 1583269, 1583852, 1584481, 1585067, 1585665, 1586268, 1586854, 1587432, 1587991, 1588544, 1589135, 1589721, 1590251, 1590817, 1591341, 1591902, 1592478, 1593017, 1593595, 1594123]","[1582861, 1583417, 1584022, 1584624, 1585199, 1585773, 1586378, 1586979, 1587566, 1588113, 1588687, 1589258, 1589854, 1590396, 1590989, 1591468, 1592100, 1592673, 1593183, 1593771, 1594255]","[149, 126, 133, 147, 140, 93, 104, 135, 128, 120, 121, 121, 143, 89, 147, 86, 156, 134, 152, 139, 137]","[1582748, 1583344, 1583936, 1584556, 1585145, 1585716, 1586319, 1586915, 1587513, 1588050, 1588625, 1589200, 1589788, 1590332, 1590909, 1591409, 1592001, 1592482, 1593115, 1593669, 1594199]","[1580961, 1581561, 1582161, 1582761, 1583362, 1583962, 1584562, 1585162, 1585685, 1586288, 1586874, 1587452, 1588012, 1588564, 1589155, 1589741, 1590272, 1590837, 1591361, 1591922, 1592498, 1593037, 1593615, 1594143]",68,EM,L,R,ITMSR,1.1
1,600,trial,0,84,84,84,trial,"['S', 'S', 'S', 'S', 'S', 'S', 'C', 'C', 'C', 'C', 'C', 'C', 'C', 'C', 'C', 'C', 'C', 'C', 'C', 'C', 'C', 'C']","[1601061, 1601664, 1602262, 1602806, 1603443, 1604023, 1604593, 1605166, 1605708, 1606279, 1606803, 1607376, 1607917, 1608478, 1609038, 1609584, 1610152, 1610682, 1611239, 1611762, 1612358, 1612875]","[1601189, 1601810, 1602375, 1602914, 1603554, 1604139, 1604704, 1605280, 1605815, 1606383, 1606949, 1607541, 1608121, 1608677, 1609233, 1609806, 1610308, 1610870, 1611455, 1611973, 1612529, 1613059]","[123, 99, 4, 5, 117, 51, 71, 106, 137, 138, 150, 158, 170, 168, 176, 162, 164, 159, 165, 149, 148, 146]","[1601064, 1601668, 1602265, 1602810, 1603446, 1604027, 1604597, 1605170, 1605711, 1606283, 1606806, 1607379, 1607920, 1608481, 1609040, 1609587, 1610155, 1610685, 1611241, 1611765, 1612361, 1612877]","[1599933, 1600533, 1601133, 1601733, 1602333, 1602933, 1603533, 1604133, 1604613, 1605186, 1605728, 1606299, 1606823, 1607396, 1607938, 1608498, 1609058, 1609604, 1610172, 1610702, 1611259, 1611782, 1612378, 1612895]",68,EM,L,R,ITMSR,1.1
5,600,trial,0,85,85,85,trial,"['S', 'S', 'S', 'S', 'S', 'S', 'C', 'C', 'C', 'C', 'C', 'C', 'C', 'C', 'C', 'C', 'C', 'C', 'C', 'C', 'C', 'C']","[1619514, 1620140, 1620753, 1621323, 1621903, 1622545, 1623123, 1623682, 1624216, 1624784, 1625334, 1625879, 1626445, 1627002, 1627565, 1628083, 1628653, 1629203, 1629768, 1630300, 1630846, 1631429]","[1619641, 1620282, 1620864, 1621439, 1622024, 1622664, 1623237, 1623784, 1624320, 1624893, 1625443, 1626020, 1626570, 1627104, 1627674, 1628207, 1628770, 1629327, 1629907, 1630420, 1630996, 1631535]","[162, 162, 145, 145, 136, 109, 127, 127, 136, 138, 130, 127, 111, 131, 135, 136, 124, 128, 119, 120, 71, 105]","[1619517, 1620143, 1620756, 1621325, 1621906, 1622602, 1623177, 1623727, 1624218, 1624787, 1625337, 1625953, 1626510, 1627005, 1627568, 1628086, 1628656, 1629206, 1629836, 1630303, 1630917, 1631432]","[1618435, 1619035, 1619635, 1620235, 1620835, 1621435, 1622035, 1622635, 1623143, 1623702, 1624237, 1624804, 1625354, 1625900, 1626465, 1627022, 1627585, 1628103, 1628674, 1629223, 1629788, 1630320, 1630866, 1631449]",68,EM,L,R,ITMSR,1.1
1,400,trial,0,86,86,86,trial,"['S', 'S', 'S', 'S', 'C', 'C', 'C', 'C', 'C', 'C', 'C', 'C', 'C', 'C', 'C', 'C', 'C', 'C', 'C', 'C']","[1638662, 1639055, 1639453, 1639832, 1640204, 1640629, 1640986, 1641363, 1641732, 1642124, 1642473, 1642845, 1643233, 1643602, 1643977, 1644332, 1644735, 1645077, 1645460, 1645832]","[1638776, 1639173, 1639612, 1639968, 1640374, 1640740, 1641146, 1641527, 1641890, 1642259, 1642587, 1642977, 1643347, 1643704, 1644100, 1644482, 1644877, 1645229, 1645580, 1645967]","[188, 175, 186, 155, 167, 144, 170, 175, 177, 162, 156, 167, 167, 168, 153, 161, 171, 142, 150, 154]","[1638664, 1639057, 1639455, 1639835, 1640206, 1640632, 1640988, 1641365, 1641734, 1642127, 1642475, 1642847, 1643235, 1643604, 1643979, 1644334, 1644737, 1645080, 1645463, 1645835]","[1637113, 1637513, 1637913, 1638313, 1638713, 1639113, 1639513, 1639913, 1640224, 1640649, 1641006, 1641383, 1641752, 1642144, 1642493, 1642865, 1643253, 1643622, 1643997, 1644352, 1644755, 1645097, 1645480, 1645852]",68,EM,L,R,ITMSR,1.1
4,600,trial,0,87,87,87,trial,"['S', 'S', 'S', 'S', 'C', 'C', 'C', 'C', 'C', 'C', 'C', 'C', 'C', 'C', 'C', 'C', 'C', 'C', 'C', 'C']","[1653620, 1654213, 1654755, 1655344, 1655937, 1656441, 1656970, 1657497, 1658067, 1658602, 1659127, 1659649, 1660196, 1660724, 1661254, 1661774, 1662277, 1662778, 1663298, 1663826]","[1653750, 1654340, 1654901, 1655500, 1656070, 1656599, 1657110, 1657647, 1658213, 1658772, 1659312, 1659832, 1660334, 1660913, 1661456, 1661939, 1662414, 1662928, 1663433, 1663969]","[167, 164, 153, 127, 144, 153, 163, 173, 169, 170, 180, 177, 164, 178, 168, 173, 174, 162, 153, 173]","[1653622, 1654215, 1654757, 1655347, 1655940, 1656443, 1656972, 1657499, 1658070, 1658604, 1659129, 1659651, 1660199, 1660726, 1661256, 1661776, 1662279, 1662781, 1663301, 1663828]","[1651298, 1651898, 1652498, 1653098, 1653698, 1654298, 1654898, 1655498, 1655957, 1656461, 1656990, 1657517, 1658087, 1658622, 1659147, 1659669, 1660216, 1660744, 1661274, 1661794, 1662297, 1662798, 1663319, 1663846]",68,EM,L,R,ITMSR,1.1
5,400,trial,0,88,88,88,trial,"['S', 'S', 'C', 'C', 'C', 'C', 'C', 'C', 'C', 'C', 'C', 'C', 'C', 'C', 'C', 'C', 'C', 'C']","[1671577, 1671996, 1672380, 1672762, 1673146, 1673546, 1673942, 1674319, 1674719, 1675087, 1675474, 1675860, 1676229, 1676611, 1676967, 1677340, 1677746, 1678121]","[1671673, 1672077, 1672469, 1672872, 1673252, 1673649, 1674044, 1674444, 1674826, 1675200, 1675601, 1675985, 1676362, 1676742, 1677079, 1677448, 1677857, 1678219]","[122, 115, 111, 89, 94, 102, 82, 103, 115, 112, 90, 95, 125, 121, 116, 111, 107, 100]","[1671580, 1671999, 1672383, 1672765, 1673149, 1673550, 1673945, 1674322, 1674722, 1675089, 1675542, 1675863, 1676294, 1676614, 1676971, 1677343, 1677749, 1678125]","[1669258, 1669657, 1670057, 1670457, 1670857, 1671257, 1671657, 1672057, 1672400, 1672782, 1673166, 1673566, 1673962, 1674339, 1674739, 1675107, 1675494, 1675880, 1676249, 1676632, 1676987, 1677360, 1677766, 1678141]",68,EM,L,R,ITMSR,1.1
5,600,trial,0,89,89,89,trial,"['S', 'S', 'S', 'S', 'S', 'C', 'C', 'C', 'C', 'C', 'C', 'C', 'C', 'C', 'C', 'C', 'C', 'C', 'C', 'C', 'C']","[1685261, 1685870, 1686464, 1687021, 1687608, 1688162, 1688704, 1689259, 1689811, 1690394, 1690938, 1691513, 1692068, 1692609, 1693155, 1693720, 1694263, 1694832, 1695368, 1695930, 1696445]","[1685385, 1685990, 1686588, 1687158, 1687740, 1688300, 1688857, 1689373, 1689904, 1690500, 1691064, 1691660, 1692205, 1692719, 1693293, 1693851, 1694408, 1694953, 1695506, 1696086, 1696601]","[127, 135, 138, 130, 112, 67, 100, 144, 110, 119, 116, 131, 111, 68, 69, 107, 105, 76, 126, 131, 119]","[1685264, 1685873, 1686467, 1687024, 1687611, 1688165, 1688707, 1689262, 1689815, 1690397, 1690941, 1691516, 1692071, 1692612, 1693222, 1693724, 1694266, 1694836, 1695371, 1695934, 1696448]","[1683576, 1684176, 1684776, 1685377, 1685976, 1686576, 1687176, 1687776, 1688182, 1688724, 1689279, 1689831, 1690414, 1690958, 1691533, 1692088, 1692630, 1693175, 1693741, 1694283, 1694852, 1695388, 1695950, 1696465]",68,EM,L,R,ITMSR,1.1
0,600,trial,0,90,90,90,trial,"['S', 'S', 'S', 'S', 'S', 'C', 'C', 'C', 'C', 'C', 'C', 'C', 'C', 'C', 'C', 'C', 'C', 'C', 'C', 'C', 'C']","[1703668, 1704282, 1704859, 1705468, 1706052, 1706679, 1707281, 1707833, 1708410, 1708976, 1709549, 1710109, 1710700, 1711261, 1711818, 1712391, 1712926, 1713506, 1714037, 1714577, 1715145]","[1703775, 1704406, 1705029, 1705581, 1706190, 1706807, 1707424, 1707973, 1708547, 1709108, 1709662, 1710232, 1710820, 1711386, 1711939, 1712537, 1713114, 1713661, 1714198, 1714719, 1715329]","[84, 99, 99, 74, 105, 98, 109, 111, 106, 121, 117, 123, 112, 108, 101, 123, 143, 98, 136, 117, 122]","[1703671, 1704285, 1704862, 1705527, 1706120, 1706683, 1707363, 1707906, 1708485, 1709049, 1709608, 1710183, 1710771, 1711264, 1711821, 1712474, 1713024, 1713588, 1714134, 1714647, 1715233]","[1701945, 1702545, 1703145, 1703745, 1704345, 1704945, 1705545, 1706145, 1706699, 1707301, 1707853, 1708430, 1708996, 1709570, 1710129, 1710721, 1711281, 1711838, 1712411, 1712946, 1713526, 1714057, 1714597, 1715165]",68,EM,L,R,ITMSR,1.1
2,400,trial,0,91,91,91,trial,"['S', 'S', 'S', 'S', 'C', 'C', 'C', 'C', 'C', 'C', 'C', 'C', 'C', 'C', 'C', 'C', 'C', 'C', 'C', 'C']","[1722404, 1722812, 1723203, 1723593, 1723995, 1724418, 1724787, 1725174, 1725576, 1725941, 1726330, 1726726, 1727137, 1727516, 1727892, 1728296, 1728687, 1729043, 1729425, 1729789]","[1722506, 1722943, 1723345, 1723740, 1724136, 1724531, 1724925, 1725334, 1725717, 1726078, 1726467, 1726866, 1727251, 1727624, 1728006, 1728427, 1728796, 1729156, 1729544, 1729932]","[133, 127, 139, 138, 129, 119, 128, 128, 123, 114, 111, 121, 94, 82, 52, 76, 63, 81, 62, 79]","[1722406, 1722815, 1723276, 1723681, 1724071, 1724481, 1724860, 1725254, 1725647, 1726020, 1726412, 1726812, 1727195, 1727520, 1727896, 1728377, 1728738, 1729105, 1729429, 1729874]","[1720875, 1721274, 1721674, 1722074, 1722474, 1722874, 1723274, 1723674, 1724015, 1724438, 1724807, 1725194, 1725596, 1725961, 1726350, 1726746, 1727157, 1727536, 1727912, 1728316, 1728707, 1729063, 1729445, 1729809]",68,EM,L,R,ITMSR,1.1
5,400,trial,0,92,92,92,trial,"['S', 'S', 'S', 'C', 'C', 'C', 'C', 'C', 'C', 'C', 'C', 'C', 'C', 'C', 'C', 'C', 'C', 'C', 'C']","[1737032, 1737451, 1737817, 1738209, 1738595, 1738962, 1739324, 1739677, 1740047, 1740426, 1740798, 1741154, 1741515, 1741902, 1742256, 1742689, 1743057, 1743427, 1743805]","[1737139, 1737534, 1737926, 1738342, 1738714, 1739082, 1739437, 1739819, 1740184, 1740552, 1740908, 1741268, 1741601, 1742013, 1742373, 1742789, 1743167, 1743548, 1743907]","[130, 94, 98, 94, 86, 98, 90, 88, 92, 84, 96, 89, 98, 96, 91, 99, 78, 84, 67]","[1737089, 1737454, 1737820, 1738212, 1738598, 1738966, 1739328, 1739681, 1740050, 1740429, 1740802, 1741157, 1741519, 1741905, 1742259, 1742692, 1743060, 1743430, 1743808]","[1735128, 1735526, 1735926, 1736326, 1736726, 1737126, 1737526, 1737926, 1738229, 1738615, 1738982, 1739344, 1739697, 1740067, 1740446, 1740818, 1741174, 1741535, 1741922, 1742276, 1742709, 1743077, 1743448, 1743825]",68,EM,L,R,ITMSR,1.1
1,400,trial,0,93,93,93,trial,"['S', 'S', 'S', 'S', 'S', 'C', 'C', 'C', 'C', 'C', 'C', 'C', 'C', 'C', 'C', 'C', 'C', 'C', 'C', 'C', 'C']","[1750824, 1751200, 1751578, 1751949, 1752348, 1752744, 1753124, 1753478, 1753856, 1754217, 1754585, 1754956, 1755329, 1755695, 1756089, 1756424, 1756796, 1757158, 1757514, 1757907, 1758217]","[1750917, 1751306, 1751672, 1752039, 1752421, 1752856, 1753227, 1753564, 1753952, 1754334, 1754704, 1755058, 1755440, 1755802, 1756170, 1756534, 1756910, 1757289, 1757633, 1758005, 1758336]","[102, 92, 87, 73, 61, 77, 80, 71, 59, 35, 67, 53, 51, 43, 58, 71, 58, 47, 80, 91, 60]","[1750828, 1751204, 1751581, 1751953, 1752351, 1752748, 1753127, 1753482, 1753860, 1754221, 1754589, 1754959, 1755333, 1755699, 1756093, 1756427, 1756800, 1757161, 1757518, 1757911, 1758220]","[1749306, 1749706, 1750106, 1750506, 1750906, 1751306, 1751706, 1752107, 1752764, 1753144, 1753498, 1753876, 1754237, 1754605, 1754976, 1755350, 1755715, 1756109, 1756444, 1756816, 1757178, 1757534, 1757927, 1758237]",68,EM,L,R,ITMSR,1.1
0,400,trial,0,94,94,94,trial,"['S', 'S', 'S', 'S', 'C', 'C', 'C', 'C', 'C', 'C', 'C', 'C', 'C', 'C', 'C', 'C', 'C', 'C', 'C', 'C']","[1765344, 1765739, 1766132, 1766505, 1766892, 1767293, 1767695, 1768080, 1768460, 1768852, 1769243, 1769617, 1770018, 1770375, 1770764, 1771168, 1771473, 1771865, 1772262, 1772606]","[1765447, 1765836, 1766230, 1766602, 1767014, 1767403, 1767791, 1768184, 1768562, 1768956, 1769340, 1769724, 1770125, 1770474, 1770872, 1771253, 1771598, 1771975, 1772342, 1772701]","[118, 101, 90, 84, 74, 91, 78, 93, 94, 84, 63, 68, 37, 69, 35, 61, 50, 75, 36, 212]","[1765347, 1765742, 1766135, 1766508, 1766896, 1767297, 1767699, 1768083, 1768463, 1768855, 1769246, 1769620, 1770021, 1770378, 1770768, 1771172, 1771476, 1771868, 1772266, 1772611]","[1763800, 1764200, 1764600, 1765000, 1765400, 1765800, 1766200, 1766600, 1766913, 1767313, 1767715, 1768100, 1768480, 1768872, 1769263, 1769637, 1770038, 1770395, 1770784, 1771188, 1771493, 1771885, 1772282, 1772626]",68,EM,L,R,ITMSR,1.1
4,400,trial,0,95,95,95,trial,"['S', 'S', 'S', 'S', 'C', 'C', 'C', 'C', 'C', 'C', 'C', 'C', 'C', 'C', 'C', 'C', 'C', 'C', 'C', 'C']","[1779900, 1780301, 1780689, 1781043, 1781460, 1781874, 1782260, 1782652, 1783048, 1783410, 1783809, 1784170, 1784569, 1784941, 1785305, 1785723, 1786114, 1786499, 1786869, 1787226]","[1780005, 1780421, 1780801, 1781189, 1781588, 1781990, 1782364, 1782764, 1783152, 1783507, 1783908, 1784270, 1784668, 1785055, 1785421, 1785834, 1786220, 1786612, 1786976, 1787345]","[40, 30, 83, 94, 67, 21, 30, 60, 30, 53, 75, 65, 32, 40, 14, 43, 17, 254, 238, 7]","[1779904, 1780305, 1780692, 1781046, 1781465, 1781878, 1782264, 1782656, 1783052, 1783414, 1783813, 1784174, 1784573, 1784945, 1785309, 1785728, 1786118, 1786502, 1786874, 1787230]","[1778391, 1778789, 1779189, 1779589, 1779989, 1780389, 1780789, 1781189, 1781480, 1781894, 1782280, 1782672, 1783068, 1783430, 1783829, 1784190, 1784589, 1784962, 1785325, 1785743, 1786134, 1786519, 1786889, 1787246]",68,EM,L,R,ITMSR,1.1
2,600,trial,0,96,96,96,trial,"['S', 'S', 'S', 'S', 'S', 'C', 'C', 'C', 'C', 'C', 'C', 'C', 'C', 'C', 'C', 'C', 'C', 'C', 'C', 'C', 'C']","[1794734, 1795377, 1796016, 1796550, 1797139, 1797750, 1798302, 1798865, 1799442, 1799972, 1800517, 1801091, 1801614, 1802165, 1802735, 1803255, 1803789, 1804319, 1804869, 1805419, 1805966]","[1794904, 1795553, 1796148, 1796717, 1797287, 1797899, 1798467, 1799000, 1799584, 1800099, 1800642, 1801222, 1801745, 1802311, 1802876, 1803399, 1803902, 1804422, 1805022, 1805582, 1806111]","[132, 146, 111, 136, 115, 128, 90, 71, 81, 79, 89, 64, 51, 30, 49, 27, 28, 34, 103, 68, 53]","[1794736, 1795379, 1796019, 1796552, 1797142, 1797826, 1798305, 1798870, 1799445, 1799975, 1800521, 1801095, 1801617, 1802241, 1802813, 1803259, 1803792, 1804322, 1804950, 1805507, 1806035]","[1793016, 1793615, 1794215, 1794816, 1795416, 1796016, 1796616, 1797216, 1797770, 1798322, 1798885, 1799462, 1799992, 1800537, 1801111, 1801634, 1802185, 1802755, 1803275, 1803809, 1804339, 1804889, 1805440, 1805986]",68,EM,L,R,ITMSR,1.1
0,400,trial,0,97,97,97,trial,"['S', 'S', 'S', 'S', 'C', 'C', 'C', 'C', 'C', 'C', 'C', 'C', 'C', 'C', 'C', 'C', 'C', 'C', 'C', 'C']","[1812840, 1813212, 1813644, 1814009, 1814433, 1814790, 1815158, 1815558, 1815930, 1816306, 1816727, 1817085, 1817488, 1817851, 1818253, 1818644, 1819020, 1819393, 1819791, 1820187]","[1812931, 1813322, 1813738, 1814131, 1814533, 1814895, 1815273, 1815667, 1816053, 1816400, 1816844, 1817193, 1817581, 1817966, 1818366, 1818748, 1819125, 1819488, 1819887, 1820281]","[140, 171, 159, 164, 115, 86, 106, 126, 148, 106, 115, 117, 127, 112, 127, 124, 135, 149, 125, 133]","[1812843, 1813214, 1813647, 1814012, 1814436, 1814794, 1815162, 1815560, 1815933, 1816309, 1816730, 1817089, 1817490, 1817854, 1818256, 1818647, 1819023, 1819395, 1819794, 1820190]","[1811295, 1811695, 1812096, 1812495, 1812895, 1813295, 1813695, 1814095, 1814453, 1814810, 1815178, 1815578, 1815950, 1816326, 1816748, 1817105, 1817508, 1817871, 1818273, 1818664, 1819040, 1819413, 1819811, 1820207]",68,EM,L,R,ITMSR,1.1
2,400,trial,0,98,98,98,trial,"['S', 'S', 'S', 'S', 'S', 'C', 'C', 'C', 'C', 'C', 'C', 'C', 'C', 'C', 'C', 'C', 'C', 'C', 'C', 'C', 'C']","[1826696, 1827044, 1827445, 1827845, 1828218, 1828620, 1829035, 1829411, 1829784, 1830174, 1830553, 1830929, 1831345, 1831714, 1832095, 1832433, 1832850, 1833210, 1833595, 1833978, 1834359]","[1826716, 1827135, 1827534, 1827936, 1828337, 1828746, 1829122, 1829518, 1829869, 1830282, 1830665, 1831017, 1831398, 1831817, 1832204, 1832551, 1832970, 1833331, 1833708, 1834088, 1834472]","[175, 166, 153, 146, 133, 148, 147, 148, 136, 146, 86, 90, 100, 116, 120, 134, 129, 133, 125, 144, 130]","[1826701, 1827046, 1827448, 1827848, 1828220, 1828622, 1829038, 1829414, 1829787, 1830177, 1830556, 1830933, 1831348, 1831718, 1832099, 1832436, 1832853, 1833213, 1833598, 1833981, 1834362]","[1825543, 1825942, 1826342, 1826742, 1827142, 1827543, 1827942, 1828342, 1828640, 1829055, 1829431, 1829805, 1830194, 1830573, 1830949, 1831365, 1831734, 1832115, 1832453, 1832870, 1833230, 1833615, 1833998, 1834379]",68,EM,L,R,ITMSR,1.1
0,600,trial,0,99,99,99,trial,"['S', 'S', 'S', 'S', 'C', 'C', 'C', 'C', 'C', 'C', 'C', 'C', 'C', 'C', 'C', 'C', 'C', 'C', 'C', 'C']","[1842147, 1842729, 1843304, 1843866, 1844461, 1845011, 1845527, 1846046, 1846553, 1847085, 1847633, 1848124, 1848627, 1849122, 1849625, 1850163, 1850676, 1851179, 1851677, 1852184]","[1842256, 1842850, 1843407, 1843966, 1844575, 1845116, 1845655, 1846150, 1846666, 1847179, 1847737, 1848270, 1848787, 1849259, 1849766, 1850295, 1850778, 1851297, 1851780, 1852303]","[109, 129, 114, 109, 121, 110, 140, 119, 117, 112, 129, 133, 135, 118, 148, 127, 136, 124, 107, 115]","[1842150, 1842733, 1843307, 1843870, 1844464, 1845014, 1845530, 1846049, 1846557, 1847088, 1847635, 1848127, 1848630, 1849125, 1849628, 1850166, 1850679, 1851182, 1851680, 1852187]","[1839830, 1840429, 1841029, 1841629, 1842229, 1842829, 1843429, 1844029, 1844482, 1845031, 1845548, 1846066, 1846573, 1847105, 1847653, 1848144, 1848647, 1849142, 1849645, 1850183, 1850696, 1851199, 1851697, 1852205]",68,EM,L,R,ITMSR,1.1
