pitch,ioi,event,.thisRepN,.thisTrialN,.thisN,.thisIndex,event,tap_types,tap_times,release_times,peak_pressures,peak_times,tone_times,subject,experimenter,register,handedness,experiment,version,
,,SPR,0,-1,-1,0,SPR,"['P', 'P', 'P', 'P', 'P', 'P', 'P', 'P', 'P', 'P', 'P', 'P', 'P', 'P', 'P', 'P', 'P', 'P', 'P', 'P', 'P', 'P', 'P', 'P', 'P', 'P', 'P', 'P', 'P', 'P']","[27951, 28770, 29660, 30552, 31466, 32387, 33303, 34155, 35015, 35899, 36802, 37666, 38509, 39409, 40284, 41183, 42041, 42875, 43705, 44588, 45493, 46340, 47204, 48087, 48966, 49810, 50656, 51518, 52395, 53265]","[28086, 28860, 29737, 30639, 31555, 32467, 33396, 34246, 35120, 36008, 36892, 37767, 38602, 39505, 40370, 41257, 42117, 42933, 43806, 44667, 45579, 46417, 47278, 48169, 49042, 49896, 50757, 51621, 52473, 53343]","[234, 226, 49, 8, 20, 61, 47, 57, 72, 73, 22, 72, 84, 73, 127, 80, 25, 82, 74, 70, 60, 62, 92, 25, 63, 40, 75, 71, 69, 59]","[27956, 28774, 29664, 30557, 31470, 32390, 33307, 34158, 35020, 35904, 36807, 37671, 38513, 39413, 40288, 41187, 42046, 42880, 43709, 44592, 45498, 46344, 47208, 48090, 48971, 49815, 50661, 51522, 52398, 53269]",,55,SB,U,R,ITMSR,1.0,
4,500,practice,0,0,0,0,practice,"['S', 'S', 'S', 'S', 'S', 'S', 'C', 'C', 'C', 'C', 'C', 'C', 'C', 'C', 'C', 'C', 'C', 'C', 'C', 'C', 'C', 'C']","[117994, 118530, 119029, 119489, 120030, 120495, 121018, 121526, 122009, 122515, 123001, 123515, 124028, 124557, 125069, 125565, 126067, 126573, 127080, 127592, 128108, 128627]","[118115, 118617, 119090, 119596, 120096, 120606, 121102, 121601, 122104, 122624, 123089, 123602, 124093, 124624, 125161, 125652, 126145, 126651, 127160, 127675, 128186, 128708]","[25, 43, 192, 67, 133, 52, 9, 39, 52, 48, 50, 30, 61, 21, 32, 31, 18, 24, 43, 62, 42, 21]","[117998, 118531, 119036, 119493, 120047, 120499, 121022, 121529, 122012, 122520, 123005, 123518, 124033, 124561, 125072, 125569, 126071, 126576, 127083, 127596, 128111, 128631]","[117030, 117529, 118030, 118530, 119029, 119530, 120030, 120529, 121059, 121567, 122049, 122556, 123041, 123555, 124068, 124598, 125110, 125605, 126107, 126614, 127121, 127633, 128149, 128667]",55,SB,U,R,ITMSR,1.0,
1,500,practice,0,1,1,1,practice,"['S', 'S', 'S', 'S', 'S', 'S', 'C', 'C', 'C', 'C', 'C', 'C', 'C', 'C', 'C', 'C', 'C', 'C', 'C', 'C', 'C', 'C']","[135407, 135932, 136432, 136933, 137433, 137905, 138431, 138959, 139481, 139971, 140466, 140963, 141509, 142035, 142546, 143057, 143579, 144089, 144582, 145108, 145626, 146140]","[135495, 136032, 136528, 137017, 137520, 138007, 138521, 139040, 139574, 140071, 140548, 141072, 141616, 142151, 142656, 143134, 143672, 144181, 144698, 145212, 145725, 146243]","[44, 221, 14, 184, 187, 50, 33, 31, 23, 29, 50, 46, 29, 55, 32, 33, 16, 22, 51, 53, 77, 89]","[135410, 135932, 136432, 136933, 137433, 137909, 138434, 138963, 139484, 139974, 140469, 140966, 141512, 142039, 142551, 143062, 143583, 144092, 144586, 145113, 145629, 146143]","[134433, 134932, 135433, 135932, 136432, 136933, 137433, 137932, 138470, 138997, 139520, 140010, 140505, 141001, 141547, 142073, 142584, 143095, 143618, 144128, 144620, 145146, 145665, 146179]",55,SB,U,R,ITMSR,1.0,
2,500,practice,0,2,2,2,practice,"['S', 'S', 'S', 'S', 'S', 'S', 'C', 'C', 'C', 'C', 'C', 'C', 'C', 'C', 'C', 'C', 'C', 'C', 'C', 'C', 'C', 'C']","[152497, 152996, 153497, 153997, 154497, 154996, 155492, 156053, 156598, 157108, 157615, 158106, 158609, 159130, 159657, 160152, 160651, 161155, 161682, 162205, 162720, 163197]","[152570, 153094, 153615, 154080, 154582, 155094, 155587, 156133, 156683, 157209, 157688, 158196, 158706, 159207, 159765, 160247, 160748, 161259, 161747, 162302, 162824, 163309]","[111, 167, 59, 220, 129, 40, 62, 20, 44, 50, 17, 58, 40, 60, 51, 50, 81, 51, 16, 31, 56, 81]","[152523, 153034, 153501, 153997, 154527, 154996, 155495, 156057, 156602, 157111, 157619, 158110, 158613, 159134, 159661, 160156, 160654, 161159, 161685, 162209, 162724, 163201]","[151496, 151997, 152497, 152996, 153496, 153997, 154497, 154996, 155533, 156094, 156639, 157149, 157656, 158146, 158650, 159170, 159697, 160193, 160692, 161196, 161723, 162245, 162760, 163237]",55,SB,U,R,ITMSR,1.0,
3,500,practice,0,3,3,3,practice,"['S', 'S', 'S', 'S', 'S', 'S', 'S', 'C', 'C', 'C', 'C', 'C', 'C', 'C', 'C', 'C', 'C', 'C', 'C', 'C', 'C', 'C', 'C']","[169074, 169612, 170104, 170604, 171078, 171583, 172104, 172600, 173120, 173624, 174128, 174635, 175157, 175680, 176190, 176699, 177211, 177729, 178248, 178755, 179263, 179773, 180278]","[169164, 169707, 170187, 170698, 171181, 171688, 172194, 172687, 173222, 173747, 174241, 174753, 175244, 175791, 176300, 176811, 177325, 177852, 178364, 178877, 179377, 179895, 180389]","[213, 225, 33, 69, 4, 56, 150, 13, 25, 42, 50, 45, 39, 43, 39, 46, 37, 41, 47, 63, 65, 37, 23]","[169078, 169617, 170129, 170633, 171082, 171630, 172104, 172604, 173123, 173628, 174131, 174639, 175161, 175684, 176193, 176702, 177215, 177733, 178252, 178758, 179267, 179777, 180281]","[168604, 169105, 169605, 170104, 170604, 171105, 171604, 172104, 172640, 173159, 173664, 174167, 174673, 175196, 175719, 176230, 176739, 177250, 177769, 178286, 178795, 179303, 179812, 180317]",55,SB,U,R,ITMSR,1.0,
0,500,practice,0,4,4,4,practice,"['S', 'S', 'S', 'S', 'S', 'S', 'C', 'C', 'C', 'C', 'C', 'C', 'C', 'C', 'C', 'C', 'C', 'C', 'C', 'C', 'C', 'C']","[186742, 187243, 187743, 188242, 188719, 189243, 189743, 190238, 190760, 191239, 191741, 192238, 192739, 193219, 193736, 194250, 194741, 195259, 195778, 196280, 196799, 197301]","[186853, 187342, 187857, 188331, 188839, 189365, 189861, 190368, 190899, 191380, 191873, 192356, 192851, 193373, 193878, 194364, 194852, 195363, 195888, 196392, 196893, 197414]","[0, 160, 195, 146, 164, 197, 60, 73, 89, 87, 76, 83, 47, 57, 63, 56, 73, 48, 61, 51, 25, 85]","[186742, 187243, 187783, 188273, 188764, 189273, 189746, 190242, 190764, 191242, 191745, 192241, 192742, 193222, 193740, 194253, 194744, 195262, 195781, 196283, 196803, 197304]","[185743, 186243, 186742, 187243, 187743, 188242, 188742, 189243, 189784, 190278, 190800, 191280, 191781, 192278, 192780, 193260, 193776, 194290, 194782, 195300, 195819, 196321, 196840, 197342]",55,SB,U,R,ITMSR,1.0,
5,500,practice,0,5,5,5,practice,"['S', 'S', 'S', 'S', 'S', 'C', 'C', 'C', 'C', 'C', 'C', 'C', 'C', 'C', 'C', 'C', 'C', 'C', 'C', 'C', 'C']","[204359, 204888, 205358, 205863, 206389, 206855, 207366, 207909, 208412, 208922, 209412, 209923, 210411, 210916, 211407, 211932, 212438, 212953, 213440, 213957, 214459]","[204463, 204988, 205501, 205965, 206472, 206969, 207481, 208021, 208534, 209013, 209503, 209988, 210526, 211041, 211491, 212017, 212525, 213046, 213557, 214041, 214550]","[14, 220, 95, 20, 200, 86, 116, 79, 88, 65, 51, 252, 24, 56, 22, 249, 172, 35, 52, 17, 228]","[204363, 204917, 205361, 205865, 206415, 206858, 207369, 207912, 208415, 208926, 209416, 209926, 210415, 210919, 211410, 211935, 212442, 212956, 213443, 213959, 214462]","[202888, 203386, 203887, 204388, 204888, 205387, 205887, 206389, 206895, 207406, 207948, 208451, 208961, 209452, 209963, 210451, 210956, 211446, 211972, 212477, 212993, 213480, 213996, 214499]",55,SB,U,R,ITMSR,1.0,
4,400,trial,0,6,6,6,trial,"['S', 'S', 'S', 'S', 'S', 'S', 'S', 'C', 'C', 'C', 'C', 'C', 'C', 'C', 'C', 'C', 'C', 'C', 'C', 'C', 'C', 'C', 'C']","[224037, 224386, 224742, 225154, 225542, 225942, 226342, 226743, 227170, 227590, 227994, 228416, 228828, 229232, 229642, 230063, 230469, 230887, 231286, 231682, 232077, 232826, 233222]","[224147, 224463, 224825, 225238, 225642, 226027, 226450, 226850, 227270, 227685, 228117, 228531, 228943, 229343, 229757, 230183, 230590, 231023, 231411, 231825, 232210, 232866, 233340]","[234, 253, 239, 73, 78, 216, 19, 91, 107, 92, 113, 105, 93, 94, 90, 113, 120, 121, 111, 107, 115, 237, 81]","[224043, 224390, 224742, 225158, 225542, 225972, 226382, 226746, 227173, 227593, 227997, 228420, 228831, 229235, 229645, 230066, 230472, 230890, 231290, 231686, 232081, 232830, 233227]","[223542, 223941, 224342, 224742, 225141, 225542, 225942, 226342, 226784, 227211, 227631, 228034, 228457, 228869, 229272, 229683, 230104, 230509, 230928, 231326, 231723, 232118, 232866, 233263]",55,SB,U,R,ITMSR,1.0,
2,400,trial,0,7,7,7,trial,"['S', 'S', 'S', 'S', 'S', 'S', 'C', 'C', 'C', 'C', 'C', 'C', 'C', 'C', 'C', 'C', 'C', 'C', 'C', 'C', 'C', 'C']","[239818, 240219, 240619, 241019, 241389, 241783, 242181, 242583, 242987, 243389, 243773, 244168, 244580, 244953, 245345, 245739, 246148, 246536, 246922, 247313, 247693, 248093]","[239896, 240314, 240721, 241127, 241516, 241917, 242305, 242718, 243131, 243535, 243914, 244311, 244704, 245100, 245487, 245874, 246297, 246687, 247060, 247457, 247852, 248248]","[236, 0, 243, 82, 97, 93, 104, 101, 110, 87, 104, 104, 96, 114, 102, 80, 78, 101, 84, 82, 81, 75]","[239847, 240254, 240666, 241024, 241393, 241786, 242185, 242586, 242990, 243392, 243777, 244171, 244583, 244956, 245348, 245742, 246151, 246539, 246926, 247316, 247696, 248097]","[239019, 239419, 239818, 240219, 240619, 241018, 241419, 241818, 242222, 242624, 243027, 243430, 243814, 244208, 244621, 244994, 245386, 245780, 246189, 246577, 246963, 247354, 247734, 248133]",55,SB,U,R,ITMSR,1.0,
0,400,trial,0,8,8,8,trial,"['S', 'S', 'S', 'S', 'S', 'C', 'C', 'C', 'C', 'C', 'C', 'C', 'C', 'C', 'C', 'C', 'C', 'C', 'C', 'C', 'C']","[254842, 255243, 255609, 256043, 256443, 256822, 257220, 257626, 258029, 258429, 258812, 259226, 259629, 260017, 260432, 260834, 261243, 261634, 262036, 262427, 262838]","[254922, 255340, 255739, 256165, 256567, 256968, 257366, 257778, 258179, 258567, 258969, 259367, 259752, 260158, 260558, 260955, 261385, 261771, 262174, 262565, 262949]","[48, 0, 91, 30, 38, 94, 105, 117, 104, 107, 95, 114, 109, 75, 119, 99, 117, 113, 85, 100, 83]","[254845, 255271, 255612, 256093, 256490, 256826, 257224, 257630, 258033, 258434, 258817, 259230, 259632, 260021, 260435, 260838, 261248, 261638, 262040, 262431, 262842]","[253642, 254043, 254443, 254842, 255243, 255642, 256043, 256443, 256863, 257260, 257667, 258070, 258469, 258852, 259266, 259670, 260058, 260472, 260875, 261283, 261675, 262077, 262467, 262879]",55,SB,U,R,ITMSR,1.0,
5,400,trial,0,9,9,9,trial,"['S', 'S', 'S', 'S', 'S', 'C', 'C', 'C', 'C', 'C', 'C', 'C', 'C', 'C', 'C', 'C', 'C', 'C', 'C', 'C', 'C']","[269611, 270044, 270443, 270842, 271244, 271640, 272067, 272477, 272872, 273293, 273702, 274092, 274496, 274906, 275322, 275717, 276119, 276536, 276955, 277318, 277723]","[269730, 270162, 270579, 270968, 271372, 271773, 272189, 272622, 273045, 273442, 273845, 274246, 274630, 275051, 275467, 275886, 276274, 276678, 277085, 277474, 277886]","[103, 40, 38, 12, 59, 120, 130, 106, 136, 117, 98, 128, 112, 112, 118, 133, 124, 102, 111, 124, 113]","[269615, 270092, 270493, 270881, 271288, 271643, 272070, 272481, 272875, 273296, 273705, 274095, 274499, 274909, 275325, 275720, 276122, 276539, 276958, 277321, 277726]","[268443, 268843, 269244, 269642, 270044, 270443, 270842, 271244, 271680, 272107, 272517, 272912, 273333, 273741, 274131, 274536, 274946, 275361, 275757, 276159, 276576, 276995, 277357, 277763]",55,SB,U,R,ITMSR,1.0,
3,400,trial,0,10,10,10,trial,"['S', 'S', 'S', 'S', 'S', 'C', 'C', 'C', 'C', 'C', 'C', 'C', 'C', 'C', 'C', 'C', 'C', 'C', 'C', 'C', 'C']","[284328, 284763, 285162, 285562, 285940, 286359, 286761, 287158, 287577, 287959, 288368, 288770, 289176, 289580, 289980, 290395, 290789, 291195, 291618, 292001, 292371]","[284465, 284904, 285295, 285687, 286092, 286499, 286912, 287321, 287716, 288124, 288526, 288915, 289326, 289713, 290123, 290551, 290939, 291348, 291765, 292172, 292542]","[103, 68, 40, 36, 86, 119, 106, 124, 99, 127, 116, 130, 125, 117, 142, 120, 139, 136, 124, 136, 105]","[284333, 284811, 285207, 285602, 285941, 286362, 286765, 287160, 287581, 287962, 288371, 288773, 289179, 289583, 289983, 290398, 290792, 291198, 291621, 292004, 292450]","[283163, 283563, 283963, 284362, 284763, 285162, 285562, 285963, 286399, 286799, 287198, 287616, 287997, 288406, 288809, 289216, 289618, 290020, 290434, 290828, 291233, 291657, 292039, 292411]",55,SB,U,R,ITMSR,1.0,
3,600,trial,0,11,11,11,trial,"['S', 'S', 'S', 'S', 'S', 'S', 'C', 'C', 'C', 'C', 'C', 'C', 'C', 'C', 'C', 'C', 'C', 'C', 'C', 'C', 'C', 'C']","[299212, 299760, 300361, 300972, 301551, 302170, 302773, 303392, 304003, 304612, 305230, 305844, 306450, 307077, 307701, 308328, 308958, 309613, 310200, 310780, 311363, 311951]","[299375, 299959, 300619, 301165, 301743, 302377, 302985, 303564, 304159, 304775, 305393, 306004, 306641, 307248, 307845, 308507, 309123, 309730, 310356, 310963, 311536, 312137]","[102, 125, 120, 115, 110, 117, 117, 112, 121, 130, 120, 113, 125, 123, 109, 100, 131, 132, 144, 105, 124, 127]","[299215, 299763, 300364, 300975, 301554, 302173, 302776, 303395, 304006, 304615, 305232, 305847, 306453, 307080, 307704, 308332, 308961, 309616, 310203, 310782, 311365, 311954]","[298010, 298609, 299209, 299809, 300409, 301009, 301609, 302210, 302812, 303431, 304043, 304652, 305268, 305883, 306490, 307116, 307739, 308367, 308998, 309652, 310239, 310819, 311403, 311990]",55,SB,U,R,ITMSR,1.0,
2,400,trial,0,12,12,12,trial,"['S', 'S', 'S', 'S', 'S', 'S', 'C', 'C', 'C', 'C', 'C', 'C', 'C', 'C', 'C', 'C', 'C', 'C', 'C', 'C', 'C', 'C']","[318359, 318786, 319157, 319587, 319959, 320347, 320763, 321179, 321587, 322000, 322400, 322802, 323221, 323635, 324070, 324457, 324891, 325340, 325746, 326170, 326557, 326949]","[318471, 318903, 319319, 319707, 320104, 320506, 320912, 321339, 321748, 322142, 322555, 322944, 323363, 323778, 324198, 324580, 324953, 325437, 325841, 326281, 326676, 327084]","[64, 18, 121, 43, 124, 131, 134, 133, 142, 133, 125, 119, 113, 96, 110, 99, 83, 63, 76, 100, 71, 105]","[318363, 318830, 319161, 319630, 319962, 320350, 320768, 321182, 321591, 322003, 322403, 322805, 323224, 323638, 324073, 324460, 324894, 325343, 325750, 326174, 326561, 326952]","[317587, 317986, 318387, 318786, 319186, 319587, 319986, 320387, 320803, 321219, 321628, 322040, 322441, 322842, 323262, 323676, 324111, 324498, 324931, 325381, 325786, 326210, 326597, 326989]",55,SB,U,R,ITMSR,1.0,
5,400,trial,0,13,13,13,trial,"['S', 'S', 'S', 'S', 'S', 'S', 'S', 'C', 'C', 'C', 'C', 'C', 'C', 'C', 'C', 'C', 'C', 'C', 'C', 'C', 'C', 'C', 'C']","[332745, 333120, 333524, 333947, 334321, 334713, 335148, 335527, 335949, 336353, 336742, 337155, 337539, 337956, 338358, 338747, 339145, 339556, 339972, 340399, 340801, 341208, 341622]","[332857, 333256, 333681, 334064, 334453, 334875, 335265, 335672, 336096, 336509, 336887, 337294, 337688, 338128, 338510, 338902, 339312, 339715, 340131, 340545, 340960, 341361, 341760]","[7, 101, 47, 62, 122, 104, 80, 130, 130, 128, 141, 131, 140, 130, 134, 134, 127, 125, 109, 150, 119, 130, 97]","[332745, 333123, 333585, 333999, 334324, 334717, 335187, 335531, 335953, 336357, 336745, 337158, 337542, 337959, 338361, 338750, 339148, 339560, 339975, 340402, 340804, 341210, 341625]","[332347, 332745, 333147, 333547, 333947, 334347, 334747, 335148, 335566, 335988, 336393, 336782, 337195, 337579, 337995, 338398, 338787, 339184, 339596, 340012, 340439, 340841, 341248, 341661]",55,SB,U,R,ITMSR,1.0,
3,400,trial,0,14,14,14,trial,"['S', 'S', 'S', 'S', 'S', 'C', 'C', 'C', 'C', 'C', 'C', 'C', 'C', 'C', 'C', 'C', 'C', 'C', 'C', 'C', 'C']","[348333, 348725, 349137, 349528, 349928, 350309, 350725, 351143, 351554, 351949, 352345, 352737, 353136, 353555, 353952, 354337, 354732, 355144, 355514, 355922, 356334]","[348454, 348887, 349302, 349709, 350087, 350480, 350881, 351266, 351711, 352095, 352489, 352886, 353285, 353703, 354098, 354505, 354890, 355282, 355665, 356083, 356491]","[112, 139, 119, 121, 130, 143, 133, 130, 128, 136, 119, 141, 149, 146, 131, 140, 141, 123, 118, 146, 137]","[348337, 348728, 349139, 349532, 349931, 350311, 350729, 351147, 351557, 351952, 352349, 352741, 353138, 353558, 353955, 354341, 354735, 355147, 355518, 355926, 356337]","[347161, 347560, 347961, 348360, 348761, 349161, 349560, 349961, 350348, 350765, 351181, 351594, 351987, 352385, 352776, 353175, 353595, 353991, 354375, 354771, 355183, 355554, 355960, 356372]",55,SB,U,R,ITMSR,1.0,
1,600,trial,0,15,15,15,trial,"['S', 'S', 'S', 'S', 'S', 'S', 'C', 'C', 'C', 'C', 'C', 'C', 'C', 'C', 'C', 'C', 'C', 'C', 'C', 'C', 'C', 'C']","[363237, 363841, 364432, 365023, 365633, 366202, 366795, 367388, 367980, 368608, 369169, 369750, 370349, 370934, 371531, 372119, 372703, 373277, 373882, 374486, 375058, 375620]","[363438, 364077, 364637, 365190, 365791, 366389, 366958, 367555, 368167, 368766, 369340, 369908, 370489, 371095, 371665, 372276, 372852, 373448, 374022, 374635, 375235, 375803]","[119, 136, 114, 134, 140, 154, 129, 101, 108, 104, 139, 120, 97, 108, 95, 49, 134, 119, 134, 113, 100, 128]","[363240, 363845, 364436, 365027, 365636, 366204, 366799, 367391, 367984, 368613, 369172, 369753, 370351, 370938, 371534, 372202, 372706, 373280, 373885, 374489, 375061, 375623]","[362079, 362678, 363278, 363878, 364478, 365077, 365677, 366277, 366833, 367426, 368019, 368647, 369208, 369788, 370387, 370972, 371569, 372158, 372742, 373315, 373920, 374524, 375097, 375658]",55,SB,U,R,ITMSR,1.0,
0,400,trial,0,16,16,16,trial,"['S', 'S', 'S', 'S', 'S', 'S', 'C', 'C', 'C', 'C', 'C', 'C', 'C', 'C', 'C', 'C', 'C', 'C', 'C', 'C', 'C', 'C']","[382043, 382466, 382856, 383252, 383666, 384059, 384472, 384878, 385274, 385683, 386077, 386466, 386880, 387288, 387716, 388102, 388505, 388930, 389340, 389731, 390157, 390559]","[382168, 382613, 383024, 383431, 383818, 384239, 384635, 385059, 385437, 385839, 386234, 386614, 387009, 387437, 387848, 388263, 388662, 389070, 389507, 389884, 390315, 390728]","[39, 108, 141, 123, 113, 152, 144, 147, 129, 131, 148, 144, 121, 163, 147, 157, 146, 142, 145, 148, 148, 155]","[382046, 382467, 382859, 383255, 383667, 384062, 384475, 384881, 385277, 385686, 386080, 386469, 386883, 387290, 387719, 388105, 388508, 388932, 389342, 389734, 390159, 390561]","[381291, 381690, 382091, 382490, 382891, 383291, 383690, 384091, 384513, 384918, 385314, 385724, 386117, 386506, 386921, 387329, 387757, 388143, 388545, 388971, 389381, 389772, 390198, 390599]",55,SB,U,R,ITMSR,1.0,
4,600,trial,0,17,17,17,trial,"['S', 'S', 'S', 'S', 'S', 'S', 'C', 'C', 'C', 'C', 'C', 'C', 'C', 'C', 'C', 'C', 'C', 'C', 'C', 'C', 'C', 'C']","[397339, 397948, 398534, 399177, 399735, 400340, 400952, 401548, 402139, 402716, 403312, 403899, 404517, 405111, 405714, 406321, 406895, 407501, 408095, 408687, 409280, 409862]","[397487, 398113, 398690, 399302, 399892, 400515, 401085, 401703, 402267, 402869, 403440, 404045, 404637, 405249, 405833, 406435, 407031, 407635, 408206, 408798, 409407, 409976]","[107, 140, 151, 69, 143, 140, 139, 149, 146, 151, 152, 154, 153, 148, 138, 145, 141, 137, 128, 152, 134, 143]","[397342, 397953, 398537, 399208, 399738, 400344, 400955, 401551, 402142, 402719, 403315, 403903, 404519, 405115, 405718, 406324, 406898, 407503, 408098, 408690, 409283, 409864]","[396178, 396778, 397377, 397977, 398577, 399177, 399777, 400377, 400993, 401589, 402180, 402756, 403352, 403940, 404557, 405151, 405754, 406362, 406935, 407541, 408135, 408727, 409321, 409903]",55,SB,U,R,ITMSR,1.0,
5,600,trial,0,18,18,18,trial,"['S', 'S', 'S', 'S', 'S', 'S', 'C', 'C', 'C', 'C', 'C', 'C', 'C', 'C', 'C', 'C', 'C', 'C', 'C', 'C', 'C', 'C']","[416619, 417229, 417840, 418436, 419068, 419623, 420263, 420856, 421457, 422047, 422640, 423232, 423824, 424400, 425098, 425705, 426269, 426877, 427491, 428086, 428678, 429278]","[416756, 417359, 417969, 418558, 419183, 419753, 420384, 420981, 421590, 422179, 422764, 423376, 423951, 424510, 425220, 425832, 426409, 426989, 427611, 428204, 428793, 429401]","[133, 130, 144, 142, 102, 141, 140, 137, 140, 120, 127, 114, 125, 112, 141, 133, 132, 105, 120, 114, 117, 128]","[416622, 417233, 417844, 418440, 419110, 419627, 420267, 420860, 421460, 422050, 422643, 423236, 423828, 424404, 425101, 425708, 426272, 426881, 427494, 428089, 428681, 429281]","[415469, 416068, 416668, 417269, 417869, 418468, 419068, 419668, 420302, 420895, 421496, 422086, 422679, 423272, 423864, 424439, 425138, 425745, 426308, 426916, 427531, 428126, 428718, 429318]",55,SB,U,R,ITMSR,1.0,
0,600,trial,0,19,19,19,trial,"['S', 'S', 'S', 'S', 'S', 'S', 'C', 'C', 'C', 'C', 'C', 'C', 'C', 'C', 'C', 'C', 'C', 'C', 'C', 'C', 'C', 'C']","[435950, 436562, 437115, 437720, 438321, 438923, 439542, 440156, 440757, 441340, 441932, 442549, 443150, 443747, 444358, 444939, 445561, 446167, 446774, 447367, 447972, 448535]","[436059, 436676, 437237, 437838, 438444, 439035, 439654, 440282, 440870, 441453, 442033, 442644, 443274, 443851, 444478, 445062, 445658, 446309, 446886, 447503, 448072, 448684]","[79, 117, 119, 123, 109, 125, 129, 136, 135, 146, 124, 117, 136, 148, 149, 170, 149, 165, 133, 150, 142, 141]","[435991, 436567, 437120, 437723, 438324, 438926, 439546, 440159, 440760, 441344, 441935, 442552, 443153, 443750, 444361, 444941, 445564, 446170, 446777, 447370, 447975, 448539]","[434752, 435350, 435950, 436550, 437150, 437750, 438350, 438950, 439582, 440197, 440798, 441380, 441972, 442590, 443191, 443788, 444398, 444980, 445601, 446208, 446815, 447408, 448013, 448576]",55,SB,U,R,ITMSR,1.0,
4,600,trial,0,20,20,20,trial,"['S', 'S', 'S', 'S', 'S', 'S', 'C', 'C', 'C', 'C', 'C', 'C', 'C', 'C', 'C', 'C', 'C', 'C', 'C', 'C', 'C', 'C']","[455186, 455833, 456433, 457033, 457591, 458193, 458814, 459397, 459978, 460588, 461200, 461786, 462388, 462979, 463601, 464178, 464764, 465315, 465963, 466557, 467107, 467710]","[455316, 455939, 456520, 457131, 457721, 458315, 458915, 459524, 460102, 460711, 461300, 461913, 462508, 463118, 463714, 464313, 464884, 465453, 466092, 466684, 467261, 467837]","[138, 95, 63, 72, 148, 138, 153, 146, 145, 135, 127, 120, 134, 151, 140, 131, 137, 139, 141, 145, 155, 145]","[455189, 455869, 456459, 457066, 457595, 458198, 458817, 459400, 459982, 460591, 461203, 461789, 462391, 462982, 463605, 464181, 464768, 465318, 465967, 466561, 467110, 467714]","[454035, 454634, 455233, 455833, 456433, 457033, 457633, 458233, 458855, 459438, 460018, 460628, 461241, 461827, 462429, 463020, 463641, 464219, 464804, 465355, 466003, 466597, 467147, 467750]",55,SB,U,R,ITMSR,1.0,
2,600,trial,0,21,21,21,trial,"['S', 'S', 'S', 'S', 'S', 'S', 'C', 'C', 'C', 'C', 'C', 'C', 'C', 'C', 'C', 'C', 'C', 'C', 'C', 'C', 'C', 'C']","[474446, 475082, 475682, 476243, 476825, 477434, 478053, 478642, 479254, 479843, 480414, 481002, 481594, 482196, 482768, 483369, 483940, 484542, 485129, 485720, 486326, 486935]","[474564, 475213, 475799, 476384, 476949, 477576, 478177, 478749, 479377, 479972, 480537, 481137, 481730, 482335, 482914, 483484, 484060, 484685, 485266, 485848, 486454, 487047]","[123, 82, 51, 111, 108, 127, 133, 114, 131, 144, 164, 139, 134, 139, 162, 136, 111, 138, 131, 147, 147, 113]","[474448, 475082, 475722, 476248, 476829, 477438, 478057, 478645, 479257, 479846, 480416, 481006, 481597, 482199, 482771, 483373, 483944, 484546, 485133, 485723, 486329, 486939]","[473282, 473882, 474482, 475082, 475682, 476282, 476882, 477483, 478094, 478683, 479295, 479884, 480454, 481043, 481635, 482237, 482808, 483409, 483981, 484583, 485170, 485761, 486367, 486976]",55,SB,U,R,ITMSR,1.0,
1,600,trial,0,22,22,22,trial,"['S', 'S', 'S', 'S', 'S', 'S', 'C', 'C', 'C', 'C', 'C', 'C', 'C', 'C', 'C', 'C', 'C', 'C', 'C', 'C', 'C', 'C']","[493730, 494330, 494930, 495507, 496101, 496731, 497307, 497913, 498512, 499135, 499735, 500314, 500929, 501519, 502135, 502738, 503353, 503950, 504529, 505097, 505709, 506324]","[493883, 494465, 495065, 495651, 496236, 496860, 497459, 498070, 498668, 499279, 499886, 500447, 501075, 501657, 502274, 502887, 503491, 504092, 504665, 505231, 505854, 506450]","[81, 122, 94, 125, 155, 111, 149, 137, 133, 133, 148, 146, 138, 152, 131, 140, 124, 144, 144, 152, 145, 159]","[493784, 494330, 494980, 495509, 496104, 496780, 497310, 497917, 498515, 499139, 499739, 500317, 500933, 501522, 502139, 502743, 503357, 503954, 504535, 505100, 505712, 506329]","[492530, 493130, 493730, 494330, 494930, 495531, 496131, 496731, 497345, 497951, 498550, 499174, 499774, 500353, 500968, 501558, 502173, 502776, 503392, 503989, 504567, 505136, 505748, 506362]",55,SB,U,R,ITMSR,1.0,
4,400,trial,0,23,23,23,trial,"['S', 'S', 'S', 'S', 'S', 'C', 'C', 'C', 'C', 'C', 'C', 'C', 'C', 'C', 'C', 'C', 'C', 'C', 'C', 'C', 'C']","[513058, 513487, 513888, 514260, 514648, 515051, 515464, 515873, 516268, 516677, 517084, 517498, 517906, 518306, 518718, 519111, 519498, 519914, 520325, 520735, 521164]","[513191, 513622, 514036, 514417, 514817, 515215, 515611, 516031, 516423, 516846, 517241, 517635, 518049, 518463, 518870, 519274, 519663, 520086, 520495, 520900, 521305]","[146, 125, 103, 162, 150, 156, 165, 164, 162, 162, 159, 131, 154, 158, 157, 147, 154, 153, 157, 154, 155]","[513061, 513537, 513940, 514264, 514651, 515055, 515468, 515876, 516272, 516681, 517087, 517501, 517910, 518309, 518721, 519115, 519502, 519917, 520329, 520738, 521167]","[511888, 512287, 512688, 513088, 513487, 513888, 514287, 514688, 515092, 515505, 515913, 516308, 516717, 517125, 517538, 517947, 518346, 518759, 519151, 519538, 519955, 520366, 520775, 521204]",55,SB,U,R,ITMSR,1.0,
3,600,trial,0,24,24,24,trial,"['S', 'S', 'S', 'S', 'S', 'S', 'C', 'C', 'C', 'C', 'C', 'C', 'C', 'C', 'C', 'C', 'C', 'C', 'C', 'C', 'C', 'C']","[528013, 528614, 529171, 529816, 530428, 530971, 531575, 532176, 532800, 533407, 533983, 534582, 535181, 535768, 536382, 536986, 537558, 538145, 538737, 539296, 539880, 540508]","[528158, 528761, 529321, 529945, 530536, 531133, 531705, 532310, 532939, 533544, 534123, 534718, 535311, 535903, 536505, 537119, 537692, 538275, 538861, 539433, 540032, 540626]","[138, 130, 137, 134, 144, 150, 153, 148, 151, 149, 160, 152, 150, 156, 143, 147, 140, 130, 148, 137, 127, 144]","[528017, 528618, 529175, 529819, 530434, 530975, 531578, 532179, 532804, 533411, 533986, 534586, 535185, 535771, 536385, 536990, 537563, 538149, 538740, 539300, 539884, 540512]","[526810, 527409, 528009, 528609, 529209, 529809, 530409, 531008, 531614, 532214, 532840, 533445, 534023, 534622, 535221, 535808, 536421, 537025, 537597, 538184, 538776, 539334, 539919, 540547]",55,SB,U,R,ITMSR,1.0,
1,400,trial,0,25,25,25,trial,"['S', 'S', 'S', 'S', 'S', 'S', 'C', 'C', 'C', 'C', 'C', 'C', 'C', 'C', 'C', 'C', 'C', 'C', 'C', 'C', 'C', 'C']","[546936, 547337, 547736, 548136, 548512, 548936, 549320, 549751, 550160, 550578, 550980, 551395, 551792, 552211, 552611, 553038, 553447, 553822, 554275, 554714, 555130, 555533]","[547026, 547445, 547873, 548265, 548681, 549090, 549489, 549903, 550323, 550734, 551142, 551553, 551966, 552368, 552769, 553188, 553575, 553986, 554409, 554855, 555297, 555714]","[65, 58, 107, 79, 156, 84, 139, 141, 145, 142, 147, 128, 135, 113, 116, 122, 103, 112, 54, 110, 127, 129]","[546969, 547361, 547774, 548178, 548515, 548986, 549324, 549755, 550163, 550581, 550983, 551398, 551795, 552215, 552614, 553041, 553451, 553826, 554339, 554717, 555133, 555537]","[546138, 546537, 546936, 547337, 547736, 548136, 548537, 548936, 549358, 549789, 550199, 550617, 551018, 551434, 551830, 552250, 552649, 553076, 553486, 553861, 554313, 554753, 555168, 555572]",55,SB,U,R,ITMSR,1.0,
5,600,trial,0,26,26,26,trial,"['S', 'S', 'S', 'S', 'S', 'S', 'C', 'C', 'C', 'C', 'C', 'C', 'C', 'C', 'C', 'C', 'C', 'C', 'C', 'C', 'C', 'C']","[562147, 562760, 563348, 563891, 564495, 565102, 565715, 566340, 566960, 567569, 568188, 568809, 569410, 570067, 570657, 571250, 571878, 572486, 573065, 573668, 574265, 574858]","[562312, 562907, 563489, 564033, 564640, 565252, 565860, 566483, 567093, 567704, 568327, 568938, 569561, 570183, 570808, 571414, 572041, 572654, 573233, 573838, 574430, 575031]","[99, 127, 104, 100, 112, 114, 110, 124, 112, 130, 86, 89, 110, 104, 141, 134, 127, 150, 161, 146, 136, 153]","[562198, 562763, 563349, 563894, 564499, 565106, 565720, 566344, 566963, 567572, 568192, 568812, 569414, 570071, 570660, 571254, 571882, 572490, 573068, 573671, 574268, 574861]","[560948, 561547, 562147, 562747, 563348, 563946, 564546, 565146, 565754, 566379, 567000, 567609, 568227, 568849, 569450, 570106, 570696, 571289, 571918, 572525, 573105, 573708, 574305, 574898]",55,SB,U,R,ITMSR,1.0,
2,600,trial,0,27,27,27,trial,"['S', 'S', 'S', 'S', 'S', 'S', 'C', 'C', 'C', 'C', 'C', 'C', 'C', 'C', 'C', 'C', 'C', 'C', 'C', 'C', 'C', 'C']","[581601, 582244, 582831, 583431, 584031, 584602, 585194, 585786, 586409, 586984, 587602, 588178, 588813, 589394, 590017, 590593, 591214, 591820, 592418, 593028, 593626, 594231]","[581725, 582382, 582960, 583553, 584136, 584722, 585325, 585918, 586551, 587127, 587748, 588341, 588973, 589551, 590161, 590750, 591362, 591966, 592570, 593163, 593772, 594366]","[125, 115, 125, 146, 62, 148, 128, 145, 136, 126, 130, 137, 128, 143, 128, 144, 125, 128, 137, 108, 115, 125]","[581604, 582249, 582881, 583431, 584071, 584605, 585197, 585790, 586413, 586987, 587606, 588182, 588816, 589399, 590020, 590597, 591218, 591823, 592422, 593032, 593630, 594235]","[580430, 581030, 581630, 582231, 582831, 583431, 584031, 584631, 585235, 585827, 586449, 587025, 587642, 588219, 588854, 589434, 590058, 590633, 591254, 591860, 592458, 593069, 593667, 594272]",55,SB,U,R,ITMSR,1.0,
0,600,trial,0,28,28,28,trial,"['S', 'S', 'S', 'S', 'S', 'S', 'S', 'C', 'C', 'C', 'C', 'C', 'C', 'C', 'C', 'C', 'C', 'C', 'C', 'C', 'C', 'C', 'C']","[600395, 601041, 601641, 602215, 602842, 603442, 604004, 604617, 605229, 605849, 606459, 607087, 607680, 608335, 608940, 609554, 610156, 610863, 611479, 612073, 612661, 613260, 613829]","[600585, 601150, 601758, 602353, 602968, 603548, 604145, 604743, 605353, 605983, 606606, 607216, 607834, 608472, 609115, 609714, 610304, 610994, 611649, 612213, 612836, 613413, 613990]","[92, 118, 95, 88, 120, 93, 146, 132, 123, 138, 129, 121, 141, 146, 139, 145, 139, 140, 147, 111, 132, 131, 135]","[600399, 601041, 601678, 602218, 602842, 603479, 604008, 604622, 605233, 605853, 606464, 607090, 607683, 608339, 608944, 609557, 610159, 610867, 611483, 612077, 612665, 613263, 613832]","[599841, 600441, 601041, 601641, 602242, 602842, 603442, 604042, 604657, 605270, 605889, 606499, 607127, 607721, 608375, 608980, 609595, 610197, 610904, 611520, 612114, 612702, 613301, 613869]",55,SB,U,R,ITMSR,1.0,
1,400,trial,0,29,29,29,trial,"['S', 'S', 'S', 'S', 'S', 'S', 'C', 'C', 'C', 'C', 'C', 'C', 'C', 'C', 'C', 'C', 'C', 'C', 'C', 'C', 'C', 'C']","[620028, 620462, 620862, 621261, 621636, 622061, 622451, 622853, 623276, 623682, 624086, 624495, 624905, 625311, 625712, 626116, 626613, 627032, 627410, 627798, 628214, 628621]","[620143, 620579, 620978, 621383, 621773, 622190, 622598, 623011, 623416, 623824, 624239, 624651, 625045, 625480, 625886, 626272, 626724, 627145, 627566, 627948, 628390, 628802]","[105, 89, 76, 79, 153, 148, 147, 147, 149, 148, 143, 144, 148, 133, 147, 156, 88, 143, 136, 117, 117, 137]","[620033, 620498, 620894, 621290, 621639, 622061, 622455, 622857, 623280, 623686, 624090, 624499, 624909, 625315, 625716, 626120, 626676, 627036, 627415, 627802, 628218, 628624]","[619261, 619662, 620061, 620462, 620862, 621261, 621662, 622061, 622489, 622892, 623314, 623721, 624124, 624533, 624944, 625349, 625751, 626154, 626652, 627070, 627448, 627836, 628252, 628660]",55,SB,U,R,ITMSR,1.0,
5,400,trial,0,30,30,30,trial,"['S', 'S', 'S', 'S', 'S', 'S', 'S', 'C', 'C', 'C', 'C', 'C', 'C', 'C', 'C', 'C', 'C', 'C', 'C', 'C', 'C', 'C', 'C']","[645766, 646135, 646534, 646966, 647364, 647724, 648131, 648541, 648946, 649352, 649758, 650198, 650609, 650993, 651414, 651837, 652222, 652632, 653058, 653435, 653850, 654284, 654668]","[645871, 646270, 646676, 647103, 647504, 647891, 648296, 648697, 649053, 649489, 649904, 650314, 650758, 651153, 651567, 651982, 652367, 652780, 653195, 653582, 654006, 654428, 654822]","[31, 108, 108, 47, 45, 134, 127, 129, 118, 115, 126, 132, 135, 137, 148, 144, 128, 141, 142, 138, 127, 118, 113]","[645814, 646139, 646538, 647007, 647409, 647727, 648134, 648545, 648950, 649355, 649763, 650203, 650613, 650997, 651418, 651841, 652226, 652636, 653062, 653440, 653855, 654288, 654672]","[645365, 645766, 646165, 646564, 646965, 647364, 647764, 648165, 648581, 648985, 649392, 649797, 650237, 650648, 651032, 651454, 651877, 652262, 652672, 653097, 653474, 653889, 654323, 654707]",55,SB,U,R,ITMSR,1.0,
2,600,trial,0,31,31,31,trial,"['S', 'S', 'S', 'S', 'S', 'S', 'S', 'C', 'C', 'C', 'C', 'C', 'C', 'C', 'C', 'C', 'C', 'C', 'C', 'C', 'C', 'C', 'C']","[660480, 661249, 661871, 662458, 663049, 663653, 664252, 664834, 665416, 666010, 666602, 667186, 667756, 668355, 668949, 669554, 670144, 670743, 671309, 671909, 672500, 673074, 673643]","[660659, 661356, 661992, 662629, 663223, 663826, 664394, 665015, 665573, 666184, 666787, 667381, 667939, 668542, 669149, 669753, 670314, 670926, 671518, 672113, 672681, 673261, 673860]","[250, 92, 37, 110, 115, 67, 92, 109, 115, 116, 144, 137, 131, 129, 139, 137, 139, 132, 144, 137, 118, 103, 128]","[660485, 661253, 661876, 662463, 663054, 663658, 664256, 664838, 665420, 666015, 666606, 667189, 667760, 668359, 668953, 669557, 670148, 670747, 671313, 671913, 672505, 673079, 673648]","[660100, 660700, 661300, 661900, 662500, 663100, 663700, 664300, 664875, 665456, 666050, 666643, 667227, 667797, 668396, 668990, 669594, 670185, 670784, 671349, 671949, 672540, 673115, 673684]",55,SB,U,R,ITMSR,1.0,
1,400,trial,0,32,32,32,trial,"['S', 'S', 'S', 'S', 'S', 'S', 'C', 'C', 'C', 'C', 'C', 'C', 'C', 'C', 'C', 'C', 'C', 'C', 'C', 'C', 'C', 'C']","[679912, 680634, 681033, 681434, 681808, 682234, 682625, 683030, 683466, 683883, 684304, 684717, 685120, 685545, 685948, 686376, 686787, 687194, 687611, 688010, 688449, 688885]","[680103, 680754, 681198, 681554, 681976, 682399, 682807, 683222, 683634, 684075, 684492, 684903, 685295, 685722, 686148, 686557, 686964, 687392, 687805, 688198, 688588, 689071]","[101, 237, 86, 215, 101, 102, 81, 88, 100, 88, 92, 72, 55, 81, 109, 116, 101, 99, 106, 91, 78, 108]","[679916, 680671, 681033, 681470, 681812, 682236, 682629, 683035, 683470, 683888, 684308, 684721, 685124, 685548, 685952, 686381, 686792, 687198, 687617, 688015, 688453, 688889]","[679435, 679833, 680233, 680634, 681033, 681434, 681834, 682234, 682663, 683069, 683504, 683922, 684343, 684755, 685159, 685584, 685986, 686414, 686826, 687233, 687649, 688049, 688488, 688923]",55,SB,U,R,ITMSR,1.0,
5,400,trial,0,33,33,33,trial,"['S', 'S', 'S', 'S', 'S', 'S', 'S', 'C', 'C', 'C', 'C', 'C', 'C', 'C', 'C', 'C', 'C', 'C', 'C', 'C', 'C', 'C', 'C']","[694928, 695326, 695750, 696153, 696523, 696927, 697324, 697722, 698136, 698548, 698954, 699377, 699777, 700203, 700609, 701042, 701430, 701832, 702235, 702660, 703084, 703473, 703863]","[695103, 695541, 695940, 696326, 696726, 697103, 697520, 697916, 698323, 698770, 699180, 699560, 699959, 700395, 700804, 701201, 701632, 702023, 702437, 702842, 703254, 703656, 704057]","[199, 96, 50, 100, 116, 70, 115, 114, 123, 120, 85, 119, 108, 100, 97, 88, 103, 86, 127, 102, 88, 103, 97]","[694978, 695329, 695786, 696158, 696528, 696929, 697328, 697728, 698140, 698552, 698959, 699381, 699781, 700206, 700614, 701045, 701493, 701887, 702239, 702665, 703132, 703478, 703918]","[694551, 694950, 695351, 695750, 696151, 696552, 696951, 697351, 697761, 698176, 698588, 698993, 699416, 699816, 700242, 700649, 701081, 701469, 701872, 702274, 702699, 703124, 703512, 703902]",55,SB,U,R,ITMSR,1.0,
1,400,trial,0,34,34,34,trial,"['S', 'S', 'S', 'S', 'S', 'S', 'C', 'C', 'C', 'C', 'C', 'C', 'C', 'C', 'C', 'C', 'C', 'C', 'C', 'C', 'C', 'C']","[710014, 710437, 710838, 711213, 711638, 712038, 712410, 712810, 713207, 713593, 714014, 714442, 714820, 715231, 715614, 716008, 716424, 716814, 717239, 717636, 718004, 718434]","[710187, 710609, 711000, 711408, 711808, 712183, 712601, 712996, 713392, 713761, 714176, 714586, 715019, 715404, 715811, 716187, 716619, 717003, 717401, 717811, 718195, 718543]","[61, 100, 88, 135, 76, 62, 125, 124, 124, 125, 119, 138, 136, 142, 154, 137, 140, 135, 139, 111, 143, 137]","[710062, 710437, 710865, 711216, 711683, 712079, 712414, 712814, 713211, 713597, 714017, 714446, 714823, 715235, 715617, 716011, 716428, 716819, 717244, 717641, 718008, 718437]","[709237, 709638, 710037, 710437, 710838, 711237, 711638, 712038, 712449, 712849, 713245, 713631, 714052, 714480, 714858, 715270, 715653, 716047, 716463, 716853, 717278, 717674, 718043, 718473]",55,SB,U,R,ITMSR,1.0,
4,400,trial,0,35,35,35,trial,"['S', 'S', 'S', 'S', 'S', 'S', 'C', 'C', 'C', 'C', 'C', 'C', 'C', 'C', 'C', 'C', 'C', 'C', 'C', 'C', 'C', 'C']","[725041, 725445, 725874, 726248, 726637, 727035, 727439, 727865, 728252, 728652, 729056, 729442, 729844, 730258, 730642, 731066, 731443, 731858, 732263, 732684, 733085, 733479]","[725209, 725642, 726057, 726429, 726858, 727251, 727646, 728044, 728457, 728826, 729240, 729630, 730059, 730443, 730829, 731237, 731659, 732051, 732461, 732821, 733272, 733667]","[108, 113, 73, 117, 101, 104, 110, 112, 122, 134, 134, 126, 138, 124, 128, 131, 132, 125, 122, 98, 142, 129]","[725045, 725449, 725914, 726251, 726640, 727040, 727443, 727869, 728257, 728656, 729060, 729446, 729848, 730262, 730646, 731070, 731446, 731863, 732321, 732688, 733089, 733484]","[724276, 724674, 725074, 725475, 725874, 726275, 726675, 727074, 727480, 727906, 728293, 728692, 729097, 729483, 729884, 730299, 730683, 731107, 731484, 731898, 732304, 732725, 733125, 733519]",55,SB,U,R,ITMSR,1.0,
2,400,trial,0,36,36,36,trial,"['S', 'S', 'S', 'S', 'S', 'S', 'C', 'C', 'C', 'C', 'C', 'C', 'C', 'C', 'C', 'C', 'C', 'C', 'C', 'C', 'C', 'C']","[739961, 740415, 740814, 741215, 741578, 741981, 742391, 742782, 743172, 743569, 743970, 744374, 744777, 745184, 745556, 745961, 746378, 746797, 747208, 747606, 748003, 748428]","[740152, 740598, 740982, 741367, 741764, 742178, 742579, 742977, 743372, 743754, 744147, 744557, 744969, 745354, 745741, 746156, 746565, 746968, 747390, 747787, 748209, 748621]","[77, 58, 95, 42, 131, 114, 111, 117, 124, 115, 98, 71, 96, 116, 96, 94, 130, 103, 100, 111, 146, 132]","[739965, 740466, 740814, 741258, 741583, 741985, 742395, 742787, 743176, 743573, 743974, 744378, 744780, 745187, 745561, 745965, 746382, 746801, 747213, 747611, 748008, 748432]","[739215, 739614, 740015, 740415, 740814, 741215, 741614, 742014, 742431, 742822, 743213, 743610, 744010, 744415, 744817, 745225, 745596, 746002, 746419, 746838, 747248, 747646, 748044, 748469]",55,SB,U,R,ITMSR,1.0,
3,600,trial,0,37,37,37,trial,"['S', 'S', 'S', 'S', 'S', 'S', 'S', 'C', 'C', 'C', 'C', 'C', 'C', 'C', 'C', 'C', 'C', 'C', 'C', 'C', 'C', 'C', 'C']","[754188, 754946, 755568, 756156, 756755, 757364, 757981, 758559, 759141, 759697, 760237, 760791, 761367, 761966, 762541, 763114, 763684, 764258, 764803, 765374, 765936, 766518, 767058]","[754397, 755273, 755889, 756465, 757060, 757672, 758270, 758848, 759402, 759940, 760476, 761036, 761606, 762216, 762791, 763366, 763923, 764490, 765061, 765624, 766181, 766755, 767337]","[9, 42, 61, 43, 190, 169, 63, 68, 52, 64, 69, 70, 90, 81, 68, 77, 64, 86, 79, 242, 185, 85, 79]","[754240, 754950, 755572, 756159, 756832, 757368, 757984, 758562, 759144, 759700, 760240, 760881, 761370, 761970, 762544, 763117, 763688, 764334, 764886, 765379, 765940, 766522, 767062]","[753832, 754432, 755032, 755632, 756232, 756832, 757432, 758032, 758598, 759181, 759737, 760276, 760830, 761407, 762005, 762580, 763153, 763722, 764297, 764841, 765413, 765974, 766557, 767096]",55,SB,U,R,ITMSR,1.0,
4,600,trial,0,38,38,38,trial,"['S', 'S', 'S', 'S', 'S', 'S', 'C', 'C', 'C', 'C', 'C', 'C', 'C', 'C', 'C', 'C', 'C', 'C', 'C', 'C', 'C', 'C']","[773719, 774361, 774985, 775557, 776156, 776735, 777330, 777933, 778564, 779155, 779746, 780350, 780961, 781565, 782138, 782755, 783353, 783950, 784587, 785183, 785782, 786367]","[773992, 774622, 775229, 775773, 776360, 776969, 777562, 778164, 778787, 779398, 779969, 780599, 781190, 781829, 782387, 783022, 783608, 784218, 784851, 785456, 786050, 786630]","[39, 26, 15, 29, 47, 49, 50, 15, 107, 59, 61, 79, 134, 72, 119, 87, 19, 5, 15, 88, 0, 100]","[773723, 774362, 775107, 775561, 776161, 776740, 777334, 778028, 778569, 779159, 779750, 780354, 780965, 781570, 782142, 782760, 783432, 784123, 784592, 785188, 785964, 786372]","[772586, 773185, 773785, 774385, 774985, 775585, 776185, 776785, 777370, 777973, 778604, 779196, 779787, 780391, 781001, 781605, 782179, 782795, 783393, 783990, 784627, 785223, 785822, 786408]",55,SB,U,R,ITMSR,1.0,
0,400,trial,0,39,39,39,trial,"['S', 'S', 'S', 'S', 'S', 'S', 'C', 'C', 'C', 'C', 'C', 'C', 'C', 'C', 'C', 'C', 'C', 'C', 'C', 'C', 'C', 'C']","[792624, 793027, 793423, 793824, 794223, 794624, 795023, 795440, 795855, 796283, 796705, 797136, 797541, 797988, 798404, 798838, 799254, 799674, 800075, 800503, 800932, 801341]","[792804, 793222, 793622, 794029, 794433, 794806, 795241, 795653, 796094, 796475, 796912, 797345, 797751, 798176, 798608, 799038, 799453, 799902, 800274, 800688, 801133, 801503]","[93, 138, 152, 144, 118, 156, 159, 149, 150, 144, 153, 148, 140, 146, 152, 145, 149, 127, 150, 151, 149, 146]","[792624, 793032, 793427, 793824, 794255, 794628, 795027, 795444, 795859, 796288, 796708, 797140, 797546, 797991, 798408, 798842, 799258, 799679, 800080, 800507, 800936, 801345]","[791824, 792223, 792624, 793024, 793423, 793824, 794223, 794624, 795064, 795481, 795895, 796323, 796745, 797176, 797582, 798028, 798444, 798878, 799295, 799715, 800115, 800543, 800972, 801382]",55,SB,U,R,ITMSR,1.0,
1,600,trial,0,40,40,40,trial,"['S', 'S', 'S', 'S', 'S', 'S', 'C', 'C', 'C', 'C', 'C', 'C', 'C', 'C', 'C', 'C', 'C', 'C', 'C', 'C', 'C', 'C']","[807994, 808551, 809152, 809725, 810314, 810934, 811503, 812064, 812638, 813178, 813707, 814226, 814741, 815260, 815765, 816254, 816739, 817222, 817694, 818162, 818670, 819169]","[808265, 808873, 809458, 810034, 810630, 811202, 811784, 812333, 812906, 813450, 813976, 814498, 815016, 815526, 816033, 816510, 816998, 817461, 817950, 818418, 818875, 819389]","[110, 160, 135, 112, 135, 86, 147, 144, 138, 138, 116, 143, 145, 143, 141, 140, 149, 149, 132, 135, 134, 140]","[808019, 808556, 809156, 809731, 810318, 810938, 811507, 812068, 812643, 813182, 813711, 814229, 814745, 815264, 815769, 816259, 816744, 817226, 817698, 818166, 818674, 819173]","[806794, 807394, 807994, 808594, 809194, 809794, 810394, 810994, 811541, 812102, 812677, 813216, 813746, 814265, 814780, 815298, 815804, 816292, 816778, 817260, 817732, 818200, 818708, 819208]",55,SB,U,R,ITMSR,1.0,
1,600,trial,0,41,41,41,trial,"['S', 'S', 'S', 'S', 'S', 'S', 'C', 'C', 'C', 'C', 'C', 'C', 'C', 'C', 'C', 'C', 'C', 'C', 'C', 'C', 'C', 'C']","[826090, 826685, 827287, 827896, 828491, 829082, 829669, 830253, 830794, 831356, 831955, 832549, 833106, 833727, 834315, 834860, 835415, 835951, 836543, 837140, 837727, 838315]","[826336, 826955, 827556, 828170, 828741, 829329, 829908, 830511, 831069, 831664, 832246, 832794, 833399, 833989, 834564, 835123, 835676, 836232, 836820, 837413, 837976, 838588]","[137, 141, 144, 103, 146, 154, 153, 150, 134, 150, 153, 133, 139, 137, 139, 136, 125, 144, 137, 141, 152, 152]","[826094, 826689, 827291, 827901, 828495, 829085, 829673, 830377, 830798, 831361, 831960, 832685, 833262, 833862, 834319, 834865, 835419, 835956, 836547, 837145, 837731, 838320]","[824924, 825524, 826124, 826724, 827324, 827924, 828524, 829124, 829708, 830291, 830832, 831394, 831993, 832587, 833144, 833766, 834354, 834898, 835453, 835989, 836582, 837179, 837766, 838353]",55,SB,U,R,ITMSR,1.0,
2,400,trial,0,42,42,42,trial,"['S', 'S', 'S', 'S', 'S', 'S', 'C', 'C', 'C', 'C', 'C', 'C', 'C', 'C', 'C', 'C', 'C', 'C', 'C', 'C', 'C', 'C']","[844787, 845155, 845588, 846003, 846355, 846759, 847151, 847558, 847980, 848371, 848798, 849201, 849611, 850008, 850429, 850840, 851204, 851640, 852045, 852460, 852882, 853291]","[844943, 845409, 845796, 846191, 846568, 846970, 847375, 847759, 848178, 848614, 849013, 849403, 849812, 850219, 850622, 851025, 851432, 851836, 852250, 852660, 853081, 853505]","[41, 145, 117, 148, 139, 144, 156, 147, 154, 149, 143, 149, 143, 153, 159, 156, 156, 152, 154, 143, 151, 154]","[844809, 845158, 845642, 846007, 846359, 846764, 847155, 847562, 847984, 848374, 848802, 849205, 849615, 850012, 850433, 850844, 851208, 851644, 852049, 852464, 852885, 853295]","[843987, 844388, 844787, 845188, 845588, 845987, 846388, 846787, 847192, 847598, 848021, 848411, 848838, 849242, 849651, 850049, 850469, 850881, 851245, 851681, 852085, 852501, 852923, 853331]",55,SB,U,R,ITMSR,1.0,
4,600,trial,0,43,43,43,trial,"['S', 'S', 'S', 'S', 'S', 'S', 'C', 'C', 'C', 'C', 'C', 'C', 'C', 'C', 'C', 'C', 'C', 'C', 'C', 'C', 'C', 'C']","[859765, 860377, 860973, 861550, 862160, 862744, 863352, 863896, 864463, 865055, 865667, 866292, 866866, 867485, 868064, 868684, 869275, 869880, 870495, 871068, 871665, 872254]","[860059, 860677, 861274, 861892, 862480, 863059, 863648, 864218, 864794, 865397, 865989, 866605, 867203, 867775, 868382, 868983, 869594, 870184, 870771, 871366, 871973]","[160, 148, 131, 147, 139, 132, 129, 141, 144, 148, 137, 135, 139, 125, 149, 164, 158, 151, 153, 151, 168]","[859768, 860381, 860977, 861554, 862164, 862748, 863356, 864056, 864467, 865227, 865824, 866473, 867045, 867489, 868213, 868835, 869433, 870039, 870643, 871232, 871855]","[858639, 859238, 859838, 860438, 861038, 861638, 862238, 862838, 863392, 863937, 864503, 865095, 865708, 866332, 866907, 867525, 868105, 868724, 869315, 869920, 870536, 871108, 871705, 872295]",55,SB,U,R,ITMSR,1.0,
3,600,trial,0,44,44,44,trial,"['S', 'S', 'S', 'S', 'S', 'S', 'C', 'C', 'C', 'C', 'C', 'C', 'C', 'C', 'C', 'C', 'C', 'C', 'C', 'C', 'C', 'C']","[878928, 879493, 880099, 880701, 881329, 881903, 882496, 883104, 883686, 884275, 884894, 885483, 886069, 886664, 887298, 887882, 888475, 889068, 889655, 890238, 890799, 891416]","[879156, 879765, 880379, 880971, 881567, 882145, 882763, 883383, 883948, 884547, 885142, 885716, 886346, 886894, 887537, 888122, 888735, 889332, 889904, 890514, 891100, 891677]","[77, 96, 119, 135, 98, 143, 125, 131, 144, 133, 138, 125, 142, 153, 134, 131, 124, 143, 139, 124, 112, 104]","[879002, 879497, 880103, 880705, 881377, 881907, 882500, 883108, 883691, 884279, 884898, 885488, 886074, 886668, 887302, 887886, 888479, 889072, 889659, 890243, 890802, 891420]","[877728, 878328, 878928, 879528, 880129, 880729, 881329, 881929, 882536, 883142, 883726, 884315, 884932, 885523, 886108, 886703, 887336, 887921, 888514, 889108, 889694, 890277, 890839, 891456]",55,SB,U,R,ITMSR,1.0,
4,400,trial,0,45,45,45,trial,"['S', 'S', 'S', 'S', 'S', 'C', 'C', 'C', 'C', 'C', 'C', 'C', 'C', 'C', 'C', 'C', 'C', 'C', 'C', 'C', 'C']","[898178, 898578, 898977, 899378, 899739, 900169, 900594, 901022, 901440, 901855, 902270, 902687, 903096, 903526, 903956, 904393, 904835, 905240, 905652, 906067, 906489]","[898322, 898783, 899174, 899543, 899949, 900362, 900817, 901239, 901640, 902054, 902463, 902883, 903305, 903703, 904140, 904558, 905000, 905428, 905849, 906240, 906661]","[62, 136, 144, 150, 143, 141, 142, 144, 116, 134, 127, 135, 141, 140, 131, 126, 117, 123, 125, 133, 137]","[898209, 898578, 898979, 899378, 899743, 900173, 900598, 901027, 901444, 901859, 902275, 902691, 903100, 903530, 903960, 904397, 904904, 905244, 905656, 906072, 906493]","[896978, 897378, 897777, 898178, 898578, 898977, 899378, 899777, 900209, 900634, 901062, 901481, 901896, 902310, 902727, 903137, 903567, 903997, 904433, 904876, 905281, 905693, 906107, 906529]",55,SB,U,R,ITMSR,1.0,
5,600,trial,0,46,46,46,trial,"['S', 'S', 'S', 'S', 'S', 'S', 'C', 'C', 'C', 'C', 'C', 'C', 'C', 'C', 'C', 'C', 'C', 'C', 'C', 'C', 'C', 'C']","[913193, 913817, 914390, 915017, 915569, 916172, 916794, 917395, 917981, 918590, 919180, 919794, 920396, 920996, 921601, 922220, 922839, 923448, 924047, 924680, 925305, 925927]","[913404, 914027, 914623, 915211, 915851, 916392, 917021, 917601, 918219, 918828, 919418, 920015, 920612, 921241, 921810, 922456, 923065, 923693, 924284, 924889, 925526, 926155]","[76, 82, 138, 108, 134, 129, 135, 112, 134, 120, 128, 114, 129, 131, 135, 144, 122, 135, 139, 145, 135, 137]","[913268, 913888, 914394, 915058, 915574, 916176, 916798, 917399, 917985, 918595, 919184, 919798, 920400, 921000, 921606, 922225, 922844, 923453, 924052, 924684, 925309, 925931]","[912018, 912617, 913216, 913816, 914416, 915017, 915617, 916216, 916834, 917435, 918021, 918630, 919220, 919833, 920435, 921035, 921640, 922260, 922878, 923488, 924087, 924720, 925344, 925967]",55,SB,U,R,ITMSR,1.0,
5,600,trial,0,47,47,47,trial,"['S', 'S', 'S', 'S', 'S', 'S', 'C', 'C', 'C', 'C', 'C', 'C', 'C', 'C', 'C', 'C', 'C', 'C', 'C', 'C', 'C', 'C']","[932819, 933494, 934095, 934664, 935251, 935847, 936436, 937035, 937634, 938241, 938844, 939455, 940075, 940721, 941363, 942005, 942628, 943227, 943818, 944427, 945025, 945623]","[933073, 933726, 934334, 934919, 935535, 936087, 936659, 937280, 937871, 938478, 939079, 939725, 940320, 941017, 941611, 942260, 942877, 943441, 944067, 944644, 945252, 945861]","[92, 111, 126, 118, 119, 77, 110, 106, 111, 113, 117, 107, 101, 100, 116, 95, 100, 86, 88, 117, 100, 22]","[932826, 933495, 934095, 934669, 935258, 935854, 936441, 937040, 937638, 938246, 938945, 939460, 940080, 940726, 941367, 942009, 942635, 943233, 943823, 944432, 945030, 945627]","[931695, 932294, 932894, 933494, 934094, 934694, 935294, 935895, 936475, 937074, 937673, 938280, 938884, 939495, 940114, 940761, 941403, 942045, 942667, 943266, 943857, 944466, 945064, 945662]",55,SB,U,R,ITMSR,1.0,
0,400,trial,0,48,48,48,trial,"['S', 'S', 'S', 'S', 'S', 'S', 'C', 'C', 'C', 'C', 'C', 'C', 'C', 'C', 'C', 'C', 'C', 'C', 'C', 'C', 'C', 'C']","[952119, 952518, 952919, 953292, 953718, 954120, 954526, 954971, 955369, 955789, 956176, 956604, 956996, 957378, 957793, 958203, 958608, 959010, 959429, 959825, 960228, 960619]","[952254, 952679, 953075, 953486, 953888, 954290, 954677, 955129, 955564, 955939, 956368, 956788, 957161, 957555, 957957, 958380, 958772, 959167, 959555, 960011, 960386, 960790]","[228, 59, 25, 72, 242, 79, 57, 91, 89, 55, 89, 46, 250, 34, 63, 66, 52, 66, 74, 130, 48, 86]","[952152, 952545, 952964, 953295, 953772, 954123, 954530, 954973, 955372, 955792, 956179, 956608, 957000, 957381, 957796, 958206, 958611, 959013, 959432, 959830, 960232, 960622]","[951318, 951718, 952119, 952518, 952919, 953319, 953718, 954119, 954566, 955012, 955410, 955830, 956217, 956645, 957036, 957419, 957834, 958243, 958649, 959050, 959469, 959865, 960269, 960660]",55,SB,U,R,ITMSR,1.0,
0,600,trial,0,49,49,49,trial,"['S', 'S', 'S', 'S', 'S', 'S', 'C', 'C', 'C', 'C', 'C', 'C', 'C', 'C', 'C', 'C', 'C', 'C', 'C', 'C', 'C', 'C']","[967470, 968043, 968635, 969235, 969812, 970409, 970997, 971578, 972201, 972830, 973421, 974005, 974562, 975110, 975696, 976249, 976751, 977272, 977835, 978398, 978928, 979494]","[967648, 968236, 968778, 969421, 969994, 970630, 971185, 971773, 972393, 972978, 973630, 974208, 974758, 975281, 975860, 976457, 977013, 977512, 978017, 978591, 979135, 979706]","[57, 88, 68, 31, 148, 48, 33, 53, 254, 21, 70, 71, 24, 41, 26, 19, 24, 50, 30, 59, 7, 254]","[967505, 968046, 968639, 969238, 969817, 970413, 971000, 971581, 972205, 972834, 973425, 974009, 974565, 975113, 975699, 976252, 976755, 977276, 977839, 978402, 978931, 979497]","[966269, 966870, 967470, 968070, 968670, 969270, 969870, 970470, 971037, 971619, 972241, 972870, 973462, 974046, 974603, 975151, 975736, 976289, 976791, 977312, 977875, 978439, 978968, 979534]",55,SB,U,R,ITMSR,1.0,
3,400,trial,0,50,50,50,trial,"['S', 'S', 'S', 'S', 'S', 'S', 'C', 'C', 'C', 'C', 'C', 'C', 'C', 'C', 'C', 'C', 'C', 'C', 'C', 'C', 'C', 'C']","[986100, 986501, 986900, 987300, 987701, 988100, 988477, 988902, 989312, 989743, 990150, 990566, 990969, 991381, 991774, 992194, 992614, 993034, 993449, 993848, 994269, 994667]","[986257, 986671, 987060, 987493, 987881, 988269, 988685, 989089, 989514, 989928, 990330, 990757, 991148, 991549, 991959, 992351, 992795, 993238, 993646, 994044, 994444, 994842]","[144, 120, 130, 102, 115, 154, 160, 157, 155, 158, 143, 139, 142, 144, 146, 140, 154, 136, 130, 129, 151, 152]","[986103, 986528, 986900, 987350, 987763, 988100, 988481, 988906, 989316, 989747, 990154, 990570, 990973, 991384, 991777, 992198, 992617, 993038, 993454, 993854, 994273, 994671]","[985300, 985701, 986100, 986501, 986900, 987300, 987701, 988100, 988517, 988941, 989350, 989783, 990189, 990606, 991008, 991421, 991813, 992234, 992653, 993074, 993487, 993888, 994309, 994707]",55,SB,U,R,ITMSR,1.0,
3,400,trial,0,51,51,51,trial,"['S', 'S', 'S', 'S', 'S', 'S', 'C', 'C', 'C', 'C', 'C', 'C', 'C', 'C', 'C', 'C', 'C', 'C', 'C', 'C', 'C', 'C']","[1001092, 1001513, 1001884, 1002292, 1002680, 1003083, 1003484, 1003877, 1004279, 1004682, 1005057, 1005477, 1005887, 1006284, 1006694, 1007095, 1007484, 1007901, 1008295, 1008701, 1009079, 1009516]","[1001253, 1001695, 1002078, 1002478, 1002877, 1003272, 1003683, 1004059, 1004464, 1004861, 1005248, 1005646, 1006080, 1006455, 1006880, 1007272, 1007664, 1008029, 1008488, 1008860, 1009272, 1009667]","[57, 114, 158, 85, 156, 153, 146, 146, 147, 142, 151, 160, 151, 167, 154, 160, 166, 160, 161, 152, 167, 139]","[1001134, 1001543, 1001888, 1002340, 1002684, 1003087, 1003488, 1003881, 1004283, 1004686, 1005061, 1005481, 1005891, 1006287, 1006698, 1007098, 1007489, 1007905, 1008300, 1008705, 1009082, 1009520]","[1000314, 1000714, 1001113, 1001513, 1001914, 1002313, 1002714, 1003114, 1003523, 1003916, 1004317, 1004722, 1005095, 1005515, 1005926, 1006323, 1006733, 1007133, 1007522, 1007939, 1008334, 1008741, 1009119, 1009555]",55,SB,U,R,ITMSR,1.0,
2,600,trial,0,52,52,52,trial,"['S', 'S', 'S', 'S', 'S', 'S', 'C', 'C', 'C', 'C', 'C', 'C', 'C', 'C', 'C', 'C', 'C', 'C', 'C', 'C', 'C', 'C']","[1016142, 1016788, 1017345, 1017956, 1018543, 1019127, 1019747, 1020328, 1020930, 1021524, 1022102, 1022713, 1023309, 1023894, 1024522, 1025152, 1025752, 1026362, 1026963, 1027576, 1028171, 1028802]","[1016383, 1016999, 1017587, 1018172, 1018758, 1019334, 1019959, 1020544, 1021157, 1021763, 1022344, 1022923, 1023516, 1024136, 1024746, 1025350, 1025944, 1026540, 1027160, 1027755, 1028375, 1028972]","[152, 119, 136, 125, 128, 125, 130, 150, 134, 127, 144, 147, 123, 125, 120, 109, 114, 128, 130, 127, 133, 115]","[1016146, 1016863, 1017348, 1017960, 1018547, 1019131, 1019750, 1020333, 1020934, 1021528, 1022105, 1022716, 1023312, 1023897, 1024526, 1025156, 1025756, 1026365, 1026967, 1027581, 1028174, 1028805]","[1014988, 1015588, 1016188, 1016788, 1017389, 1017989, 1018589, 1019189, 1019788, 1020368, 1020971, 1021564, 1022143, 1022753, 1023349, 1023935, 1024563, 1025192, 1025793, 1026403, 1027004, 1027616, 1028211, 1028843]",55,SB,U,R,ITMSR,1.0,
0,600,trial,0,53,53,53,trial,"['S', 'S', 'S', 'S', 'S', 'S', 'C', 'C', 'C', 'C', 'C', 'C', 'C', 'C', 'C', 'C', 'C', 'C', 'C', 'C', 'C', 'C']","[1035409, 1036044, 1036672, 1037242, 1037838, 1038419, 1039027, 1039705, 1040316, 1040928, 1041522, 1042093, 1042712, 1043308, 1043913, 1044536, 1045136, 1045732, 1046334, 1046956, 1047589, 1048180]","[1035602, 1036252, 1036861, 1037442, 1038025, 1038623, 1039234, 1039878, 1040549, 1041155, 1041748, 1042337, 1042941, 1043544, 1044144, 1044759, 1045366, 1045963, 1046548, 1047169, 1047799, 1048387]","[97, 102, 38, 95, 68, 75, 93, 122, 86, 87, 49, 72, 105, 77, 64, 42, 91, 47, 16, 251, 69, 71]","[1035414, 1036048, 1036715, 1037246, 1037842, 1038424, 1039031, 1039709, 1040320, 1040932, 1041525, 1042097, 1042715, 1043311, 1043916, 1044540, 1045140, 1045735, 1046338, 1046960, 1047592, 1048184]","[1034271, 1034871, 1035471, 1036071, 1036672, 1037272, 1037872, 1038472, 1039068, 1039746, 1040357, 1040968, 1041562, 1042134, 1042753, 1043349, 1043953, 1044577, 1045177, 1045773, 1046375, 1046996, 1047629, 1048220]",55,SB,U,R,ITMSR,1.0,
1,400,trial,0,54,54,54,trial,"['S', 'S', 'S', 'S', 'S', 'S', 'C', 'C', 'C', 'C', 'C', 'C', 'C', 'C', 'C', 'C', 'C', 'C', 'C', 'C', 'C', 'C']","[1063566, 1063968, 1064368, 1064769, 1065196, 1065575, 1065963, 1066368, 1066778, 1067198, 1067611, 1068009, 1068398, 1068825, 1069249, 1069644, 1070051, 1070448, 1070871, 1071267, 1071636, 1072031]","[1063719, 1064161, 1064573, 1064972, 1065378, 1065785, 1066152, 1066573, 1066976, 1067367, 1067798, 1068197, 1068573, 1069003, 1069441, 1069846, 1070249, 1070644, 1071032, 1071420, 1071815, 1072222]","[94, 119, 121, 134, 59, 79, 120, 120, 122, 117, 133, 118, 128, 143, 138, 131, 132, 93, 83, 97, 119, 113]","[1063571, 1063972, 1064373, 1064772, 1065248, 1065645, 1065967, 1066372, 1066782, 1067202, 1067615, 1068013, 1068402, 1068829, 1069253, 1069648, 1070055, 1070452, 1070951, 1071272, 1071640, 1072036]","[1062798, 1063196, 1063597, 1063997, 1064396, 1064797, 1065196, 1065596, 1066002, 1066406, 1066816, 1067237, 1067650, 1068048, 1068436, 1068863, 1069288, 1069682, 1070090, 1070486, 1070910, 1071305, 1071675, 1072069]",55,SB,U,R,ITMSR,1.0,
4,600,trial,0,55,55,55,trial,"['S', 'S', 'S', 'S', 'S', 'S', 'C', 'C', 'C', 'C', 'C', 'C', 'C', 'C', 'C', 'C', 'C', 'C', 'C', 'C', 'C', 'C']","[1078878, 1079478, 1080078, 1080628, 1081242, 1081824, 1082435, 1083028, 1083604, 1084197, 1084771, 1085338, 1085925, 1086516, 1087090, 1087682, 1088266, 1088837, 1089424, 1090014, 1090610, 1091185]","[1079066, 1079650, 1080239, 1080787, 1081393, 1081987, 1082556, 1083167, 1083700, 1084311, 1084906, 1085488, 1086076, 1086642, 1087247, 1087819, 1088384, 1088983, 1089549, 1090119, 1090713, 1091297]","[87, 99, 93, 134, 123, 137, 113, 130, 121, 118, 118, 124, 120, 125, 113, 120, 121, 95, 128, 111, 113, 107]","[1078930, 1079525, 1080115, 1080631, 1081245, 1081828, 1082439, 1083032, 1083609, 1084201, 1084774, 1085341, 1085929, 1086520, 1087093, 1087685, 1088270, 1088841, 1089428, 1090017, 1090614, 1091188]","[1077679, 1078278, 1078878, 1079478, 1080078, 1080678, 1081278, 1081878, 1082476, 1083069, 1083644, 1084237, 1084812, 1085378, 1085966, 1086557, 1087130, 1087723, 1088307, 1088877, 1089465, 1090055, 1090651, 1091225]",55,SB,U,R,ITMSR,1.0,
5,600,trial,0,56,56,56,trial,"['S', 'S', 'S', 'S', 'S', 'S', 'C', 'C', 'C', 'C', 'C', 'C', 'C', 'C', 'C', 'C', 'C', 'C', 'C', 'C', 'C', 'C']","[1098029, 1098662, 1099262, 1099863, 1100462, 1101019, 1101640, 1102229, 1102867, 1103490, 1104088, 1104691, 1105275, 1105864, 1106464, 1107058, 1107644, 1108233, 1108872, 1109492, 1110108, 1110726]","[1098157, 1098779, 1099371, 1099983, 1100552, 1101176, 1101777, 1102382, 1102997, 1103644, 1104239, 1104855, 1105442, 1106023, 1106616, 1107220, 1107784, 1108389, 1109020, 1109648, 1110243, 1110908]","[126, 48, 42, 33, 202, 126, 96, 107, 99, 106, 101, 109, 99, 103, 105, 113, 105, 87, 99, 99, 99, 101]","[1098033, 1098697, 1099262, 1099898, 1100491, 1101022, 1101644, 1102232, 1102870, 1103493, 1104092, 1104694, 1105278, 1105867, 1106467, 1107062, 1107648, 1108237, 1108876, 1109495, 1110112, 1110730]","[1096861, 1097462, 1098061, 1098662, 1099261, 1099862, 1100462, 1101062, 1101679, 1102269, 1102907, 1103529, 1104128, 1104731, 1105314, 1105903, 1106503, 1107097, 1107684, 1108273, 1108912, 1109531, 1110148, 1110765]",55,SB,U,R,ITMSR,1.0,
0,600,trial,0,57,57,57,trial,"['S', 'S', 'S', 'S', 'S', 'C', 'C', 'C', 'C', 'C', 'C', 'C', 'C', 'C', 'C', 'C', 'C', 'C', 'C', 'C', 'C']","[1118028, 1118669, 1119269, 1119845, 1120421, 1121012, 1121616, 1122226, 1122814, 1123404, 1124046, 1124658, 1125231, 1125824, 1126413, 1127030, 1127613, 1128222, 1128826, 1129444, 1130041]","[1118159, 1118810, 1119415, 1119990, 1120580, 1121172, 1121780, 1122372, 1122972, 1123550, 1124197, 1124793, 1125394, 1125964, 1126562, 1127141, 1127771, 1128377, 1128972, 1129582, 1130165]","[124, 122, 57, 240, 112, 134, 118, 130, 125, 126, 131, 140, 137, 131, 132, 110, 136, 136, 136, 106, 89]","[1118033, 1118671, 1119331, 1119846, 1120425, 1121016, 1121620, 1122230, 1122818, 1123408, 1124050, 1124662, 1125234, 1125828, 1126417, 1127034, 1127617, 1128226, 1128830, 1129448, 1130045]","[1116269, 1116869, 1117469, 1118069, 1118669, 1119269, 1119869, 1120470, 1121052, 1121656, 1122267, 1122854, 1123444, 1124086, 1124699, 1125271, 1125865, 1126454, 1127070, 1127654, 1128262, 1128866, 1129485, 1130082]",55,SB,U,R,ITMSR,1.0,
5,400,trial,0,58,58,58,trial,"['S', 'S', 'S', 'S', 'S', 'C', 'C', 'C', 'C', 'C', 'C', 'C', 'C', 'C', 'C', 'C', 'C', 'C', 'C', 'C', 'C']","[1136657, 1137110, 1137509, 1137908, 1138310, 1138691, 1139100, 1139504, 1139928, 1140347, 1140770, 1141185, 1141581, 1141972, 1142378, 1142775, 1143189, 1143612, 1144050, 1144457, 1144866]","[1136786, 1137269, 1137654, 1138028, 1138438, 1138871, 1139279, 1139675, 1140091, 1140495, 1140926, 1141336, 1141754, 1142152, 1142563, 1142960, 1143316, 1143758, 1144203, 1144619, 1145039]","[139, 149, 169, 87, 131, 169, 157, 158, 153, 158, 154, 145, 145, 145, 141, 144, 140, 141, 124, 121, 153]","[1136661, 1137111, 1137509, 1137947, 1138310, 1138695, 1139104, 1139508, 1139932, 1140352, 1140774, 1141190, 1141585, 1141977, 1142382, 1142779, 1143192, 1143616, 1144054, 1144461, 1144870]","[1135509, 1135908, 1136310, 1136708, 1137110, 1137509, 1137908, 1138309, 1138731, 1139139, 1139544, 1139968, 1140386, 1140809, 1141225, 1141620, 1142011, 1142418, 1142814, 1143229, 1143652, 1144089, 1144497, 1144905]",55,SB,U,R,ITMSR,1.0,
2,600,trial,0,59,59,59,trial,"['S', 'S', 'S', 'S', 'S', 'S', 'C', 'C', 'C', 'C', 'C', 'C', 'C', 'C', 'C', 'C', 'C', 'C', 'C', 'C', 'C', 'C']","[1151803, 1152395, 1152982, 1153566, 1154153, 1154758, 1155394, 1156018, 1156598, 1157165, 1157765, 1158353, 1158943, 1159535, 1160137, 1160735, 1161324, 1161949, 1162514, 1163113, 1163703, 1164271]","[1151991, 1152568, 1153159, 1153740, 1154312, 1154957, 1155564, 1156158, 1156775, 1157323, 1157935, 1158545, 1159150, 1159780, 1160317, 1160918, 1161510, 1162095, 1162698, 1163287, 1163915, 1164451]","[71, 133, 140, 135, 139, 141, 142, 113, 121, 121, 130, 135, 132, 136, 140, 133, 121, 89, 126, 123, 137, 141]","[1151804, 1152399, 1152986, 1153570, 1154157, 1154763, 1155398, 1156023, 1156602, 1157170, 1157769, 1158358, 1158947, 1159539, 1160141, 1160739, 1161328, 1161954, 1162518, 1163117, 1163707, 1164276]","[1150627, 1151227, 1151827, 1152428, 1153028, 1153628, 1154228, 1154828, 1155435, 1156059, 1156638, 1157206, 1157806, 1158393, 1158983, 1159575, 1160177, 1160775, 1161365, 1161990, 1162555, 1163154, 1163744, 1164311]",55,SB,U,R,ITMSR,1.0,
2,400,trial,0,60,60,60,trial,"['S', 'S', 'S', 'S', 'S', 'S', 'C', 'C', 'C', 'C', 'C', 'C', 'C', 'C', 'C', 'C', 'C', 'C', 'C', 'C', 'C', 'C']","[1170834, 1171261, 1171660, 1172037, 1172417, 1172826, 1173248, 1173644, 1174064, 1174473, 1174894, 1175307, 1175703, 1176090, 1176474, 1176880, 1177270, 1177692, 1178083, 1178518, 1178905, 1179325]","[1170960, 1171402, 1171801, 1172196, 1172602, 1173012, 1173422, 1173842, 1174235, 1174653, 1175069, 1175490, 1175886, 1176259, 1176658, 1177057, 1177482, 1177871, 1178302, 1178690, 1179123, 1179517]","[95, 87, 71, 90, 143, 148, 137, 144, 137, 142, 141, 142, 140, 123, 118, 115, 110, 119, 111, 102, 124, 127]","[1170837, 1171300, 1171707, 1172100, 1172421, 1172830, 1173252, 1173648, 1174068, 1174477, 1174898, 1175310, 1175707, 1176095, 1176478, 1176885, 1177274, 1177696, 1178088, 1178522, 1178909, 1179330]","[1170062, 1170460, 1170861, 1171261, 1171660, 1172061, 1172460, 1172860, 1173288, 1173685, 1174105, 1174513, 1174934, 1175348, 1175744, 1176130, 1176514, 1176921, 1177311, 1177733, 1178124, 1178559, 1178945, 1179366]",55,SB,U,R,ITMSR,1.0,
3,400,trial,0,61,61,61,trial,"['B', 'S', 'S', 'S', 'S', 'S', 'S', 'C', 'C', 'C', 'C', 'C', 'C', 'C', 'C', 'C', 'C', 'C', 'C', 'C', 'C', 'C', 'C']","[1185140, 1185938, 1186366, 1186765, 1187143, 1187565, 1187965, 1188357, 1188742, 1189146, 1189562, 1189962, 1190373, 1190747, 1191122, 1191527, 1191960, 1192399, 1192798, 1193205, 1193602, 1193991, 1194388]","[1185757, 1186131, 1186565, 1186933, 1187347, 1187734, 1188133, 1188523, 1188922, 1189337, 1189730, 1190147, 1190532, 1190938, 1191294, 1191652, 1192121, 1192528, 1192972, 1193368, 1193754, 1194173, 1194566]","[9, 104, 84, 133, 106, 137, 140, 132, 149, 147, 144, 143, 133, 143, 123, 118, 117, 114, 109, 120, 136, 124, 133]","[1185167, 1185942, 1186366, 1186767, 1187144, 1187566, 1187965, 1188361, 1188746, 1189151, 1189565, 1189966, 1190377, 1190751, 1191127, 1191531, 1191965, 1192403, 1192802, 1193210, 1193606, 1193995, 1194392]","[1185167, 1185565, 1185966, 1186366, 1186765, 1187166, 1187565, 1187965, 1188396, 1188782, 1189185, 1189602, 1190000, 1190413, 1190786, 1191160, 1191567, 1192000, 1192437, 1192838, 1193244, 1193641, 1194030, 1194428]",55,SB,U,R,ITMSR,1.0,
0,600,trial,0,62,62,62,trial,"['S', 'S', 'S', 'S', 'S', 'S', 'C', 'C', 'C', 'C', 'C', 'C', 'C', 'C', 'C', 'C', 'C', 'C', 'C', 'C', 'C', 'C']","[1201329, 1201926, 1202524, 1203139, 1203734, 1204336, 1204952, 1205567, 1206196, 1206819, 1207425, 1208042, 1208649, 1209244, 1209842, 1210437, 1211055, 1211651, 1212257, 1212838, 1213436, 1214032]","[1201598, 1202177, 1202798, 1203347, 1203938, 1204535, 1205191, 1205776, 1206401, 1207030, 1207617, 1208239, 1208845, 1209432, 1210072, 1210664, 1211253, 1211832, 1212410, 1213032, 1213622, 1214242]","[150, 156, 161, 158, 151, 148, 134, 139, 140, 153, 144, 153, 160, 162, 155, 160, 161, 147, 144, 148, 158, 153]","[1201334, 1201930, 1202527, 1203143, 1203738, 1204340, 1204956, 1205571, 1206199, 1206823, 1207430, 1208045, 1208652, 1209247, 1209845, 1210441, 1211059, 1211655, 1212261, 1212843, 1213441, 1214036]","[1200179, 1200779, 1201379, 1201979, 1202579, 1203179, 1203778, 1204378, 1204993, 1205608, 1206237, 1206859, 1207465, 1208083, 1208689, 1209284, 1209882, 1210477, 1211096, 1211692, 1212298, 1212878, 1213476, 1214072]",55,SB,U,R,ITMSR,1.0,
2,600,trial,0,63,63,63,trial,"['S', 'S', 'S', 'S', 'S', 'S', 'C', 'C', 'C', 'C', 'C', 'C', 'C', 'C', 'C', 'C', 'C', 'C', 'C', 'C', 'C', 'C']","[1220907, 1221544, 1222145, 1222701, 1223298, 1223900, 1224487, 1225066, 1225644, 1226225, 1226820, 1227408, 1228013, 1228606, 1229197, 1229806, 1230414, 1231017, 1231594, 1232172, 1232807, 1233415]","[1221079, 1221728, 1222317, 1222899, 1223496, 1224097, 1224691, 1225255, 1225862, 1226417, 1227010, 1227610, 1228222, 1228859, 1229411, 1230050, 1230657, 1231242, 1231854, 1232423, 1233040, 1233637]","[157, 154, 111, 154, 155, 155, 153, 147, 138, 138, 147, 134, 154, 152, 149, 156, 152, 145, 160, 148, 136, 152]","[1220911, 1221544, 1222209, 1222705, 1223302, 1223904, 1224492, 1225069, 1225648, 1226229, 1226823, 1227412, 1228016, 1228610, 1229200, 1229810, 1230417, 1231021, 1231597, 1232176, 1232812, 1233419]","[1219745, 1220344, 1220944, 1221544, 1222145, 1222745, 1223345, 1223945, 1224527, 1225107, 1225684, 1226265, 1226860, 1227449, 1228054, 1228647, 1229238, 1229846, 1230454, 1231057, 1231635, 1232212, 1232847, 1233456]",55,SB,U,R,ITMSR,1.0,
0,400,trial,0,64,64,64,trial,"['S', 'S', 'S', 'S', 'S', 'S', 'C', 'C', 'C', 'C', 'C', 'C', 'C', 'C', 'C', 'C', 'C', 'C', 'C', 'C', 'C', 'C']","[1239692, 1240080, 1240479, 1240880, 1241280, 1241679, 1242074, 1242484, 1242905, 1243316, 1243728, 1244163, 1244561, 1244982, 1245385, 1245783, 1246192, 1246609, 1247014, 1247431, 1247811, 1248210]","[1239825, 1240263, 1240647, 1241039, 1241451, 1241847, 1242252, 1242682, 1243095, 1243500, 1243948, 1244341, 1244748, 1245133, 1245562, 1245981, 1246368, 1246782, 1247196, 1247590, 1248002, 1248398]","[125, 91, 101, 83, 106, 77, 150, 148, 143, 142, 146, 147, 140, 146, 145, 152, 137, 139, 128, 129, 135, 132]","[1239696, 1240142, 1240541, 1240941, 1241280, 1241679, 1242078, 1242487, 1242909, 1243320, 1243732, 1244167, 1244565, 1244986, 1245389, 1245787, 1246196, 1246613, 1247020, 1247434, 1247814, 1248215]","[1238881, 1239279, 1239680, 1240080, 1240479, 1240880, 1241280, 1241679, 1242115, 1242524, 1242945, 1243357, 1243768, 1244204, 1244602, 1245023, 1245425, 1245824, 1246232, 1246650, 1247054, 1247471, 1247852, 1248250]",55,SB,U,R,ITMSR,1.0,
4,400,trial,0,65,65,65,trial,"['S', 'S', 'S', 'S', 'S', 'S', 'C', 'C', 'C', 'C', 'C', 'C', 'C', 'C', 'C', 'C', 'C', 'C', 'C', 'C', 'C', 'C']","[1254704, 1255134, 1255533, 1255933, 1256334, 1256707, 1257104, 1257498, 1257896, 1258297, 1258703, 1259095, 1259486, 1259889, 1260289, 1260669, 1261069, 1261484, 1261874, 1262280, 1262670, 1263049]","[1254902, 1255310, 1255719, 1256125, 1256503, 1256903, 1257274, 1257682, 1258093, 1258492, 1258896, 1259299, 1259665, 1260058, 1260472, 1260873, 1261262, 1261667, 1262049, 1262447, 1262869, 1263238]","[132, 69, 86, 102, 107, 145, 122, 148, 156, 156, 152, 157, 154, 156, 145, 155, 152, 155, 154, 149, 157, 146]","[1254707, 1255187, 1255587, 1255998, 1256408, 1256710, 1257109, 1257502, 1257900, 1258301, 1258707, 1259098, 1259489, 1259893, 1260293, 1260673, 1261073, 1261488, 1261878, 1262284, 1262674, 1263053]","[1253934, 1254334, 1254733, 1255134, 1255533, 1255933, 1256334, 1256733, 1257145, 1257538, 1257936, 1258338, 1258743, 1259136, 1259527, 1259929, 1260329, 1260709, 1261110, 1261524, 1261915, 1262320, 1262710, 1263089]",55,SB,U,R,ITMSR,1.0,
3,600,trial,0,66,66,66,trial,"['S', 'S', 'S', 'S', 'S', 'S', 'C', 'C', 'C', 'C', 'C', 'C', 'C', 'C', 'C', 'C', 'C', 'C', 'C', 'C', 'C', 'C']","[1269733, 1270346, 1270920, 1271519, 1272110, 1272706, 1273284, 1273895, 1274486, 1275072, 1275666, 1276249, 1276841, 1277460, 1277992, 1278601, 1279194, 1279751, 1280319, 1280907, 1281465, 1282083]","[1269963, 1270597, 1271171, 1271751, 1272357, 1272910, 1273518, 1274113, 1274721, 1275321, 1275894, 1276480, 1277056, 1277679, 1278251, 1278841, 1279415, 1279975, 1280548, 1281101, 1281702, 1282295]","[149, 139, 144, 156, 153, 153, 159, 156, 157, 152, 160, 151, 155, 147, 152, 161, 165, 166, 162, 160, 164, 154]","[1269737, 1270348, 1270924, 1271523, 1272114, 1272709, 1273288, 1273899, 1274490, 1275076, 1275670, 1276253, 1276846, 1277463, 1277997, 1278605, 1279198, 1279755, 1280322, 1280910, 1281468, 1282086]","[1268571, 1269170, 1269770, 1270370, 1270970, 1271570, 1272170, 1272770, 1273323, 1273934, 1274524, 1275111, 1275706, 1276289, 1276879, 1277499, 1278030, 1278640, 1279234, 1279790, 1280358, 1280947, 1281505, 1282122]",55,SB,U,R,ITMSR,1.0,
4,600,trial,0,67,67,67,trial,"['S', 'S', 'S', 'S', 'S', 'S', 'C', 'C', 'C', 'C', 'C', 'C', 'C', 'C', 'C', 'C', 'C', 'C', 'C', 'C', 'C', 'C']","[1288711, 1289338, 1289913, 1290536, 1291088, 1291707, 1292298, 1292902, 1293480, 1294067, 1294687, 1295280, 1295839, 1296443, 1297013, 1297601, 1298197, 1298788, 1299373, 1299948, 1300556, 1301125]","[1288885, 1289485, 1290037, 1290675, 1291261, 1291886, 1292477, 1293074, 1293641, 1294227, 1294857, 1295444, 1296005, 1296652, 1297208, 1297789, 1298379, 1298970, 1299547, 1300114, 1300738, 1301308]","[132, 123, 58, 50, 138, 148, 145, 141, 151, 149, 126, 145, 150, 144, 149, 118, 122, 127, 100, 120, 133, 106]","[1288713, 1289342, 1289966, 1290590, 1291091, 1291710, 1292302, 1292906, 1293484, 1294071, 1294691, 1295284, 1295843, 1296447, 1297017, 1297604, 1298201, 1298792, 1299377, 1299952, 1300560, 1301129]","[1287536, 1288136, 1288736, 1289336, 1289936, 1290536, 1291137, 1291737, 1292339, 1292943, 1293520, 1294107, 1294728, 1295321, 1295880, 1296484, 1297053, 1297642, 1298238, 1298829, 1299414, 1299989, 1300596, 1301166]",55,SB,U,R,ITMSR,1.0,
5,600,trial,0,68,68,68,trial,"['S', 'S', 'S', 'S', 'S', 'S', 'C', 'C', 'C', 'C', 'C', 'C', 'C', 'C', 'C', 'C', 'C', 'C', 'C', 'C', 'C', 'C']","[1307864, 1308439, 1309015, 1309586, 1310201, 1310812, 1311414, 1311977, 1312566, 1313112, 1313694, 1314274, 1314830, 1315386, 1315954, 1316516, 1317079, 1317647, 1318222, 1318799, 1319372, 1319931]","[1307999, 1308618, 1309195, 1309763, 1310379, 1310986, 1311584, 1312157, 1312734, 1313300, 1313865, 1314428, 1315006, 1315590, 1316131, 1316719, 1317306, 1317854, 1318440, 1319020, 1319576, 1320157]","[83, 138, 152, 162, 155, 157, 151, 150, 127, 138, 74, 129, 133, 142, 135, 143, 143, 142, 130, 143, 138, 136]","[1307908, 1308441, 1309019, 1309590, 1310205, 1310815, 1311417, 1311981, 1312570, 1313116, 1313699, 1314279, 1314834, 1315391, 1315958, 1316520, 1317082, 1317650, 1318226, 1318803, 1319376, 1319936]","[1306663, 1307264, 1307863, 1308464, 1309063, 1309663, 1310264, 1310863, 1311454, 1312017, 1312606, 1313152, 1313733, 1314314, 1314870, 1315426, 1315993, 1316555, 1317118, 1317687, 1318261, 1318839, 1319411, 1319970]",55,SB,U,R,ITMSR,1.0,
2,400,trial,0,69,69,69,trial,"['S', 'S', 'S', 'S', 'S', 'S', 'C', 'C', 'C', 'C', 'C', 'C', 'C', 'C', 'C', 'C', 'C', 'C', 'C', 'C', 'C', 'C']","[1326522, 1326921, 1327322, 1327722, 1328121, 1328522, 1328910, 1329307, 1329727, 1330127, 1330521, 1330922, 1331325, 1331731, 1332147, 1332546, 1332937, 1333352, 1333770, 1334172, 1334560, 1334959]","[1326650, 1327065, 1327473, 1327897, 1328263, 1328686, 1329072, 1329480, 1329882, 1330314, 1330675, 1331088, 1331489, 1331874, 1332297, 1332700, 1333095, 1333490, 1333916, 1334330, 1334721, 1335111]","[70, 79, 59, 58, 124, 75, 130, 140, 146, 144, 142, 147, 155, 158, 150, 151, 158, 158, 160, 155, 153, 160]","[1326559, 1326960, 1327372, 1327793, 1328121, 1328571, 1328914, 1329310, 1329730, 1330131, 1330525, 1330926, 1331330, 1331734, 1332150, 1332550, 1332941, 1333356, 1333773, 1334175, 1334563, 1334963]","[1325722, 1326121, 1326522, 1326921, 1327322, 1327722, 1328121, 1328522, 1328951, 1329347, 1329768, 1330167, 1330562, 1330963, 1331365, 1331772, 1332188, 1332587, 1332977, 1333393, 1333811, 1334212, 1334600, 1335000]",55,SB,U,R,ITMSR,1.0,
1,400,trial,0,70,70,70,trial,"['S', 'S', 'S', 'S', 'S', 'S', 'C', 'C', 'C', 'C', 'C', 'C', 'C', 'C', 'C', 'C', 'C', 'C', 'C', 'C', 'C', 'C']","[1341232, 1341631, 1342005, 1342401, 1342804, 1343208, 1343614, 1344015, 1344411, 1344823, 1345233, 1345651, 1346053, 1346448, 1346853, 1347269, 1347676, 1348069, 1348481, 1348886, 1349300, 1349711]","[1341377, 1341819, 1342206, 1342612, 1342998, 1343409, 1343812, 1344203, 1344609, 1344988, 1345419, 1345827, 1346232, 1346573, 1347016, 1347452, 1347849, 1348268, 1348661, 1349085, 1349472, 1349856]","[96, 72, 157, 160, 132, 142, 157, 159, 156, 160, 165, 158, 161, 157, 156, 163, 153, 158, 164, 167, 159, 158]","[1341232, 1341681, 1342009, 1342404, 1342809, 1343210, 1343619, 1344018, 1344415, 1344827, 1345236, 1345655, 1346057, 1346451, 1346857, 1347273, 1347679, 1348073, 1348485, 1348889, 1349304, 1349714]","[1340432, 1340831, 1341232, 1341631, 1342031, 1342432, 1342831, 1343232, 1343652, 1344054, 1344449, 1344862, 1345271, 1345689, 1346092, 1346487, 1346891, 1347307, 1347715, 1348108, 1348519, 1348925, 1349339, 1349749]",55,SB,U,R,ITMSR,1.0,
0,400,trial,0,71,71,71,trial,"['S', 'S', 'S', 'S', 'S', 'S', 'C', 'C', 'C', 'C', 'C', 'C', 'C', 'C', 'C', 'C', 'C', 'C', 'C', 'C', 'C', 'C']","[1356179, 1356554, 1356948, 1357349, 1357749, 1358144, 1358552, 1358957, 1359369, 1359764, 1360174, 1360582, 1360980, 1361394, 1361790, 1362195, 1362596, 1362993, 1363418, 1363818, 1364201, 1364619]","[1356338, 1356759, 1357151, 1357546, 1357968, 1358348, 1358754, 1359164, 1359553, 1359962, 1360378, 1360774, 1361158, 1361558, 1361979, 1362384, 1362771, 1363147, 1363578, 1364027, 1364372, 1364795]","[81, 144, 172, 159, 170, 151, 163, 169, 163, 172, 172, 173, 168, 176, 167, 167, 168, 165, 142, 172, 148, 171]","[1356239, 1356555, 1356952, 1357353, 1357753, 1358148, 1358556, 1358961, 1359373, 1359768, 1360178, 1360585, 1360985, 1361397, 1361794, 1362199, 1362600, 1362997, 1363421, 1363821, 1364205, 1364623]","[1355379, 1355779, 1356179, 1356578, 1356979, 1357378, 1357778, 1358179, 1358593, 1358998, 1359410, 1359805, 1360215, 1360622, 1361020, 1361434, 1361830, 1362236, 1362636, 1363034, 1363459, 1363859, 1364242, 1364660]",55,SB,U,R,ITMSR,1.0,
3,400,trial,0,72,72,72,trial,"['S', 'S', 'S', 'S', 'S', 'S', 'C', 'C', 'C', 'C', 'C', 'C', 'C', 'C', 'C', 'C', 'C', 'C', 'C', 'C', 'C', 'C']","[1370770, 1371176, 1371617, 1371983, 1372377, 1372773, 1373172, 1373573, 1373978, 1374377, 1374773, 1375168, 1375565, 1375979, 1376380, 1376781, 1377203, 1377609, 1378015, 1378397, 1378790, 1379196]","[1370957, 1371411, 1371813, 1372204, 1372589, 1372994, 1373390, 1373800, 1374192, 1374600, 1375000, 1375380, 1375778, 1376185, 1376595, 1376995, 1377405, 1377813, 1378191, 1378601, 1378991, 1379401]","[135, 167, 129, 161, 163, 148, 161, 169, 167, 165, 167, 147, 163, 170, 165, 161, 172, 159, 155, 166, 169, 175]","[1370774, 1371180, 1371673, 1371987, 1372381, 1372777, 1373175, 1373576, 1373982, 1374383, 1374777, 1375172, 1375569, 1375983, 1376385, 1376784, 1377206, 1377612, 1378019, 1378400, 1378794, 1379200]","[1370017, 1370417, 1370816, 1371216, 1371617, 1372016, 1372417, 1372817, 1373211, 1373612, 1374016, 1374415, 1374813, 1375207, 1375603, 1376018, 1376419, 1376820, 1377243, 1377647, 1378055, 1378437, 1378829, 1379234]",55,SB,U,R,ITMSR,1.0,
3,600,trial,0,73,73,73,trial,"['S', 'S', 'S', 'S', 'S', 'S', 'C', 'C', 'C', 'C', 'C', 'C', 'C', 'C', 'C', 'C', 'C', 'C', 'C', 'C', 'C', 'C']","[1385744, 1386346, 1386945, 1387552, 1388167, 1388765, 1389351, 1389935, 1390515, 1391123, 1391703, 1392269, 1392867, 1393452, 1394030, 1394634, 1395238, 1395820, 1396400, 1396963, 1397541, 1398120]","[1386006, 1386611, 1387181, 1387797, 1388425, 1389035, 1389590, 1390186, 1390787, 1391370, 1391973, 1392541, 1393140, 1393727, 1394319, 1394929, 1395521, 1396122, 1396682, 1397258, 1397853]","[162, 164, 168, 169, 169, 169, 162, 165, 167, 157, 140, 165, 159, 168, 168, 174, 161, 173, 155, 157, 151]","[1385748, 1386350, 1386948, 1387556, 1388171, 1388768, 1389356, 1389939, 1390519, 1391128, 1391841, 1392272, 1392871, 1393455, 1394033, 1394637, 1395243, 1395824, 1396499, 1396967, 1397547]","[1384608, 1385207, 1385807, 1386407, 1387008, 1387608, 1388208, 1388808, 1389389, 1389974, 1390555, 1391163, 1391742, 1392309, 1392906, 1393490, 1394068, 1394673, 1395277, 1395860, 1396440, 1397002, 1397580, 1398160]",55,SB,U,R,ITMSR,1.0,
1,600,trial,0,74,74,74,trial,"['S', 'S', 'S', 'S', 'S', 'S', 'C', 'C', 'C', 'C', 'C', 'C', 'C', 'C', 'C', 'C', 'C', 'C', 'C', 'C', 'C', 'C']","[1404605, 1405205, 1405825, 1406414, 1407010, 1407613, 1408220, 1408794, 1409378, 1409976, 1410547, 1411141, 1411757, 1412327, 1412898, 1413484, 1414064, 1414661, 1415251, 1415826, 1416426, 1416990]","[1404889, 1405489, 1406104, 1406689, 1407266, 1407869, 1408465, 1409040, 1409640, 1410202, 1410799, 1411416, 1411986, 1412582, 1413137, 1413736, 1414293, 1414922, 1415488, 1416127, 1416696, 1417236]","[165, 162, 165, 178, 174, 166, 163, 168, 165, 174, 169, 170, 174, 174, 173, 176, 177, 169, 173, 174, 164, 176]","[1404608, 1405209, 1405828, 1406418, 1407014, 1407617, 1408224, 1408797, 1409382, 1409979, 1410551, 1411145, 1411760, 1412331, 1412901, 1413488, 1414068, 1414665, 1415256, 1415829, 1416430, 1416994]","[1403471, 1404070, 1404670, 1405271, 1405871, 1406471, 1407071, 1407671, 1408259, 1408832, 1409417, 1410015, 1410585, 1411179, 1411795, 1412366, 1412936, 1413523, 1414103, 1414700, 1415289, 1415865, 1416465, 1417028]",55,SB,U,R,ITMSR,1.0,
1,600,trial,0,75,75,75,trial,"['S', 'S', 'S', 'S', 'S', 'S', 'S', 'C', 'C', 'C', 'C', 'C', 'C', 'C', 'C', 'C', 'C', 'C', 'C', 'C', 'C', 'C', 'C']","[1422877, 1423586, 1424173, 1424797, 1425364, 1425961, 1426551, 1427147, 1427714, 1428318, 1428917, 1429511, 1430093, 1430677, 1431296, 1431882, 1432469, 1433058, 1433630, 1434223, 1434829, 1435429, 1436019]","[1423247, 1423869, 1424456, 1425079, 1425637, 1426215, 1426804, 1427388, 1427975, 1428572, 1429172, 1429767, 1430387, 1430941, 1431557, 1432134, 1432730, 1433331, 1433938, 1434519, 1435110, 1435716]","[98, 140, 155, 155, 158, 158, 161, 162, 159, 157, 163, 161, 158, 157, 155, 150, 157, 146, 154, 163, 162, 159]","[1422882, 1423589, 1424177, 1424801, 1425369, 1425966, 1426555, 1427151, 1427718, 1428322, 1428920, 1429515, 1430096, 1430681, 1431299, 1431885, 1432473, 1433062, 1433634, 1434227, 1434832, 1435432]","[1422433, 1423033, 1423633, 1424233, 1424832, 1425432, 1426032, 1426632, 1427185, 1427752, 1428357, 1428956, 1429550, 1430131, 1430716, 1431334, 1431920, 1432508, 1433097, 1433668, 1434261, 1434867, 1435467, 1436057]",55,SB,U,R,ITMSR,1.0,
4,400,trial,0,76,76,76,trial,"['S', 'S', 'S', 'S', 'S', 'S', 'C', 'C', 'C', 'C', 'C', 'C', 'C', 'C', 'C', 'C', 'C', 'C', 'C', 'C', 'C', 'C']","[1442250, 1442651, 1443051, 1443450, 1443857, 1444254, 1444649, 1445062, 1445491, 1445916, 1446351, 1446785, 1447191, 1447625, 1448042, 1448465, 1448875, 1449286, 1449691, 1450109, 1450529, 1450936]","[1442416, 1442867, 1443259, 1443655, 1444061, 1444457, 1444841, 1445269, 1445715, 1446126, 1446555, 1446986, 1447410, 1447825, 1448262, 1448657, 1449044, 1449470, 1449915, 1450298, 1450738, 1451131]","[82, 111, 164, 156, 168, 164, 161, 163, 167, 168, 169, 164, 161, 156, 165, 167, 164, 168, 158, 161, 166, 162]","[1442315, 1442651, 1443052, 1443453, 1443861, 1444258, 1444654, 1445066, 1445494, 1445920, 1446355, 1446788, 1447195, 1447629, 1448046, 1448469, 1448879, 1449290, 1449694, 1450114, 1450533, 1450940]","[1441451, 1441851, 1442250, 1442651, 1443051, 1443450, 1443851, 1444250, 1444689, 1445102, 1445531, 1445956, 1446391, 1446825, 1447232, 1447665, 1448083, 1448506, 1448915, 1449326, 1449732, 1450149, 1450569, 1450977]",55,SB,U,R,ITMSR,1.0,
5,400,trial,0,77,77,77,trial,"['S', 'S', 'S', 'S', 'S', 'S', 'C', 'C', 'C', 'C', 'C', 'C', 'C', 'C', 'C', 'C', 'C', 'C', 'C', 'C', 'C', 'C']","[1457249, 1457664, 1458059, 1458473, 1458875, 1459299, 1459666, 1460085, 1460510, 1460916, 1461331, 1461723, 1462116, 1462530, 1462955, 1463337, 1463751, 1464174, 1464574, 1464976, 1465372, 1465799]","[1457388, 1457805, 1458227, 1458650, 1459059, 1459462, 1459873, 1460270, 1460718, 1461128, 1461526, 1461944, 1462317, 1462737, 1463153, 1463536, 1463961, 1464358, 1464780, 1465192, 1465603, 1465982]","[134, 162, 185, 162, 163, 145, 177, 172, 166, 168, 162, 151, 155, 163, 165, 146, 151, 150, 162, 145, 148, 137]","[1457253, 1457668, 1458063, 1458476, 1458876, 1459352, 1459671, 1460089, 1460514, 1460920, 1461335, 1461727, 1462120, 1462533, 1462959, 1463342, 1463755, 1464179, 1464579, 1464980, 1465377, 1465875]","[1456498, 1456898, 1457299, 1457698, 1458098, 1458497, 1458897, 1459299, 1459705, 1460124, 1460549, 1460956, 1461370, 1461763, 1462156, 1462569, 1462994, 1463376, 1463790, 1464213, 1464613, 1465016, 1465411, 1465838]",55,SB,U,R,ITMSR,1.0,
1,400,trial,0,78,78,78,trial,"['S', 'S', 'S', 'S', 'S', 'S', 'C', 'C', 'C', 'C', 'C', 'C', 'C', 'C', 'C', 'C', 'C', 'C', 'C', 'C', 'C', 'C']","[1486630, 1487069, 1487468, 1487868, 1488269, 1488669, 1489078, 1489486, 1489893, 1490304, 1490710, 1491113, 1491519, 1491920, 1492331, 1492739, 1493129, 1493517, 1493910, 1494346, 1494745, 1495130]","[1486801, 1487224, 1487638, 1488044, 1488450, 1488867, 1489255, 1489679, 1490098, 1490492, 1490902, 1491309, 1491700, 1492114, 1492513, 1492918, 1493325, 1493709, 1494094, 1494499, 1494934, 1495327]","[162, 118, 77, 113, 139, 146, 141, 160, 155, 149, 148, 155, 140, 158, 156, 151, 112, 131, 130, 138, 155, 145]","[1486636, 1487069, 1487517, 1487924, 1488270, 1488673, 1489082, 1489490, 1489897, 1490308, 1490714, 1491118, 1491524, 1491924, 1492335, 1492743, 1493133, 1493521, 1493914, 1494350, 1494748, 1495135]","[1485869, 1486269, 1486668, 1487069, 1487468, 1487868, 1488269, 1488668, 1489117, 1489524, 1489932, 1490342, 1490749, 1491151, 1491558, 1491958, 1492370, 1492777, 1493168, 1493556, 1493949, 1494384, 1494784, 1495169]",55,SB,U,R,ITMSR,1.0,
1,600,trial,0,79,79,79,trial,"['S', 'S', 'S', 'S', 'S', 'S', 'C', 'C', 'C', 'C', 'C', 'C', 'C', 'C', 'C', 'C', 'C', 'C', 'C', 'C', 'C', 'C']","[1501672, 1502256, 1502859, 1503456, 1504047, 1504645, 1505234, 1505806, 1506423, 1507022, 1507615, 1508200, 1508781, 1509360, 1509952, 1510552, 1511153, 1511735, 1512331, 1512920, 1513501, 1514090]","[1501922, 1502515, 1503143, 1503703, 1504302, 1504890, 1505461, 1506041, 1506677, 1507272, 1507854, 1508450, 1509055, 1509612, 1510225, 1510824, 1511426, 1512010, 1512606, 1513199, 1513767, 1514370]","[161, 168, 147, 148, 149, 147, 148, 145, 156, 140, 146, 156, 158, 169, 155, 134, 148, 161, 148, 144, 155, 157]","[1501676, 1502260, 1502863, 1503460, 1504050, 1504649, 1505239, 1505810, 1506426, 1507026, 1507619, 1508204, 1508784, 1509363, 1509955, 1510556, 1511158, 1511738, 1512335, 1512924, 1513505, 1514094]","[1500504, 1501103, 1501703, 1502303, 1502903, 1503503, 1504103, 1504703, 1505272, 1505845, 1506461, 1507060, 1507653, 1508239, 1508819, 1509398, 1509991, 1510591, 1511191, 1511774, 1512370, 1512958, 1513539, 1514129]",55,SB,U,R,ITMSR,1.0,
3,400,trial,0,80,80,80,trial,"['S', 'S', 'S', 'S', 'S', 'S', 'C', 'C', 'C', 'C', 'C', 'C', 'C', 'C', 'C', 'C', 'C', 'C', 'C', 'C', 'C', 'C']","[1520619, 1520987, 1521419, 1521826, 1522232, 1522619, 1522983, 1523392, 1523807, 1524224, 1524640, 1525038, 1525453, 1525872, 1526286, 1526703, 1527101, 1527514, 1527924, 1528329, 1528748, 1529167]","[1520771, 1521217, 1521636, 1522060, 1522421, 1522799, 1523211, 1523609, 1524026, 1524441, 1524827, 1525254, 1525663, 1526075, 1526492, 1526874, 1527309, 1527707, 1528138, 1528543, 1528963, 1529372]","[93, 182, 136, 164, 152, 109, 158, 151, 151, 170, 160, 175, 156, 158, 161, 161, 161, 154, 162, 151, 142, 154]","[1520675, 1520990, 1521487, 1521831, 1522236, 1522696, 1522988, 1523396, 1523811, 1524228, 1524644, 1525042, 1525457, 1525877, 1526290, 1526707, 1527105, 1527518, 1527928, 1528333, 1528752, 1529171]","[1519819, 1520219, 1520618, 1521018, 1521419, 1521818, 1522219, 1522619, 1523022, 1523432, 1523847, 1524263, 1524678, 1525076, 1525491, 1525910, 1526325, 1526742, 1527141, 1527553, 1527963, 1528368, 1528786, 1529205]",55,SB,U,R,ITMSR,1.0,
0,600,trial,0,81,81,81,trial,"['S', 'S', 'S', 'S', 'S', 'S', 'C', 'C', 'C', 'C', 'C', 'C', 'C', 'C', 'C', 'C', 'C', 'C', 'C', 'C', 'C', 'C']","[1536184, 1536784, 1537351, 1537946, 1538583, 1539143, 1539734, 1540347, 1540952, 1541568, 1542165, 1542770, 1543391, 1543993, 1544603, 1545210, 1545808, 1546383, 1546972, 1547567, 1548157, 1548746]","[1536429, 1536994, 1537560, 1538179, 1538806, 1539389, 1539965, 1540582, 1541202, 1541808, 1542419, 1543023, 1543635, 1544244, 1544845, 1545460, 1546063, 1546657, 1547236, 1547792, 1548419]","[116, 118, 159, 160, 100, 150, 157, 155, 159, 154, 158, 152, 158, 146, 153, 152, 160, 143, 149, 145, 160]","[1536256, 1536866, 1537355, 1537950, 1538657, 1539148, 1539739, 1540353, 1540957, 1541573, 1542169, 1542775, 1543395, 1543997, 1544607, 1545216, 1545814, 1546388, 1546976, 1547571, 1548162]","[1534985, 1535584, 1536184, 1536784, 1537384, 1537984, 1538583, 1539183, 1539775, 1540387, 1540993, 1541609, 1542206, 1542810, 1543432, 1544034, 1544643, 1545250, 1545848, 1546424, 1547013, 1547608, 1548197, 1548786]",55,SB,U,R,ITMSR,1.0,
2,400,trial,0,82,82,82,trial,"['S', 'S', 'S', 'S', 'S', 'C', 'C', 'C', 'C', 'C', 'C', 'C', 'C', 'C', 'C', 'C', 'C', 'C', 'C', 'C', 'C']","[1555388, 1555807, 1556233, 1556632, 1556997, 1557407, 1557797, 1558206, 1558611, 1559024, 1559438, 1559841, 1560239, 1560648, 1561051, 1561441, 1561865, 1562259, 1562655, 1563060, 1563463]","[1555574, 1556023, 1556433, 1556822, 1557224, 1557597, 1558014, 1558427, 1558812, 1559225, 1559640, 1560026, 1560435, 1560849, 1561238, 1561663, 1562054, 1562466, 1562864, 1563265, 1563678]","[152, 140, 127, 119, 153, 161, 168, 164, 161, 163, 155, 157, 165, 170, 167, 161, 160, 161, 165, 155, 160]","[1555392, 1555809, 1556308, 1556705, 1557001, 1557411, 1557801, 1558210, 1558617, 1559029, 1559443, 1559846, 1560243, 1560652, 1561055, 1561445, 1561869, 1562263, 1562660, 1563065, 1563467]","[1554233, 1554632, 1555033, 1555433, 1555832, 1556233, 1556632, 1557032, 1557447, 1557837, 1558247, 1558651, 1559064, 1559479, 1559881, 1560280, 1560688, 1561092, 1561482, 1561906, 1562300, 1562695, 1563101, 1563503]",55,SB,U,R,ITMSR,1.0,
2,400,trial,0,83,83,83,trial,"['S', 'S', 'S', 'S', 'S', 'S', 'C', 'C', 'C', 'C', 'C', 'C', 'C', 'C', 'C', 'C', 'C', 'C', 'C', 'C', 'C', 'C']","[1569671, 1570126, 1570535, 1570925, 1571325, 1571726, 1572117, 1572519, 1572918, 1573330, 1573716, 1574119, 1574530, 1574933, 1575332, 1575721, 1576121, 1576537, 1576946, 1577340, 1577749, 1578139]","[1569872, 1570316, 1570714, 1571112, 1571499, 1571915, 1572311, 1572723, 1573128, 1573545, 1573933, 1574309, 1574723, 1575129, 1575531, 1575923, 1576324, 1576741, 1577147, 1577560, 1577934, 1578356]","[145, 165, 164, 131, 149, 143, 161, 168, 158, 165, 151, 158, 164, 167, 159, 140, 147, 166, 163, 153, 151, 155]","[1569676, 1570130, 1570539, 1570998, 1571325, 1571792, 1572122, 1572524, 1572923, 1573335, 1573722, 1574124, 1574534, 1574937, 1575336, 1575727, 1576126, 1576542, 1576951, 1577346, 1577754, 1578143]","[1568925, 1569326, 1569726, 1570125, 1570526, 1570925, 1571325, 1571726, 1572158, 1572559, 1572959, 1573370, 1573756, 1574160, 1574571, 1574974, 1575372, 1575761, 1576162, 1576578, 1576986, 1577380, 1577790, 1578179]",55,SB,U,R,ITMSR,1.0,
3,600,trial,0,84,84,84,trial,"['S', 'S', 'S', 'S', 'S', 'S', 'C', 'C', 'C', 'C', 'C', 'C', 'C', 'C', 'C', 'C', 'C', 'C', 'C', 'C', 'C', 'C']","[1584829, 1585417, 1585998, 1586598, 1587203, 1587806, 1588408, 1588987, 1589591, 1590180, 1590790, 1591367, 1591953, 1592539, 1593146, 1593731, 1594315, 1594896, 1595458, 1596043, 1596624, 1597200]","[1585058, 1585666, 1586247, 1586844, 1587472, 1588051, 1588661, 1589267, 1589866, 1590455, 1591066, 1591647, 1592241, 1592817, 1593436, 1594023, 1594628, 1595166, 1595755, 1596324, 1596911, 1597467]","[147, 167, 154, 168, 157, 164, 172, 168, 162, 169, 156, 164, 164, 163, 165, 154, 152, 163, 152, 163, 152, 153]","[1584833, 1585422, 1586003, 1586603, 1587207, 1587811, 1588413, 1588992, 1589595, 1590185, 1590794, 1591372, 1591958, 1592543, 1593150, 1593736, 1594320, 1594900, 1595463, 1596048, 1596630, 1597205]","[1583672, 1584271, 1584871, 1585471, 1586071, 1586671, 1587271, 1587871, 1588448, 1589025, 1589629, 1590218, 1590830, 1591406, 1591992, 1592579, 1593185, 1593769, 1594353, 1594936, 1595498, 1596083, 1596662, 1597239]",55,SB,U,R,ITMSR,1.0,
0,400,trial,0,85,85,85,trial,"['S', 'S', 'S', 'S', 'S', 'S', 'C', 'C', 'C', 'C', 'C', 'C', 'C', 'C', 'C', 'C', 'C', 'C', 'C', 'C', 'C', 'C']","[1603801, 1604203, 1604611, 1605020, 1605444, 1605844, 1606218, 1606634, 1607051, 1607452, 1607859, 1608267, 1608648, 1609071, 1609507, 1609892, 1610298, 1610718, 1611127, 1611528, 1611929, 1612342]","[1603940, 1604391, 1604811, 1605214, 1605642, 1606002, 1606434, 1606835, 1607243, 1607644, 1608042, 1608431, 1608855, 1609269, 1609656, 1610097, 1610492, 1610881, 1611315, 1611747, 1612129, 1612540]","[112, 159, 170, 139, 169, 135, 162, 157, 157, 160, 153, 154, 161, 159, 141, 150, 145, 151, 156, 152, 152, 160]","[1603807, 1604207, 1604615, 1605092, 1605444, 1605907, 1606223, 1606638, 1607055, 1607456, 1607863, 1608272, 1608652, 1609075, 1609511, 1609896, 1610302, 1610722, 1611132, 1611531, 1611934, 1612347]","[1603045, 1603444, 1603845, 1604245, 1604644, 1605045, 1605444, 1605844, 1606258, 1606675, 1607092, 1607492, 1607900, 1608307, 1608688, 1609111, 1609547, 1609932, 1610339, 1610759, 1611167, 1611569, 1611969, 1612383]",55,SB,U,R,ITMSR,1.0,
0,400,trial,0,86,86,86,trial,"['S', 'S', 'S', 'S', 'S', 'S', 'C', 'C', 'C', 'C', 'C', 'C', 'C', 'C', 'C', 'C', 'C', 'C', 'C', 'C', 'C', 'C']","[1618881, 1619249, 1619645, 1620047, 1620448, 1620843, 1621256, 1621657, 1622072, 1622467, 1622874, 1623280, 1623662, 1624085, 1624502, 1624914, 1625333, 1625752, 1626155, 1626587, 1626988, 1627396]","[1619031, 1619468, 1619853, 1620260, 1620668, 1621063, 1621464, 1621872, 1622264, 1622688, 1623072, 1623460, 1623877, 1624278, 1624698, 1625115, 1625513, 1625926, 1626345, 1626771, 1627189, 1627577]","[89, 149, 163, 154, 144, 149, 148, 146, 157, 155, 141, 150, 138, 149, 161, 156, 164, 153, 150, 147, 133, 134]","[1618935, 1619253, 1619650, 1620052, 1620453, 1620848, 1621261, 1621662, 1622076, 1622471, 1622880, 1623285, 1623667, 1624090, 1624506, 1624920, 1625337, 1625757, 1626160, 1626592, 1626994, 1627401]","[1618081, 1618481, 1618881, 1619281, 1619682, 1620081, 1620482, 1620882, 1621297, 1621697, 1622113, 1622508, 1622915, 1623320, 1623702, 1624126, 1624543, 1624954, 1625373, 1625793, 1626195, 1626628, 1627029, 1627437]",55,SB,U,R,ITMSR,1.0,
4,400,trial,0,87,87,87,trial,"['S', 'S', 'S', 'S', 'S', 'S', 'C', 'C', 'C', 'C', 'C', 'C', 'C', 'C', 'C', 'C', 'C', 'C', 'C', 'C', 'C', 'C']","[1633857, 1634255, 1634686, 1635087, 1635486, 1635859, 1636261, 1636678, 1637085, 1637488, 1637896, 1638308, 1638714, 1639131, 1639552, 1639943, 1640335, 1640752, 1641157, 1641577, 1641985, 1642392]","[1634042, 1634476, 1634873, 1635265, 1635671, 1636051, 1636454, 1636875, 1637282, 1637668, 1638077, 1638491, 1638898, 1639294, 1639715, 1640115, 1640518, 1640930, 1641358, 1641744, 1642169, 1642548]","[134, 148, 154, 142, 132, 153, 147, 168, 151, 151, 141, 135, 147, 135, 114, 113, 117, 131, 118, 126, 109, 113]","[1633862, 1634260, 1634686, 1635087, 1635486, 1635863, 1636265, 1636681, 1637090, 1637492, 1637900, 1638312, 1638719, 1639135, 1639556, 1639948, 1640339, 1640756, 1641161, 1641581, 1641990, 1642396]","[1633088, 1633486, 1633887, 1634286, 1634686, 1635087, 1635486, 1635887, 1636301, 1636718, 1637126, 1637528, 1637937, 1638348, 1638755, 1639172, 1639592, 1639984, 1640376, 1640793, 1641197, 1641618, 1642025, 1642433]",55,SB,U,R,ITMSR,1.0,
4,400,trial,0,88,88,88,trial,"['S', 'S', 'S', 'S', 'S', 'S', 'C', 'C', 'C', 'C', 'C', 'C', 'C', 'C', 'C', 'C', 'C', 'C', 'C', 'C', 'C', 'C']","[1648924, 1649321, 1649758, 1650157, 1650557, 1650958, 1651334, 1651738, 1652166, 1652577, 1653008, 1653437, 1653859, 1654245, 1654644, 1655046, 1655433, 1655821, 1656223, 1656644, 1657037, 1657459]","[1649088, 1649532, 1649946, 1650337, 1650742, 1651140, 1651532, 1651949, 1652355, 1652760, 1653184, 1653616, 1654038, 1654439, 1654814, 1655201, 1655625, 1656003, 1656431, 1656824, 1657230, 1657603]","[136, 162, 130, 140, 158, 128, 167, 163, 166, 164, 169, 166, 167, 159, 159, 153, 167, 162, 160, 167, 160, 166]","[1648929, 1649326, 1649830, 1650157, 1650557, 1651024, 1651339, 1651742, 1652170, 1652582, 1653012, 1653441, 1653863, 1654249, 1654648, 1655050, 1655437, 1655825, 1656227, 1656648, 1657041, 1657462]","[1648157, 1648558, 1648958, 1649357, 1649758, 1650157, 1650557, 1650958, 1651375, 1651778, 1652206, 1652618, 1653049, 1653478, 1653900, 1654286, 1654684, 1655087, 1655474, 1655862, 1656263, 1656684, 1657077, 1657499]",55,SB,U,R,ITMSR,1.0,
0,600,trial,0,89,89,89,trial,"['S', 'S', 'S', 'S', 'S', 'S', 'C', 'C', 'C', 'C', 'C', 'C', 'C', 'C', 'C', 'C', 'C', 'C', 'C', 'C', 'C', 'C']","[1664222, 1664822, 1665382, 1665976, 1666573, 1667164, 1667748, 1668323, 1668902, 1669495, 1670076, 1670659, 1671238, 1671830, 1672451, 1673028, 1673602, 1674182, 1674779, 1675348, 1675967, 1676583]","[1664432, 1665050, 1665646, 1666224, 1666829, 1667411, 1667995, 1668576, 1669144, 1669740, 1670333, 1670917, 1671501, 1672120, 1672707, 1673265, 1673862, 1674437, 1675023, 1675599, 1676200, 1676840]","[78, 50, 151, 133, 120, 138, 154, 130, 113, 151, 147, 157, 152, 152, 155, 166, 158, 156, 147, 144, 143, 159]","[1664294, 1664866, 1665385, 1665982, 1666577, 1667168, 1667753, 1668328, 1668909, 1669499, 1670081, 1670664, 1671242, 1671834, 1672455, 1673032, 1673606, 1674187, 1674783, 1675353, 1675971, 1676588]","[1663022, 1663622, 1664222, 1664822, 1665422, 1666022, 1666622, 1667222, 1667788, 1668364, 1668942, 1669535, 1670117, 1670700, 1671278, 1671871, 1672492, 1673068, 1673643, 1674222, 1674819, 1675388, 1676008, 1676623]",55,SB,U,R,ITMSR,1.0,
3,600,trial,0,90,90,90,trial,"['S', 'S', 'S', 'S', 'S', 'S', 'C', 'C', 'C', 'C', 'C', 'C', 'C', 'C', 'C', 'C', 'C', 'C', 'C', 'C', 'C', 'C']","[1683546, 1684177, 1684738, 1685327, 1685911, 1686520, 1687123, 1687686, 1688253, 1688850, 1689443, 1690014, 1690614, 1691215, 1691798, 1692383, 1692969, 1693560, 1694166, 1694753, 1695357, 1695958]","[1683744, 1684371, 1684987, 1685547, 1686166, 1686747, 1687354, 1687917, 1688506, 1689100, 1689705, 1690258, 1690863, 1691464, 1692059, 1692631, 1693206, 1693786, 1694409, 1694990, 1695578, 1696199]","[143, 127, 154, 135, 150, 133, 152, 141, 156, 164, 148, 163, 162, 163, 161, 158, 145, 146, 153, 157, 141, 136]","[1683551, 1684177, 1684742, 1685331, 1685915, 1686524, 1687128, 1687690, 1688257, 1688855, 1689448, 1690019, 1690618, 1691220, 1691803, 1692388, 1692976, 1693565, 1694170, 1694758, 1695363, 1695963]","[1682378, 1682977, 1683577, 1684177, 1684777, 1685378, 1685978, 1686578, 1687161, 1687726, 1688293, 1688890, 1689483, 1690053, 1690653, 1691254, 1691837, 1692422, 1693008, 1693598, 1694204, 1694791, 1695395, 1695997]",55,SB,U,R,ITMSR,1.0,
1,600,trial,0,91,91,91,trial,"['S', 'S', 'S', 'S', 'S', 'S', 'C', 'C', 'C', 'C', 'C', 'C', 'C', 'C', 'C', 'C', 'C', 'C', 'C', 'C', 'C', 'C']","[1702968, 1703565, 1704142, 1704757, 1705365, 1705966, 1706564, 1707179, 1707782, 1708382, 1708965, 1709572, 1710182, 1710761, 1711348, 1711929, 1712528, 1713125, 1713711, 1714310, 1714899, 1715503]","[1703177, 1703816, 1704409, 1704985, 1705601, 1706222, 1706822, 1707442, 1708039, 1708623, 1709218, 1709828, 1710441, 1710998, 1711592, 1712180, 1712757, 1713357, 1713978, 1714547, 1715147, 1715758]","[86, 146, 158, 148, 146, 125, 147, 149, 156, 159, 158, 157, 135, 152, 159, 161, 161, 160, 163, 174, 166, 164]","[1703054, 1703568, 1704146, 1704761, 1705368, 1705968, 1706568, 1707183, 1707786, 1708387, 1708969, 1709576, 1710186, 1710767, 1711352, 1711933, 1712532, 1713130, 1713716, 1714314, 1714904, 1715508]","[1701789, 1702389, 1702989, 1703589, 1704189, 1704790, 1705390, 1705990, 1706602, 1707217, 1707821, 1708421, 1709003, 1709611, 1710221, 1710799, 1711386, 1711968, 1712567, 1713164, 1713750, 1714349, 1714937, 1715542]",55,SB,U,R,ITMSR,1.0,
5,400,trial,0,92,92,92,trial,"['S', 'S', 'S', 'S', 'S', 'S', 'C', 'C', 'C', 'C', 'C', 'C', 'C', 'C', 'C', 'C', 'C', 'C', 'C', 'C', 'C', 'C']","[1721959, 1722365, 1722789, 1723189, 1723589, 1724002, 1724403, 1724805, 1725231, 1725633, 1726053, 1726452, 1726860, 1727260, 1727660, 1728075, 1728500, 1728919, 1729330, 1729733, 1730115, 1730532]","[1722124, 1722564, 1722964, 1723376, 1723799, 1724185, 1724592, 1725011, 1725424, 1725848, 1726241, 1726674, 1727057, 1727447, 1727865, 1728279, 1728664, 1729104, 1729528, 1729942, 1730307, 1730716]","[137, 95, 102, 109, 114, 160, 161, 161, 170, 167, 159, 160, 157, 170, 167, 168, 171, 159, 170, 167, 145, 160]","[1721963, 1722366, 1722854, 1723252, 1723664, 1724005, 1724407, 1724809, 1725235, 1725637, 1726057, 1726456, 1726865, 1727264, 1727664, 1728079, 1728504, 1728924, 1729334, 1729738, 1730120, 1730536]","[1721190, 1721588, 1721989, 1722389, 1722788, 1723189, 1723589, 1723988, 1724442, 1724845, 1725271, 1725673, 1726093, 1726491, 1726900, 1727299, 1727699, 1728114, 1728539, 1728959, 1729370, 1729772, 1730155, 1730572]",55,SB,U,R,ITMSR,1.0,
4,600,trial,0,93,93,93,trial,"['S', 'S', 'S', 'S', 'S', 'S', 'C', 'C', 'C', 'C', 'C', 'C', 'C', 'C', 'C', 'C', 'C', 'C', 'C', 'C', 'C', 'C']","[1737174, 1737828, 1738414, 1739006, 1739609, 1740198, 1740806, 1741365, 1741930, 1742511, 1743081, 1743673, 1744237, 1744795, 1745386, 1745978, 1746545, 1747087, 1747645, 1748227, 1748794, 1749345]","[1737428, 1738064, 1738670, 1739251, 1739851, 1740440, 1741041, 1741597, 1742153, 1742746, 1743327, 1743910, 1744475, 1745050, 1745631, 1746229, 1746797, 1747356, 1747908, 1748487, 1749040, 1749628]","[136, 167, 167, 152, 162, 162, 166, 159, 165, 155, 154, 157, 148, 155, 122, 144, 153, 142, 155, 146, 149, 158]","[1737179, 1737833, 1738418, 1739012, 1739614, 1740203, 1740811, 1741369, 1741935, 1742515, 1743086, 1743678, 1744241, 1744800, 1745391, 1745982, 1746549, 1747091, 1747649, 1748232, 1748799, 1749349]","[1736078, 1736677, 1737277, 1737877, 1738476, 1739076, 1739676, 1740276, 1740847, 1741406, 1741971, 1742552, 1743122, 1743714, 1744278, 1744835, 1745427, 1746019, 1746585, 1747128, 1747686, 1748268, 1748835, 1749386]",55,SB,U,R,ITMSR,1.0,
