pitch,ioi,event,.thisRepN,.thisTrialN,.thisN,.thisIndex,event,tap_types,tap_times,release_times,peak_pressures,peak_times,tone_times,subject,experimenter,register,handedness,experiment,version
,,SPR,0,-1,-1,0,SPR,"['P', 'P', 'P', 'P', 'P', 'P', 'P', 'P', 'P', 'P', 'P', 'P', 'P', 'P', 'P', 'P', 'P', 'P', 'P', 'P', 'P', 'P', 'P', 'P', 'P', 'P', 'P', 'P', 'P', 'P']","[52948, 53601, 54299, 54982, 55693, 56425, 57174, 57944, 58667, 59409, 60134, 60852, 61568, 62333, 63077, 63842, 64569, 65302, 66030, 66774, 67517, 68273, 69000, 69715, 70428, 71160, 71882, 72592, 73339, 74140]","[53013, 53667, 54355, 55044, 55754, 56492, 57238, 57996, 58734, 59463, 60192, 60919, 61633, 62388, 63151, 63879, 64630, 65372, 66102, 66848, 67595, 68337, 69069, 69781, 70504, 71242, 71955, 72669, 73427, 74215]","[2, 135, 190, 190, 35, 251, 9, 188, 171, 172, 195, 129, 93, 119, 155, 208, 95, 110, 58, 186, 67, 67, 66, 41, 183, 112, 111, 128, 74, 80]","[52954, 53607, 54305, 54987, 55698, 56429, 57179, 57949, 58671, 59412, 60139, 60857, 61574, 62340, 63081, 63848, 64575, 65308, 66035, 66779, 67524, 68279, 69006, 69722, 70433, 71168, 71888, 72598, 73347, 74146]",,77,OR,L,R,ITMSR,1.1
2,500,practice,0,0,0,0,practice,"['B', 'S', 'S', 'S', 'S', 'S', 'S', 'C', 'C', 'C', 'C', 'C', 'C', 'C', 'C', 'C', 'C', 'C', 'C', 'C', 'C', 'C', 'C']","[148503, 149308, 149886, 150416, 150948, 151468, 151992, 152493, 152960, 153462, 153975, 154498, 154995, 155488, 155980, 156439, 156935, 157443, 157953, 158448, 158919, 159422, 159951]","[148574, 149383, 149941, 150480, 151003, 151527, 152050, 152552, 153023, 153515, 154031, 154551, 155051, 155547, 156036, 156514, 157008, 157506, 158006, 158510, 158991, 159490, 160012]","[16, 26, 192, 213, 227, 249, 253, 227, 255, 217, 168, 210, 158, 219, 251, 189, 164, 244, 227, 234, 209, 249, 239]","[148527, 149316, 149893, 150422, 150955, 151473, 151997, 152499, 152965, 153467, 153980, 154503, 155000, 155493, 155984, 156445, 156940, 157448, 157958, 158453, 158924, 159427, 159956]","[148514, 149014, 149514, 150014, 150514, 151014, 151514, 152014, 152513, 152980, 153482, 153995, 154518, 155015, 155508, 156000, 156460, 156955, 157463, 157973, 158468, 158939, 159442, 159971]",77,OR,L,R,ITMSR,1.1
4,500,practice,0,1,1,1,practice,"['S', 'S', 'S', 'S', 'S', 'S', 'S', 'C', 'C', 'C', 'C', 'C', 'C', 'C', 'C', 'C', 'C', 'C', 'C', 'C', 'C', 'C', 'C']","[165996, 166498, 167009, 167526, 168048, 168543, 169057, 169556, 170085, 170596, 171128, 171638, 172111, 172592, 173082, 173578, 174099, 174596, 175058, 175536, 176033, 176541, 177045]","[166078, 166589, 167093, 167614, 168126, 168623, 169145, 169635, 170159, 170678, 171191, 171703, 172190, 172664, 173154, 173661, 174178, 174700, 175149, 175628, 176119, 176647, 177148]","[143, 62, 200, 127, 104, 93, 8, 134, 203, 49, 39, 115, 176, 117, 58, 177, 202, 105, 95, 88, 92, 132, 152]","[166043, 166545, 167015, 167533, 168054, 168549, 169103, 169605, 170092, 170643, 171134, 171643, 172119, 172634, 173088, 173583, 174104, 174658, 175065, 175543, 176038, 176546, 177050]","[165642, 166142, 166642, 167142, 167642, 168142, 168642, 169142, 169576, 170105, 170616, 171148, 171658, 172131, 172612, 173102, 173598, 174119, 174616, 175078, 175556, 176053, 176561, 177065]",77,OR,L,R,ITMSR,1.1
5,500,practice,0,2,2,2,practice,"['S', 'S', 'S', 'S', 'S', 'S', 'S', 'S', 'C', 'C', 'C', 'C', 'C', 'C', 'C', 'C', 'C', 'C', 'C', 'C', 'C', 'C', 'C', 'C']","[182635, 182996, 183457, 183941, 184436, 184936, 185459, 185931, 186430, 186926, 187469, 187970, 188448, 188956, 189457, 189936, 190451, 190969, 191464, 191953, 192458, 192960, 193486, 193997]","[182723, 183076, 183542, 184007, 184498, 185005, 185522, 185999, 186502, 187004, 187547, 188050, 188547, 189062, 189606, 190074, 190606, 191130, 191625, 192125, 192627, 193145, 193675, 194178]","[186, 38, 197, 119, 103, 57, 5, 44, 125, 163, 75, 121, 233, 208, 176, 147, 171, 225, 184, 220, 227, 4, 227, 208]","[182677, 183003, 183462, 183947, 184440, 184942, 185464, 185936, 186436, 186930, 187475, 187976, 188453, 188962, 189462, 190011, 190456, 190974, 191550, 191958, 192462, 192965, 193491, 194002]","[182436, 182936, 183436, 183937, 184436, 184936, 185436, 185936, 186450, 186946, 187489, 187991, 188468, 188976, 189477, 189956, 190471, 190989, 191484, 191973, 192478, 192980, 193506, 194017]",77,OR,L,R,ITMSR,1.1
0,500,practice,0,3,3,3,practice,"['S', 'S', 'S', 'S', 'S', 'S', 'S', 'S', 'C', 'C', 'C', 'C', 'C', 'C', 'C', 'C', 'C', 'C', 'C', 'C', 'C', 'C', 'C', 'C']","[199608, 200028, 200474, 200935, 201448, 201958, 202444, 202968, 203458, 203947, 204498, 205026, 205491, 206007, 206499, 207019, 207501, 208022, 208553, 209036, 209509, 210008, 210529, 211045]","[199698, 200095, 200527, 201000, 201506, 202021, 202509, 203016, 203517, 204022, 204566, 205087, 205558, 206087, 206579, 207089, 207586, 208098, 208647, 209122, 209613, 210108, 210611, 211108]","[34, 25, 175, 169, 31, 88, 131, 103, 111, 174, 179, 178, 185, 160, 100, 118, 249, 84, 217, 126, 138, 141, 185, 128]","[199653, 200068, 200479, 200941, 201454, 201963, 202449, 202972, 203464, 203952, 204504, 205032, 205495, 206012, 206505, 207024, 207507, 208028, 208558, 209041, 209514, 210013, 210534, 211051]","[199462, 199962, 200462, 200962, 201462, 201962, 202462, 202962, 203479, 203967, 204518, 205046, 205511, 206027, 206519, 207039, 207521, 208043, 208573, 209056, 209529, 210028, 210549, 211065]",77,OR,L,R,ITMSR,1.1
3,500,practice,0,4,4,4,practice,"['S', 'S', 'S', 'S', 'S', 'S', 'S', 'S', 'C', 'C', 'C', 'C', 'C', 'C', 'C', 'C', 'C', 'C', 'C', 'C', 'C', 'C', 'C', 'C']","[216878, 217300, 217740, 218172, 218662, 219175, 219713, 220234, 220720, 221228, 221692, 222194, 222669, 223179, 223661, 224172, 224642, 225134, 225623, 226135, 226670, 227163, 227655, 228140]","[216955, 217366, 217760, 218223, 218708, 219227, 219758, 220280, 220771, 221284, 221749, 222263, 222730, 223227, 223723, 224235, 224693, 225191, 225675, 226191, 226725, 227219, 227724, 228218]","[112, 140, 33, 28, 23, 208, 164, 2, 63, 12, 117, 230, 28, 237, 254, 70, 189, 127, 130, 191, 64, 210, 115, 100]","[216883, 217304, 217744, 218178, 218668, 219182, 219717, 220238, 220726, 221234, 221696, 222199, 222675, 223185, 223667, 224178, 224648, 225137, 225626, 226139, 226675, 227169, 227659, 228143]","[216723, 217222, 217722, 218222, 218722, 219223, 219722, 220222, 220740, 221248, 221712, 222214, 222689, 223199, 223681, 224192, 224662, 225154, 225643, 226155, 226690, 227183, 227675, 228160]",77,OR,L,R,ITMSR,1.1
1,500,practice,0,5,5,5,practice,"['S', 'S', 'S', 'S', 'S', 'S', 'S', 'S', 'C', 'C', 'C', 'C', 'C', 'C', 'C', 'C', 'C', 'C', 'C', 'C', 'C', 'C', 'C', 'C']","[233991, 234412, 234862, 235332, 235803, 236310, 236819, 237327, 237850, 238341, 238844, 239327, 239835, 240330, 240849, 241355, 241888, 242400, 242880, 243367, 243863, 244369, 244853, 245348]","[234030, 234468, 234910, 235367, 235845, 236353, 236873, 237396, 237894, 238405, 238902, 239387, 239898, 240386, 240921, 241418, 241945, 242465, 242955, 243430, 243934, 244420, 244918, 245425]","[2, 201, 165, 166, 67, 219, 247, 82, 3, 236, 49, 236, 7, 192, 5, 177, 52, 50, 72, 158, 88, 17, 213, 79]","[233995, 234418, 234866, 235336, 235808, 236315, 236826, 237333, 237855, 238348, 238850, 239332, 239840, 240336, 240855, 241360, 241895, 242406, 242886, 243372, 243869, 244375, 244859, 245354]","[233827, 234327, 234826, 235326, 235826, 236326, 236826, 237326, 237870, 238361, 238864, 239347, 239855, 240350, 240869, 241375, 241908, 242420, 242900, 243387, 243884, 244389, 244873, 245368]",77,OR,L,R,ITMSR,1.1
0,600,trial,0,6,6,6,trial,"['S', 'S', 'S', 'S', 'S', 'S', 'S', 'S', 'C', 'C', 'C', 'C', 'C', 'C', 'C', 'C', 'C', 'C', 'C', 'C', 'C', 'C', 'C', 'C']","[302812, 303210, 303711, 304362, 305004, 305612, 306195, 306843, 307471, 308104, 308759, 309395, 310040, 310738, 311402, 312027, 312677, 313324, 313964, 314606, 315242, 315914, 316539, 317203]","[302833, 303271, 303778, 304436, 305079, 305694, 306277, 306920, 307536, 308175, 308818, 309459, 310099, 310758, 311473, 312094, 312733, 313401, 314020, 314680, 315314, 315934, 316611, 317255]","[116, 118, 31, 233, 100, 90, 158, 223, 12, 128, 143, 93, 25, 87, 124, 10, 111, 230, 171, 124, 144, 205, 22, 48]","[302818, 303215, 303717, 304368, 305010, 305618, 306200, 306848, 307476, 308110, 308763, 309400, 310046, 310746, 311407, 312032, 312681, 313372, 313969, 314611, 315249, 315920, 316546, 317207]","[302623, 303223, 303823, 304423, 305024, 305624, 306224, 306824, 307491, 308124, 308780, 309415, 310061, 310758, 311422, 312047, 312697, 313345, 313985, 314626, 315262, 315934, 316559, 317223]",77,OR,L,R,ITMSR,1.1
5,600,trial,0,7,7,7,trial,"['S', 'S', 'S', 'S', 'S', 'S', 'S', 'S', 'C', 'C', 'C', 'C', 'C', 'C', 'C', 'C', 'C', 'C', 'C', 'C', 'C', 'C', 'C', 'C', 'C']","[323040, 323485, 324078, 324688, 325248, 325881, 326437, 327060, 327700, 328305, 328891, 329518, 330093, 330731, 331302, 331897, 332484, 333076, 333663, 334260, 334360, 334827, 335423, 336030, 336653]","[323101, 323564, 324150, 324758, 325316, 325901, 326457, 327133, 327720, 328325, 328972, 329538, 330184, 330799, 331402, 331982, 332574, 333179, 333777, 334280, 334389, 334941, 335526, 336152, 336748]","[214, 39, 118, 149, 174, 39, 118, 127, 70, 76, 22, 241, 181, 97, 107, 66, 109, 1, 203, 5, 166, 40, 94, 71, 77]","[323043, 323491, 324083, 324694, 325253, 325889, 326441, 327065, 327704, 328311, 328897, 329524, 330096, 330736, 331308, 331902, 332489, 333079, 333668, 334265, 334360, 334832, 335428, 336036, 336658]","[322853, 323452, 324052, 324653, 325253, 325853, 326453, 327053, 327720, 328325, 328911, 329538, 330114, 330752, 331322, 331917, 332504, 333096, 333683, 334280, 334848, 335443, 336050, 336673]",77,OR,L,R,ITMSR,1.1
1,400,trial,0,8,8,8,trial,"['S', 'S', 'S', 'S', 'S', 'S', 'S', 'C', 'C', 'C', 'C', 'C', 'C', 'C', 'C', 'C', 'C', 'C', 'C', 'C', 'C', 'C', 'C']","[342242, 342759, 343095, 343539, 343943, 344347, 344754, 345160, 345586, 345992, 346414, 346817, 347214, 347630, 348024, 348421, 348847, 349240, 349679, 350060, 350480, 350879, 351254]","[342315, 342822, 343140, 343559, 343995, 344367, 344812, 345221, 345635, 346076, 346482, 346877, 347275, 347682, 348089, 348504, 348926, 349333, 349735, 350139, 350564, 350978, 351345]","[109, 11, 233, 179, 16, 173, 209, 218, 147, 73, 102, 194, 159, 189, 156, 168, 199, 211, 217, 248, 254, 18, 240]","[342248, 342766, 343101, 343545, 343949, 344353, 344760, 345166, 345594, 345997, 346418, 346823, 347222, 347636, 348032, 348430, 348853, 349246, 349686, 350066, 350486, 350885, 351260]","[342023, 342422, 342822, 343222, 343622, 344023, 344422, 344822, 345180, 345606, 346012, 346434, 346838, 347234, 347650, 348044, 348441, 348867, 349260, 349699, 350081, 350500, 350899, 351275]",77,OR,L,R,ITMSR,1.1
3,600,trial,0,9,9,9,trial,"['S', 'S', 'S', 'S', 'S', 'S', 'S', 'S', 'C', 'C', 'C', 'C', 'C', 'C', 'C', 'C', 'C', 'C', 'C', 'C', 'C', 'C', 'C', 'C']","[357079, 357508, 358083, 358652, 359278, 359883, 360451, 361028, 361643, 362279, 362875, 363506, 364082, 364710, 365287, 365915, 366515, 367106, 367744, 368360, 368955, 369562, 370225, 370886]","[357134, 357592, 358147, 358707, 359299, 359929, 360494, 361108, 361695, 362344, 362931, 363584, 364161, 364784, 365374, 365980, 366613, 367220, 367764, 368458, 369053, 369657, 370318, 370969]","[194, 22, 106, 253, 232, 1, 201, 42, 15, 137, 91, 189, 73, 208, 63, 3, 9, 85, 13, 205, 214, 11, 189, 86]","[357085, 357514, 358088, 358659, 359283, 359889, 360457, 361034, 361648, 362285, 362882, 363513, 364087, 364717, 365292, 365920, 366522, 367184, 367749, 368366, 368960, 369566, 370229, 370937]","[356886, 357486, 358086, 358686, 359286, 359886, 360486, 361086, 361663, 362299, 362895, 363526, 364102, 364730, 365307, 365935, 366535, 367126, 367764, 368380, 368975, 369582, 370245, 370906]",77,OR,L,R,ITMSR,1.1
4,400,trial,0,10,10,10,trial,"['S', 'S', 'S', 'S', 'S', 'S', 'S', 'C', 'C', 'C', 'C', 'C', 'C', 'C', 'C', 'C', 'C', 'C', 'C', 'C', 'C', 'C', 'C', 'C']","[376845, 377289, 377709, 378135, 378530, 378935, 379357, 379767, 380156, 380556, 380985, 381419, 381867, 382236, 382649, 383075, 383486, 383586, 383919, 384336, 384750, 385171, 385549, 385946]","[376918, 377352, 377767, 378193, 378576, 378955, 379411, 379836, 380176, 380642, 381005, 381501, 381941, 382256, 382735, 383152, 383506, 383606, 384021, 384441, 384849, 385253, 385670, 386069]","[86, 78, 225, 235, 33, 237, 104, 63, 16, 200, 170, 124, 215, 92, 220, 27, 243, 81, 12, 82, 177, 102, 120, 108]","[376850, 377295, 377714, 378141, 378535, 378938, 379362, 379772, 380158, 380558, 380988, 381424, 381907, 382237, 382654, 383080, 383493, 383586, 383924, 384342, 384755, 385218, 385555, 386019]","[376681, 377081, 377481, 377881, 378281, 378681, 379081, 379481, 379787, 380176, 380576, 381005, 381440, 381887, 382256, 382669, 383095, 383506, 383939, 384356, 384770, 385191, 385569, 385966]",77,OR,L,R,ITMSR,1.1
5,400,trial,0,11,11,11,trial,"['S', 'S', 'S', 'S', 'S', 'S', 'S', 'C', 'C', 'C', 'C', 'C', 'C', 'C', 'C', 'C', 'C', 'C', 'C', 'C', 'C', 'C', 'C']","[391653, 392037, 392486, 392897, 393296, 393722, 394131, 394525, 394914, 395315, 395751, 396160, 396596, 396997, 397418, 397837, 398283, 398679, 399102, 399475, 399891, 400271, 400684]","[391740, 392120, 392544, 392971, 393389, 393800, 394191, 394604, 395013, 395418, 395842, 396275, 396694, 397114, 397533, 397976, 398430, 398818, 399215, 399613, 400020, 400432, 400836]","[168, 0, 16, 61, 76, 79, 121, 94, 15, 2, 241, 25, 81, 61, 67, 74, 122, 96, 69, 107, 128, 141, 121]","[391694, 392083, 392494, 392940, 393304, 393729, 394137, 394531, 394919, 395323, 395792, 396198, 396604, 397006, 397424, 397930, 398290, 398683, 399108, 399482, 399963, 400370, 400775]","[391416, 391816, 392216, 392616, 393016, 393416, 393816, 394216, 394545, 394934, 395335, 395771, 396180, 396616, 397017, 397438, 397857, 398303, 398699, 399122, 399495, 399911, 400291, 400704]",77,OR,L,R,ITMSR,1.1
4,600,trial,0,12,12,12,trial,"['S', 'S', 'S', 'S', 'S', 'S', 'S', 'S', 'C', 'C', 'C', 'C', 'C', 'C', 'C', 'C', 'C', 'C', 'C', 'C', 'C', 'C', 'C', 'C']","[406546, 406876, 407523, 408166, 408688, 409306, 409907, 410527, 411125, 411712, 412320, 412907, 413494, 414112, 414736, 415339, 415939, 416553, 417135, 417769, 418368, 418976, 419608, 420228]","[406612, 407028, 407608, 408205, 408759, 409380, 409966, 410604, 411213, 411794, 412398, 413004, 413588, 414225, 414856, 415451, 416078, 416672, 417284, 417885, 418518, 419133, 419758, 420340]","[31, 80, 182, 235, 18, 29, 212, 184, 168, 144, 169, 118, 146, 78, 110, 117, 157, 157, 149, 184, 211, 237, 254, 230]","[406554, 406882, 407529, 408171, 408693, 409311, 409913, 410533, 411172, 411718, 412327, 412966, 413541, 414186, 414825, 415412, 416031, 416625, 417142, 417776, 418448, 419067, 419695, 420297]","[406354, 406955, 407554, 408154, 408754, 409354, 409954, 410554, 411145, 411732, 412340, 412928, 413514, 414132, 414756, 415360, 415960, 416573, 417155, 417789, 418388, 418996, 419629, 420248]",77,OR,L,R,ITMSR,1.1
2,600,trial,0,13,13,13,trial,"['S', 'S', 'S', 'S', 'S', 'S', 'S', 'S', 'C', 'C', 'C', 'C', 'C', 'C', 'C', 'C', 'C', 'C', 'C', 'C', 'C', 'C', 'C', 'C']","[425836, 426256, 426849, 427419, 427970, 428595, 429202, 429848, 430415, 431065, 431669, 432286, 432861, 433490, 434112, 434751, 435349, 435994, 436554, 437187, 437836, 438504, 439100, 439696]","[425921, 426331, 426904, 427439, 428034, 428672, 429263, 429910, 430491, 431139, 431769, 432384, 432971, 433572, 434194, 434854, 435470, 436108, 436690, 437296, 437928, 438602, 439207, 439801]","[117, 251, 45, 49, 96, 187, 231, 209, 108, 226, 22, 112, 187, 142, 225, 207, 209, 239, 255, 149, 157, 87, 178, 226]","[425842, 426261, 426855, 427425, 427975, 428598, 429207, 429852, 430420, 431071, 431675, 432333, 432864, 433496, 434117, 434756, 435423, 436066, 436560, 437192, 437841, 438574, 439105, 439701]","[425624, 426224, 426824, 427424, 428024, 428624, 429224, 429825, 430435, 431085, 431689, 432306, 432881, 433510, 434132, 434771, 435369, 436014, 436574, 437208, 437856, 438524, 439120, 439716]",77,OR,L,R,ITMSR,1.1
1,400,trial,0,14,14,14,trial,"['S', 'S', 'S', 'S', 'S', 'S', 'S', 'C', 'C', 'C', 'C', 'C', 'C', 'C', 'C', 'C', 'C', 'C', 'C', 'C', 'C', 'C', 'C', 'C']","[445656, 446059, 446442, 446903, 447320, 447772, 448206, 448635, 449072, 449486, 449908, 450330, 450719, 451118, 451555, 451977, 452400, 452780, 453169, 453562, 453967, 454411, 454807, 454909]","[445731, 446109, 446492, 446959, 447398, 447848, 448226, 448700, 449158, 449570, 449928, 450350, 450739, 451185, 451614, 452068, 452458, 452800, 453276, 453648, 454067, 454482, 454828, 454929]","[20, 123, 160, 5, 192, 189, 92, 210, 61, 36, 35, 240, 115, 70, 149, 127, 15, 231, 58, 255, 125, 89, 151, 77]","[445660, 446064, 446447, 446908, 447325, 447775, 448211, 448640, 449077, 449490, 449912, 450333, 450723, 451122, 451559, 451981, 452403, 452783, 453175, 453566, 454008, 454416, 454811, 454909]","[445476, 445876, 446276, 446676, 447076, 447476, 447876, 448276, 448655, 449092, 449506, 449928, 450350, 450739, 451138, 451575, 451997, 452420, 452800, 453189, 453582, 453987, 454431, 454828]",77,OR,L,R,ITMSR,1.1
1,600,trial,0,15,15,15,trial,"['S', 'S', 'S', 'S', 'S', 'S', 'S', 'S', 'C', 'C', 'C', 'C', 'C', 'C', 'C', 'C', 'C', 'C', 'C', 'C', 'C', 'C', 'C', 'C', 'C']","[460387, 460860, 461405, 461983, 462533, 463186, 463761, 464370, 464983, 465560, 465662, 466168, 466798, 467377, 467977, 468602, 469226, 469799, 470391, 470969, 471558, 472120, 472738, 473357, 474008]","[460449, 460929, 461463, 462003, 462553, 463206, 463834, 464433, 465064, 465581, 465682, 466250, 466886, 467474, 468056, 468702, 469328, 469916, 470524, 471101, 471664, 472241, 472825, 473463, 474102]","[52, 20, 169, 151, 186, 95, 176, 94, 170, 186, 134, 54, 0, 40, 35, 124, 87, 107, 91, 87, 224, 116, 150, 169, 45]","[460392, 460864, 461411, 461988, 462538, 463191, 463766, 464375, 464989, 465562, 465662, 466174, 466803, 467424, 467982, 468608, 469294, 469805, 470479, 471054, 471564, 472125, 472744, 473407, 474013]","[460186, 460786, 461386, 461986, 462586, 463186, 463787, 464386, 465003, 465581, 466188, 466818, 467397, 467997, 468622, 469246, 469819, 470411, 470989, 471578, 472140, 472758, 473377, 474029]",77,OR,L,R,ITMSR,1.1
1,600,trial,0,16,16,16,trial,"['S', 'S', 'S', 'S', 'S', 'S', 'S', 'C', 'C', 'C', 'C', 'C', 'C', 'C', 'C', 'C', 'C', 'C', 'C', 'C', 'C', 'C', 'C']","[479827, 480543, 481187, 481799, 482383, 482984, 483600, 484233, 484875, 485524, 486110, 486695, 487305, 487914, 488524, 489149, 489756, 490374, 490994, 491632, 492269, 492857, 493493]","[479948, 480654, 481250, 481860, 482457, 483050, 483682, 484317, 484962, 485610, 486201, 486799, 487412, 488029, 488642, 489264, 489896, 490500, 491114, 491760, 492369, 493015, 493616]","[217, 143, 147, 189, 168, 140, 141, 115, 196, 147, 157, 115, 164, 149, 161, 172, 169, 179, 135, 151, 96, 162, 160]","[479899, 480550, 481192, 481803, 482388, 482990, 483605, 484238, 484881, 485530, 486117, 486702, 487311, 487966, 488529, 489154, 489846, 490380, 491000, 491637, 492275, 492959, 493497]","[479448, 480048, 480648, 481248, 481848, 482448, 483048, 483648, 484253, 484895, 485544, 486130, 486715, 487325, 487934, 488544, 489169, 489776, 490394, 491014, 491652, 492290, 492877, 493513]",77,OR,L,R,ITMSR,1.1
4,400,trial,0,17,17,17,trial,"['S', 'S', 'S', 'S', 'S', 'S', 'S', 'C', 'C', 'C', 'C', 'C', 'C', 'C', 'C', 'C', 'C', 'C', 'C', 'C', 'C', 'C', 'C', 'C']","[499255, 499676, 500134, 500582, 501002, 501441, 501874, 502269, 502670, 503046, 503465, 503829, 504250, 504626, 505054, 505416, 505830, 506222, 506636, 506994, 507094, 507387, 507784, 508166]","[499346, 499752, 500198, 500636, 501053, 501502, 501946, 502326, 502737, 503133, 503543, 503912, 504331, 504728, 505132, 505515, 505922, 506324, 506721, 507014, 507114, 507484, 507868, 508247]","[233, 108, 62, 47, 167, 245, 224, 143, 84, 66, 98, 92, 110, 238, 60, 49, 247, 50, 240, 89, 102, 101, 57, 69]","[499302, 499682, 500141, 500587, 501007, 501447, 501881, 502275, 502677, 503053, 503472, 503835, 504256, 504632, 505056, 505420, 505836, 506225, 506640, 506999, 507094, 507393, 507790, 508170]","[499124, 499524, 499924, 500324, 500724, 501124, 501524, 501924, 502289, 502690, 503066, 503485, 503849, 504270, 504646, 505074, 505436, 505850, 506242, 506656, 507014, 507407, 507804, 508186]",77,OR,L,R,ITMSR,1.1
2,400,trial,0,18,18,18,trial,"['S', 'S', 'S', 'S', 'S', 'S', 'S', 'C', 'C', 'C', 'C', 'C', 'C', 'C', 'C', 'C', 'C', 'C', 'C', 'C', 'C', 'C', 'C']","[513901, 514316, 514759, 515231, 515664, 516100, 516547, 516942, 517349, 517715, 518114, 518484, 518923, 519330, 519754, 520144, 520597, 520991, 521422, 521788, 522203, 522597, 523023]","[513999, 514400, 514842, 515309, 515718, 516178, 516621, 517029, 517421, 517840, 518200, 518583, 519015, 519434, 519844, 520273, 520705, 521125, 521512, 521917, 522303, 522708, 523118]","[175, 126, 78, 129, 246, 147, 170, 74, 171, 82, 28, 79, 212, 25, 47, 210, 72, 151, 167, 126, 1, 190, 234]","[513963, 514320, 514764, 515237, 515671, 516102, 516553, 516947, 517355, 517795, 518120, 518490, 518925, 519400, 519758, 520148, 520600, 520997, 521427, 521791, 522208, 522664, 523028]","[513778, 514178, 514578, 514978, 515378, 515778, 516178, 516578, 516962, 517369, 517735, 518134, 518504, 518943, 519350, 519774, 520164, 520617, 521011, 521442, 521808, 522223, 522617, 523043]",77,OR,L,R,ITMSR,1.1
3,400,trial,0,19,19,19,trial,"['S', 'S', 'S', 'S', 'S', 'S', 'S', 'S', 'C', 'C', 'C', 'C', 'C', 'C', 'C', 'C', 'C', 'C', 'C', 'C', 'C', 'C', 'C', 'C']","[528709, 528998, 529327, 529717, 530128, 530516, 530928, 531348, 531751, 532137, 532546, 532929, 533321, 533714, 534118, 534500, 534902, 535300, 535688, 536085, 536456, 536862, 537260, 537657]","[528801, 529080, 529416, 529777, 530169, 530585, 531016, 531399, 531820, 532216, 532614, 533014, 533397, 533792, 534193, 534588, 534983, 535395, 535775, 536176, 536567, 536962, 537370, 537795]","[202, 97, 191, 227, 248, 154, 193, 175, 224, 204, 181, 16, 173, 130, 22, 135, 157, 142, 43, 171, 195, 214, 125, 93]","[528764, 529000, 529333, 529723, 530134, 530522, 530933, 531353, 531757, 532143, 532551, 532935, 533326, 533721, 534123, 534506, 534907, 535305, 535693, 536090, 536461, 536867, 537266, 537663]","[528580, 528980, 529380, 529780, 530180, 530580, 530980, 531380, 531771, 532157, 532567, 532950, 533341, 533734, 534138, 534520, 534922, 535320, 535708, 536105, 536476, 536882, 537280, 537677]",77,OR,L,R,ITMSR,1.1
2,600,trial,0,20,20,20,trial,"['S', 'S', 'S', 'S', 'S', 'S', 'S', 'S', 'C', 'C', 'C', 'C', 'C', 'C', 'C', 'C', 'C', 'C', 'C', 'C', 'C', 'C', 'C', 'C']","[543462, 543978, 544458, 545006, 545599, 546183, 546781, 547401, 547976, 548617, 549210, 549844, 550403, 550987, 551576, 552214, 552794, 553383, 554022, 554630, 555213, 555832, 556449, 557035]","[543550, 544075, 544539, 545077, 545670, 546265, 546866, 547496, 548089, 548701, 549326, 549937, 550537, 551128, 551726, 552344, 552966, 553543, 554209, 554826, 555487, 556086, 556695, 557267]","[246, 123, 140, 165, 107, 212, 175, 183, 92, 97, 110, 41, 122, 88, 133, 135, 119, 105, 103, 138, 203, 180, 123, 151]","[543467, 543984, 544464, 545012, 545604, 546188, 546786, 547406, 547982, 548622, 549215, 549850, 550408, 550994, 551582, 552219, 552800, 553390, 554029, 554635, 555218, 555837, 556454, 557040]","[543212, 543811, 544411, 545011, 545611, 546211, 546811, 547411, 547996, 548637, 549230, 549864, 550423, 551007, 551597, 552235, 552814, 553403, 554042, 554650, 555233, 555852, 556469, 557056]",77,OR,L,R,ITMSR,1.1
4,600,trial,0,21,21,21,trial,"['S', 'S', 'S', 'S', 'S', 'S', 'S', 'C', 'C', 'C', 'C', 'C', 'C', 'C', 'C', 'C', 'C', 'C', 'C', 'C', 'C', 'C', 'C']","[563358, 563982, 564613, 565198, 565797, 566436, 567047, 567663, 568284, 568868, 569452, 570071, 570693, 571276, 571902, 572452, 573124, 573727, 574379, 575009, 575662, 576305, 576914]","[563438, 564049, 564686, 565277, 565882, 566521, 567136, 567762, 568397, 568993, 569584, 570217, 570825, 571451, 572017, 572632, 573287, 573924, 574576, 575194, 575888, 576502, 577113]","[119, 85, 107, 97, 121, 51, 23, 84, 19, 182, 218, 103, 49, 253, 150, 102, 49, 95, 167, 144, 173, 160, 143]","[563363, 563988, 564618, 565204, 565803, 566443, 567054, 567728, 568290, 568871, 569458, 570076, 570698, 571387, 571907, 572457, 573129, 573732, 574383, 575014, 575667, 576310, 576919]","[562854, 563454, 564055, 564654, 565254, 565854, 566454, 567054, 567683, 568304, 568888, 569473, 570091, 570713, 571296, 571922, 572472, 573144, 573747, 574399, 575029, 575682, 576325, 576934]",77,OR,L,R,ITMSR,1.1
0,400,trial,0,22,22,22,trial,"['S', 'S', 'S', 'S', 'S', 'S', 'S', 'C', 'C', 'C', 'C', 'C', 'C', 'C', 'C', 'C', 'C', 'C', 'C', 'C', 'C', 'C', 'C']","[582453, 582844, 583283, 583767, 584224, 584646, 585054, 585462, 585896, 586292, 586735, 587164, 587606, 588010, 588455, 588862, 589294, 589724, 590141, 590540, 590993, 591407, 591867]","[582542, 582933, 583362, 583840, 584308, 584720, 585127, 585540, 585993, 586398, 586830, 587267, 587711, 588105, 588535, 588974, 589412, 589824, 590239, 590654, 591090, 591533, 591966]","[186, 9, 91, 149, 128, 55, 40, 61, 179, 207, 222, 33, 161, 183, 142, 89, 187, 121, 140, 132, 177, 165, 147]","[582458, 582850, 583288, 583772, 584228, 584651, 585059, 585467, 585902, 586297, 586739, 587169, 587611, 588014, 588461, 588866, 589298, 589729, 590146, 590544, 590997, 591412, 591873]","[582254, 582654, 583054, 583454, 583854, 584254, 584654, 585054, 585482, 585916, 586312, 586755, 587184, 587626, 588030, 588475, 588882, 589314, 589744, 590161, 590560, 591013, 591427, 591887]",77,OR,L,R,ITMSR,1.1
5,400,trial,0,23,23,23,trial,"['S', 'S', 'S', 'S', 'S', 'S', 'S', 'C', 'C', 'C', 'C', 'C', 'C', 'C', 'C', 'C', 'C', 'C', 'C', 'C', 'C', 'C', 'C', 'C']","[597623, 598068, 598495, 598899, 599351, 599756, 600128, 600536, 600933, 601294, 601713, 602098, 602198, 602529, 602890, 603316, 603694, 604095, 604494, 604913, 605305, 605729, 606102, 606499]","[597713, 598139, 598547, 598962, 599461, 599816, 600228, 600608, 601000, 601387, 601789, 602118, 602218, 602615, 603010, 603398, 603802, 604221, 604636, 605038, 605444, 605856, 606268, 606648]","[161, 226, 233, 235, 91, 18, 157, 113, 221, 24, 186, 21, 131, 172, 198, 193, 46, 50, 77, 168, 42, 96, 65, 21]","[597627, 598073, 598499, 598902, 599402, 599760, 600134, 600541, 600938, 601299, 601719, 602104, 602198, 602533, 602896, 603322, 603700, 604101, 604499, 604920, 605310, 605735, 606107, 606504]","[597401, 597801, 598201, 598601, 599001, 599401, 599801, 600201, 600556, 600953, 601314, 601733, 602118, 602549, 602910, 603336, 603714, 604115, 604514, 604933, 605325, 605749, 606123, 606519]",77,OR,L,R,ITMSR,1.1
3,400,trial,0,24,24,24,trial,"['S', 'S', 'S', 'S', 'S', 'S', 'S', 'C', 'C', 'C', 'C', 'C', 'C', 'C', 'C', 'C', 'C', 'C', 'C', 'C', 'C', 'C', 'C', 'C']","[612483, 612911, 613346, 613756, 614185, 614594, 615001, 615417, 615823, 616232, 616332, 616652, 617054, 617465, 617872, 618306, 618702, 619123, 619525, 619919, 620309, 620717, 621119, 621506]","[612587, 613007, 613417, 613825, 614259, 614688, 615101, 615528, 615956, 616252, 616388, 616805, 617205, 617623, 618031, 618433, 618883, 619272, 619665, 620092, 620473, 620866, 621293, 621680]","[228, 170, 87, 122, 146, 144, 108, 92, 234, 241, 97, 43, 24, 25, 62, 94, 125, 92, 96, 65, 78, 91, 80, 71]","[612547, 612917, 613352, 613761, 614191, 614598, 615007, 615424, 615828, 616238, 616350, 616658, 617059, 617470, 617877, 618311, 618707, 619128, 619530, 619925, 620315, 620722, 621125, 621511]","[612233, 612633, 613033, 613433, 613833, 614233, 614633, 615033, 615437, 615843, 616252, 616672, 617074, 617485, 617892, 618327, 618722, 619143, 619545, 619939, 620329, 620737, 621139, 621527]",77,OR,L,R,ITMSR,1.1
2,400,trial,0,25,25,25,trial,"['S', 'S', 'S', 'S', 'S', 'S', 'S', 'S', 'C', 'C', 'C', 'C', 'C', 'C', 'C', 'C', 'C', 'C', 'C', 'C', 'C', 'C', 'C', 'C']","[627326, 627714, 628119, 628420, 628771, 629116, 629534, 629932, 630338, 630755, 631169, 631602, 632017, 632444, 632817, 633210, 633611, 634046, 634456, 634890, 635259, 635696, 636104, 636534]","[627395, 627734, 628190, 628480, 628824, 629186, 629611, 630002, 630423, 630848, 631289, 631710, 632142, 632535, 632948, 633324, 633760, 634195, 634619, 635013, 635427, 635840, 636264, 636690]","[190, 99, 172, 133, 123, 68, 3, 154, 109, 75, 236, 75, 180, 177, 55, 76, 68, 120, 116, 138, 44, 59, 47, 147]","[627366, 627720, 628124, 628423, 628775, 629122, 629538, 629937, 630343, 630760, 631175, 631608, 632100, 632451, 632823, 633216, 633616, 634051, 634461, 634961, 635265, 635701, 636111, 636638]","[627184, 627585, 627984, 628384, 628784, 629184, 629584, 629984, 630359, 630775, 631189, 631622, 632037, 632464, 632837, 633230, 633631, 634066, 634476, 634910, 635279, 635716, 636124, 636554]",77,OR,L,R,ITMSR,1.1
0,600,trial,0,26,26,26,trial,"['S', 'S', 'S', 'S', 'S', 'S', 'S', 'S', 'C', 'C', 'C', 'C', 'C', 'C', 'C', 'C', 'C', 'C', 'C', 'C', 'C', 'C', 'C', 'C']","[642031, 642352, 643067, 643678, 644287, 644880, 645472, 646090, 646670, 647237, 647836, 648483, 649081, 649671, 650254, 650861, 651467, 652100, 652687, 653254, 653871, 654497, 655105, 655718]","[642112, 642511, 643186, 643786, 644398, 644984, 645577, 646177, 646757, 647362, 647956, 648593, 649200, 649803, 650419, 651005, 651612, 652238, 652840, 653395, 654022, 654622, 655253, 655850]","[216, 49, 8, 123, 203, 226, 234, 167, 239, 157, 137, 241, 17, 176, 38, 8, 84, 20, 30, 40, 254, 8, 17, 84]","[642037, 642359, 643074, 643682, 644293, 644886, 645478, 646151, 646675, 647329, 647843, 648488, 649088, 649755, 650260, 650867, 651472, 652106, 652771, 653260, 653878, 654501, 655111, 655723]","[641879, 642478, 643078, 643678, 644278, 644878, 645478, 646078, 646690, 647257, 647856, 648503, 649101, 649691, 650274, 650882, 651487, 652120, 652707, 653274, 653891, 654517, 655125, 655738]",77,OR,L,R,ITMSR,1.1
5,600,trial,0,27,27,27,trial,"['S', 'S', 'S', 'S', 'S', 'S', 'S', 'S', 'C', 'C', 'C', 'C', 'C', 'C', 'C', 'C', 'C', 'C', 'C', 'C', 'C', 'C', 'C', 'C']","[661199, 661550, 662185, 662786, 663405, 664075, 664633, 665266, 665839, 666406, 667045, 667650, 668244, 668853, 669437, 670071, 670654, 671271, 671859, 672470, 673073, 673648, 674266, 674893]","[661281, 661784, 662360, 662945, 663608, 664246, 664810, 665437, 666024, 666610, 667244, 667885, 668502, 669118, 669712, 670326, 670929, 671526, 672140, 672729, 673340, 673900, 674529, 675143]","[112, 181, 169, 142, 164, 141, 145, 108, 116, 105, 5, 61, 41, 87, 37, 131, 65, 52, 34, 76, 56, 108, 47, 172]","[661208, 661630, 662190, 662791, 663410, 664080, 664639, 665272, 665844, 666412, 667143, 667655, 668251, 668858, 669444, 670076, 670659, 671277, 671864, 672475, 673077, 673653, 674270, 674898]","[661040, 661639, 662239, 662839, 663439, 664039, 664639, 665239, 665859, 666426, 667065, 667670, 668264, 668873, 669457, 670091, 670674, 671291, 671879, 672490, 673093, 673668, 674286, 674913]",77,OR,L,R,ITMSR,1.1
3,600,trial,0,28,28,28,trial,"['S', 'S', 'S', 'S', 'S', 'S', 'S', 'C', 'C', 'C', 'C', 'C', 'C', 'C', 'C', 'C', 'C', 'C', 'C', 'C', 'C', 'C', 'C']","[680593, 681347, 681988, 682600, 683218, 683811, 684446, 685019, 685623, 686242, 686825, 687452, 688045, 688632, 689214, 689782, 690411, 691004, 691617, 692229, 692886, 693457, 694075]","[680706, 681444, 682075, 682708, 683340, 683925, 684565, 685159, 685757, 686385, 686986, 687618, 688217, 688823, 689429, 690060, 690697, 691326, 691917, 692519, 693170, 693775]","[46, 7, 39, 64, 231, 42, 30, 174, 249, 196, 158, 27, 200, 185, 52, 115, 45, 119, 67, 75, 59, 97]","[680677, 681353, 681993, 682604, 683224, 683815, 684452, 685024, 685628, 686248, 686830, 687457, 688050, 688637, 689218, 689787, 690416, 691008, 691621, 692234, 692890, 693462]","[680232, 680833, 681432, 682032, 682632, 683232, 683832, 684432, 685039, 685643, 686262, 686845, 687472, 688065, 688652, 689234, 689802, 690432, 691024, 691637, 692249, 692907, 693477, 694095]",77,OR,L,R,ITMSR,1.1
0,400,trial,0,29,29,29,trial,"['S', 'S', 'S', 'S', 'S', 'S', 'S', 'C', 'C', 'C', 'C', 'C', 'C', 'C', 'C', 'C', 'C', 'C', 'C', 'C', 'C', 'C', 'C', 'C']","[699863, 700189, 700559, 700951, 701369, 701791, 702191, 702593, 703011, 703388, 703825, 704238, 704686, 705073, 705482, 705582, 705874, 706295, 706676, 707134, 707545, 707988, 708367, 708820]","[699972, 700262, 700613, 701027, 701436, 701854, 702211, 702668, 703031, 703408, 703916, 704258, 704706, 705178, 705502, 705602, 706020, 706403, 706810, 707231, 707658, 708080, 708498, 708923]","[192, 196, 59, 199, 60, 38, 236, 18, 14, 169, 232, 167, 185, 58, 29, 64, 87, 22, 112, 37, 26, 22, 103, 26]","[699920, 700193, 700564, 700955, 701374, 701796, 702196, 702598, 703016, 703394, 703832, 704244, 704692, 705078, 705488, 705582, 705880, 706300, 706681, 707138, 707550, 707993, 708373, 708826]","[699407, 699807, 700207, 700607, 701007, 701407, 701807, 702208, 702613, 703031, 703408, 703845, 704258, 704706, 705093, 705502, 705894, 706315, 706696, 707154, 707565, 708008, 708387, 708840]",77,OR,L,R,ITMSR,1.1
2,400,trial,0,30,30,30,trial,"['S', 'S', 'S', 'S', 'S', 'S', 'S', 'C', 'C', 'C', 'C', 'C', 'C', 'C', 'C', 'C', 'C', 'C', 'C', 'C', 'C', 'C', 'C', 'C', 'C']","[717629, 718008, 718521, 718963, 719390, 719818, 720211, 720593, 721004, 721411, 721838, 722217, 722632, 723034, 723440, 723853, 724239, 724647, 725066, 725470, 725875, 726286, 726386, 726680, 726782]","[717683, 718075, 718576, 719040, 719410, 719840, 720231, 720613, 721025, 721431, 721858, 722237, 722652, 723054, 723460, 723873, 724259, 724667, 725086, 725490, 725895, 726306, 726406, 726701, 726802]","[66, 19, 82, 252, 21, 251, 219, 79, 125, 140, 1, 91, 92, 148, 74, 237, 95, 47, 99, 175, 41, 93, 148, 75, 209]","[717633, 718013, 718526, 718968, 719393, 719822, 720217, 720598, 721008, 721412, 721842, 722220, 722635, 723038, 723443, 723857, 724242, 724652, 725067, 725471, 725879, 726290, 726386, 726686, 726782]","[717442, 717840, 718240, 718640, 719040, 719440, 719840, 720240, 720613, 721025, 721431, 721858, 722237, 722652, 723054, 723460, 723873, 724259, 724667, 725086, 725490, 725895, 726306, 726701]",77,OR,L,R,ITMSR,1.1
3,600,trial,0,31,31,31,trial,"['S', 'S', 'S', 'S', 'S', 'S', 'S', 'S', 'S', 'C', 'C', 'C', 'C', 'C', 'C', 'C', 'C', 'C', 'C', 'C', 'C', 'C', 'C', 'C', 'C']","[732409, 732796, 732896, 733467, 734096, 734674, 735249, 735877, 736462, 737057, 737685, 738323, 738923, 739535, 740150, 740724, 741351, 741944, 742577, 743138, 743736, 744321, 744920, 745527, 746106]","[732503, 732816, 732955, 733560, 734173, 734752, 735346, 735952, 736544, 737159, 737763, 738426, 739018, 739630, 740241, 740830, 741440, 742068, 742662, 743273, 743857, 744446, 745035, 745634, 746223]","[226, 86, 51, 226, 210, 172, 25, 44, 59, 186, 174, 251, 30, 108, 213, 157, 72, 102, 117, 68, 50, 108, 73, 24, 115]","[732418, 732800, 732908, 733473, 734102, 734680, 735314, 735883, 736470, 737064, 737691, 738392, 738928, 739542, 740156, 740731, 741358, 742027, 742584, 743226, 743739, 744328, 744926, 745532, 746113]","[732286, 732887, 733486, 734086, 734686, 735286, 735886, 736486, 737077, 737705, 738343, 738944, 739555, 740170, 740744, 741371, 741964, 742597, 743158, 743756, 744341, 744940, 745547, 746126]",77,OR,L,R,ITMSR,1.1
4,600,trial,0,32,32,32,trial,"['S', 'S', 'S', 'S', 'S', 'S', 'S', 'C', 'C', 'C', 'C', 'C', 'C', 'C', 'C', 'C', 'C', 'C', 'C', 'C', 'C', 'C', 'C']","[751862, 752483, 753126, 753738, 754404, 755015, 755632, 756215, 756806, 757376, 757927, 758514, 759085, 759666, 760219, 760814, 761401, 761990, 762580, 763164, 763738, 764324, 764898]","[751973, 752579, 753229, 753850, 754486, 755135, 755748, 756340, 756936, 757505, 758064, 758652, 759231, 759827, 760364, 760939, 761573, 762180, 762787, 763370, 763922, 764513, 765080]","[83, 132, 32, 203, 219, 233, 246, 109, 114, 213, 12, 136, 208, 186, 255, 190, 216, 192, 190, 31, 0, 185, 23]","[751930, 752491, 753170, 753744, 754409, 755021, 755637, 756220, 756810, 757381, 757933, 758520, 759090, 759673, 760301, 760821, 761407, 761996, 762587, 763170, 763744, 764331, 764904]","[751474, 752073, 752673, 753273, 753873, 754473, 755074, 755674, 756235, 756826, 757396, 757947, 758534, 759105, 759686, 760239, 760834, 761421, 762010, 762600, 763184, 763758, 764344, 764918]",77,OR,L,R,ITMSR,1.1
3,400,trial,0,33,33,33,trial,"['S', 'S', 'S', 'S', 'S', 'S', 'S', 'S', 'C', 'C', 'C', 'C', 'C', 'C', 'C', 'C', 'C', 'C', 'C', 'C', 'C', 'C', 'C', 'C']","[770690, 771244, 771532, 771852, 772218, 772653, 773044, 773464, 773811, 774207, 774598, 775004, 775391, 775799, 776190, 776602, 776990, 777394, 777761, 778185, 778563, 779012, 779390, 779825]","[770835, 771349, 771611, 771939, 772329, 772716, 773155, 773554, 773945, 774310, 774712, 775110, 775525, 775905, 776338, 776733, 777133, 777512, 777903, 778290, 778700, 779115, 779547, 779942]","[134, 90, 135, 32, 189, 35, 200, 87, 161, 19, 158, 250, 116, 235, 134, 80, 189, 40, 194, 14, 149, 41, 234, 87]","[770799, 771249, 771538, 771857, 772284, 772659, 773051, 773469, 773891, 774213, 774669, 775010, 775448, 775806, 776264, 776608, 777062, 777400, 777840, 778191, 778635, 779018, 779483, 779830]","[770690, 771088, 771488, 771888, 772288, 772688, 773088, 773488, 773831, 774227, 774618, 775024, 775411, 775819, 776210, 776622, 777010, 777414, 777781, 778205, 778584, 779032, 779410, 779845]",77,OR,L,R,ITMSR,1.1
3,600,trial,0,34,34,34,trial,"['S', 'S', 'S', 'S', 'S', 'S', 'S', 'S', 'C', 'C', 'C', 'C', 'C', 'C', 'C', 'C', 'C', 'C', 'C', 'C', 'C', 'C', 'C', 'C']","[785516, 785795, 786422, 787056, 787668, 788274, 788891, 789522, 790076, 790663, 791250, 791855, 792457, 793049, 793651, 794210, 794773, 795345, 795947, 796550, 797095, 797675, 798258, 798838]","[785611, 785970, 786558, 787184, 787812, 788423, 789031, 789612, 790250, 790798, 791398, 791986, 792623, 793148, 793788, 794316, 794921, 795447, 796072, 796653, 797259, 797816, 798426, 798968]","[3, 208, 65, 242, 197, 199, 177, 107, 145, 123, 219, 245, 174, 20, 139, 182, 167, 231, 171, 201, 233, 60, 219, 88]","[785569, 785888, 786507, 787122, 787742, 788354, 788970, 789568, 790202, 790735, 791329, 791861, 792553, 793054, 793726, 794215, 794852, 795352, 796015, 796555, 797178, 797752, 798358, 798843]","[785329, 785929, 786529, 787129, 787729, 788329, 788929, 789529, 790096, 790683, 791270, 791875, 792477, 793069, 793671, 794230, 794793, 795365, 795967, 796570, 797115, 797696, 798278, 798858]",77,OR,L,R,ITMSR,1.1
4,400,trial,0,35,35,35,trial,"['S', 'S', 'S', 'S', 'S', 'S', 'S', 'C', 'C', 'C', 'C', 'C', 'C', 'C', 'C', 'C', 'C', 'C', 'C', 'C', 'C', 'C', 'C', 'C']","[804538, 804911, 805315, 805737, 806090, 806490, 806919, 807329, 807736, 808152, 808550, 808650, 808952, 809376, 809763, 810169, 810506, 810936, 811303, 811734, 812112, 812556, 812929, 813349]","[804638, 804994, 805404, 805813, 806161, 806569, 806988, 807411, 807789, 808238, 808570, 808670, 809084, 809449, 809871, 810260, 810636, 811038, 811425, 811825, 812214, 812633, 813054, 813457]","[116, 159, 40, 5, 227, 222, 227, 108, 178, 136, 149, 38, 134, 18, 163, 102, 178, 142, 140, 255, 133, 249, 177, 17]","[804597, 804916, 805321, 805742, 806095, 806496, 806922, 807335, 807741, 808159, 808553, 808650, 809030, 809382, 809826, 810209, 810578, 810981, 811379, 811740, 812119, 812562, 813001, 813357]","[804167, 804568, 804968, 805368, 805768, 806168, 806568, 806968, 807349, 807756, 808172, 808570, 808972, 809396, 809783, 810189, 810526, 810956, 811323, 811754, 812132, 812576, 812949, 813369]",77,OR,L,R,ITMSR,1.1
5,400,trial,0,36,36,36,trial,"['S', 'S', 'S', 'S', 'S', 'S', 'S', 'C', 'C', 'C', 'C', 'C', 'C', 'C', 'C', 'C', 'C', 'C', 'C', 'C', 'C', 'C', 'C', 'C', 'C', 'C', 'C', 'C']","[819280, 819640, 820038, 820427, 820828, 821259, 821639, 822050, 822481, 822868, 823288, 823677, 823777, 824117, 824217, 824511, 824611, 824937, 825037, 825298, 825398, 825719, 826097, 826503, 826933, 827322, 827761, 828172]","[819359, 819709, 820102, 820509, 820909, 821324, 821728, 822137, 822501, 822888, 823308, 823697, 823797, 824137, 824239, 824531, 824646, 824957, 825057, 825318, 825435, 825846, 826226, 826629, 827068, 827488, 827926, 828322]","[176, 52, 8, 55, 36, 78, 110, 43, 226, 165, 228, 127, 60, 215, 108, 91, 151, 68, 106, 83, 137, 249, 32, 219, 217, 55, 49, 102]","[819288, 819647, 820044, 820432, 820834, 821266, 821642, 822054, 822484, 822873, 823292, 823683, 823777, 824122, 824217, 824516, 824611, 824941, 825037, 825303, 825398, 825722, 826101, 826507, 826937, 827327, 827766, 828177]","[818855, 819254, 819654, 820055, 820454, 820854, 821254, 821654, 822070, 822501, 822888, 823308, 823697, 824137, 824531, 824957, 825318, 825739, 826117, 826523, 826953, 827342, 827781, 828192]",77,OR,L,R,ITMSR,1.1
1,600,trial,0,37,37,37,trial,"['S', 'S', 'S', 'S', 'S', 'S', 'S', 'S', 'C', 'C', 'C', 'C', 'C', 'C', 'C', 'C', 'C', 'C', 'C', 'C', 'C', 'C', 'C', 'C']","[833682, 834061, 834686, 835387, 835968, 836572, 837184, 837780, 838370, 838972, 839582, 840223, 840838, 841454, 842083, 842678, 843334, 843944, 844556, 845173, 845745, 846341, 846949, 847533]","[833780, 834205, 834788, 835454, 836057, 836664, 837274, 837861, 838449, 839064, 839681, 840320, 840935, 841534, 842175, 842780, 843441, 844064, 844656, 845255, 845828, 846435, 847052, 847642]","[235, 173, 139, 27, 189, 104, 23, 244, 34, 225, 205, 245, 224, 92, 96, 157, 119, 213, 33, 17, 84, 188, 232, 243]","[833751, 834146, 834693, 835393, 835972, 836578, 837189, 837784, 838375, 838979, 839588, 840228, 840845, 841460, 842090, 842685, 843341, 843951, 844562, 845179, 845751, 846347, 846956, 847538]","[833567, 834167, 834767, 835367, 835968, 836568, 837168, 837768, 838390, 838992, 839602, 840243, 840858, 841474, 842103, 842698, 843354, 843964, 844576, 845193, 845765, 846361, 846969, 847553]",77,OR,L,R,ITMSR,1.1
0,600,trial,0,38,38,38,trial,"['S', 'S', 'S', 'S', 'S', 'S', 'S', 'S', 'C', 'C', 'C', 'C', 'C', 'C', 'C', 'C', 'C', 'C', 'C', 'C', 'C', 'C', 'C', 'C']","[853140, 853632, 854233, 854797, 855398, 855998, 856622, 857246, 857822, 858401, 859030, 859668, 860299, 860930, 861522, 862136, 862734, 863384, 864011, 864629, 865258, 865883, 866516, 867124]","[853193, 853702, 854293, 854866, 855467, 856093, 856693, 857326, 857911, 858506, 859113, 859754, 860382, 861008, 861617, 862220, 862837, 863469, 864114, 864748, 865357, 865998, 866630, 867210]","[242, 221, 53, 51, 55, 67, 67, 249, 40, 11, 149, 209, 169, 176, 12, 161, 207, 167, 80, 116, 47, 142, 0, 40]","[853147, 853639, 854240, 854803, 855404, 856004, 856628, 857254, 857827, 858407, 859037, 859674, 860306, 860937, 861529, 862187, 862741, 863390, 864018, 864708, 865264, 865891, 866527, 867130]","[853004, 853603, 854203, 854803, 855403, 856003, 856603, 857203, 857842, 858421, 859051, 859688, 860319, 860950, 861542, 862156, 862754, 863405, 864031, 864649, 865278, 865903, 866536, 867144]",77,OR,L,R,ITMSR,1.1
1,400,trial,0,39,39,39,trial,"['S', 'S', 'S', 'S', 'S', 'S', 'S', 'C', 'C', 'C', 'C', 'C', 'C', 'C', 'C', 'C', 'C', 'C', 'C', 'C', 'C', 'C', 'C', 'C']","[873037, 873455, 873890, 874289, 874690, 875087, 875473, 875879, 876321, 876737, 877131, 877231, 877564, 877974, 878407, 878828, 879224, 879677, 880058, 880491, 880852, 881285, 881664, 882072]","[873147, 873540, 873948, 874353, 874753, 875141, 875557, 875899, 876377, 876852, 877151, 877258, 877663, 878071, 878427, 878849, 879244, 879697, 880078, 880578, 880963, 881384, 881770, 882165]","[125, 164, 145, 160, 150, 162, 153, 34, 158, 89, 105, 227, 145, 118, 14, 12, 39, 53, 81, 165, 109, 225, 120, 178]","[873043, 873461, 873901, 874292, 874695, 875090, 875479, 875885, 876324, 876811, 877137, 877231, 877572, 877980, 878413, 878833, 879230, 879682, 880064, 880498, 880860, 881292, 881669, 882077]","[872682, 873082, 873482, 873882, 874283, 874682, 875082, 875482, 875899, 876341, 876758, 877151, 877584, 877995, 878427, 878849, 879244, 879697, 880078, 880512, 880872, 881305, 881684, 882093]",77,OR,L,R,ITMSR,1.1
2,400,trial,0,40,40,40,trial,"['S', 'S', 'S', 'S', 'S', 'S', 'S', 'C', 'C', 'C', 'C', 'C', 'C', 'C', 'C', 'C', 'C', 'C', 'C', 'C', 'C', 'C', 'C', 'C', 'C']","[888182, 888542, 888914, 889316, 889711, 890094, 890547, 890907, 891277, 891713, 892111, 892211, 892527, 892628, 892963, 893386, 893773, 894171, 894592, 895007, 895414, 895828, 896202, 896611, 897025]","[888270, 888602, 888990, 889378, 889782, 890173, 890629, 890998, 891297, 891734, 892131, 892231, 892547, 892648, 892983, 893466, 893860, 894268, 894700, 895121, 895528, 895926, 896313, 896720, 897123]","[161, 152, 95, 188, 205, 195, 238, 18, 125, 88, 155, 253, 60, 57, 145, 193, 187, 170, 167, 167, 31, 14, 192, 177, 198]","[888187, 888548, 888920, 889323, 889716, 890101, 890553, 890913, 891282, 891716, 892118, 892211, 892533, 892628, 892969, 893393, 893777, 894176, 894596, 895014, 895420, 895835, 896207, 896615, 897032]","[887725, 888123, 888523, 888923, 889323, 889723, 890123, 890523, 890927, 891297, 891734, 892131, 892547, 892983, 893406, 893793, 894191, 894612, 895027, 895434, 895848, 896222, 896631, 897045]",77,OR,L,R,ITMSR,1.1
0,400,trial,0,41,41,41,trial,"['S', 'S', 'S', 'S', 'S', 'S', 'S', 'C', 'C', 'C', 'C', 'C', 'C', 'C', 'C', 'C', 'C', 'C', 'C', 'C', 'C', 'C', 'C', 'C']","[902735, 903148, 903652, 904069, 904532, 904950, 905360, 905718, 905818, 906164, 906599, 906990, 907393, 907809, 908213, 908630, 909017, 909462, 909842, 910268, 910699, 911119, 911521, 911937]","[902778, 903168, 903713, 904136, 904603, 905027, 905421, 905738, 905838, 906231, 906684, 907071, 907471, 907829, 908233, 908650, 909037, 909543, 909862, 910370, 910788, 911221, 911638, 912039]","[99, 172, 45, 37, 241, 84, 158, 63, 142, 238, 219, 81, 64, 45, 116, 114, 141, 178, 161, 176, 219, 187, 52, 245]","[902740, 903154, 903656, 904076, 904537, 904954, 905365, 905723, 905820, 906170, 906644, 906996, 907400, 907811, 908220, 908640, 909024, 909510, 909848, 910324, 910704, 911124, 911527, 911943]","[902551, 902950, 903350, 903750, 904151, 904550, 904950, 905350, 905738, 906184, 906619, 907010, 907413, 907829, 908233, 908650, 909037, 909483, 909862, 910288, 910720, 911139, 911541, 911958]",77,OR,L,R,ITMSR,1.1
1,600,trial,0,42,42,42,trial,"['S', 'S', 'S', 'S', 'S', 'S', 'S', 'C', 'C', 'C', 'C', 'C', 'C', 'C', 'C', 'C', 'C', 'C', 'C', 'C', 'C', 'C', 'C']","[917764, 918455, 919095, 919702, 920307, 920953, 921506, 922097, 922716, 923323, 923941, 924528, 925100, 925664, 926289, 926901, 927532, 928096, 928681, 929295, 929913, 930540, 931165]","[917836, 918542, 919180, 919784, 920378, 921007, 921584, 922187, 922798, 923414, 924014, 924630, 925223, 925779, 926375, 926984, 927603, 928184, 928756, 929381, 929996, 930624, 931256]","[8, 28, 54, 7, 42, 51, 127, 106, 255, 116, 116, 162, 89, 52, 161, 75, 127, 150, 227, 66, 189, 201, 194]","[917769, 918462, 919101, 919708, 920313, 920961, 921513, 922102, 922724, 923331, 923949, 924534, 925188, 925736, 926296, 926908, 927539, 928138, 928690, 929302, 929921, 930545, 931173]","[917324, 917924, 918524, 919124, 919725, 920325, 920925, 921525, 922117, 922736, 923343, 923961, 924548, 925120, 925684, 926309, 926921, 927552, 928116, 928701, 929315, 929933, 930561, 931185]",77,OR,L,R,ITMSR,1.1
5,400,trial,0,43,43,43,trial,"['B', 'S', 'S', 'S', 'S', 'S', 'S', 'S', 'C', 'C', 'C', 'C', 'C', 'C', 'C', 'C', 'C', 'C', 'C', 'C', 'C', 'C', 'C', 'C']","[936832, 937368, 937682, 938023, 938399, 938840, 939255, 939631, 940038, 940441, 940879, 941253, 941633, 942033, 942459, 942849, 943265, 943679, 944075, 944472, 944868, 945284, 945698, 946082]","[936980, 937388, 937703, 938045, 938419, 938910, 939328, 939699, 940107, 940529, 940958, 941336, 941712, 942114, 942537, 942937, 943360, 943762, 944174, 944558, 944957, 945371, 945789, 946201]","[38, 172, 166, 218, 211, 240, 9, 109, 62, 36, 45, 148, 121, 78, 65, 144, 78, 140, 126, 200, 73, 114, 130, 54]","[936894, 937373, 937688, 938033, 938407, 938848, 939264, 939637, 940043, 940446, 940886, 941257, 941639, 942040, 942469, 942854, 943270, 943685, 944081, 944476, 944875, 945290, 945705, 946088]","[936844, 937244, 937645, 938045, 938445, 938845, 939245, 939645, 940058, 940461, 940899, 941273, 941654, 942053, 942479, 942869, 943285, 943699, 944095, 944492, 944888, 945304, 945718, 946102]",77,OR,L,R,ITMSR,1.1
4,600,trial,0,44,44,44,trial,"['S', 'S', 'S', 'S', 'S', 'S', 'S', 'S', 'S', 'C', 'C', 'C', 'C', 'C', 'C', 'C', 'C', 'C', 'C', 'C', 'C', 'C', 'C', 'C', 'C', 'C']","[951929, 952282, 952890, 953494, 954088, 954635, 955230, 955878, 956143, 956525, 957015, 957670, 958265, 958839, 959390, 959925, 960025, 960483, 960992, 961515, 962017, 962544, 963076, 963619, 964155, 964673]","[952015, 952412, 952976, 953576, 954169, 954753, 955406, 956004, 956379, 956658, 957166, 957794, 958361, 958969, 959478, 959945, 960045, 960503, 961012, 961536, 962037, 962564, 963156, 963639, 964237, 964744]","[76, 55, 85, 113, 119, 79, 56, 36, 179, 64, 209, 206, 187, 254, 226, 58, 62, 115, 40, 79, 36, 30, 75, 202, 224, 233]","[951983, 952327, 952897, 953501, 954095, 954641, 955360, 955953, 956258, 956606, 957073, 957754, 958322, 958903, 959395, 959928, 960025, 960486, 960997, 961520, 962023, 962551, 963084, 963622, 964162, 964679]","[951723, 952322, 952922, 953522, 954122, 954722, 955322, 955922, 956546, 957035, 957690, 958285, 958859, 959410, 959945, 960503, 961012, 961536, 962037, 962564, 963096, 963639, 964175, 964694]",77,OR,L,R,ITMSR,1.1
5,600,trial,0,45,45,45,trial,"['S', 'S', 'S', 'S', 'S', 'S', 'S', 'S', 'C', 'C', 'C', 'C', 'C', 'C', 'C', 'C', 'C', 'C', 'C', 'C', 'C', 'C', 'C', 'C']","[970454, 970824, 971427, 972013, 972668, 973250, 973853, 974439, 975059, 975677, 976256, 976855, 977431, 978030, 978669, 979227, 979784, 980396, 980952, 981547, 982137, 982736, 983307, 983872]","[970502, 970911, 971495, 972092, 972733, 973327, 973913, 974514, 975137, 975763, 976349, 976936, 977550, 978120, 978786, 979350, 979909, 980492, 981054, 981640, 982220, 982822, 983399, 983954]","[8, 48, 225, 251, 75, 9, 28, 22, 238, 26, 146, 243, 6, 215, 23, 108, 21, 105, 225, 172, 183, 241, 154, 178]","[970458, 970883, 971435, 972018, 972673, 973257, 973859, 974445, 975068, 975683, 976264, 976862, 977438, 978036, 978740, 979302, 979790, 980463, 980959, 981554, 982144, 982743, 983313, 983879]","[970246, 970845, 971445, 972045, 972645, 973245, 973845, 974445, 975079, 975697, 976276, 976875, 977452, 978050, 978690, 979247, 979804, 980416, 980972, 981567, 982157, 982756, 983327, 983892]",77,OR,L,R,ITMSR,1.1
4,400,trial,0,46,46,46,trial,"['S', 'S', 'S', 'S', 'S', 'S', 'S', 'C', 'C', 'C', 'C', 'C', 'C', 'C', 'C', 'C', 'C', 'C', 'C', 'C', 'C', 'C', 'C']","[989571, 990041, 990482, 990922, 991338, 991727, 992128, 992505, 992929, 993330, 993738, 994152, 994578, 994980, 995396, 995756, 996199, 996586, 996987, 997377, 997791, 998202, 998618]","[989619, 990117, 990502, 990942, 991358, 991747, 992148, 992525, 992949, 993350, 993758, 994172, 994669, 995000, 995416, 995776, 996219, 996606, 997074, 997446, 997811, 998284, 998638]","[128, 173, 163, 100, 108, 113, 151, 139, 115, 118, 121, 106, 58, 8, 46, 24, 44, 98, 75, 93, 117, 164, 17]","[989575, 990046, 990487, 990928, 991344, 991733, 992133, 992512, 992935, 993336, 993744, 994158, 994641, 994983, 995402, 995760, 996205, 996592, 996993, 997381, 997796, 998207, 998621]","[989369, 989768, 990168, 990568, 990968, 991368, 991768, 992168, 992525, 992949, 993350, 993758, 994172, 994598, 995000, 995416, 995776, 996219, 996606, 997007, 997397, 997811, 998222, 998638]",77,OR,L,R,ITMSR,1.1
0,600,trial,0,47,47,47,trial,"['S', 'S', 'S', 'S', 'S', 'S', 'S', 'C', 'C', 'C', 'C', 'C', 'C', 'C', 'C', 'C', 'C', 'C', 'C', 'C', 'C', 'C', 'C', 'C', 'C', 'C']","[1004948, 1005554, 1006097, 1006690, 1007283, 1007883, 1008461, 1009071, 1009724, 1010352, 1010937, 1011577, 1012186, 1012827, 1013442, 1014090, 1014190, 1014725, 1015339, 1015439, 1015934, 1016557, 1017164, 1017264, 1017804, 1018459]","[1005018, 1005574, 1006156, 1006710, 1007341, 1007903, 1008516, 1009091, 1009744, 1010372, 1010957, 1011679, 1012267, 1012847, 1013463, 1014110, 1014210, 1014745, 1015359, 1015459, 1015954, 1016632, 1017184, 1017284, 1017889, 1018565]","[85, 87, 12, 192, 83, 173, 103, 250, 226, 232, 46, 117, 96, 32, 254, 209, 22, 130, 243, 215, 200, 32, 131, 147, 18, 174]","[1004954, 1005558, 1006101, 1006695, 1007289, 1007889, 1008466, 1009076, 1009729, 1010356, 1010942, 1011582, 1012190, 1012832, 1013448, 1014095, 1014190, 1014730, 1015344, 1015439, 1015941, 1016562, 1017168, 1017264, 1017809, 1018535]","[1004283, 1004883, 1005484, 1006083, 1006683, 1007283, 1007883, 1008483, 1009091, 1009744, 1010372, 1010957, 1011597, 1012206, 1012847, 1013463, 1014110, 1014745, 1015359, 1015954, 1016578, 1017184, 1017824, 1018479]",77,OR,L,R,ITMSR,1.1
0,400,trial,0,48,48,48,trial,"['S', 'S', 'S', 'S', 'S', 'S', 'C', 'C', 'C', 'C', 'C', 'C', 'C', 'C', 'C', 'C', 'C', 'C', 'C', 'C', 'C', 'C']","[1024367, 1024733, 1025103, 1025514, 1025859, 1026680, 1027122, 1027537, 1027949, 1028367, 1028766, 1029184, 1029612, 1030025, 1030401, 1030843, 1031258, 1031693, 1032120, 1032517, 1032916, 1033370]","[1024439, 1024785, 1025123, 1025534, 1025943, 1026751, 1027189, 1027609, 1028028, 1028435, 1028851, 1029271, 1029691, 1030096, 1030492, 1030918, 1031345, 1031774, 1032195, 1032593, 1033003, 1033445]","[155, 183, 106, 175, 9, 145, 8, 20, 26, 0, 31, 3, 237, 35, 136, 254, 13, 240, 18, 70, 14, 244]","[1024372, 1024737, 1025106, 1025520, 1025864, 1026685, 1027129, 1027543, 1027955, 1028373, 1028772, 1029190, 1029617, 1030031, 1030408, 1030849, 1031264, 1031699, 1032125, 1032523, 1032923, 1033375]","[1023933, 1024333, 1024733, 1025133, 1025533, 1025933, 1026333, 1026733, 1027142, 1027557, 1027970, 1028387, 1028786, 1029204, 1029633, 1030045, 1030421, 1030863, 1031278, 1031713, 1032140, 1032537, 1032936, 1033390]",77,OR,L,R,ITMSR,1.1
2,600,trial,0,49,49,49,trial,"['S', 'S', 'S', 'S', 'S', 'S', 'S', 'S', 'C', 'C', 'C', 'C', 'C', 'C', 'C', 'C', 'C', 'C', 'C', 'C', 'C', 'C', 'C', 'C']","[1038893, 1039326, 1040019, 1040663, 1041265, 1041893, 1042498, 1043111, 1043682, 1044277, 1044879, 1045475, 1046079, 1046692, 1047283, 1047888, 1048496, 1049039, 1049614, 1050271, 1050808, 1051426, 1051922, 1052484]","[1039036, 1039457, 1040115, 1040741, 1041349, 1041972, 1042573, 1043179, 1043774, 1044371, 1044979, 1045573, 1046191, 1046807, 1047413, 1047999, 1048648, 1049213, 1049783, 1050386, 1051027, 1051588, 1052123, 1052679]","[220, 9, 21, 50, 68, 65, 74, 86, 75, 133, 190, 35, 165, 223, 134, 20, 6, 230, 197, 187, 186, 24, 252, 56]","[1038978, 1039332, 1040023, 1040669, 1041270, 1041898, 1042503, 1043116, 1043687, 1044283, 1044885, 1045480, 1046085, 1046700, 1047359, 1047895, 1048503, 1049129, 1049694, 1050341, 1050913, 1051512, 1052044, 1052607]","[1038887, 1039488, 1040088, 1040688, 1041288, 1041888, 1042488, 1043088, 1043702, 1044297, 1044899, 1045495, 1046099, 1046712, 1047303, 1047908, 1048516, 1049059, 1049634, 1050291, 1050828, 1051446, 1051942, 1052504]",77,OR,L,R,ITMSR,1.1
2,600,trial,0,50,50,50,trial,"['S', 'S', 'S', 'S', 'S', 'S', 'S', 'S', 'C', 'C', 'C', 'C', 'C', 'C', 'C', 'C', 'C', 'C', 'C', 'C', 'C', 'C', 'C', 'C']","[1058134, 1058567, 1059092, 1059725, 1060279, 1060808, 1061488, 1062113, 1062720, 1063286, 1063886, 1064487, 1065124, 1065741, 1066345, 1066958, 1067542, 1068164, 1068746, 1069334, 1069924, 1070523, 1071106, 1071692]","[1058197, 1058654, 1059169, 1059800, 1060350, 1060884, 1061543, 1062169, 1062794, 1063365, 1063934, 1064545, 1065186, 1065835, 1066447, 1067052, 1067630, 1068250, 1068849, 1069441, 1070019, 1070617, 1071219, 1071794]","[225, 253, 21, 91, 100, 45, 6, 142, 231, 238, 16, 18, 137, 97, 226, 185, 26, 28, 37, 43, 49, 96, 12, 137]","[1058168, 1058575, 1059098, 1059731, 1060285, 1060815, 1061495, 1062120, 1062726, 1063289, 1063890, 1064492, 1065132, 1065748, 1066351, 1067016, 1067550, 1068167, 1068752, 1069406, 1069985, 1070530, 1071190, 1071699]","[1057961, 1058561, 1059160, 1059760, 1060360, 1060960, 1061560, 1062160, 1062740, 1063306, 1063906, 1064507, 1065144, 1065761, 1066365, 1066978, 1067563, 1068184, 1068766, 1069355, 1069944, 1070543, 1071126, 1071712]",77,OR,L,R,ITMSR,1.1
1,400,trial,0,51,51,51,trial,"['S', 'S', 'S', 'S', 'S', 'S', 'S', 'C', 'C', 'C', 'C', 'C', 'C', 'C', 'C', 'C', 'C', 'C', 'C', 'C', 'C', 'C', 'C', 'C']","[1077661, 1078030, 1078413, 1078792, 1079207, 1079618, 1080013, 1080418, 1080816, 1081248, 1081633, 1082041, 1082463, 1082902, 1083273, 1083725, 1084155, 1084541, 1084955, 1085323, 1085423, 1085752, 1086134, 1086548]","[1077745, 1078080, 1078465, 1078852, 1079268, 1079677, 1080091, 1080497, 1080878, 1081268, 1081724, 1082114, 1082483, 1082986, 1083293, 1083745, 1084238, 1084561, 1084975, 1085343, 1085443, 1085827, 1086154, 1086568]","[59, 220, 202, 57, 55, 14, 230, 68, 231, 218, 173, 247, 122, 209, 7, 168, 173, 171, 195, 108, 65, 189, 163, 176]","[1077713, 1078035, 1078418, 1078796, 1079213, 1079622, 1080018, 1080423, 1080822, 1081254, 1081640, 1082048, 1082470, 1082908, 1083279, 1083731, 1084163, 1084548, 1084961, 1085328, 1085423, 1085758, 1086140, 1086555]","[1077217, 1077617, 1078018, 1078418, 1078818, 1079218, 1079618, 1080018, 1080438, 1080836, 1081268, 1081653, 1082061, 1082483, 1082923, 1083293, 1083745, 1084175, 1084561, 1084975, 1085343, 1085772, 1086154, 1086568]",77,OR,L,R,ITMSR,1.1
3,400,trial,0,52,52,52,trial,"['S', 'S', 'S', 'S', 'S', 'S', 'S', 'S', 'C', 'C', 'C', 'C', 'C', 'C', 'C', 'C', 'C', 'C', 'C', 'C', 'C', 'C', 'C', 'C', 'C', 'C', 'C', 'C']","[1091948, 1092460, 1092773, 1093144, 1093477, 1093911, 1094324, 1094702, 1095135, 1095527, 1095911, 1096321, 1096691, 1097113, 1097527, 1097944, 1098044, 1098349, 1098725, 1098825, 1099123, 1099223, 1099535, 1099936, 1100344, 1100444, 1100732, 1101147]","[1092030, 1092536, 1092793, 1093164, 1093497, 1093931, 1094344, 1094722, 1095155, 1095547, 1095999, 1096394, 1096711, 1097133, 1097647, 1097964, 1098064, 1098370, 1098745, 1098845, 1099143, 1099243, 1099645, 1099956, 1100364, 1100464, 1100752, 1101167]","[137, 151, 64, 80, 114, 155, 110, 226, 196, 203, 72, 37, 251, 29, 100, 137, 58, 99, 187, 232, 87, 166, 91, 142, 208, 149, 130, 164]","[1091988, 1092466, 1092779, 1093149, 1093483, 1093916, 1094330, 1094707, 1095139, 1095534, 1095916, 1096325, 1096696, 1097117, 1097611, 1097950, 1098044, 1098355, 1098729, 1098825, 1099130, 1099223, 1099606, 1099942, 1100347, 1100444, 1100738, 1101153]","[1091948, 1092348, 1092748, 1093148, 1093549, 1093949, 1094349, 1094749, 1095155, 1095547, 1095931, 1096341, 1096711, 1097133, 1097547, 1097964, 1098370, 1098745, 1099143, 1099555, 1099956, 1100364, 1100752, 1101167]",77,OR,L,R,ITMSR,1.1
5,600,trial,0,53,53,53,trial,"['S', 'S', 'S', 'S', 'S', 'S', 'S', 'S', 'C', 'C', 'C', 'C', 'C', 'C', 'C', 'C', 'C', 'C', 'C', 'C', 'C', 'C', 'C', 'C']","[1107116, 1107459, 1108127, 1108724, 1109334, 1109924, 1110523, 1111155, 1111727, 1112312, 1112936, 1113542, 1114119, 1114727, 1115289, 1115894, 1116488, 1117092, 1117687, 1118267, 1118842, 1119447, 1120070, 1120697]","[1107190, 1107551, 1108171, 1108785, 1109391, 1109978, 1110580, 1111223, 1111794, 1112397, 1112992, 1113627, 1114206, 1114806, 1115421, 1115998, 1116599, 1117187, 1117796, 1118381, 1118963, 1119542, 1120174, 1120790]","[154, 80, 138, 87, 154, 143, 103, 205, 49, 50, 160, 157, 164, 33, 76, 223, 154, 16, 212, 198, 73, 44, 206, 41]","[1107121, 1107465, 1108133, 1108729, 1109342, 1109931, 1110530, 1111161, 1111733, 1112318, 1112943, 1113548, 1114124, 1114733, 1115294, 1115900, 1116495, 1117099, 1117694, 1118273, 1118849, 1119453, 1120077, 1120703]","[1106952, 1107551, 1108151, 1108751, 1109351, 1109951, 1110551, 1111151, 1111747, 1112332, 1112956, 1113562, 1114139, 1114747, 1115309, 1115914, 1116508, 1117112, 1117707, 1118287, 1118862, 1119467, 1120090, 1120717]",77,OR,L,R,ITMSR,1.1
5,600,trial,0,54,54,54,trial,"['S', 'S', 'S', 'S', 'S', 'S', 'S', 'S', 'C', 'C', 'C', 'C', 'C', 'C', 'C', 'C', 'C', 'C', 'C', 'C', 'C', 'C', 'C', 'C']","[1139004, 1139465, 1140009, 1140590, 1141179, 1141814, 1142385, 1142977, 1143581, 1144190, 1144807, 1145377, 1145979, 1146584, 1147208, 1147805, 1148400, 1149008, 1149584, 1150162, 1150751, 1151396, 1152011, 1152601]","[1139033, 1139527, 1140068, 1140653, 1141254, 1141896, 1142468, 1143073, 1143671, 1144300, 1144894, 1145490, 1146085, 1146695, 1147316, 1147920, 1148525, 1149125, 1149700, 1150275, 1150876, 1151486, 1152096, 1152696]","[143, 123, 196, 210, 223, 215, 170, 140, 84, 69, 218, 224, 41, 48, 168, 109, 82, 166, 177, 108, 158, 125, 45, 166]","[1139008, 1139471, 1140015, 1140594, 1141184, 1141819, 1142390, 1142982, 1143586, 1144196, 1144812, 1145383, 1145985, 1146589, 1147213, 1147811, 1148406, 1149014, 1149588, 1150169, 1150757, 1151401, 1152017, 1152606]","[1138794, 1139394, 1139994, 1140594, 1141194, 1141794, 1142394, 1142994, 1143601, 1144210, 1144827, 1145397, 1145999, 1146604, 1147228, 1147825, 1148420, 1149028, 1149604, 1150182, 1150771, 1151416, 1152031, 1152621]",77,OR,L,R,ITMSR,1.1
4,600,trial,0,55,55,55,trial,"['S', 'S', 'S', 'S', 'S', 'S', 'S', 'S', 'C', 'C', 'C', 'C', 'C', 'C', 'C', 'C', 'C', 'C', 'C', 'C', 'C', 'C', 'C', 'C']","[1158522, 1158894, 1159501, 1160059, 1160687, 1161259, 1161863, 1162471, 1163098, 1163696, 1164325, 1164906, 1165518, 1166111, 1166708, 1167328, 1167948, 1168550, 1169099, 1169696, 1170301, 1170917, 1171478, 1172083]","[1158542, 1158974, 1159566, 1160129, 1160739, 1161334, 1161932, 1162553, 1163169, 1163774, 1164398, 1164989, 1165580, 1166174, 1166783, 1167408, 1168045, 1168621, 1169215, 1169803, 1170372, 1170969, 1171502, 1172103]","[93, 105, 104, 143, 71, 116, 144, 148, 83, 111, 101, 99, 226, 105, 100, 100, 109, 234, 115, 142, 61, 202, 61, 141]","[1158528, 1158899, 1159508, 1160065, 1160692, 1161264, 1161867, 1162475, 1163102, 1163701, 1164331, 1164910, 1165523, 1166116, 1166713, 1167333, 1167953, 1168556, 1169104, 1169701, 1170308, 1170923, 1171483, 1172087]","[1158287, 1158887, 1159487, 1160087, 1160687, 1161287, 1161887, 1162487, 1163118, 1163716, 1164345, 1164926, 1165538, 1166131, 1166728, 1167348, 1167968, 1168570, 1169119, 1169716, 1170321, 1170937, 1171499, 1172103]",77,OR,L,R,ITMSR,1.1
2,600,trial,0,56,56,56,trial,"['S', 'S', 'S', 'S', 'S', 'S', 'S', 'C', 'C', 'C', 'C', 'C', 'C', 'C', 'C', 'C', 'C', 'C', 'C', 'C', 'C', 'C', 'C']","[1177985, 1178655, 1179284, 1179911, 1180546, 1181109, 1181693, 1182265, 1182930, 1183529, 1184120, 1184630, 1185253, 1185814, 1186405, 1187032, 1187622, 1188186, 1188762, 1189308, 1189918, 1190491, 1191077]","[1178065, 1178748, 1179374, 1180000, 1180646, 1181201, 1181773, 1182341, 1183013, 1183608, 1184189, 1184709, 1185323, 1185893, 1186484, 1187125, 1187720, 1188259, 1188845, 1189389, 1189989, 1190571, 1191126]","[242, 172, 54, 15, 15, 177, 226, 60, 88, 117, 156, 249, 18, 174, 254, 233, 22, 156, 128, 110, 67, 81, 58]","[1177990, 1178661, 1179290, 1179916, 1180552, 1181166, 1181701, 1182271, 1182936, 1183538, 1184129, 1184637, 1185258, 1185821, 1186411, 1187080, 1187629, 1188193, 1188767, 1189314, 1189923, 1190498, 1191084]","[1177498, 1178098, 1178698, 1179298, 1179898, 1180498, 1181099, 1181698, 1182285, 1182950, 1183549, 1184140, 1184650, 1185273, 1185835, 1186425, 1187052, 1187642, 1188206, 1188782, 1189328, 1189938, 1190511, 1191097]",77,OR,L,R,ITMSR,1.1
0,400,trial,0,57,57,57,trial,"['S', 'S', 'S', 'S', 'S', 'S', 'S', 'C', 'C', 'C', 'C', 'C', 'C', 'C', 'C', 'C', 'C', 'C', 'C', 'C', 'C', 'C', 'C']","[1196793, 1197210, 1197682, 1198132, 1198532, 1198925, 1199341, 1199746, 1200146, 1200536, 1200943, 1201340, 1201759, 1202162, 1202570, 1202962, 1203407, 1203822, 1204229, 1204644, 1205049, 1205452, 1205861]","[1196836, 1197277, 1197741, 1198184, 1198586, 1198981, 1199361, 1199766, 1200196, 1200557, 1201008, 1201405, 1201841, 1202269, 1202655, 1203047, 1203477, 1203900, 1204305, 1204713, 1205129, 1205535, 1205932]","[78, 166, 176, 158, 228, 205, 64, 33, 39, 61, 12, 206, 208, 45, 117, 121, 21, 82, 150, 223, 205, 0, 6]","[1196802, 1197218, 1197689, 1198138, 1198541, 1198931, 1199344, 1199753, 1200153, 1200543, 1200948, 1201345, 1201764, 1202233, 1202576, 1202968, 1203412, 1203830, 1204235, 1204651, 1205055, 1205458, 1205866]","[1196598, 1196997, 1197398, 1197797, 1198197, 1198597, 1198997, 1199397, 1199766, 1200166, 1200557, 1200963, 1201360, 1201779, 1202182, 1202590, 1202982, 1203427, 1203842, 1204249, 1204664, 1205069, 1205472, 1205881]",77,OR,L,R,ITMSR,1.1
4,400,trial,0,58,58,58,trial,"['S', 'S', 'S', 'S', 'S', 'S', 'S', 'C', 'C', 'C', 'C', 'C', 'C', 'C', 'C', 'C', 'C', 'C', 'C', 'C', 'C', 'C', 'C']","[1211692, 1212022, 1212383, 1212748, 1213147, 1213543, 1213948, 1214367, 1214785, 1215207, 1215627, 1215982, 1216397, 1216790, 1217189, 1217603, 1218041, 1218428, 1218840, 1219260, 1219638, 1220044, 1220461]","[1211814, 1212080, 1212438, 1212804, 1213217, 1213617, 1214051, 1214458, 1214887, 1215336, 1215783, 1216121, 1216506, 1216874, 1217248, 1217662, 1218111, 1218509, 1218917, 1219340, 1219735, 1220134, 1220547]","[239, 146, 165, 12, 23, 68, 21, 65, 38, 177, 75, 129, 118, 98, 228, 29, 227, 245, 151, 97, 58, 188, 179]","[1211695, 1212052, 1212389, 1212754, 1213153, 1213548, 1213954, 1214372, 1214790, 1215214, 1215711, 1216056, 1216464, 1216796, 1217193, 1217609, 1218048, 1218434, 1218845, 1219265, 1219643, 1220049, 1220466]","[1211186, 1211586, 1211986, 1212386, 1212786, 1213186, 1213586, 1213986, 1214387, 1214806, 1215227, 1215647, 1216002, 1216417, 1216811, 1217209, 1217624, 1218061, 1218448, 1218861, 1219280, 1219658, 1220064, 1220482]",77,OR,L,R,ITMSR,1.1
3,400,trial,0,59,59,59,trial,"['S', 'S', 'S', 'S', 'S', 'S', 'S', 'C', 'C', 'C', 'C', 'C', 'C', 'C', 'C', 'C', 'C', 'C', 'C', 'C', 'C', 'C', 'C']","[1226626, 1226969, 1227335, 1227743, 1228132, 1228547, 1228920, 1229332, 1229716, 1230164, 1230537, 1230957, 1231344, 1231755, 1232179, 1232572, 1232957, 1233316, 1233742, 1234122, 1234536, 1234898, 1235287]","[1226705, 1227048, 1227410, 1227827, 1228211, 1228609, 1229007, 1229401, 1229792, 1230236, 1230644, 1231045, 1231450, 1231869, 1232311, 1232691, 1233087, 1233476, 1233874, 1234274, 1234654, 1235043, 1235412]","[2, 105, 86, 9, 72, 60, 57, 32, 49, 58, 67, 103, 112, 39, 38, 116, 76, 60, 128, 107, 142, 128, 157]","[1226672, 1226975, 1227340, 1227750, 1228137, 1228553, 1228928, 1229338, 1229722, 1230171, 1230543, 1230963, 1231349, 1231761, 1232185, 1232577, 1232963, 1233324, 1233748, 1234128, 1234541, 1234904, 1235293]","[1226162, 1226562, 1226962, 1227362, 1227762, 1228162, 1228562, 1228962, 1229352, 1229736, 1230184, 1230557, 1230978, 1231364, 1231775, 1232199, 1232592, 1232977, 1233336, 1233762, 1234142, 1234556, 1234918, 1235307]",77,OR,L,R,ITMSR,1.1
2,400,trial,0,60,60,60,trial,"['S', 'S', 'S', 'S', 'S', 'S', 'S', 'C', 'C', 'C', 'C', 'C', 'C', 'C', 'C', 'C', 'C', 'C', 'C', 'C', 'C', 'C', 'C']","[1241175, 1241275, 1241640, 1241996, 1242371, 1242737, 1243123, 1245999, 1246390, 1246809, 1247185, 1247634, 1248067, 1248481, 1248906, 1249368, 1249786, 1250227, 1250661, 1251104, 1251524, 1251939, 1252382]","[1241195, 1241316, 1241728, 1242059, 1242429, 1242839, 1245829, 1246113, 1246468, 1246876, 1247281, 1247654, 1248088, 1248563, 1248926, 1249440, 1249880, 1250247, 1250681, 1251124, 1251544, 1252036, 1252487]","[159, 202, 108, 147, 251, 59, 152, 150, 89, 36, 134, 8, 192, 198, 221, 202, 2, 252, 15, 55, 58, 88, 46]","[1241181, 1241281, 1241647, 1242002, 1242377, 1242742, 1243127, 1246003, 1246396, 1246816, 1247191, 1247640, 1248072, 1248488, 1248910, 1249375, 1249793, 1250234, 1250666, 1251110, 1251530, 1251944, 1252389]","[1241106, 1241506, 1241906, 1242306, 1242706, 1243106, 1243506, 1243906, 1246019, 1246410, 1246829, 1247205, 1247654, 1248088, 1248501, 1248926, 1249388, 1249806, 1250247, 1250681, 1251124, 1251544, 1251959, 1252402]",77,OR,L,R,ITMSR,1.1
0,600,trial,0,61,61,61,trial,"['S', 'S', 'S', 'S', 'S', 'S', 'S', 'C', 'C', 'C', 'C', 'C', 'C', 'C', 'C', 'C', 'C', 'C', 'C', 'C', 'C', 'C', 'C']","[1258307, 1259032, 1259670, 1260290, 1260899, 1261537, 1262163, 1262732, 1263330, 1263959, 1264574, 1265127, 1265761, 1266371, 1267017, 1267602, 1268220, 1268793, 1269379, 1269974, 1270554, 1271152, 1271750]","[1258358, 1259087, 1259732, 1260339, 1260972, 1261588, 1262235, 1262788, 1263412, 1264009, 1264657, 1265207, 1265859, 1266460, 1267123, 1267682, 1268324, 1268891, 1269482, 1270065, 1270657, 1271239, 1271846]","[148, 1, 9, 185, 39, 43, 70, 44, 65, 45, 238, 60, 20, 90, 36, 61, 2, 45, 131, 33, 0, 93, 112]","[1258311, 1259038, 1259676, 1260295, 1260905, 1261546, 1262170, 1262739, 1263334, 1263963, 1264580, 1265129, 1265768, 1266377, 1267024, 1267603, 1268227, 1268799, 1269386, 1269980, 1270559, 1271159, 1271757]","[1257935, 1258535, 1259136, 1259736, 1260336, 1260936, 1261536, 1262136, 1262752, 1263350, 1263979, 1264594, 1265147, 1265781, 1266392, 1267037, 1267622, 1268240, 1268813, 1269399, 1269994, 1270574, 1271172, 1271770]",77,OR,L,R,ITMSR,1.1
2,400,trial,0,62,62,62,trial,"['S', 'S', 'S', 'S', 'S', 'S', 'S', 'C', 'C', 'C', 'C', 'C', 'C', 'C', 'C', 'C', 'C', 'C', 'C', 'C', 'C', 'C', 'C']","[1277463, 1277922, 1278308, 1278718, 1279167, 1279575, 1279979, 1280335, 1280754, 1281157, 1281591, 1282026, 1282476, 1282846, 1283252, 1283651, 1284040, 1284452, 1284869, 1285229, 1285640, 1286007, 1286406]","[1277541, 1277964, 1278380, 1278788, 1279234, 1279660, 1280058, 1280441, 1280832, 1281233, 1281660, 1282106, 1282552, 1282939, 1283333, 1283739, 1284144, 1284529, 1284951, 1285348, 1285731, 1286125, 1286502]","[99, 205, 49, 231, 91, 167, 46, 158, 4, 160, 167, 187, 198, 172, 132, 217, 152, 138, 25, 242, 228, 235, 206]","[1277469, 1277925, 1278314, 1278724, 1279172, 1279582, 1279985, 1280340, 1280760, 1281164, 1281597, 1282031, 1282483, 1282852, 1283258, 1283691, 1284046, 1284459, 1284874, 1285234, 1285645, 1286011, 1286412]","[1277205, 1277604, 1278004, 1278404, 1278804, 1279204, 1279604, 1280004, 1280355, 1280774, 1281177, 1281611, 1282046, 1282496, 1282866, 1283272, 1283672, 1284060, 1284472, 1284889, 1285250, 1285660, 1286027, 1286426]",77,OR,L,R,ITMSR,1.1
2,600,trial,0,63,63,63,trial,"['B', 'S', 'S', 'S', 'S', 'S', 'S', 'S', 'C', 'C', 'C', 'C', 'C', 'C', 'C', 'C', 'C', 'C', 'C', 'C', 'C', 'C', 'C', 'C', 'C']","[1291746, 1292109, 1292854, 1293488, 1294118, 1294714, 1295322, 1295979, 1296607, 1296707, 1297137, 1297756, 1298299, 1298866, 1299454, 1300068, 1300658, 1301242, 1301871, 1302446, 1303001, 1303600, 1304153, 1304730, 1305270]","[1291772, 1292212, 1292919, 1293571, 1294199, 1294801, 1295425, 1296083, 1296627, 1296770, 1297310, 1297880, 1298409, 1298946, 1299519, 1300136, 1300725, 1301324, 1301957, 1302542, 1303089, 1303667, 1304246, 1304835, 1305372]","[98, 226, 15, 92, 242, 248, 244, 157, 42, 48, 150, 198, 226, 99, 54, 35, 44, 52, 28, 223, 40, 199, 17, 226, 39]","[1291746, 1292116, 1292859, 1293493, 1294121, 1294717, 1295328, 1295986, 1296611, 1296715, 1297243, 1297762, 1298305, 1298871, 1299460, 1300073, 1300664, 1301250, 1301901, 1302450, 1303004, 1303604, 1304157, 1304734, 1305272]","[1291757, 1292357, 1292957, 1293557, 1294157, 1294757, 1295357, 1295958, 1296627, 1297157, 1297776, 1298319, 1298886, 1299474, 1300088, 1300678, 1301262, 1301891, 1302466, 1303021, 1303620, 1304173, 1304750, 1305290]",77,OR,L,R,ITMSR,1.1
5,600,trial,0,64,64,64,trial,"['S', 'S', 'S', 'S', 'S', 'S', 'S', 'S', 'C', 'C', 'C', 'C', 'C', 'C', 'C', 'C', 'C', 'C', 'C', 'C', 'C', 'C', 'C', 'C', 'C']","[1310896, 1311308, 1311895, 1312497, 1313082, 1313679, 1314252, 1314851, 1315438, 1316042, 1316627, 1317188, 1317773, 1318372, 1318936, 1319525, 1319625, 1320142, 1320732, 1321347, 1321925, 1322499, 1323109, 1323671, 1324268]","[1310948, 1311375, 1311962, 1312548, 1313140, 1313745, 1314323, 1314910, 1315513, 1316120, 1316719, 1317302, 1317875, 1318480, 1319059, 1319545, 1319654, 1320248, 1320847, 1321441, 1322050, 1322612, 1323216, 1323814, 1324429]","[113, 59, 155, 28, 141, 112, 248, 244, 255, 210, 180, 158, 178, 211, 219, 200, 98, 232, 128, 178, 95, 24, 186, 146, 191]","[1310902, 1311312, 1311899, 1312500, 1313085, 1313683, 1314256, 1314855, 1315442, 1316046, 1316631, 1317193, 1317777, 1318376, 1318941, 1319530, 1319625, 1320147, 1320736, 1321352, 1321929, 1322569, 1323184, 1323769, 1324271]","[1310703, 1311303, 1311903, 1312503, 1313103, 1313703, 1314304, 1314904, 1315458, 1316062, 1316647, 1317208, 1317793, 1318392, 1318957, 1319545, 1320162, 1320752, 1321367, 1321945, 1322519, 1323129, 1323692, 1324289]",77,OR,L,R,ITMSR,1.1
4,400,trial,0,65,65,65,trial,"['S', 'S', 'S', 'S', 'S', 'S', 'S', 'C', 'C', 'C', 'C', 'C', 'C', 'C', 'C', 'C', 'C', 'C', 'C', 'C', 'C', 'C', 'C', 'C']","[1330320, 1330761, 1331213, 1331620, 1332040, 1332433, 1332837, 1333220, 1333617, 1334035, 1334939, 1335041, 1335379, 1335763, 1336189, 1336569, 1337014, 1337417, 1337849, 1338227, 1338651, 1339061, 1339484, 1339897]","[1330340, 1330781, 1331275, 1331641, 1332061, 1332453, 1332857, 1333240, 1333637, 1334055, 1334959, 1335068, 1335399, 1335783, 1336269, 1336653, 1337082, 1337507, 1337934, 1338344, 1338761, 1339172, 1339602, 1340022]","[163, 44, 223, 33, 20, 173, 185, 21, 137, 249, 142, 127, 34, 133, 30, 241, 11, 199, 196, 203, 135, 173, 180, 222]","[1330322, 1330764, 1331217, 1331623, 1332044, 1332439, 1332841, 1333224, 1333620, 1334039, 1334942, 1335041, 1335384, 1335767, 1336194, 1336573, 1337019, 1337423, 1337853, 1338230, 1338655, 1339064, 1339489, 1339901]","[1330049, 1330448, 1330848, 1331248, 1331648, 1332048, 1332448, 1332848, 1333240, 1333637, 1334055, 1334959, 1335399, 1335783, 1336209, 1336589, 1337034, 1337437, 1337869, 1338247, 1338671, 1339081, 1339504, 1339917]",77,OR,L,R,ITMSR,1.1
4,600,trial,0,66,66,66,trial,"['S', 'S', 'S', 'S', 'S', 'S', 'S', 'S', 'C', 'C', 'C', 'C', 'C', 'C', 'C', 'C', 'C', 'C', 'C', 'C', 'C', 'C', 'C', 'C', 'C', 'C', 'C', 'C', 'C']","[1345612, 1346085, 1346627, 1347213, 1347817, 1348386, 1348999, 1349563, 1350166, 1350788, 1351376, 1352008, 1352620, 1353218, 1353764, 1354315, 1354415, 1354873, 1355470, 1356041, 1356141, 1356644, 1356744, 1357240, 1357803, 1358418, 1358518, 1359007, 1359107]","[1345632, 1346161, 1346683, 1347274, 1347879, 1348457, 1349080, 1349640, 1350269, 1350891, 1351475, 1352084, 1352725, 1353321, 1353903, 1354335, 1354444, 1355002, 1355603, 1356061, 1356167, 1356664, 1356764, 1357260, 1357922, 1358438, 1358552, 1359027, 1359127]","[126, 130, 19, 0, 248, 178, 180, 154, 81, 89, 244, 157, 213, 110, 125, 3, 148, 141, 166, 14, 55, 46, 5, 153, 3, 175, 114, 97, 80]","[1345618, 1346092, 1346633, 1347218, 1347822, 1348391, 1349004, 1349568, 1350172, 1350793, 1351382, 1352012, 1352627, 1353222, 1353854, 1354315, 1354415, 1354951, 1355475, 1356046, 1356141, 1356649, 1356744, 1357245, 1357807, 1358423, 1358518, 1359012, 1359107]","[1345386, 1345986, 1346586, 1347186, 1347786, 1348386, 1348986, 1349586, 1350187, 1350808, 1351396, 1352028, 1352640, 1353238, 1353784, 1354335, 1354893, 1355490, 1356061, 1356664, 1357260, 1357824, 1358438, 1359027]",77,OR,L,R,ITMSR,1.1
3,400,trial,0,67,67,67,trial,"['S', 'S', 'S', 'S', 'S', 'S', 'S', 'C', 'C', 'C', 'C', 'C', 'C', 'C', 'C', 'C', 'C', 'C', 'C', 'C', 'C', 'C', 'C']","[1364834, 1365191, 1365629, 1366145, 1366554, 1366977, 1367390, 1367786, 1368188, 1368604, 1369043, 1369423, 1369835, 1370233, 1370639, 1371012, 1371437, 1371829, 1372224, 1372622, 1373034, 1373435, 1373799]","[1364876, 1365267, 1365689, 1366189, 1366624, 1367046, 1367462, 1367855, 1368269, 1368686, 1369128, 1369525, 1369926, 1370316, 1370721, 1371119, 1371521, 1371955, 1372343, 1372736, 1373162, 1373560, 1373955]","[35, 184, 39, 229, 129, 61, 143, 107, 80, 14, 156, 35, 1, 254, 221, 61, 101, 114, 6, 83, 70, 222, 90]","[1364840, 1365193, 1365634, 1366151, 1366560, 1366983, 1367395, 1367791, 1368195, 1368609, 1369050, 1369428, 1369841, 1370238, 1370644, 1371017, 1371442, 1371835, 1372230, 1372626, 1373039, 1373509, 1373804]","[1364632, 1365032, 1365432, 1365832, 1366232, 1366632, 1367032, 1367432, 1367806, 1368208, 1368624, 1369063, 1369443, 1369856, 1370253, 1370659, 1371032, 1371457, 1371849, 1372244, 1372642, 1373054, 1373455, 1373819]",77,OR,L,R,ITMSR,1.1
5,400,trial,0,68,68,68,trial,"['S', 'S', 'S', 'S', 'S', 'S', 'S', 'C', 'C', 'C', 'C', 'C', 'C', 'C', 'C', 'C', 'C', 'C', 'C', 'C', 'C', 'C', 'C', 'C']","[1379702, 1380185, 1380603, 1381049, 1381437, 1381859, 1382262, 1382634, 1383070, 1383464, 1383859, 1384291, 1384702, 1385076, 1385503, 1385849, 1385949, 1386281, 1386689, 1387083, 1387499, 1387911, 1388327, 1388728]","[1379785, 1380254, 1380672, 1381117, 1381516, 1381904, 1382336, 1382732, 1383160, 1383566, 1383961, 1384374, 1384791, 1385205, 1385586, 1385869, 1385986, 1386395, 1386789, 1387196, 1387625, 1388054, 1388454, 1388845]","[147, 223, 47, 42, 83, 77, 147, 85, 67, 30, 242, 80, 138, 113, 73, 42, 168, 112, 143, 60, 22, 111, 98, 180]","[1379710, 1380192, 1380611, 1381056, 1381444, 1381865, 1382268, 1382640, 1383076, 1383470, 1383865, 1384296, 1384766, 1385080, 1385508, 1385854, 1385951, 1386288, 1386693, 1387088, 1387504, 1387917, 1388333, 1388732]","[1379492, 1379892, 1380292, 1380692, 1381092, 1381492, 1381892, 1382292, 1382654, 1383090, 1383484, 1383879, 1384311, 1384722, 1385096, 1385523, 1385869, 1386301, 1386710, 1387103, 1387520, 1387931, 1388347, 1388748]",77,OR,L,R,ITMSR,1.1
3,600,trial,0,69,69,69,trial,"['S', 'S', 'S', 'S', 'S', 'S', 'S', 'C', 'C', 'C', 'C', 'C', 'C', 'C', 'C', 'C', 'C', 'C', 'C', 'C', 'C', 'C', 'C', 'C']","[1394954, 1395677, 1396285, 1396869, 1397467, 1398075, 1398684, 1399293, 1399879, 1399979, 1400478, 1401101, 1401697, 1402372, 1403889, 1404454, 1405083, 1405622, 1406232, 1406810, 1407404, 1408027, 1408598, 1409168]","[1395022, 1395697, 1396354, 1396946, 1397487, 1398095, 1398704, 1399313, 1399899, 1399999, 1400640, 1401300, 1402102, 1402618, 1403909, 1404474, 1405103, 1405642, 1406300, 1406920, 1407525, 1408125, 1408739, 1409312]","[185, 132, 254, 138, 26, 210, 211, 139, 87, 115, 2, 200, 202, 114, 100, 44, 163, 174, 51, 106, 251, 48, 73, 223]","[1394960, 1395683, 1396291, 1396875, 1397472, 1398080, 1398692, 1399301, 1399883, 1399983, 1400569, 1401279, 1401946, 1402451, 1403893, 1404460, 1405087, 1405629, 1406239, 1406815, 1407409, 1408033, 1408604, 1409173]","[1394521, 1395121, 1395721, 1396321, 1396921, 1397521, 1398121, 1398721, 1399313, 1399899, 1400498, 1401121, 1401717, 1402392, 1403909, 1404474, 1405103, 1405642, 1406253, 1406830, 1407424, 1408047, 1408618, 1409188]",77,OR,L,R,ITMSR,1.1
5,400,trial,0,70,70,70,trial,"['S', 'S', 'S', 'S', 'S', 'S', 'S', 'C', 'C', 'C', 'C', 'C', 'C', 'C', 'C', 'C', 'C', 'C', 'C', 'C', 'C', 'C', 'C', 'C']","[1415363, 1415662, 1416016, 1416376, 1416785, 1417170, 1417570, 1417988, 1418400, 1418796, 1419211, 1419619, 1420026, 1420419, 1420836, 1421228, 1421633, 1422045, 1422456, 1422836, 1423240, 1423613, 1423713, 1424017]","[1415401, 1415713, 1416036, 1416421, 1416805, 1417228, 1417619, 1418008, 1418456, 1418846, 1419258, 1419694, 1420104, 1420439, 1420856, 1421327, 1421731, 1422065, 1422550, 1422856, 1423334, 1423633, 1423733, 1424109]","[243, 37, 3, 214, 221, 244, 168, 146, 138, 63, 151, 137, 129, 36, 108, 82, 118, 42, 247, 160, 154, 86, 76, 139]","[1415366, 1415666, 1416019, 1416379, 1416790, 1417176, 1417573, 1417992, 1418404, 1418800, 1419214, 1419623, 1420030, 1420423, 1420840, 1421232, 1421637, 1422048, 1422460, 1422839, 1423245, 1423618, 1423713, 1424020]","[1414842, 1415242, 1415642, 1416042, 1416442, 1416842, 1417242, 1417643, 1418008, 1418420, 1418816, 1419231, 1419639, 1420046, 1420439, 1420856, 1421248, 1421654, 1422065, 1422476, 1422856, 1423260, 1423633, 1424037]",77,OR,L,R,ITMSR,1.1
0,400,trial,0,71,71,71,trial,"['S', 'S', 'S', 'S', 'S', 'S', 'S', 'C', 'C', 'C', 'C', 'C', 'C', 'C', 'C', 'C', 'C', 'C', 'C', 'C', 'C', 'C', 'C']","[1429680, 1430082, 1430550, 1431000, 1431428, 1431806, 1432230, 1432646, 1433064, 1433489, 1433877, 1434276, 1434693, 1435068, 1435451, 1435879, 1436293, 1436703, 1437125, 1437507, 1437947, 1438343, 1438759]","[1429716, 1430133, 1430601, 1431057, 1431483, 1431868, 1432284, 1432666, 1433133, 1433509, 1433974, 1434378, 1434788, 1435180, 1435572, 1435985, 1436419, 1436820, 1437241, 1437634, 1438041, 1438458, 1438868]","[51, 222, 237, 205, 154, 197, 85, 136, 105, 117, 180, 234, 166, 98, 173, 72, 58, 76, 66, 41, 49, 7, 246]","[1429686, 1430087, 1430554, 1431004, 1431432, 1431811, 1432235, 1432650, 1433068, 1433494, 1433882, 1434281, 1434697, 1435073, 1435455, 1435883, 1436297, 1436707, 1437129, 1437512, 1437952, 1438347, 1438765]","[1429480, 1429880, 1430280, 1430680, 1431080, 1431480, 1431880, 1432280, 1432666, 1433084, 1433509, 1433897, 1434296, 1434713, 1435088, 1435471, 1435899, 1436313, 1436723, 1437145, 1437528, 1437967, 1438363, 1438779]",77,OR,L,R,ITMSR,1.1
1,600,trial,0,72,72,72,trial,"['S', 'S', 'S', 'S', 'S', 'S', 'S', 'S', 'C', 'C', 'C', 'C', 'C', 'C', 'C', 'C', 'C', 'C', 'C', 'C', 'C', 'C', 'C', 'C', 'C', 'C', 'C', 'C', 'C']","[1444567, 1445021, 1445547, 1446093, 1446738, 1447328, 1447936, 1448546, 1449161, 1449771, 1450355, 1450963, 1451524, 1452151, 1452735, 1453331, 1453927, 1454507, 1454610, 1455093, 1455200, 1455840, 1456357, 1456457, 1456899, 1456999, 1457430, 1457532, 1458018]","[1444617, 1445092, 1445611, 1446158, 1446796, 1447395, 1448004, 1448621, 1449228, 1449867, 1450463, 1451049, 1451650, 1452264, 1452909, 1453458, 1454062, 1454530, 1454649, 1455120, 1455232, 1455937, 1456377, 1456501, 1456919, 1457019, 1457451, 1457552, 1458110]","[170, 24, 126, 97, 97, 126, 48, 187, 41, 60, 212, 254, 28, 177, 177, 130, 85, 180, 166, 103, 73, 146, 96, 134, 148, 140, 193, 100, 237]","[1444570, 1445026, 1445552, 1446098, 1446744, 1447332, 1447941, 1448551, 1449165, 1449776, 1450359, 1450969, 1451529, 1452155, 1452740, 1453336, 1453931, 1454510, 1454610, 1455096, 1455200, 1455910, 1456361, 1456457, 1456902, 1456999, 1457434, 1457532, 1458022]","[1444344, 1444944, 1445544, 1446145, 1446744, 1447344, 1447944, 1448544, 1449181, 1449791, 1450375, 1450983, 1451544, 1452171, 1452755, 1453351, 1453947, 1454527, 1455113, 1455860, 1456377, 1456919, 1457451, 1458038]",77,OR,L,R,ITMSR,1.1
3,600,trial,0,73,73,73,trial,"['S', 'S', 'S', 'S', 'S', 'S', 'S', 'S', 'C', 'C', 'C', 'C', 'C', 'C', 'C', 'C', 'C', 'C', 'C', 'C', 'C', 'C', 'C', 'C', 'C', 'C']","[1463633, 1464025, 1464582, 1465169, 1465752, 1466356, 1466938, 1467550, 1468176, 1468781, 1469364, 1469971, 1470579, 1471179, 1471785, 1472403, 1472997, 1473602, 1474165, 1474793, 1475362, 1475462, 1475998, 1476558, 1476658, 1477102]","[1463699, 1464140, 1464650, 1465236, 1465819, 1466420, 1467012, 1467625, 1468248, 1468860, 1469440, 1470041, 1470646, 1471275, 1471872, 1472485, 1473017, 1473683, 1474185, 1474893, 1475382, 1475482, 1476103, 1476578, 1476680, 1477220]","[97, 130, 181, 140, 28, 121, 108, 8, 63, 219, 48, 15, 7, 102, 51, 90, 70, 36, 142, 80, 130, 16, 78, 253, 69, 73]","[1463638, 1464030, 1464586, 1465174, 1465757, 1466360, 1466943, 1467556, 1468180, 1468787, 1469369, 1469977, 1470583, 1471183, 1471791, 1472407, 1473004, 1473606, 1474170, 1474797, 1475366, 1475462, 1476002, 1476561, 1476658, 1477108]","[1463435, 1464035, 1464635, 1465235, 1465835, 1466435, 1467035, 1467635, 1468196, 1468802, 1469384, 1469991, 1470599, 1471199, 1471805, 1472423, 1473017, 1473623, 1474185, 1474813, 1475382, 1476018, 1476578, 1477122]",77,OR,L,R,ITMSR,1.1
1,400,trial,0,74,74,74,trial,"['S', 'S', 'S', 'S', 'S', 'S', 'S', 'C', 'C', 'C', 'C', 'C', 'C', 'C', 'C', 'C', 'C', 'C', 'C', 'C', 'C', 'C', 'C', 'C']","[1482860, 1483267, 1483713, 1484199, 1484641, 1485040, 1485466, 1485887, 1486267, 1486699, 1487089, 1487514, 1487926, 1488330, 1488759, 1489146, 1489570, 1489955, 1490378, 1490776, 1491214, 1491606, 1491708, 1492039]","[1482913, 1483321, 1483774, 1484219, 1484661, 1485060, 1485486, 1485907, 1486287, 1486720, 1487109, 1487534, 1487946, 1488350, 1488779, 1489166, 1489590, 1489975, 1490398, 1490796, 1491234, 1491627, 1491728, 1492059]","[3, 25, 222, 198, 191, 43, 4, 249, 216, 65, 15, 39, 176, 1, 202, 9, 253, 247, 4, 212, 236, 252, 168, 238]","[1482865, 1483271, 1483716, 1484204, 1484645, 1485045, 1485469, 1485891, 1486270, 1486702, 1487092, 1487517, 1487929, 1488334, 1488762, 1489149, 1489573, 1489958, 1490382, 1490780, 1491217, 1491609, 1491708, 1492043]","[1482667, 1483066, 1483466, 1483866, 1484266, 1484666, 1485066, 1485466, 1485907, 1486287, 1486720, 1487109, 1487534, 1487946, 1488350, 1488779, 1489166, 1489590, 1489975, 1490398, 1490796, 1491234, 1491627, 1492059]",77,OR,L,R,ITMSR,1.1
1,600,trial,0,75,75,75,trial,"['S', 'S', 'S', 'S', 'S', 'S', 'S', 'S', 'C', 'C', 'C', 'C', 'C', 'C', 'C', 'C', 'C', 'C', 'C', 'C', 'C', 'C', 'C', 'C']","[1497809, 1498184, 1498825, 1499418, 1500033, 1500631, 1501195, 1501765, 1502340, 1502969, 1503556, 1504140, 1504724, 1505328, 1505914, 1506534, 1507093, 1507707, 1508304, 1508905, 1509479, 1510073, 1510658, 1511259]","[1497829, 1498258, 1498876, 1499474, 1500093, 1500683, 1501255, 1501813, 1502360, 1503026, 1503626, 1504197, 1504786, 1505412, 1505986, 1506625, 1507173, 1507783, 1508380, 1508942, 1509559, 1510170, 1510749, 1511356]","[154, 88, 178, 123, 231, 169, 92, 198, 222, 34, 60, 37, 70, 80, 67, 32, 6, 236, 233, 194, 240, 158, 195, 190]","[1497811, 1498190, 1498829, 1499423, 1500037, 1500633, 1501199, 1501772, 1502345, 1502973, 1503561, 1504168, 1504731, 1505375, 1505921, 1506539, 1507100, 1507713, 1508357, 1508912, 1509485, 1510118, 1510711, 1511329]","[1497611, 1498211, 1498811, 1499411, 1500011, 1500611, 1501211, 1501811, 1502360, 1502989, 1503576, 1504160, 1504744, 1505348, 1505934, 1506554, 1507113, 1507727, 1508324, 1508925, 1509499, 1510093, 1510678, 1511279]",77,OR,L,R,ITMSR,1.1
0,600,trial,0,76,76,76,trial,"['B', 'S', 'S', 'S', 'S', 'S', 'S', 'S', 'C', 'C', 'C', 'C', 'C', 'C', 'C', 'C', 'C', 'C', 'C', 'C', 'C', 'C', 'C', 'C']","[1516683, 1517201, 1517874, 1518514, 1519108, 1519719, 1520338, 1520958, 1521543, 1522168, 1522765, 1523353, 1523935, 1524551, 1525163, 1525792, 1527204, 1527802, 1528417, 1529038, 1529659, 1530262, 1530904, 1531484]","[1516864, 1517461, 1518074, 1518681, 1519335, 1519941, 1520565, 1521178, 1521796, 1522376, 1523014, 1523648, 1524221, 1524840, 1525466, 1526873, 1527439, 1528054, 1528636, 1529276, 1529897, 1530536, 1531134]","[144, 251, 159, 166, 243, 175, 219, 242, 249, 189, 229, 228, 209, 224, 227, 181, 121, 191, 224, 237, 141, 203, 217]","[1516759, 1517207, 1517879, 1518519, 1519113, 1519724, 1520343, 1520964, 1521548, 1522173, 1522769, 1523358, 1523940, 1524556, 1525167, 1525798, 1527209, 1527806, 1528421, 1529043, 1529664, 1530266, 1530909]","[1516694, 1517293, 1517893, 1518493, 1519093, 1519693, 1520293, 1520893, 1521563, 1522188, 1522785, 1523373, 1523955, 1524571, 1525183, 1525812, 1527224, 1527822, 1528437, 1529058, 1529679, 1530283, 1530925, 1531504]",77,OR,L,R,ITMSR,1.1
1,400,trial,0,77,77,77,trial,"['S', 'S', 'S', 'S', 'S', 'S', 'S', 'C', 'C', 'C', 'C', 'C', 'C', 'C', 'C', 'C', 'C', 'C', 'C', 'C', 'C', 'C', 'C']","[1537266, 1537640, 1538018, 1538409, 1538757, 1539189, 1539585, 1539998, 1540425, 1540825, 1541256, 1541659, 1542069, 1542466, 1542862, 1543249, 1543658, 1544039, 1544463, 1544871, 1545278, 1545680, 1546085]","[1537339, 1537660, 1538085, 1538478, 1538819, 1539251, 1539655, 1540066, 1540495, 1540914, 1541340, 1541718, 1542146, 1542545, 1542942, 1543311, 1543727, 1544116, 1544536, 1544946, 1545365, 1545747, 1546157]","[103, 101, 203, 178, 124, 152, 158, 127, 139, 54, 149, 57, 215, 123, 163, 114, 158, 42, 39, 80, 2, 89, 6]","[1537272, 1537645, 1538022, 1538414, 1538762, 1539194, 1539591, 1540004, 1540430, 1540832, 1541262, 1541664, 1542117, 1542472, 1542923, 1543255, 1543662, 1544043, 1544505, 1544877, 1545284, 1545686, 1546092]","[1536833, 1537233, 1537633, 1538033, 1538434, 1538834, 1539234, 1539634, 1540018, 1540445, 1540845, 1541276, 1541679, 1542089, 1542487, 1542882, 1543269, 1543678, 1544059, 1544483, 1544891, 1545298, 1545700, 1546105]",77,OR,L,R,ITMSR,1.1
1,400,trial,0,78,78,78,trial,"['S', 'S', 'S', 'S', 'S', 'S', 'S', 'S', 'C', 'C', 'C', 'C', 'C', 'C', 'C', 'C', 'C', 'C', 'C', 'C', 'C', 'C', 'C', 'C']","[1570553, 1570948, 1571238, 1571586, 1571970, 1572382, 1572787, 1573207, 1573608, 1574028, 1574434, 1574847, 1575243, 1575670, 1576081, 1576489, 1576875, 1577291, 1577677, 1578110, 1578504, 1578927, 1579337, 1579752]","[1570593, 1570995, 1571279, 1571640, 1572029, 1572450, 1572862, 1573273, 1573683, 1574111, 1574519, 1574919, 1575323, 1575738, 1576153, 1576578, 1576943, 1577372, 1577776, 1578186, 1578609, 1579037, 1579439, 1579833]","[62, 31, 117, 208, 204, 209, 219, 203, 240, 113, 112, 176, 191, 187, 100, 123, 167, 129, 123, 153, 134, 65, 95, 82]","[1570562, 1570953, 1571244, 1571591, 1571974, 1572388, 1572792, 1573211, 1573613, 1574033, 1574439, 1574852, 1575247, 1575674, 1576086, 1576494, 1576879, 1577295, 1577682, 1578115, 1578508, 1578932, 1579342, 1579757]","[1570378, 1570778, 1571178, 1571578, 1571978, 1572378, 1572779, 1573178, 1573628, 1574048, 1574454, 1574867, 1575263, 1575690, 1576101, 1576509, 1576895, 1577311, 1577697, 1578130, 1578524, 1578947, 1579357, 1579772]",77,OR,L,R,ITMSR,1.1
1,600,trial,0,79,79,79,trial,"['S', 'S', 'S', 'S', 'S', 'S', 'S', 'S', 'C', 'C', 'C', 'C', 'C', 'C', 'C', 'C', 'C', 'C', 'C', 'C', 'C', 'C', 'C', 'C']","[1585317, 1585612, 1586226, 1586816, 1587396, 1588049, 1588620, 1589191, 1589843, 1590448, 1591041, 1591659, 1592290, 1592884, 1593474, 1594064, 1594686, 1595296, 1595901, 1596488, 1597125, 1597705, 1598277, 1598842]","[1585402, 1585739, 1586300, 1586893, 1587481, 1588119, 1588640, 1589305, 1589918, 1590539, 1591119, 1591738, 1592351, 1592977, 1593550, 1594145, 1594762, 1595386, 1595969, 1596587, 1597194, 1597800, 1598363, 1598935]","[92, 95, 134, 163, 51, 173, 143, 162, 142, 117, 137, 227, 180, 215, 192, 193, 113, 179, 156, 214, 193, 106, 180, 252]","[1585323, 1585708, 1586230, 1586857, 1587400, 1588056, 1588624, 1589273, 1589848, 1590500, 1591046, 1591665, 1592294, 1592889, 1593478, 1594071, 1594691, 1595301, 1595906, 1596493, 1597129, 1597709, 1598281, 1598848]","[1585076, 1585676, 1586276, 1586876, 1587476, 1588076, 1588676, 1589276, 1589863, 1590468, 1591061, 1591680, 1592310, 1592904, 1593494, 1594084, 1594706, 1595316, 1595921, 1596508, 1597145, 1597725, 1598297, 1598862]",77,OR,L,R,ITMSR,1.1
3,600,trial,0,80,80,80,trial,"['S', 'S', 'S', 'S', 'S', 'S', 'S', 'C', 'C', 'C', 'C', 'C', 'C', 'C', 'C', 'C', 'C', 'C', 'C', 'C', 'C', 'C', 'C']","[1604934, 1605628, 1606293, 1606897, 1607490, 1608099, 1608688, 1609310, 1609933, 1610514, 1611101, 1611677, 1612272, 1612873, 1613471, 1614077, 1614679, 1615250, 1615831, 1616436, 1617041, 1617647, 1618181]","[1605005, 1605712, 1606371, 1606978, 1607580, 1608181, 1608793, 1609417, 1610043, 1610640, 1611211, 1611748, 1612353, 1612960, 1613558, 1614169, 1614781, 1615342, 1615931, 1616521, 1617146, 1617746, 1618301]","[50, 90, 165, 71, 197, 148, 160, 132, 140, 119, 132, 115, 68, 31, 89, 20, 68, 125, 216, 38, 113, 158, 104]","[1604941, 1605634, 1606298, 1606901, 1607496, 1608104, 1608692, 1609315, 1609938, 1610518, 1611106, 1611682, 1612278, 1612878, 1613476, 1614083, 1614744, 1615255, 1615836, 1616441, 1617100, 1617651, 1618187]","[1604504, 1605104, 1605704, 1606304, 1606904, 1607504, 1608104, 1608705, 1609330, 1609953, 1610534, 1611121, 1611697, 1612292, 1612893, 1613491, 1614097, 1614699, 1615270, 1615851, 1616456, 1617061, 1617667, 1618201]",77,OR,L,R,ITMSR,1.1
1,400,trial,0,81,81,81,trial,"['S', 'S', 'S', 'S', 'S', 'S', 'S', 'C', 'C', 'C', 'C', 'C', 'C', 'C', 'C', 'C', 'C', 'C', 'C', 'C', 'C', 'C', 'C']","[1624018, 1624465, 1624914, 1625318, 1625719, 1626101, 1626488, 1626898, 1627300, 1627699, 1628094, 1628492, 1628865, 1629277, 1629684, 1630104, 1630526, 1630936, 1631314, 1631751, 1632155, 1632578, 1632993]","[1624092, 1624557, 1624986, 1625390, 1625800, 1626174, 1626585, 1626976, 1627392, 1627762, 1628176, 1628562, 1628978, 1629349, 1629761, 1630169, 1630601, 1631021, 1631418, 1631808, 1632241, 1632641, 1633063]","[70, 20, 8, 74, 94, 38, 171, 233, 64, 169, 167, 113, 88, 147, 119, 200, 190, 27, 111, 70, 118, 227, 101]","[1624020, 1624471, 1624921, 1625323, 1625726, 1626107, 1626494, 1626904, 1627308, 1627704, 1628100, 1628498, 1628935, 1629319, 1629690, 1630110, 1630531, 1630942, 1631321, 1631799, 1632160, 1632584, 1633035]","[1623726, 1624126, 1624526, 1624926, 1625326, 1625726, 1626126, 1626526, 1626918, 1627320, 1627719, 1628114, 1628512, 1628886, 1629297, 1629704, 1630125, 1630546, 1630956, 1631334, 1631771, 1632175, 1632599, 1633013]",77,OR,L,R,ITMSR,1.1
2,600,trial,0,82,82,82,trial,"['S', 'S', 'S', 'S', 'S', 'S', 'S', 'C', 'C', 'C', 'C', 'C', 'C', 'C', 'C', 'C', 'C', 'C', 'C', 'C', 'C', 'C', 'C', 'C', 'C']","[1638956, 1639682, 1640253, 1640865, 1641502, 1642085, 1642660, 1643278, 1643874, 1644464, 1645017, 1645587, 1645700, 1646088, 1646188, 1646708, 1647271, 1647859, 1648441, 1649080, 1649668, 1650283, 1650872, 1651464, 1652059]","[1639020, 1639739, 1640321, 1640885, 1641603, 1642170, 1642769, 1643363, 1643974, 1644594, 1645127, 1645620, 1645755, 1646108, 1646251, 1646815, 1647374, 1647945, 1648522, 1649164, 1649754, 1650369, 1650958, 1651568, 1652144]","[247, 51, 187, 148, 130, 147, 158, 118, 223, 4, 0, 149, 158, 130, 245, 235, 4, 20, 47, 108, 68, 108, 60, 59, 82]","[1638963, 1639688, 1640259, 1640871, 1641509, 1642149, 1642733, 1643324, 1643911, 1644556, 1645077, 1645594, 1645702, 1646092, 1646202, 1646761, 1647279, 1647866, 1648483, 1649085, 1649714, 1650288, 1650918, 1651521, 1652066]","[1638507, 1639107, 1639707, 1640307, 1640907, 1641507, 1642107, 1642707, 1643298, 1643894, 1644484, 1645037, 1645607, 1646108, 1646728, 1647291, 1647879, 1648461, 1649100, 1649688, 1650304, 1650892, 1651484, 1652079]",77,OR,L,R,ITMSR,1.1
4,600,trial,0,83,83,83,trial,"['B', 'S', 'S', 'S', 'S', 'S', 'S', 'S', 'C', 'C', 'C', 'C', 'C', 'C', 'C', 'C', 'C', 'C', 'C', 'C', 'C', 'C', 'C', 'C']","[1657448, 1657974, 1658615, 1659219, 1659846, 1660485, 1661049, 1661643, 1662248, 1662879, 1663456, 1664055, 1664650, 1665260, 1665861, 1666460, 1667070, 1667699, 1668310, 1668929, 1669534, 1670141, 1670778, 1671349]","[1657570, 1658215, 1658819, 1659399, 1660010, 1660661, 1661217, 1661820, 1662434, 1663011, 1663628, 1664244, 1664886, 1665548, 1666135, 1666737, 1667344, 1667944, 1668580, 1669175, 1669804, 1670439, 1671027]","[31, 100, 178, 175, 131, 99, 157, 179, 170, 161, 61, 148, 152, 156, 111, 102, 114, 66, 119, 111, 101, 49, 54]","[1657518, 1657979, 1658620, 1659224, 1659851, 1660490, 1661054, 1661648, 1662254, 1662884, 1663462, 1664060, 1664655, 1665265, 1665866, 1666465, 1667076, 1667703, 1668315, 1668933, 1669538, 1670147, 1670784]","[1657459, 1658058, 1658658, 1659258, 1659858, 1660459, 1661058, 1661658, 1662268, 1662899, 1663476, 1664075, 1664670, 1665281, 1665881, 1666480, 1667090, 1667719, 1668330, 1668950, 1669554, 1670161, 1670798, 1671369]",77,OR,L,R,ITMSR,1.1
5,400,trial,0,84,84,84,trial,"['S', 'S', 'S', 'S', 'S', 'S', 'S', 'C', 'C', 'C', 'C', 'C', 'C', 'C', 'C', 'C', 'C', 'C', 'C', 'C', 'C', 'C', 'C']","[1677370, 1677765, 1678139, 1678518, 1678868, 1679260, 1679704, 1680080, 1680483, 1680860, 1681243, 1681637, 1682010, 1682399, 1682782, 1683154, 1683540, 1683932, 1684317, 1684725, 1685079, 1685450, 1685860]","[1677465, 1677834, 1678193, 1678590, 1678941, 1679344, 1679763, 1680193, 1680536, 1680929, 1681312, 1681716, 1682092, 1682484, 1682843, 1683238, 1683618, 1683994, 1684396, 1684789, 1685163, 1685536, 1685948]","[128, 40, 54, 74, 49, 141, 55, 238, 80, 141, 112, 12, 217, 224, 158, 240, 54, 199, 28, 47, 15, 176, 195]","[1677424, 1677771, 1678144, 1678524, 1678872, 1679264, 1679710, 1680140, 1680487, 1680866, 1681281, 1681644, 1682015, 1682441, 1682786, 1683162, 1683546, 1683937, 1684322, 1684733, 1685083, 1685458, 1685901]","[1676971, 1677370, 1677770, 1678170, 1678570, 1678970, 1679370, 1679770, 1680100, 1680503, 1680880, 1681263, 1681657, 1682030, 1682419, 1682802, 1683174, 1683560, 1683952, 1684337, 1684745, 1685099, 1685470, 1685880]",77,OR,L,R,ITMSR,1.1
5,600,trial,0,85,85,85,trial,"['S', 'S', 'S', 'S', 'S', 'S', 'S', 'S', 'C', 'C', 'C', 'C', 'C', 'C', 'C', 'C', 'C', 'C', 'C', 'C', 'C', 'C', 'C', 'C', 'C']","[1691821, 1692225, 1692817, 1693395, 1693984, 1694632, 1695216, 1695824, 1696482, 1697101, 1697661, 1698282, 1698857, 1699434, 1699534, 1700027, 1700602, 1701200, 1701788, 1702383, 1702988, 1703524, 1704105, 1704762, 1705388]","[1691888, 1692346, 1692891, 1693486, 1694076, 1694715, 1695318, 1695911, 1696568, 1697198, 1697777, 1698362, 1698960, 1699454, 1699554, 1700136, 1700712, 1701292, 1701880, 1702502, 1703073, 1703651, 1704219, 1704848, 1705475]","[2, 189, 92, 1, 80, 31, 249, 61, 18, 226, 221, 234, 225, 150, 67, 12, 188, 174, 241, 216, 4, 181, 43, 247, 239]","[1691827, 1692276, 1692822, 1693401, 1693991, 1694638, 1695264, 1695828, 1696524, 1697153, 1697737, 1698333, 1698920, 1699438, 1699534, 1700094, 1700683, 1701208, 1701847, 1702454, 1703037, 1703578, 1704167, 1704769, 1705451]","[1691650, 1692250, 1692850, 1693450, 1694050, 1694650, 1695250, 1695850, 1696502, 1697121, 1697681, 1698302, 1698877, 1699454, 1700047, 1700622, 1701220, 1701808, 1702403, 1703008, 1703544, 1704125, 1704782, 1705408]",77,OR,L,R,ITMSR,1.1
5,400,trial,0,86,86,86,trial,"['S', 'S', 'S', 'S', 'S', 'S', 'S', 'C', 'C', 'C', 'C', 'C', 'C', 'C', 'C', 'C', 'C', 'C', 'C', 'C', 'C', 'C', 'C']","[1711505, 1711852, 1712211, 1712592, 1712976, 1713374, 1713767, 1714178, 1714606, 1715000, 1715426, 1715828, 1716245, 1716625, 1717025, 1717426, 1717820, 1718228, 1718671, 1719067, 1719485, 1719877, 1720329]","[1711554, 1711924, 1712286, 1712675, 1713030, 1713445, 1713843, 1714232, 1714664, 1715091, 1715514, 1715930, 1716337, 1716740, 1717138, 1717525, 1717951, 1718331, 1718767, 1719178, 1719596, 1720002, 1720451]","[18, 42, 29, 77, 63, 80, 12, 3, 23, 8, 9, 4, 224, 90, 234, 6, 186, 9, 54, 98, 87, 20, 87]","[1711509, 1711858, 1712218, 1712600, 1712983, 1713379, 1713772, 1714184, 1714612, 1715005, 1715432, 1715834, 1716251, 1716630, 1717031, 1717431, 1717826, 1718235, 1718676, 1719072, 1719491, 1719883, 1720334]","[1711000, 1711399, 1711799, 1712199, 1712600, 1713000, 1713400, 1713800, 1714198, 1714626, 1715020, 1715446, 1715848, 1716265, 1716645, 1717045, 1717446, 1717840, 1718248, 1718691, 1719087, 1719505, 1719897, 1720349]",77,OR,L,R,ITMSR,1.1
3,400,trial,0,87,87,87,trial,"['S', 'S', 'S', 'S', 'S', 'S', 'S', 'C', 'C', 'C', 'C', 'C', 'C', 'C', 'C', 'C', 'C', 'C', 'C', 'C', 'C', 'C', 'C']","[1726120, 1726483, 1726822, 1727201, 1727571, 1728020, 1728420, 1728835, 1729220, 1729629, 1730013, 1730440, 1730822, 1731236, 1731624, 1732023, 1732426, 1732827, 1733206, 1733618, 1733981, 1734376, 1734772]","[1726179, 1726527, 1726882, 1727266, 1727662, 1728089, 1728496, 1728910, 1729306, 1729703, 1730099, 1730513, 1730910, 1731310, 1731709, 1732104, 1732504, 1732915, 1733301, 1733694, 1734069, 1734462, 1734836]","[115, 160, 32, 194, 202, 30, 95, 37, 250, 168, 218, 249, 23, 25, 56, 17, 61, 151, 135, 208, 59, 208, 253]","[1726126, 1726488, 1726827, 1727245, 1727578, 1728026, 1728427, 1728840, 1729227, 1729634, 1730019, 1730445, 1730827, 1731243, 1731631, 1732028, 1732433, 1732833, 1733262, 1733623, 1733987, 1734381, 1734779]","[1725662, 1726062, 1726462, 1726862, 1727262, 1727662, 1728062, 1728462, 1728856, 1729240, 1729649, 1730033, 1730460, 1730842, 1731256, 1731644, 1732043, 1732446, 1732847, 1733226, 1733638, 1734001, 1734396, 1734792]",77,OR,L,R,ITMSR,1.1
