pitch,ioi,event,.thisRepN,.thisTrialN,.thisN,.thisIndex,event,tap_types,tap_times,release_times,peak_pressures,peak_times,tone_times,subject,experimenter,register,handedness,experiment,version,
,,SPR,0,-1,-1,0,SPR,"['P', 'P', 'P', 'P', 'P', 'P', 'P', 'P', 'P', 'P', 'P', 'P', 'P', 'P', 'P', 'P', 'P', 'P', 'P', 'P', 'P', 'P', 'P', 'P', 'P', 'P', 'P', 'P', 'P', 'P']","[11381, 12178, 14268, 14474, 14664, 14888, 15120, 15342, 15583, 15806, 16033, 16264, 16502, 16745, 16999, 17228, 17473, 17702, 17937, 18185, 18426, 18662, 18899, 19137, 19379, 19609, 19850, 20075, 20317, 20670]","[11493, 14109, 14343, 14546, 14746, 14984, 15204, 15428, 15661, 15892, 16120, 16349, 16593, 16837, 17070, 17307, 17566, 17782, 18015, 18268, 18504, 18756, 18974, 19213, 19454, 19679, 19915, 20152, 20500, 20780]","[127, 201, 181, 180, 163, 151, 124, 122, 126, 133, 134, 144, 143, 150, 123, 138, 143, 131, 145, 152, 142, 143, 122, 154, 130, 139, 140, 142, 148, 154]","[11386, 13133, 14271, 14477, 14667, 14892, 15124, 15346, 15587, 15810, 16037, 16268, 16506, 16749, 17003, 17232, 17477, 17707, 17941, 18188, 18430, 18666, 18905, 19141, 19383, 19614, 19854, 20079, 20321, 20674]",,82,EM,L,R,ITMSR,1.1,
4,500,practice,0,0,0,0,practice,"['S', 'S', 'S', 'S', 'S', 'S', 'S', 'S', 'S', 'C', 'C', 'C', 'C', 'C', 'C', 'C', 'C', 'C', 'C', 'C', 'C', 'C', 'C', 'C', 'C', 'C']","[124183, 124283, 124818, 125196, 125682, 126115, 126566, 127065, 127545, 128033, 128429, 128803, 129097, 129386, 129623, 130107, 130540, 130924, 131294, 131694, 132108, 133027, 133422, 133799, 134153, 134492]","[124203, 124378, 124840, 125352, 125800, 126265, 126782, 127242, 127738, 128195, 128578, 128911, 129231, 129470, 129723, 130249, 130675, 131063, 131433, 131821, 132225, 133170, 133559, 133912, 134260, 134586]","[176, 141, 47, 81, 112, 125, 100, 82, 114, 94, 95, 117, 99, 93, 95, 112, 102, 103, 92, 92, 46, 86, 94, 105, 64, 44]","[124186, 124335, 124822, 125282, 125686, 126118, 126571, 127070, 127550, 128039, 128435, 128808, 129102, 129393, 129630, 130113, 130545, 130929, 131299, 131698, 132112, 133036, 133428, 133804, 134161, 134498]","[124125, 124624, 125124, 125624, 126125, 126625, 127125, 127625, 128053, 128449, 128823, 129117, 129406, 130127, 130561, 130945, 131314, 131714, 132128, 133047, 133442, 133819, 134173, 134512]",82,EM,L,R,ITMSR,1.1,
2,500,practice,0,1,1,1,practice,"['S', 'S', 'S', 'S', 'S', 'S', 'S', 'S', 'C', 'C', 'C', 'C', 'C', 'C', 'C', 'C', 'C', 'C', 'C', 'C', 'C', 'C', 'C', 'C', 'C']","[140573, 141128, 141587, 142091, 142510, 142953, 143344, 143772, 144182, 144542, 144877, 145176, 145464, 145728, 146094, 146446, 146764, 147083, 147410, 150113, 150590, 151152, 151639, 152137, 152655]","[140707, 141353, 141791, 142264, 142683, 143119, 143532, 143961, 144361, 144696, 145009, 145291, 145568, 145832, 146257, 146595, 146919, 147212, 147570, 150320, 150809, 151345, 151812, 152332, 152866]","[118, 127, 165, 153, 149, 168, 144, 137, 109, 103, 58, 11, 11, 248, 92, 97, 89, 31, 84, 185, 135, 146, 139, 155, 116]","[140578, 141217, 141677, 142167, 142588, 143029, 143440, 143865, 144276, 144548, 144884, 145184, 145472, 145734, 146191, 146526, 146771, 147090, 147417, 150194, 150683, 151251, 151641, 152140, 152658]","[140290, 140788, 141288, 141788, 142288, 142788, 143288, 143789, 144202, 144562, 144898, 145197, 145484, 146114, 146466, 146784, 147103, 147430, 150133, 150610, 151172, 151659, 152157, 152675]",82,EM,L,R,ITMSR,1.1,
5,500,practice,0,2,2,2,practice,"['S', 'S', 'S', 'S', 'S', 'S', 'S', 'C', 'C', 'C', 'C', 'C', 'C', 'C', 'C', 'C', 'C', 'C', 'C', 'C', 'C', 'C', 'C']","[158304, 158904, 159414, 159937, 160445, 160954, 161481, 162007, 162490, 162976, 163470, 163992, 164458, 164948, 165454, 165948, 166450, 166945, 167396, 167888, 168345, 168841, 169336]","[158593, 159141, 159677, 160182, 160699, 161208, 161722, 162217, 162692, 163182, 163692, 164201, 164649, 165139, 165652, 166162, 166625, 167117, 167610, 168048, 168551, 169033, 169526]","[116, 117, 131, 118, 125, 101, 115, 119, 127, 102, 90, 85, 86, 100, 93, 119, 80, 79, 93, 75, 81, 75, 106]","[158308, 159001, 159506, 159940, 160448, 161053, 161593, 162116, 162493, 162980, 163473, 163996, 164540, 164953, 165458, 165952, 166454, 166949, 167400, 167892, 168348, 168845, 169340]","[158019, 158519, 159020, 159519, 160019, 160519, 161019, 161519, 162027, 162510, 162996, 163490, 164013, 164478, 164968, 165474, 165968, 166470, 166965, 167416, 167908, 168365, 168861, 169356]",82,EM,L,R,ITMSR,1.1,
1,500,practice,0,3,3,3,practice,"['S', 'S', 'S', 'S', 'S', 'S', 'S', 'C', 'C', 'C', 'C', 'C', 'C', 'C', 'C', 'C', 'C', 'C', 'C', 'C', 'C', 'C', 'C']","[175108, 175948, 176518, 177103, 177582, 178069, 178576, 179055, 179569, 180073, 180579, 181059, 181581, 182056, 182530, 183000, 183488, 183997, 184459, 184913, 185434, 185915, 186388]","[175389, 176149, 176714, 177262, 177751, 178198, 178692, 179145, 179685, 180199, 180685, 181189, 181706, 182197, 182653, 183121, 183593, 184117, 184566, 185051, 185578, 186079, 186527]","[121, 98, 115, 65, 60, 33, 51, 20, 49, 63, 40, 47, 59, 38, 31, 18, 1, 43, 43, 48, 55, 60, 29]","[175202, 175952, 176521, 177108, 177661, 178073, 178632, 179093, 179625, 180136, 180626, 181116, 181645, 182126, 182587, 183052, 183535, 184060, 184508, 184975, 185496, 185987, 186458]","[175108, 175608, 176108, 176608, 177108, 177608, 178108, 178608, 179075, 179589, 180093, 180599, 181080, 181601, 182076, 182550, 183020, 183508, 184017, 184479, 184933, 185454, 185935, 186408]",82,EM,L,R,ITMSR,1.1,
3,500,practice,0,4,4,4,practice,"['B', 'S', 'S', 'S', 'S', 'S', 'S', 'S', 'C', 'C', 'C', 'C', 'C', 'C', 'C', 'C', 'C', 'C', 'C', 'C', 'C', 'C', 'C', 'C']","[192077, 192504, 193040, 193524, 194018, 194510, 194990, 195465, 195984, 196430, 196946, 197414, 197929, 198404, 198900, 199359, 199836, 200314, 200778, 201239, 201729, 202187, 202627, 203103]","[192114, 192649, 193181, 193667, 194165, 194651, 195126, 195595, 196100, 196564, 197083, 197565, 198061, 198541, 199017, 199479, 199989, 200445, 200909, 201361, 201825, 202321, 202743, 203229]","[252, 76, 42, 5, 32, 244, 42, 31, 1, 235, 243, 16, 224, 12, 32, 244, 15, 1, 7, 179, 10, 4, 224, 0]","[192077, 192507, 193045, 193599, 194023, 194514, 194994, 195469, 195989, 196503, 196952, 197419, 197934, 198408, 198904, 199364, 199840, 200318, 200782, 201245, 201733, 202191, 202631, 203107]","[192090, 192590, 193090, 193590, 194091, 194590, 195090, 195590, 196004, 196450, 196966, 197434, 197949, 198424, 198920, 199379, 199856, 200334, 200798, 201260, 201749, 202207, 202647, 203123]",82,EM,L,R,ITMSR,1.1,
0,500,practice,0,5,5,5,practice,"['S', 'S', 'S', 'S', 'S', 'S', 'S', 'C', 'C', 'C', 'C', 'C', 'C', 'C', 'C', 'C', 'C', 'C', 'C', 'C', 'C', 'C', 'C']","[208864, 209429, 209985, 210507, 211033, 211518, 212026, 212570, 213040, 213555, 214007, 214522, 214995, 215455, 215946, 216420, 216905, 217392, 217883, 218388, 218869, 219347, 219824]","[209009, 209548, 210086, 210618, 211144, 211640, 212156, 212685, 213191, 213704, 214178, 214682, 215135, 215606, 216072, 216554, 217018, 217498, 218005, 218496, 218985, 219463, 219950]","[100, 77, 252, 29, 252, 41, 33, 39, 53, 22, 49, 44, 61, 36, 37, 232, 252, 188, 253, 215, 217, 7, 246]","[208867, 209432, 209989, 210511, 211038, 211522, 212030, 212574, 213044, 213559, 214011, 214526, 215000, 215459, 215949, 216425, 216909, 217396, 217887, 218393, 218873, 219351, 219828]","[208538, 209038, 209538, 210038, 210538, 211038, 211538, 212038, 212590, 213060, 213575, 214027, 214542, 215015, 215475, 215966, 216440, 216925, 217412, 217903, 218408, 218889, 219367, 219844]",82,EM,L,R,ITMSR,1.1,
0,600,trial,0,6,6,6,trial,"['B', 'S', 'S', 'S', 'S', 'S', 'S', 'S', 'C', 'C', 'C', 'C', 'C', 'C', 'C', 'C', 'C', 'C', 'C', 'C', 'C', 'C', 'C', 'C']","[318379, 318763, 319369, 319972, 320553, 321155, 321730, 322351, 322955, 323636, 324312, 324956, 325526, 326151, 326722, 327248, 327824, 328389, 328953, 329496, 330038, 330614, 331164, 331752]","[318408, 318940, 319565, 320155, 320735, 321335, 321909, 322515, 323096, 323843, 324524, 325182, 325758, 326401, 326939, 327471, 328066, 328633, 329212, 329700, 330270, 330820, 331337, 331926]","[244, 135, 113, 114, 86, 71, 88, 83, 90, 45, 58, 251, 21, 29, 17, 24, 51, 227, 69, 11, 21, 26, 31, 34]","[318379, 318766, 319373, 319976, 320559, 321159, 321735, 322355, 322959, 323641, 324316, 324962, 325531, 326156, 326727, 327254, 327829, 328394, 328958, 329501, 330043, 330619, 331168, 331756]","[318390, 318989, 319589, 320189, 320789, 321389, 321989, 322589, 322975, 323656, 324332, 324976, 325547, 326171, 326743, 327268, 327844, 328409, 328973, 329517, 330058, 330634, 331184, 331772]",82,EM,L,R,ITMSR,1.1,
5,600,trial,0,7,7,7,trial,"['S', 'S', 'S', 'S', 'S', 'S', 'S', 'C', 'C', 'C', 'C', 'C', 'C', 'C', 'C', 'C', 'C', 'C', 'C', 'C', 'C', 'C', 'C']","[337666, 338321, 338960, 339639, 340329, 341045, 341677, 342500, 343209, 343908, 344578, 345211, 345829, 346441, 347047, 347645, 348269, 348848, 349449, 350048, 350614, 351185, 351735]","[337800, 338467, 339142, 339778, 340484, 341200, 341834, 342680, 343418, 344107, 344791, 345420, 346063, 346636, 347267, 347867, 348496, 349093, 349656, 350251, 350836, 351393, 351978]","[132, 129, 130, 48, 121, 131, 147, 129, 87, 69, 118, 126, 136, 99, 19, 122, 96, 124, 110, 81, 99, 131, 131]","[337670, 338325, 338963, 339643, 340332, 341049, 341680, 342503, 343214, 343912, 344581, 345216, 345832, 346445, 347052, 347650, 348273, 348852, 349453, 350051, 350618, 351188, 351738]","[337270, 337870, 338470, 339070, 339671, 340270, 340870, 341470, 342520, 343229, 343928, 344598, 345231, 345849, 346461, 347067, 347665, 348290, 348868, 349469, 350068, 350635, 351205, 351755]",82,EM,L,R,ITMSR,1.1,
2,600,trial,0,8,8,8,trial,"['S', 'S', 'S', 'S', 'S', 'S', 'S', 'S', 'C', 'C', 'C', 'C', 'C', 'C', 'C', 'C', 'C', 'C', 'C', 'C', 'C', 'C', 'C', 'C']","[357201, 357655, 358219, 358810, 359428, 360009, 360605, 361175, 361799, 362373, 362999, 363590, 364145, 364721, 365312, 365922, 366509, 367090, 367688, 368280, 368820, 369442, 370041, 370607]","[357352, 357871, 358429, 359033, 359641, 360214, 360832, 361452, 362036, 362626, 363238, 363814, 364357, 364963, 365539, 366142, 366725, 367315, 367908, 368489, 369075, 369708, 370286, 370863]","[138, 154, 152, 120, 95, 113, 146, 150, 121, 119, 102, 106, 90, 91, 119, 88, 72, 85, 89, 62, 93, 96, 73, 88]","[357204, 357658, 358222, 358814, 359432, 360013, 360609, 361178, 361803, 362376, 363002, 363593, 364149, 364725, 365315, 365925, 366513, 367093, 367692, 368284, 368823, 369445, 370045, 370610]","[357078, 357677, 358277, 358877, 359477, 360077, 360677, 361277, 361819, 362393, 363019, 363610, 364165, 364741, 365332, 365942, 366529, 367110, 367708, 368301, 368840, 369462, 370061, 370627]",82,EM,L,R,ITMSR,1.1,
1,600,trial,0,9,9,9,trial,"['B', 'S', 'S', 'S', 'S', 'S', 'S', 'S', 'C', 'C', 'C', 'C', 'C', 'C', 'C', 'C', 'C', 'C', 'C', 'C', 'C', 'C', 'C', 'C']","[376088, 376675, 377266, 377860, 378498, 379062, 379665, 380241, 380825, 381407, 381982, 382552, 383140, 383745, 384342, 384928, 385519, 386095, 386631, 387243, 387825, 388376, 388968, 389539]","[376292, 376902, 377511, 378089, 378689, 379331, 379940, 380506, 381078, 381646, 382220, 382800, 383422, 384021, 384612, 385213, 385767, 386327, 386887, 387502, 388109, 388695, 389234]","[22, 103, 90, 91, 38, 98, 119, 119, 113, 125, 115, 126, 80, 113, 119, 116, 89, 133, 105, 109, 125, 93, 100]","[376167, 376679, 377269, 377863, 378502, 379065, 379668, 380244, 380828, 381410, 381985, 382555, 383144, 383748, 384345, 384932, 385647, 386098, 386634, 387247, 387829, 388381, 388973]","[376100, 376700, 377300, 377901, 378501, 379101, 379701, 380301, 380845, 381427, 382002, 382572, 383160, 383765, 384362, 384948, 385539, 386115, 386651, 387263, 387845, 388397, 388988, 389559]",82,EM,L,R,ITMSR,1.1,
0,600,trial,0,10,10,10,trial,"['B', 'S', 'S', 'S', 'S', 'S', 'S', 'S', 'S', 'S', 'S', 'S', 'C', 'C', 'C', 'C', 'C', 'C', 'C', 'C', 'C', 'C', 'C', 'C', 'C', 'C', 'C', 'C']","[395196, 395528, 395955, 396322, 396749, 397112, 397518, 397912, 398307, 398655, 399071, 399425, 399780, 400163, 400537, 400903, 401287, 401634, 401965, 402255, 402582, 402925, 403233, 403569, 403945, 404281, 404630, 404975]","[395353, 395736, 396146, 396549, 396909, 397331, 397705, 398115, 398492, 398869, 399241, 399596, 399953, 400358, 400699, 401098, 401449, 401843, 402121, 402436, 402754, 403092, 403382, 403718, 404085, 404470, 404759, 405135]","[3, 252, 210, 182, 200, 217, 145, 135, 108, 140, 154, 64, 59, 27, 96, 14, 72, 124, 82, 243, 77, 90, 147, 3, 157, 100, 158, 4]","[395247, 395656, 396052, 396459, 396755, 397240, 397613, 398016, 398412, 398785, 399077, 399524, 399787, 400263, 400543, 400911, 401294, 401640, 401971, 402354, 402674, 402933, 403238, 403646, 403952, 404287, 404636, 405065]","[395206, 395806, 396406, 397006, 397606, 398206, 398807, 399406, 399800, 400183, 400557, 400923, 401307, 401654, 401985, 402275, 402603, 402946, 403253, 403589, 403965, 404301, 404651, 404995]",82,EM,L,R,ITMSR,1.1,
5,400,trial,0,11,11,11,trial,"['S', 'S', 'S', 'S', 'S', 'S', 'S', 'C', 'C', 'C', 'C', 'C', 'C', 'C', 'C', 'C', 'C', 'C', 'C', 'C', 'C', 'C', 'C']","[410458, 410995, 411467, 411932, 412346, 412767, 413164, 413611, 414017, 414419, 414816, 415200, 415594, 415981, 416381, 416760, 417129, 417495, 417891, 418296, 418666, 419064, 419471]","[410642, 411150, 411631, 412062, 412473, 412860, 413286, 413720, 414144, 414539, 414930, 415314, 415720, 416108, 416491, 416878, 417269, 417630, 417994, 418407, 418787, 419172, 419579]","[121, 116, 96, 117, 118, 108, 129, 64, 102, 115, 100, 108, 118, 110, 126, 123, 117, 111, 115, 129, 120, 110, 104]","[410461, 410998, 411471, 411936, 412350, 412771, 413168, 413615, 414021, 414424, 414820, 415204, 415598, 415985, 416385, 416763, 417132, 417499, 417895, 418299, 418670, 419068, 419474]","[410384, 410784, 411184, 411584, 411984, 412384, 412784, 413185, 413631, 414038, 414439, 414836, 415220, 415614, 416002, 416401, 416780, 417149, 417515, 417911, 418316, 418686, 419084, 419491]",82,EM,L,R,ITMSR,1.1,
4,400,trial,0,12,12,12,trial,"['B', 'S', 'S', 'S', 'S', 'S', 'S', 'S', 'C', 'C', 'C', 'C', 'C', 'C', 'C', 'C', 'C', 'C', 'C', 'C', 'C', 'C', 'C', 'C']","[424843, 425170, 425610, 425982, 426384, 426791, 427176, 427557, 427985, 428370, 428792, 429165, 429588, 429958, 430348, 430716, 431134, 431476, 431850, 432227, 432585, 432971, 433377, 433757]","[424863, 425302, 425718, 426121, 426506, 426897, 427290, 427712, 428128, 428493, 428886, 429275, 429670, 430066, 430453, 430829, 431209, 431589, 431942, 432307, 432689, 433058, 433456, 433824]","[197, 92, 60, 127, 86, 74, 87, 90, 75, 71, 81, 105, 68, 97, 111, 104, 86, 113, 91, 116, 113, 101, 94, 86]","[424843, 425175, 425614, 425986, 426388, 426795, 427180, 427560, 427990, 428375, 428795, 429168, 429591, 429961, 430351, 430720, 431138, 431480, 431854, 432230, 432588, 432975, 433381, 433761]","[424854, 425254, 425654, 426054, 426455, 426854, 427254, 427654, 428005, 428390, 428812, 429186, 429608, 429978, 430368, 430736, 431154, 431496, 431870, 432247, 432605, 432991, 433397, 433777]",82,EM,L,R,ITMSR,1.1,
3,600,trial,0,13,13,13,trial,"['S', 'S', 'S', 'S', 'S', 'S', 'S', 'S', 'S', 'S', 'C', 'C', 'C', 'C', 'C', 'C', 'C', 'C', 'C', 'C', 'C', 'C', 'C', 'C', 'C', 'C']","[439439, 439919, 440351, 440750, 441169, 441601, 442083, 442519, 442960, 443393, 443830, 444274, 444722, 445219, 445711, 446222, 446665, 447125, 447595, 447989, 448450, 448908, 449359, 449817, 450251, 450696]","[439574, 440082, 440496, 440897, 441336, 441754, 442213, 442662, 443094, 443542, 443963, 444412, 444872, 445331, 445874, 446359, 446820, 447247, 447754, 448199, 448622, 449094, 449531, 449955, 450394, 450839]","[129, 84, 105, 118, 88, 117, 115, 105, 116, 74, 117, 109, 85, 105, 79, 103, 104, 94, 136, 159, 133, 148, 131, 125, 148, 134]","[439442, 439922, 440354, 440753, 441174, 441604, 442086, 442522, 442962, 443398, 443833, 444277, 444725, 445223, 445715, 446226, 446669, 447129, 447599, 448098, 448541, 448911, 449434, 449821, 450254, 450699]","[439199, 439798, 440398, 440998, 441598, 442199, 442798, 443398, 443850, 444294, 444742, 445239, 445731, 446242, 446685, 447145, 447616, 448009, 448471, 448928, 449379, 449837, 450271, 450716]",82,EM,L,R,ITMSR,1.1,
3,400,trial,0,14,14,14,trial,"['B', 'S', 'S', 'S', 'S', 'S', 'S', 'S', 'C', 'C', 'C', 'C', 'C', 'C', 'C', 'C', 'C', 'C', 'C', 'C', 'C', 'C', 'C', 'C']","[456359, 456760, 457181, 457552, 457955, 458309, 458713, 459105, 459500, 459879, 460285, 460663, 461092, 461496, 461876, 462256, 462668, 463072, 463451, 463850, 464264, 464644, 465050, 465415]","[456416, 456907, 457318, 457700, 458085, 458477, 458847, 459254, 459643, 460016, 460397, 460791, 461187, 461598, 461979, 462373, 462758, 463184, 463588, 463964, 464380, 464735, 465160, 465538]","[119, 131, 107, 137, 112, 142, 127, 127, 119, 102, 96, 104, 107, 119, 110, 122, 111, 119, 134, 128, 122, 79, 118, 105]","[456359, 456764, 457185, 457556, 457959, 458399, 458718, 459108, 459504, 459883, 460290, 460667, 461096, 461500, 461880, 462260, 462672, 463076, 463518, 463854, 464269, 464649, 465054, 465420]","[456372, 456772, 457172, 457572, 457972, 458372, 458772, 459172, 459521, 459899, 460305, 460683, 461112, 461516, 461896, 462276, 462688, 463092, 463471, 463870, 464284, 464664, 465070, 465435]",82,EM,L,R,ITMSR,1.1,
3,600,trial,0,15,15,15,trial,"['B', 'S', 'S', 'S', 'S', 'S', 'S', 'S', 'S', 'C', 'C', 'C', 'C', 'C', 'C', 'C', 'C', 'C', 'C', 'C', 'C', 'C', 'C', 'C', 'C']","[470892, 471286, 471855, 472397, 472960, 473550, 474127, 474739, 475321, 476004, 476545, 477065, 477583, 478088, 478612, 479092, 479582, 480097, 480634, 481138, 481674, 482174, 482706, 483219, 483752]","[471008, 471446, 472001, 472587, 473163, 473761, 474362, 474950, 475561, 476268, 476797, 477308, 477766, 478302, 478804, 479293, 479771, 480305, 480837, 481413, 481866, 482422, 482927, 483472, 483998]","[74, 141, 142, 130, 143, 148, 148, 157, 150, 146, 167, 169, 154, 143, 160, 165, 152, 138, 166, 148, 157, 138, 161, 149, 158]","[470931, 471289, 471858, 472501, 473057, 473552, 474250, 474836, 475417, 476007, 476695, 477191, 477671, 478195, 478614, 479094, 479584, 480100, 480739, 481300, 481744, 482178, 482708, 483324, 483755]","[470904, 471504, 472104, 472705, 473304, 473904, 474504, 475104, 476024, 476565, 477085, 477603, 478108, 478632, 479112, 479602, 480117, 480654, 481158, 481694, 482194, 482726, 483239, 483772]",82,EM,L,R,ITMSR,1.1,
4,600,trial,0,16,16,16,trial,"['S', 'S', 'S', 'S', 'S', 'S', 'S', 'S', 'C', 'C', 'C', 'C', 'C', 'C', 'C', 'C', 'C', 'C', 'C', 'C', 'C', 'C', 'C', 'C']","[489193, 489948, 490539, 491148, 491752, 492360, 492967, 493580, 494269, 494859, 495400, 495936, 496444, 496948, 497457, 498032, 498522, 499012, 499507, 500014, 500475, 500939, 501454, 501943]","[489425, 490141, 490758, 491386, 491996, 492613, 493214, 493816, 494520, 495098, 495630, 496167, 496664, 497152, 497660, 498208, 498717, 499211, 499695, 500186, 500670, 501142, 501639, 502122]","[164, 183, 180, 174, 173, 171, 173, 178, 167, 179, 177, 178, 159, 135, 133, 115, 151, 165, 149, 125, 125, 123, 120, 88]","[489298, 489949, 490541, 491150, 491754, 492362, 493105, 493582, 494387, 494862, 495403, 495938, 496447, 496951, 497460, 498126, 498617, 499111, 499600, 500102, 500573, 501037, 501537, 502035]","[489138, 489738, 490338, 490938, 491538, 492138, 492738, 493338, 494289, 494879, 495420, 495956, 496464, 496968, 497477, 498052, 498542, 499032, 499527, 500034, 500495, 500959, 501474, 501963]",82,EM,L,R,ITMSR,1.1,
2,400,trial,0,17,17,17,trial,"['B', 'S', 'S', 'S', 'S', 'S', 'S', 'C', 'C', 'C', 'C', 'C', 'C', 'C', 'C', 'C', 'C', 'C', 'C', 'C', 'C', 'C', 'C']","[507530, 508008, 508559, 509051, 509556, 510107, 510518, 511052, 511503, 511919, 512313, 512681, 513060, 513456, 513828, 514234, 514652, 515054, 515447, 515825, 516247, 516629, 517027]","[507719, 508208, 508725, 509258, 509770, 510264, 510693, 511256, 511689, 512094, 512455, 512830, 513218, 513595, 513992, 514368, 514755, 515179, 515595, 515989, 516406, 516795, 517187]","[169, 142, 110, 139, 119, 125, 117, 133, 127, 136, 61, 104, 104, 97, 95, 71, 95, 115, 102, 101, 99, 100, 77]","[507602, 508106, 508646, 509168, 509558, 510110, 510608, 511172, 511607, 512019, 512317, 512755, 513146, 513460, 513913, 514238, 514655, 515057, 515449, 515904, 516251, 516717, 517031]","[507541, 507940, 508340, 508740, 509140, 509540, 509940, 510340, 511072, 511523, 511939, 512333, 512701, 513080, 513476, 513848, 514254, 514672, 515074, 515467, 515845, 516268, 516649, 517047]",82,EM,L,R,ITMSR,1.1,
4,400,trial,0,18,18,18,trial,"['S', 'S', 'S', 'S', 'S', 'S', 'S', 'C', 'C', 'C', 'C', 'C', 'C', 'C', 'C', 'C', 'C', 'C', 'C', 'C', 'C', 'C', 'C']","[522896, 523343, 523778, 524216, 524637, 525037, 525427, 525796, 526187, 526576, 526967, 527360, 527750, 528149, 528569, 528965, 529351, 529751, 530145, 530536, 530935, 531324, 531738]","[523036, 523465, 523924, 524349, 524748, 525148, 525537, 525924, 526313, 526675, 527075, 527493, 527866, 528284, 528673, 529094, 529468, 529876, 530287, 530678, 531073, 531459, 531864]","[108, 92, 92, 81, 99, 90, 92, 87, 85, 57, 80, 104, 91, 109, 97, 115, 75, 96, 107, 91, 95, 92, 96]","[522899, 523346, 523782, 524218, 524638, 525039, 525429, 525799, 526189, 526580, 526970, 527363, 527753, 528151, 528571, 528968, 529354, 529754, 530148, 530538, 530938, 531328, 531741]","[522636, 523036, 523437, 523837, 524237, 524637, 525037, 525437, 525816, 526208, 526596, 526987, 527380, 527770, 528169, 528589, 528985, 529371, 529771, 530165, 530556, 530955, 531344, 531758]",82,EM,L,R,ITMSR,1.1,
1,400,trial,0,19,19,19,trial,"['S', 'S', 'S', 'S', 'S', 'S', 'C', 'C', 'C', 'C', 'C', 'C', 'C', 'C', 'C', 'C', 'C', 'C', 'C', 'C', 'C', 'C']","[537835, 538309, 538763, 539184, 539545, 539929, 540342, 540731, 541121, 541503, 541893, 542286, 542701, 543058, 543453, 543876, 544266, 544654, 545049, 545416, 545835, 546250]","[537993, 538418, 538881, 539269, 539680, 540065, 540469, 540868, 541250, 541640, 542034, 542403, 542813, 543207, 543585, 543971, 544379, 544772, 545160, 545545, 545952, 546363]","[31, 50, 61, 81, 105, 99, 95, 48, 111, 95, 97, 96, 83, 102, 100, 109, 86, 103, 103, 69, 99, 106]","[537925, 538313, 538769, 539187, 539548, 539932, 540344, 540735, 541124, 541505, 541896, 542288, 542704, 543062, 543455, 543879, 544269, 544657, 545052, 545419, 545837, 546253]","[537233, 537633, 538033, 538433, 538833, 539233, 539633, 540034, 540362, 540751, 541142, 541523, 541913, 542306, 542722, 543078, 543473, 543896, 544286, 544674, 545069, 545436, 545855, 546270]",82,EM,L,R,ITMSR,1.1,
1,400,trial,0,20,20,20,trial,"['S', 'S', 'S', 'S', 'S', 'S', 'S', 'C', 'C', 'C', 'C', 'C', 'C', 'C', 'C', 'C', 'C', 'C', 'C', 'C', 'C', 'C', 'C']","[552049, 552482, 552865, 553246, 553648, 554065, 554459, 554856, 555256, 555650, 556065, 556453, 556863, 557301, 557721, 558160, 558588, 558967, 559374, 559794, 560183, 560568, 560972]","[552172, 552581, 552985, 553393, 553802, 554203, 554627, 555047, 555404, 555778, 556165, 556601, 556966, 557391, 557827, 558274, 558695, 559113, 559518, 559904, 560316, 560715, 561088]","[88, 94, 106, 111, 124, 102, 132, 106, 102, 92, 97, 114, 91, 113, 120, 76, 105, 118, 98, 109, 110, 114, 103]","[552108, 552486, 552867, 553322, 553738, 554132, 554550, 554862, 555329, 555653, 556068, 556455, 556865, 557304, 557723, 558163, 558590, 558970, 559376, 559796, 560186, 560570, 560974]","[551718, 552118, 552518, 552919, 553318, 553718, 554118, 554518, 554876, 555276, 555670, 556085, 556473, 556883, 557321, 557741, 558180, 558608, 558987, 559394, 559814, 560203, 560588, 560992]",82,EM,L,R,ITMSR,1.1,
1,600,trial,0,21,21,21,trial,"['S', 'S', 'S', 'S', 'S', 'S', 'S', 'S', 'C', 'C', 'C', 'C', 'C', 'C', 'C', 'C', 'C', 'C', 'C', 'C', 'C', 'C', 'C', 'C']","[566701, 567254, 567864, 568458, 568998, 569566, 570147, 570752, 571470, 572030, 572529, 573057, 573563, 574097, 574627, 575162, 575694, 576209, 576704, 577196, 577676, 578159, 578672, 579144]","[566787, 567403, 568004, 568619, 569167, 569752, 570345, 570956, 571698, 572241, 572735, 573247, 573788, 574330, 574824, 575352, 575836, 576374, 576863, 577372, 577891, 578362, 578859, 579322]","[25, 93, 96, 111, 105, 117, 114, 101, 107, 92, 124, 123, 113, 123, 80, 72, 67, 103, 99, 100, 95, 103, 88, 78]","[566708, 567256, 567868, 568460, 569000, 569568, 570150, 570754, 571472, 572034, 572531, 573059, 573566, 574100, 574630, 575281, 575696, 576211, 576706, 577198, 577678, 578162, 578675, 579146]","[566322, 566922, 567522, 568122, 568722, 569322, 569922, 570522, 571490, 572050, 572549, 573077, 573583, 574117, 574647, 575182, 575714, 576229, 576724, 577216, 577696, 578179, 578692, 579164]",82,EM,L,R,ITMSR,1.1,
3,400,trial,0,22,22,22,trial,"['B', 'S', 'S', 'S', 'S', 'S', 'S', 'S', 'C', 'C', 'C', 'C', 'C', 'C', 'C', 'C', 'C', 'C', 'C', 'C', 'C', 'C', 'C', 'C']","[584918, 585250, 585706, 586105, 586526, 586900, 587261, 587653, 588070, 588437, 588816, 589188, 589576, 589892, 590303, 590715, 591156, 591555, 591996, 592416, 592851, 593287, 593695, 594084]","[584949, 585409, 585846, 586247, 586650, 587016, 587374, 587789, 588183, 588551, 588928, 589310, 589685, 590029, 590454, 590837, 591269, 591672, 592087, 592542, 593004, 593428, 593817, 594230]","[167, 96, 95, 102, 93, 84, 70, 81, 64, 69, 83, 95, 91, 26, 103, 85, 101, 90, 79, 117, 100, 94, 104, 111]","[584918, 585253, 585709, 586108, 586530, 586903, 587265, 587656, 588073, 588441, 588819, 589190, 589579, 589954, 590306, 590718, 591159, 591558, 592000, 592418, 592855, 593290, 593697, 594087]","[584930, 585330, 585730, 586130, 586530, 586930, 587330, 587730, 588090, 588457, 588836, 589208, 589596, 589912, 590323, 590735, 591176, 591576, 592016, 592436, 592871, 593307, 593715, 594104]",82,EM,L,R,ITMSR,1.1,
2,400,trial,0,23,23,23,trial,"['B', 'S', 'S', 'S', 'S', 'S', 'S', 'S', 'C', 'C', 'C', 'C', 'C', 'C', 'C', 'C', 'C', 'C', 'C', 'C', 'C', 'C', 'C', 'C']","[599656, 599921, 600376, 600794, 601221, 601623, 602015, 602428, 602850, 603258, 603622, 604015, 604418, 604826, 605225, 605631, 606021, 606453, 606851, 607232, 607636, 608044, 608458, 608874]","[599676, 600054, 600504, 600943, 601372, 601784, 602175, 602563, 603009, 603343, 603783, 604158, 604574, 604975, 605385, 605792, 606190, 606598, 607004, 607405, 607814, 608197, 608575, 608984]","[179, 161, 193, 199, 191, 193, 186, 184, 185, 177, 191, 190, 185, 183, 181, 185, 182, 191, 189, 187, 187, 184, 187, 187]","[599656, 599941, 600385, 600806, 601234, 601638, 602032, 602443, 602865, 603274, 603636, 604027, 604431, 604839, 605242, 605647, 606035, 606469, 606863, 607245, 607649, 608059, 608474, 608889]","[599667, 600067, 600467, 600867, 601267, 601667, 602067, 602467, 602870, 603278, 603642, 604035, 604438, 604846, 605245, 605651, 606041, 606473, 606871, 607252, 607656, 608064, 608478, 608894]",82,EM,L,R,ITMSR,1.1,
0,400,trial,0,24,24,24,trial,"['S', 'S', 'S', 'S', 'S', 'S', 'S', 'C', 'C', 'C', 'C', 'C', 'C', 'C', 'C', 'C', 'C', 'C', 'C', 'C', 'C', 'C', 'C']","[614352, 614987, 615413, 615830, 616199, 616593, 616988, 617403, 617796, 618209, 618577, 619023, 619441, 619838, 620232, 620667, 621106, 621517, 621924, 622357, 622752, 623160, 623563]","[614609, 615153, 615560, 615981, 616333, 616769, 617143, 617578, 617968, 618375, 618761, 619161, 619580, 619968, 620359, 620761, 621197, 621655, 622069, 622494, 622901, 623312, 623682]","[196, 209, 201, 202, 197, 197, 193, 199, 200, 198, 198, 191, 190, 188, 181, 186, 189, 185, 192, 192, 185, 193, 186]","[614366, 614999, 615426, 615840, 616211, 616607, 617000, 617414, 617809, 618218, 618589, 619039, 619457, 619849, 620248, 620678, 621117, 621529, 621940, 622371, 622763, 623169, 623574]","[614225, 614625, 615025, 615426, 615826, 616226, 616626, 617026, 617423, 617816, 618229, 618597, 619043, 619461, 619858, 620252, 620687, 621126, 621537, 621944, 622377, 622772, 623180, 623583]",82,EM,L,R,ITMSR,1.1,
2,600,trial,0,25,25,25,trial,"['S', 'S', 'S', 'S', 'S', 'S', 'S', 'C', 'C', 'C', 'C', 'C', 'C', 'C', 'C', 'C', 'C', 'C', 'C', 'C', 'C', 'C', 'C']","[629131, 629736, 630384, 630991, 631625, 632231, 632811, 633441, 634088, 634692, 635312, 635904, 636485, 637047, 637616, 638156, 638701, 639245, 639806, 640352, 640861, 641376, 641941]","[629301, 629964, 630625, 631235, 631837, 632459, 633077, 633711, 634341, 634996, 635563, 636166, 636747, 637328, 637923, 638430, 638979, 639525, 640083, 640582, 641082, 641629, 642162]","[189, 193, 191, 192, 163, 167, 189, 195, 174, 181, 146, 171, 187, 185, 191, 189, 183, 190, 190, 193, 189, 185, 179]","[629151, 629756, 630407, 631010, 631643, 632239, 632832, 633461, 634108, 634714, 635325, 636033, 636506, 637070, 637636, 638178, 638723, 639266, 639828, 640369, 640882, 641393, 641963]","[628938, 629538, 630138, 630738, 631339, 631938, 632538, 633138, 633461, 634108, 634712, 635332, 635924, 636505, 637067, 637636, 638176, 638722, 639265, 639826, 640372, 640881, 641396, 641961]",82,EM,L,R,ITMSR,1.1,
4,600,trial,0,26,26,26,trial,"['S', 'S', 'S', 'S', 'S', 'S', 'S', 'C', 'C', 'C', 'C', 'C', 'C', 'C', 'C', 'C', 'C', 'C', 'C', 'C', 'C', 'C', 'C']","[647831, 648538, 649073, 649626, 650248, 650823, 651398, 652058, 652730, 653366, 653942, 654509, 655057, 655581, 656160, 656741, 657304, 657883, 658452, 659085, 659608, 660149, 660689]","[648038, 648704, 649247, 649839, 650454, 651049, 651669, 652302, 653016, 653632, 654164, 654730, 655319, 655883, 656463, 657017, 657582, 658182, 658752, 659343, 659901, 660403, 660913]","[191, 174, 174, 190, 171, 193, 207, 170, 175, 194, 176, 172, 175, 195, 190, 157, 179, 169, 159, 132, 197, 175, 169]","[647944, 648619, 649166, 649743, 650366, 650962, 651540, 652203, 652881, 653512, 654064, 654641, 655209, 655762, 656326, 656879, 657445, 658092, 658643, 659259, 659782, 660303, 660809]","[647585, 648184, 648784, 649384, 649985, 650584, 651184, 651784, 652078, 652750, 653386, 653962, 654529, 655077, 655601, 656180, 656761, 657325, 657903, 658472, 659105, 659629, 660169, 660709]",82,EM,L,R,ITMSR,1.1,
5,600,trial,0,27,27,27,trial,"['S', 'S', 'S', 'S', 'S', 'S', 'S', 'S', 'S', 'S', 'S', 'S', 'S', 'S', 'C', 'C', 'C', 'C', 'C', 'C', 'C', 'C', 'C', 'C', 'C', 'C', 'C', 'C', 'C', 'C', 'C', 'C']","[666524, 666854, 667180, 667491, 667790, 668113, 668432, 668736, 669020, 669320, 669622, 669897, 670197, 670488, 670791, 671088, 671422, 671703, 671958, 672303, 672604, 672891, 673188, 673469, 673766, 674044, 674367, 674678, 674958, 675254, 675559, 675813]","[666642, 666998, 667301, 667615, 667905, 668237, 668527, 668837, 669135, 669419, 669730, 670004, 670312, 670600, 670902, 671210, 671513, 671791, 672067, 672398, 672698, 673007, 673292, 673600, 673849, 674170, 674479, 674792, 675062, 675348, 675650]","[141, 157, 152, 147, 133, 137, 110, 106, 116, 90, 118, 101, 108, 113, 101, 105, 60, 72, 78, 108, 88, 120, 107, 135, 95, 128, 99, 125, 96, 89, 93]","[666576, 666921, 667235, 667551, 667845, 668176, 668437, 668740, 669024, 669323, 669626, 669946, 670255, 670540, 670848, 671153, 671426, 671708, 672012, 672307, 672644, 672954, 673242, 673541, 673803, 674112, 674371, 674736, 675011, 675295, 675563]","[666319, 666919, 667520, 668120, 668720, 669320, 669920, 670520, 670811, 671108, 671442, 671723, 672323, 672624, 672911, 673208, 673489, 673786, 674064, 674387, 674698, 674978, 675274, 675579]",82,EM,L,R,ITMSR,1.1,
5,400,trial,0,28,28,28,trial,"['S', 'S', 'S', 'S', 'S', 'S', 'S', 'C', 'C', 'C', 'C', 'C', 'C', 'C', 'C', 'C', 'C', 'C', 'C', 'C', 'C', 'C', 'C']","[681229, 681796, 682248, 682715, 683156, 683588, 683945, 684346, 684712, 685084, 685464, 685806, 686174, 686512, 686849, 687216, 687582, 687951, 688321, 688675, 689075, 689431, 689797]","[681475, 682010, 682471, 682929, 683355, 683746, 684118, 684491, 684861, 685242, 685572, 685950, 686287, 686667, 686997, 687347, 687734, 688095, 688467, 688826, 689179, 689551, 689923]","[179, 185, 181, 189, 184, 176, 185, 160, 153, 155, 134, 158, 129, 172, 152, 134, 145, 148, 144, 152, 131, 127, 134]","[681346, 681909, 682362, 682825, 683249, 683660, 684020, 684414, 684716, 685160, 685514, 685882, 686228, 686593, 686922, 687220, 687650, 688024, 688393, 688754, 689079, 689485, 689800]","[681193, 681593, 681993, 682393, 682793, 683193, 683593, 683993, 684366, 684732, 685104, 685485, 685826, 686194, 686532, 686869, 687236, 687602, 687971, 688342, 688695, 689095, 689452, 689817]",82,EM,L,R,ITMSR,1.1,
0,400,trial,0,29,29,29,trial,"['S', 'S', 'S', 'S', 'S', 'C', 'C', 'C', 'C', 'C', 'C', 'C', 'C', 'C', 'C', 'C', 'C', 'C', 'C', 'C', 'C']","[696314, 696710, 697118, 697524, 697915, 698315, 698702, 699067, 699450, 699843, 700220, 700618, 701005, 701404, 701802, 702192, 702578, 702960, 703328, 703728, 704144]","[696446, 696887, 697282, 697690, 698070, 698482, 698866, 699224, 699599, 699995, 700364, 700761, 701147, 701552, 701931, 702325, 702695, 703073, 703466, 703858, 704279]","[152, 181, 180, 163, 154, 166, 151, 155, 128, 140, 135, 138, 142, 136, 130, 143, 139, 142, 139, 131, 144]","[696374, 696793, 697205, 697591, 697918, 698409, 698779, 699149, 699454, 699847, 700289, 700622, 701009, 701408, 701806, 702195, 702582, 702963, 703332, 703732, 704147]","[695169, 695567, 695967, 696367, 696767, 697167, 697567, 697967, 698335, 698722, 699087, 699470, 699864, 700240, 700638, 701025, 701424, 701822, 702212, 702598, 702980, 703348, 703748, 704164]",82,EM,L,R,ITMSR,1.1,
3,400,trial,0,30,30,30,trial,"['B', 'S', 'S', 'S', 'S', 'S', 'S', 'C', 'C', 'C', 'C', 'C', 'C', 'C', 'C', 'C', 'C', 'C', 'C', 'C', 'C', 'C', 'C']","[717364, 717830, 718308, 718799, 719282, 719682, 720101, 720599, 720968, 721355, 721735, 722132, 722574, 722952, 723332, 723745, 724104, 724473, 724885, 725274, 725645, 726009, 726621]","[717537, 717983, 718492, 718953, 719382, 719826, 720208, 720692, 721004, 721435, 721827, 722247, 722663, 723057, 723428, 723823, 724195, 724564, 724944, 725330, 725701, 726060, 726700]","[163, 141, 132, 105, 3, 16, 37, 188, 10, 82, 80, 64, 22, 41, 75, 241, 47, 61, 255, 239, 206, 215, 219]","[717455, 717907, 718405, 718879, 719320, 719686, 720105, 720604, 720972, 721359, 721739, 722136, 722579, 722957, 723335, 723749, 724108, 724477, 724889, 725278, 725648, 726013, 726625]","[717377, 717777, 718177, 718577, 718978, 719378, 719778, 720178, 720619, 720988, 721375, 721755, 722152, 722594, 722972, 723352, 723765, 724124, 724493, 724905, 725294, 725665, 726029, 726641]",82,EM,L,R,ITMSR,1.1,
1,400,trial,0,31,31,31,trial,"['B', 'S', 'S', 'S', 'S', 'S', 'S', 'S', 'C', 'C', 'C', 'C', 'C', 'C', 'C', 'C', 'C', 'C', 'C', 'C', 'C', 'C', 'C', 'C']","[731937, 732207, 732622, 733036, 733449, 733865, 734295, 734731, 735113, 735508, 735896, 736252, 736618, 737004, 737380, 737772, 738139, 738541, 738929, 739339, 739762, 740173, 740568, 740932]","[731978, 732397, 732782, 733211, 733632, 734029, 734418, 734875, 735263, 735675, 736057, 736423, 736753, 737126, 737511, 737931, 738287, 738732, 739093, 739476, 739862, 740258, 740647, 741058]","[49, 109, 121, 126, 127, 137, 132, 133, 139, 145, 143, 127, 129, 122, 129, 140, 111, 121, 130, 132, 141, 144, 146, 132]","[731937, 732308, 732697, 733101, 733453, 733870, 734298, 734735, 735117, 735511, 735900, 736328, 736621, 737008, 737384, 737776, 738143, 738545, 738932, 739342, 739765, 740176, 740572, 740935]","[731950, 732350, 732750, 733150, 733550, 733950, 734350, 734750, 735133, 735528, 735917, 736272, 736638, 737025, 737400, 737793, 738159, 738562, 738949, 739359, 739782, 740193, 740588, 740952]",82,EM,L,R,ITMSR,1.1,
0,400,trial,0,32,32,32,trial,"['S', 'S', 'S', 'S', 'S', 'S', 'S', 'S', 'C', 'C', 'C', 'C', 'C', 'C', 'C', 'C', 'C', 'C', 'C', 'C', 'C', 'C', 'C', 'C']","[746729, 747067, 747390, 747743, 748139, 748576, 748996, 749382, 749793, 750129, 750482, 750840, 751196, 751549, 751911, 752244, 752557, 752883, 753241, 753605, 753946, 754255, 754593, 754961]","[746893, 747194, 747529, 747918, 748317, 748765, 749145, 749554, 749945, 750284, 750639, 751003, 751334, 751711, 752044, 752380, 752691, 753027, 753373, 753718, 754087, 754384, 754744, 755064]","[149, 157, 157, 151, 145, 140, 146, 138, 141, 139, 132, 139, 118, 110, 127, 113, 114, 106, 123, 99, 118, 93, 97, 92]","[746730, 747071, 747395, 747746, 748215, 748667, 749000, 749384, 749797, 750132, 750486, 750844, 751201, 751554, 751916, 752249, 752562, 752887, 753245, 753609, 753951, 754259, 754598, 754966]","[746729, 747129, 747529, 747929, 748329, 748729, 749129, 749529, 749813, 750149, 750502, 750860, 751216, 751569, 751931, 752264, 752577, 752903, 753261, 753625, 753966, 754275, 754613, 754981]",82,EM,L,R,ITMSR,1.1,
5,400,trial,0,33,33,33,trial,"['S', 'S', 'S', 'S', 'S', 'S', 'S', 'C', 'C', 'C', 'C', 'C', 'C', 'C', 'C', 'C', 'C', 'C', 'C', 'C', 'C', 'C', 'C']","[760912, 761352, 761787, 762205, 762594, 762979, 763398, 763838, 764232, 764593, 764951, 765320, 765691, 766041, 766450, 766816, 767143, 767504, 767861, 768201, 768541, 768861, 769199]","[761096, 761489, 761904, 762355, 762730, 763139, 763596, 763972, 764355, 764715, 765081, 765450, 765833, 766183, 766540, 766924, 767252, 767644, 767953, 768321, 768635, 768975, 769296]","[144, 129, 81, 100, 105, 132, 120, 100, 123, 123, 124, 126, 123, 108, 40, 37, 46, 64, 69, 41, 4, 20, 238]","[760915, 761356, 761791, 762209, 762598, 762983, 763402, 763843, 764236, 764598, 764955, 765323, 765697, 766045, 766454, 766820, 767147, 767507, 767865, 768205, 768545, 768865, 769203]","[760696, 761096, 761496, 761896, 762296, 762696, 763096, 763496, 763858, 764252, 764613, 764972, 765340, 765711, 766061, 766470, 766836, 767163, 767524, 767881, 768221, 768561, 768881, 769219]",82,EM,L,R,ITMSR,1.1,
4,600,trial,0,34,34,34,trial,"['S', 'S', 'S', 'S', 'S', 'S', 'S', 'S', 'S', 'S', 'S', 'S', 'S', 'C', 'C', 'C', 'C', 'C', 'C', 'C', 'C', 'C', 'C', 'C', 'C', 'C', 'C', 'C', 'C']","[774694, 775112, 775455, 775809, 776148, 776503, 776841, 777165, 777464, 777797, 778117, 778441, 778729, 779048, 779368, 779667, 779971, 780258, 780532, 780843, 781160, 781438, 781746, 782027, 782346, 782636, 782922, 783201, 783513]","[774796, 775238, 775597, 775919, 776288, 776673, 776980, 777314, 777598, 777906, 778229, 778565, 778873, 779186, 779485, 779793, 780086, 780371, 780652, 780959, 781274, 781566, 781859, 782156, 782470, 782749, 783049, 783339, 783636]","[11, 92, 100, 112, 105, 73, 76, 112, 109, 99, 102, 136, 138, 106, 104, 77, 68, 71, 82, 58, 56, 72, 74, 96, 88, 109, 83, 86, 54]","[774702, 775116, 775497, 775815, 776154, 776562, 776889, 777214, 777523, 777838, 778126, 778448, 778775, 779092, 779376, 779718, 779993, 780296, 780576, 780849, 781167, 781475, 781788, 782071, 782397, 782670, 782963, 783252, 783556]","[774521, 775121, 775721, 776322, 776922, 777522, 778122, 778722, 779068, 779388, 779687, 779992, 780278, 780552, 780863, 781180, 781458, 781766, 782047, 782366, 782656, 782942, 783221, 783533]",82,EM,L,R,ITMSR,1.1,
4,400,trial,0,35,35,35,trial,"['S', 'S', 'S', 'S', 'S', 'S', 'S', 'S', 'S', 'S', 'S', 'S', 'S', 'S', 'S', 'S', 'S', 'S', 'S', 'S', 'C', 'C', 'C', 'C', 'C', 'C', 'C', 'C', 'C', 'C', 'C', 'C', 'C', 'C', 'C', 'C', 'C', 'C', 'C', 'C', 'C', 'C', 'C', 'C', 'C', 'C', 'C', 'C', 'C', 'C', 'C', 'C']","[789306, 789460, 789606, 789760, 789906, 790054, 790195, 790358, 790530, 790687, 790838, 790989, 791161, 791306, 791459, 791607, 791769, 791942, 792091, 792249, 792400, 792556, 792709, 792894, 793057, 793216, 793383, 793538, 793695, 793856, 794018, 794172, 794328, 794479, 794639, 794796, 794957, 795117, 795269, 795421, 795570, 795742, 795911, 796079, 796255, 796410, 796589, 796750, 796915, 797084, 797240, 797392]","[789359, 789511, 789659, 789817, 789957, 790103, 790277, 790429, 790587, 790747, 790908, 791048, 791206, 791360, 791519, 791674, 791836, 791984, 792140, 792308, 792457, 792609, 792772, 792939, 793101, 793262, 793426, 793581, 793740, 793900, 794058, 794221, 794373, 794531, 794687, 794844, 795009, 795176, 795325, 795490, 795631, 795797, 795967, 796134, 796301, 796467, 796633, 796801, 796953, 797111, 797278, 797447]","[85, 68, 60, 124, 103, 91, 129, 115, 117, 129, 130, 110, 116, 109, 108, 117, 129, 72, 110, 134, 111, 87, 120, 98, 105, 112, 118, 104, 94, 119, 105, 121, 100, 91, 93, 107, 107, 107, 73, 58, 254, 67, 91, 100, 71, 104, 101, 98, 35, 90, 11, 69]","[789321, 789472, 789624, 789772, 789918, 790067, 790206, 790388, 790542, 790699, 790860, 791010, 791173, 791318, 791472, 791630, 791793, 791953, 792102, 792259, 792414, 792571, 792731, 792904, 793066, 793225, 793393, 793549, 793705, 793865, 794028, 794181, 794338, 794492, 794651, 794808, 794968, 795128, 795281, 795439, 795590, 795754, 795922, 796091, 796264, 796421, 796599, 796761, 796926, 797095, 797253, 797407]","[789274, 789673, 790073, 790473, 790873, 791273, 791673, 792073, 792420, 792729, 793077, 793403, 793715, 794038, 794348, 794659, 794977, 795289, 795590, 795931, 796275, 796609, 796935, 797260]",82,EM,L,R,ITMSR,1.1,
0,600,trial,0,36,36,36,trial,"['S', 'S', 'S', 'S', 'S', 'S', 'S', 'S', 'S', 'S', 'S', 'S', 'S', 'S', 'S', 'S', 'S', 'S', 'S', 'S', 'S', 'S', 'S', 'S', 'S', 'S', 'S', 'S', 'S', 'S', 'S', 'C', 'C', 'C', 'C', 'C', 'C', 'C', 'C', 'C', 'C', 'C', 'C', 'C', 'C', 'C', 'C', 'C', 'C', 'C', 'C', 'C', 'C', 'C', 'C', 'C', 'C', 'C', 'C', 'C', 'C', 'C', 'C']","[802742, 802873, 803013, 803153, 803291, 803420, 803558, 803692, 803847, 803963, 804089, 804230, 804390, 804536, 804681, 804835, 804988, 805146, 805299, 805457, 805597, 805743, 805885, 806044, 806203, 806356, 806505, 806656, 806820, 806974, 807124, 807288, 807448, 807602, 807758, 807915, 808076, 808220, 808380, 808510, 808636, 808790, 808955, 809091, 809247, 809412, 809569, 809725, 809885, 810045, 810209, 810378, 810515, 810672, 810835, 811003, 811170, 811334, 811494, 811656, 811816, 811992, 812156]","[802790, 802932, 803066, 803200, 803335, 803478, 803612, 803745, 803872, 804003, 804144, 804294, 804451, 804598, 804750, 804900, 805049, 805197, 805347, 805495, 805641, 805804, 805951, 806110, 806255, 806406, 806561, 806716, 806880, 807027, 807182, 807344, 807506, 807662, 807817, 807973, 808123, 808272, 808430, 808550, 808706, 808850, 808990, 809145, 809306, 809464, 809618, 809775, 809940, 810109, 810269, 810408, 810575, 810739, 810900, 811064, 811233, 811398, 811556, 811720, 811886, 812044, 812208]","[14, 80, 54, 35, 17, 52, 36, 243, 13, 38, 228, 28, 65, 52, 94, 93, 104, 83, 70, 43, 61, 122, 127, 124, 70, 57, 105, 117, 129, 77, 81, 108, 125, 130, 125, 135, 110, 94, 92, 221, 95, 74, 189, 53, 110, 108, 98, 106, 117, 136, 112, 32, 100, 144, 145, 148, 141, 138, 107, 117, 138, 116, 104]","[802760, 802898, 803038, 803172, 803307, 803447, 803582, 803714, 803859, 803981, 804110, 804263, 804416, 804564, 804714, 804866, 805017, 805166, 805312, 805470, 805609, 805769, 805917, 806072, 806223, 806375, 806528, 806683, 806843, 806988, 807141, 807305, 807462, 807622, 807782, 807931, 808089, 808240, 808393, 808520, 808665, 808815, 808970, 809118, 809275, 809432, 809586, 809741, 809905, 810073, 810231, 810391, 810547, 810704, 810864, 811030, 811194, 811361, 811518, 811682, 811847, 812009, 812167]","[802726, 803326, 803927, 804526, 805126, 805726, 806326, 806926, 807308, 807622, 807936, 808240, 808530, 808810, 809111, 809432, 809745, 810065, 810398, 810692, 811023, 811354, 811676, 812012]",82,EM,L,R,ITMSR,1.1,
3,600,trial,0,37,37,37,trial,"['B', 'S', 'S', 'S', 'S', 'S', 'S', 'S', 'C', 'C', 'C', 'C', 'C', 'C', 'C', 'C', 'C', 'C', 'C', 'C', 'C', 'C', 'C', 'C']","[817410, 818078, 818748, 819398, 820040, 820630, 821230, 821806, 822403, 823020, 823569, 824108, 824640, 825195, 825723, 826258, 826780, 827312, 827870, 828422, 828920, 829464, 829990, 830522]","[817647, 818361, 819016, 819635, 820280, 820884, 821483, 822090, 822710, 823262, 823797, 824346, 824884, 825439, 825985, 826519, 827036, 827571, 828123, 828656, 829166, 829696, 830236, 830778]","[121, 109, 85, 78, 35, 75, 77, 32, 87, 108, 106, 118, 101, 106, 104, 101, 83, 97, 88, 93, 85, 93, 88, 87]","[817501, 818211, 818887, 819555, 820046, 820818, 821405, 822013, 822605, 823126, 823676, 824249, 824644, 825199, 825890, 826399, 826880, 827474, 828045, 828426, 828922, 829467, 830170, 830525]","[817423, 818023, 818623, 819223, 819823, 820423, 821023, 821623, 822423, 823041, 823589, 824128, 824660, 825216, 825743, 826278, 826800, 827332, 827890, 828442, 828940, 829485, 830010, 830542]",82,EM,L,R,ITMSR,1.1,
1,400,trial,0,38,38,38,trial,"['S', 'S', 'S', 'S', 'S', 'S', 'C', 'C', 'C', 'C', 'C', 'C', 'C', 'C', 'C', 'C', 'C', 'C', 'C', 'C', 'C', 'C']","[836750, 837118, 837534, 837954, 838374, 838781, 839193, 839552, 839906, 840255, 840593, 840942, 841334, 841703, 842083, 842431, 842769, 843112, 843449, 843806, 844135, 844486]","[836840, 837222, 837627, 838052, 838462, 838892, 839302, 839668, 840015, 840371, 840715, 841074, 841475, 841845, 842218, 842554, 842898, 843243, 843575, 843888, 844241, 844577]","[107, 119, 105, 84, 76, 113, 87, 106, 104, 96, 96, 73, 61, 83, 90, 71, 65, 54, 23, 56, 43, 34]","[836754, 837123, 837538, 837959, 838379, 838786, 839197, 839556, 839911, 840260, 840597, 840947, 841340, 841708, 842088, 842436, 842774, 843116, 843454, 843811, 844141, 844492]","[836040, 836440, 836840, 837240, 837640, 838040, 838440, 838840, 839213, 839572, 839926, 840275, 840613, 840962, 841354, 841723, 842103, 842451, 842789, 843132, 843469, 843826, 844155, 844506]",82,EM,L,R,ITMSR,1.1,
2,400,trial,0,39,39,39,trial,"['S', 'S', 'S', 'S', 'S', 'S', 'C', 'C', 'C', 'C', 'C', 'C', 'C', 'C', 'C', 'C', 'C', 'C', 'C', 'C', 'C', 'C']","[851001, 851393, 851789, 852191, 852614, 852997, 853354, 853731, 854127, 854499, 854875, 855266, 855680, 856103, 856521, 856878, 857280, 857667, 858056, 858436, 858825, 859200]","[851080, 851509, 851921, 852327, 852729, 853108, 853482, 853857, 854235, 854614, 854995, 855379, 855774, 856206, 856621, 857010, 857387, 857783, 858152, 858524, 858925, 859307]","[31, 99, 128, 84, 79, 84, 81, 78, 76, 58, 48, 19, 29, 28, 67, 95, 72, 60, 60, 249, 50, 71]","[851007, 851398, 851793, 852195, 852619, 853001, 853359, 853735, 854132, 854502, 854880, 855271, 855684, 856109, 856525, 856882, 857284, 857670, 858060, 858440, 858830, 859204]","[850250, 850650, 851050, 851450, 851850, 852250, 852651, 853050, 853374, 853751, 854147, 854519, 854895, 855286, 855700, 856123, 856541, 856898, 857300, 857688, 858076, 858456, 858845, 859220]",82,EM,L,R,ITMSR,1.1,
5,600,trial,0,40,40,40,trial,"['C', 'C', 'C', 'C', 'C', 'C', 'C', 'C', 'C', 'C', 'C', 'C', 'C', 'C', 'C', 'C']","[869724, 870202, 870713, 871209, 871719, 872266, 872781, 873298, 873865, 874391, 874912, 875455, 875952, 876427, 876930, 877436]","[869855, 870360, 870872, 871372, 871922, 872393, 872881, 873395, 873964, 874489, 875012, 875530, 876059, 876542, 877056, 877555]","[55, 64, 74, 43, 18, 32, 1, 1, 35, 26, 12, 146, 40, 57, 47, 48]","[869728, 870206, 870716, 871214, 871725, 872270, 872785, 873304, 873870, 874396, 874917, 875461, 875956, 876432, 876936, 877442]","[864953, 865553, 866153, 866753, 867353, 867953, 868553, 869153, 869744, 870222, 870733, 871229, 871739, 872286, 872801, 873318, 873885, 874412, 874932, 875475, 875972, 876447, 876950, 877456]",82,EM,L,R,ITMSR,1.1,
1,600,trial,0,41,41,41,trial,"['C', 'C', 'C', 'C', 'C', 'C', 'C', 'C', 'C', 'C', 'C', 'C', 'C', 'C', 'C', 'C']","[888263, 888772, 889318, 889849, 890397, 890949, 891467, 892032, 892610, 893142, 893669, 894237, 894731, 895259, 895766, 896291]","[888390, 888926, 889439, 889974, 890487, 891048, 891573, 892128, 892730, 893254, 893755, 894336, 894818, 895379, 895911, 896409]","[117, 110, 91, 95, 103, 98, 86, 73, 91, 48, 46, 83, 96, 129, 67, 82]","[888267, 888776, 889323, 889854, 890401, 890953, 891471, 892036, 892615, 893147, 893674, 894242, 894735, 895263, 895770, 896295]","[882906, 883506, 884106, 884706, 885306, 885906, 886506, 887106, 888283, 888792, 889338, 889869, 890417, 890969, 891487, 892052, 892631, 893162, 893689, 894257, 894751, 895279, 895787, 896311]",82,EM,L,R,ITMSR,1.1,
2,600,trial,0,42,42,42,trial,"['C', 'C', 'C', 'C', 'C', 'C', 'C', 'C', 'C', 'C', 'C', 'C', 'C', 'C', 'C', 'C']","[907290, 907825, 908389, 909007, 909542, 910091, 910631, 911195, 912793, 913283, 913828, 914340, 914911, 915447, 915979, 916511]","[907445, 908009, 908581, 909165, 909714, 910256, 910822, 911324, 912953, 913457, 913936, 914480, 915008, 915581, 916134, 916648]","[158, 151, 124, 85, 135, 127, 126, 113, 136, 107, 80, 88, 39, 83, 98, 103]","[907293, 907829, 908393, 909010, 909546, 910095, 910636, 911199, 912797, 913288, 913832, 914344, 914915, 915451, 915984, 916515]","[901832, 902432, 903032, 903632, 904232, 904833, 905432, 906032, 907310, 907845, 908409, 909027, 909562, 910111, 910651, 911215, 912813, 913303, 913848, 914360, 914931, 915467, 915999, 916531]",82,EM,L,R,ITMSR,1.1,
5,600,trial,0,43,43,43,trial,"['S', 'S', 'S', 'S', 'S', 'S', 'S', 'S', 'C', 'C', 'C', 'C', 'C', 'C', 'C', 'C', 'C', 'C', 'C', 'C', 'C', 'C', 'C', 'C']","[922566, 922916, 923457, 924015, 924619, 925248, 925811, 926413, 927021, 927580, 928139, 928687, 929294, 929813, 930347, 930889, 931419, 931950, 932451, 932957, 933495, 934004, 934544, 935068]","[922603, 923077, 923631, 924166, 924766, 925406, 925965, 926581, 927216, 927760, 928314, 928873, 929438, 930001, 930537, 931064, 931593, 932135, 932596, 933085, 933650, 934145, 934682, 935225]","[198, 115, 102, 102, 94, 86, 42, 9, 56, 50, 76, 71, 51, 99, 73, 79, 82, 64, 88, 30, 50, 58, 83, 88]","[922571, 922920, 923462, 924019, 924624, 925252, 925816, 926418, 927025, 927585, 928143, 928692, 929379, 929818, 930352, 930894, 931423, 931954, 932456, 932963, 933499, 934009, 934548, 935072]","[922323, 922924, 923523, 924123, 924723, 925323, 925923, 926523, 927041, 927600, 928159, 928707, 929314, 929833, 930367, 930909, 931439, 931970, 932471, 932977, 933515, 934024, 934564, 935088]",82,EM,L,R,ITMSR,1.1,
2,600,trial,0,44,44,44,trial,"['S', 'S', 'S', 'S', 'C', 'C', 'C', 'C', 'C', 'C', 'C', 'C', 'C', 'C', 'C', 'C', 'C', 'C', 'C', 'C']","[942932, 943524, 944111, 944737, 945358, 945898, 946457, 947004, 947570, 948094, 948639, 949168, 949724, 950288, 950848, 951373, 951877, 952413, 952955, 953481]","[943076, 943655, 944263, 944847, 945481, 946054, 946629, 947186, 947737, 948284, 948840, 949366, 949926, 950507, 951024, 951531, 952099, 952637, 953150, 953674]","[92, 51, 45, 43, 52, 34, 66, 91, 42, 33, 63, 51, 35, 228, 30, 75, 97, 72, 73, 60]","[942937, 943529, 944114, 944741, 945362, 945902, 946461, 947007, 947574, 948099, 948644, 949172, 949728, 950293, 950852, 951377, 951881, 952416, 952960, 953485]","[940635, 941235, 941835, 942435, 943035, 943635, 944235, 944835, 945378, 945918, 946477, 947024, 947590, 948114, 948659, 949188, 949744, 950308, 950868, 951393, 951897, 952433, 952975, 953501]",82,EM,L,R,ITMSR,1.1,
0,600,trial,0,45,45,45,trial,"['S', 'S', 'S', 'S', 'S', 'S', 'C', 'C', 'C', 'C', 'C', 'C', 'C', 'C', 'C', 'C', 'C', 'C', 'C', 'C', 'C', 'C']","[960279, 960927, 961515, 962121, 962677, 963297, 963884, 964431, 965009, 965622, 966131, 966643, 967133, 967739, 968268, 968775, 969244, 969761, 970232, 970735, 971248, 971765]","[960398, 961039, 961581, 962196, 962768, 963400, 963986, 964539, 965107, 965699, 966235, 966757, 967273, 967847, 968388, 968895, 969372, 969867, 970345, 970853, 971406, 971914]","[208, 188, 63, 175, 180, 204, 187, 194, 162, 96, 181, 146, 139, 135, 161, 155, 126, 127, 147, 120, 7, 62]","[960283, 960932, 961522, 962126, 962682, 963341, 963936, 964484, 965015, 965627, 966136, 966649, 967197, 967792, 968275, 968840, 969250, 969767, 970237, 970781, 971339, 971769]","[959192, 959790, 960390, 960990, 961590, 962190, 962790, 963390, 963904, 964451, 965029, 965642, 966151, 966663, 967153, 967759, 968288, 968795, 969264, 969781, 970252, 970755, 971268, 971785]",82,EM,L,R,ITMSR,1.1,
3,400,trial,0,46,46,46,trial,"['S', 'S', 'S', 'S', 'S', 'S', 'C', 'C', 'C', 'C', 'C', 'C', 'C', 'C', 'C', 'C', 'C', 'C', 'C', 'C', 'C', 'C']","[977924, 978301, 978708, 979072, 979495, 979900, 980304, 980706, 981114, 981488, 981904, 982270, 982671, 983090, 983477, 983905, 984276, 984646, 985013, 985370, 985775, 986158]","[978027, 978406, 978810, 979187, 979604, 980008, 980413, 980799, 981219, 981605, 981999, 982383, 982766, 983176, 983580, 983966, 984351, 984733, 985109, 985469, 985867, 986238]","[33, 243, 19, 94, 75, 61, 48, 59, 60, 16, 32, 23, 48, 1, 43, 200, 225, 9, 252, 4, 248, 131]","[977928, 978359, 978713, 979076, 979500, 979905, 980310, 980711, 981120, 981494, 981909, 982276, 982676, 983095, 983482, 983911, 984282, 984650, 985018, 985375, 985781, 986164]","[977182, 977582, 977982, 978382, 978782, 979182, 979582, 979982, 980324, 980726, 981134, 981508, 981924, 982290, 982691, 983110, 983497, 983925, 984296, 984666, 985033, 985390, 985795, 986178]",82,EM,L,R,ITMSR,1.1,
4,400,trial,0,47,47,47,trial,"['S', 'S', 'S', 'S', 'S', 'S', 'C', 'C', 'C', 'C', 'C', 'C', 'C', 'C', 'C', 'C', 'C', 'C', 'C', 'C', 'C', 'C']","[992336, 992748, 993201, 993580, 993945, 994324, 994740, 995125, 995510, 995892, 996292, 996676, 997043, 997387, 997754, 998145, 998530, 998929, 999267, 999663, 1000052, 1000412]","[992443, 992850, 993270, 993651, 994009, 994376, 994777, 995182, 995574, 995972, 996356, 996728, 997115, 997456, 997838, 998204, 998595, 998979, 999331, 999721, 1000129, 1000488]","[68, 241, 167, 98, 125, 147, 173, 198, 214, 16, 17, 244, 58, 59, 49, 34, 16, 218, 233, 221, 243, 4]","[992340, 992754, 993207, 993585, 993950, 994329, 994745, 995129, 995515, 995896, 996297, 996681, 997047, 997391, 997758, 998149, 998534, 998934, 999271, 999667, 1000056, 1000416]","[991619, 992019, 992419, 992819, 993219, 993619, 994019, 994419, 994760, 995145, 995530, 995912, 996312, 996696, 997063, 997407, 997774, 998165, 998550, 998949, 999287, 999683, 1000072, 1000432]",82,EM,L,R,ITMSR,1.1,
1,600,trial,0,48,48,48,trial,"['S', 'S', 'S', 'S', 'S', 'S', 'S', 'S', 'S', 'S', 'C', 'C', 'C', 'C', 'C', 'C', 'C', 'C', 'C', 'C', 'C', 'C', 'C', 'C', 'C', 'C']","[1005839, 1006054, 1006240, 1006459, 1006865, 1007495, 1008078, 1008676, 1009259, 1009870, 1010470, 1010995, 1011567, 1012064, 1012585, 1013049, 1013524, 1014047, 1014533, 1014988, 1015489, 1015957, 1016426, 1016912, 1017445, 1017904]","[1005907, 1006113, 1006321, 1006555, 1007006, 1007610, 1008198, 1008782, 1009379, 1009987, 1010604, 1011132, 1011701, 1012179, 1012685, 1013186, 1013641, 1014174, 1014607, 1015092, 1015571, 1016046, 1016536, 1016995, 1017547, 1018032]","[165, 158, 219, 214, 56, 73, 70, 70, 46, 22, 76, 49, 39, 40, 35, 39, 64, 68, 39, 68, 184, 60, 31, 252, 63, 59]","[1005873, 1006083, 1006277, 1006505, 1006869, 1007499, 1008082, 1008680, 1009263, 1009874, 1010475, 1010999, 1011571, 1012068, 1012589, 1013126, 1013529, 1014146, 1014537, 1014992, 1015494, 1015961, 1016431, 1016918, 1017449, 1017909]","[1005826, 1006424, 1007024, 1007624, 1008224, 1008824, 1009424, 1010024, 1010490, 1011015, 1011587, 1012084, 1012605, 1013069, 1013544, 1014067, 1014553, 1015008, 1015510, 1015977, 1016446, 1016932, 1017465, 1017924]",82,EM,L,R,ITMSR,1.1,
5,400,trial,0,49,49,49,trial,"['C', 'C', 'C', 'C', 'C', 'C', 'C', 'C', 'C', 'C', 'C', 'C', 'C', 'C', 'C', 'C']","[1026612, 1027021, 1027419, 1027810, 1028214, 1028558, 1028958, 1029339, 1029724, 1030132, 1030518, 1030886, 1031238, 1031627, 1031991, 1032324]","[1026660, 1027067, 1027476, 1027860, 1028249, 1028629, 1029020, 1029412, 1029794, 1030175, 1030580, 1030957, 1031318, 1031684, 1032065, 1032433]","[68, 71, 86, 45, 15, 96, 60, 85, 48, 224, 41, 34, 74, 76, 84, 108]","[1026617, 1027025, 1027424, 1027815, 1028219, 1028562, 1028963, 1029343, 1029728, 1030138, 1030523, 1030890, 1031242, 1031631, 1031994, 1032327]","[1023439, 1023839, 1024239, 1024640, 1025039, 1025439, 1025839, 1026239, 1026632, 1027041, 1027439, 1027830, 1028234, 1028578, 1028978, 1029359, 1029744, 1030152, 1030538, 1030906, 1031258, 1031647, 1032011, 1032344]",82,EM,L,R,ITMSR,1.1,
2,400,trial,0,50,50,50,trial,"['S', 'S', 'S', 'S', 'S', 'S', 'S', 'S', 'C', 'C', 'C', 'C', 'C', 'C', 'C', 'C', 'C', 'C', 'C', 'C', 'C', 'C', 'C', 'C']","[1038134, 1038416, 1038740, 1039084, 1039491, 1039870, 1040302, 1040692, 1041096, 1041451, 1041867, 1042253, 1042642, 1043059, 1043471, 1043852, 1044236, 1044630, 1045026, 1045423, 1045850, 1046228, 1046618, 1047033]","[1038200, 1038488, 1038839, 1039183, 1039552, 1039971, 1040375, 1040797, 1041189, 1041542, 1041957, 1042343, 1042742, 1043153, 1043540, 1043922, 1044315, 1044702, 1045098, 1045492, 1045901, 1046305, 1046714, 1047113]","[115, 128, 235, 40, 46, 77, 42, 82, 41, 246, 66, 78, 66, 44, 47, 53, 60, 83, 82, 85, 204, 57, 90, 59]","[1038138, 1038422, 1038745, 1039088, 1039495, 1039875, 1040306, 1040696, 1041100, 1041456, 1041871, 1042257, 1042647, 1043064, 1043475, 1043856, 1044240, 1044634, 1045030, 1045427, 1045856, 1046233, 1046622, 1047038]","[1038003, 1038403, 1038803, 1039203, 1039603, 1040003, 1040403, 1040803, 1041116, 1041471, 1041887, 1042273, 1042662, 1043079, 1043491, 1043872, 1044256, 1044651, 1045046, 1045443, 1045870, 1046248, 1046638, 1047053]",82,EM,L,R,ITMSR,1.1,
3,600,trial,0,51,51,51,trial,"['C', 'C', 'C', 'C', 'C', 'C', 'C', 'C', 'C', 'C', 'C', 'C', 'C', 'C', 'C', 'C']","[1057466, 1058068, 1058609, 1059165, 1059733, 1060274, 1060813, 1061348, 1061885, 1062401, 1062953, 1063549, 1064040, 1064609, 1065166, 1065663]","[1057634, 1058212, 1058787, 1059337, 1059860, 1060420, 1060989, 1061528, 1062016, 1062574, 1063130, 1063640, 1064207, 1064743, 1065287, 1065790]","[59, 77, 101, 85, 23, 38, 63, 78, 30, 24, 27, 247, 82, 76, 54, 95]","[1057470, 1058072, 1058613, 1059168, 1059737, 1060278, 1060816, 1061352, 1061889, 1062405, 1062958, 1063554, 1064043, 1064612, 1065170, 1065666]","[1052711, 1053312, 1053912, 1054512, 1055112, 1055712, 1056312, 1056912, 1057486, 1058088, 1058629, 1059185, 1059753, 1060294, 1060833, 1061368, 1061905, 1062421, 1062973, 1063569, 1064060, 1064629, 1065186, 1065683]",82,EM,L,R,ITMSR,1.1,
0,400,trial,0,52,52,52,trial,"['C', 'C', 'C', 'C', 'C', 'C', 'C', 'C', 'C', 'C', 'C', 'C', 'C', 'C', 'C', 'C']","[1074451, 1074852, 1075260, 1075636, 1076067, 1076451, 1076828, 1077198, 1077599, 1077991, 1078369, 1078756, 1079147, 1079527, 1079902, 1080265]","[1074522, 1074937, 1075343, 1075712, 1076127, 1076538, 1076914, 1077278, 1077678, 1078060, 1078453, 1078848, 1079238, 1079626, 1079994, 1080365]","[55, 56, 46, 20, 234, 38, 44, 55, 57, 50, 20, 55, 27, 12, 14, 43]","[1074455, 1074856, 1075265, 1075640, 1076071, 1076455, 1076832, 1077202, 1077604, 1077995, 1078375, 1078761, 1079152, 1079532, 1079906, 1080270]","[1071266, 1071666, 1072066, 1072466, 1072866, 1073266, 1073666, 1074066, 1074471, 1074872, 1075280, 1075656, 1076087, 1076471, 1076848, 1077218, 1077619, 1078011, 1078389, 1078776, 1079168, 1079547, 1079922, 1080285]",82,EM,L,R,ITMSR,1.1,
4,600,trial,0,53,53,53,trial,"['S', 'S', 'S', 'S', 'C', 'C', 'C', 'C', 'C', 'C', 'C', 'C', 'C', 'C', 'C', 'C', 'C', 'C', 'C', 'C']","[1088230, 1088823, 1089396, 1089991, 1090588, 1091132, 1091688, 1092210, 1092792, 1093294, 1093817, 1094319, 1094819, 1095343, 1095828, 1096343, 1096828, 1097327, 1097820, 1098292]","[1088314, 1088892, 1089485, 1090092, 1090655, 1091234, 1091819, 1092332, 1092912, 1093456, 1093946, 1094449, 1094965, 1095465, 1096033, 1096519, 1097029, 1097498, 1097978, 1098452]","[151, 184, 10, 61, 119, 171, 211, 212, 164, 248, 229, 10, 238, 98, 252, 107, 198, 197, 12, 255]","[1088237, 1088830, 1089434, 1090041, 1090594, 1091172, 1091760, 1092213, 1092796, 1093381, 1093822, 1094323, 1094824, 1095348, 1095832, 1096349, 1096834, 1097331, 1097825, 1098297]","[1085917, 1086517, 1087117, 1087717, 1088317, 1088917, 1089517, 1090117, 1090608, 1091152, 1091708, 1092230, 1092812, 1093314, 1093837, 1094339, 1094839, 1095363, 1095848, 1096364, 1096848, 1097347, 1097840, 1098312]",82,EM,L,R,ITMSR,1.1,
4,600,trial,0,54,54,54,trial,"['C', 'C', 'C', 'C', 'C', 'C', 'C', 'C', 'C', 'C', 'C', 'C', 'C', 'C', 'C', 'C']","[1126124, 1126669, 1127188, 1127772, 1128255, 1128773, 1129296, 1129842, 1130341, 1130871, 1131385, 1131889, 1132409, 1132913, 1133445, 1133946]","[1126235, 1126773, 1127311, 1127879, 1128373, 1128902, 1129407, 1129967, 1130510, 1130985, 1131514, 1132004, 1132488, 1133011, 1133556, 1134029]","[64, 30, 247, 17, 197, 252, 148, 178, 243, 207, 238, 237, 238, 159, 143, 112]","[1126129, 1126674, 1127193, 1127777, 1128260, 1128778, 1129303, 1129848, 1130346, 1130876, 1131392, 1131894, 1132413, 1132918, 1133449, 1133952]","[1121371, 1121971, 1122571, 1123171, 1123771, 1124371, 1124971, 1125571, 1126145, 1126689, 1127208, 1127792, 1128275, 1128793, 1129316, 1129862, 1130361, 1130891, 1131405, 1131909, 1132429, 1132933, 1133465, 1133966]",82,EM,L,R,ITMSR,1.1,
5,400,trial,0,55,55,55,trial,"['S', 'S', 'S', 'S', 'S', 'S', 'S', 'C', 'C', 'C', 'C', 'C', 'C', 'C', 'C', 'C', 'C', 'C', 'C', 'C', 'C', 'C', 'C']","[1139720, 1140091, 1140442, 1140835, 1141229, 1141648, 1142048, 1142424, 1142823, 1143218, 1143601, 1143957, 1144358, 1144731, 1145088, 1145473, 1145836, 1146203, 1146616, 1146958, 1147317, 1147689, 1148033]","[1139819, 1140180, 1140545, 1140946, 1141357, 1141742, 1142145, 1142550, 1142915, 1143305, 1143692, 1144060, 1144468, 1144816, 1145175, 1145566, 1145963, 1146307, 1146699, 1147060, 1147420, 1147773, 1148121]","[18, 63, 75, 83, 95, 118, 114, 111, 106, 107, 112, 121, 110, 99, 122, 111, 63, 66, 35, 62, 75, 88, 109]","[1139726, 1140096, 1140446, 1140839, 1141233, 1141652, 1142052, 1142428, 1142828, 1143222, 1143605, 1143960, 1144363, 1144734, 1145091, 1145477, 1145840, 1146207, 1146620, 1146962, 1147321, 1147694, 1148037]","[1139279, 1139679, 1140079, 1140480, 1140879, 1141279, 1141679, 1142079, 1142445, 1142843, 1143238, 1143621, 1143977, 1144378, 1144751, 1145108, 1145493, 1145857, 1146223, 1146636, 1146978, 1147337, 1147709, 1148053]",82,EM,L,R,ITMSR,1.1,
3,400,trial,0,56,56,56,trial,"['S', 'S', 'S', 'S', 'S', 'S', 'C', 'C', 'C', 'C', 'C', 'C', 'C', 'C', 'C', 'C', 'C', 'C', 'C', 'C', 'C', 'C']","[1154238, 1154667, 1155069, 1155452, 1155832, 1156253, 1156664, 1157054, 1157413, 1157776, 1158149, 1158473, 1158840, 1159177, 1159531, 1159884, 1160268, 1160630, 1160989, 1161347, 1161696, 1162036]","[1154365, 1154772, 1155191, 1155585, 1155973, 1156385, 1156780, 1157145, 1157545, 1157884, 1158256, 1158603, 1158946, 1159283, 1159635, 1159971, 1160332, 1160692, 1161037, 1161397, 1161756, 1162105]","[220, 6, 88, 97, 49, 43, 84, 37, 72, 77, 81, 53, 73, 44, 3, 248, 40, 29, 28, 23, 43, 43]","[1154244, 1154672, 1155074, 1155457, 1155837, 1156257, 1156668, 1157058, 1157417, 1157780, 1158153, 1158477, 1158844, 1159181, 1159535, 1159888, 1160271, 1160634, 1160993, 1161351, 1161699, 1162040]","[1153543, 1153943, 1154343, 1154743, 1155143, 1155544, 1155944, 1156344, 1156684, 1157074, 1157433, 1157796, 1158169, 1158493, 1158860, 1159197, 1159552, 1159904, 1160288, 1160650, 1161009, 1161367, 1161716, 1162056]",82,EM,L,R,ITMSR,1.1,
4,600,trial,0,57,57,57,trial,"['S', 'S', 'S', 'S', 'S', 'S', 'S', 'S', 'S', 'C', 'C', 'C', 'C', 'C', 'C', 'C', 'C', 'C', 'C', 'C', 'C', 'C', 'C', 'C', 'C']","[1167832, 1168029, 1168219, 1168802, 1169463, 1170030, 1170621, 1171259, 1171869, 1172474, 1173049, 1173577, 1174098, 1174625, 1175151, 1175667, 1176162, 1176653, 1177163, 1177650, 1178157, 1178627, 1179045, 1179522, 1179972]","[1167884, 1168074, 1168277, 1168931, 1169533, 1170105, 1170712, 1171329, 1171937, 1172547, 1173130, 1173656, 1174198, 1174692, 1175214, 1175746, 1176264, 1176740, 1177260, 1177747, 1178221, 1178701, 1179137, 1179632, 1180089]","[187, 165, 184, 62, 71, 216, 40, 211, 14, 252, 28, 61, 85, 58, 53, 78, 99, 78, 55, 50, 32, 55, 56, 39, 47]","[1167838, 1168036, 1168249, 1168806, 1169467, 1170035, 1170625, 1171265, 1171874, 1172478, 1173054, 1173581, 1174103, 1174629, 1175155, 1175671, 1176166, 1176657, 1177167, 1177654, 1178160, 1178630, 1179049, 1179526, 1179976]","[1167749, 1168349, 1168949, 1169549, 1170149, 1170749, 1171349, 1171949, 1172494, 1173069, 1173597, 1174118, 1174645, 1175171, 1175687, 1176182, 1176673, 1177183, 1177670, 1178177, 1178647, 1179065, 1179542, 1179992]",82,EM,L,R,ITMSR,1.1,
5,600,trial,0,58,58,58,trial,"['B', 'S', 'S', 'S', 'S', 'S', 'S', 'S', 'S', 'S', 'S', 'S', 'S', 'S', 'C', 'C', 'C', 'C', 'C', 'C', 'C', 'C', 'C', 'C', 'C', 'C', 'C', 'C', 'C', 'C']","[1185616, 1185767, 1185959, 1186172, 1186393, 1186611, 1186814, 1187040, 1187241, 1187462, 1187890, 1188423, 1189074, 1189686, 1190304, 1190812, 1191360, 1191865, 1192359, 1192836, 1193295, 1193750, 1194236, 1194703, 1195152, 1195593, 1196037, 1196456, 1196902, 1197351]","[1185636, 1185841, 1186040, 1186251, 1186463, 1186697, 1186904, 1187107, 1187341, 1187575, 1188104, 1188793, 1189407, 1190017, 1190554, 1191071, 1191598, 1192095, 1192569, 1193020, 1193499, 1193988, 1194416, 1194859, 1195319, 1195771, 1196211, 1196624, 1197063, 1197535]","[209, 197, 88, 47, 73, 160, 100, 61, 141, 173, 14, 58, 95, 92, 79, 68, 82, 106, 70, 87, 112, 112, 71, 95, 91, 99, 102, 88, 79, 88]","[1185616, 1185771, 1185992, 1186179, 1186397, 1186615, 1186821, 1187046, 1187286, 1187512, 1187893, 1188425, 1189076, 1189688, 1190307, 1190815, 1191363, 1191867, 1192363, 1192839, 1193297, 1193752, 1194240, 1194706, 1195154, 1195595, 1196039, 1196459, 1196905, 1197355]","[1185630, 1186230, 1186830, 1187430, 1188030, 1188630, 1189230, 1189830, 1190324, 1190832, 1191380, 1191885, 1192379, 1192856, 1193315, 1193771, 1194256, 1194723, 1195172, 1195613, 1196057, 1196476, 1196922, 1197371]",82,EM,L,R,ITMSR,1.1,
4,400,trial,0,59,59,59,trial,"['S', 'S', 'S', 'S', 'S', 'S', 'S', 'S', 'C', 'C', 'C', 'C', 'C', 'C', 'C', 'C', 'C', 'C', 'C', 'C', 'C', 'C', 'C', 'C']","[1202939, 1203173, 1203547, 1203907, 1204332, 1204764, 1205164, 1205539, 1205947, 1206334, 1206728, 1207072, 1207459, 1207817, 1208207, 1208574, 1208958, 1209313, 1209647, 1209985, 1210310, 1210663, 1211005, 1211346]","[1203002, 1203283, 1203677, 1204074, 1204511, 1204928, 1205318, 1205722, 1206105, 1206497, 1206870, 1207243, 1207623, 1207954, 1208356, 1208729, 1209080, 1209445, 1209769, 1210098, 1210443, 1210779, 1211125, 1211517]","[225, 190, 56, 57, 104, 133, 143, 127, 121, 104, 127, 115, 132, 113, 124, 123, 113, 103, 108, 86, 95, 104, 117, 131]","[1202946, 1203180, 1203552, 1203911, 1204336, 1204768, 1205167, 1205542, 1205950, 1206338, 1206732, 1207076, 1207462, 1207821, 1208210, 1208579, 1208962, 1209317, 1209651, 1209989, 1210313, 1210668, 1211010, 1211350]","[1202827, 1203227, 1203628, 1204027, 1204427, 1204827, 1205227, 1205627, 1205967, 1206354, 1206748, 1207092, 1207479, 1207837, 1208227, 1208594, 1208978, 1209333, 1209667, 1210005, 1210330, 1210683, 1211025, 1211366]",82,EM,L,R,ITMSR,1.1,
1,400,trial,0,60,60,60,trial,"['S', 'S', 'S', 'S', 'S', 'S', 'S', 'S', 'S', 'S', 'S', 'C', 'C', 'C', 'C', 'C', 'C', 'C', 'C', 'C', 'C', 'C', 'C', 'C', 'C', 'C', 'C']","[1217013, 1217214, 1217395, 1217583, 1217804, 1217984, 1218219, 1218573, 1218947, 1219333, 1219761, 1220177, 1220560, 1220935, 1221288, 1221679, 1222052, 1222433, 1222814, 1223222, 1223584, 1223960, 1224348, 1224727, 1225082, 1225420, 1225809]","[1217085, 1217267, 1217460, 1217654, 1217870, 1218060, 1218350, 1218724, 1219144, 1219534, 1219949, 1220368, 1220722, 1221120, 1221469, 1221828, 1222217, 1222600, 1222963, 1223357, 1223726, 1224128, 1224510, 1224868, 1225229, 1225586, 1225966]","[120, 143, 117, 117, 176, 11, 32, 105, 100, 88, 107, 79, 68, 99, 96, 91, 97, 91, 89, 98, 78, 78, 95, 67, 96, 101, 85]","[1217047, 1217222, 1217403, 1217613, 1217811, 1218013, 1218290, 1218577, 1218951, 1219336, 1219764, 1220182, 1220646, 1220939, 1221370, 1221758, 1222056, 1222437, 1222879, 1223226, 1223588, 1224040, 1224424, 1224730, 1225085, 1225503, 1225814]","[1217011, 1217411, 1217811, 1218211, 1218611, 1219011, 1219411, 1219811, 1220197, 1220580, 1220955, 1221308, 1221699, 1222072, 1222453, 1222834, 1223242, 1223604, 1223981, 1224368, 1224748, 1225102, 1225440, 1225829]",82,EM,L,R,ITMSR,1.1,
2,400,trial,0,61,61,61,trial,"['B', 'S', 'S', 'S', 'C', 'C', 'C', 'C', 'C', 'C', 'C', 'C', 'C', 'C', 'C', 'C', 'C', 'C', 'C', 'C']","[1231221, 1233226, 1233632, 1233993, 1234417, 1234838, 1235239, 1235628, 1236016, 1236390, 1236788, 1237179, 1237593, 1237961, 1238341, 1238761, 1239146, 1239534, 1239917, 1240289]","[1233028, 1233370, 1233743, 1234147, 1234551, 1234958, 1235356, 1235713, 1236112, 1236497, 1236888, 1237267, 1237676, 1238069, 1238439, 1238850, 1239229, 1239620, 1240015, 1240393]","[136, 211, 74, 97, 134, 136, 131, 113, 101, 98, 120, 88, 101, 52, 83, 95, 85, 62, 89, 101]","[1231526, 1233229, 1233633, 1233996, 1234420, 1234841, 1235244, 1235631, 1236019, 1236393, 1236791, 1237183, 1237596, 1237965, 1238344, 1238764, 1239149, 1239538, 1239920, 1240293]","[1231233, 1231632, 1232032, 1232432, 1232832, 1233232, 1233632, 1234032, 1234437, 1234859, 1235259, 1235648, 1236036, 1236410, 1236808, 1237199, 1237613, 1237981, 1238361, 1238781, 1239166, 1239554, 1239938, 1240309]",82,EM,L,R,ITMSR,1.1,
3,600,trial,0,62,62,62,trial,"['S', 'S', 'S', 'S', 'S', 'C', 'C', 'C', 'C', 'C', 'C', 'C', 'C', 'C', 'C', 'C', 'C', 'C', 'C', 'C', 'C']","[1247793, 1248427, 1249038, 1249597, 1250194, 1250799, 1251356, 1251897, 1252468, 1252997, 1253553, 1254070, 1254583, 1255142, 1255697, 1256254, 1256771, 1257310, 1257819, 1258341, 1258868]","[1247933, 1248528, 1249167, 1249759, 1250349, 1250944, 1251521, 1252081, 1252612, 1253157, 1253720, 1254222, 1254772, 1255325, 1255829, 1256401, 1256934, 1257499, 1258008, 1258498, 1259060]","[68, 45, 233, 38, 1, 93, 77, 44, 68, 95, 12, 22, 34, 21, 35, 25, 45, 16, 58, 50, 61]","[1247796, 1248431, 1249042, 1249601, 1250198, 1250802, 1251359, 1251900, 1252472, 1253000, 1253557, 1254073, 1254586, 1255146, 1255700, 1256258, 1256775, 1257313, 1257822, 1258344, 1258871]","[1246083, 1246683, 1247283, 1247883, 1248483, 1249083, 1249683, 1250283, 1250819, 1251376, 1251917, 1252488, 1253017, 1253573, 1254090, 1254603, 1255162, 1255717, 1256274, 1256792, 1257330, 1257839, 1258361, 1258888]",82,EM,L,R,ITMSR,1.1,
1,400,trial,0,63,63,63,trial,"['S', 'S', 'S', 'S', 'S', 'S', 'C', 'C', 'C', 'C', 'C', 'C', 'C', 'C', 'C', 'C', 'C', 'C', 'C', 'C', 'C', 'C']","[1265053, 1265459, 1265867, 1266263, 1266643, 1267062, 1267490, 1267873, 1268251, 1268630, 1269009, 1269370, 1269787, 1270154, 1270557, 1270918, 1271324, 1271700, 1272079, 1272467, 1272838, 1273246]","[1265131, 1265561, 1265973, 1266355, 1266763, 1267180, 1267613, 1267999, 1268387, 1268748, 1269147, 1269505, 1269908, 1270291, 1270648, 1271032, 1271410, 1271802, 1272193, 1272582, 1272960]","[1, 232, 229, 240, 217, 18, 19, 235, 228, 241, 14, 21, 18, 208, 0, 28, 56, 29, 50, 31, 4]","[1265057, 1265464, 1265871, 1266267, 1266648, 1267065, 1267493, 1267876, 1268255, 1268634, 1269013, 1269373, 1269791, 1270159, 1270561, 1270922, 1271328, 1271703, 1272083, 1272471, 1272842]","[1264315, 1264714, 1265114, 1265514, 1265914, 1266314, 1266714, 1267115, 1267510, 1267893, 1268271, 1268651, 1269029, 1269390, 1269807, 1270174, 1270577, 1270938, 1271344, 1271720, 1272099, 1272487, 1272858, 1273266]",82,EM,L,R,ITMSR,1.1,
0,400,trial,0,64,64,64,trial,"['S', 'C', 'C', 'C', 'C', 'C', 'C', 'C', 'C', 'C', 'C', 'C', 'C', 'C', 'C', 'C', 'C']","[1281438, 1281774, 1282171, 1282529, 1282926, 1283338, 1283724, 1284116, 1284514, 1284929, 1285327, 1285715, 1286105, 1286494, 1286909, 1287292, 1287719]","[1281458, 1281899, 1282280, 1282683, 1283067, 1283464, 1283854, 1284253, 1284659, 1285069, 1285442, 1285848, 1286231, 1286623, 1287028, 1287453, 1287908]","[3, 90, 76, 65, 86, 77, 77, 84, 85, 88, 103, 92, 79, 91, 88, 97, 95]","[1281443, 1281778, 1282174, 1282533, 1282930, 1283342, 1283727, 1284120, 1284518, 1284932, 1285331, 1285719, 1286108, 1286497, 1286913, 1287296, 1287724]","[1278579, 1278979, 1279379, 1279779, 1280179, 1280579, 1280979, 1281379, 1281794, 1282191, 1282549, 1282946, 1283358, 1283744, 1284136, 1284534, 1284950, 1285347, 1285735, 1286125, 1286514, 1286929, 1287312, 1287739]",82,EM,L,R,ITMSR,1.1,
0,400,trial,0,65,65,65,trial,"['S', 'S', 'S', 'S', 'S', 'S', 'C', 'C', 'C', 'C', 'C', 'C', 'C', 'C', 'C', 'C', 'C', 'C', 'C', 'C', 'C', 'C']","[1294238, 1294669, 1295054, 1295456, 1295843, 1296245, 1296676, 1297093, 1297482, 1297871, 1298247, 1298639, 1299013, 1299448, 1299822, 1300188, 1300575, 1300929, 1301322, 1301732, 1302121, 1302508]","[1294328, 1294769, 1295164, 1295554, 1295951, 1296371, 1296761, 1297180, 1297599, 1297988, 1298355, 1298722, 1299103, 1299512, 1299914, 1300290, 1300668, 1301028, 1301425, 1301809, 1302227, 1302614]","[1, 3, 10, 29, 25, 52, 61, 41, 65, 56, 43, 25, 48, 11, 45, 56, 22, 12, 13, 224, 48, 51]","[1294243, 1294674, 1295058, 1295460, 1295847, 1296250, 1296680, 1297096, 1297533, 1297929, 1298251, 1298643, 1299056, 1299454, 1299859, 1300238, 1300615, 1300972, 1301366, 1301768, 1302172, 1302550]","[1293515, 1293915, 1294315, 1294715, 1295115, 1295515, 1295916, 1296315, 1296696, 1297113, 1297502, 1297891, 1298267, 1298659, 1299033, 1299468, 1299842, 1300208, 1300595, 1300950, 1301342, 1301752, 1302141, 1302529]",82,EM,L,R,ITMSR,1.1,
1,600,trial,0,66,66,66,trial,"['S', 'S', 'S', 'S', 'S', 'S', 'C', 'C', 'C', 'C', 'C', 'C', 'C', 'C', 'C', 'C', 'C', 'C', 'C', 'C', 'C', 'C']","[1309027, 1309627, 1310188, 1310815, 1311390, 1311973, 1312591, 1313058, 1313520, 1314020, 1314491, 1314969, 1315486, 1315988, 1316489, 1316944, 1317406, 1317876, 1318376, 1318841, 1319291, 1319708]","[1309134, 1309728, 1310281, 1310905, 1311494, 1312061, 1312675, 1313157, 1313617, 1314147, 1314612, 1315120, 1315630, 1316151, 1316617, 1317085, 1317525, 1317980, 1318455, 1318920, 1319369, 1319821]","[24, 52, 77, 70, 35, 21, 209, 49, 31, 46, 48, 70, 81, 113, 65, 94, 26, 219, 0, 150, 224, 40]","[1309085, 1309631, 1310192, 1310819, 1311450, 1311978, 1312634, 1313062, 1313564, 1314080, 1314537, 1315037, 1315557, 1316069, 1316554, 1316947, 1317466, 1317881, 1318380, 1318846, 1319297, 1319752]","[1307926, 1308526, 1309126, 1309726, 1310326, 1310926, 1311526, 1312126, 1312611, 1313078, 1313540, 1314040, 1314511, 1314989, 1315506, 1316008, 1316509, 1316964, 1317426, 1317896, 1318396, 1318861, 1319311, 1319728]",82,EM,L,R,ITMSR,1.1,
5,400,trial,0,67,67,67,trial,"['S', 'S', 'S', 'S', 'S', 'S', 'C', 'C', 'C', 'C', 'C', 'C', 'C', 'C', 'C', 'C', 'C', 'C', 'C', 'C', 'C', 'C']","[1325555, 1325829, 1326179, 1326637, 1327859, 1328209, 1328679, 1329040, 1329428, 1329808, 1330189, 1330554, 1330954, 1331311, 1331675, 1332040, 1332446, 1332801, 1333131, 1333456, 1333831, 1334214]","[1325647, 1325916, 1326280, 1326657, 1327917, 1328317, 1328779, 1329149, 1329500, 1329885, 1330256, 1330626, 1330993, 1331371, 1331721, 1332113, 1332480, 1332847, 1333202, 1333538, 1333910, 1334304]","[232, 184, 210, 44, 28, 97, 135, 99, 42, 65, 50, 254, 212, 34, 12, 4, 208, 41, 27, 57, 7, 61]","[1325598, 1325833, 1326183, 1326639, 1327864, 1328212, 1328683, 1329043, 1329432, 1329811, 1330192, 1330558, 1330958, 1331315, 1331679, 1332044, 1332451, 1332804, 1333135, 1333460, 1333835, 1334218]","[1325516, 1325916, 1326316, 1326716, 1327116, 1327516, 1327917, 1328317, 1328699, 1329060, 1329448, 1329828, 1330209, 1330574, 1330974, 1331331, 1331695, 1332060, 1332466, 1332822, 1333151, 1333476, 1333851, 1334234]",82,EM,L,R,ITMSR,1.1,
2,600,trial,0,68,68,68,trial,"['B', 'S', 'S', 'S', 'S', 'S', 'S', 'S', 'S', 'S', 'C', 'C', 'C', 'C', 'C', 'C', 'C', 'C', 'C', 'C', 'C', 'C', 'C', 'C', 'C', 'C']","[1339629, 1339838, 1340030, 1340254, 1340774, 1341283, 1341913, 1342460, 1343099, 1343716, 1344305, 1344791, 1345331, 1345835, 1346351, 1346856, 1347343, 1347824, 1348317, 1348772, 1349215, 1349643, 1350160, 1350607, 1351051, 1351477]","[1339757, 1339950, 1340174, 1340410, 1340911, 1341381, 1342027, 1342588, 1343219, 1343821, 1344435, 1344929, 1345434, 1345967, 1346448, 1346961, 1347469, 1347943, 1348401, 1348835, 1349285, 1349745, 1350223, 1350692, 1351158, 1351598]","[88, 66, 180, 212, 104, 77, 89, 109, 7, 55, 91, 84, 51, 77, 98, 111, 112, 118, 38, 76, 63, 12, 48, 79, 77, 87]","[1339629, 1339873, 1340082, 1340333, 1340777, 1341288, 1341916, 1342465, 1343106, 1343720, 1344309, 1344794, 1345334, 1345838, 1346354, 1346860, 1347346, 1347826, 1348320, 1348775, 1349218, 1349646, 1350163, 1350610, 1351054, 1351480]","[1339640, 1340239, 1340839, 1341440, 1342040, 1342640, 1343240, 1343840, 1344325, 1344812, 1345351, 1345855, 1346371, 1346876, 1347363, 1347844, 1348337, 1348792, 1349235, 1349663, 1350180, 1350627, 1351071, 1351497]",82,EM,L,R,ITMSR,1.1,
3,600,trial,0,69,69,69,trial,"['S', 'S', 'C', 'C', 'C', 'C', 'C', 'C', 'C', 'C', 'C', 'C', 'C', 'C', 'C', 'C', 'C', 'C']","[1358132, 1358661, 1361722, 1362247, 1362819, 1363377, 1363930, 1364469, 1364974, 1365502, 1366036, 1366574, 1367047, 1367588, 1368104, 1368595, 1369081, 1369576]","[1358243, 1358745, 1361827, 1362387, 1362993, 1363514, 1364084, 1364614, 1365180, 1365678, 1366155, 1366695, 1367195, 1367705, 1368216, 1368716, 1369218, 1369705]","[35, 181, 79, 51, 60, 62, 64, 4, 55, 63, 79, 57, 42, 60, 44, 55, 24, 37]","[1358150, 1358668, 1361725, 1362251, 1362822, 1363380, 1363934, 1364474, 1364977, 1365506, 1366039, 1366577, 1367050, 1367591, 1368108, 1368598, 1369085, 1369579]","[1356988, 1357588, 1358188, 1358788, 1359388, 1359988, 1360588, 1361188, 1361742, 1362267, 1362839, 1363397, 1363950, 1364489, 1364994, 1365522, 1366056, 1366594, 1367067, 1367608, 1368124, 1368615, 1369101, 1369596]",82,EM,L,R,ITMSR,1.1,
2,400,trial,0,70,70,70,trial,"['S', 'S', 'S', 'S', 'S', 'C', 'C', 'C', 'C', 'C', 'C', 'C', 'C', 'C', 'C', 'C', 'C', 'C', 'C', 'C', 'C']","[1376081, 1376494, 1376847, 1377224, 1377643, 1378078, 1378460, 1378889, 1379302, 1379684, 1380067, 1380451, 1380818, 1381161, 1381509, 1381858, 1382222, 1382587, 1382894, 1383251, 1383619]","[1376150, 1376539, 1376907, 1377313, 1377724, 1378163, 1378557, 1378949, 1379375, 1379764, 1380146, 1380535, 1380879, 1381234, 1381579, 1381951, 1382286, 1382650, 1382945, 1383304, 1383677]","[48, 79, 93, 106, 63, 27, 6, 76, 46, 22, 39, 70, 28, 10, 253, 19, 240, 42, 169, 52, 71]","[1376086, 1376498, 1376851, 1377228, 1377648, 1378082, 1378464, 1378893, 1379306, 1379688, 1380070, 1380454, 1380823, 1381167, 1381513, 1381863, 1382226, 1382591, 1382898, 1383256, 1383623]","[1374912, 1375312, 1375712, 1376112, 1376513, 1376912, 1377312, 1377712, 1378098, 1378480, 1378909, 1379322, 1379704, 1380087, 1380471, 1380838, 1381181, 1381529, 1381878, 1382242, 1382607, 1382914, 1383271, 1383640]",82,EM,L,R,ITMSR,1.1,
3,400,trial,0,71,71,71,trial,"['B', 'S', 'S', 'S', 'S', 'S', 'C', 'C', 'C', 'C', 'C', 'C', 'C', 'C', 'C', 'C', 'C', 'C', 'C', 'C', 'C', 'C']","[1389109, 1390238, 1390662, 1391007, 1391434, 1391869, 1392278, 1392660, 1393036, 1393406, 1393783, 1394149, 1394503, 1394880, 1395273, 1395636, 1396017, 1396359, 1396753, 1397124, 1397497, 1397853]","[1389851, 1390364, 1390764, 1391086, 1391535, 1391964, 1392367, 1392745, 1393116, 1393480, 1393850, 1394225, 1394572, 1394900, 1395351, 1395715, 1396092, 1396456, 1396841, 1397209, 1397587, 1397932]","[148, 103, 87, 101, 98, 67, 105, 67, 66, 33, 50, 251, 49, 56, 13, 10, 244, 39, 53, 18, 33, 19]","[1389720, 1390242, 1390666, 1391010, 1391438, 1391874, 1392282, 1392664, 1393039, 1393411, 1393787, 1394153, 1394507, 1394884, 1395277, 1395639, 1396021, 1396363, 1396757, 1397128, 1397500, 1397857]","[1389121, 1389521, 1389921, 1390321, 1390722, 1391122, 1391522, 1391922, 1392299, 1392680, 1393056, 1393426, 1393803, 1394169, 1394523, 1394900, 1395293, 1395656, 1396037, 1396379, 1396773, 1397144, 1397517, 1397873]",82,EM,L,R,ITMSR,1.1,
4,400,trial,0,72,72,72,trial,"['S', 'S', 'S', 'S', 'S', 'S', 'C', 'C', 'C', 'C', 'C', 'C', 'C', 'C', 'C', 'C', 'C', 'C', 'C', 'C', 'C', 'C']","[1404125, 1404526, 1404921, 1405338, 1405707, 1406110, 1406494, 1406898, 1407299, 1407650, 1408041, 1408417, 1408782, 1409163, 1409525, 1409886, 1410276, 1410628, 1410978, 1411339, 1411700, 1412056]","[1404221, 1404600, 1405003, 1405412, 1405775, 1406187, 1406594, 1406954, 1407380, 1407745, 1408124, 1408492, 1408862, 1409233, 1409590, 1409960, 1410332, 1410710, 1411052, 1411403, 1411780, 1412124]","[47, 151, 253, 164, 44, 26, 50, 30, 42, 88, 122, 111, 63, 59, 76, 91, 46, 72, 84, 98, 70, 47]","[1404130, 1404532, 1404926, 1405344, 1405711, 1406114, 1406498, 1406903, 1407303, 1407654, 1408045, 1408420, 1408786, 1409167, 1409529, 1409889, 1410281, 1410632, 1410982, 1411343, 1411704, 1412060]","[1403372, 1403772, 1404172, 1404572, 1404973, 1405373, 1405773, 1406173, 1406514, 1406918, 1407320, 1407670, 1408061, 1408437, 1408802, 1409183, 1409545, 1409906, 1410296, 1410648, 1410998, 1411359, 1411720, 1412076]",82,EM,L,R,ITMSR,1.1,
0,600,trial,0,73,73,73,trial,"['S', 'S', 'S', 'S', 'S', 'S', 'S', 'C', 'C', 'C', 'C', 'C', 'C', 'C', 'C', 'C', 'C', 'C', 'C', 'C', 'C', 'C', 'C']","[1417911, 1418157, 1418749, 1419355, 1419973, 1420562, 1421745, 1422355, 1422902, 1423433, 1423980, 1424509, 1425026, 1425565, 1426096, 1426663, 1427183, 1427706, 1428246, 1428762, 1429254, 1429766, 1430256]","[1417943, 1418229, 1418819, 1419411, 1420049, 1420628, 1421814, 1422432, 1422993, 1423544, 1424086, 1424614, 1425144, 1425696, 1426187, 1426759, 1427321, 1427825, 1428362, 1428875, 1429391, 1429900, 1430384]","[169, 34, 24, 146, 193, 12, 222, 160, 146, 199, 180, 160, 189, 136, 190, 181, 2, 28, 252, 46, 246, 19, 38]","[1417918, 1418162, 1418755, 1419359, 1419978, 1420567, 1421750, 1422360, 1422906, 1423438, 1423985, 1424550, 1425074, 1425636, 1426100, 1426668, 1427187, 1427710, 1428250, 1428766, 1429258, 1429770, 1430259]","[1417688, 1418288, 1418888, 1419488, 1420088, 1420688, 1421288, 1421888, 1422375, 1422922, 1423453, 1424001, 1424529, 1425046, 1425585, 1426116, 1426683, 1427203, 1427726, 1428267, 1428782, 1429274, 1429786, 1430276]",82,EM,L,R,ITMSR,1.1,
5,600,trial,0,74,74,74,trial,"['S', 'S', 'S', 'S', 'S', 'S', 'S', 'S', 'S', 'S', 'S', 'S', 'S', 'S', 'C', 'C', 'C', 'C', 'C', 'C', 'C', 'C', 'C', 'C', 'C', 'C', 'C', 'C', 'C', 'C']","[1436012, 1436188, 1436375, 1436556, 1436746, 1436928, 1437124, 1437294, 1437530, 1437774, 1438237, 1438833, 1439466, 1440068, 1440671, 1441186, 1441726, 1442272, 1442814, 1443329, 1443837, 1444357, 1445477, 1445971, 1446433, 1446906, 1447377, 1447826, 1448317, 1448770]","[1436054, 1436243, 1436445, 1436633, 1436827, 1437012, 1437189, 1437381, 1437616, 1437965, 1438450, 1439037, 1439706, 1440318, 1440873, 1441420, 1441941, 1442480, 1442979, 1443524, 1444032, 1444580, 1445661, 1446163, 1446620, 1447075, 1447539, 1448003, 1448477, 1449000]","[183, 160, 128, 127, 40, 74, 176, 206, 237, 253, 62, 124, 85, 106, 102, 97, 119, 114, 119, 111, 120, 124, 119, 119, 133, 129, 142, 112, 116, 155]","[1436019, 1436194, 1436381, 1436562, 1436786, 1436979, 1437155, 1437341, 1437538, 1437888, 1438241, 1438836, 1439470, 1440071, 1440674, 1441189, 1441729, 1442276, 1442818, 1443332, 1443841, 1444360, 1445563, 1445975, 1446436, 1446909, 1447380, 1447829, 1448321, 1448773]","[1435971, 1436571, 1437171, 1437771, 1438371, 1438971, 1439571, 1440172, 1440691, 1441206, 1441746, 1442292, 1442834, 1443349, 1443857, 1444377, 1445497, 1445991, 1446453, 1446926, 1447397, 1447846, 1448337, 1448791]",82,EM,L,R,ITMSR,1.1,
2,600,trial,0,75,75,75,trial,"['S', 'S', 'S', 'S', 'S', 'S', 'S', 'C', 'C', 'C', 'C', 'C', 'C', 'C', 'C', 'C', 'C', 'C', 'C', 'C', 'C', 'C', 'C']","[1454736, 1455414, 1456077, 1456633, 1457254, 1457855, 1458471, 1459061, 1459536, 1460086, 1460646, 1461158, 1461694, 1462230, 1462697, 1463204, 1463711, 1464231, 1464701, 1465207, 1465705, 1466173, 1466674]","[1454901, 1455517, 1456207, 1456808, 1457410, 1457999, 1458491, 1459184, 1459694, 1460236, 1460772, 1461330, 1461870, 1462409, 1462890, 1463392, 1463885, 1464403, 1464843, 1465369, 1465872, 1466349]","[48, 73, 234, 67, 48, 29, 214, 157, 11, 5, 82, 101, 90, 85, 122, 228, 97, 68, 60, 115, 94, 89]","[1454740, 1455418, 1456081, 1456637, 1457258, 1457859, 1458478, 1459066, 1459540, 1460090, 1460651, 1461161, 1461698, 1462233, 1462701, 1463208, 1463715, 1464236, 1464706, 1465210, 1465708, 1466177]","[1454379, 1454978, 1455578, 1456178, 1456778, 1457378, 1457978, 1458578, 1459081, 1459556, 1460106, 1460666, 1461178, 1461714, 1462250, 1462717, 1463224, 1463731, 1464251, 1464721, 1465227, 1465725, 1466193, 1466694]",82,EM,L,R,ITMSR,1.1,
0,600,trial,0,76,76,76,trial,"['C', 'C', 'C', 'C', 'C', 'C', 'C', 'C', 'C', 'C', 'C', 'C', 'C', 'C', 'C', 'C']","[1477207, 1477743, 1478316, 1478834, 1479382, 1479899, 1480446, 1480987, 1481512, 1482070, 1482632, 1483191, 1483707, 1484225, 1484726, 1485197]","[1477306, 1477872, 1478336, 1478923, 1479456, 1479975, 1480513, 1481065, 1481594, 1482121, 1482697, 1483261, 1483798, 1484291, 1484830, 1485318]","[62, 39, 225, 166, 196, 100, 192, 182, 151, 16, 193, 225, 97, 39, 152, 246]","[1477214, 1477748, 1478322, 1478839, 1479388, 1479906, 1480452, 1480992, 1481519, 1482078, 1482638, 1483224, 1483771, 1484258, 1484733, 1485203]","[1472457, 1473056, 1473656, 1474256, 1474856, 1475457, 1476056, 1476656, 1477227, 1477763, 1478336, 1478854, 1479402, 1479919, 1480466, 1481007, 1481532, 1482090, 1482652, 1483211, 1483727, 1484246, 1484746, 1485217]",82,EM,L,R,ITMSR,1.1,
1,600,trial,0,77,77,77,trial,"['S', 'S', 'S', 'S', 'S', 'S', 'S', 'S', 'C', 'C', 'C', 'C', 'C', 'C', 'C', 'C', 'C', 'C', 'C', 'C', 'C', 'C', 'C', 'C']","[1491793, 1492328, 1492428, 1492940, 1493040, 1493557, 1494202, 1494736, 1495368, 1495969, 1496513, 1497069, 1497598, 1498100, 1498668, 1499211, 1499738, 1500201, 1500751, 1501294, 1501795, 1502303, 1502783, 1503297]","[1491926, 1492348, 1492454, 1492960, 1493060, 1493704, 1494325, 1494893, 1495504, 1496122, 1496666, 1497166, 1497694, 1498241, 1498809, 1499351, 1499847, 1500361, 1500892, 1501396, 1501908, 1502440, 1502904, 1503413]","[30, 88, 100, 172, 206, 171, 188, 157, 117, 189, 155, 138, 63, 12, 163, 186, 162, 98, 94, 237, 237, 237, 118, 171]","[1491800, 1492334, 1492428, 1492947, 1493040, 1493563, 1494208, 1494849, 1495373, 1495976, 1496596, 1497076, 1497606, 1498106, 1498675, 1499217, 1499743, 1500208, 1500827, 1501353, 1501800, 1502309, 1502789, 1503303]","[1490663, 1491263, 1491863, 1492463, 1493063, 1493663, 1494263, 1494863, 1495388, 1495989, 1496534, 1497090, 1497618, 1498120, 1498688, 1499231, 1499758, 1500221, 1500771, 1501314, 1501815, 1502323, 1502803, 1503318]",82,EM,L,R,ITMSR,1.1,
5,400,trial,0,78,78,78,trial,"['S', 'S', 'S', 'S', 'S', 'S', 'S', 'C', 'C', 'C', 'C', 'C', 'C', 'C', 'C', 'C', 'C', 'C', 'C', 'C', 'C', 'C', 'C']","[1524552, 1524893, 1525266, 1525643, 1526061, 1526460, 1526839, 1527258, 1527612, 1527952, 1528264, 1528610, 1528963, 1529321, 1529686, 1530045, 1530403, 1530761, 1531120, 1531458, 1531815, 1532148, 1532469]","[1524598, 1524969, 1525371, 1525741, 1526167, 1526574, 1526988, 1527406, 1527734, 1528059, 1528395, 1528773, 1529079, 1529377, 1529733, 1530091, 1530476, 1530810, 1531217, 1531573, 1531910, 1532239, 1532567]","[228, 253, 57, 33, 60, 94, 77, 96, 77, 33, 42, 54, 30, 25, 211, 19, 88, 38, 93, 79, 67, 29, 254]","[1524577, 1524908, 1525282, 1525661, 1526080, 1526474, 1526857, 1527274, 1527628, 1527969, 1528281, 1528627, 1528984, 1529335, 1529703, 1530059, 1530419, 1530775, 1531133, 1531472, 1531830, 1532166, 1532489]","[1524106, 1524505, 1524905, 1525305, 1525705, 1526105, 1526505, 1526905, 1527278, 1527632, 1527972, 1528284, 1528630, 1528983, 1529341, 1529706, 1530065, 1530423, 1530781, 1531140, 1531479, 1531835, 1532168, 1532489]",82,EM,L,R,ITMSR,1.1,
4,400,trial,0,79,79,79,trial,"['S', 'S', 'S', 'S', 'S', 'S', 'C', 'C', 'C', 'C', 'C', 'C', 'C', 'C', 'C', 'C', 'C', 'C', 'C', 'C', 'C', 'C']","[1538714, 1539092, 1539473, 1539889, 1540280, 1540679, 1541087, 1541488, 1541869, 1542257, 1542630, 1542992, 1543411, 1543800, 1544161, 1544562, 1544954, 1545310, 1545717, 1546122, 1546481, 1546877]","[1538804, 1539185, 1539584, 1539993, 1540377, 1540806, 1541204, 1541587, 1541980, 1542312, 1542744, 1543085, 1543462, 1543890, 1544281, 1544666, 1545047, 1545431, 1545796, 1546226, 1546594, 1546980]","[113, 84, 119, 90, 96, 88, 107, 16, 78, 14, 63, 255, 58, 89, 81, 48, 49, 39, 13, 78, 55, 94]","[1538725, 1539104, 1539485, 1539903, 1540292, 1540692, 1541100, 1541508, 1541884, 1542273, 1542645, 1543013, 1543425, 1543814, 1544175, 1544578, 1544971, 1545328, 1545733, 1546135, 1546498, 1546893]","[1537965, 1538365, 1538765, 1539165, 1539565, 1539965, 1540365, 1540765, 1541107, 1541508, 1541890, 1542277, 1542650, 1543012, 1543431, 1543820, 1544181, 1544582, 1544974, 1545330, 1545737, 1546142, 1546501, 1546897]",82,EM,L,R,ITMSR,1.1,
1,600,trial,0,80,80,80,trial,"['S', 'S', 'S', 'S', 'S', 'S', 'C', 'C', 'C', 'C', 'C', 'C', 'C', 'C', 'C', 'C', 'C', 'C', 'C', 'C', 'C', 'C']","[1553486, 1554146, 1554714, 1555337, 1555908, 1556491, 1557096, 1557592, 1558147, 1558679, 1559202, 1559726, 1560239, 1560763, 1561283, 1561791, 1562296, 1562808, 1563330, 1563828, 1564300, 1564804]","[1553524, 1554185, 1554752, 1555382, 1555959, 1556532, 1557141, 1557680, 1558239, 1558776, 1559304, 1559859, 1560378, 1560857, 1561411, 1561909, 1562402, 1562908, 1563422, 1563914, 1564371, 1564851]","[44, 116, 92, 78, 73, 66, 74, 63, 87, 91, 110, 113, 101, 97, 101, 92, 105, 89, 69, 73, 77, 65]","[1553499, 1554158, 1554725, 1555350, 1555921, 1556504, 1557111, 1557607, 1558159, 1558692, 1559217, 1559740, 1560255, 1560776, 1561296, 1561803, 1562309, 1562820, 1563344, 1563842, 1564314, 1564818]","[1552398, 1552997, 1553597, 1554197, 1554797, 1555397, 1555997, 1556597, 1557116, 1557612, 1558167, 1558700, 1559222, 1559746, 1560259, 1560783, 1561304, 1561811, 1562316, 1562828, 1563351, 1563848, 1564320, 1564824]",82,EM,L,R,ITMSR,1.1,
1,400,trial,0,81,81,81,trial,"['S', 'S', 'S', 'S', 'S', 'S', 'S', 'C', 'C', 'C', 'C', 'C', 'C', 'C', 'C', 'C', 'C', 'C', 'C', 'C', 'C', 'C', 'C']","[1570640, 1571015, 1571360, 1571730, 1572115, 1572513, 1572897, 1573335, 1573725, 1574119, 1574487, 1574855, 1575213, 1575610, 1575979, 1576373, 1576760, 1577125, 1577534, 1577918, 1578311, 1578728, 1579118]","[1570663, 1571058, 1571447, 1571834, 1572208, 1572589, 1573005, 1573450, 1573836, 1574210, 1574599, 1574969, 1575333, 1575748, 1576117, 1576496, 1576883, 1577245, 1577622, 1578016, 1578409, 1578782, 1579183]","[112, 255, 43, 56, 53, 39, 36, 58, 24, 38, 58, 205, 190, 1, 232, 236, 203, 224, 218, 232, 214, 168, 203]","[1570649, 1571035, 1571377, 1571744, 1572131, 1572529, 1572914, 1573351, 1573741, 1574134, 1574503, 1574875, 1575233, 1575628, 1575996, 1576390, 1576777, 1577146, 1577550, 1577938, 1578328, 1578744, 1579134]","[1570187, 1570587, 1570988, 1571387, 1571787, 1572187, 1572587, 1572987, 1573355, 1573745, 1574139, 1574507, 1574875, 1575233, 1575630, 1575999, 1576393, 1576780, 1577145, 1577554, 1577938, 1578331, 1578748, 1579138]",82,EM,L,R,ITMSR,1.1,
0,400,trial,0,82,82,82,trial,"['S', 'S', 'S', 'S', 'S', 'S', 'S', 'S', 'S', 'C', 'C', 'C', 'C', 'C', 'C', 'C', 'C', 'C', 'C', 'C', 'C', 'C', 'C', 'C', 'C']","[1584520, 1584727, 1584950, 1585186, 1585439, 1585970, 1586391, 1586785, 1587210, 1587608, 1588029, 1588416, 1588812, 1589177, 1589566, 1589943, 1590298, 1590721, 1591128, 1591519, 1591913, 1592287, 1592646, 1593012, 1593379]","[1584568, 1584781, 1585020, 1585247, 1585555, 1586053, 1586472, 1586889, 1587311, 1587710, 1588131, 1588523, 1588915, 1589270, 1589665, 1590054, 1590458, 1590848, 1591230, 1591621, 1591981, 1592346, 1592734, 1593098, 1593476]","[202, 211, 233, 35, 215, 236, 249, 252, 213, 254, 253, 15, 238, 208, 186, 225, 199, 228, 246, 249, 212, 200, 194, 228, 247]","[1584544, 1584754, 1584978, 1585210, 1585504, 1585985, 1586407, 1586802, 1587232, 1587625, 1588046, 1588433, 1588829, 1589194, 1589583, 1589960, 1590322, 1590738, 1591144, 1591534, 1591929, 1592303, 1592663, 1593028, 1593396]","[1584464, 1584864, 1585264, 1585665, 1586064, 1586464, 1586864, 1587264, 1587629, 1588049, 1588436, 1588832, 1589197, 1589586, 1589963, 1590318, 1590742, 1591148, 1591539, 1591933, 1592307, 1592666, 1593032, 1593399]",82,EM,L,R,ITMSR,1.1,
2,600,trial,0,83,83,83,trial,"['S', 'S', 'S', 'S', 'S', 'S', 'C', 'C', 'C', 'C', 'C', 'C', 'C', 'C', 'C', 'C', 'C', 'C', 'C', 'C', 'C', 'C']","[1600254, 1600876, 1601491, 1602100, 1602677, 1603287, 1603874, 1604480, 1605008, 1605570, 1606140, 1606716, 1607256, 1607817, 1608381, 1608918, 1609488, 1610015, 1610545, 1611061, 1611597, 1612088]","[1600371, 1600974, 1601544, 1602153, 1602753, 1603363, 1603952, 1604531, 1605076, 1605669, 1606216, 1606778, 1607349, 1607875, 1608481, 1609031, 1609576, 1610082, 1610668, 1611147, 1611683, 1612170]","[232, 241, 212, 223, 37, 16, 9, 17, 14, 63, 38, 14, 18, 232, 28, 42, 34, 45, 229, 11, 7, 52]","[1600277, 1600893, 1601506, 1602117, 1602692, 1603303, 1603891, 1604494, 1605022, 1605584, 1606155, 1606731, 1607272, 1607831, 1608397, 1608931, 1609502, 1610029, 1610561, 1611076, 1611612, 1612103]","[1599158, 1599758, 1600358, 1600958, 1601558, 1602158, 1602758, 1603358, 1603894, 1604500, 1605028, 1605591, 1606160, 1606736, 1607276, 1607837, 1608401, 1608938, 1609508, 1610035, 1610565, 1611081, 1611617, 1612108]",82,EM,L,R,ITMSR,1.1,
0,400,trial,0,84,84,84,trial,"['S', 'S', 'S', 'S', 'S', 'S', 'C', 'C', 'C', 'C', 'C', 'C', 'C', 'C', 'C', 'C', 'C', 'C', 'C', 'C', 'C', 'C']","[1618197, 1618628, 1619371, 1619770, 1620149, 1620562, 1620974, 1621400, 1621768, 1622140, 1622484, 1622866, 1623263, 1623655, 1624030, 1624408, 1624811, 1625169, 1625511, 1625913, 1626305, 1626687]","[1618253, 1618666, 1619424, 1619817, 1620193, 1620621, 1621021, 1621439, 1621843, 1622214, 1622548, 1622914, 1623324, 1623702, 1624124, 1624493, 1624879, 1625248, 1625574, 1625976, 1626396, 1626768]","[58, 96, 139, 177, 176, 118, 74, 45, 200, 247, 188, 171, 228, 198, 25, 9, 10, 17, 213, 228, 252, 237]","[1618221, 1618646, 1619391, 1619787, 1620164, 1620584, 1620995, 1621410, 1621785, 1622157, 1622504, 1622883, 1623279, 1623671, 1624045, 1624425, 1624829, 1625189, 1625528, 1625929, 1626322, 1626704]","[1617833, 1618233, 1618633, 1619033, 1619433, 1619833, 1620233, 1620633, 1620994, 1621421, 1621788, 1622160, 1622504, 1622886, 1623283, 1623675, 1624050, 1624428, 1624832, 1625189, 1625531, 1625933, 1626326, 1626707]",82,EM,L,R,ITMSR,1.1,
1,600,trial,0,85,85,85,trial,"['S', 'S', 'S', 'S', 'S', 'S', 'C', 'C', 'C', 'C', 'C', 'C', 'C', 'C', 'C', 'C', 'C', 'C', 'C', 'C', 'C', 'C']","[1633334, 1633897, 1634437, 1635001, 1635646, 1636245, 1636857, 1637442, 1637979, 1638482, 1639026, 1639562, 1640054, 1640611, 1641116, 1641651, 1642176, 1642681, 1643187, 1643715, 1644150, 1644636]","[1633408, 1633948, 1634511, 1635095, 1635685, 1636323, 1636937, 1637484, 1638066, 1638566, 1639121, 1639656, 1640160, 1640657, 1641176, 1641745, 1642229, 1642759, 1643222, 1643757, 1644224, 1644682]","[52, 218, 173, 243, 216, 28, 18, 184, 23, 32, 17, 33, 31, 199, 246, 237, 21, 26, 19, 243, 19, 4]","[1633357, 1633918, 1634458, 1635020, 1635663, 1636262, 1636874, 1637458, 1637994, 1638499, 1639042, 1639577, 1640070, 1640628, 1641132, 1641666, 1642191, 1642696, 1643201, 1643729, 1644167, 1644651]","[1632116, 1632716, 1633316, 1633916, 1634516, 1635117, 1635717, 1636317, 1636877, 1637463, 1637999, 1638502, 1639046, 1639582, 1640074, 1640631, 1641136, 1641671, 1642196, 1642701, 1643207, 1643736, 1644170, 1644656]",82,EM,L,R,ITMSR,1.1,
2,600,trial,0,86,86,86,trial,"['S', 'S', 'S', 'S', 'S', 'S', 'S', 'C', 'C', 'C', 'C', 'C', 'C', 'C', 'C', 'C', 'C', 'C', 'C', 'C', 'C', 'C', 'C']","[1650827, 1651465, 1652046, 1652667, 1653275, 1653878, 1654508, 1655114, 1655676, 1656303, 1656827, 1657356, 1657957, 1658522, 1659092, 1659613, 1660144, 1660696, 1661244, 1661789, 1662347, 1662849, 1663401]","[1650865, 1651505, 1652096, 1652701, 1653315, 1653924, 1654547, 1655151, 1655716, 1656340, 1656867, 1657427, 1657998, 1658550, 1659129, 1659652, 1660211, 1660744, 1661279, 1661833, 1662384, 1662894, 1663438]","[159, 240, 36, 185, 59, 99, 71, 98, 96, 73, 54, 76, 80, 80, 63, 45, 50, 58, 5, 64, 57, 60, 83]","[1650841, 1651479, 1652060, 1652679, 1653286, 1653892, 1654520, 1655124, 1655687, 1656314, 1656840, 1657369, 1657969, 1658533, 1659105, 1659625, 1660157, 1660708, 1661256, 1661801, 1662359, 1662860, 1663412]","[1650361, 1650961, 1651561, 1652161, 1652761, 1653361, 1653961, 1654561, 1655134, 1655696, 1656323, 1656847, 1657376, 1657977, 1658542, 1659112, 1659633, 1660164, 1660717, 1661264, 1661809, 1662367, 1662869, 1663421]",82,EM,L,R,ITMSR,1.1,
3,600,trial,0,87,87,87,trial,"['B', 'S', 'S', 'S', 'S', 'S', 'S', 'C', 'C', 'C', 'C', 'C', 'C', 'C', 'C', 'C', 'C', 'C', 'C', 'C', 'C', 'C', 'C']","[1668987, 1669976, 1670847, 1671443, 1671923, 1672549, 1673144, 1673788, 1674311, 1674854, 1675424, 1675941, 1676512, 1677022, 1677551, 1678061, 1678594, 1679131, 1679617, 1680146, 1680655, 1681170, 1681690]","[1669170, 1670083, 1671074, 1671540, 1672058, 1672677, 1673264, 1673873, 1674418, 1674938, 1675520, 1676043, 1676600, 1677110, 1677637, 1678179, 1678678, 1679214, 1679717, 1680233, 1680730, 1681258, 1681776]","[73, 106, 42, 223, 239, 64, 55, 46, 36, 245, 72, 95, 65, 58, 74, 58, 7, 16, 64, 63, 207, 84, 21]","[1668987, 1670048, 1671006, 1671452, 1671934, 1672560, 1673150, 1673800, 1674323, 1674864, 1675435, 1675953, 1676521, 1677032, 1677561, 1678074, 1678607, 1679141, 1679626, 1680157, 1680667, 1681180, 1681702]","[1669000, 1669600, 1670200, 1670800, 1671400, 1672000, 1672600, 1673200, 1673808, 1674331, 1674874, 1675444, 1675961, 1676532, 1677042, 1677571, 1678082, 1678614, 1679151, 1679637, 1680166, 1680675, 1681190, 1681710]",82,EM,L,R,ITMSR,1.1,
2,400,trial,0,88,88,88,trial,"['S', 'S', 'S', 'S', 'S', 'S', 'S', 'S', 'S', 'S', 'S', 'S', 'C', 'C', 'C', 'C', 'C', 'C', 'C', 'C', 'C', 'C', 'C', 'C', 'C', 'C', 'C', 'C']","[1687578, 1687791, 1688017, 1688223, 1688432, 1688634, 1688865, 1689092, 1689291, 1689506, 1689729, 1690242, 1690637, 1691029, 1691393, 1691773, 1692174, 1692553, 1692959, 1693343, 1693766, 1694142, 1694521, 1694888, 1695273, 1695664, 1696057, 1696453]","[1687615, 1687831, 1688045, 1688259, 1688470, 1688680, 1688911, 1689127, 1689339, 1689549, 1689783, 1690281, 1690679, 1691059, 1691437, 1691831, 1692239, 1692612, 1693003, 1693418, 1693818, 1694190, 1694563, 1694922, 1695315, 1695708, 1696109, 1696487]","[35, 34, 236, 235, 239, 0, 245, 183, 252, 189, 215, 149, 0, 167, 244, 39, 57, 33, 56, 66, 74, 56, 66, 63, 104, 102, 104, 58]","[1687585, 1687799, 1688026, 1688232, 1688442, 1688642, 1688876, 1689104, 1689300, 1689517, 1689738, 1690253, 1690645, 1691037, 1691401, 1691781, 1692182, 1692560, 1692966, 1693350, 1693773, 1694150, 1694528, 1694896, 1695280, 1695670, 1696062, 1696460]","[1687468, 1687866, 1688266, 1688666, 1689066, 1689466, 1689866, 1690266, 1690657, 1691049, 1691413, 1691793, 1692194, 1692573, 1692979, 1693363, 1693786, 1694162, 1694541, 1694908, 1695293, 1695684, 1696077, 1696473]",82,EM,L,R,ITMSR,1.1,
3,400,trial,0,89,89,89,trial,"['S', 'S', 'S', 'S', 'S', 'S', 'C', 'C', 'C', 'C', 'C', 'C', 'C', 'C', 'C', 'C', 'C', 'C', 'C', 'C', 'C', 'C']","[1702881, 1703395, 1703773, 1704142, 1704528, 1704972, 1705403, 1705800, 1706186, 1706569, 1706940, 1707313, 1707681, 1708085, 1708461, 1708830, 1709205, 1709579, 1709980, 1710358, 1710754, 1711156]","[1702970, 1703422, 1703803, 1704175, 1704574, 1705018, 1705438, 1705843, 1706244, 1706622, 1706989, 1707377, 1707761, 1708150, 1708515, 1708886, 1709279, 1709656, 1710031, 1710437, 1710819, 1711200]","[179, 139, 22, 46, 76, 68, 34, 33, 65, 47, 36, 54, 52, 45, 63, 44, 53, 84, 81, 107, 69, 62]","[1702906, 1703404, 1703779, 1704150, 1704535, 1704979, 1705411, 1705808, 1706193, 1706576, 1706947, 1707320, 1707689, 1708094, 1708468, 1708838, 1709212, 1709586, 1709987, 1710364, 1710760, 1711163]","[1702241, 1702641, 1703042, 1703442, 1703842, 1704242, 1704642, 1705042, 1705423, 1705820, 1706206, 1706589, 1706960, 1707333, 1707701, 1708105, 1708481, 1708850, 1709225, 1709599, 1710000, 1710379, 1710774, 1711176]",82,EM,L,R,ITMSR,1.1,
