pitch,ioi,event,.thisRepN,.thisTrialN,.thisN,.thisIndex,event,tap_types,tap_times,release_times,peak_pressures,peak_times,tone_times,subject,experimenter,register,handedness,experiment,version
,,SPR,0,-1,-1,0,SPR,"['P', 'P', 'P', 'P', 'P', 'P', 'P', 'P', 'P', 'P', 'P', 'P', 'P', 'P', 'P', 'P', 'P', 'P', 'P', 'P', 'P', 'P', 'P', 'P', 'P', 'P', 'P', 'P', 'P', 'P']","[51279, 53650, 54793, 55340, 55882, 56431, 56927, 57494, 58017, 58588, 59111, 59658, 60190, 60708, 61235, 61730, 62275, 62786, 63310, 63825, 64362, 64876, 65381, 65871, 66380, 66857, 67334, 67872, 68357, 68876]","[51950, 54602, 54892, 55487, 56004, 56535, 57056, 57617, 58126, 58695, 59234, 59795, 60320, 60822, 61367, 61860, 62362, 62934, 63437, 63953, 64509, 64994, 65497, 66001, 66488, 67005, 67477, 67956, 68443, 68976]","[180, 135, 68, 99, 112, 96, 96, 79, 129, 101, 157, 139, 98, 26, 124, 86, 74, 131, 133, 146, 138, 82, 81, 97, 143, 159, 143, 114, 112, 67]","[51283, 53654, 54799, 55345, 55887, 56436, 56931, 57499, 58021, 58593, 59115, 59661, 60194, 60715, 61239, 61734, 62280, 62789, 63313, 63828, 64365, 64880, 65386, 65875, 66384, 66861, 67338, 67876, 68361, 68881]",,64,EM,U,R,ITMSR,1.1
3,500,practice,0,0,0,0,practice,"['S', 'S', 'S', 'S', 'S', 'S', 'S', 'C', 'C', 'C', 'C', 'C', 'C', 'C', 'C', 'C', 'C', 'C', 'C', 'C', 'C', 'C', 'C']","[192850, 193377, 193862, 194333, 194842, 195330, 195838, 196392, 196876, 197365, 197866, 198356, 198868, 199348, 199838, 200322, 200818, 201320, 201824, 202308, 202820, 203357, 203842]","[192986, 193496, 193960, 194449, 194946, 195465, 195959, 196506, 196993, 197483, 197990, 198486, 198965, 199464, 199954, 200438, 200940, 201446, 201918, 202417, 202919, 203450, 203944]","[162, 176, 76, 130, 136, 140, 142, 125, 151, 141, 156, 165, 162, 162, 129, 111, 114, 83, 145, 85, 121, 163, 129]","[192855, 193380, 193868, 194338, 194847, 195334, 195843, 196397, 196880, 197369, 197870, 198360, 198872, 199352, 199843, 200326, 200822, 201325, 201828, 202314, 202824, 203361, 203846]","[192362, 192862, 193362, 193862, 194362, 194862, 195362, 195862, 196412, 196896, 197385, 197886, 198376, 198888, 199368, 199858, 200342, 200838, 201340, 201844, 202328, 202840, 203377, 203863]",64,EM,U,R,ITMSR,1.1
2,500,practice,0,1,1,1,practice,"['S', 'S', 'S', 'S', 'S', 'S', 'S', 'C', 'C', 'C', 'C', 'C', 'C', 'C', 'C', 'C', 'C', 'C', 'C', 'C', 'C', 'C', 'C']","[209953, 210493, 211017, 211557, 212061, 212550, 213041, 213556, 213991, 214414, 214789, 215097, 215404, 215700, 215998, 216290, 216573, 216848, 217124, 217399, 217674, 217955, 218231]","[210055, 210596, 211131, 211662, 212173, 212649, 213140, 213651, 214082, 214503, 214870, 215211, 215496, 215787, 216093, 216384, 216651, 216932, 217200, 217485, 217762, 218040, 218311]","[142, 124, 91, 136, 43, 72, 140, 136, 125, 133, 109, 123, 131, 125, 94, 119, 117, 141, 131, 141, 143, 153, 144]","[209958, 210497, 211022, 211561, 212067, 212555, 213044, 213560, 213996, 214418, 214794, 215101, 215408, 215704, 216003, 216294, 216578, 216852, 217124, 217399, 217675, 217958, 218234]","[209609, 210109, 210609, 211109, 211609, 212109, 212610, 213110, 213576, 214011, 214434, 214809, 215117, 215425, 215720, 216018, 216310, 216593, 216868, 217144, 217419, 217694, 217975, 218251]",64,EM,U,R,ITMSR,1.1
0,500,practice,0,2,2,2,practice,"['S', 'S', 'S', 'S', 'S', 'S', 'S', 'S', 'C', 'C', 'C', 'C', 'C', 'C', 'C', 'C', 'C', 'C', 'C', 'C', 'C', 'C', 'C', 'C']","[224092, 224442, 224860, 225364, 225875, 226388, 226851, 227362, 227871, 228346, 228787, 229197, 229543, 229841, 230140, 230426, 230743, 231034, 231320, 231627, 231913, 232202, 232496, 232775]","[224187, 224545, 224962, 225471, 225965, 226480, 226950, 227459, 227971, 228427, 228896, 229301, 229656, 229946, 230224, 230530, 230834, 231121, 231409, 231707, 232004, 232293, 232587, 232884]","[114, 112, 122, 130, 130, 137, 151, 144, 138, 146, 169, 155, 152, 160, 148, 163, 151, 142, 141, 148, 154, 151, 162, 143]","[224096, 224447, 224865, 225369, 225880, 226393, 226855, 227366, 227875, 228349, 228791, 229200, 229547, 229846, 230145, 230429, 230746, 231037, 231323, 231630, 231917, 232206, 232498, 232778]","[223917, 224417, 224917, 225417, 225917, 226417, 226917, 227417, 227891, 228366, 228807, 229217, 229563, 229861, 230160, 230446, 230763, 231054, 231341, 231647, 231933, 232222, 232516, 232795]",64,EM,U,R,ITMSR,1.1
5,500,practice,0,3,3,3,practice,"['S', 'S', 'S', 'S', 'S', 'S', 'S', 'S', 'C', 'C', 'C', 'C', 'C', 'C', 'C', 'C', 'C', 'C', 'C', 'C', 'C', 'C', 'C', 'C']","[238374, 238774, 239266, 239726, 240218, 240701, 241195, 241724, 242192, 242622, 243043, 243481, 243969, 244400, 244870, 245311, 245788, 246241, 246685, 247128, 247590, 248003, 248501, 248985]","[238445, 238862, 239356, 239819, 240305, 240786, 241284, 241822, 242283, 242718, 243118, 243590, 244060, 244480, 244952, 245396, 245878, 246332, 246782, 247227, 247676, 248087, 248584, 249064]","[157, 131, 125, 128, 151, 129, 150, 145, 136, 148, 141, 151, 131, 129, 133, 129, 153, 144, 126, 144, 88, 102, 98, 139]","[238379, 238778, 239271, 239730, 240221, 240705, 241199, 241728, 242196, 242626, 243047, 243485, 243973, 244404, 244875, 245315, 245792, 246244, 246690, 247131, 247596, 248008, 248506, 248989]","[238233, 238733, 239234, 239734, 240234, 240734, 241234, 241734, 242212, 242642, 243063, 243501, 243989, 244420, 244890, 245331, 245808, 246261, 246705, 247148, 247610, 248024, 248521, 249005]",64,EM,U,R,ITMSR,1.1
4,500,practice,0,4,4,4,practice,"['S', 'S', 'S', 'S', 'S', 'S', 'S', 'S', 'C', 'C', 'C', 'C', 'C', 'C', 'C', 'C', 'C', 'C', 'C', 'C', 'C', 'C', 'C', 'C']","[254578, 254967, 255386, 255863, 256340, 256822, 257381, 257898, 258349, 258779, 259269, 259721, 260207, 260669, 261149, 261627, 262106, 262585, 263086, 263528, 263959, 264428, 264925, 265395]","[254666, 255067, 255477, 255931, 256427, 256913, 257461, 257992, 258440, 258871, 259331, 259788, 260286, 260743, 261216, 261698, 262194, 262666, 263171, 263598, 264047, 264501, 264987, 265463]","[45, 108, 76, 67, 89, 85, 126, 70, 112, 121, 57, 90, 74, 108, 110, 94, 112, 103, 64, 29, 99, 60, 104, 53]","[254585, 254972, 255391, 255869, 256346, 256827, 257385, 257903, 258353, 258784, 259274, 259726, 260212, 260674, 261154, 261632, 262110, 262590, 263092, 263535, 263964, 264434, 264930, 265400]","[254418, 254918, 255418, 255918, 256418, 256918, 257418, 257918, 258369, 258799, 259289, 259741, 260227, 260689, 261169, 261647, 262126, 262605, 263106, 263548, 263980, 264449, 264945, 265415]",64,EM,U,R,ITMSR,1.1
1,500,practice,0,5,5,5,practice,"['S', 'S', 'S', 'S', 'S', 'S', 'S', 'S', 'C', 'C', 'C', 'C', 'C', 'C', 'C', 'C', 'C', 'C', 'C', 'C', 'C', 'C', 'C', 'C']","[270959, 271315, 271737, 272186, 272724, 273202, 273695, 274191, 274696, 275207, 275662, 276169, 276647, 277120, 277585, 278080, 278594, 279072, 279543, 280000, 280484, 280991, 281476, 281954]","[271035, 271415, 271847, 272294, 272799, 273277, 273780, 274273, 274790, 275288, 275738, 276240, 276719, 277180, 277660, 278157, 278650, 279156, 279601, 280080, 280564, 281062, 281551, 282019]","[231, 106, 94, 58, 58, 60, 112, 98, 112, 87, 73, 32, 34, 243, 45, 40, 6, 83, 192, 253, 247, 30, 249, 49]","[270967, 271320, 271742, 272191, 272731, 273207, 273699, 274196, 274699, 275212, 275667, 276176, 276654, 277126, 277592, 278086, 278600, 279077, 279550, 280006, 280491, 280996, 281483, 281959]","[270769, 271268, 271768, 272268, 272769, 273268, 273768, 274268, 274716, 275227, 275682, 276189, 276667, 277140, 277605, 278100, 278615, 279092, 279563, 280020, 280504, 281011, 281496, 281974]",64,EM,U,R,ITMSR,1.1
2,400,trial,0,6,6,6,trial,"['S', 'S', 'S', 'S', 'S', 'S', 'S', 'C', 'C', 'C', 'C', 'C', 'C', 'C', 'C', 'C', 'C', 'C', 'C', 'C', 'C', 'C', 'C']","[340559, 341024, 341482, 341846, 342161, 342531, 342907, 343311, 343695, 344091, 344452, 344850, 345224, 345544, 345899, 346254, 346610, 346970, 347342, 347713, 348083, 348452, 348807]","[340653, 341098, 341565, 341940, 342239, 342630, 342982, 343385, 343798, 344169, 344532, 344906, 345305, 345616, 345982, 346336, 346668, 347041, 347401, 347742, 348136, 348495, 348827]","[148, 59, 123, 117, 160, 139, 120, 130, 127, 122, 106, 96, 205, 101, 103, 39, 52, 26, 146, 135, 136, 252, 181]","[340562, 341028, 341486, 341850, 342164, 342535, 342910, 343315, 343699, 344094, 344456, 344854, 345230, 345548, 345903, 346259, 346614, 346974, 347346, 347719, 348089, 348460, 348813]","[340147, 340546, 340946, 341346, 341746, 342146, 342546, 342946, 343331, 343715, 344111, 344472, 344870, 345244, 345564, 345919, 346274, 346630, 346990, 347362, 347734, 348103, 348472, 348827]",64,EM,U,R,ITMSR,1.1
1,600,trial,0,7,7,7,trial,"['S', 'S', 'S', 'S', 'S', 'S', 'S', 'S', 'C', 'C', 'C', 'C', 'C', 'C', 'C', 'C', 'C', 'C', 'C', 'C', 'C', 'C', 'C', 'C']","[354707, 355082, 355585, 356170, 356804, 357409, 358008, 358546, 359132, 359693, 360289, 360842, 361421, 362013, 362604, 363165, 363737, 364331, 364909, 365486, 366065, 366629, 367207, 367730]","[354788, 355173, 355681, 356241, 356881, 357485, 358066, 358612, 359197, 359758, 360342, 360899, 361495, 362075, 362695, 363267, 363836, 364440, 364986, 365575, 366144, 366703, 367263, 367820]","[92, 64, 111, 122, 142, 163, 82, 138, 123, 110, 45, 81, 114, 51, 234, 103, 122, 113, 89, 54, 233, 32, 24, 98]","[354712, 355088, 355589, 356175, 356808, 357413, 358012, 358550, 359137, 359698, 360294, 360846, 361424, 362018, 362609, 363169, 363742, 364335, 364913, 365491, 366071, 366636, 367212, 367734]","[354392, 354992, 355592, 356192, 356792, 357392, 357992, 358592, 359152, 359713, 360309, 360862, 361441, 362033, 362625, 363185, 363757, 364351, 364930, 365506, 366085, 366649, 367227, 367750]",64,EM,U,R,ITMSR,1.1
0,600,trial,0,8,8,8,trial,"['S', 'S', 'S', 'S', 'S', 'S', 'S', 'S', 'C', 'C', 'C', 'C', 'C', 'C', 'C', 'C', 'C', 'C', 'C', 'C', 'C', 'C', 'C', 'C']","[373592, 373986, 374521, 375121, 375681, 376321, 376912, 377542, 378137, 378667, 379157, 379679, 380225, 380809, 381364, 381937, 382508, 383043, 383659, 384200, 384760, 385347, 385932, 386502]","[373668, 374068, 374627, 375220, 375773, 376416, 376989, 377641, 378218, 378724, 379237, 379747, 380285, 380837, 381421, 382000, 382575, 383136, 383731, 384220, 384825, 385404, 386011, 386550]","[46, 67, 108, 69, 97, 108, 49, 78, 144, 202, 38, 208, 219, 199, 52, 32, 85, 54, 193, 104, 191, 9, 50, 253]","[373598, 373992, 374526, 375127, 375686, 376325, 376919, 377547, 378143, 378673, 379163, 379685, 380231, 380816, 381369, 381942, 382513, 383049, 383665, 384205, 384768, 385353, 385938, 386509]","[373380, 373980, 374580, 375180, 375780, 376380, 376980, 377580, 378157, 378687, 379177, 379699, 380246, 380829, 381384, 381957, 382528, 383064, 383679, 384220, 384780, 385368, 385952, 386522]",64,EM,U,R,ITMSR,1.1
1,400,trial,0,9,9,9,trial,"['S', 'S', 'S', 'S', 'S', 'S', 'S', 'S', 'C', 'C', 'C', 'C', 'C', 'C', 'C', 'C', 'C', 'C', 'C', 'C', 'C', 'C', 'C', 'C']","[392507, 392854, 393143, 393437, 393807, 394208, 394607, 394985, 395404, 395760, 396179, 396523, 396932, 397293, 397672, 398084, 398448, 398833, 399198, 399575, 399955, 400325, 400736, 401090]","[392586, 392931, 393212, 393516, 393895, 394294, 394688, 395076, 395489, 395819, 396235, 396575, 396993, 397365, 397740, 398137, 398535, 398896, 399271, 399643, 400022, 400382, 400784, 401179]","[165, 244, 196, 69, 101, 114, 54, 83, 67, 56, 35, 216, 160, 231, 203, 204, 222, 241, 217, 18, 16, 35, 199, 100]","[392516, 392861, 393150, 393442, 393812, 394212, 394612, 394990, 395409, 395765, 396185, 396529, 396939, 397300, 397679, 398090, 398454, 398839, 399204, 399581, 399962, 400330, 400742, 401098]","[392267, 392667, 393067, 393467, 393867, 394267, 394668, 395067, 395424, 395780, 396199, 396544, 396952, 397314, 397692, 398104, 398468, 398853, 399218, 399595, 399975, 400345, 400756, 401111]",64,EM,U,R,ITMSR,1.1
2,600,trial,0,10,10,10,trial,"['S', 'S', 'S', 'S', 'S', 'S', 'S', 'S', 'C', 'C', 'C', 'C', 'C', 'C', 'C', 'C', 'C', 'C', 'C', 'C', 'C', 'C', 'C', 'C']","[406758, 407111, 407686, 408290, 408866, 409497, 410105, 410714, 411311, 411815, 412353, 412914, 413457, 413991, 414555, 415066, 415631, 416188, 416718, 417250, 417809, 418332, 418881, 419389]","[406817, 407199, 407774, 408389, 408973, 409594, 410211, 410816, 411408, 411923, 412434, 412988, 413533, 414069, 414614, 415124, 415692, 416256, 416790, 417317, 417880, 418381, 418963, 419480]","[143, 10, 81, 86, 96, 31, 127, 139, 116, 127, 93, 26, 85, 29, 34, 223, 18, 251, 238, 49, 64, 76, 24, 48]","[406765, 407117, 407691, 408295, 408871, 409503, 410110, 410718, 411315, 411820, 412357, 412921, 413462, 413997, 414559, 415073, 415636, 416193, 416724, 417255, 417814, 418337, 418887, 419395]","[406552, 407152, 407752, 408352, 408952, 409552, 410152, 410753, 411331, 411835, 412374, 412934, 413477, 414011, 414575, 415086, 415651, 416208, 416738, 417270, 417829, 418352, 418902, 419409]",64,EM,U,R,ITMSR,1.1
5,400,trial,0,11,11,11,trial,"['S', 'S', 'S', 'S', 'S', 'S', 'S', 'C', 'C', 'C', 'C', 'C', 'C', 'C', 'C', 'C', 'C', 'C', 'C', 'C', 'C', 'C', 'C']","[425655, 425978, 426311, 426728, 427139, 427492, 427886, 428301, 428687, 429072, 429433, 429796, 430163, 430545, 430907, 431313, 431666, 432044, 432402, 432759, 433154, 433522, 433894]","[425708, 426058, 426400, 426842, 427211, 427582, 427981, 428385, 428743, 429131, 429495, 429863, 430246, 430596, 430963, 431350, 431741, 432091, 432451, 432820, 433210, 433593, 433970]","[248, 44, 106, 159, 81, 99, 116, 139, 81, 101, 19, 215, 183, 221, 254, 239, 238, 56, 82, 81, 72, 82, 113]","[425661, 425984, 426316, 426731, 427143, 427496, 427890, 428305, 428691, 429076, 429438, 429802, 430228, 430552, 430913, 431320, 431672, 432049, 432407, 432764, 433158, 433528, 433898]","[425164, 425564, 425964, 426364, 426764, 427164, 427565, 427965, 428321, 428707, 429092, 429453, 429816, 430183, 430565, 430927, 431333, 431686, 432064, 432422, 432779, 433174, 433542, 433914]",64,EM,U,R,ITMSR,1.1
0,400,trial,0,12,12,12,trial,"['S', 'S', 'S', 'S', 'S', 'S', 'S', 'S', 'C', 'C', 'C', 'C', 'C', 'C', 'C', 'C', 'C', 'C', 'C', 'C', 'C', 'C', 'C', 'C']","[439862, 440259, 440566, 440880, 441233, 441609, 442040, 442411, 442826, 443250, 443615, 444008, 444402, 444773, 445164, 445576, 445973, 446327, 446745, 447114, 447463, 447844, 448232, 448621]","[439936, 440327, 440659, 440968, 441335, 441689, 442110, 442493, 442914, 443297, 443682, 444066, 444489, 444849, 445236, 445640, 446036, 446400, 446803, 447199, 447550, 447913, 448308, 448677]","[15, 16, 83, 89, 102, 52, 89, 122, 139, 77, 128, 101, 114, 114, 42, 132, 96, 122, 106, 89, 110, 81, 125, 111]","[439868, 440265, 440570, 440885, 441237, 441614, 442045, 442415, 442830, 443255, 443619, 444012, 444406, 444777, 445170, 445580, 445977, 446331, 446749, 447119, 447468, 447849, 448236, 448626]","[439696, 440096, 440496, 440896, 441296, 441696, 442096, 442497, 442846, 443270, 443635, 444028, 444422, 444793, 445185, 445596, 445993, 446347, 446765, 447134, 447483, 447864, 448252, 448642]",64,EM,U,R,ITMSR,1.1
4,600,trial,0,13,13,13,trial,"['S', 'S', 'S', 'S', 'S', 'S', 'S', 'S', 'C', 'C', 'C', 'C', 'C', 'C', 'C', 'C', 'C', 'C', 'C', 'C', 'C', 'C', 'C', 'C']","[454333, 454662, 455235, 455872, 456494, 457107, 457674, 458270, 458855, 459422, 459979, 460562, 461150, 461721, 462276, 462858, 463459, 464058, 464602, 465158, 465699, 466283, 466862, 467421]","[454413, 454769, 455339, 455962, 456587, 457182, 457751, 458336, 458928, 459503, 460036, 460633, 461231, 461792, 462347, 462915, 463534, 464125, 464676, 465209, 465756, 466351, 466922, 467507]","[252, 42, 123, 120, 137, 74, 127, 122, 107, 110, 115, 75, 125, 69, 95, 129, 133, 19, 24, 59, 219, 56, 26, 85]","[454338, 454668, 455239, 455876, 456498, 457112, 457678, 458275, 458860, 459427, 459984, 460567, 461155, 461726, 462281, 462862, 463463, 464065, 464607, 465163, 465705, 466288, 466868, 467425]","[454146, 454746, 455346, 455946, 456546, 457146, 457746, 458346, 458875, 459442, 459999, 460582, 461170, 461741, 462296, 462878, 463479, 464078, 464622, 465178, 465719, 466304, 466882, 467441]",64,EM,U,R,ITMSR,1.1
3,400,trial,0,14,14,14,trial,"['S', 'S', 'S', 'S', 'S', 'S', 'S', 'S', 'C', 'C', 'C', 'C', 'C', 'C', 'C', 'C', 'C', 'C', 'C', 'C', 'C', 'C', 'C', 'C']","[473295, 473673, 473938, 474267, 474661, 475032, 475467, 475871, 476279, 476660, 477017, 477359, 477734, 478143, 478541, 478941, 479327, 479732, 480161, 480542, 480939, 481340, 481730, 482127]","[473373, 473742, 474043, 474365, 474743, 475114, 475554, 475954, 476357, 476738, 477079, 477432, 477808, 478200, 478614, 478997, 479406, 479799, 480230, 480628, 481013, 481411, 481814, 482220]","[248, 33, 95, 124, 105, 130, 144, 143, 170, 139, 134, 128, 120, 116, 123, 135, 157, 144, 140, 119, 129, 154, 157, 151]","[473302, 473677, 473944, 474271, 474667, 475036, 475470, 475875, 476282, 476664, 477021, 477363, 477737, 478147, 478545, 478945, 479330, 479736, 480165, 480546, 480943, 481344, 481733, 482131]","[473119, 473518, 473918, 474318, 474718, 475118, 475518, 475918, 476299, 476680, 477037, 477379, 477754, 478163, 478561, 478961, 479347, 479752, 480181, 480562, 480959, 481360, 481751, 482147]",64,EM,U,R,ITMSR,1.1
0,400,trial,0,15,15,15,trial,"['S', 'S', 'S', 'S', 'S', 'S', 'S', 'C', 'C', 'C', 'C', 'C', 'C', 'C', 'C', 'C', 'C', 'C', 'C', 'C', 'C', 'C', 'C']","[487832, 488181, 488579, 489058, 489456, 489820, 490248, 490640, 490998, 491418, 491780, 492179, 492572, 492943, 493337, 493734, 494094, 494472, 494887, 495258, 495642, 496041, 496435]","[487928, 488297, 488682, 489149, 489545, 489892, 490297, 490736, 491084, 491497, 491871, 492247, 492648, 493039, 493415, 493822, 494178, 494555, 494956, 495343, 495735, 496128, 496523]","[132, 63, 90, 121, 115, 132, 127, 151, 158, 128, 127, 123, 128, 150, 143, 132, 107, 132, 137, 146, 159, 144, 146]","[487840, 488186, 488583, 489062, 489460, 489824, 490252, 490644, 491002, 491421, 491784, 492183, 492576, 492947, 493340, 493739, 494099, 494475, 494892, 495262, 495645, 496046, 496438]","[487486, 487885, 488285, 488685, 489085, 489485, 489885, 490285, 490660, 491018, 491438, 491800, 492199, 492592, 492963, 493357, 493754, 494114, 494492, 494907, 495278, 495662, 496061, 496455]",64,EM,U,R,ITMSR,1.1
3,600,trial,0,16,16,16,trial,"['S', 'S', 'S', 'S', 'S', 'S', 'S', 'S', 'C', 'C', 'C', 'C', 'C', 'C', 'C', 'C', 'C', 'C', 'C', 'C', 'C', 'C', 'C', 'C']","[502021, 502361, 503029, 503606, 504226, 504841, 505430, 506013, 506599, 507165, 507787, 508383, 508941, 509520, 510091, 510686, 511253, 511863, 512461, 513009, 513590, 514130, 514731, 515277]","[502108, 502470, 503114, 503697, 504330, 504943, 505512, 506086, 506651, 507251, 507860, 508446, 509030, 509614, 510186, 510754, 511344, 511934, 512532, 513107, 513684, 514271, 514852, 515419]","[82, 132, 116, 136, 152, 148, 77, 9, 135, 118, 94, 130, 116, 75, 119, 106, 104, 90, 120, 128, 109, 104, 137, 155]","[502025, 502365, 503033, 503610, 504229, 504845, 505435, 506018, 506603, 507169, 507791, 508388, 508945, 509526, 510096, 510690, 511258, 511868, 512465, 513013, 513595, 514135, 514735, 515281]","[501854, 502454, 503054, 503654, 504254, 504854, 505454, 506054, 506619, 507185, 507807, 508403, 508961, 509540, 510111, 510706, 511273, 511883, 512481, 513029, 513610, 514150, 514751, 515297]",64,EM,U,R,ITMSR,1.1
1,600,trial,0,17,17,17,trial,"['S', 'S', 'S', 'S', 'S', 'S', 'S', 'C', 'C', 'C', 'C', 'C', 'C', 'C', 'C', 'C', 'C', 'C', 'C', 'C', 'C', 'C', 'C']","[521460, 522086, 522719, 523319, 523907, 524507, 525120, 525732, 526337, 526918, 527499, 528131, 528731, 529326, 529874, 530529, 531127, 531732, 532322, 532901, 533473, 534001, 534518]","[521564, 522187, 522809, 523397, 523990, 524593, 525197, 525814, 526402, 527012, 527592, 528215, 528800, 529389, 529969, 530627, 531218, 531813, 532415, 532985, 533544, 534097, 534597]","[92, 154, 111, 100, 106, 117, 103, 111, 140, 133, 131, 131, 121, 119, 116, 31, 115, 128, 122, 139, 54, 149, 76]","[521465, 522089, 522724, 523324, 523912, 524512, 525124, 525737, 526341, 526922, 527503, 528136, 528735, 529331, 529880, 530536, 531132, 531736, 532327, 532905, 533478, 534005, 534523]","[520974, 521573, 522173, 522773, 523373, 523973, 524573, 525173, 525752, 526357, 526938, 527519, 528151, 528751, 529346, 529894, 530549, 531147, 531752, 532342, 532921, 533493, 534021, 534538]",64,EM,U,R,ITMSR,1.1
5,600,trial,0,18,18,18,trial,"['S', 'S', 'S', 'S', 'S', 'S', 'S', 'S', 'C', 'C', 'C', 'C', 'C', 'C', 'C', 'C', 'C', 'C', 'C', 'C', 'C', 'C', 'C', 'C']","[540469, 540932, 541419, 542023, 542623, 543249, 543822, 544394, 544999, 545576, 546131, 546692, 547268, 547834, 548407, 548964, 549536, 550076, 550668, 551223, 551818, 552399, 552966, 553528]","[540550, 540992, 541503, 542105, 542713, 543330, 543917, 544464, 545103, 545659, 546250, 546772, 547343, 547898, 548478, 549021, 549594, 550149, 550726, 551300, 551920, 552463, 553034, 553619]","[47, 128, 122, 133, 123, 139, 128, 161, 162, 150, 134, 156, 146, 94, 131, 115, 115, 121, 134, 112, 148, 126, 116, 128]","[540473, 540936, 541423, 542027, 542627, 543251, 543826, 544397, 545003, 545581, 546136, 546695, 547272, 547838, 548412, 548968, 549541, 550080, 550672, 551227, 551822, 552404, 552970, 553532]","[540254, 540854, 541454, 542054, 542654, 543254, 543854, 544454, 545019, 545596, 546151, 546712, 547288, 547854, 548427, 548984, 549556, 550096, 550688, 551243, 551838, 552419, 552986, 553548]",64,EM,U,R,ITMSR,1.1
3,400,trial,0,19,19,19,trial,"['S', 'S', 'S', 'S', 'S', 'S', 'S', 'S', 'C', 'C', 'C', 'C', 'C', 'C', 'C', 'C', 'C', 'C', 'C', 'C', 'C', 'C', 'C', 'C']","[559482, 559878, 560259, 560610, 560955, 561255, 561616, 562002, 562417, 562783, 563152, 563517, 563912, 564258, 564644, 565018, 565416, 565817, 566200, 566573, 566953, 567315, 567689, 568093]","[559568, 559952, 560352, 560687, 561030, 561351, 561705, 562114, 562509, 562864, 563233, 563577, 563990, 564330, 564707, 565069, 565474, 565874, 566245, 566633, 567003, 567373, 567730, 568118]","[194, 118, 92, 124, 107, 126, 137, 143, 137, 124, 73, 28, 194, 7, 218, 116, 197, 172, 166, 216, 162, 175, 216, 51]","[559490, 559882, 560263, 560613, 560958, 561259, 561620, 562006, 562421, 562787, 563156, 563522, 563918, 564264, 564652, 565025, 565424, 565823, 566206, 566580, 566961, 567322, 567695, 568100]","[559267, 559667, 560067, 560467, 560867, 561267, 561667, 562067, 562437, 562803, 563172, 563537, 563932, 564278, 564664, 565038, 565436, 565837, 566220, 566593, 566973, 567335, 567709, 568113]",64,EM,U,R,ITMSR,1.1
5,400,trial,0,20,20,20,trial,"['S', 'S', 'S', 'S', 'S', 'S', 'S', 'S', 'C', 'C', 'C', 'C', 'C', 'C', 'C', 'C', 'C', 'C', 'C', 'C', 'C', 'C', 'C', 'C']","[573766, 574135, 574390, 574706, 575126, 575512, 575907, 576308, 576713, 577044, 577406, 577784, 578188, 578583, 578979, 579381, 579809, 580178, 580594, 580976, 581361, 581753, 582142, 582523]","[573842, 574186, 574468, 574797, 575209, 575601, 576007, 576414, 576806, 577136, 577481, 577845, 578248, 578619, 579019, 579431, 579866, 580228, 580641, 581033, 581413, 581798, 582198, 582580]","[184, 249, 56, 80, 123, 92, 103, 108, 81, 57, 35, 4, 231, 149, 186, 221, 203, 186, 117, 68, 2, 187, 154, 233]","[573773, 574141, 574395, 574711, 575130, 575516, 575911, 576311, 576718, 577049, 577412, 577789, 578194, 578590, 578985, 579388, 579815, 580186, 580601, 580982, 581367, 581760, 582149, 582530]","[573566, 573965, 574365, 574765, 575165, 575565, 575965, 576365, 576733, 577064, 577426, 577804, 578208, 578604, 578999, 579401, 579829, 580198, 580614, 580996, 581381, 581773, 582162, 582543]",64,EM,U,R,ITMSR,1.1
2,600,trial,0,21,21,21,trial,"['S', 'S', 'S', 'S', 'S', 'S', 'S', 'C', 'C', 'C', 'C', 'C', 'C', 'C', 'C', 'C', 'C', 'C', 'C', 'C', 'C', 'C', 'C']","[588445, 589085, 589715, 590326, 590929, 591533, 592183, 592744, 593287, 593886, 594425, 595026, 595590, 596145, 596702, 597274, 597848, 598391, 598968, 599545, 600077, 600693, 601260]","[588517, 589135, 589808, 590436, 591045, 591661, 592277, 592821, 593356, 593971, 594502, 595087, 595655, 596226, 596763, 597330, 597878, 598447, 599025, 599599, 600135, 600767, 601310]","[144, 77, 57, 101, 138, 149, 104, 67, 88, 97, 110, 79, 81, 37, 60, 9, 32, 60, 73, 23, 84, 31, 25]","[588453, 589090, 589719, 590330, 590934, 591537, 592188, 592749, 593291, 593890, 594429, 595032, 595596, 596151, 596708, 597279, 597853, 598397, 598974, 599552, 600082, 600699, 601266]","[588024, 588623, 589223, 589824, 590424, 591024, 591624, 592224, 592764, 593307, 593906, 594445, 595046, 595610, 596165, 596722, 597294, 597868, 598411, 598988, 599565, 600097, 600713, 601280]",64,EM,U,R,ITMSR,1.1
2,400,trial,0,22,22,22,trial,"['S', 'S', 'S', 'S', 'S', 'S', 'S', 'S', 'C', 'C', 'C', 'C', 'C', 'C', 'C', 'C', 'C', 'C', 'C', 'C', 'C', 'C', 'C', 'C']","[606816, 607208, 607522, 607835, 608224, 608624, 609063, 609431, 609765, 610192, 610587, 610956, 611325, 611678, 612089, 612506, 612893, 613259, 613664, 614039, 614436, 614816, 615231, 615631]","[606896, 607277, 607593, 607916, 608293, 608676, 609118, 609478, 609835, 610243, 610642, 611007, 611383, 611746, 612123, 612550, 612945, 613328, 613729, 614114, 614521, 614898, 615303, 615682]","[8, 42, 38, 65, 52, 119, 109, 119, 115, 70, 98, 113, 107, 78, 108, 98, 100, 124, 115, 121, 121, 166, 157, 154]","[606822, 607214, 607528, 607840, 608229, 608628, 609068, 609435, 609770, 610197, 610591, 610960, 611330, 611683, 612093, 612511, 612898, 613263, 613668, 614043, 614440, 614819, 615234, 615635]","[606649, 607049, 607449, 607849, 608249, 608649, 609049, 609449, 609785, 610212, 610607, 610976, 611345, 611698, 612109, 612526, 612913, 613279, 613684, 614060, 614456, 614836, 615251, 615651]",64,EM,U,R,ITMSR,1.1
1,400,trial,0,23,23,23,trial,"['S', 'S', 'S', 'S', 'S', 'S', 'S', 'S', 'C', 'C', 'C', 'C', 'C', 'C', 'C', 'C', 'C', 'C', 'C', 'C', 'C', 'C', 'C', 'C']","[621403, 621758, 622061, 622398, 622813, 623165, 623568, 623973, 624405, 624805, 625216, 625590, 625957, 626320, 626719, 627124, 627547, 627941, 628359, 628726, 629121, 629509, 629974, 630347]","[621471, 621843, 622154, 622490, 622910, 623260, 623669, 624093, 624535, 624885, 625298, 625700, 626059, 626392, 626778, 627206, 627631, 628020, 628445, 628809, 629196, 629585, 630045, 630423]","[140, 132, 127, 163, 144, 140, 139, 179, 178, 152, 159, 153, 158, 158, 128, 142, 160, 150, 150, 146, 141, 117, 177, 142]","[621407, 621762, 622064, 622401, 622817, 623168, 623572, 623976, 624408, 624808, 625219, 625593, 625960, 626323, 626722, 627127, 627551, 627945, 628362, 628730, 629125, 629513, 629977, 630351]","[621243, 621643, 622043, 622443, 622843, 623243, 623643, 624044, 624425, 624825, 625236, 625610, 625977, 626340, 626739, 627144, 627567, 627961, 628379, 628746, 629141, 629529, 629994, 630367]",64,EM,U,R,ITMSR,1.1
4,400,trial,0,24,24,24,trial,"['S', 'S', 'S', 'S', 'S', 'S', 'S', 'S', 'C', 'C', 'C', 'C', 'C', 'C', 'C', 'C', 'C', 'C', 'C', 'C', 'C', 'C', 'C', 'C']","[636172, 636489, 636790, 637052, 637409, 637840, 638247, 638641, 639048, 639428, 639808, 640222, 640603, 640965, 641373, 641788, 642169, 642529, 642934, 643313, 643718, 644127, 644535, 644909]","[636261, 636573, 636887, 637159, 637507, 637930, 638348, 638743, 639109, 639492, 639873, 640297, 640684, 641049, 641442, 641860, 642251, 642612, 643014, 643404, 643812, 644199, 644612, 645017]","[236, 98, 144, 148, 158, 150, 160, 140, 122, 140, 155, 133, 141, 129, 150, 154, 149, 142, 160, 128, 157, 160, 140, 168]","[636180, 636494, 636793, 637056, 637412, 637843, 638249, 638644, 639052, 639431, 639812, 640226, 640607, 640969, 641376, 641792, 642172, 642533, 642937, 643317, 643722, 644130, 644538, 644911]","[635877, 636277, 636677, 637077, 637477, 637877, 638277, 638678, 639068, 639448, 639828, 640242, 640623, 640985, 641393, 641808, 642189, 642549, 642954, 643333, 643738, 644147, 644555, 644929]",64,EM,U,R,ITMSR,1.1
4,600,trial,0,25,25,25,trial,"['S', 'S', 'S', 'S', 'S', 'S', 'S', 'S', 'C', 'C', 'C', 'C', 'C', 'C', 'C', 'C', 'C', 'C', 'C', 'C', 'C', 'C', 'C', 'C']","[650798, 651091, 651720, 652432, 653022, 653623, 654248, 654806, 655396, 655965, 656549, 657160, 657712, 658310, 658862, 659469, 660006, 660591, 661175, 661723, 662233, 662766, 663284, 663869]","[650883, 651207, 651823, 652536, 653134, 653719, 654354, 654873, 655481, 656052, 656622, 657231, 657816, 658413, 658946, 659543, 660094, 660672, 661279, 661775, 662294, 662824, 663374, 663926]","[92, 139, 120, 122, 119, 145, 151, 147, 120, 97, 84, 116, 106, 97, 124, 24, 98, 86, 114, 54, 51, 71, 88, 63]","[650802, 651095, 651724, 652436, 653026, 653627, 654252, 654809, 655400, 655969, 656553, 657164, 657715, 658314, 658866, 659473, 660011, 660595, 661182, 661727, 662237, 662770, 663287, 663873]","[650649, 651248, 651848, 652448, 653048, 653648, 654248, 654849, 655416, 655985, 656569, 657180, 657732, 658330, 658882, 659489, 660026, 660611, 661195, 661743, 662253, 662786, 663304, 663889]",64,EM,U,R,ITMSR,1.1
4,400,trial,0,26,26,26,trial,"['S', 'S', 'S', 'S', 'S', 'S', 'S', 'C', 'C', 'C', 'C', 'C', 'C', 'C', 'C', 'C', 'C', 'C', 'C', 'C', 'C', 'C', 'C']","[669786, 670187, 670587, 670989, 671392, 671805, 672210, 672603, 672979, 673363, 673734, 674122, 674501, 674893, 675281, 675660, 676035, 676450, 676818, 677204, 677562, 677942, 678336]","[669879, 670279, 670686, 671100, 671455, 671896, 672304, 672706, 673073, 673444, 673804, 674169, 674571, 674967, 675361, 675731, 676071, 676515, 676902, 677299, 677643, 678011, 678407]","[74, 84, 114, 137, 115, 134, 120, 108, 108, 74, 63, 75, 81, 117, 91, 81, 71, 119, 252, 218, 70, 95, 92]","[669791, 670191, 670592, 670993, 671396, 671808, 672215, 672607, 672983, 673368, 673738, 674126, 674505, 674897, 675286, 675664, 676039, 676453, 676824, 677211, 677566, 677946, 678340]","[669479, 669879, 670279, 670680, 671080, 671480, 671880, 672280, 672623, 672999, 673383, 673754, 674142, 674521, 674913, 675301, 675680, 676056, 676470, 676838, 677224, 677582, 677962, 678356]",64,EM,U,R,ITMSR,1.1
3,600,trial,0,27,27,27,trial,"['S', 'S', 'S', 'S', 'S', 'S', 'S', 'S', 'C', 'C', 'C', 'C', 'C', 'C', 'C', 'C', 'C', 'C', 'C', 'C', 'C', 'C', 'C', 'C']","[684254, 684618, 685201, 685802, 686403, 686996, 687654, 688246, 688803, 689357, 689935, 690524, 691072, 691673, 692261, 692847, 693402, 694039, 694619, 695182, 695732, 696326, 696880, 697416]","[684333, 684735, 685305, 685897, 686501, 687105, 687736, 688328, 688894, 689431, 690004, 690593, 691168, 691773, 692368, 692941, 693480, 694118, 694705, 695249, 695788, 696395, 696936, 697496]","[15, 93, 139, 122, 126, 149, 144, 153, 150, 96, 92, 241, 78, 9, 62, 71, 95, 114, 89, 75, 43, 72, 51, 53]","[684260, 684623, 685204, 685806, 686407, 687000, 687659, 688248, 688806, 689362, 689939, 690529, 691076, 691679, 692265, 692852, 693406, 694043, 694623, 695186, 695735, 696330, 696884, 697420]","[684047, 684646, 685246, 685846, 686446, 687046, 687646, 688246, 688823, 689377, 689955, 690544, 691092, 691693, 692281, 692867, 693422, 694060, 694639, 695202, 695752, 696346, 696900, 697436]",64,EM,U,R,ITMSR,1.1
0,600,trial,0,28,28,28,trial,"['S', 'S', 'S', 'S', 'S', 'S', 'S', 'S', 'C', 'C', 'C', 'C', 'C', 'C', 'C', 'C', 'C', 'C', 'C', 'C', 'C', 'C', 'C', 'C']","[703275, 703638, 704091, 704674, 705247, 705835, 706446, 707122, 707653, 708221, 708767, 709311, 709889, 710430, 710957, 711490, 712028, 712568, 713113, 713656, 714200, 714769, 715484, 716001]","[703368, 703726, 704184, 704792, 705341, 705942, 706553, 707234, 707751, 708314, 708884, 709402, 710002, 710544, 711095, 711616, 712099, 712659, 713178, 713755, 714302, 714802, 715551, 716092]","[78, 151, 155, 105, 125, 125, 140, 53, 120, 118, 239, 78, 50, 71, 100, 86, 50, 254, 25, 65, 77, 238, 76, 45]","[703280, 703640, 704094, 704678, 705251, 705839, 706450, 707181, 707657, 708226, 708773, 709315, 709895, 710435, 710961, 711495, 712033, 712574, 713119, 713661, 714204, 714774, 715489, 716007]","[702934, 703533, 704133, 704733, 705333, 705933, 706533, 707133, 707673, 708241, 708787, 709331, 709909, 710450, 710977, 711511, 712048, 712588, 713133, 713676, 714220, 714789, 715504, 716021]",64,EM,U,R,ITMSR,1.1
5,600,trial,0,29,29,29,trial,"['S', 'S', 'S', 'S', 'S', 'S', 'S', 'S', 'C', 'C', 'C', 'C', 'C', 'C', 'C', 'C', 'C', 'C', 'C', 'C', 'C', 'C', 'C', 'C']","[721946, 722295, 722851, 723435, 723978, 724590, 725192, 725780, 726348, 726889, 727447, 728007, 728595, 729185, 729779, 730310, 730915, 731438, 732038, 732660, 733233, 733788, 734371, 734925]","[722038, 722394, 722952, 723538, 724077, 724694, 725316, 725895, 726474, 727085, 727579, 728112, 728692, 729276, 729879, 730450, 731042, 731698, 732293, 732892, 733383, 733986, 734493, 735042]","[4, 131, 164, 157, 170, 163, 180, 182, 186, 179, 157, 174, 169, 164, 162, 173, 180, 170, 183, 185, 180, 185, 171, 166]","[721988, 722299, 722853, 723438, 723980, 724592, 725194, 725782, 726350, 726892, 727450, 728009, 728597, 729188, 729782, 730313, 730917, 731440, 732040, 732662, 733235, 733790, 734374, 734928]","[721641, 722241, 722841, 723441, 724041, 724641, 725241, 725841, 726368, 726909, 727468, 728027, 728615, 729205, 729799, 730330, 730935, 731458, 732058, 732680, 733253, 733808, 734391, 734945]",64,EM,U,R,ITMSR,1.1
0,600,trial,0,30,30,30,trial,"['S', 'S', 'S', 'S', 'S', 'S', 'S', 'S', 'C', 'C', 'C', 'C', 'C', 'C', 'C', 'C', 'C', 'C', 'C', 'C', 'C', 'C', 'C', 'C']","[749139, 749510, 750070, 750656, 751230, 751831, 752417, 753003, 753608, 754121, 754696, 755240, 755814, 756426, 756974, 757590, 758172, 758747, 759343, 759903, 760584, 761155, 761773, 762343]","[749227, 749604, 750163, 750755, 751364, 751955, 752562, 753130, 753710, 754235, 754809, 755373, 756060, 756589, 757138, 757733, 758379, 758924, 759582, 760265, 760822, 761431, 761997, 762571]","[88, 152, 174, 176, 182, 175, 184, 169, 169, 167, 168, 136, 180, 179, 162, 166, 173, 160, 176, 179, 167, 169, 155, 145]","[749145, 749514, 750073, 750658, 751234, 751834, 752419, 753005, 753611, 754124, 754699, 755244, 755816, 756429, 756977, 757593, 758175, 758750, 759346, 759906, 760586, 761158, 761776, 762346]","[748898, 749497, 750097, 750697, 751297, 751897, 752497, 753097, 753628, 754141, 754716, 755260, 755834, 756446, 756994, 757610, 758192, 758767, 759363, 759923, 760604, 761176, 761793, 762363]",64,EM,U,R,ITMSR,1.1
3,400,trial,0,31,31,31,trial,"['S', 'S', 'S', 'S', 'S', 'S', 'S', 'S', 'C', 'C', 'C', 'C', 'C', 'C', 'C', 'C', 'C', 'C', 'C', 'C', 'C', 'C', 'C', 'C']","[768029, 768418, 768768, 769098, 769463, 769845, 770250, 770658, 771045, 771449, 771812, 772224, 772606, 772978, 773382, 773771, 774172, 774577, 774986, 775392, 775797, 776206, 776649, 777063]","[768142, 768516, 768867, 769203, 769559, 769933, 770340, 770758, 771172, 771506, 771920, 772343, 772719, 773084, 773467, 773856, 774270, 774671, 775085, 775500, 775899, 776322, 776757, 777166]","[165, 164, 170, 177, 165, 172, 167, 141, 186, 181, 179, 174, 162, 158, 169, 164, 163, 168, 159, 170, 174, 171, 170, 163]","[768033, 768421, 768771, 769099, 769466, 769848, 770253, 770659, 771047, 771451, 771815, 772226, 772609, 772980, 773384, 773774, 774174, 774579, 774989, 775395, 775799, 776209, 776652, 777065]","[767862, 768262, 768662, 769062, 769462, 769862, 770263, 770662, 771065, 771469, 771832, 772244, 772626, 772998, 773402, 773791, 774192, 774597, 775006, 775412, 775817, 776226, 776669, 777083]",64,EM,U,R,ITMSR,1.1
5,600,trial,0,32,32,32,trial,"['S', 'S', 'S', 'S', 'S', 'S', 'S', 'S', 'C', 'C', 'C', 'C', 'C', 'C', 'C', 'C', 'C', 'C', 'C', 'C', 'C', 'C', 'C', 'C']","[782787, 783138, 783641, 784288, 784913, 785474, 786127, 786688, 787244, 787816, 788363, 788923, 789489, 790044, 790656, 791200, 791731, 792292, 792844, 793391, 793913, 794525, 795098, 795655]","[782865, 783236, 783734, 784418, 785005, 785600, 786267, 786800, 787366, 787922, 788469, 789038, 789614, 790180, 790769, 791299, 791826, 792421, 792983, 793517, 794027, 794608, 795198, 795778]","[255, 121, 158, 156, 160, 170, 166, 160, 167, 142, 155, 166, 175, 175, 173, 178, 184, 185, 181, 169, 166, 177, 163, 167]","[782793, 783142, 783645, 784291, 784916, 785476, 786130, 786691, 787247, 787819, 788365, 788926, 789491, 790047, 790660, 791203, 791733, 792295, 792846, 793395, 793916, 794528, 795101, 795658]","[782542, 783142, 783742, 784343, 784942, 785542, 786142, 786742, 787264, 787836, 788383, 788943, 789509, 790064, 790676, 791220, 791751, 792312, 792864, 793411, 793933, 794545, 795118, 795675]",64,EM,U,R,ITMSR,1.1
1,400,trial,0,33,33,33,trial,"['S', 'S', 'S', 'S', 'S', 'S', 'S', 'S', 'C', 'C', 'C', 'C', 'C', 'C', 'C', 'C', 'C', 'C', 'C', 'C', 'C', 'C', 'C', 'C']","[801491, 801869, 802181, 802501, 802883, 803287, 803676, 804056, 804432, 804800, 805169, 805524, 805891, 806241, 806623, 806966, 807351, 807733, 808098, 808484, 808857, 809228, 809611, 809998]","[801607, 801974, 802293, 802613, 803020, 803406, 803798, 804154, 804538, 804883, 805261, 805616, 805988, 806340, 806719, 807080, 807454, 807839, 808208, 808588, 808952, 809335, 809693, 810102]","[124, 149, 135, 126, 171, 155, 160, 143, 129, 114, 117, 122, 125, 141, 147, 173, 150, 159, 172, 170, 158, 149, 140, 154]","[801496, 801873, 802185, 802504, 802886, 803290, 803679, 804059, 804435, 804803, 805172, 805527, 805894, 806244, 806626, 806969, 807354, 807735, 808101, 808487, 808860, 809231, 809614, 810001]","[801318, 801718, 802118, 802519, 802918, 803318, 803718, 804118, 804452, 804820, 805189, 805544, 805911, 806261, 806643, 806986, 807371, 807753, 808118, 808504, 808877, 809248, 809631, 810018]",64,EM,U,R,ITMSR,1.1
4,400,trial,0,34,34,34,trial,"['S', 'S', 'S', 'S', 'S', 'S', 'S', 'S', 'C', 'C', 'C', 'C', 'C', 'C', 'C', 'C', 'C', 'C', 'C', 'C', 'C', 'C', 'C', 'C']","[815910, 816291, 816598, 816925, 817326, 817738, 818142, 818514, 818940, 819337, 819707, 820056, 820480, 820894, 821272, 821650, 822024, 822409, 822801, 823189, 823548, 823925, 824339, 824706]","[816015, 816384, 816695, 817034, 817438, 817812, 818248, 818594, 819049, 819430, 819818, 820155, 820562, 820973, 821367, 821747, 822132, 822525, 822895, 823281, 823645, 824012, 824431, 824805]","[124, 139, 128, 136, 160, 117, 115, 96, 169, 151, 140, 140, 145, 152, 97, 139, 155, 132, 119, 142, 122, 119, 124, 130]","[815915, 816294, 816602, 816928, 817328, 817741, 818146, 818519, 818944, 819340, 819712, 820059, 820483, 820898, 821277, 821654, 822027, 822413, 822805, 823193, 823553, 823930, 824343, 824710]","[815765, 816165, 816565, 816965, 817366, 817765, 818165, 818565, 818960, 819357, 819727, 820076, 820500, 820914, 821293, 821670, 822044, 822429, 822821, 823209, 823568, 823945, 824359, 824726]",64,EM,U,R,ITMSR,1.1
2,400,trial,0,35,35,35,trial,"['S', 'S', 'S', 'S', 'S', 'S', 'S', 'S', 'C', 'C', 'C', 'C', 'C', 'C', 'C', 'C', 'C', 'C', 'C', 'C', 'C', 'C', 'C', 'C']","[830392, 830698, 831027, 831413, 831812, 832191, 832609, 832998, 833392, 833768, 834221, 834620, 834988, 835394, 835801, 836167, 836552, 836932, 837345, 837755, 838144, 838549, 838922, 839345]","[830484, 830802, 831131, 831523, 831916, 832263, 832695, 833101, 833494, 833859, 834296, 834711, 835080, 835473, 835883, 836250, 836665, 837014, 837417, 837842, 838224, 838620, 839021, 839416]","[133, 130, 143, 171, 143, 148, 170, 175, 180, 162, 116, 157, 154, 158, 162, 153, 155, 155, 150, 144, 152, 142, 146, 126]","[830396, 830703, 831031, 831416, 831816, 832194, 832612, 833001, 833395, 833771, 834225, 834623, 834992, 835397, 835804, 836170, 836555, 836935, 837349, 837760, 838147, 838551, 838925, 839348]","[830245, 830645, 831045, 831446, 831845, 832245, 832645, 833045, 833412, 833788, 834241, 834640, 835008, 835415, 835821, 836187, 836572, 836952, 837365, 837775, 838164, 838569, 838942, 839365]",64,EM,U,R,ITMSR,1.1
1,400,trial,0,36,36,36,trial,"['S', 'S', 'S', 'S', 'S', 'S', 'S', 'S', 'C', 'C', 'C', 'C', 'C', 'C', 'C', 'C', 'C', 'C', 'C', 'C', 'C', 'C', 'C', 'C']","[845104, 845421, 845701, 846036, 846415, 846818, 847203, 847590, 848001, 848368, 848763, 849129, 849524, 849902, 850293, 850685, 851058, 851437, 851859, 852213, 852614, 852993, 853389, 853780]","[845213, 845509, 845813, 846119, 846519, 846906, 847293, 847696, 848111, 848496, 848885, 849235, 849626, 850012, 850397, 850791, 851167, 851505, 851961, 852300, 852692, 853064, 853486, 853855]","[42, 127, 142, 160, 170, 153, 161, 167, 172, 154, 163, 165, 168, 174, 183, 173, 162, 144, 123, 146, 171, 144, 171, 156]","[845159, 845425, 845705, 846040, 846418, 846822, 847206, 847593, 848003, 848371, 848766, 849132, 849528, 849905, 850296, 850689, 851062, 851441, 851863, 852216, 852617, 852997, 853392, 853784]","[844856, 845255, 845656, 846056, 846456, 846856, 847256, 847656, 848021, 848388, 848783, 849149, 849544, 849922, 850313, 850705, 851078, 851458, 851879, 852233, 852634, 853013, 853409, 853800]",64,EM,U,R,ITMSR,1.1
3,400,trial,0,37,37,37,trial,"['S', 'S', 'S', 'S', 'S', 'S', 'S', 'S', 'C', 'C', 'C', 'C', 'C', 'C', 'C', 'C', 'C', 'C', 'C', 'C', 'C', 'C', 'C', 'C']","[859661, 860048, 860336, 860666, 861145, 861478, 861865, 862246, 862700, 863093, 863505, 863854, 864274, 864706, 865092, 865495, 865882, 866265, 866679, 867054, 867453, 867861, 868257, 868674]","[859769, 860136, 860432, 860755, 861214, 861598, 861933, 862323, 862765, 863160, 863576, 863934, 864344, 864787, 865159, 865562, 865954, 866353, 866750, 867113, 867536, 867930, 868330, 868748]","[174, 150, 172, 155, 164, 157, 178, 179, 152, 140, 146, 170, 167, 163, 131, 132, 142, 159, 170, 157, 170, 157, 148, 162]","[859664, 860052, 860339, 860670, 861148, 861483, 861869, 862249, 862703, 863097, 863509, 863857, 864277, 864709, 865096, 865499, 865886, 866268, 866681, 867058, 867457, 867864, 868261, 868677]","[859515, 859915, 860315, 860716, 861115, 861515, 861915, 862315, 862721, 863113, 863525, 863874, 864294, 864727, 865112, 865515, 865902, 866285, 866699, 867074, 867473, 867881, 868277, 868695]",64,EM,U,R,ITMSR,1.1
1,600,trial,0,38,38,38,trial,"['S', 'S', 'S', 'S', 'S', 'S', 'S', 'S', 'C', 'C', 'C', 'C', 'C', 'C', 'C', 'C', 'C', 'C', 'C', 'C', 'C', 'C', 'C', 'C']","[874221, 874531, 875123, 875732, 876367, 876988, 877602, 878209, 878820, 879376, 879958, 880493, 881126, 881709, 882289, 882846, 883396, 884011, 884567, 885143, 885696, 886246, 886835, 887363]","[874324, 874636, 875249, 875831, 876470, 877089, 877717, 878319, 878929, 879451, 880034, 880569, 881214, 881788, 882388, 882931, 883515, 884103, 884661, 885227, 885808, 886346, 886933, 887451]","[147, 161, 157, 162, 166, 171, 157, 145, 168, 164, 159, 156, 124, 90, 93, 112, 45, 53, 113, 119, 104, 102, 62, 134]","[874225, 874534, 875127, 875737, 876371, 876991, 877605, 878213, 878822, 879379, 879961, 880496, 881130, 881714, 882294, 882851, 883402, 884016, 884572, 885148, 885701, 886251, 886841, 887367]","[874071, 874670, 875270, 875870, 876470, 877070, 877670, 878270, 878840, 879396, 879978, 880514, 881146, 881729, 882309, 882866, 883416, 884031, 884587, 885164, 885716, 886266, 886855, 887384]",64,EM,U,R,ITMSR,1.1
4,400,trial,0,39,39,39,trial,"['S', 'S', 'S', 'S', 'S', 'S', 'S', 'C', 'C', 'C', 'C', 'C', 'C', 'C', 'C', 'C', 'C', 'C', 'C', 'C', 'C', 'C', 'C']","[893312, 893721, 894075, 894535, 894940, 895355, 895709, 896117, 896477, 896859, 897281, 897693, 898118, 898519, 898899, 899290, 899686, 900072, 900480, 900854, 901263, 901673, 902081]","[893398, 893803, 894157, 894606, 895022, 895441, 895792, 896197, 896555, 896923, 897334, 897729, 898176, 898603, 898973, 899381, 899772, 900163, 900561, 900950, 901334, 901746, 902142]","[65, 128, 132, 149, 146, 129, 123, 107, 92, 96, 101, 101, 126, 74, 92, 119, 120, 68, 94, 50, 52, 79, 81]","[893317, 893725, 894080, 894538, 894943, 895357, 895712, 896121, 896482, 896864, 897285, 897697, 898122, 898525, 898905, 899294, 899690, 900077, 900484, 900860, 901268, 901679, 902086]","[892947, 893347, 893747, 894147, 894547, 894947, 895347, 895747, 896137, 896497, 896879, 897301, 897713, 898138, 898539, 898919, 899310, 899706, 900092, 900500, 900874, 901283, 901693, 902102]",64,EM,U,R,ITMSR,1.1
4,600,trial,0,40,40,40,trial,"['S', 'S', 'S', 'S', 'S', 'S', 'S', 'S', 'C', 'C', 'C', 'C', 'C', 'C', 'C', 'C', 'C', 'C', 'C', 'C', 'C', 'C', 'C', 'C']","[907743, 908136, 908750, 909360, 909939, 910597, 911220, 911785, 912324, 912892, 913488, 914027, 914565, 915137, 915717, 916285, 916837, 917365, 917940, 918481, 919002, 919553, 920118, 920692]","[907858, 908253, 908843, 909451, 910039, 910683, 911292, 911872, 912389, 912964, 913547, 914096, 914647, 915215, 915795, 916364, 916920, 917465, 918016, 918569, 919076, 919647, 920198, 920761]","[105, 102, 125, 107, 156, 146, 122, 130, 141, 119, 4, 109, 116, 90, 98, 114, 111, 118, 83, 104, 100, 115, 92, 97]","[907747, 908140, 908753, 909365, 909942, 910598, 911224, 911790, 912328, 912897, 913495, 914033, 914570, 915142, 915721, 916289, 916841, 917369, 917945, 918486, 919007, 919557, 920122, 920697]","[907597, 908197, 908797, 909398, 909997, 910597, 911197, 911797, 912344, 912912, 913508, 914048, 914585, 915158, 915737, 916305, 916857, 917385, 917960, 918501, 919022, 919573, 920138, 920712]",64,EM,U,R,ITMSR,1.1
5,600,trial,0,41,41,41,trial,"['S', 'S', 'S', 'S', 'S', 'S', 'S', 'S', 'C', 'C', 'C', 'C', 'C', 'C', 'C', 'C', 'C', 'C', 'C', 'C', 'C', 'C', 'C', 'C']","[926636, 926986, 927629, 928197, 928746, 929319, 929952, 930556, 931111, 931641, 932263, 932875, 933483, 934072, 934670, 935270, 935855, 936452, 937056, 937629, 938238, 938805, 939400, 939986]","[926729, 927096, 927718, 928294, 928835, 929391, 930057, 930653, 931208, 931722, 932314, 932954, 933542, 934140, 934701, 935341, 935918, 936546, 937124, 937707, 938316, 938881, 939472, 940049]","[81, 110, 56, 53, 50, 53, 74, 60, 68, 250, 228, 22, 44, 69, 248, 246, 61, 22, 241, 251, 25, 67, 234, 32]","[926641, 926991, 927634, 928201, 928752, 929325, 929958, 930563, 931118, 931648, 932270, 932883, 933490, 934077, 934676, 935276, 935860, 936459, 937063, 937635, 938247, 938810, 939406, 939993]","[926397, 926997, 927597, 928197, 928797, 929397, 929997, 930597, 931131, 931661, 932283, 932895, 933504, 934092, 934690, 935290, 935875, 936472, 937076, 937649, 938258, 938825, 939420, 940006]",64,EM,U,R,ITMSR,1.1
5,400,trial,0,42,42,42,trial,"['S', 'S', 'S', 'S', 'S', 'S', 'S', 'S', 'C', 'C', 'C', 'C', 'C', 'C', 'C', 'C', 'C', 'C', 'C', 'C', 'C', 'C', 'C', 'C']","[946000, 946358, 946695, 946974, 947362, 947713, 948136, 948543, 948922, 949319, 949726, 950118, 950480, 950866, 951258, 951647, 952093, 952502, 952921, 953321, 953702, 954129, 954550, 954964]","[946096, 946444, 946778, 947061, 947428, 947800, 948249, 948634, 949029, 949388, 949749, 950174, 950568, 950946, 951349, 951715, 952161, 952574, 952977, 953394, 953784, 954180, 954621, 955039]","[33, 27, 69, 57, 94, 74, 36, 234, 34, 139, 156, 220, 6, 219, 192, 201, 117, 239, 245, 1, 242, 182, 220, 251]","[946009, 946365, 946701, 946980, 947367, 947718, 948143, 948549, 948928, 949325, 949733, 950124, 950488, 950874, 951266, 951655, 952101, 952509, 952928, 953328, 953709, 954136, 954556, 954972]","[945799, 946198, 946598, 946998, 947398, 947799, 948198, 948598, 948942, 949339, 949746, 950138, 950500, 950886, 951278, 951667, 952113, 952522, 952941, 953341, 953722, 954149, 954570, 954984]",64,EM,U,R,ITMSR,1.1
0,600,trial,0,43,43,43,trial,"['S', 'S', 'S', 'S', 'S', 'S', 'S', 'S', 'C', 'C', 'C', 'C', 'C', 'C', 'C', 'C', 'C', 'C', 'C', 'C', 'C', 'C', 'C', 'C']","[960586, 960923, 961524, 962144, 962740, 963341, 963928, 964540, 965134, 965583, 966069, 966706, 967254, 967880, 968474, 969055, 969636, 970253, 970796, 971400, 972013, 972607, 973197, 973772]","[960683, 961025, 961615, 962212, 962809, 963439, 964023, 964641, 965218, 965665, 966132, 966726, 967317, 967936, 968529, 969079, 969658, 970300, 970870, 971465, 972081, 972698, 973243, 973792]","[191, 245, 16, 254, 41, 28, 33, 58, 228, 247, 89, 64, 112, 59, 69, 107, 236, 83, 184, 158, 215, 101, 109, 237]","[960593, 960930, 961530, 962150, 962745, 963347, 963934, 964546, 965141, 965590, 966078, 966712, 967262, 967889, 968482, 969063, 969646, 970263, 970803, 971409, 972019, 972615, 973204, 973775]","[960446, 961046, 961646, 962246, 962846, 963446, 964046, 964646, 965154, 965603, 966089, 966726, 967274, 967900, 968494, 969075, 969656, 970273, 970816, 971420, 972034, 972627, 973217, 973792]",64,EM,U,R,ITMSR,1.1
5,400,trial,0,44,44,44,trial,"['S', 'S', 'S', 'S', 'S', 'S', 'S', 'S', 'C', 'C', 'C', 'C', 'C', 'C', 'C', 'C', 'C', 'C', 'C', 'C', 'C', 'C', 'C', 'C', 'C']","[979697, 980045, 980337, 980659, 981116, 981477, 981890, 982286, 982681, 983124, 983475, 983575, 983886, 984287, 984697, 985157, 985600, 986001, 986392, 986789, 987166, 987580, 987975, 988361, 988756]","[979761, 980101, 980409, 980743, 981196, 981563, 981984, 982365, 982764, 983185, 983495, 983595, 983943, 984339, 984755, 985217, 985670, 986084, 986479, 986847, 987224, 987636, 988042, 988430, 988843]","[129, 131, 236, 250, 23, 219, 245, 235, 182, 77, 136, 221, 161, 57, 248, 48, 90, 147, 112, 246, 77, 47, 255, 36, 94]","[979704, 980052, 980342, 980666, 981122, 981484, 981896, 982292, 982688, 983132, 983481, 983575, 983895, 984295, 984707, 985165, 985608, 986010, 986400, 986799, 987174, 987587, 987983, 988370, 988766]","[979525, 979926, 980325, 980725, 981125, 981525, 981925, 982325, 982701, 983144, 983495, 983906, 984307, 984717, 985177, 985620, 986021, 986413, 986809, 987186, 987600, 987995, 988381, 988776]",64,EM,U,R,ITMSR,1.1
1,600,trial,0,45,45,45,trial,"['S', 'S', 'S', 'S', 'S', 'S', 'S', 'S', 'C', 'C', 'C', 'C', 'C', 'C', 'C', 'C', 'C', 'C', 'C', 'C', 'C', 'C', 'C', 'C']","[994741, 995017, 995558, 996220, 996847, 997442, 998019, 998623, 999199, 999740, 1000294, 1000823, 1001361, 1001880, 1002423, 1002944, 1003452, 1003938, 1004454, 1004979, 1005487, 1005974, 1006438, 1006995]","[994813, 995113, 995644, 996325, 996940, 997548, 998131, 998703, 999309, 999819, 1000381, 1000915, 1001447, 1001982, 1002514, 1003031, 1003549, 1004038, 1004541, 1005068, 1005543, 1006051, 1006519, 1007065]","[169, 46, 131, 162, 164, 157, 154, 164, 179, 140, 152, 171, 162, 173, 171, 114, 152, 150, 153, 153, 139, 135, 127, 106]","[994749, 995022, 995561, 996224, 996849, 997446, 998023, 998626, 999202, 999744, 1000298, 1000826, 1001364, 1001883, 1002427, 1002948, 1003456, 1003941, 1004457, 1004982, 1005491, 1005978, 1006441, 1007000]","[994528, 995128, 995728, 996328, 996928, 997528, 998128, 998728, 999219, 999760, 1000314, 1000843, 1001381, 1001901, 1002443, 1002964, 1003472, 1003958, 1004474, 1004999, 1005507, 1005995, 1006458, 1007015]",64,EM,U,R,ITMSR,1.1
2,400,trial,0,46,46,46,trial,"['S', 'S', 'S', 'S', 'S', 'S', 'S', 'S', 'C', 'C', 'C', 'C', 'C', 'C', 'C', 'C', 'C', 'C', 'C', 'C', 'C', 'C', 'C', 'C']","[1012886, 1013297, 1013581, 1013888, 1014335, 1014703, 1015069, 1015443, 1015876, 1016231, 1016615, 1016973, 1017354, 1017740, 1018116, 1018507, 1018899, 1019283, 1019686, 1020053, 1020423, 1020802, 1021167, 1021624]","[1012992, 1013373, 1013691, 1013997, 1014413, 1014778, 1015161, 1015511, 1015948, 1016312, 1016685, 1017052, 1017412, 1017826, 1018209, 1018586, 1018985, 1019382, 1019789, 1020153, 1020521, 1020875, 1021240, 1021699]","[121, 121, 122, 116, 162, 153, 144, 137, 117, 111, 114, 146, 151, 148, 166, 164, 189, 185, 167, 163, 167, 163, 147, 161]","[1012890, 1013302, 1013585, 1013892, 1014338, 1014707, 1015072, 1015447, 1015880, 1016237, 1016620, 1016976, 1017358, 1017743, 1018119, 1018510, 1018902, 1019286, 1019689, 1020056, 1020426, 1020805, 1021171, 1021628]","[1012731, 1013130, 1013530, 1013931, 1014330, 1014730, 1015130, 1015530, 1015896, 1016251, 1016635, 1016993, 1017374, 1017760, 1018136, 1018527, 1018919, 1019303, 1019706, 1020073, 1020443, 1020822, 1021187, 1021644]",64,EM,U,R,ITMSR,1.1
4,600,trial,0,47,47,47,trial,"['S', 'S', 'S', 'S', 'S', 'S', 'S', 'S', 'C', 'C', 'C', 'C', 'C', 'C', 'C', 'C', 'C', 'C', 'C', 'C', 'C', 'C', 'C', 'C']","[1027484, 1027866, 1028476, 1029076, 1029692, 1030258, 1030848, 1031487, 1032056, 1032635, 1033193, 1033773, 1034322, 1034887, 1035436, 1035990, 1036536, 1037109, 1037664, 1038187, 1038733, 1039304, 1039841, 1040374]","[1027576, 1027982, 1028568, 1029170, 1029770, 1030348, 1030953, 1031601, 1032155, 1032719, 1033291, 1033849, 1034401, 1034973, 1035489, 1036054, 1036626, 1037194, 1037743, 1038292, 1038842, 1039384, 1039920, 1040464]","[140, 162, 162, 167, 146, 138, 166, 179, 180, 170, 178, 161, 171, 121, 112, 182, 140, 131, 132, 150, 163, 177, 166, 162]","[1027487, 1027869, 1028480, 1029080, 1029695, 1030261, 1030851, 1031490, 1032058, 1032638, 1033197, 1033776, 1034326, 1034891, 1035440, 1035993, 1036540, 1037113, 1037669, 1038190, 1038737, 1039307, 1039845, 1040377]","[1027340, 1027940, 1028540, 1029140, 1029740, 1030340, 1030940, 1031540, 1032076, 1032655, 1033213, 1033793, 1034342, 1034907, 1035456, 1036010, 1036556, 1037129, 1037684, 1038208, 1038753, 1039324, 1039861, 1040394]",64,EM,U,R,ITMSR,1.1
2,600,trial,0,48,48,48,trial,"['S', 'S', 'S', 'S', 'S', 'S', 'S', 'S', 'C', 'C', 'C', 'C', 'C', 'C', 'C', 'C', 'C', 'C', 'C', 'C', 'C', 'C', 'C', 'C']","[1046003, 1046360, 1046896, 1047491, 1048087, 1048742, 1049296, 1049937, 1050500, 1051074, 1051645, 1052163, 1052740, 1053314, 1053882, 1054478, 1055024, 1055596, 1056198, 1056780, 1057360, 1057963, 1058557, 1059101]","[1046114, 1046467, 1047050, 1047640, 1048194, 1048853, 1049397, 1050030, 1050583, 1051158, 1051750, 1052281, 1052890, 1053432, 1054015, 1054633, 1055143, 1055667, 1056269, 1056868, 1057433, 1058065, 1058671, 1059214]","[138, 152, 173, 162, 152, 169, 159, 139, 152, 133, 149, 152, 143, 136, 154, 157, 176, 160, 153, 137, 139, 38, 108, 129]","[1046007, 1046363, 1046899, 1047495, 1048091, 1048745, 1049299, 1049940, 1050503, 1051077, 1051650, 1052167, 1052744, 1053318, 1053885, 1054481, 1055026, 1055598, 1056201, 1056783, 1057364, 1057968, 1058562, 1059104]","[1045803, 1046402, 1047002, 1047602, 1048202, 1048802, 1049402, 1050002, 1050520, 1051095, 1051665, 1052183, 1052760, 1053334, 1053902, 1054498, 1055044, 1055617, 1056218, 1056800, 1057380, 1057983, 1058577, 1059121]",64,EM,U,R,ITMSR,1.1
3,600,trial,0,49,49,49,trial,"['S', 'S', 'S', 'S', 'S', 'S', 'S', 'S', 'C', 'C', 'C', 'C', 'C', 'C', 'C', 'C', 'C', 'C', 'C', 'C', 'C', 'C', 'C', 'C']","[1065022, 1065375, 1065958, 1066575, 1067168, 1067786, 1068329, 1068981, 1069506, 1070096, 1070710, 1071289, 1071863, 1072449, 1073037, 1073632, 1074249, 1074809, 1075384, 1076011, 1076558, 1077156, 1077707, 1078268]","[1065134, 1065497, 1066092, 1066689, 1067279, 1067891, 1068468, 1069086, 1069643, 1070196, 1070814, 1071395, 1071978, 1072579, 1073157, 1073693, 1074269, 1074879, 1075428, 1076102, 1076614, 1077229, 1077785, 1078343]","[83, 153, 165, 164, 180, 159, 172, 141, 140, 112, 144, 5, 116, 125, 138, 46, 247, 67, 111, 210, 38, 59, 28, 37]","[1065027, 1065378, 1065961, 1066578, 1067171, 1067789, 1068332, 1068985, 1069510, 1070101, 1070714, 1071294, 1071866, 1072451, 1073040, 1073635, 1074252, 1074813, 1075386, 1076016, 1076563, 1077160, 1077710, 1078270]","[1064841, 1065441, 1066041, 1066641, 1067241, 1067841, 1068441, 1069041, 1069527, 1070116, 1070730, 1071309, 1071883, 1072470, 1073057, 1073652, 1074269, 1074829, 1075404, 1076031, 1076578, 1077176, 1077727, 1078288]",64,EM,U,R,ITMSR,1.1
2,600,trial,0,50,50,50,trial,"['S', 'S', 'S', 'S', 'S', 'S', 'S', 'S', 'C', 'C', 'C', 'C', 'C', 'C', 'C', 'C', 'C', 'C', 'C', 'C', 'C', 'C', 'C', 'C']","[1083879, 1084283, 1084837, 1085448, 1086101, 1086664, 1087248, 1087847, 1088424, 1089029, 1089598, 1090156, 1090712, 1091272, 1091848, 1092398, 1092931, 1093447, 1094017, 1094605, 1095190, 1095754, 1096307, 1096891]","[1083974, 1084395, 1084942, 1085545, 1086206, 1086747, 1087343, 1087943, 1088515, 1089081, 1089682, 1090242, 1090823, 1091378, 1091942, 1092493, 1092990, 1093525, 1094100, 1094699, 1095290, 1095845, 1096411, 1096988]","[241, 117, 146, 126, 125, 28, 86, 103, 122, 232, 63, 128, 129, 79, 94, 108, 253, 35, 18, 88, 99, 93, 141, 130]","[1083887, 1084288, 1084841, 1085452, 1086105, 1086669, 1087252, 1087850, 1088428, 1089033, 1089601, 1090159, 1090716, 1091276, 1091852, 1092401, 1092935, 1093451, 1094022, 1094607, 1095193, 1095757, 1096310, 1096894]","[1083719, 1084318, 1084918, 1085518, 1086118, 1086718, 1087319, 1087918, 1088444, 1089049, 1089618, 1090177, 1090733, 1091292, 1091868, 1092418, 1092952, 1093467, 1094037, 1094625, 1095211, 1095774, 1096327, 1096911]",64,EM,U,R,ITMSR,1.1
0,400,trial,0,51,51,51,trial,"['S', 'S', 'S', 'S', 'S', 'S', 'S', 'S', 'C', 'C', 'C', 'C', 'C', 'C', 'C', 'C', 'C', 'C', 'C', 'C', 'C', 'C', 'C', 'C']","[1102551, 1102913, 1103227, 1103571, 1103941, 1104332, 1104741, 1105135, 1105501, 1105902, 1106252, 1106650, 1107048, 1107438, 1107838, 1108204, 1108634, 1109000, 1109410, 1109783, 1110167, 1110547, 1110910, 1111304]","[1102635, 1102999, 1103319, 1103665, 1104035, 1104423, 1104824, 1105208, 1105566, 1105976, 1106330, 1106735, 1107139, 1107517, 1107906, 1108293, 1108709, 1109079, 1109463, 1109846, 1110227, 1110615, 1110971, 1111383]","[112, 139, 129, 170, 173, 174, 154, 143, 163, 154, 161, 169, 177, 158, 165, 178, 167, 173, 160, 162, 154, 168, 167, 150]","[1102553, 1102916, 1103230, 1103574, 1103942, 1104334, 1104743, 1105138, 1105503, 1105905, 1106255, 1106652, 1107051, 1107440, 1107842, 1108207, 1108637, 1109003, 1109413, 1109786, 1110170, 1110550, 1110914, 1111307]","[1102341, 1102741, 1103141, 1103541, 1103941, 1104342, 1104741, 1105141, 1105521, 1105922, 1106272, 1106670, 1107068, 1107458, 1107858, 1108225, 1108654, 1109020, 1109430, 1109804, 1110188, 1110567, 1110930, 1111324]",64,EM,U,R,ITMSR,1.1
0,400,trial,0,52,52,52,trial,"['S', 'S', 'S', 'S', 'S', 'S', 'S', 'C', 'C', 'C', 'C', 'C', 'C', 'C', 'C', 'C', 'C', 'C', 'C', 'C', 'C', 'C', 'C']","[1117054, 1117421, 1117776, 1118278, 1118715, 1119117, 1119526, 1119917, 1120331, 1120681, 1121099, 1121512, 1121928, 1122327, 1122698, 1123073, 1123480, 1123861, 1124270, 1124631, 1125047, 1125412, 1125790]","[1117131, 1117512, 1117889, 1118376, 1118803, 1119200, 1119608, 1120001, 1120412, 1120757, 1121140, 1121545, 1122007, 1122398, 1122778, 1123164, 1123554, 1123933, 1124335, 1124712, 1125121, 1125486, 1125871]","[128, 145, 162, 178, 189, 145, 169, 168, 150, 138, 122, 94, 118, 94, 106, 107, 73, 85, 110, 133, 132, 103, 121]","[1117058, 1117425, 1117778, 1118280, 1118717, 1119121, 1119529, 1119920, 1120334, 1120685, 1121103, 1121515, 1121931, 1122331, 1122702, 1123077, 1123483, 1123864, 1124273, 1124634, 1125050, 1125414, 1125793]","[1116779, 1117179, 1117579, 1117979, 1118380, 1118779, 1119179, 1119579, 1119937, 1120351, 1120701, 1121119, 1121532, 1121948, 1122348, 1122718, 1123093, 1123501, 1123881, 1124290, 1124652, 1125067, 1125432, 1125810]",64,EM,U,R,ITMSR,1.1
3,600,trial,0,53,53,53,trial,"['S', 'S', 'S', 'S', 'S', 'S', 'S', 'S', 'C', 'C', 'C', 'C', 'C', 'C', 'C', 'C', 'C', 'C', 'C', 'C', 'C', 'C', 'C', 'C']","[1131572, 1131904, 1132456, 1133052, 1133669, 1134247, 1134859, 1135447, 1136024, 1136604, 1137144, 1137747, 1138306, 1138890, 1139472, 1140062, 1140632, 1141198, 1141753, 1142300, 1142866, 1143420, 1143967, 1144527]","[1131672, 1132028, 1132609, 1133203, 1133775, 1134374, 1134963, 1135545, 1136118, 1136679, 1137209, 1137769, 1138381, 1138941, 1139554, 1140171, 1140726, 1141278, 1141866, 1142402, 1142950, 1143499, 1144052, 1144638]","[0, 160, 170, 181, 159, 148, 163, 164, 163, 145, 127, 45, 103, 92, 75, 138, 127, 108, 150, 139, 100, 123, 138, 118]","[1131577, 1131907, 1132460, 1133054, 1133671, 1134251, 1134862, 1135449, 1136027, 1136607, 1137147, 1137753, 1138310, 1138894, 1139474, 1140065, 1140634, 1141201, 1141756, 1142303, 1142871, 1143424, 1143970, 1144531]","[1131303, 1131904, 1132504, 1133104, 1133704, 1134304, 1134904, 1135504, 1136045, 1136624, 1137164, 1137767, 1138326, 1138910, 1139492, 1140082, 1140653, 1141218, 1141773, 1142320, 1142886, 1143440, 1143987, 1144547]",64,EM,U,R,ITMSR,1.1
2,400,trial,0,54,54,54,trial,"['S', 'S', 'S', 'S', 'S', 'S', 'S', 'S', 'C', 'C', 'C', 'C', 'C', 'C', 'C', 'C', 'C', 'C', 'C', 'C', 'C', 'C', 'C', 'C']","[1161705, 1162024, 1162377, 1162735, 1163129, 1163535, 1163899, 1164246, 1164635, 1164993, 1165371, 1165730, 1166102, 1166450, 1166815, 1167170, 1167535, 1167895, 1168249, 1168628, 1168995, 1169358, 1169727, 1170091]","[1161811, 1162126, 1162460, 1162836, 1163227, 1163631, 1164001, 1164348, 1164748, 1165113, 1165490, 1165816, 1166186, 1166510, 1166894, 1167255, 1167644, 1168009, 1168359, 1168742, 1169094, 1169448, 1169837, 1170164]","[116, 162, 184, 171, 154, 154, 180, 191, 194, 185, 195, 189, 174, 176, 180, 173, 179, 186, 188, 176, 175, 167, 170, 160]","[1161758, 1162028, 1162379, 1162736, 1163134, 1163536, 1163900, 1164248, 1164638, 1164996, 1165374, 1165732, 1166105, 1166452, 1166818, 1167173, 1167537, 1167897, 1168251, 1168631, 1168997, 1169360, 1169730, 1170093]","[1161499, 1161900, 1162299, 1162699, 1163099, 1163499, 1163899, 1164299, 1164655, 1165014, 1165391, 1165750, 1166123, 1166470, 1166835, 1167191, 1167555, 1167916, 1168269, 1168648, 1169015, 1169378, 1169747, 1170111]",64,EM,U,R,ITMSR,1.1
5,600,trial,0,55,55,55,trial,"['S', 'S', 'S', 'S', 'S', 'S', 'S', 'S', 'C', 'C', 'C', 'C', 'C', 'C', 'C', 'C', 'C', 'C', 'C', 'C', 'C', 'C', 'C', 'C']","[1176041, 1176416, 1176961, 1177605, 1178209, 1178817, 1179373, 1179993, 1180578, 1181120, 1181673, 1182249, 1182814, 1183361, 1183842, 1184414, 1184992, 1185582, 1186125, 1186668, 1187171, 1187739, 1188318, 1188884]","[1176150, 1176534, 1177116, 1177737, 1178300, 1178931, 1179500, 1180096, 1180692, 1181241, 1181819, 1182431, 1182935, 1183488, 1183991, 1184539, 1185131, 1185696, 1186232, 1186775, 1187314, 1187846, 1188417, 1188986]","[171, 165, 193, 174, 189, 177, 190, 176, 177, 191, 189, 193, 157, 178, 178, 172, 181, 185, 168, 163, 158, 164, 161, 169]","[1176043, 1176419, 1176963, 1177608, 1178212, 1178819, 1179376, 1179996, 1180581, 1181123, 1181676, 1182252, 1182817, 1183364, 1183844, 1184417, 1184995, 1185585, 1186127, 1186671, 1187174, 1187743, 1188321, 1188887]","[1175842, 1176442, 1177042, 1177643, 1178242, 1178842, 1179442, 1180042, 1180598, 1181140, 1181693, 1182269, 1182834, 1183381, 1183862, 1184434, 1185012, 1185602, 1186145, 1186689, 1187191, 1187759, 1188338, 1188904]",64,EM,U,R,ITMSR,1.1
5,400,trial,0,56,56,56,trial,"['S', 'S', 'S', 'S', 'S', 'S', 'S', 'S', 'C', 'C', 'C', 'C', 'C', 'C', 'C', 'C', 'C', 'C', 'C', 'C', 'C', 'C', 'C', 'C']","[1194884, 1195229, 1195541, 1195865, 1196239, 1196625, 1197010, 1197460, 1197813, 1198166, 1198546, 1198962, 1199346, 1199732, 1200095, 1200478, 1200864, 1201233, 1201605, 1201994, 1202366, 1202761, 1203169, 1203597]","[1194982, 1195320, 1195649, 1195970, 1196341, 1196712, 1197131, 1197558, 1197919, 1198271, 1198662, 1199071, 1199451, 1199822, 1200204, 1200616, 1200991, 1201363, 1201722, 1202075, 1202457, 1202847, 1203278, 1203693]","[100, 172, 185, 162, 190, 188, 183, 190, 191, 185, 179, 127, 188, 190, 178, 182, 179, 190, 181, 186, 189, 181, 183, 155]","[1194889, 1195231, 1195543, 1195868, 1196241, 1196627, 1197012, 1197462, 1197815, 1198168, 1198548, 1199017, 1199348, 1199734, 1200097, 1200480, 1200866, 1201235, 1201607, 1201997, 1202369, 1202763, 1203171, 1203600]","[1194646, 1195046, 1195446, 1195846, 1196247, 1196646, 1197046, 1197446, 1197833, 1198186, 1198566, 1198982, 1199366, 1199752, 1200115, 1200498, 1200884, 1201253, 1201625, 1202014, 1202386, 1202781, 1203189, 1203617]",64,EM,U,R,ITMSR,1.1
4,600,trial,0,57,57,57,trial,"['S', 'S', 'S', 'S', 'S', 'S', 'S', 'S', 'C', 'C', 'C', 'C', 'C', 'C', 'C', 'C', 'C', 'C', 'C', 'C', 'C', 'C', 'C', 'C']","[1209358, 1209675, 1210306, 1210910, 1211514, 1212083, 1212750, 1213344, 1213919, 1214524, 1215067, 1215643, 1216208, 1216771, 1217314, 1217880, 1218419, 1218980, 1219538, 1220086, 1220616, 1221151, 1221723, 1222259]","[1209454, 1209798, 1210418, 1211025, 1211637, 1212236, 1212880, 1213478, 1214049, 1214638, 1215162, 1215729, 1216318, 1216898, 1217431, 1217980, 1218500, 1219091, 1219654, 1220174, 1220744, 1221294, 1221850, 1222361]","[171, 170, 159, 189, 185, 200, 184, 179, 178, 185, 178, 176, 186, 181, 178, 175, 179, 171, 161, 171, 161, 167, 165, 164]","[1209361, 1209678, 1210309, 1210913, 1211516, 1212085, 1212752, 1213347, 1213922, 1214526, 1215070, 1215646, 1216211, 1216773, 1217316, 1217882, 1218422, 1218983, 1219542, 1220089, 1220618, 1221153, 1221726, 1222262]","[1209209, 1209809, 1210409, 1211010, 1211610, 1212210, 1212810, 1213410, 1213939, 1214544, 1215087, 1215663, 1216228, 1216791, 1217334, 1217900, 1218439, 1219000, 1219558, 1220106, 1220636, 1221171, 1221743, 1222279]",64,EM,U,R,ITMSR,1.1
4,400,trial,0,58,58,58,trial,"['S', 'S', 'S', 'S', 'S', 'S', 'S', 'S', 'C', 'C', 'C', 'C', 'C', 'C', 'C', 'C', 'C', 'C', 'C', 'C', 'C', 'C', 'C', 'C']","[1227918, 1228236, 1228542, 1228836, 1229204, 1229603, 1230004, 1230405, 1230792, 1231168, 1231526, 1231883, 1232234, 1232586, 1232930, 1233294, 1233654, 1234006, 1234353, 1234713, 1235059, 1235416, 1235791, 1236151]","[1228028, 1228341, 1228647, 1228950, 1229309, 1229709, 1230117, 1230509, 1230899, 1231254, 1231639, 1231971, 1232328, 1232676, 1233050, 1233397, 1233759, 1234124, 1234449, 1234823, 1235168, 1235521, 1235893, 1236261]","[103, 159, 173, 175, 179, 188, 187, 180, 187, 169, 184, 166, 172, 172, 185, 179, 180, 185, 183, 190, 181, 178, 190, 188]","[1227923, 1228238, 1228546, 1228839, 1229207, 1229605, 1230006, 1230408, 1230795, 1231171, 1231529, 1231886, 1232237, 1232588, 1232933, 1233297, 1233657, 1234008, 1234356, 1234715, 1235061, 1235419, 1235793, 1236153]","[1227661, 1228061, 1228461, 1228861, 1229261, 1229661, 1230061, 1230461, 1230812, 1231188, 1231546, 1231903, 1232254, 1232606, 1232950, 1233314, 1233674, 1234026, 1234373, 1234733, 1235079, 1235436, 1235811, 1236171]",64,EM,U,R,ITMSR,1.1
2,600,trial,0,59,59,59,trial,"['S', 'S', 'S', 'S', 'S', 'S', 'S', 'S', 'C', 'C', 'C', 'C', 'C', 'C', 'C', 'C', 'C', 'C', 'C', 'C', 'C', 'C', 'C', 'C']","[1241886, 1242186, 1242767, 1243470, 1244111, 1244639, 1245259, 1245873, 1246437, 1246985, 1247559, 1248094, 1248664, 1249200, 1249773, 1250337, 1250891, 1251397, 1251964, 1252505, 1253057, 1253617, 1254162, 1254672]","[1241998, 1242337, 1242913, 1243596, 1244217, 1244753, 1245366, 1245943, 1246483, 1247080, 1247642, 1248165, 1248756, 1249320, 1249894, 1250447, 1250985, 1251511, 1252089, 1252630, 1253174, 1253725, 1254294, 1254814]","[148, 157, 183, 183, 180, 182, 187, 143, 157, 160, 153, 172, 170, 175, 188, 181, 173, 184, 173, 155, 156, 154, 174, 169]","[1241890, 1242189, 1242770, 1243472, 1244114, 1244642, 1245261, 1245877, 1246440, 1246988, 1247563, 1248097, 1248667, 1249203, 1249776, 1250340, 1250893, 1251399, 1251968, 1252509, 1253060, 1253620, 1254165, 1254675]","[1241731, 1242330, 1242930, 1243530, 1244130, 1244730, 1245330, 1245930, 1246457, 1247005, 1247579, 1248114, 1248685, 1249220, 1249794, 1250357, 1250911, 1251417, 1251984, 1252525, 1253078, 1253637, 1254182, 1254692]",64,EM,U,R,ITMSR,1.1
0,600,trial,0,60,60,60,trial,"['S', 'S', 'S', 'S', 'S', 'S', 'S', 'S', 'C', 'C', 'C', 'C', 'C', 'C', 'C', 'C', 'C', 'C', 'C', 'C', 'C', 'C', 'C', 'C']","[1260371, 1260702, 1261316, 1261954, 1262546, 1263122, 1263698, 1264316, 1264898, 1265469, 1266028, 1266605, 1267123, 1267655, 1268238, 1268771, 1269308, 1269864, 1270388, 1270934, 1271459, 1272016, 1272532, 1273067]","[1260490, 1260816, 1261440, 1262060, 1262632, 1263217, 1263825, 1264434, 1265017, 1265579, 1266125, 1266690, 1267174, 1267725, 1268319, 1268844, 1269407, 1269955, 1270497, 1271048, 1271596, 1272133, 1272664, 1273169]","[122, 165, 167, 180, 176, 167, 170, 169, 188, 185, 164, 47, 145, 162, 131, 156, 137, 144, 126, 139, 167, 145, 168, 137]","[1260377, 1260705, 1261319, 1261957, 1262550, 1263125, 1263702, 1264319, 1264900, 1265472, 1266031, 1266611, 1267127, 1267658, 1268242, 1268774, 1269312, 1269867, 1270392, 1270938, 1271462, 1272019, 1272535, 1273071]","[1260216, 1260816, 1261416, 1262016, 1262616, 1263216, 1263816, 1264416, 1264918, 1265489, 1266049, 1266625, 1267143, 1267675, 1268258, 1268791, 1269328, 1269884, 1270408, 1270955, 1271479, 1272036, 1272552, 1273088]",64,EM,U,R,ITMSR,1.1
0,400,trial,0,61,61,61,trial,"['S', 'S', 'S', 'S', 'S', 'S', 'S', 'C', 'C', 'C', 'C', 'C', 'C', 'C', 'C', 'C', 'C', 'C', 'C', 'C', 'C', 'C', 'C']","[1278838, 1279171, 1279544, 1280017, 1280391, 1280812, 1281208, 1281586, 1281946, 1282321, 1282688, 1283066, 1283452, 1283841, 1284213, 1284597, 1284985, 1285359, 1285762, 1286105, 1286488, 1286853, 1287239]","[1278932, 1279257, 1279649, 1280139, 1280508, 1280937, 1281327, 1281712, 1282049, 1282416, 1282784, 1283161, 1283546, 1283939, 1284304, 1284696, 1285082, 1285456, 1285856, 1286194, 1286590, 1286943, 1287323]","[89, 164, 182, 185, 185, 190, 188, 151, 175, 175, 178, 164, 144, 171, 163, 167, 154, 152, 152, 132, 146, 154, 156]","[1278843, 1279174, 1279546, 1280019, 1280393, 1280814, 1281211, 1281589, 1281949, 1282324, 1282690, 1283069, 1283456, 1283844, 1284216, 1284600, 1284989, 1285363, 1285765, 1286109, 1286492, 1286857, 1287243]","[1278485, 1278885, 1279285, 1279685, 1280086, 1280485, 1280885, 1281285, 1281606, 1281966, 1282341, 1282708, 1283086, 1283472, 1283861, 1284233, 1284617, 1285005, 1285379, 1285782, 1286125, 1286508, 1286873, 1287259]",64,EM,U,R,ITMSR,1.1
2,400,trial,0,62,62,62,trial,"['S', 'S', 'S', 'S', 'S', 'S', 'S', 'S', 'C', 'C', 'C', 'C', 'C', 'C', 'C', 'C', 'C', 'C', 'C', 'C', 'C', 'C', 'C', 'C']","[1292832, 1293154, 1293485, 1293858, 1294224, 1294619, 1295048, 1295429, 1295825, 1296194, 1296572, 1296930, 1297301, 1297678, 1298095, 1298462, 1298819, 1299203, 1299605, 1299987, 1300362, 1300742, 1301130, 1301489]","[1292931, 1293253, 1293593, 1293980, 1294345, 1294750, 1295182, 1295575, 1295975, 1296326, 1296693, 1297030, 1297398, 1297769, 1298176, 1298583, 1298934, 1299295, 1299698, 1300076, 1300457, 1300815, 1301244, 1301567]","[145, 174, 186, 181, 170, 190, 192, 196, 185, 184, 178, 179, 175, 181, 178, 187, 186, 183, 186, 186, 182, 167, 174, 163]","[1292835, 1293156, 1293488, 1293860, 1294227, 1294621, 1295050, 1295431, 1295827, 1296196, 1296574, 1296933, 1297304, 1297680, 1298098, 1298464, 1298822, 1299206, 1299607, 1299989, 1300365, 1300745, 1301134, 1301492]","[1292693, 1293092, 1293492, 1293892, 1294292, 1294692, 1295092, 1295492, 1295845, 1296215, 1296592, 1296950, 1297321, 1297698, 1298115, 1298482, 1298839, 1299223, 1299625, 1300007, 1300382, 1300762, 1301150, 1301509]",64,EM,U,R,ITMSR,1.1
1,600,trial,0,63,63,63,trial,"['S', 'S', 'S', 'S', 'S', 'S', 'S', 'S', 'C', 'C', 'C', 'C', 'C', 'C', 'C', 'C', 'C', 'C', 'C', 'C', 'C', 'C', 'C', 'C']","[1307310, 1307626, 1308248, 1308837, 1309536, 1310067, 1310671, 1311290, 1311856, 1312411, 1312969, 1313542, 1314084, 1314636, 1315185, 1315726, 1316276, 1316814, 1317392, 1317890, 1318450, 1318991, 1319586, 1320180]","[1307403, 1307740, 1308367, 1308949, 1309648, 1310172, 1310808, 1311413, 1311971, 1312526, 1313073, 1313633, 1314194, 1314762, 1315329, 1315855, 1316404, 1316937, 1317492, 1318038, 1318576, 1319121, 1319707, 1320308]","[134, 164, 176, 176, 182, 188, 189, 173, 180, 161, 153, 171, 178, 179, 177, 176, 171, 181, 163, 175, 179, 179, 170, 166]","[1307314, 1307630, 1308250, 1308839, 1309538, 1310069, 1310674, 1311292, 1311859, 1312414, 1312972, 1313545, 1314087, 1314639, 1315187, 1315729, 1316279, 1316817, 1317395, 1317893, 1318453, 1318994, 1319589, 1320183]","[1307153, 1307753, 1308353, 1308953, 1309553, 1310153, 1310753, 1311353, 1311876, 1312431, 1312989, 1313562, 1314104, 1314656, 1315205, 1315746, 1316296, 1316834, 1317412, 1317910, 1318470, 1319011, 1319606, 1320200]",64,EM,U,R,ITMSR,1.1
4,600,trial,0,64,64,64,trial,"['S', 'S', 'S', 'S', 'S', 'S', 'S', 'S', 'C', 'C', 'C', 'C', 'C', 'C', 'C', 'C', 'C', 'C', 'C', 'C', 'C', 'C', 'C', 'C']","[1326080, 1326371, 1326941, 1327554, 1328215, 1328750, 1329347, 1329972, 1330528, 1331095, 1331621, 1332162, 1332683, 1333249, 1333767, 1334310, 1334874, 1335373, 1335895, 1336414, 1336938, 1337441, 1337955, 1338469]","[1326137, 1326481, 1327053, 1327690, 1328326, 1328861, 1329457, 1330115, 1330655, 1331213, 1331772, 1332279, 1332826, 1333380, 1333898, 1334452, 1334974, 1335517, 1336023, 1336541, 1337038, 1337571, 1338057, 1338554]","[252, 146, 162, 166, 152, 167, 146, 167, 157, 149, 146, 112, 130, 118, 129, 151, 123, 111, 140, 129, 110, 99, 64, 57]","[1326089, 1326375, 1326945, 1327557, 1328218, 1328753, 1329350, 1329975, 1330531, 1331099, 1331624, 1332166, 1332687, 1333254, 1333771, 1334313, 1334878, 1335377, 1335898, 1336417, 1336941, 1337445, 1337960, 1338474]","[1325833, 1326432, 1327032, 1327632, 1328232, 1328832, 1329432, 1330032, 1330548, 1331116, 1331641, 1332183, 1332703, 1333269, 1333787, 1334330, 1334894, 1335393, 1335915, 1336434, 1336958, 1337461, 1337975, 1338489]",64,EM,U,R,ITMSR,1.1
3,600,trial,0,65,65,65,trial,"['S', 'S', 'S', 'S', 'S', 'S', 'S', 'S', 'C', 'C', 'C', 'C', 'C', 'C', 'C', 'C', 'C', 'C', 'C', 'C', 'C', 'C', 'C', 'C']","[1344424, 1344802, 1345387, 1346015, 1346584, 1347186, 1347772, 1348333, 1348942, 1349490, 1350077, 1350652, 1351183, 1351789, 1352865, 1353395, 1353950, 1354490, 1355039, 1355568, 1356075, 1356647, 1357171, 1357718]","[1344535, 1344954, 1345576, 1346150, 1346703, 1347287, 1347831, 1348439, 1349063, 1349615, 1350165, 1350737, 1351294, 1351883, 1352975, 1353504, 1354064, 1354592, 1355122, 1355691, 1356190, 1356745, 1357275, 1357802]","[138, 148, 174, 173, 173, 183, 166, 167, 167, 165, 158, 107, 132, 60, 169, 149, 158, 154, 116, 146, 159, 152, 132, 119]","[1344430, 1344806, 1345390, 1346018, 1346587, 1347188, 1347776, 1348336, 1348945, 1349493, 1350080, 1350657, 1351186, 1351792, 1352868, 1353398, 1353953, 1354493, 1355043, 1355571, 1356078, 1356651, 1357175, 1357722]","[1344257, 1344856, 1345456, 1346056, 1346656, 1347256, 1347856, 1348456, 1348962, 1349510, 1350097, 1350672, 1351203, 1351810, 1352885, 1353415, 1353970, 1354510, 1355059, 1355588, 1356095, 1356667, 1357191, 1357739]",64,EM,U,R,ITMSR,1.1
3,600,trial,0,66,66,66,trial,"['S', 'S', 'S', 'S', 'S', 'S', 'S', 'S', 'C', 'C', 'C', 'C', 'C', 'C', 'C', 'C', 'C', 'C', 'C', 'C', 'C', 'C', 'C', 'C']","[1363548, 1363903, 1364440, 1365017, 1365658, 1366257, 1366849, 1367424, 1367998, 1368553, 1369141, 1369698, 1370246, 1370805, 1371419, 1372019, 1372538, 1373097, 1373641, 1374168, 1374721, 1375255, 1375789, 1376327]","[1363656, 1364012, 1364562, 1365113, 1365773, 1366358, 1366940, 1367544, 1368120, 1368656, 1369209, 1369785, 1370337, 1370911, 1371507, 1372083, 1372657, 1373204, 1373735, 1374277, 1374848, 1375364, 1375911, 1376432]","[77, 142, 156, 72, 133, 121, 159, 141, 168, 122, 93, 107, 122, 131, 98, 122, 134, 112, 78, 116, 31, 22, 52, 87]","[1363554, 1363907, 1364444, 1365022, 1365662, 1366261, 1366853, 1367428, 1368001, 1368557, 1369146, 1369702, 1370250, 1370809, 1371423, 1372024, 1372542, 1373102, 1373646, 1374173, 1374727, 1375261, 1375794, 1376332]","[1363367, 1363968, 1364568, 1365168, 1365768, 1366368, 1366968, 1367568, 1368018, 1368573, 1369161, 1369718, 1370266, 1370825, 1371439, 1372039, 1372558, 1373117, 1373661, 1374188, 1374741, 1375276, 1375809, 1376347]",64,EM,U,R,ITMSR,1.1
1,400,trial,0,67,67,67,trial,"['S', 'S', 'S', 'S', 'S', 'S', 'S', 'S', 'C', 'C', 'C', 'C', 'C', 'C', 'C', 'C', 'C', 'C', 'C', 'C', 'C', 'C', 'C', 'C']","[1382096, 1382497, 1382892, 1383214, 1383543, 1383890, 1384280, 1384664, 1385044, 1385435, 1385775, 1386178, 1386566, 1386933, 1387290, 1387726, 1388139, 1388467, 1388834, 1389216, 1389604, 1389986, 1390350, 1390766]","[1382206, 1382587, 1382994, 1383307, 1383649, 1383988, 1384379, 1384762, 1385139, 1385520, 1385856, 1386244, 1386648, 1387009, 1387363, 1387799, 1388230, 1388547, 1388920, 1389301, 1389655, 1390054, 1390420, 1390833]","[108, 121, 155, 148, 164, 158, 149, 141, 146, 115, 123, 63, 73, 135, 113, 51, 98, 59, 70, 18, 24, 14, 188, 66]","[1382102, 1382501, 1382896, 1383218, 1383546, 1383894, 1384283, 1384668, 1385049, 1385440, 1385779, 1386183, 1386571, 1386937, 1387295, 1387734, 1388144, 1388473, 1388840, 1389222, 1389609, 1389991, 1390357, 1390771]","[1381918, 1382317, 1382717, 1383117, 1383517, 1383917, 1384317, 1384717, 1385064, 1385455, 1385795, 1386199, 1386586, 1386953, 1387310, 1387746, 1388160, 1388487, 1388854, 1389236, 1389624, 1390006, 1390370, 1390786]",64,EM,U,R,ITMSR,1.1
1,600,trial,0,68,68,68,trial,"['S', 'S', 'S', 'S', 'S', 'S', 'S', 'S', 'C', 'C', 'C', 'C', 'C', 'C', 'C', 'C', 'C', 'C', 'C', 'C', 'C', 'C', 'C', 'C']","[1396446, 1396726, 1397321, 1397925, 1398545, 1399154, 1399770, 1400331, 1400940, 1401491, 1402087, 1402648, 1403191, 1403770, 1404341, 1404909, 1405447, 1405986, 1406516, 1407057, 1407617, 1408159, 1408704, 1409229]","[1396529, 1396830, 1397419, 1398020, 1398654, 1399280, 1399892, 1400467, 1401072, 1401596, 1402170, 1402739, 1403311, 1403890, 1404464, 1405026, 1405564, 1406057, 1406648, 1407188, 1407754, 1408304, 1408837, 1409344]","[185, 14, 101, 159, 167, 161, 142, 159, 170, 138, 126, 96, 54, 92, 121, 123, 112, 57, 119, 140, 102, 115, 165, 145]","[1396454, 1396733, 1397326, 1397928, 1398548, 1399158, 1399774, 1400335, 1400943, 1401495, 1402091, 1402652, 1403196, 1403776, 1404344, 1404913, 1405451, 1405991, 1406520, 1407060, 1407621, 1408163, 1408707, 1409232]","[1396262, 1396862, 1397463, 1398062, 1398662, 1399262, 1399862, 1400462, 1400961, 1401511, 1402107, 1402669, 1403211, 1403790, 1404361, 1404930, 1405467, 1406006, 1406536, 1407077, 1407637, 1408179, 1408724, 1409249]",64,EM,U,R,ITMSR,1.1
1,400,trial,0,69,69,69,trial,"['S', 'S', 'S', 'S', 'S', 'S', 'S', 'S', 'C', 'C', 'C', 'C', 'C', 'C', 'C', 'C', 'C', 'C', 'C', 'C', 'C', 'C', 'C', 'C']","[1414996, 1415310, 1415575, 1415892, 1416294, 1416663, 1417114, 1417488, 1417868, 1418233, 1418603, 1418973, 1419339, 1419698, 1420057, 1420420, 1420817, 1421178, 1421553, 1421913, 1422299, 1422652, 1423036, 1423399]","[1415106, 1415400, 1415688, 1415995, 1416390, 1416755, 1417209, 1417610, 1417985, 1418350, 1418703, 1419038, 1419415, 1419793, 1420151, 1420482, 1420888, 1421232, 1421633, 1421985, 1422373, 1422747, 1423129, 1423494]","[30, 112, 156, 167, 156, 171, 183, 170, 158, 155, 129, 129, 121, 104, 100, 119, 119, 136, 127, 118, 137, 147, 120, 108]","[1415004, 1415313, 1415578, 1415895, 1416297, 1416666, 1417117, 1417491, 1417872, 1418236, 1418607, 1418977, 1419343, 1419703, 1420062, 1420425, 1420821, 1421181, 1421557, 1421917, 1422303, 1422656, 1423041, 1423404]","[1414723, 1415123, 1415523, 1415923, 1416323, 1416723, 1417123, 1417523, 1417888, 1418253, 1418624, 1418993, 1419359, 1419718, 1420077, 1420440, 1420837, 1421198, 1421573, 1421933, 1422319, 1422672, 1423056, 1423419]",64,EM,U,R,ITMSR,1.1
0,400,trial,0,70,70,70,trial,"['S', 'S', 'S', 'S', 'S', 'S', 'S', 'S', 'C', 'C', 'C', 'C', 'C', 'C', 'C', 'C', 'C', 'C', 'C', 'C', 'C', 'C', 'C', 'C']","[1429090, 1429391, 1429680, 1430031, 1430419, 1430832, 1431229, 1431629, 1432002, 1432369, 1432757, 1433135, 1433512, 1433903, 1434307, 1434665, 1435063, 1435462, 1435866, 1436220, 1436607, 1436985, 1437341, 1437726]","[1429156, 1429476, 1429792, 1430149, 1430536, 1430939, 1431321, 1431718, 1432091, 1432489, 1432857, 1433226, 1433617, 1433986, 1434402, 1434776, 1435154, 1435560, 1435964, 1436327, 1436703, 1437093, 1437431, 1437825]","[4, 119, 139, 165, 174, 171, 168, 136, 94, 149, 144, 139, 140, 115, 121, 136, 145, 190, 86, 131, 125, 101, 101, 114]","[1429097, 1429395, 1429684, 1430034, 1430422, 1430835, 1431232, 1431633, 1432007, 1432373, 1432760, 1433139, 1433517, 1433907, 1434310, 1434669, 1435066, 1435471, 1435871, 1436223, 1436611, 1436989, 1437345, 1437730]","[1428864, 1429263, 1429663, 1430063, 1430463, 1430863, 1431263, 1431663, 1432023, 1432389, 1432777, 1433155, 1433532, 1433923, 1434328, 1434685, 1435083, 1435482, 1435886, 1436240, 1436627, 1437005, 1437361, 1437746]",64,EM,U,R,ITMSR,1.1
2,600,trial,0,71,71,71,trial,"['S', 'S', 'S', 'S', 'S', 'S', 'S', 'S', 'S', 'C', 'C', 'C', 'C', 'C', 'C', 'C', 'C', 'C', 'C', 'C', 'C', 'C', 'C', 'C', 'C']","[1443474, 1443752, 1444182, 1444554, 1445090, 1445669, 1446230, 1446824, 1447394, 1447999, 1448537, 1449094, 1449631, 1450236, 1450813, 1451393, 1452006, 1452561, 1453134, 1453704, 1454281, 1454838, 1455410, 1456015, 1456616]","[1443579, 1443872, 1444301, 1444668, 1445221, 1445791, 1446351, 1446935, 1447514, 1448101, 1448685, 1449243, 1449771, 1450413, 1450958, 1451574, 1452138, 1452704, 1453249, 1453812, 1454409, 1454981, 1455558, 1456141, 1456713]","[60, 151, 148, 172, 175, 176, 155, 146, 131, 135, 125, 138, 109, 87, 61, 130, 110, 124, 122, 105, 119, 145, 118, 94, 58]","[1443482, 1443757, 1444187, 1444558, 1445093, 1445671, 1446233, 1446829, 1447398, 1448003, 1448541, 1449097, 1449635, 1450242, 1450818, 1451396, 1452010, 1452565, 1453138, 1453708, 1454285, 1454841, 1455414, 1456020, 1456621]","[1443294, 1443893, 1444493, 1445093, 1445693, 1446293, 1446893, 1447493, 1448019, 1448557, 1449114, 1449651, 1450256, 1450833, 1451413, 1452026, 1452581, 1453154, 1453724, 1454301, 1454858, 1455430, 1456035, 1456636]",64,EM,U,R,ITMSR,1.1
3,400,trial,0,72,72,72,trial,"['S', 'S', 'S', 'S', 'S', 'S', 'S', 'S', 'C', 'C', 'C', 'C', 'C', 'C', 'C', 'C', 'C', 'C', 'C', 'C', 'C', 'C', 'C', 'C']","[1462257, 1462590, 1462873, 1463232, 1463615, 1464006, 1464413, 1464784, 1465183, 1465553, 1465966, 1466338, 1466710, 1467100, 1467461, 1467822, 1468204, 1468605, 1468992, 1469368, 1469731, 1470115, 1470488, 1470837]","[1462360, 1462689, 1462993, 1463336, 1463707, 1464100, 1464509, 1464885, 1465271, 1465637, 1466068, 1466446, 1466847, 1467210, 1467537, 1467924, 1468289, 1468691, 1469083, 1469455, 1469835, 1470217, 1470579, 1470940]","[126, 151, 162, 162, 148, 170, 156, 151, 158, 131, 176, 162, 122, 155, 123, 124, 126, 96, 84, 94, 2, 100, 101, 108]","[1462261, 1462594, 1462876, 1463235, 1463619, 1464009, 1464416, 1464787, 1465186, 1465558, 1465969, 1466341, 1466714, 1467104, 1467465, 1467826, 1468208, 1468611, 1468997, 1469374, 1469739, 1470120, 1470493, 1470842]","[1462035, 1462435, 1462835, 1463235, 1463635, 1464035, 1464435, 1464835, 1465203, 1465573, 1465986, 1466358, 1466730, 1467120, 1467481, 1467842, 1468224, 1468625, 1469012, 1469388, 1469751, 1470135, 1470509, 1470857]",64,EM,U,R,ITMSR,1.1
5,400,trial,0,73,73,73,trial,"['S', 'S', 'S', 'S', 'S', 'S', 'S', 'C', 'C', 'C', 'C', 'C', 'C', 'C', 'C', 'C', 'C', 'C', 'C', 'C', 'C', 'C', 'C']","[1476768, 1477150, 1477532, 1477947, 1478329, 1478719, 1479104, 1479522, 1479911, 1480304, 1480689, 1481061, 1481450, 1481832, 1482211, 1482590, 1482978, 1483347, 1483751, 1484181, 1484535, 1484946, 1485313]","[1476875, 1477244, 1477640, 1478057, 1478445, 1478849, 1479220, 1479640, 1480020, 1480402, 1480786, 1481143, 1481566, 1481943, 1482329, 1482711, 1483092, 1483473, 1483853, 1484272, 1484645, 1485048, 1485418]","[136, 165, 175, 191, 188, 196, 180, 198, 198, 192, 190, 176, 183, 187, 190, 196, 191, 192, 188, 183, 184, 184, 192]","[1476772, 1477154, 1477535, 1477949, 1478331, 1478722, 1479106, 1479524, 1479914, 1480306, 1480692, 1481064, 1481452, 1481834, 1482213, 1482592, 1482980, 1483350, 1483753, 1484183, 1484537, 1484949, 1485315]","[1476358, 1476758, 1477158, 1477558, 1477958, 1478359, 1478758, 1479158, 1479542, 1479931, 1480324, 1480709, 1481081, 1481470, 1481852, 1482231, 1482610, 1482998, 1483367, 1483771, 1484201, 1484555, 1484966, 1485333]",64,EM,U,R,ITMSR,1.1
0,600,trial,0,74,74,74,trial,"['S', 'S', 'S', 'S', 'S', 'S', 'S', 'S', 'C', 'C', 'C', 'C', 'C', 'C', 'C', 'C', 'C', 'C', 'C', 'C', 'C', 'C', 'C', 'C']","[1491099, 1491435, 1492040, 1492697, 1493338, 1493891, 1494414, 1495038, 1495631, 1496196, 1496857, 1497455, 1498012, 1498603, 1499192, 1499756, 1500371, 1500975, 1501551, 1502113, 1502698, 1503275, 1503825, 1504443]","[1491201, 1491570, 1492142, 1492813, 1493429, 1493992, 1494530, 1495157, 1495744, 1496322, 1496972, 1497566, 1498192, 1498737, 1499420, 1499910, 1500640, 1501101, 1501652, 1502242, 1502816, 1503395, 1503960, 1504549]","[117, 135, 186, 190, 183, 146, 177, 182, 191, 191, 179, 166, 181, 188, 192, 175, 195, 171, 179, 175, 154, 175, 182, 174]","[1491103, 1491439, 1492042, 1492699, 1493341, 1493894, 1494416, 1495041, 1495633, 1496198, 1496860, 1497458, 1498014, 1498606, 1499194, 1499758, 1500374, 1500978, 1501554, 1502116, 1502702, 1503277, 1503828, 1504445]","[1490934, 1491534, 1492134, 1492734, 1493335, 1493934, 1494534, 1495134, 1495651, 1496216, 1496877, 1497475, 1498032, 1498624, 1499212, 1499777, 1500391, 1500995, 1501571, 1502133, 1502718, 1503295, 1503845, 1504463]",64,EM,U,R,ITMSR,1.1
3,400,trial,0,75,75,75,trial,"['S', 'S', 'S', 'S', 'S', 'S', 'S', 'S', 'C', 'C', 'C', 'C', 'C', 'C', 'C', 'C', 'C', 'C', 'C', 'C', 'C', 'C', 'C', 'C']","[1510366, 1510689, 1511004, 1511374, 1511778, 1512159, 1512545, 1512941, 1513350, 1513715, 1514097, 1514447, 1514841, 1515223, 1515599, 1515987, 1516360, 1516748, 1517114, 1517481, 1517868, 1518258, 1518628, 1519025]","[1510489, 1510804, 1511122, 1511502, 1511882, 1512293, 1512676, 1513044, 1513464, 1513827, 1514220, 1514572, 1514955, 1515348, 1515706, 1516072, 1516431, 1516832, 1517214, 1517577, 1517970, 1518346, 1518741, 1519113]","[117, 175, 181, 189, 187, 196, 198, 195, 195, 188, 172, 180, 187, 181, 171, 177, 173, 166, 172, 185, 176, 194, 186, 181]","[1510371, 1510691, 1511007, 1511376, 1511780, 1512161, 1512547, 1512944, 1513352, 1513717, 1514100, 1514449, 1514844, 1515225, 1515602, 1515991, 1516362, 1516751, 1517117, 1517484, 1517871, 1518260, 1518631, 1519028]","[1510200, 1510600, 1511000, 1511400, 1511800, 1512200, 1512600, 1513000, 1513370, 1513735, 1514117, 1514467, 1514861, 1515243, 1515619, 1516007, 1516380, 1516768, 1517134, 1517501, 1517888, 1518278, 1518648, 1519045]",64,EM,U,R,ITMSR,1.1
4,400,trial,0,76,76,76,trial,"['S', 'S', 'S', 'S', 'S', 'S', 'S', 'S', 'C', 'C', 'C', 'C', 'C', 'C', 'C', 'C', 'C', 'C', 'C', 'C', 'C', 'C', 'C', 'C']","[1524727, 1525116, 1525411, 1525743, 1526158, 1526534, 1526948, 1527352, 1527729, 1528118, 1528475, 1528880, 1529272, 1529646, 1530070, 1530411, 1530807, 1531189, 1531569, 1531952, 1532346, 1532698, 1533086, 1533446]","[1524842, 1525217, 1525517, 1525862, 1526276, 1526644, 1527066, 1527449, 1527834, 1528214, 1528579, 1528961, 1529358, 1529738, 1530152, 1530507, 1530890, 1531277, 1531637, 1532033, 1532438, 1532754, 1533110, 1533508]","[146, 193, 191, 185, 187, 199, 199, 184, 191, 187, 159, 174, 168, 186, 90, 144, 131, 151, 133, 140, 144, 99, 73, 95]","[1524731, 1525118, 1525413, 1525746, 1526160, 1526536, 1526950, 1527355, 1527731, 1528120, 1528478, 1528883, 1529275, 1529649, 1530075, 1530415, 1530811, 1531192, 1531572, 1531956, 1532350, 1532703, 1533090, 1533451]","[1524573, 1524973, 1525373, 1525773, 1526173, 1526573, 1526973, 1527373, 1527749, 1528138, 1528495, 1528900, 1529292, 1529666, 1530090, 1530431, 1530827, 1531209, 1531589, 1531972, 1532366, 1532718, 1533106, 1533466]",64,EM,U,R,ITMSR,1.1
5,600,trial,0,77,77,77,trial,"['S', 'S', 'S', 'S', 'S', 'S', 'S', 'S', 'C', 'C', 'C', 'C', 'C', 'C', 'C', 'C', 'C', 'C', 'C', 'C', 'C', 'C', 'C', 'C']","[1538816, 1539167, 1539783, 1540462, 1541141, 1541727, 1542338, 1542977, 1543557, 1544127, 1544719, 1545293, 1545849, 1546426, 1546984, 1547528, 1548075, 1548651, 1549230, 1549833, 1550359, 1550914, 1551486, 1552077]","[1538933, 1539282, 1539896, 1540551, 1541234, 1541798, 1542444, 1543074, 1543643, 1544213, 1544802, 1545393, 1545966, 1546552, 1547081, 1547593, 1548166, 1548746, 1549367, 1549927, 1550471, 1551000, 1551590, 1552218]","[154, 174, 169, 191, 197, 196, 199, 177, 190, 190, 190, 198, 201, 202, 196, 199, 183, 189, 197, 198, 200, 180, 188, 190]","[1538820, 1539170, 1539786, 1540464, 1541143, 1541728, 1542340, 1542980, 1543558, 1544130, 1544721, 1545295, 1545851, 1546428, 1546986, 1547530, 1548077, 1548654, 1549232, 1549835, 1550361, 1550917, 1551489, 1552079]","[1538780, 1539380, 1539980, 1540580, 1541180, 1541780, 1542380, 1542980, 1543577, 1544147, 1544739, 1545313, 1545869, 1546446, 1547004, 1547548, 1548095, 1548672, 1549250, 1549853, 1550380, 1550935, 1551506, 1552097]",64,EM,U,R,ITMSR,1.1
0,400,trial,0,78,78,78,trial,"['S', 'S', 'S', 'S', 'S', 'S', 'S', 'S', 'C', 'C', 'C', 'C', 'C', 'C', 'C', 'C', 'C', 'C', 'C', 'C', 'C', 'C', 'C', 'C']","[1561840, 1562237, 1562569, 1562917, 1563260, 1563651, 1564059, 1564443, 1564837, 1565227, 1565599, 1565966, 1566341, 1566717, 1567098, 1567455, 1567875, 1568216, 1568614, 1568982, 1569373, 1569751, 1570143, 1570538]","[1561951, 1562351, 1562690, 1563033, 1563392, 1563772, 1564169, 1564538, 1564952, 1565331, 1565691, 1566081, 1566449, 1566826, 1567202, 1567549, 1567970, 1568325, 1568713, 1569078, 1569464, 1569867, 1570269, 1570656]","[201, 196, 201, 198, 200, 197, 203, 198, 201, 132, 191, 198, 199, 195, 188, 173, 194, 189, 191, 180, 181, 188, 201, 201]","[1561842, 1562240, 1562571, 1562919, 1563262, 1563653, 1564061, 1564445, 1564839, 1565231, 1565602, 1565968, 1566343, 1566720, 1567101, 1567458, 1567877, 1568219, 1568616, 1568985, 1569375, 1569753, 1570145, 1570540]","[1561682, 1562082, 1562482, 1562882, 1563282, 1563682, 1564082, 1564482, 1564857, 1565247, 1565619, 1565986, 1566361, 1566737, 1567118, 1567475, 1567895, 1568236, 1568634, 1569002, 1569393, 1569771, 1570163, 1570558]",64,EM,U,R,ITMSR,1.1
2,600,trial,0,79,79,79,trial,"['S', 'S', 'S', 'S', 'S', 'S', 'S', 'S', 'C', 'C', 'C', 'C', 'C', 'C', 'C', 'C', 'C', 'C', 'C', 'C', 'C', 'C', 'C', 'C']","[1576250, 1576555, 1577187, 1577803, 1578433, 1579005, 1579604, 1580210, 1580802, 1581375, 1581907, 1582473, 1583047, 1583618, 1584152, 1584739, 1585317, 1585858, 1586417, 1586993, 1587562, 1588090, 1588676, 1589230]","[1576357, 1576678, 1577300, 1577933, 1578587, 1579192, 1579768, 1580445, 1580955, 1581513, 1582057, 1582600, 1583173, 1583767, 1584268, 1584887, 1585339, 1585968, 1586523, 1587113, 1587690, 1588246, 1588854, 1589380]","[185, 189, 186, 195, 197, 204, 199, 200, 195, 196, 207, 195, 198, 176, 170, 177, 88, 168, 170, 170, 162, 182, 183, 186]","[1576253, 1576557, 1577190, 1577805, 1578436, 1579008, 1579607, 1580212, 1580804, 1581377, 1581910, 1582475, 1583049, 1583621, 1584155, 1584742, 1585324, 1585861, 1586419, 1586996, 1587565, 1588093, 1588679, 1589232]","[1576086, 1576686, 1577286, 1577886, 1578486, 1579086, 1579686, 1580286, 1580822, 1581395, 1581927, 1582493, 1583067, 1583638, 1584173, 1584759, 1585337, 1585879, 1586437, 1587013, 1587582, 1588110, 1588696, 1589250]",64,EM,U,R,ITMSR,1.1
1,600,trial,0,80,80,80,trial,"['S', 'S', 'S', 'S', 'S', 'S', 'S', 'S', 'C', 'C', 'C', 'C', 'C', 'C', 'C', 'C', 'C', 'C', 'C', 'C', 'C', 'C', 'C', 'C']","[1594780, 1595110, 1595705, 1596340, 1596948, 1597547, 1598150, 1598722, 1599331, 1599873, 1600449, 1601009, 1601622, 1602221, 1602785, 1603403, 1603993, 1604566, 1605141, 1605692, 1606245, 1606812, 1607370, 1607956]","[1594888, 1595251, 1595850, 1596480, 1597102, 1597727, 1598314, 1599029, 1599559, 1600119, 1600619, 1601172, 1601812, 1602422, 1602992, 1603582, 1604205, 1604715, 1605263, 1605803, 1606371, 1606919, 1607502, 1608088]","[107, 165, 176, 177, 188, 184, 187, 193, 185, 196, 180, 170, 180, 186, 191, 111, 193, 191, 187, 171, 128, 176, 187, 180]","[1594785, 1595113, 1595708, 1596342, 1596950, 1597550, 1598152, 1598724, 1599334, 1599875, 1600451, 1601012, 1601625, 1602223, 1602788, 1603405, 1603995, 1604568, 1605143, 1605695, 1606248, 1606815, 1607373, 1607959]","[1594592, 1595192, 1595792, 1596392, 1596992, 1597592, 1598192, 1598792, 1599351, 1599893, 1600470, 1601029, 1601642, 1602241, 1602805, 1603423, 1604013, 1604586, 1605161, 1605712, 1606265, 1606832, 1607390, 1607976]",64,EM,U,R,ITMSR,1.1
2,400,trial,0,81,81,81,trial,"['S', 'S', 'S', 'S', 'S', 'S', 'S', 'S', 'C', 'C', 'C', 'C', 'C', 'C', 'C', 'C', 'C', 'C', 'C', 'C', 'C', 'C', 'C', 'C']","[1613743, 1614101, 1614413, 1614799, 1615215, 1615570, 1615962, 1616359, 1616782, 1617167, 1617566, 1617956, 1618322, 1618711, 1619090, 1619486, 1619852, 1620218, 1620578, 1620962, 1621339, 1621750, 1622106, 1622486]","[1613869, 1614218, 1614542, 1614915, 1615328, 1615695, 1616083, 1616486, 1616886, 1617287, 1617653, 1618075, 1618401, 1618837, 1619216, 1619585, 1619958, 1620320, 1620670, 1621061, 1621455, 1621868, 1622235, 1622578]","[165, 170, 182, 194, 182, 188, 194, 187, 191, 180, 180, 184, 182, 197, 199, 184, 185, 186, 183, 180, 170, 183, 168, 161]","[1613746, 1614104, 1614415, 1614801, 1615217, 1615572, 1615964, 1616361, 1616785, 1617169, 1617568, 1617959, 1618324, 1618714, 1619092, 1619489, 1619854, 1620220, 1620581, 1620964, 1621342, 1621753, 1622110, 1622489]","[1613587, 1613987, 1614387, 1614787, 1615187, 1615587, 1615987, 1616387, 1616802, 1617187, 1617586, 1617976, 1618342, 1618732, 1619110, 1619506, 1619872, 1620238, 1620598, 1620982, 1621359, 1621770, 1622126, 1622506]",64,EM,U,R,ITMSR,1.1
4,400,trial,0,82,82,82,trial,"['S', 'S', 'S', 'S', 'S', 'S', 'S', 'S', 'C', 'C', 'C', 'C', 'C', 'C', 'C', 'C', 'C', 'C', 'C', 'C', 'C', 'C', 'C', 'C']","[1628436, 1628779, 1629092, 1629445, 1629830, 1630198, 1630605, 1631007, 1631394, 1631774, 1632157, 1632536, 1632887, 1633292, 1633679, 1634101, 1634497, 1634905, 1635271, 1635684, 1636041, 1636453, 1636832, 1637233]","[1628544, 1628893, 1629220, 1629569, 1629953, 1630319, 1630704, 1631114, 1631519, 1631910, 1632282, 1632673, 1633020, 1633413, 1633793, 1634214, 1634615, 1634994, 1635373, 1635775, 1636123, 1636546, 1636946, 1637321]","[175, 175, 194, 191, 195, 197, 187, 195, 194, 195, 171, 143, 173, 177, 177, 179, 184, 180, 179, 169, 152, 172, 181, 161]","[1628439, 1628781, 1629095, 1629448, 1629833, 1630200, 1630607, 1631009, 1631396, 1631776, 1632160, 1632616, 1632889, 1633294, 1633682, 1634103, 1634499, 1634907, 1635274, 1635686, 1636044, 1636456, 1636834, 1637235]","[1628243, 1628643, 1629043, 1629443, 1629843, 1630243, 1630643, 1631043, 1631414, 1631794, 1632177, 1632557, 1632907, 1633312, 1633699, 1634121, 1634518, 1634925, 1635291, 1635704, 1636061, 1636473, 1636852, 1637253]",64,EM,U,R,ITMSR,1.1
4,400,trial,0,83,83,83,trial,"['S', 'S', 'S', 'S', 'S', 'S', 'S', 'S', 'C', 'C', 'C', 'C', 'C', 'C', 'C', 'C', 'C', 'C', 'C', 'C', 'C', 'C', 'C', 'C']","[1642858, 1643194, 1643525, 1643892, 1644266, 1644642, 1645042, 1645454, 1645845, 1646237, 1646600, 1647012, 1647407, 1647804, 1648214, 1648584, 1648996, 1649360, 1649767, 1650181, 1650583, 1650990, 1651384, 1651766]","[1642962, 1643304, 1643643, 1644012, 1644396, 1644767, 1645159, 1645558, 1645943, 1646329, 1646708, 1647125, 1647492, 1647913, 1648324, 1648696, 1649107, 1649474, 1649883, 1650272, 1650678, 1651069, 1651496, 1651872]","[175, 188, 187, 188, 192, 190, 193, 197, 191, 175, 177, 194, 191, 173, 182, 183, 186, 175, 170, 182, 196, 186, 189, 194]","[1642860, 1643195, 1643527, 1643894, 1644268, 1644644, 1645044, 1645457, 1645847, 1646239, 1646603, 1647015, 1647409, 1647807, 1648216, 1648587, 1648999, 1649363, 1649771, 1650183, 1650585, 1650992, 1651387, 1651768]","[1642688, 1643088, 1643488, 1643888, 1644289, 1644688, 1645088, 1645488, 1645865, 1646257, 1646620, 1647032, 1647427, 1647824, 1648234, 1648604, 1649016, 1649380, 1649787, 1650201, 1650604, 1651010, 1651404, 1651786]",64,EM,U,R,ITMSR,1.1
1,600,trial,0,84,84,84,trial,"['S', 'S', 'S', 'S', 'S', 'S', 'S', 'S', 'C', 'C', 'C', 'C', 'C', 'C', 'C', 'C', 'C', 'C', 'C', 'C', 'C', 'C', 'C', 'C']","[1657412, 1657687, 1658201, 1658853, 1659534, 1660094, 1660706, 1661270, 1661928, 1662490, 1663065, 1663661, 1664223, 1664814, 1665403, 1665986, 1666533, 1667072, 1667674, 1668231, 1668788, 1669357, 1669894, 1670451]","[1657522, 1657824, 1658353, 1659020, 1659670, 1660216, 1660837, 1661388, 1662048, 1662600, 1663183, 1663801, 1664374, 1664951, 1665566, 1666118, 1666652, 1667217, 1667767, 1668349, 1668927, 1669494, 1670075, 1670624]","[75, 154, 184, 196, 171, 185, 182, 188, 177, 191, 190, 189, 193, 193, 184, 151, 128, 169, 165, 183, 177, 179, 176, 177]","[1657416, 1657690, 1658204, 1658855, 1659537, 1660096, 1660709, 1661272, 1661931, 1662492, 1663067, 1663664, 1664226, 1664816, 1665406, 1665990, 1666535, 1667075, 1667677, 1668233, 1668791, 1669360, 1669897, 1670453]","[1657158, 1657757, 1658357, 1658957, 1659557, 1660157, 1660758, 1661357, 1661948, 1662510, 1663085, 1663681, 1664243, 1664834, 1665423, 1666007, 1666553, 1667092, 1667694, 1668251, 1668808, 1669378, 1669914, 1670471]",64,EM,U,R,ITMSR,1.1
0,600,trial,0,85,85,85,trial,"['S', 'S', 'S', 'S', 'S', 'S', 'S', 'S', 'C', 'C', 'C', 'C', 'C', 'C', 'C', 'C', 'C', 'C', 'C', 'C', 'C', 'C', 'C', 'C']","[1675970, 1676291, 1676932, 1677503, 1678150, 1678739, 1679327, 1679883, 1680552, 1681078, 1681677, 1682251, 1682832, 1683403, 1683985, 1684557, 1685098, 1685724, 1686316, 1686888, 1687435, 1688064, 1688629, 1689221]","[1676088, 1676424, 1677048, 1677764, 1678399, 1678905, 1679468, 1680074, 1680684, 1681259, 1681811, 1682390, 1682990, 1683633, 1684197, 1684809, 1685420, 1685940, 1686533, 1687123, 1687760, 1688243, 1688878, 1689347]","[175, 169, 175, 193, 179, 186, 180, 196, 161, 189, 179, 173, 184, 146, 186, 190, 200, 185, 179, 204, 200, 186, 192, 183]","[1675973, 1676294, 1676935, 1677505, 1678152, 1678742, 1679329, 1679885, 1680556, 1681080, 1681680, 1682254, 1682834, 1683405, 1683987, 1684559, 1685099, 1685726, 1686318, 1686890, 1687437, 1688065, 1688631, 1689223]","[1675786, 1676386, 1676986, 1677586, 1678186, 1678786, 1679386, 1679986, 1680572, 1681098, 1681697, 1682271, 1682852, 1683423, 1684005, 1684577, 1685118, 1685744, 1686336, 1686908, 1687455, 1688084, 1688649, 1689241]",64,EM,U,R,ITMSR,1.1
2,600,trial,0,86,86,86,trial,"['S', 'S', 'S', 'S', 'S', 'S', 'S', 'S', 'C', 'C', 'C', 'C', 'C', 'C', 'C', 'C', 'C', 'C', 'C', 'C', 'C', 'C', 'C', 'C']","[1694789, 1695121, 1695734, 1696289, 1696886, 1697501, 1698106, 1698712, 1699289, 1699843, 1700421, 1701004, 1701565, 1702138, 1702726, 1703318, 1703847, 1704448, 1705052, 1705620, 1706193, 1706792, 1707351, 1707894]","[1694905, 1695243, 1695868, 1696436, 1697025, 1697612, 1698248, 1698872, 1699420, 1699915, 1700530, 1701109, 1701707, 1702270, 1702890, 1703436, 1704004, 1704581, 1705176, 1705741, 1706316, 1706902, 1707456, 1707973]","[91, 175, 170, 193, 180, 186, 188, 157, 182, 185, 178, 176, 180, 193, 196, 192, 184, 178, 177, 176, 182, 151, 169, 160]","[1694794, 1695124, 1695736, 1696291, 1696889, 1697503, 1698109, 1698716, 1699292, 1699846, 1700424, 1701007, 1701567, 1702140, 1702728, 1703320, 1703851, 1704451, 1705055, 1705623, 1706196, 1706797, 1707354, 1707897]","[1694566, 1695165, 1695765, 1696365, 1696965, 1697565, 1698165, 1698765, 1699309, 1699863, 1700441, 1701024, 1701585, 1702158, 1702746, 1703339, 1703867, 1704468, 1705072, 1705640, 1706213, 1706812, 1707371, 1707914]",64,EM,U,R,ITMSR,1.1
1,400,trial,0,87,87,87,trial,"['S', 'S', 'S', 'S', 'S', 'S', 'S', 'S', 'C', 'C', 'C', 'C', 'C', 'C', 'C', 'C', 'C', 'C', 'C', 'C', 'C', 'C', 'C', 'C']","[1713597, 1713922, 1714230, 1714552, 1714905, 1715305, 1715720, 1716121, 1716517, 1716864, 1717173, 1717520, 1717884, 1718235, 1718606, 1718963, 1719343, 1719697, 1720064, 1720452, 1720809, 1721166, 1721524, 1721858]","[1713678, 1714012, 1714348, 1714653, 1715019, 1715432, 1715816, 1716221, 1716619, 1716948, 1717264, 1717604, 1717966, 1718326, 1718692, 1719070, 1719448, 1719806, 1720166, 1720543, 1720925, 1721280, 1721635, 1721971]","[207, 103, 133, 88, 108, 116, 102, 81, 61, 37, 50, 17, 121, 63, 59, 92, 125, 120, 147, 135, 122, 120, 114, 120]","[1713605, 1713927, 1714234, 1714557, 1714910, 1715309, 1715724, 1716126, 1716523, 1716869, 1717178, 1717526, 1717889, 1718240, 1718611, 1718968, 1719347, 1719701, 1720068, 1720456, 1720813, 1721170, 1721528, 1721861]","[1713398, 1713798, 1714198, 1714598, 1714998, 1715398, 1715799, 1716198, 1716537, 1716884, 1717193, 1717540, 1717904, 1718255, 1718626, 1718983, 1719363, 1719717, 1720084, 1720472, 1720829, 1721186, 1721544, 1721878]",64,EM,U,R,ITMSR,1.1
