pitch,ioi,event,.thisRepN,.thisTrialN,.thisN,.thisIndex,event,tap_types,tap_times,release_times,peak_pressures,peak_times,tone_times,subject,experimenter,register,handedness,experiment,version,
,,SPR,0,-1,-1,0,SPR,"['P', 'P', 'P', 'P', 'P', 'P', 'P', 'P', 'P', 'P', 'P', 'P', 'P', 'P', 'P', 'P', 'P', 'P', 'P', 'P', 'P', 'P', 'P', 'P', 'P', 'P', 'P', 'P', 'P', 'P']","[12984, 13649, 14365, 15035, 15720, 16348, 17014, 17702, 18319, 18970, 19656, 20304, 20980, 21570, 22190, 22788, 23465, 24108, 24706, 25380, 25982, 26640, 27280, 27921, 28554, 29145, 29728, 30331, 31003, 31651]","[13085, 13725, 14444, 15110, 15801, 16368, 17036, 17722, 18340, 18990, 19677, 20325, 21003, 21597, 22272, 22867, 23488, 24181, 24802, 25400, 26059, 26708, 27300, 27942, 28631, 29168, 29794, 30417, 31024, 31671]","[122, 44, 137, 86, 108, 104, 84, 39, 45, 47, 73, 140, 39, 95, 143, 178, 153, 167, 162, 178, 235, 179, 167, 86, 49, 95, 117, 179, 133, 124]","[12990, 13655, 14371, 15039, 15724, 16352, 17018, 17707, 18324, 18975, 19661, 20307, 20984, 21576, 22195, 22793, 23470, 24113, 24712, 25384, 25986, 26644, 27284, 27926, 28557, 29147, 29734, 30338, 31007, 31657]",,78,EM,L,R,ITMSR,1.1,
0,500,practice,0,0,0,0,practice,"['S', 'S', 'S', 'S', 'S', 'S', 'S', 'S', 'C', 'C', 'C', 'C', 'C', 'C', 'C', 'C', 'C', 'C', 'C', 'C', 'C', 'C', 'C', 'C']","[110288, 110725, 111082, 111479, 111923, 112420, 112914, 113408, 113940, 114415, 114884, 115366, 115826, 116323, 116799, 117279, 117757, 118240, 118722, 119175, 119664, 120164, 120635, 121123]","[110372, 110816, 111152, 111556, 111994, 112498, 112936, 113480, 114002, 114478, 114906, 115434, 115897, 116396, 116891, 117358, 117835, 118327, 118787, 119261, 119744, 120248, 120720, 121216]","[206, 20, 254, 17, 11, 230, 4, 0, 192, 233, 192, 7, 25, 210, 243, 215, 17, 4, 224, 10, 253, 49, 39, 49]","[110292, 110730, 111088, 111484, 111929, 112425, 112918, 113412, 113945, 114421, 114890, 115371, 115831, 116329, 116803, 117284, 117763, 118245, 118726, 119180, 119667, 120168, 120639, 121127]","[109936, 110436, 110936, 111436, 111936, 112436, 112936, 113436, 113960, 114435, 114904, 115386, 115846, 116343, 116819, 117299, 117777, 118260, 118743, 119195, 119684, 120184, 120655, 121143]",78,EM,L,R,ITMSR,1.1,
1,500,practice,0,1,1,1,practice,"['S', 'S', 'S', 'S', 'S', 'S', 'S', 'S', 'C', 'C', 'C', 'C', 'C', 'C', 'C', 'C', 'C', 'C', 'C', 'C', 'C', 'C', 'C', 'C']","[127125, 127449, 127795, 128214, 128688, 129164, 129669, 130160, 130692, 131139, 131631, 132100, 132589, 133071, 133528, 134036, 134516, 134996, 135495, 135972, 136455, 136938, 137415, 137895]","[127217, 127520, 127872, 128278, 128745, 129226, 129733, 130227, 130751, 131225, 131689, 132170, 132664, 133136, 133602, 134110, 134578, 135068, 135564, 136050, 136529, 137015, 137500, 137993]","[18, 124, 122, 168, 16, 251, 78, 193, 77, 74, 45, 158, 110, 205, 91, 36, 60, 60, 108, 138, 225, 160, 171, 141]","[127131, 127453, 127801, 128221, 128694, 129169, 129675, 130165, 130697, 131144, 131636, 132107, 132594, 133078, 133534, 134040, 134524, 135002, 135501, 135976, 136458, 136943, 137420, 137901]","[126773, 127273, 127773, 128273, 128773, 129273, 129773, 130273, 130712, 131160, 131651, 132120, 132610, 133091, 133549, 134056, 134536, 135016, 135515, 135992, 136475, 136958, 137435, 137915]",78,EM,L,R,ITMSR,1.1,
4,500,practice,0,2,2,2,practice,"['S', 'S', 'S', 'S', 'S', 'S', 'S', 'C', 'C', 'C', 'C', 'C', 'C', 'C', 'C', 'C', 'C', 'C', 'C', 'C', 'C', 'C', 'C']","[143766, 144260, 144757, 145248, 145753, 146266, 146770, 147246, 147751, 148274, 148753, 149233, 149748, 150197, 150665, 151184, 151672, 152126, 152659, 153145, 153620, 154072, 154555]","[143854, 144329, 144835, 145352, 145818, 146328, 146869, 147346, 147854, 148371, 148885, 149341, 149847, 150301, 150791, 151319, 151794, 152243, 152791, 153261, 153751, 154211, 154717]","[67, 200, 57, 218, 104, 142, 48, 173, 10, 82, 220, 102, 48, 85, 117, 155, 131, 104, 135, 78, 148, 164, 69]","[143774, 144266, 144822, 145253, 145794, 146272, 146777, 147250, 147755, 148322, 148813, 149238, 149753, 150202, 150670, 151190, 151677, 152132, 152666, 153152, 153626, 154077, 154651]","[143301, 143800, 144301, 144801, 145301, 145801, 146301, 146801, 147266, 147771, 148294, 148773, 149253, 149768, 150217, 150685, 151204, 151692, 152146, 152679, 153165, 153640, 154092, 154575]",78,EM,L,R,ITMSR,1.1,
3,500,practice,0,3,3,3,practice,"['S', 'S', 'S', 'S', 'S', 'S', 'C', 'C', 'C', 'C', 'C', 'C', 'C', 'C', 'C', 'C', 'C', 'C', 'C', 'C', 'C', 'C', 'C']","[161127, 161644, 162159, 162614, 163099, 163614, 164121, 164290, 164630, 165106, 165625, 166103, 166616, 167094, 167597, 168070, 168557, 169081, 169564, 170045, 170563, 171055, 171549]","[161239, 161743, 162264, 162759, 163267, 163756, 164141, 164310, 164772, 165229, 165753, 166270, 166791, 167302, 167800, 168296, 168762, 169213, 169748, 170218, 170725, 171229, 171675]","[103, 206, 235, 153, 114, 70, 222, 111, 199, 114, 13, 193, 91, 228, 90, 81, 130, 121, 143, 141, 91, 160, 126]","[161191, 161650, 162208, 162619, 163105, 163619, 164126, 164294, 164635, 165112, 165706, 166109, 166621, 167098, 167602, 168076, 168562, 169160, 169568, 170049, 170568, 171059, 171554]","[160144, 160644, 161144, 161644, 162144, 162644, 163144, 163644, 164141, 164651, 165126, 165645, 166123, 166636, 167114, 167617, 168090, 168578, 169101, 169584, 170065, 170584, 171075, 171569]",78,EM,L,R,ITMSR,1.1,
2,500,practice,0,4,4,4,practice,"['S', 'S', 'S', 'S', 'S', 'S', 'C', 'C', 'C', 'C', 'C', 'C', 'C', 'C', 'C', 'C', 'C', 'C', 'C', 'C', 'C', 'C', 'C']","[178185, 178719, 179221, 179702, 180192, 180710, 181200, 181684, 182187, 182681, 183159, 183673, 184167, 184656, 185155, 185675, 186161, 186624, 187110, 187606, 188042, 188142, 188552]","[178336, 178886, 179402, 179862, 180338, 180881, 181388, 181908, 182415, 182891, 183398, 183876, 184415, 184930, 185351, 185890, 186368, 186832, 187337, 187801, 188062, 188214, 188743]","[83, 110, 169, 166, 102, 121, 173, 150, 135, 159, 212, 163, 208, 202, 217, 159, 195, 171, 193, 163, 236, 155, 251]","[178259, 178809, 179309, 179709, 180199, 180716, 181297, 181814, 182327, 182685, 183163, 183763, 184171, 184786, 185160, 185806, 186165, 186745, 187227, 187611, 188047, 188149, 188557]","[177250, 177751, 178250, 178750, 179250, 179750, 180250, 180750, 181220, 181704, 182207, 182701, 183179, 183693, 184187, 184676, 185176, 185695, 186181, 186644, 187130, 187626, 188062, 188572]",78,EM,L,R,ITMSR,1.1,
5,500,practice,0,5,5,5,practice,"['S', 'S', 'S', 'S', 'S', 'S', 'C', 'C', 'C', 'C', 'C', 'C', 'C', 'C', 'C', 'C', 'C', 'C', 'C', 'C', 'C', 'C']","[195251, 195781, 196289, 196776, 197262, 197783, 198270, 198764, 199261, 199756, 200251, 200745, 201241, 201723, 202207, 202754, 203224, 203701, 204184, 204646, 205117, 205590]","[195438, 195979, 196440, 196964, 197436, 197962, 198451, 198986, 199493, 199992, 200465, 200981, 201442, 201950, 202402, 202937, 203461, 203913, 204362, 204809, 205313, 205809]","[82, 87, 58, 56, 50, 100, 166, 135, 140, 173, 168, 207, 196, 192, 163, 111, 215, 173, 124, 97, 222, 165]","[195346, 195895, 196364, 196783, 197268, 197787, 198275, 198886, 199265, 199883, 200255, 200866, 201363, 201864, 202330, 202759, 203229, 203705, 204188, 204651, 205120, 205593]","[194321, 194821, 195321, 195821, 196321, 196822, 197321, 197821, 198290, 198785, 199281, 199776, 200271, 200765, 201261, 201743, 202227, 202774, 203244, 203721, 204205, 204666, 205137, 205611]",78,EM,L,R,ITMSR,1.1,
2,400,trial,0,6,6,6,trial,"['S', 'S', 'S', 'S', 'S', 'S', 'C', 'C', 'C', 'C', 'C', 'C', 'C', 'C', 'C', 'C', 'C', 'C', 'C', 'C', 'C', 'C', 'C', 'C', 'C', 'C', 'C']","[268499, 268825, 269212, 269637, 270032, 270408, 270808, 271139, 271480, 271846, 272227, 272589, 272956, 273318, 273666, 273766, 274029, 274131, 274396, 274496, 274764, 275125, 275225, 275487, 275587, 275848, 276217]","[268578, 268905, 269294, 269687, 270100, 270496, 270828, 271211, 271500, 271931, 272311, 272609, 273039, 273338, 273686, 273786, 274050, 274151, 274416, 274516, 274883, 275145, 275256, 275507, 275607, 275985, 276299]","[163, 85, 176, 137, 56, 240, 53, 174, 62, 58, 254, 204, 80, 227, 153, 134, 49, 156, 117, 187, 91, 159, 234, 24, 230, 160, 172]","[268506, 268833, 269218, 269645, 270040, 270415, 270813, 271144, 271483, 271852, 272233, 272593, 272962, 273324, 273671, 273766, 274034, 274131, 274401, 274496, 274768, 275129, 275225, 275491, 275587, 275854, 276222]","[267704, 268104, 268504, 268904, 269304, 269704, 270104, 270504, 270828, 271159, 271500, 271866, 272247, 272609, 272976, 273338, 273686, 274050, 274416, 274784, 275145, 275507, 275868, 276237]",78,EM,L,R,ITMSR,1.1,
2,600,trial,0,7,7,7,trial,"['C', 'C', 'C', 'C', 'C', 'C', 'C', 'C', 'C', 'C', 'C', 'C', 'C', 'C', 'C', 'C']","[286964, 287515, 288037, 288584, 289154, 289695, 290250, 290767, 291326, 291836, 292397, 292905, 293435, 293969, 294464, 295010]","[287114, 287737, 288334, 288922, 289449, 290013, 290488, 291082, 291537, 292162, 292685, 293196, 293718, 294243, 294775]","[216, 206, 187, 206, 243, 196, 126, 110, 104, 243, 192, 166, 168, 133, 163]","[287043, 287519, 288043, 288756, 289158, 289700, 290254, 290774, 291332, 291841, 292401, 292910, 293440, 293974, 294468]","[281745, 282344, 282944, 283544, 284144, 284744, 285344, 285944, 286984, 287535, 288057, 288604, 289174, 289715, 290270, 290787, 291346, 291856, 292417, 292925, 293455, 293989, 294484, 295030]",78,EM,L,R,ITMSR,1.1,
4,400,trial,0,8,8,8,trial,"['S', 'S', 'S', 'S', 'C', 'C', 'C', 'C', 'C', 'C', 'C', 'C', 'C', 'C', 'C', 'C', 'C', 'C', 'C', 'C']","[301907, 302298, 302683, 303065, 303506, 303836, 304237, 304596, 305000, 305343, 305719, 306093, 306447, 306809, 307166, 307502, 307912, 308271, 308630, 308967]","[302041, 302454, 302851, 303211, 303636, 303965, 304379, 304764, 305137, 305500, 305864, 306230, 306520, 306877, 307186, 307563, 307932, 308339, 308694, 309025]","[95, 107, 169, 5, 23, 34, 33, 73, 74, 30, 2, 22, 120, 207, 147, 174, 29, 94, 219, 229]","[301984, 302382, 302770, 303071, 303568, 303842, 304317, 304671, 305005, 305424, 305805, 306098, 306453, 306817, 307171, 307508, 307917, 308278, 308636, 308974]","[300363, 300763, 301163, 301563, 301963, 302363, 302764, 303163, 303526, 303856, 304258, 304616, 305020, 305363, 305739, 306113, 306467, 306829, 307186, 307522, 307932, 308291, 308651, 308987]",78,EM,L,R,ITMSR,1.1,
3,600,trial,0,9,9,9,trial,"['S', 'S', 'S', 'S', 'C', 'C', 'C', 'C', 'C', 'C', 'C', 'C', 'C', 'C', 'C', 'C', 'C', 'C', 'C', 'C', 'C', 'C', 'C']","[316818, 317445, 318085, 318647, 319283, 319885, 320460, 321058, 321644, 322244, 322809, 323400, 323994, 324557, 325107, 325207, 325719, 325819, 326274, 326818, 327375, 327930, 328030]","[317151, 317796, 318355, 319045, 319669, 320218, 320807, 321446, 322021, 322540, 323152, 323764, 324306, 324893, 325127, 325484, 325739, 326033, 326559, 327129, 327684, 327950]","[70, 12, 175, 81, 93, 127, 175, 144, 177, 148, 163, 208, 147, 110, 138, 36, 174, 137, 182, 183, 167, 65]","[317015, 317654, 318093, 318901, 319514, 320115, 320668, 321062, 321884, 322422, 322813, 323404, 323998, 324561, 325111, 325401, 325723, 325903, 326278, 326822, 327379, 327933]","[314521, 315121, 315721, 316321, 316921, 317521, 318121, 318722, 319303, 319905, 320480, 321078, 321665, 322264, 322829, 323420, 324014, 324577, 325127, 325739, 326294, 326838, 327395, 327950]",78,EM,L,R,ITMSR,1.1,
1,600,trial,0,10,10,10,trial,"['S', 'S', 'S', 'S', 'S', 'S', 'S', 'S', 'S', 'C', 'C', 'C', 'C', 'C', 'C', 'C', 'C', 'C', 'C', 'C', 'C', 'C', 'C', 'C', 'C', 'C', 'C', 'C', 'C', 'C', 'C', 'C']","[334885, 335484, 336105, 336683, 336783, 337264, 337366, 337886, 337986, 338446, 338546, 339037, 339137, 339589, 340190, 340776, 341367, 341470, 341921, 342023, 342524, 343103, 343670, 343772, 344201, 344806, 345369, 345936, 346038, 346505, 347065, 347165]","[335246, 335878, 336418, 336703, 336992, 337284, 337596, 337906, 338193, 338466, 338792, 339057, 339341, 339983, 340514, 341148, 341390, 341688, 341943, 342267, 342821, 343380, 343691, 343955, 344546, 345113, 345694, 345958, 346335, 346853, 347085]","[246, 45, 114, 138, 166, 123, 144, 35, 106, 60, 151, 59, 198, 67, 45, 49, 8, 115, 36, 52, 45, 26, 1, 128, 48, 107, 162, 147, 225, 85, 62]","[335131, 335490, 336109, 336686, 336850, 337268, 337428, 337890, 338122, 338450, 338674, 339040, 339274, 339592, 340193, 340779, 341370, 341609, 341924, 342109, 342528, 343109, 343676, 343876, 344207, 344811, 345373, 345942, 346237, 346729, 347070]","[333718, 334318, 334918, 335518, 336118, 336718, 337318, 337918, 338466, 339057, 339609, 340210, 340796, 341387, 341941, 342544, 343123, 343690, 344221, 344826, 345389, 345956, 346525, 347085]",78,EM,L,R,ITMSR,1.1,
0,400,trial,0,11,11,11,trial,"['S', 'S', 'S', 'S', 'S', 'S', 'S', 'S', 'C', 'C', 'C', 'C', 'C', 'C', 'C', 'C', 'C', 'C', 'C', 'C', 'C', 'C', 'C', 'C', 'C', 'C', 'C']","[353566, 354010, 354401, 354501, 354796, 354897, 355212, 355632, 356027, 356127, 356434, 356534, 356838, 356938, 357239, 357628, 358033, 358444, 358822, 359265, 359641, 360054, 360423, 360819, 361193, 361572, 361938]","[353773, 354176, 354421, 354542, 354817, 354990, 355373, 355787, 356047, 356193, 356454, 356635, 356858, 357006, 357429, 357831, 358252, 358625, 359052, 359441, 359836, 360205, 360606, 360999, 361334, 361707, 362065]","[133, 96, 6, 75, 23, 71, 121, 203, 57, 96, 65, 155, 241, 156, 55, 75, 76, 228, 82, 15, 75, 245, 85, 248, 179, 167, 14]","[353571, 354015, 354406, 354501, 354801, 354909, 355219, 355637, 356032, 356146, 356440, 356573, 356844, 356938, 357243, 357633, 358038, 358449, 358828, 359270, 359645, 360060, 360426, 360825, 361197, 361577, 361942]","[352832, 353232, 353632, 354032, 354433, 354832, 355232, 355632, 356047, 356454, 356858, 357259, 357648, 358053, 358464, 358842, 359285, 359661, 360074, 360443, 360839, 361213, 361592, 361958]",78,EM,L,R,ITMSR,1.1,
5,600,trial,0,12,12,12,trial,"['S', 'S', 'S', 'S', 'S', 'S', 'S', 'S', 'S', 'S', 'S', 'C', 'C', 'C', 'C', 'C', 'C', 'C', 'C', 'C', 'C', 'C', 'C', 'C', 'C', 'C', 'C', 'C', 'C', 'C', 'C', 'C']","[368301, 368401, 368706, 368806, 369332, 369938, 370554, 370654, 371044, 371144, 371647, 372288, 372870, 373421, 374051, 374582, 375150, 375706, 376264, 376788, 376888, 377300, 377824, 378379, 378947, 379049, 379461, 379563, 380016, 380118, 380514, 380614]","[368321, 368466, 368726, 369104, 369781, 370331, 370574, 370847, 371064, 371421, 372049, 372646, 373208, 373795, 374351, 374909, 375469, 375970, 376502, 376808, 377066, 377570, 378055, 378625, 378968, 379168, 379482, 379719, 380036, 380241, 380534, 380780]","[150, 42, 81, 115, 224, 30, 254, 110, 5, 176, 40, 35, 88, 86, 247, 26, 34, 20, 18, 63, 21, 243, 229, 66, 75, 10, 255, 120, 60, 35, 254, 117]","[368307, 368404, 368713, 369045, 369337, 370252, 370558, 370770, 371048, 371206, 371651, 372293, 372874, 373425, 374055, 374586, 375154, 375710, 376268, 376793, 376971, 377305, 377828, 378384, 378951, 379066, 379466, 379600, 380020, 380136, 380519, 380713]","[367536, 368135, 368735, 369335, 369935, 370535, 371135, 371735, 372308, 372890, 373441, 374071, 374602, 375170, 375726, 376284, 376808, 377320, 377844, 378399, 378968, 379481, 380036, 380534]",78,EM,L,R,ITMSR,1.1,
1,400,trial,0,13,13,13,trial,"['S', 'S', 'S', 'S', 'C', 'C', 'C', 'C', 'C', 'C', 'C', 'C', 'C', 'C', 'C', 'C', 'C', 'C', 'C', 'C', 'C', 'C']","[387770, 388171, 388546, 388972, 389365, 389757, 390181, 390536, 390941, 391321, 391721, 392114, 392214, 392471, 392863, 393237, 393602, 393997, 394360, 394460, 394763, 395103]","[387949, 388346, 388736, 389116, 389527, 389958, 390327, 390713, 391103, 391492, 391846, 392134, 392235, 392581, 392972, 393325, 393622, 394017, 394380, 394480, 394783, 395123]","[110, 170, 151, 166, 183, 159, 1, 86, 75, 118, 183, 64, 106, 6, 225, 126, 184, 223, 171, 42, 61, 237]","[387874, 388271, 388638, 388977, 389370, 389762, 390185, 390540, 390945, 391325, 391726, 392119, 392214, 392475, 392867, 393243, 393605, 394001, 394364, 394460, 394768, 395107]","[386200, 386600, 387000, 387400, 387800, 388200, 388600, 389000, 389385, 389777, 390201, 390556, 390961, 391341, 391741, 392134, 392492, 392883, 393257, 393622, 394017, 394380, 394783, 395123]",78,EM,L,R,ITMSR,1.1,
0,600,trial,0,14,14,14,trial,"['S', 'S', 'S', 'S', 'S', 'S', 'S', 'C', 'C', 'C', 'C', 'C', 'C', 'C', 'C', 'C', 'C', 'C', 'C', 'C', 'C', 'C', 'C', 'C', 'C', 'C', 'C', 'C', 'C', 'C', 'C']","[401355, 401778, 402381, 402950, 403574, 404152, 404754, 405356, 405937, 406037, 406508, 407086, 407186, 407657, 407757, 408219, 408321, 408782, 408882, 409350, 409452, 409932, 410525, 411084, 411653, 412229, 412812, 413418, 413518, 413990, 414092]","[401533, 402092, 402689, 403278, 403880, 404480, 405078, 405655, 405957, 406250, 406860, 407106, 407415, 407677, 407942, 408239, 408521, 408802, 409066, 409372, 409637, 410210, 410803, 411385, 411940, 412514, 413106, 413438, 413649, 414011, 414236]","[31, 6, 84, 117, 190, 145, 206, 160, 132, 45, 222, 85, 24, 22, 5, 124, 83, 204, 225, 143, 177, 0, 248, 226, 228, 29, 44, 5, 88, 26, 62]","[401425, 401782, 402385, 402955, 403578, 404156, 404758, 405360, 405940, 406074, 406512, 407089, 407276, 407661, 407854, 408223, 408402, 408786, 408919, 409354, 409468, 409935, 410528, 411088, 411657, 412232, 412815, 413421, 413530, 413993, 414129]","[400592, 401192, 401793, 402392, 402992, 403592, 404192, 404792, 405377, 405957, 406529, 407106, 407677, 408239, 408802, 409370, 409952, 410545, 411104, 411673, 412249, 412832, 413438, 414010]",78,EM,L,R,ITMSR,1.1,
5,600,trial,0,15,15,15,trial,"['S', 'S', 'S', 'S', 'S', 'S', 'S', 'C', 'C', 'C', 'C', 'C', 'C', 'C', 'C', 'C', 'C', 'C', 'C', 'C', 'C', 'C', 'C', 'C', 'C', 'C', 'C', 'C', 'C', 'C', 'C', 'C', 'C', 'C', 'C']","[420715, 421345, 421940, 422548, 423152, 423252, 423731, 424329, 424429, 424907, 425007, 425497, 425598, 426103, 426669, 427282, 427382, 427884, 427986, 428444, 428544, 429034, 429134, 429598, 429698, 430183, 430283, 430765, 430865, 431324, 431424, 431920, 432507, 433097, 433199]","[421107, 421682, 422258, 422860, 423172, 423353, 423998, 424349, 424617, 424927, 425227, 425517, 425817, 426347, 427014, 427302, 427578, 427905, 428164, 428464, 428760, 429054, 429314, 429618, 429873, 430203, 430445, 430785, 431008, 431344, 431618, 432204, 432728, 433118, 433297]","[96, 151, 178, 199, 143, 117, 182, 196, 0, 198, 9, 211, 69, 237, 224, 210, 119, 229, 63, 203, 207, 219, 57, 11, 84, 11, 99, 249, 30, 207, 237, 26, 18, 208, 50]","[420993, 421349, 421944, 422551, 423155, 423252, 423734, 424333, 424448, 424910, 425133, 425500, 425720, 426107, 426673, 427285, 427479, 427886, 428035, 428447, 428548, 429037, 429242, 429601, 429714, 430186, 430289, 430768, 430865, 431328, 431523, 431923, 432510, 433101, 433199]","[419581, 420182, 420781, 421381, 421981, 422581, 423181, 423781, 424349, 424927, 425517, 426123, 426689, 427302, 427905, 428464, 429054, 429618, 430203, 430785, 431344, 431940, 432527, 433117]",78,EM,L,R,ITMSR,1.1,
2,400,trial,0,16,16,16,trial,"['S', 'S', 'C', 'C', 'C', 'C', 'C', 'C', 'C', 'C', 'C', 'C', 'C', 'C', 'C', 'C', 'C', 'C', 'C', 'C', 'C', 'C', 'C', 'C', 'C', 'C', 'C', 'C', 'C', 'C', 'C', 'C', 'C']","[441177, 441571, 442010, 442112, 442417, 442517, 442801, 443207, 443307, 443643, 443743, 444047, 444147, 444464, 444564, 444858, 444958, 445228, 445328, 445590, 445692, 446003, 446103, 446406, 446508, 446774, 446874, 447192, 447292, 447583, 447683, 447985, 448087]","[441380, 441798, 442030, 442193, 442437, 442580, 442977, 443227, 443398, 443663, 443815, 444067, 444219, 444484, 444631, 444878, 444978, 445248, 445351, 445611, 445756, 446023, 446146, 446426, 446536, 446794, 446936, 447212, 447335, 447603, 447748, 448005, 448145]","[163, 104, 190, 157, 126, 130, 117, 144, 226, 139, 157, 165, 201, 172, 219, 127, 138, 190, 231, 186, 255, 103, 90, 161, 53, 188, 161, 145, 118, 181, 170, 177, 208]","[441181, 441576, 442013, 442112, 442421, 442517, 442804, 443210, 443307, 443645, 443788, 444050, 444147, 444467, 444564, 444862, 444958, 445231, 445328, 445593, 445692, 446006, 446103, 446408, 446510, 446777, 446886, 447196, 447292, 447586, 447683, 447988, 448087]","[438821, 439221, 439621, 440022, 440421, 440821, 441221, 441621, 442030, 442437, 442821, 443227, 443663, 444067, 444484, 444878, 445248, 445611, 446023, 446426, 446794, 447212, 447603, 448005]",78,EM,L,R,ITMSR,1.1,
3,400,trial,0,17,17,17,trial,"['S', 'S', 'S', 'S', 'C', 'C', 'C', 'C', 'C', 'C', 'C', 'C', 'C', 'C', 'C', 'C', 'C', 'C', 'C', 'C', 'C', 'C', 'C', 'C', 'C', 'C', 'C', 'C', 'C', 'C']","[455126, 455504, 455896, 456290, 456713, 456813, 457106, 457206, 457481, 457581, 457879, 457981, 458241, 458341, 458627, 458727, 459002, 459383, 459747, 459847, 460124, 460226, 460500, 460854, 461208, 461310, 461608, 461708, 461990, 462375]","[455275, 455643, 456031, 456436, 456733, 456833, 457126, 457236, 457501, 457618, 457900, 458005, 458261, 458368, 458647, 458747, 459022, 459403, 459767, 459867, 460145, 460246, 460520, 460971, 461229, 461350, 461628, 461745, 462128, 462395]","[129, 117, 71, 172, 219, 43, 106, 255, 36, 251, 124, 116, 123, 17, 74, 110, 173, 239, 247, 150, 60, 171, 232, 106, 79, 237, 155, 28, 87, 55]","[455165, 455565, 455901, 456294, 456717, 456813, 457111, 457206, 457485, 457581, 457882, 457981, 458245, 458341, 458631, 458727, 459006, 459388, 459751, 459847, 460128, 460226, 460505, 460858, 461212, 461310, 461612, 461708, 461995, 462380]","[453570, 453970, 454370, 454770, 455170, 455570, 455970, 456370, 456733, 457126, 457501, 457900, 458261, 458647, 459022, 459403, 459767, 460144, 460520, 460874, 461229, 461628, 462010, 462395]",78,EM,L,R,ITMSR,1.1,
4,400,trial,0,18,18,18,trial,"['S', 'S', 'S', 'S', 'C', 'C', 'C', 'C', 'C', 'C', 'C', 'C', 'C', 'C', 'C', 'C', 'C', 'C', 'C', 'C', 'C', 'C']","[469654, 470045, 470421, 470840, 471239, 471616, 471986, 472377, 472744, 473115, 473485, 473867, 474243, 474636, 474991, 475355, 475455, 475737, 475839, 476141, 476502, 476895]","[469812, 470206, 470559, 471009, 471377, 471747, 472159, 472549, 472888, 473135, 473635, 474018, 474407, 474757, 475104, 475375, 475492, 475758, 475898, 476282, 476672, 477035]","[11, 8, 23, 222, 24, 39, 45, 43, 243, 158, 227, 247, 31, 141, 158, 234, 239, 231, 57, 198, 163, 237]","[469713, 470051, 470427, 470848, 471245, 471623, 471992, 472383, 472752, 473121, 473493, 473873, 474249, 474643, 474997, 475359, 475457, 475741, 475839, 476147, 476506, 476900]","[468116, 468516, 468916, 469316, 469716, 470116, 470516, 470916, 471259, 471636, 472006, 472397, 472764, 473135, 473505, 473887, 474263, 474656, 475011, 475375, 475757, 476162, 476522, 476915]",78,EM,L,R,ITMSR,1.1,
0,400,trial,0,19,19,19,trial,"['S', 'S', 'S', 'S', 'C', 'C', 'C', 'C', 'C', 'C', 'C', 'C', 'C', 'C', 'C', 'C', 'C', 'C', 'C', 'C']","[484069, 484490, 484891, 485305, 485702, 486107, 486513, 486927, 487344, 487726, 488120, 488516, 488908, 489328, 489701, 490119, 490517, 490917, 491325, 491735]","[484235, 484664, 485089, 485500, 485913, 486296, 486699, 487124, 487516, 487905, 488329, 488714, 489117, 489479, 489869, 490263, 490654, 491091, 491475, 491889]","[38, 137, 65, 98, 66, 40, 107, 156, 76, 114, 140, 110, 166, 54, 111, 165, 140, 70, 52, 84]","[484158, 484496, 485008, 485423, 485800, 486221, 486606, 487030, 487437, 487819, 488265, 488633, 489034, 489391, 489792, 490188, 490582, 491026, 491418, 491802]","[482533, 482933, 483333, 483733, 484133, 484533, 484933, 485334, 485722, 486127, 486533, 486947, 487364, 487746, 488140, 488536, 488928, 489348, 489721, 490139, 490537, 490937, 491345, 491755]",78,EM,L,R,ITMSR,1.1,
0,600,trial,0,20,20,20,trial,"['S', 'S', 'S', 'S', 'S', 'S', 'C', 'C', 'C', 'C', 'C', 'C', 'C', 'C', 'C', 'C', 'C', 'C', 'C', 'C', 'C', 'C']","[498616, 499151, 499756, 500367, 500950, 501524, 502130, 502722, 503285, 503849, 504429, 504981, 505562, 506140, 506701, 507280, 507866, 508410, 509007, 509600, 510180, 510756]","[498749, 499400, 500056, 500627, 501214, 501846, 502483, 503035, 503625, 504156, 504717, 505275, 505845, 506416, 507010, 507555, 508122, 508730, 509281, 509810, 510427, 511024]","[44, 87, 250, 94, 144, 121, 74, 157, 106, 84, 159, 161, 238, 185, 221, 36, 45, 67, 34, 24, 38, 31]","[498682, 499156, 499760, 500531, 501105, 501679, 502135, 502726, 503290, 504050, 504432, 504984, 505566, 506143, 506704, 507284, 507869, 508413, 509011, 509604, 510183, 510760]","[497403, 498003, 498604, 499203, 499803, 500403, 501003, 501603, 502150, 502743, 503305, 503869, 504450, 505001, 505582, 506160, 506721, 507300, 507886, 508430, 509027, 509620, 510200, 510776]",78,EM,L,R,ITMSR,1.1,
3,600,trial,0,21,21,21,trial,"['S', 'S', 'S', 'S', 'S', 'S', 'C', 'C', 'C', 'C', 'C', 'C', 'C', 'C', 'C', 'C', 'C', 'C', 'C', 'C', 'C', 'C', 'C', 'C', 'C']","[517501, 518080, 518716, 519303, 519879, 520518, 521107, 521698, 522281, 522881, 522981, 523451, 523551, 524017, 524119, 524581, 525109, 525737, 526332, 526900, 527447, 528018, 528563, 529115, 529683]","[517706, 518371, 518987, 519596, 520173, 520760, 521368, 521955, 522537, 522901, 523127, 523471, 523715, 524037, 524269, 524820, 525430, 525978, 526579, 527135, 527684, 528230, 528776, 529295, 529910]","[20, 60, 202, 75, 63, 134, 125, 179, 126, 92, 250, 39, 7, 45, 229, 209, 169, 224, 206, 249, 242, 206, 3, 218, 233]","[517594, 518246, 518722, 519308, 519884, 520522, 521112, 521702, 522452, 522885, 523051, 523454, 523618, 524021, 524200, 524585, 525113, 525742, 526337, 527014, 527547, 528023, 528566, 529119, 529687]","[516352, 516952, 517552, 518152, 518752, 519352, 519952, 520552, 521127, 521718, 522301, 522901, 523471, 524037, 524601, 525129, 525757, 526352, 526920, 527467, 528038, 528583, 529135, 529703]",78,EM,L,R,ITMSR,1.1,
5,400,trial,0,22,22,22,trial,"['S', 'S', 'S', 'S', 'S', 'S', 'C', 'C', 'C', 'C', 'C', 'C', 'C', 'C', 'C', 'C', 'C', 'C', 'C', 'C', 'C', 'C']","[535964, 536339, 536732, 537134, 537542, 537933, 538344, 538734, 539129, 539450, 539819, 540206, 540576, 540957, 541331, 541704, 542055, 542433, 542790, 543184, 543568, 543938]","[536107, 536498, 536887, 537290, 537712, 538098, 538489, 538900, 539256, 539589, 539970, 540337, 540725, 541087, 541471, 541838, 542176, 542570, 542954, 543340, 543718, 544061]","[146, 189, 131, 125, 211, 148, 223, 109, 104, 22, 37, 196, 123, 158, 152, 173, 78, 175, 142, 156, 201, 107]","[536046, 536344, 536738, 537140, 537546, 537938, 538349, 538739, 539136, 539455, 539824, 540211, 540581, 540962, 541336, 541709, 542061, 542437, 542795, 543191, 543574, 543944]","[535177, 535577, 535977, 536377, 536777, 537177, 537577, 537977, 538364, 538754, 539149, 539470, 539839, 540226, 540596, 540977, 541351, 541724, 542075, 542453, 542810, 543204, 543588, 543959]",78,EM,L,R,ITMSR,1.1,
1,600,trial,0,23,23,23,trial,"['S', 'S', 'S', 'S', 'S', 'S', 'C', 'C', 'C', 'C', 'C', 'C', 'C', 'C', 'C', 'C', 'C', 'C', 'C', 'C', 'C', 'C']","[550833, 551464, 552074, 552660, 553251, 553845, 554471, 555039, 555654, 556252, 556836, 557386, 557936, 558476, 559035, 559558, 560117, 560667, 561210, 561757, 562316, 562853]","[551029, 551669, 552289, 552923, 553527, 554127, 554713, 555321, 555887, 556476, 557048, 557630, 558182, 558687, 559259, 559790, 560316, 560867, 561430, 561947, 562537, 563061]","[29, 150, 229, 248, 78, 123, 175, 222, 185, 185, 223, 83, 32, 102, 118, 116, 162, 153, 162, 173, 121, 220]","[550908, 551471, 552081, 552794, 553391, 554022, 554620, 555191, 555791, 556384, 556962, 557390, 557941, 558480, 559039, 559563, 560121, 560671, 561214, 561762, 562320, 562968]","[549706, 550306, 550906, 551506, 552107, 552706, 553306, 553906, 554491, 555059, 555674, 556272, 556856, 557406, 557956, 558496, 559055, 559578, 560137, 560687, 561230, 561777, 562336, 562873]",78,EM,L,R,ITMSR,1.1,
5,400,trial,0,24,24,24,trial,"['S', 'S', 'S', 'S', 'S', 'C', 'C', 'C', 'C', 'C', 'C', 'C', 'C', 'C', 'C', 'C', 'C', 'C', 'C', 'C', 'C']","[569493, 569859, 570277, 570716, 571095, 571518, 571890, 572282, 572680, 573067, 573481, 573871, 574237, 574602, 574988, 575367, 575730, 576136, 576532, 576893, 577264]","[569693, 570061, 570459, 570867, 571242, 571623, 572034, 572425, 572814, 573221, 573632, 573997, 574355, 574716, 575122, 575493, 575870, 576288, 576664, 577032, 577398]","[5, 58, 17, 203, 220, 211, 251, 240, 15, 11, 217, 242, 230, 236, 37, 25, 3, 2, 241, 255, 189]","[569604, 569977, 570365, 570791, 571100, 571523, 571893, 572286, 572684, 573071, 573486, 573875, 574241, 574606, 574991, 575371, 575735, 576141, 576537, 576898, 577268]","[568332, 568732, 569133, 569533, 569933, 570333, 570733, 571133, 571538, 571910, 572302, 572700, 573087, 573501, 573891, 574257, 574622, 575008, 575387, 575750, 576156, 576552, 576913, 577284]",78,EM,L,R,ITMSR,1.1,
4,600,trial,0,25,25,25,trial,"['S', 'S', 'S', 'S', 'S', 'S', 'S', 'C', 'C', 'C', 'C', 'C', 'C', 'C', 'C', 'C', 'C', 'C', 'C', 'C', 'C', 'C', 'C', 'C']","[583592, 584002, 584620, 585179, 585757, 586385, 586987, 587558, 588143, 588674, 589205, 589773, 590336, 590919, 591420, 591986, 592518, 593047, 593624, 593724, 594204, 594717, 595246, 595799]","[583764, 584259, 584938, 585486, 586072, 586713, 587271, 587900, 588517, 588894, 589448, 589991, 590556, 591108, 591665, 592202, 592727, 593294, 593644, 593833, 594361, 594914, 595446, 596024]","[6, 146, 48, 112, 59, 155, 13, 142, 134, 187, 185, 217, 201, 198, 139, 190, 230, 240, 151, 77, 122, 190, 184, 0]","[583682, 584144, 584824, 585350, 585978, 586583, 587180, 587739, 588299, 588761, 589324, 589890, 590340, 591023, 591540, 591991, 592522, 593051, 593628, 593738, 594310, 594721, 595250, 595803]","[582847, 583446, 584046, 584646, 585246, 585846, 586446, 587046, 587578, 588163, 588694, 589225, 589793, 590356, 590939, 591440, 592006, 592538, 593068, 593644, 594224, 594737, 595266, 595819]",78,EM,L,R,ITMSR,1.1,
4,600,trial,0,26,26,26,trial,"['S', 'S', 'S', 'S', 'S', 'S', 'S', 'S', 'C', 'C', 'C', 'C', 'C', 'C', 'C', 'C', 'C', 'C', 'C', 'C', 'C', 'C', 'C', 'C']","[601934, 602255, 602726, 603375, 603965, 604557, 605084, 605665, 606263, 606849, 607367, 607956, 608492, 609061, 609626, 610156, 610739, 611271, 611849, 612389, 612984, 613540, 614034, 614604]","[602085, 602445, 603069, 603655, 604205, 604789, 605351, 605944, 606525, 607081, 607685, 608230, 608766, 609335, 609913, 610483, 610977, 611573, 612106, 612721, 613219, 613778, 614319]","[127, 20, 42, 24, 37, 255, 76, 70, 66, 61, 69, 78, 79, 52, 47, 50, 57, 76, 70, 61, 41, 49, 8]","[602003, 602346, 602920, 603540, 604086, 604699, 605193, 605839, 606390, 606971, 607536, 608133, 608660, 609065, 609629, 610314, 610860, 611410, 612007, 612585, 613111, 613666, 614208]","[601556, 602157, 602757, 603357, 603957, 604557, 605157, 605757, 606283, 606869, 607387, 607976, 608513, 609081, 609646, 610177, 610759, 611291, 611869, 612409, 613004, 613560, 614054, 614624]",78,EM,L,R,ITMSR,1.1,
2,600,trial,0,27,27,27,trial,"['S', 'S', 'S', 'S', 'S', 'S', 'C', 'C', 'C', 'C', 'C', 'C', 'C', 'C', 'C', 'C', 'C', 'C', 'C', 'C', 'C', 'C']","[621475, 622089, 622698, 623346, 623900, 624495, 625092, 625645, 626268, 626818, 627415, 628013, 628583, 629137, 629694, 630266, 630881, 631468, 632025, 632593, 633203, 633771]","[621734, 622338, 622926, 623572, 624135, 624745, 625328, 625891, 626506, 627125, 627707, 628287, 628857, 629464, 629984, 630541, 631166, 631731, 632286, 632913, 633467, 633977]","[238, 8, 19, 59, 237, 69, 80, 86, 64, 65, 53, 67, 52, 66, 96, 69, 92, 56, 245, 220, 12, 46]","[621629, 622211, 622820, 623457, 624051, 624649, 625213, 625790, 626412, 626983, 627570, 628173, 628746, 629347, 629852, 630428, 631031, 631613, 632223, 632775, 633384, 633899]","[620351, 620951, 621551, 622151, 622751, 623351, 623951, 624551, 625112, 625666, 626288, 626838, 627435, 628033, 628603, 629157, 629714, 630286, 630901, 631488, 632045, 632613, 633223, 633791]",78,EM,L,R,ITMSR,1.1,
3,400,trial,0,28,28,28,trial,"['S', 'S', 'S', 'S', 'S', 'S', 'C', 'C', 'C', 'C', 'C', 'C', 'C', 'C', 'C', 'C', 'C', 'C', 'C', 'C', 'C', 'C', 'C', 'C']","[639943, 640283, 640726, 641125, 641530, 641915, 642319, 642714, 642816, 643103, 643500, 643600, 643936, 644335, 644717, 645129, 645523, 645912, 646299, 646686, 647093, 647476, 647907, 648253]","[640075, 640419, 640887, 641263, 641632, 642042, 642433, 642734, 642853, 643250, 643520, 643620, 644091, 644477, 644895, 645304, 645661, 646003, 646387, 646804, 647213, 647656, 648048, 648420]","[86, 159, 141, 54, 94, 4, 250, 17, 89, 73, 208, 78, 128, 196, 178, 218, 203, 181, 204, 211, 0, 150, 229, 36]","[640016, 640351, 640816, 641131, 641536, 641922, 642324, 642718, 642816, 643109, 643506, 643600, 643940, 644340, 644722, 645134, 645528, 645917, 646304, 646691, 647098, 647481, 647912, 648344]","[639134, 639534, 639934, 640334, 640734, 641134, 641534, 641934, 642339, 642734, 643123, 643520, 643956, 644355, 644738, 645149, 645543, 645933, 646319, 646706, 647113, 647496, 647927, 648273]",78,EM,L,R,ITMSR,1.1,
1,400,trial,0,29,29,29,trial,"['S', 'S', 'S', 'S', 'C', 'C', 'C', 'C', 'C', 'C', 'C', 'C', 'C', 'C', 'C', 'C', 'C', 'C', 'C', 'C']","[655174, 655569, 655974, 656386, 656751, 657166, 657548, 657970, 658335, 658747, 659136, 659500, 659916, 660292, 660687, 661095, 661477, 661884, 662279, 662637]","[655289, 655692, 656079, 656485, 656860, 657265, 657666, 658054, 658438, 658835, 659255, 659616, 660041, 660443, 660828, 661204, 661551, 661935, 662331, 662690]","[105, 143, 154, 172, 138, 155, 196, 76, 202, 125, 215, 229, 200, 166, 126, 233, 144, 224, 97, 181]","[655233, 655629, 655980, 656392, 656757, 657172, 657553, 657976, 658340, 658752, 659141, 659505, 659921, 660298, 660694, 661099, 661484, 661890, 662285, 662642]","[653603, 654003, 654403, 654803, 655203, 655603, 656003, 656403, 656771, 657186, 657568, 657990, 658355, 658767, 659156, 659520, 659936, 660312, 660707, 661115, 661497, 661904, 662299, 662658]",78,EM,L,R,ITMSR,1.1,
5,600,trial,0,30,30,30,trial,"['S', 'S', 'S', 'S', 'S', 'S', 'C', 'C', 'C', 'C', 'C', 'C', 'C', 'C', 'C', 'C', 'C', 'C', 'C', 'C', 'C', 'C', 'C', 'C']","[676764, 677397, 677988, 678596, 679159, 679735, 680350, 680929, 681506, 682036, 682644, 683195, 683754, 684292, 684852, 685416, 685939, 686518, 687094, 687194, 687665, 688173, 688273, 688710]","[677018, 677647, 678280, 678836, 679428, 680017, 680629, 681244, 681792, 682348, 682952, 683514, 684036, 684574, 685102, 685666, 686195, 686768, 687114, 687308, 687855, 688193, 688356, 688962]","[28, 184, 175, 199, 173, 7, 240, 235, 6, 13, 27, 216, 203, 202, 216, 177, 182, 168, 163, 186, 136, 151, 151, 215]","[676886, 677552, 678156, 678715, 679310, 679909, 680500, 680933, 681662, 682174, 682648, 683199, 683759, 684297, 684856, 685421, 685943, 686523, 687098, 687225, 687670, 688177, 688273, 688714]","[675614, 676214, 676814, 677414, 678014, 678615, 679214, 679814, 680370, 680949, 681526, 682056, 682664, 683215, 683774, 684312, 684872, 685436, 685959, 686538, 687114, 687685, 688193, 688730]",78,EM,L,R,ITMSR,1.1,
3,400,trial,0,31,31,31,trial,"['S', 'S', 'S', 'S', 'S', 'C', 'C', 'C', 'C', 'C', 'C', 'C', 'C', 'C', 'C', 'C', 'C', 'C', 'C', 'C', 'C']","[695540, 695947, 696344, 696743, 697139, 697523, 697921, 698313, 698693, 699082, 699458, 699814, 700191, 700615, 700984, 701368, 701726, 702156, 702526, 702886, 703276]","[695597, 695969, 696364, 696763, 697159, 697569, 697942, 698333, 698716, 699120, 699479, 699834, 700240, 700635, 701004, 701388, 701747, 702176, 702546, 702929, 703296]","[38, 178, 46, 245, 172, 153, 141, 160, 241, 194, 213, 190, 5, 188, 228, 140, 1, 39, 208, 147, 212]","[695544, 695952, 696350, 696748, 697143, 697528, 697925, 698317, 698697, 699086, 699463, 699819, 700196, 700620, 700989, 701372, 701731, 702160, 702531, 702891, 703281]","[694373, 694773, 695173, 695573, 695973, 696373, 696773, 697174, 697543, 697942, 698333, 698713, 699102, 699479, 699834, 700211, 700635, 701004, 701388, 701746, 702176, 702546, 702906, 703296]",78,EM,L,R,ITMSR,1.1,
5,600,trial,0,32,32,32,trial,"['S', 'S', 'S', 'S', 'S', 'S', 'C', 'C', 'C', 'C', 'C', 'C', 'C', 'C', 'C', 'C', 'C', 'C', 'C', 'C', 'C', 'C', 'C', 'C']","[709867, 710465, 711041, 711655, 712263, 712875, 713470, 714048, 714611, 715238, 715821, 716459, 717038, 717666, 717766, 718225, 718792, 718892, 719357, 719945, 720499, 721086, 721668, 722240]","[710151, 710722, 711264, 711956, 712531, 713156, 713701, 714310, 714887, 715495, 716088, 716663, 717286, 717686, 717786, 718437, 718812, 718990, 719632, 719965, 720751, 721339, 721901, 722433]","[212, 21, 129, 202, 94, 211, 173, 219, 239, 24, 254, 78, 28, 43, 21, 244, 13, 81, 95, 75, 60, 62, 33, 213]","[709985, 710468, 711043, 711660, 712453, 712879, 713475, 714050, 714754, 715241, 715824, 716461, 717041, 717668, 717766, 718228, 718794, 718892, 719360, 719946, 720501, 721088, 721671, 722243]","[708701, 709301, 709901, 710501, 711101, 711701, 712301, 712901, 713490, 714068, 714631, 715258, 715841, 716479, 717058, 717686, 718245, 718812, 719377, 719965, 720519, 721106, 721688, 722260]",78,EM,L,R,ITMSR,1.1,
2,400,trial,0,33,33,33,trial,"['S', 'S', 'S', 'S', 'S', 'C', 'C', 'C', 'C', 'C', 'C', 'C', 'C', 'C', 'C', 'C', 'C', 'C', 'C', 'C', 'C']","[729074, 729507, 729886, 730271, 730647, 731094, 731459, 731845, 732208, 732573, 732993, 733368, 733733, 734115, 734490, 734870, 735197, 735604, 735997, 736359, 736740]","[729150, 729527, 729906, 730291, 730678, 731118, 731508, 731900, 732256, 732645, 733014, 733388, 733784, 734176, 734531, 734914, 735248, 735653, 736017, 736379, 736760]","[30, 126, 108, 46, 134, 201, 10, 255, 220, 248, 170, 145, 218, 156, 124, 102, 202, 182, 74, 131, 63]","[729115, 729512, 729892, 730277, 730653, 731099, 731464, 731849, 732213, 732578, 732997, 733373, 733737, 734119, 734495, 734875, 735202, 735608, 736002, 736364, 736744]","[727918, 728318, 728718, 729118, 729518, 729918, 730318, 730718, 731114, 731480, 731865, 732228, 732593, 733014, 733388, 733753, 734135, 734510, 734891, 735217, 735624, 736017, 736379, 736760]",78,EM,L,R,ITMSR,1.1,
1,600,trial,0,34,34,34,trial,"['S', 'S', 'S', 'S', 'S', 'S', 'C', 'C', 'C', 'C', 'C', 'C', 'C', 'C', 'C', 'C', 'C', 'C', 'C', 'C', 'C', 'C']","[743287, 743841, 744477, 744985, 745687, 746285, 746829, 747403, 747960, 748514, 749048, 749586, 750131, 750674, 751224, 751798, 752372, 752951, 753518, 754081, 754610, 755179]","[743307, 744053, 744558, 745123, 745791, 746476, 747048, 747617, 748170, 748726, 749259, 749828, 750338, 750906, 751499, 752014, 752564, 753117, 753694, 754221, 754764, 755381]","[209, 134, 71, 159, 151, 225, 239, 239, 226, 225, 202, 197, 199, 228, 193, 4, 186, 198, 198, 136, 204, 184]","[743290, 743846, 744482, 744989, 745692, 746289, 746833, 747406, 747964, 748518, 749053, 749590, 750135, 750678, 751228, 751802, 752376, 752954, 753522, 754085, 754614, 755183]","[742106, 742706, 743306, 743906, 744506, 745106, 745706, 746306, 746849, 747423, 747980, 748534, 749068, 749606, 750151, 750694, 751244, 751818, 752392, 752971, 753538, 754101, 754630, 755200]",78,EM,L,R,ITMSR,1.1,
4,600,trial,0,35,35,35,trial,"['S', 'S', 'S', 'S', 'S', 'S', 'S', 'C', 'C', 'C', 'C', 'C', 'C', 'C', 'C', 'C', 'C', 'C', 'C', 'C', 'C', 'C', 'C']","[761843, 762423, 763041, 763621, 764207, 764307, 764812, 765426, 766016, 766575, 767174, 767775, 768372, 768951, 769550, 770124, 770715, 771303, 771902, 772491, 773057, 773652, 774218]","[762015, 762637, 763239, 763832, 764227, 764423, 765058, 765637, 766271, 766856, 767496, 768023, 768631, 769210, 769785, 770391, 770957, 771566, 772133, 772765, 773350, 773904, 774470]","[162, 187, 247, 213, 98, 141, 40, 121, 62, 65, 135, 161, 201, 10, 171, 15, 164, 231, 238, 10, 20, 42, 205]","[761913, 762429, 763045, 763626, 764212, 764366, 764816, 765431, 766019, 766765, 767407, 767915, 768376, 769121, 769693, 770314, 770720, 771464, 771906, 772495, 773061, 773656, 774222]","[760683, 761282, 761882, 762482, 763082, 763682, 764282, 764882, 765446, 766036, 766595, 767194, 767795, 768392, 768971, 769570, 770144, 770735, 771323, 771922, 772511, 773078, 773672, 774238]",78,EM,L,R,ITMSR,1.1,
1,600,trial,0,36,36,36,trial,"['S', 'S', 'S', 'S', 'S', 'S', 'S', 'C', 'C', 'C', 'C', 'C', 'C', 'C', 'C', 'C', 'C', 'C', 'C', 'C', 'C', 'C', 'C', 'C']","[780975, 781611, 782196, 782814, 782914, 783389, 784047, 784586, 785170, 785270, 785775, 786355, 786936, 787546, 788102, 788680, 789254, 789817, 790422, 790951, 791533, 792100, 792665, 793194]","[781145, 781828, 782389, 782834, 783027, 783684, 784211, 784836, 785190, 785440, 786007, 786585, 787211, 787760, 788332, 788937, 789518, 790050, 790619, 791231, 791756, 792335, 792906, 793439]","[9, 75, 102, 182, 87, 159, 29, 159, 86, 129, 246, 172, 2, 163, 233, 188, 10, 210, 25, 4, 33, 200, 44, 2]","[780982, 781616, 782201, 782820, 782949, 783394, 784155, 784591, 785173, 785308, 785780, 786479, 786940, 787549, 788246, 788685, 789259, 789821, 790426, 790955, 791537, 792104, 792796, 793197]","[779854, 780454, 781054, 781655, 782254, 782854, 783454, 784054, 784606, 785190, 785795, 786375, 786956, 787566, 788122, 788700, 789274, 789837, 790443, 790971, 791554, 792120, 792685, 793214]",78,EM,L,R,ITMSR,1.1,
2,600,trial,0,37,37,37,trial,"['S', 'S', 'S', 'S', 'S', 'S', 'S', 'S', 'S', 'C', 'C', 'C', 'C', 'C', 'C', 'C', 'C', 'C', 'C', 'C', 'C', 'C', 'C', 'C', 'C']","[799793, 800374, 800474, 801020, 801580, 801680, 802151, 802751, 802851, 803314, 803865, 804446, 805000, 805601, 806081, 806662, 807227, 807802, 808308, 808879, 809384, 809949, 810528, 811069, 811589]","[800017, 800394, 800625, 801206, 801600, 801838, 802412, 802771, 802936, 803518, 804163, 804654, 805251, 805855, 806359, 806917, 807449, 807988, 808612, 809109, 809693, 810179, 810771, 811316]","[183, 168, 191, 208, 30, 47, 178, 230, 57, 50, 193, 190, 146, 28, 179, 60, 159, 213, 165, 17, 169, 10, 162, 231]","[799798, 800378, 800474, 801025, 801584, 801710, 802155, 802754, 802875, 803318, 803868, 804568, 805003, 805605, 806285, 806667, 807230, 807808, 808311, 808883, 809511, 810070, 810532, 811213]","[798637, 799237, 799837, 800437, 801037, 801637, 802237, 802837, 803334, 803885, 804466, 805020, 805621, 806102, 806682, 807247, 807822, 808328, 808899, 809404, 809969, 810548, 811089, 811609]",78,EM,L,R,ITMSR,1.1,
1,400,trial,0,38,38,38,trial,"['S', 'S', 'S', 'S', 'C', 'C', 'C', 'C', 'C', 'C', 'C', 'C', 'C', 'C', 'C', 'C', 'C', 'C', 'C', 'C']","[818968, 819386, 819747, 820162, 820593, 821015, 821410, 821827, 822235, 822626, 823038, 823435, 823839, 824219, 824649, 825052, 825457, 825841, 826256, 826595]","[819033, 819437, 819804, 820236, 820652, 821098, 821524, 821954, 822343, 822765, 823194, 823576, 823960, 824370, 824786, 825189, 825532, 825861, 826276, 826662]","[205, 36, 53, 174, 147, 180, 238, 247, 1, 218, 5, 190, 207, 146, 204, 210, 184, 216, 113, 103]","[818974, 819390, 819753, 820165, 820597, 821019, 821413, 821831, 822238, 822628, 823042, 823438, 823842, 824313, 824653, 825055, 825462, 825845, 826259, 826600]","[817368, 817768, 818168, 818568, 818968, 819368, 819768, 820168, 820613, 821036, 821430, 821848, 822255, 822646, 823058, 823455, 823859, 824239, 824669, 825072, 825477, 825861, 826276, 826615]",78,EM,L,R,ITMSR,1.1,
0,600,trial,0,39,39,39,trial,"['S', 'S', 'S', 'S', 'S', 'S', 'S', 'S', 'C', 'C', 'C', 'C', 'C', 'C', 'C', 'C', 'C', 'C', 'C', 'C', 'C', 'C', 'C', 'C', 'C', 'C', 'C', 'C', 'C', 'C', 'C', 'C', 'C', 'C']","[832934, 833417, 833982, 834591, 835176, 835276, 835744, 836310, 836928, 837473, 837999, 838541, 839093, 839193, 839627, 839727, 840158, 840258, 840693, 840793, 841233, 841333, 841754, 841856, 842308, 842409, 842852, 842952, 843344, 843853, 843953, 844375, 844475, 844911]","[833075, 833489, 834107, 834611, 835196, 835314, 835974, 836557, 837127, 837715, 838248, 838789, 839113, 839337, 839647, 839842, 840178, 840361, 840713, 840901, 841253, 841400, 841774, 841951, 842328, 842501, 842872, 843036, 843525, 843873, 844062, 844395, 844574, 845083]","[148, 197, 235, 73, 90, 14, 154, 126, 201, 185, 194, 198, 137, 0, 141, 15, 130, 175, 162, 220, 46, 157, 123, 82, 155, 62, 116, 232, 3, 193, 90, 83, 55, 121]","[833007, 833422, 833987, 834596, 835181, 835276, 835748, 836314, 836932, 837477, 838003, 838545, 839097, 839234, 839632, 839768, 840162, 840265, 840697, 840802, 841237, 841338, 841758, 841869, 842312, 842416, 842855, 842973, 843348, 843857, 843970, 844378, 844505, 844915]","[832236, 832836, 833436, 834036, 834636, 835236, 835836, 836436, 836948, 837493, 838019, 838561, 839113, 839647, 840178, 840713, 841253, 841774, 842328, 842872, 843364, 843873, 844395, 844931]",78,EM,L,R,ITMSR,1.1,
2,600,trial,0,40,40,40,trial,"['S', 'S', 'S', 'S', 'S', 'S', 'C', 'C', 'C', 'C', 'C', 'C', 'C', 'C', 'C', 'C', 'C', 'C', 'C', 'C', 'C', 'C', 'C']","[851728, 852344, 852948, 853559, 854147, 854774, 855383, 855965, 856546, 857115, 857723, 858285, 858844, 859405, 859505, 859935, 860432, 860979, 861460, 862030, 862559, 863081, 863610]","[851950, 852712, 853266, 853857, 854416, 855009, 855643, 856266, 856799, 857418, 857968, 858565, 859071, 859425, 859581, 860111, 860666, 861161, 861658, 862223, 862760, 863309, 863840]","[109, 154, 116, 207, 250, 240, 37, 18, 51, 12, 6, 237, 192, 19, 83, 20, 233, 201, 182, 170, 204, 8, 231]","[851733, 852349, 852954, 853563, 854325, 854900, 855498, 856177, 856688, 857306, 857858, 858474, 858978, 859409, 859505, 859940, 860437, 861088, 861465, 862034, 862564, 863084, 863613]","[850634, 851233, 851833, 852433, 853033, 853634, 854234, 854834, 855403, 855985, 856566, 857135, 857743, 858305, 858864, 859425, 859955, 860452, 860999, 861480, 862050, 862579, 863101, 863630]",78,EM,L,R,ITMSR,1.1,
5,400,trial,0,41,41,41,trial,"['S', 'S', 'S', 'S', 'C', 'C', 'C', 'C', 'C', 'C', 'C', 'C', 'C', 'C', 'C', 'C', 'C', 'C', 'C', 'C']","[870909, 871387, 871737, 872151, 872538, 872937, 873322, 873728, 874142, 874516, 874902, 875312, 875688, 876098, 876447, 876844, 877197, 877596, 877978, 878328]","[871013, 871407, 871826, 872209, 872601, 873029, 873401, 873833, 874185, 874588, 874984, 875363, 875746, 876119, 876495, 876898, 877290, 877674, 877998, 878350]","[194, 142, 66, 131, 163, 44, 195, 71, 249, 167, 205, 54, 240, 126, 109, 161, 178, 202, 12, 140]","[870916, 871391, 871743, 872156, 872545, 872943, 873330, 873733, 874148, 874521, 874907, 875319, 875696, 876099, 876451, 876850, 877202, 877601, 877983, 878336]","[869382, 869782, 870182, 870582, 870982, 871383, 871782, 872182, 872558, 872957, 873342, 873748, 874162, 874536, 874923, 875332, 875708, 876119, 876467, 876864, 877217, 877616, 877998, 878348]",78,EM,L,R,ITMSR,1.1,
2,400,trial,0,42,42,42,trial,"['S', 'S', 'S', 'S', 'S', 'C', 'C', 'C', 'C', 'C', 'C', 'C', 'C', 'C', 'C', 'C', 'C', 'C', 'C', 'C', 'C']","[884857, 885258, 885629, 886029, 886431, 886828, 887211, 887590, 887979, 888370, 888751, 889137, 889525, 889940, 890307, 890702, 891065, 891473, 891898, 892289, 892668]","[884944, 885302, 885649, 886049, 886451, 886848, 887231, 887613, 888077, 888453, 888840, 889228, 889627, 889960, 890386, 890723, 891087, 891494, 891918, 892309, 892688]","[30, 90, 71, 196, 6, 232, 154, 140, 166, 254, 191, 98, 165, 3, 240, 23, 25, 52, 133, 250, 223]","[884866, 885266, 885634, 886036, 886437, 886834, 887218, 887598, 887985, 888377, 888756, 889143, 889531, 889945, 890311, 890706, 891071, 891479, 891905, 892295, 892674]","[883665, 884065, 884465, 884866, 885266, 885666, 886066, 886466, 886848, 887231, 887610, 887999, 888390, 888771, 889157, 889545, 889960, 890328, 890722, 891085, 891493, 891918, 892309, 892688]",78,EM,L,R,ITMSR,1.1,
3,400,trial,0,43,43,43,trial,"['S', 'S', 'S', 'S', 'S', 'C', 'C', 'C', 'C', 'C', 'C', 'C', 'C', 'C', 'C', 'C', 'C', 'C', 'C', 'C', 'C']","[899611, 899992, 900399, 900783, 901196, 901601, 901984, 902339, 902711, 903110, 903459, 903793, 904167, 904553, 904911, 905276, 905633, 906027, 906360, 906748, 907084]","[899694, 900080, 900483, 900891, 901279, 901696, 902061, 902452, 902833, 903131, 903481, 903901, 904187, 904649, 904931, 905298, 905726, 906047, 906487, 906842, 907214]","[42, 10, 80, 36, 233, 11, 1, 118, 44, 24, 15, 27, 33, 27, 12, 4, 72, 40, 93, 19, 27]","[899656, 899998, 900406, 900787, 901200, 901606, 901989, 902344, 902716, 903115, 903464, 903798, 904173, 904558, 904915, 905282, 905638, 906032, 906365, 906754, 907090]","[898479, 898879, 899279, 899679, 900079, 900480, 900879, 901279, 901621, 902004, 902360, 902731, 903130, 903479, 903813, 904187, 904573, 904931, 905296, 905653, 906047, 906380, 906768, 907104]",78,EM,L,R,ITMSR,1.1,
3,600,trial,0,44,44,44,trial,"['S', 'S', 'S', 'S', 'S', 'S', 'S', 'C', 'C', 'C', 'C', 'C', 'C', 'C', 'C', 'C', 'C', 'C', 'C', 'C', 'C', 'C', 'C']","[913587, 914062, 914688, 915260, 915887, 916445, 917065, 917682, 918275, 918848, 919489, 920071, 920680, 921217, 921814, 922358, 922937, 923500, 924050, 924612, 925152, 925718, 926305]","[913757, 914292, 914929, 915520, 916109, 916698, 917324, 917926, 918553, 919086, 919786, 920371, 920955, 921516, 922132, 922649, 923236, 923761, 924352, 924887, 925455, 925978, 926514]","[180, 153, 217, 147, 163, 117, 135, 172, 138, 128, 97, 222, 172, 57, 151, 209, 192, 84, 167, 167, 139, 131, 199]","[913681, 914198, 914842, 915437, 915894, 916591, 917210, 917826, 918280, 918977, 919494, 920255, 920685, 921221, 922051, 922496, 923127, 923505, 924055, 924783, 925328, 925879, 926414]","[912902, 913502, 914102, 914702, 915302, 915902, 916502, 917102, 917702, 918295, 918868, 919510, 920091, 920700, 921237, 921834, 922378, 922957, 923521, 924070, 924632, 925172, 925739, 926325]",78,EM,L,R,ITMSR,1.1,
0,400,trial,0,45,45,45,trial,"['S', 'S', 'S', 'S', 'S', 'S', 'C', 'C', 'C', 'C', 'C', 'C', 'C', 'C', 'C', 'C', 'C', 'C', 'C', 'C', 'C', 'C']","[932655, 933030, 933434, 933844, 934227, 934630, 935029, 935403, 935787, 936194, 936587, 937003, 937369, 937758, 938156, 938533, 938944, 939327, 939702, 940098, 940518, 940911]","[932798, 933154, 933559, 933954, 934365, 934768, 935161, 935556, 935962, 936345, 936763, 937171, 937565, 937923, 938316, 938705, 939095, 939476, 939828, 940252, 940662, 941062]","[234, 28, 82, 60, 181, 80, 67, 75, 81, 110, 164, 155, 160, 149, 142, 193, 191, 254, 204, 221, 192, 251]","[932751, 933038, 933507, 933911, 934296, 934718, 935120, 935409, 935884, 936280, 936686, 937098, 937491, 937856, 938160, 938636, 939040, 939407, 939766, 940178, 940600, 940989]","[931877, 932277, 932677, 933078, 933477, 933877, 934277, 934677, 935049, 935424, 935808, 936214, 936607, 937023, 937389, 937778, 938176, 938553, 938964, 939347, 939722, 940119, 940538, 940931]",78,EM,L,R,ITMSR,1.1,
0,400,trial,0,46,46,46,trial,"['S', 'S', 'S', 'S', 'S', 'S', 'C', 'C', 'C', 'C', 'C', 'C', 'C', 'C', 'C', 'C', 'C', 'C', 'C', 'C', 'C', 'C']","[947132, 947530, 947909, 948325, 948728, 949153, 949514, 949910, 950292, 950700, 951102, 951481, 951852, 952236, 952624, 953018, 953405, 953782, 954171, 954546, 954908, 955315]","[947280, 947691, 948047, 948441, 948825, 949293, 949656, 950061, 950489, 950860, 951230, 951643, 952012, 952415, 952804, 953188, 953597, 953964, 954337, 954735, 955122, 955512]","[171, 168, 141, 69, 44, 0, 19, 252, 24, 9, 177, 12, 33, 11, 44, 46, 62, 51, 41, 55, 50, 46]","[947221, 947618, 947985, 948389, 948770, 949222, 949578, 949976, 950389, 950781, 951165, 951569, 951945, 952311, 952719, 953114, 953504, 953873, 954255, 954649, 955006, 955429]","[946370, 946769, 947169, 947569, 947970, 948370, 948770, 949170, 949534, 949931, 950312, 950720, 951122, 951501, 951872, 952256, 952644, 953038, 953425, 953802, 954191, 954566, 954928, 955335]",78,EM,L,R,ITMSR,1.1,
4,400,trial,0,47,47,47,trial,"['S', 'S', 'S', 'S', 'S', 'S', 'C', 'C', 'C', 'C', 'C', 'C', 'C', 'C', 'C', 'C', 'C', 'C', 'C', 'C', 'C', 'C']","[961336, 961745, 962171, 962572, 962975, 963310, 963730, 964091, 964488, 964870, 965246, 965619, 966009, 966382, 966758, 967118, 967476, 967845, 968223, 968601, 968989, 969371]","[961517, 961898, 962354, 962731, 963084, 963496, 963879, 964257, 964605, 965026, 965411, 965790, 966162, 966518, 966873, 967256, 967615, 968016, 968379, 968781, 969164, 969528]","[211, 90, 178, 215, 96, 252, 222, 221, 215, 11, 16, 26, 7, 250, 156, 193, 217, 248, 236, 30, 43, 11]","[961428, 961830, 962263, 962660, 963037, 963414, 963826, 964162, 964549, 964951, 965342, 965723, 966084, 966439, 966834, 967182, 967547, 967920, 968304, 968697, 969070, 969447]","[960644, 961043, 961443, 961843, 962243, 962643, 963043, 963443, 963750, 964111, 964508, 964890, 965266, 965639, 966029, 966402, 966778, 967138, 967496, 967865, 968243, 968621, 969009, 969391]",78,EM,L,R,ITMSR,1.1,
4,600,trial,0,48,48,48,trial,"['S', 'S', 'S', 'S', 'S', 'S', 'S', 'C', 'C', 'C', 'C', 'C', 'C', 'C', 'C', 'C', 'C', 'C', 'C', 'C', 'C', 'C', 'C']","[975354, 975860, 976459, 977041, 977639, 978228, 978817, 979425, 980029, 980562, 981134, 981725, 982295, 982855, 983408, 983966, 984528, 985058, 985603, 986132, 986649, 987187, 987753]","[975610, 976121, 976651, 977300, 977930, 978514, 979115, 979762, 980345, 980883, 981467, 982037, 982639, 983150, 983724, 984263, 984863, 985434, 985921, 986416, 986959, 987516]","[234, 34, 210, 33, 57, 72, 57, 52, 87, 49, 76, 32, 50, 141, 21, 223, 254, 255, 230, 33, 17, 64]","[975471, 975988, 976547, 977189, 977802, 978375, 979002, 979563, 980209, 980769, 981314, 981933, 982477, 983044, 983548, 984120, 984719, 985281, 985748, 986281, 986803, 987373]","[974695, 975295, 975895, 976495, 977095, 977695, 978295, 978895, 979445, 980049, 980582, 981154, 981745, 982316, 982875, 983428, 983986, 984548, 985078, 985623, 986152, 986669, 987207, 987773]",78,EM,L,R,ITMSR,1.1,
1,400,trial,0,49,49,49,trial,"['S', 'S', 'S', 'S', 'S', 'S', 'S', 'C', 'C', 'C', 'C', 'C', 'C', 'C', 'C', 'C', 'C', 'C', 'C', 'C', 'C', 'C', 'C']","[993847, 994176, 994567, 994965, 995389, 995790, 996205, 996574, 996986, 997388, 997803, 998215, 998618, 999023, 999403, 999820, 1000215, 1000640, 1001017, 1001387, 1001795, 1002186, 1002559]","[993976, 994340, 994688, 995125, 995521, 995914, 996305, 996666, 997054, 997480, 997882, 998315, 998713, 999139, 999525, 999952, 1000353, 1000766, 1001157, 1001584, 1001965, 1002328, 1002762]","[124, 21, 214, 13, 220, 13, 228, 211, 154, 232, 246, 25, 16, 21, 5, 30, 44, 22, 60, 98, 111, 81, 87]","[993918, 994256, 994628, 994970, 995452, 995860, 996242, 996611, 997015, 997424, 997835, 998254, 998658, 999080, 999468, 999881, 1000285, 1000691, 1001092, 1001473, 1001872, 1002249, 1002674]","[993416, 993816, 994216, 994616, 995016, 995416, 995816, 996216, 996594, 997006, 997408, 997823, 998235, 998638, 999043, 999424, 999840, 1000236, 1000660, 1001037, 1001407, 1001816, 1002206, 1002579]",78,EM,L,R,ITMSR,1.1,
4,400,trial,0,50,50,50,trial,"['S', 'S', 'S', 'S', 'S', 'S', 'C', 'C', 'C', 'C', 'C', 'C', 'C', 'C', 'C', 'C', 'C', 'C', 'C', 'C', 'C', 'C']","[1008823, 1009240, 1009678, 1010048, 1010456, 1010848, 1011262, 1011651, 1012037, 1012425, 1012822, 1013212, 1013587, 1013992, 1014380, 1014769, 1015151, 1015521, 1015923, 1016285, 1016682, 1017066]","[1008991, 1009378, 1009779, 1010196, 1010589, 1011006, 1011426, 1011815, 1012194, 1012582, 1012964, 1013356, 1013758, 1014154, 1014511, 1014886, 1015271, 1015651, 1016044, 1016431, 1016850, 1017244]","[71, 57, 237, 80, 63, 92, 94, 92, 87, 69, 59, 65, 81, 62, 26, 244, 248, 42, 190, 21, 187, 222]","[1008896, 1009304, 1009738, 1010110, 1010512, 1010919, 1011335, 1011713, 1012107, 1012487, 1012879, 1013268, 1013656, 1014064, 1014440, 1014832, 1015206, 1015577, 1015972, 1016354, 1016773, 1017163]","[1008107, 1008507, 1008907, 1009307, 1009708, 1010107, 1010507, 1010907, 1011282, 1011672, 1012057, 1012445, 1012842, 1013232, 1013607, 1014012, 1014401, 1014789, 1015171, 1015541, 1015943, 1016305, 1016702, 1017086]",78,EM,L,R,ITMSR,1.1,
0,600,trial,0,51,51,51,trial,"['S', 'S', 'S', 'S', 'S', 'S', 'S', 'C', 'C', 'C', 'C', 'C', 'C', 'C', 'C', 'C', 'C', 'C', 'C', 'C', 'C', 'C', 'C']","[1023496, 1023961, 1024573, 1025189, 1025784, 1026359, 1026971, 1027566, 1028110, 1028692, 1029298, 1029884, 1030459, 1030996, 1031578, 1032167, 1032741, 1033335, 1033890, 1034480, 1035023, 1035580, 1036145]","[1023657, 1024149, 1024756, 1025419, 1026030, 1026597, 1027168, 1027842, 1028464, 1029046, 1029637, 1030198, 1030751, 1031334, 1031883, 1032442, 1032988, 1033580, 1034203, 1034770, 1035323, 1035863]","[235, 15, 254, 57, 48, 28, 249, 248, 61, 65, 48, 88, 89, 50, 56, 26, 246, 242, 223, 200, 226, 203]","[1023576, 1024057, 1024659, 1025300, 1025915, 1026476, 1027068, 1027708, 1028295, 1028931, 1029486, 1030076, 1030634, 1031110, 1031762, 1032172, 1032745, 1033340, 1033895, 1034485, 1035028, 1035585]","[1022809, 1023409, 1024009, 1024609, 1025209, 1025809, 1026409, 1027009, 1027586, 1028130, 1028712, 1029318, 1029904, 1030479, 1031016, 1031598, 1032187, 1032761, 1033355, 1033910, 1034500, 1035043, 1035600, 1036165]",78,EM,L,R,ITMSR,1.1,
5,400,trial,0,52,52,52,trial,"['S', 'S', 'S', 'S', 'S', 'S', 'S', 'S', 'C', 'C', 'C', 'C', 'C', 'C', 'C', 'C', 'C', 'C', 'C', 'C', 'C', 'C', 'C', 'C']","[1042034, 1042321, 1042571, 1042952, 1043302, 1043741, 1044150, 1044572, 1044928, 1045343, 1045719, 1046113, 1046535, 1046936, 1047394, 1047759, 1048150, 1048552, 1048943, 1049342, 1049720, 1050107, 1050521, 1050858]","[1042153, 1042464, 1042677, 1043064, 1043476, 1043908, 1044306, 1044692, 1045089, 1045476, 1045889, 1046320, 1046707, 1047133, 1047526, 1047909, 1048328, 1048717, 1049100, 1049496, 1049869, 1050218, 1050602, 1050937]","[177, 215, 158, 162, 12, 213, 196, 179, 206, 142, 191, 216, 181, 10, 194, 231, 228, 176, 195, 160, 109, 145, 50, 115]","[1042100, 1042403, 1042629, 1042957, 1043397, 1043819, 1044231, 1044635, 1044996, 1045400, 1045805, 1046247, 1046627, 1047032, 1047453, 1047829, 1048242, 1048627, 1048945, 1049346, 1049788, 1050109, 1050562, 1050864]","[1041741, 1042141, 1042541, 1042941, 1043341, 1043741, 1044141, 1044541, 1044948, 1045363, 1045739, 1046133, 1046555, 1046957, 1047414, 1047779, 1048170, 1048572, 1048963, 1049362, 1049740, 1050127, 1050541, 1050878]",78,EM,L,R,ITMSR,1.1,
3,600,trial,0,53,53,53,trial,"['S', 'S', 'S', 'S', 'S', 'S', 'S', 'S', 'C', 'C', 'C', 'C', 'C', 'C', 'C', 'C', 'C', 'C', 'C', 'C', 'C', 'C', 'C', 'C']","[1057100, 1057408, 1057859, 1058452, 1059040, 1059611, 1060225, 1060806, 1061380, 1061965, 1062522, 1063135, 1063692, 1064248, 1064788, 1065319, 1065888, 1066440, 1066984, 1067542, 1068094, 1068612, 1069205, 1069739]","[1057289, 1057620, 1058064, 1058626, 1059200, 1059816, 1060489, 1061093, 1061676, 1062249, 1062816, 1063392, 1063958, 1064496, 1065058, 1065587, 1066147, 1066658, 1067228, 1067806, 1068334, 1068864, 1069455]","[163, 13, 244, 180, 240, 199, 169, 219, 224, 10, 242, 212, 209, 239, 229, 24, 19, 243, 219, 245, 215, 221, 172]","[1057190, 1057524, 1057863, 1058552, 1059044, 1059615, 1060229, 1060964, 1061499, 1062133, 1062679, 1063138, 1063695, 1064251, 1064893, 1065449, 1066041, 1066557, 1066988, 1067545, 1068096, 1068615, 1069208]","[1056663, 1057262, 1057862, 1058462, 1059062, 1059662, 1060262, 1060862, 1061400, 1061985, 1062542, 1063155, 1063712, 1064268, 1064808, 1065339, 1065908, 1066460, 1067004, 1067563, 1068114, 1068632, 1069225, 1069759]",78,EM,L,R,ITMSR,1.1,
3,600,trial,0,54,54,54,trial,"['S', 'S', 'S', 'S', 'S', 'S', 'S', 'S', 'C', 'C', 'C', 'C', 'C', 'C', 'C', 'C', 'C', 'C', 'C', 'C', 'C', 'C', 'C', 'C']","[1082576, 1082788, 1083423, 1083978, 1084659, 1085172, 1085771, 1086382, 1086974, 1087524, 1088082, 1088605, 1089179, 1089755, 1090278, 1090798, 1091319, 1091860, 1092380, 1092938, 1093565, 1094126, 1094679, 1095235]","[1082677, 1082956, 1083665, 1084243, 1084819, 1085470, 1086048, 1086653, 1087217, 1087810, 1088332, 1088887, 1089433, 1089964, 1090508, 1091064, 1091629, 1092127, 1092667, 1093203, 1093815, 1094444, 1094962]","[99, 251, 85, 45, 160, 137, 85, 187, 193, 215, 250, 21, 14, 35, 5, 31, 41, 152, 241, 217, 209, 244, 253]","[1082632, 1082871, 1083549, 1084078, 1084722, 1085177, 1085930, 1086538, 1087090, 1087708, 1088198, 1088773, 1089183, 1089849, 1090418, 1090944, 1091480, 1091864, 1092543, 1093109, 1093710, 1094325, 1094863]","[1082263, 1082863, 1083463, 1084063, 1084663, 1085263, 1085863, 1086464, 1086994, 1087544, 1088102, 1088625, 1089199, 1089775, 1090298, 1090818, 1091339, 1091880, 1092400, 1092958, 1093585, 1094146, 1094700, 1095256]",78,EM,L,R,ITMSR,1.1,
3,600,trial,0,55,55,55,trial,"['S', 'S', 'S', 'S', 'S', 'S', 'S', 'C', 'C', 'C', 'C', 'C', 'C', 'C', 'C', 'C', 'C', 'C', 'C', 'C', 'C', 'C', 'C']","[1101621, 1102101, 1102629, 1103239, 1103853, 1104435, 1105043, 1105647, 1106213, 1106799, 1107377, 1107930, 1108492, 1109080, 1109627, 1110182, 1110690, 1111191, 1111767, 1112340, 1112876, 1113389, 1113932]","[1101869, 1102392, 1102920, 1103559, 1104146, 1104736, 1105348, 1105977, 1106558, 1107081, 1107620, 1108172, 1108762, 1109302, 1109918, 1110432, 1110984, 1111503, 1112051, 1112609, 1113143, 1113680]","[18, 55, 6, 40, 55, 28, 16, 238, 48, 53, 28, 92, 98, 42, 25, 55, 28, 59, 38, 254, 249, 4]","[1101748, 1102230, 1102796, 1103390, 1104031, 1104636, 1105242, 1105798, 1106425, 1106936, 1107506, 1108072, 1108648, 1109186, 1109794, 1110336, 1110903, 1111412, 1111947, 1112506, 1112881, 1113393]","[1100925, 1101526, 1102125, 1102725, 1103325, 1103925, 1104525, 1105125, 1105667, 1106233, 1106819, 1107397, 1107950, 1108512, 1109100, 1109647, 1110202, 1110710, 1111212, 1111787, 1112360, 1112896, 1113409, 1113952]",78,EM,L,R,ITMSR,1.1,
4,600,trial,0,56,56,56,trial,"['S', 'S', 'S', 'S', 'S', 'S', 'S', 'S', 'C', 'C', 'C', 'C', 'C', 'C', 'C', 'C', 'C', 'C', 'C', 'C', 'C', 'C', 'C', 'C', 'C', 'C', 'C', 'C', 'C', 'C', 'C', 'C', 'C', 'C', 'C', 'C', 'C']","[1119953, 1120505, 1121709, 1122260, 1122885, 1122985, 1123525, 1123629, 1124082, 1124655, 1125191, 1125294, 1125751, 1125851, 1126244, 1126344, 1126821, 1127356, 1127456, 1127930, 1128032, 1128428, 1128530, 1128999, 1129099, 1129536, 1129638, 1130060, 1130160, 1130602, 1130702, 1131100, 1131200, 1131638, 1131738, 1132203, 1132303]","[1120252, 1120763, 1121882, 1122551, 1122905, 1123166, 1123549, 1123757, 1124377, 1124929, 1125214, 1125479, 1125771, 1125981, 1126264, 1126518, 1127054, 1127376, 1127548, 1127951, 1128138, 1128449, 1128656, 1129019, 1129164, 1129558, 1129746, 1130080, 1130334, 1130622, 1130825, 1131120, 1131315, 1131658, 1131868, 1132223, 1132452]","[35, 220, 53, 232, 195, 92, 87, 175, 122, 56, 21, 180, 136, 92, 76, 200, 115, 72, 136, 57, 218, 79, 99, 78, 115, 220, 196, 24, 151, 248, 111, 210, 95, 78, 250, 20, 72]","[1120045, 1120512, 1121814, 1122266, 1122889, 1123004, 1123529, 1123714, 1124085, 1124659, 1125195, 1125413, 1125754, 1125877, 1126248, 1126395, 1126824, 1127360, 1127495, 1127933, 1128088, 1128432, 1128530, 1129004, 1129120, 1129540, 1129639, 1130064, 1130301, 1130606, 1130781, 1131104, 1131253, 1131641, 1131829, 1132207, 1132313]","[1119338, 1119938, 1120538, 1121138, 1121738, 1122338, 1122938, 1123538, 1124102, 1124675, 1125211, 1125771, 1126264, 1126841, 1127376, 1127950, 1128449, 1129019, 1129556, 1130080, 1130622, 1131120, 1131658, 1132223]",78,EM,L,R,ITMSR,1.1,
4,600,trial,0,57,57,57,trial,"['S', 'S', 'S', 'S', 'S', 'S', 'S', 'S', 'C', 'C', 'C', 'C', 'C', 'C', 'C', 'C', 'C', 'C', 'C', 'C', 'C', 'C', 'C', 'C']","[1138165, 1138556, 1139133, 1139707, 1140290, 1140995, 1141536, 1142105, 1142693, 1143259, 1143858, 1144424, 1145016, 1145553, 1146130, 1146714, 1147254, 1147807, 1148340, 1148854, 1149403, 1149925, 1150455, 1150956]","[1138304, 1138828, 1139381, 1139941, 1140583, 1141238, 1141820, 1142375, 1142984, 1143606, 1144139, 1144724, 1145235, 1145842, 1146406, 1146982, 1147513, 1148068, 1148595, 1149164, 1149657, 1150175, 1150696, 1151187]","[6, 56, 79, 66, 1, 159, 178, 226, 3, 51, 55, 28, 29, 35, 36, 29, 241, 39, 33, 21, 10, 31, 31, 31]","[1138227, 1138713, 1139256, 1139837, 1140490, 1141177, 1141539, 1142246, 1142877, 1143522, 1144038, 1144612, 1145020, 1145558, 1146134, 1146717, 1147257, 1147810, 1148344, 1148857, 1149405, 1149928, 1150457, 1150959]","[1137971, 1138571, 1139171, 1139771, 1140371, 1140971, 1141571, 1142171, 1142713, 1143279, 1143878, 1144444, 1145036, 1145573, 1146150, 1146734, 1147274, 1147827, 1148360, 1148874, 1149423, 1149945, 1150475, 1150977]",78,EM,L,R,ITMSR,1.1,
5,600,trial,0,58,58,58,trial,"['B', 'S', 'S', 'S', 'S', 'S', 'S', 'S', 'S', 'C', 'C', 'C', 'C', 'C', 'C', 'C', 'C', 'C', 'C', 'C', 'C', 'C', 'C', 'C', 'C']","[1156609, 1156929, 1157184, 1157764, 1158349, 1158978, 1159554, 1160146, 1160799, 1161387, 1161938, 1162505, 1163056, 1163638, 1164197, 1164771, 1165313, 1165853, 1166397, 1166937, 1167419, 1167975, 1168529, 1169072, 1169616]","[1156752, 1157063, 1157350, 1158054, 1158665, 1159244, 1159820, 1160432, 1161063, 1161646, 1162213, 1162750, 1163298, 1163856, 1164454, 1165007, 1165526, 1166111, 1166558, 1167132, 1167707, 1168273, 1168789, 1169264, 1169841]","[254, 246, 33, 142, 14, 48, 30, 51, 32, 76, 91, 40, 79, 46, 87, 42, 96, 61, 83, 27, 62, 61, 44, 50, 243]","[1156707, 1156932, 1157271, 1157770, 1158354, 1159141, 1159558, 1160151, 1160803, 1161519, 1162101, 1162659, 1163198, 1163758, 1164354, 1164774, 1165316, 1165857, 1166400, 1166941, 1167423, 1168151, 1168533, 1169166, 1169620]","[1156622, 1157222, 1157822, 1158422, 1159022, 1159622, 1160222, 1160822, 1161407, 1161958, 1162525, 1163076, 1163658, 1164217, 1164791, 1165333, 1165873, 1166417, 1166957, 1167439, 1167995, 1168549, 1169092, 1169636]",78,EM,L,R,ITMSR,1.1,
4,400,trial,0,59,59,59,trial,"['S', 'S', 'S', 'S', 'S', 'S', 'S', 'C', 'C', 'C', 'C', 'C', 'C', 'C', 'C', 'C', 'C', 'C', 'C', 'C', 'C', 'C', 'C']","[1175580, 1175829, 1176228, 1176591, 1176988, 1177393, 1177804, 1178207, 1178579, 1178964, 1179355, 1179714, 1180093, 1180464, 1180849, 1181247, 1181639, 1182015, 1182403, 1182776, 1183150, 1183543, 1183926]","[1175672, 1175934, 1176271, 1176616, 1177019, 1177418, 1177828, 1178227, 1178599, 1178984, 1179388, 1179751, 1180121, 1180496, 1180869, 1181267, 1181685, 1182035, 1182424, 1182796, 1183194, 1183584, 1183955]","[10, 115, 197, 127, 210, 248, 226, 76, 180, 183, 65, 164, 218, 90, 136, 113, 50, 157, 98, 54, 93, 53, 218]","[1175646, 1175888, 1176236, 1176598, 1176994, 1177398, 1177809, 1178209, 1178584, 1178970, 1179361, 1179718, 1180098, 1180468, 1180853, 1181251, 1181644, 1182019, 1182411, 1182782, 1183154, 1183549, 1183932]","[1175042, 1175440, 1175840, 1176240, 1176640, 1177040, 1177440, 1177840, 1178227, 1178599, 1178984, 1179375, 1179735, 1180113, 1180484, 1180869, 1181267, 1181659, 1182035, 1182424, 1182796, 1183170, 1183563, 1183946]",78,EM,L,R,ITMSR,1.1,
5,600,trial,0,60,60,60,trial,"['S', 'S', 'S', 'S', 'S', 'S', 'S', 'C', 'C', 'C', 'C', 'C', 'C', 'C', 'C', 'C', 'C', 'C', 'C', 'C', 'C', 'C', 'C']","[1189792, 1190416, 1190994, 1191591, 1192165, 1192768, 1193319, 1193967, 1194539, 1195099, 1195629, 1196210, 1196777, 1197324, 1197880, 1198407, 1198982, 1199525, 1200074, 1200608, 1201162, 1201684, 1202252]","[1190121, 1190693, 1191284, 1191877, 1192449, 1193036, 1193581, 1194211, 1194818, 1195358, 1195898, 1196468, 1197014, 1197619, 1198141, 1198682, 1199248, 1199773, 1200302, 1200915, 1201424, 1201918, 1202509]","[185, 179, 220, 196, 248, 253, 19, 28, 39, 3, 240, 6, 230, 16, 12, 221, 30, 8, 16, 237, 0, 218, 206]","[1190014, 1190419, 1190998, 1191593, 1192327, 1192925, 1193472, 1194104, 1194731, 1195198, 1195801, 1196344, 1196936, 1197512, 1198075, 1198539, 1199131, 1199654, 1200196, 1200611, 1201288, 1201814, 1202380]","[1189238, 1189838, 1190438, 1191038, 1191639, 1192238, 1192838, 1193438, 1193987, 1194559, 1195119, 1195650, 1196230, 1196797, 1197344, 1197900, 1198427, 1199002, 1199545, 1200094, 1200628, 1201182, 1201704, 1202272]",78,EM,L,R,ITMSR,1.1,
0,600,trial,0,61,61,61,trial,"['S', 'S', 'S', 'S', 'S', 'S', 'S', 'C', 'C', 'C', 'C', 'C', 'C', 'C', 'C', 'C', 'C', 'C', 'C', 'C', 'C', 'C', 'C']","[1208732, 1209206, 1209764, 1210359, 1210949, 1211563, 1212158, 1212762, 1213322, 1213900, 1214464, 1215059, 1215630, 1216223, 1216776, 1217379, 1217917, 1218482, 1218988, 1219549, 1220087, 1220639, 1221173]","[1208905, 1209436, 1210012, 1210651, 1211257, 1211888, 1212472, 1213043, 1213661, 1214190, 1214742, 1215356, 1215950, 1216466, 1217001, 1217639, 1218226, 1218763, 1219272, 1219802, 1220350, 1220865, 1221384]","[62, 233, 24, 9, 25, 45, 26, 15, 44, 13, 20, 15, 20, 194, 253, 230, 52, 254, 232, 229, 235, 209, 209]","[1208810, 1209338, 1209869, 1210475, 1211122, 1211730, 1212350, 1212880, 1213326, 1214031, 1214581, 1215260, 1215635, 1216332, 1216899, 1217384, 1218058, 1218651, 1219145, 1219554, 1220091, 1220642, 1221176]","[1208047, 1208647, 1209247, 1209847, 1210447, 1211047, 1211648, 1212248, 1212782, 1213342, 1213920, 1214484, 1215079, 1215650, 1216243, 1216796, 1217399, 1217937, 1218502, 1219008, 1219569, 1220107, 1220659, 1221193]",78,EM,L,R,ITMSR,1.1,
1,600,trial,0,62,62,62,trial,"['S', 'S', 'S', 'S', 'S', 'S', 'S', 'C', 'C', 'C', 'C', 'C', 'C', 'C', 'C', 'C', 'C', 'C', 'C', 'C', 'C', 'C', 'C']","[1227491, 1227890, 1228418, 1229041, 1229618, 1230153, 1230813, 1231372, 1231966, 1232518, 1233082, 1233693, 1234272, 1234825, 1235384, 1235917, 1236485, 1237019, 1237590, 1238167, 1238709, 1239317, 1239815]","[1227659, 1228170, 1228735, 1229328, 1229901, 1230531, 1231094, 1231716, 1232259, 1232793, 1233374, 1233944, 1234572, 1235079, 1235659, 1236217, 1236806, 1237275, 1237852, 1238418, 1238990, 1239489, 1240079]","[17, 207, 227, 225, 225, 232, 200, 218, 202, 230, 40, 26, 12, 34, 1, 255, 231, 236, 31, 3, 230, 193, 221]","[1227498, 1227894, 1228422, 1229215, 1229623, 1230350, 1230817, 1231602, 1231970, 1232522, 1233248, 1233825, 1234276, 1234981, 1235559, 1236089, 1236661, 1237122, 1237741, 1238320, 1238843, 1239321, 1239819]","[1226664, 1227265, 1227864, 1228464, 1229064, 1229664, 1230264, 1230864, 1231392, 1231986, 1232538, 1233102, 1233713, 1234292, 1234845, 1235404, 1235937, 1236505, 1237039, 1237610, 1238188, 1238729, 1239337, 1239835]",78,EM,L,R,ITMSR,1.1,
3,400,trial,0,63,63,63,trial,"['S', 'S', 'S', 'S', 'S', 'S', 'S', 'C', 'C', 'C', 'C', 'C', 'C', 'C', 'C', 'C', 'C', 'C', 'C', 'C', 'C', 'C', 'C']","[1245811, 1246124, 1246395, 1246822, 1247206, 1247594, 1247944, 1248380, 1248737, 1249126, 1249509, 1249914, 1250260, 1250636, 1251005, 1251356, 1251745, 1252137, 1252488, 1252861, 1253234, 1253591, 1253968]","[1245902, 1246209, 1246513, 1246897, 1247307, 1247638, 1248004, 1248424, 1248783, 1249184, 1249561, 1249952, 1250324, 1250714, 1251076, 1251437, 1251810, 1252200, 1252534, 1252921, 1253277, 1253635, 1254016]","[86, 156, 68, 172, 0, 185, 3, 182, 226, 210, 245, 173, 136, 179, 179, 196, 177, 163, 185, 186, 120, 171, 165]","[1245812, 1246128, 1246452, 1246827, 1247210, 1247598, 1247948, 1248386, 1248741, 1249131, 1249513, 1249918, 1250265, 1250640, 1251009, 1251360, 1251749, 1252142, 1252492, 1252867, 1253238, 1253595, 1253974]","[1245236, 1245636, 1246036, 1246436, 1246836, 1247236, 1247636, 1248036, 1248400, 1248757, 1249146, 1249529, 1249934, 1250280, 1250656, 1251025, 1251376, 1251765, 1252157, 1252508, 1252881, 1253254, 1253611, 1253988]",78,EM,L,R,ITMSR,1.1,
4,400,trial,0,64,64,64,trial,"['S', 'S', 'S', 'S', 'S', 'S', 'S', 'C', 'C', 'C', 'C', 'C', 'C', 'C', 'C', 'C', 'C', 'C', 'C', 'C', 'C', 'C', 'C']","[1259977, 1260381, 1260740, 1261131, 1261564, 1261963, 1262328, 1262769, 1263128, 1263509, 1263888, 1264273, 1264683, 1265065, 1265436, 1265794, 1266182, 1266573, 1266960, 1267315, 1267707, 1268092, 1268446]","[1260080, 1260401, 1260830, 1261222, 1261591, 1261987, 1262352, 1262812, 1263149, 1263529, 1263910, 1264293, 1264703, 1265125, 1265458, 1265815, 1266204, 1266595, 1266983, 1267417, 1267730, 1268116, 1268469]","[203, 6, 217, 206, 139, 47, 79, 10, 99, 120, 132, 145, 92, 116, 46, 22, 51, 223, 29, 26, 60, 114, 69]","[1259982, 1260385, 1260745, 1261134, 1261571, 1261967, 1262332, 1262774, 1263134, 1263516, 1263896, 1264278, 1264687, 1265070, 1265441, 1265799, 1266186, 1266577, 1266964, 1267320, 1267712, 1268097, 1268451]","[1259614, 1260014, 1260414, 1260814, 1261214, 1261614, 1262014, 1262414, 1262789, 1263149, 1263529, 1263908, 1264293, 1264703, 1265085, 1265456, 1265814, 1266202, 1266593, 1266980, 1267335, 1267727, 1268112, 1268466]",78,EM,L,R,ITMSR,1.1,
2,400,trial,0,65,65,65,trial,"['S', 'S', 'S', 'S', 'S', 'S', 'S', 'C', 'C', 'C', 'C', 'C', 'C', 'C', 'C', 'C', 'C', 'C', 'C', 'C', 'C', 'C', 'C']","[1274011, 1274772, 1275147, 1275538, 1275920, 1276343, 1276754, 1277196, 1277558, 1277893, 1278256, 1278627, 1279001, 1279370, 1279738, 1280104, 1280458, 1280831, 1281191, 1281570, 1281909, 1282296, 1282677]","[1274031, 1274835, 1275232, 1275607, 1276008, 1276383, 1276813, 1277216, 1277630, 1277938, 1278336, 1278706, 1279081, 1279419, 1279828, 1280179, 1280550, 1280852, 1281273, 1281626, 1281982, 1282317, 1282740]","[216, 43, 74, 114, 219, 69, 76, 35, 183, 245, 223, 238, 183, 223, 177, 24, 204, 98, 207, 135, 204, 119, 255]","[1274013, 1274776, 1275152, 1275543, 1275924, 1276346, 1276760, 1277199, 1277562, 1277899, 1278260, 1278635, 1279005, 1279379, 1279744, 1280110, 1280462, 1280836, 1281196, 1281574, 1281913, 1282301, 1282681]","[1273992, 1274392, 1274792, 1275192, 1275592, 1275992, 1276392, 1276792, 1277216, 1277578, 1277913, 1278276, 1278647, 1279021, 1279390, 1279758, 1280124, 1280478, 1280851, 1281211, 1281590, 1281929, 1282316, 1282697]",78,EM,L,R,ITMSR,1.1,
1,600,trial,0,66,66,66,trial,"['S', 'S', 'S', 'S', 'S', 'S', 'C', 'C', 'C', 'C', 'C', 'C', 'C', 'C', 'C', 'C', 'C', 'C', 'C', 'C', 'C', 'C', 'C']","[1288609, 1289376, 1289901, 1291125, 1291718, 1292291, 1292868, 1293445, 1294020, 1294598, 1295175, 1295756, 1296325, 1296879, 1297428, 1297528, 1297998, 1298515, 1299103, 1299617, 1300155, 1300727, 1301294]","[1288821, 1289443, 1289926, 1291169, 1291814, 1292400, 1292984, 1293560, 1294040, 1294618, 1295199, 1295778, 1296400, 1296970, 1297448, 1297548, 1298104, 1298593, 1299177, 1299637, 1300235, 1300748, 1301369]","[240, 50, 84, 206, 225, 200, 223, 180, 169, 184, 151, 221, 249, 49, 237, 130, 192, 255, 253, 247, 24, 215, 160]","[1288714, 1289382, 1289906, 1291130, 1291719, 1292295, 1292871, 1293449, 1294022, 1294600, 1295179, 1295760, 1296328, 1296882, 1297431, 1297528, 1298002, 1298519, 1299106, 1299621, 1300157, 1300731, 1301297]","[1288118, 1288718, 1289318, 1289918, 1290518, 1291118, 1291718, 1292318, 1292888, 1293465, 1294040, 1294618, 1295195, 1295776, 1296345, 1296899, 1297448, 1298018, 1298535, 1299123, 1299637, 1300175, 1300747, 1301314]",78,EM,L,R,ITMSR,1.1,
2,400,trial,0,67,67,67,trial,"['S', 'S', 'S', 'S', 'S', 'S', 'S', 'C', 'C', 'C', 'C', 'C', 'C', 'C', 'C', 'C', 'C', 'C', 'C', 'C', 'C', 'C', 'C']","[1307082, 1307545, 1307938, 1308270, 1308669, 1309040, 1309469, 1309864, 1310237, 1310617, 1311014, 1311385, 1311778, 1312162, 1312529, 1312912, 1313285, 1313671, 1314038, 1314414, 1314806, 1315160, 1315520]","[1307224, 1307565, 1307959, 1308290, 1308689, 1309061, 1309489, 1309884, 1310285, 1310676, 1311035, 1311465, 1311798, 1312182, 1312549, 1312932, 1313305, 1313721, 1314058, 1314467, 1314826, 1315180, 1315540]","[107, 254, 205, 112, 220, 192, 25, 217, 129, 147, 181, 237, 141, 48, 121, 140, 58, 0, 155, 186, 126, 203, 116]","[1307088, 1307549, 1307942, 1308274, 1308674, 1309043, 1309471, 1309868, 1310240, 1310620, 1311019, 1311388, 1311780, 1312167, 1312532, 1312914, 1313289, 1313675, 1314041, 1314419, 1314808, 1315163, 1315523]","[1306722, 1307122, 1307522, 1307922, 1308322, 1308722, 1309122, 1309522, 1309884, 1310257, 1310637, 1311034, 1311405, 1311798, 1312182, 1312549, 1312932, 1313305, 1313691, 1314058, 1314434, 1314826, 1315180, 1315540]",78,EM,L,R,ITMSR,1.1,
1,400,trial,0,68,68,68,trial,"['S', 'S', 'S', 'S', 'S', 'S', 'S', 'S', 'C', 'C', 'C', 'C', 'C', 'C', 'C', 'C', 'C', 'C', 'C', 'C', 'C', 'C', 'C', 'C']","[1321493, 1321737, 1322014, 1322317, 1322737, 1323152, 1323559, 1323943, 1324662, 1325059, 1325459, 1325847, 1326235, 1326653, 1327043, 1327457, 1327849, 1328226, 1328629, 1329022, 1329396, 1329763, 1330140, 1330530]","[1321513, 1321792, 1322090, 1322384, 1322788, 1323198, 1323594, 1323963, 1324695, 1325094, 1325498, 1325896, 1326295, 1326673, 1327107, 1327508, 1327908, 1328287, 1328699, 1329073, 1329416, 1329813, 1330194, 1330592]","[17, 39, 71, 0, 1, 160, 102, 186, 94, 147, 204, 185, 182, 48, 191, 168, 105, 149, 164, 238, 116, 186, 113, 58]","[1321499, 1321739, 1322018, 1322322, 1322740, 1323158, 1323564, 1323949, 1324666, 1325063, 1325462, 1325851, 1326240, 1326658, 1327047, 1327461, 1327853, 1328231, 1328634, 1329026, 1329400, 1329766, 1330144, 1330536]","[1321182, 1321582, 1321982, 1322382, 1322782, 1323182, 1323582, 1323982, 1324682, 1325079, 1325479, 1325868, 1326255, 1326673, 1327064, 1327477, 1327869, 1328246, 1328649, 1329042, 1329416, 1329783, 1330160, 1330550]",78,EM,L,R,ITMSR,1.1,
0,400,trial,0,69,69,69,trial,"['S', 'S', 'S', 'S', 'S', 'S', 'C', 'C', 'C', 'C', 'C', 'C', 'C', 'C', 'C', 'C', 'C', 'C', 'C', 'C', 'C', 'C']","[1336729, 1337106, 1337524, 1337914, 1338285, 1338716, 1339107, 1339508, 1339908, 1340279, 1340941, 1341347, 1341763, 1342139, 1342541, 1342919, 1343322, 1343696, 1344087, 1344421, 1344799, 1345182]","[1336859, 1337207, 1337593, 1337934, 1338350, 1338777, 1339127, 1339528, 1339928, 1340335, 1341002, 1341401, 1341813, 1342216, 1342561, 1342939, 1343342, 1343719, 1344107, 1344499, 1344866, 1345238]","[209, 116, 110, 219, 161, 140, 200, 65, 85, 219, 235, 195, 137, 202, 47, 130, 132, 106, 204, 181, 184, 141]","[1336732, 1337112, 1337529, 1337919, 1338289, 1338721, 1339110, 1339513, 1339913, 1340283, 1340967, 1341351, 1341768, 1342143, 1342544, 1342922, 1343326, 1343702, 1344091, 1344425, 1344803, 1345186]","[1335956, 1336356, 1336756, 1337156, 1337556, 1337956, 1338356, 1338756, 1339127, 1339528, 1339928, 1340299, 1340961, 1341367, 1341784, 1342159, 1342561, 1342939, 1343342, 1343716, 1344107, 1344441, 1344819, 1345202]",78,EM,L,R,ITMSR,1.1,
0,400,trial,0,70,70,70,trial,"['S', 'S', 'S', 'S', 'S', 'S', 'C', 'C', 'C', 'C', 'C', 'C', 'C', 'C', 'C', 'C', 'C', 'C', 'C', 'C', 'C', 'C']","[1351344, 1351744, 1352117, 1352543, 1352899, 1353306, 1353733, 1354094, 1354482, 1354873, 1355303, 1355698, 1356068, 1356460, 1356834, 1357227, 1357626, 1357998, 1358391, 1358760, 1359159, 1359513]","[1351438, 1351785, 1352169, 1352610, 1352957, 1353360, 1353780, 1354163, 1354537, 1354893, 1355342, 1355742, 1356124, 1356481, 1356906, 1357297, 1357686, 1358023, 1358464, 1358835, 1359208, 1359586]","[177, 23, 101, 126, 246, 105, 14, 150, 208, 50, 86, 32, 101, 38, 229, 203, 74, 121, 150, 147, 103, 170]","[1351349, 1351748, 1352121, 1352546, 1352904, 1353311, 1353738, 1354099, 1354485, 1354880, 1355309, 1355702, 1356073, 1356465, 1356838, 1357230, 1357631, 1358001, 1358395, 1358765, 1359163, 1359517]","[1350560, 1350960, 1351360, 1351760, 1352160, 1352560, 1352961, 1353360, 1353753, 1354114, 1354502, 1354893, 1355323, 1355718, 1356088, 1356480, 1356854, 1357247, 1357646, 1358018, 1358411, 1358780, 1359179, 1359533]",78,EM,L,R,ITMSR,1.1,
1,400,trial,0,71,71,71,trial,"['S', 'S', 'S', 'S', 'S', 'C', 'C', 'C', 'C', 'C', 'C', 'C', 'C', 'C', 'C', 'C', 'C', 'C', 'C', 'C', 'C']","[1365636, 1366012, 1366455, 1367233, 1367645, 1368041, 1368451, 1368824, 1369214, 1369602, 1370011, 1370366, 1370753, 1371153, 1371549, 1371916, 1372298, 1372662, 1373063, 1373458, 1373880]","[1365701, 1366062, 1366475, 1367254, 1367665, 1368061, 1368486, 1368886, 1369259, 1369652, 1370054, 1370422, 1370775, 1371174, 1371585, 1371970, 1372343, 1372726, 1373138, 1373537, 1373934]","[90, 108, 110, 94, 175, 114, 6, 55, 252, 100, 71, 79, 104, 168, 24, 202, 147, 145, 132, 188, 35]","[1365641, 1366017, 1366460, 1367238, 1367649, 1368044, 1368455, 1368829, 1369219, 1369606, 1370015, 1370371, 1370758, 1371157, 1371554, 1371920, 1372302, 1372666, 1373066, 1373461, 1373884]","[1364878, 1365278, 1365678, 1366078, 1366478, 1366878, 1367278, 1367678, 1368061, 1368471, 1368844, 1369234, 1369622, 1370031, 1370386, 1370773, 1371173, 1371569, 1371936, 1372318, 1372682, 1373083, 1373478, 1373900]",78,EM,L,R,ITMSR,1.1,
2,600,trial,0,72,72,72,trial,"['S', 'S', 'S', 'S', 'S', 'S', 'S', 'C', 'C', 'C', 'C', 'C', 'C', 'C', 'C', 'C', 'C', 'C', 'C', 'C', 'C', 'C', 'C']","[1380077, 1380510, 1381092, 1381648, 1382308, 1382873, 1383483, 1384072, 1384649, 1385196, 1385761, 1386315, 1386882, 1387385, 1387963, 1388487, 1389033, 1389571, 1390125, 1390650, 1391197, 1391705, 1392222]","[1380191, 1380661, 1381156, 1381724, 1382376, 1382952, 1383578, 1384146, 1384745, 1385285, 1385867, 1386417, 1386991, 1387504, 1388025, 1388660, 1389133, 1389654, 1390176, 1390712, 1391254, 1391777, 1392299]","[62, 177, 230, 140, 242, 50, 57, 53, 88, 52, 82, 22, 58, 92, 189, 142, 71, 249, 57, 230, 50, 132, 55]","[1380125, 1380597, 1381099, 1381653, 1382315, 1382879, 1383488, 1384078, 1384655, 1385201, 1385766, 1386321, 1386945, 1387458, 1387969, 1388597, 1389038, 1389576, 1390131, 1390657, 1391203, 1391711, 1392228]","[1379337, 1379937, 1380537, 1381137, 1381737, 1382337, 1382937, 1383537, 1384092, 1384669, 1385217, 1385781, 1386335, 1386902, 1387405, 1387983, 1388507, 1389053, 1389591, 1390145, 1390670, 1391217, 1391725, 1392242]",78,EM,L,R,ITMSR,1.1,
5,400,trial,0,73,73,73,trial,"['S', 'S', 'S', 'S', 'S', 'S', 'S', 'C', 'C', 'C', 'C', 'C', 'C', 'C', 'C', 'C', 'C', 'C', 'C', 'C', 'C', 'C', 'C']","[1398160, 1398501, 1398899, 1399266, 1399717, 1400096, 1400476, 1400866, 1401245, 1401635, 1402029, 1402418, 1402793, 1403168, 1403556, 1403925, 1404281, 1404646, 1405025, 1405414, 1405785, 1406173, 1406543]","[1398228, 1398536, 1398944, 1399323, 1399773, 1400161, 1400553, 1400935, 1401304, 1401700, 1402075, 1402481, 1402815, 1403236, 1403627, 1403988, 1404360, 1404666, 1405120, 1405502, 1405877, 1406261, 1406639]","[18, 202, 163, 81, 4, 135, 143, 67, 78, 71, 57, 51, 181, 214, 254, 234, 239, 212, 25, 1, 1, 19, 239]","[1398166, 1398507, 1398905, 1399271, 1399724, 1400103, 1400481, 1400871, 1401250, 1401640, 1402034, 1402423, 1402799, 1403174, 1403561, 1403930, 1404285, 1404651, 1405030, 1405420, 1405791, 1406178, 1406551]","[1397723, 1398123, 1398523, 1398923, 1399323, 1399724, 1400123, 1400523, 1400886, 1401265, 1401655, 1402049, 1402438, 1402813, 1403188, 1403576, 1403945, 1404301, 1404666, 1405045, 1405434, 1405805, 1406193, 1406563]",78,EM,L,R,ITMSR,1.1,
5,400,trial,0,74,74,74,trial,"['S', 'S', 'S', 'S', 'S', 'S', 'C', 'C', 'C', 'C', 'C', 'C', 'C', 'C', 'C', 'C', 'C', 'C', 'C', 'C', 'C', 'C']","[1412670, 1413130, 1413509, 1413872, 1414307, 1414690, 1415099, 1415493, 1415872, 1416252, 1416640, 1417011, 1417373, 1417795, 1418169, 1418548, 1418939, 1419286, 1419645, 1420055, 1420464, 1420818]","[1412690, 1413150, 1413529, 1413929, 1414328, 1414750, 1415155, 1415540, 1415928, 1416299, 1416708, 1417082, 1417440, 1417819, 1418192, 1418569, 1418959, 1419307, 1419666, 1420076, 1420485, 1420879]","[41, 239, 174, 194, 121, 189, 121, 156, 155, 116, 113, 188, 182, 177, 153, 131, 50, 144, 103, 44, 142, 191]","[1412676, 1413134, 1413513, 1413876, 1414312, 1414694, 1415104, 1415498, 1415877, 1416257, 1416644, 1417015, 1417377, 1417799, 1418173, 1418552, 1418944, 1419290, 1419650, 1420059, 1420467, 1420822]","[1411957, 1412357, 1412757, 1413157, 1413557, 1413957, 1414358, 1414757, 1415119, 1415513, 1415892, 1416272, 1416660, 1417031, 1417393, 1417816, 1418189, 1418568, 1418959, 1419307, 1419665, 1420076, 1420484, 1420838]",78,EM,L,R,ITMSR,1.1,
2,600,trial,0,75,75,75,trial,"['S', 'S', 'S', 'S', 'S', 'S', 'S', 'C', 'C', 'C', 'C', 'C', 'C', 'C', 'C', 'C', 'C', 'C', 'C', 'C', 'C', 'C', 'C']","[1426907, 1427546, 1428134, 1428753, 1429326, 1429957, 1430529, 1431127, 1431626, 1432119, 1432655, 1433184, 1433719, 1434207, 1434685, 1435194, 1435730, 1436247, 1436740, 1437216, 1437762, 1438265, 1438763]","[1426968, 1427656, 1428195, 1428842, 1429429, 1430045, 1430629, 1431235, 1431763, 1432259, 1432808, 1433321, 1433826, 1434315, 1434784, 1435299, 1435865, 1436360, 1436877, 1437365, 1437884, 1438400, 1438889]","[252, 13, 192, 184, 144, 237, 198, 243, 21, 184, 242, 225, 193, 255, 213, 184, 216, 247, 160, 232, 179, 164, 181]","[1426911, 1427550, 1428140, 1428758, 1429330, 1429961, 1430535, 1431131, 1431630, 1432124, 1432659, 1433188, 1433723, 1434212, 1434690, 1435199, 1435736, 1436252, 1436744, 1437219, 1437766, 1438270, 1438767]","[1426473, 1427074, 1427674, 1428274, 1428874, 1429474, 1430074, 1430674, 1431147, 1431646, 1432139, 1432675, 1433204, 1433739, 1434227, 1434705, 1435214, 1435750, 1436267, 1436760, 1437236, 1437783, 1438285, 1438783]",78,EM,L,R,ITMSR,1.1,
0,600,trial,0,76,76,76,trial,"['S', 'S', 'S', 'S', 'S', 'S', 'S', 'S', 'C', 'C', 'C', 'C', 'C', 'C', 'C', 'C', 'C', 'C', 'C', 'C', 'C', 'C', 'C', 'C']","[1444923, 1445219, 1445620, 1446185, 1446766, 1447362, 1447937, 1448547, 1449158, 1449716, 1450294, 1450853, 1451441, 1451999, 1452566, 1453137, 1453686, 1454275, 1454809, 1455360, 1455896, 1456427, 1456950, 1457494]","[1445032, 1445323, 1445801, 1446355, 1446984, 1447613, 1448216, 1448795, 1449459, 1450042, 1450579, 1451175, 1451693, 1452269, 1452839, 1453412, 1453944, 1454550, 1455048, 1455619, 1456121, 1456670, 1457201, 1457724]","[145, 125, 36, 170, 140, 155, 153, 118, 160, 229, 220, 166, 104, 168, 148, 178, 201, 205, 219, 158, 133, 189, 188, 174]","[1444963, 1445269, 1445624, 1446277, 1446882, 1447520, 1448084, 1448691, 1449163, 1449901, 1450445, 1450857, 1451445, 1452003, 1452571, 1453142, 1453689, 1454449, 1454812, 1455364, 1455899, 1456430, 1456954, 1457497]","[1444467, 1445067, 1445667, 1446267, 1446867, 1447468, 1448067, 1448667, 1449178, 1449736, 1450314, 1450873, 1451461, 1452019, 1452587, 1453157, 1453706, 1454296, 1454829, 1455380, 1455917, 1456447, 1456970, 1457514]",78,EM,L,R,ITMSR,1.1,
3,400,trial,0,77,77,77,trial,"['S', 'S', 'S', 'S', 'S', 'S', 'S', 'C', 'C', 'C', 'C', 'C', 'C', 'C', 'C', 'C', 'C', 'C', 'C', 'C', 'C', 'C', 'C']","[1463543, 1463877, 1464271, 1464651, 1465060, 1465444, 1465837, 1466262, 1466637, 1467106, 1467458, 1467837, 1468227, 1468609, 1469004, 1469367, 1469759, 1470111, 1470468, 1470860, 1471248, 1471606, 1471983]","[1463620, 1463946, 1464291, 1464713, 1465108, 1465496, 1465885, 1466335, 1466705, 1467132, 1467511, 1467897, 1468295, 1468686, 1469066, 1469419, 1469780, 1470167, 1470533, 1470916, 1471313, 1471643, 1472028]","[243, 50, 111, 155, 89, 120, 33, 211, 94, 151, 232, 32, 203, 201, 181, 177, 205, 177, 172, 179, 196, 152, 195]","[1463547, 1463881, 1464275, 1464655, 1465065, 1465450, 1465841, 1466266, 1466641, 1467118, 1467462, 1467842, 1468230, 1468613, 1469008, 1469371, 1469763, 1470115, 1470472, 1470864, 1471252, 1471610, 1471986]","[1463095, 1463495, 1463896, 1464296, 1464696, 1465096, 1465496, 1465896, 1466283, 1466657, 1467126, 1467479, 1467857, 1468248, 1468630, 1469024, 1469387, 1469779, 1470131, 1470488, 1470880, 1471268, 1471626, 1472003]",78,EM,L,R,ITMSR,1.1,
2,600,trial,0,78,78,78,trial,"['S', 'S', 'S', 'S', 'S', 'S', 'S', 'C', 'C', 'C', 'C', 'C', 'C', 'C', 'C', 'C', 'C', 'C', 'C', 'C', 'C', 'C', 'C', 'C']","[1518102, 1518842, 1519429, 1520021, 1520617, 1521201, 1521806, 1522407, 1522931, 1523451, 1523989, 1524518, 1525036, 1525555, 1526093, 1526607, 1527111, 1527615, 1528130, 1528641, 1529135, 1529634, 1530121, 1530223]","[1518188, 1518971, 1519549, 1520113, 1520756, 1521311, 1521951, 1522520, 1523135, 1523625, 1524161, 1524724, 1525239, 1525774, 1526301, 1526818, 1527326, 1527835, 1528372, 1528850, 1529342, 1529799, 1530143, 1530310]","[126, 210, 137, 11, 156, 41, 152, 199, 254, 1, 25, 37, 78, 71, 9, 41, 238, 203, 234, 234, 225, 143, 9, 142]","[1518150, 1518846, 1519501, 1520030, 1520703, 1521206, 1521898, 1522411, 1523045, 1523553, 1524078, 1524636, 1525139, 1525677, 1526214, 1526718, 1527115, 1527619, 1528133, 1528645, 1529139, 1529638, 1530126, 1530234]","[1517701, 1518301, 1518901, 1519501, 1520101, 1520701, 1521301, 1521901, 1522427, 1522951, 1523471, 1524009, 1524538, 1525056, 1525575, 1526113, 1526627, 1527131, 1527635, 1528151, 1528662, 1529155, 1529654, 1530141]",78,EM,L,R,ITMSR,1.1,
3,600,trial,0,79,79,79,trial,"['S', 'S', 'S', 'S', 'S', 'S', 'S', 'S', 'C', 'C', 'C', 'C', 'C', 'C', 'C', 'C', 'C', 'C', 'C', 'C', 'C', 'C', 'C', 'C']","[1535909, 1536285, 1536894, 1537499, 1538118, 1538691, 1539251, 1539883, 1540498, 1541108, 1541703, 1542275, 1542825, 1543386, 1543937, 1544542, 1545100, 1545662, 1546204, 1546766, 1547334, 1547893, 1548420, 1548990]","[1536050, 1536575, 1537209, 1537782, 1538359, 1539003, 1539577, 1540244, 1540831, 1541456, 1542008, 1542552, 1543133, 1543683, 1544258, 1544810, 1545418, 1545920, 1546492, 1547100, 1547653, 1548189, 1548688, 1549252]","[45, 74, 82, 82, 88, 91, 122, 101, 125, 100, 95, 108, 61, 54, 9, 46, 14, 39, 241, 53, 42, 40, 207, 243]","[1535982, 1536424, 1537048, 1537650, 1538232, 1538831, 1539427, 1540044, 1540664, 1541282, 1541875, 1542410, 1543024, 1543543, 1544132, 1544705, 1545229, 1545765, 1546207, 1546911, 1547530, 1548042, 1548424, 1548993]","[1535754, 1536354, 1536954, 1537554, 1538154, 1538754, 1539354, 1539954, 1540518, 1541128, 1541723, 1542295, 1542845, 1543406, 1543957, 1544562, 1545120, 1545682, 1546224, 1546786, 1547354, 1547913, 1548440, 1549010]",78,EM,L,R,ITMSR,1.1,
5,600,trial,0,80,80,80,trial,"['S', 'S', 'S', 'S', 'S', 'S', 'C', 'C', 'C', 'C', 'C', 'C', 'C', 'C', 'C', 'C', 'C', 'C', 'C', 'C', 'C', 'C']","[1555650, 1556269, 1556877, 1557428, 1558012, 1558640, 1559233, 1559812, 1560352, 1560922, 1561485, 1562064, 1562619, 1563173, 1563704, 1564259, 1564824, 1565371, 1565923, 1566443, 1567032, 1567605]","[1555965, 1556591, 1557142, 1557746, 1558329, 1558942, 1559486, 1560097, 1560606, 1561200, 1561749, 1562323, 1562862, 1563430, 1563960, 1564493, 1565071, 1565598, 1566130, 1566728, 1567284]","[217, 16, 244, 224, 239, 20, 249, 18, 253, 25, 45, 46, 9, 2, 23, 14, 19, 29, 29, 15, 39]","[1555785, 1556400, 1556881, 1557633, 1558172, 1558802, 1559360, 1559976, 1560497, 1561055, 1561654, 1562205, 1562730, 1563177, 1563708, 1564390, 1564829, 1565499, 1565926, 1566447, 1567035]","[1554500, 1555100, 1555700, 1556300, 1556900, 1557500, 1558100, 1558701, 1559254, 1559832, 1560372, 1560942, 1561505, 1562084, 1562639, 1563193, 1563724, 1564279, 1564845, 1565391, 1565943, 1566464, 1567052, 1567625]",78,EM,L,R,ITMSR,1.1,
1,600,trial,0,81,81,81,trial,"['S', 'S', 'S', 'S', 'S', 'S', 'S', 'C', 'C', 'C', 'C', 'C', 'C', 'C', 'C', 'C', 'C', 'C', 'C', 'C', 'C', 'C', 'C']","[1573621, 1574135, 1574712, 1575321, 1575930, 1576495, 1577060, 1577635, 1578173, 1578763, 1579319, 1579877, 1580417, 1580988, 1581563, 1582096, 1582633, 1583191, 1583715, 1584292, 1584837, 1585432, 1585981]","[1573821, 1574387, 1574967, 1575532, 1576168, 1576751, 1577361, 1577924, 1578546, 1579046, 1579594, 1580163, 1580700, 1581266, 1581808, 1582362, 1582922, 1583437, 1584012, 1584548, 1585124, 1585690, 1586234]","[96, 245, 251, 248, 1, 67, 81, 72, 68, 79, 93, 77, 76, 88, 95, 67, 117, 88, 75, 57, 62, 67, 69]","[1573727, 1574139, 1574825, 1575413, 1576033, 1576637, 1577265, 1577797, 1578405, 1578916, 1579472, 1580050, 1580593, 1581105, 1581685, 1582251, 1582730, 1583303, 1583834, 1584295, 1584840, 1585435, 1585983]","[1572967, 1573566, 1574166, 1574766, 1575366, 1575966, 1576566, 1577166, 1577655, 1578193, 1578783, 1579339, 1579897, 1580437, 1581008, 1581583, 1582116, 1582653, 1583211, 1583735, 1584312, 1584857, 1585453, 1586001]",78,EM,L,R,ITMSR,1.1,
4,600,trial,0,82,82,82,trial,"['S', 'S', 'S', 'S', 'S', 'S', 'S', 'C', 'C', 'C', 'C', 'C', 'C', 'C', 'C', 'C', 'C', 'C', 'C', 'C', 'C', 'C', 'C']","[1592051, 1592608, 1593217, 1593822, 1594429, 1595008, 1595630, 1596220, 1596817, 1597411, 1597993, 1598589, 1599153, 1599718, 1600285, 1600870, 1601468, 1602034, 1602571, 1603126, 1603667, 1604252, 1604805]","[1592221, 1592885, 1593516, 1594107, 1594731, 1595305, 1595924, 1596575, 1597160, 1597729, 1598300, 1598873, 1599450, 1599995, 1600611, 1601153, 1601742, 1602280, 1602857, 1603428, 1603989, 1604558]","[19, 15, 28, 52, 44, 45, 18, 57, 65, 43, 49, 67, 62, 56, 57, 58, 52, 44, 19, 35, 34, 38]","[1592143, 1592612, 1593349, 1593825, 1594432, 1595182, 1595634, 1596224, 1596820, 1597562, 1598119, 1598592, 1599156, 1599721, 1600288, 1600873, 1601471, 1602037, 1602574, 1603129, 1603671, 1604255]","[1591493, 1592093, 1592693, 1593293, 1593893, 1594493, 1595094, 1595693, 1596240, 1596837, 1597431, 1598013, 1598609, 1599173, 1599738, 1600305, 1600890, 1601488, 1602054, 1602591, 1603146, 1603687, 1604272, 1604825]",78,EM,L,R,ITMSR,1.1,
0,400,trial,0,83,83,83,trial,"['S', 'S', 'S', 'S', 'S', 'S', 'S', 'C', 'C', 'C', 'C', 'C', 'C', 'C', 'C', 'C', 'C', 'C', 'C', 'C', 'C', 'C', 'C']","[1610766, 1611016, 1611388, 1611760, 1612154, 1612547, 1612939, 1613334, 1613740, 1614134, 1614526, 1614916, 1615321, 1615707, 1616110, 1616507, 1616898, 1617286, 1617697, 1618084, 1618481, 1618834, 1619221]","[1610849, 1611139, 1611501, 1611891, 1612270, 1612703, 1613109, 1613499, 1613903, 1614332, 1614736, 1615083, 1615499, 1615892, 1616295, 1616681, 1617049, 1617448, 1617840, 1618219, 1618601, 1618997, 1619376]","[179, 185, 6, 64, 72, 71, 55, 79, 51, 70, 39, 15, 91, 79, 27, 77, 87, 83, 78, 70, 35, 57, 51]","[1610771, 1611020, 1611392, 1611762, 1612157, 1612549, 1612941, 1613336, 1613742, 1614137, 1614529, 1614997, 1615324, 1615709, 1616113, 1616509, 1616901, 1617288, 1617699, 1618087, 1618484, 1618837, 1619223]","[1610173, 1610573, 1610973, 1611373, 1611773, 1612173, 1612573, 1612973, 1613355, 1613760, 1614154, 1614546, 1614936, 1615341, 1615727, 1616130, 1616527, 1616918, 1617306, 1617717, 1618104, 1618501, 1618854, 1619241]",78,EM,L,R,ITMSR,1.1,
5,400,trial,0,84,84,84,trial,"['S', 'S', 'S', 'S', 'S', 'S', 'S', 'C', 'C', 'C', 'C', 'C', 'C', 'C', 'C', 'C', 'C', 'C', 'C', 'C', 'C', 'C', 'C']","[1625115, 1625454, 1625839, 1626223, 1626626, 1627029, 1627423, 1627801, 1628193, 1628596, 1629006, 1629382, 1629775, 1630172, 1630572, 1630966, 1631360, 1631763, 1632174, 1632545, 1632931, 1633313, 1633700]","[1625245, 1625600, 1625998, 1626348, 1626704, 1627118, 1627554, 1627961, 1628344, 1628774, 1629143, 1629560, 1629931, 1630344, 1630710, 1631094, 1631524, 1631911, 1632262, 1632686, 1633081, 1633410, 1633792]","[101, 242, 63, 238, 6, 199, 195, 63, 50, 73, 71, 58, 66, 115, 93, 94, 85, 69, 84, 52, 69, 100, 74]","[1625117, 1625457, 1625842, 1626227, 1626629, 1627032, 1627426, 1627803, 1628196, 1628599, 1629008, 1629384, 1629778, 1630174, 1630575, 1630968, 1631363, 1631766, 1632177, 1632547, 1632933, 1633315, 1633702]","[1624652, 1625052, 1625452, 1625852, 1626252, 1626652, 1627053, 1627453, 1627821, 1628213, 1628616, 1629026, 1629402, 1629795, 1630192, 1630593, 1630986, 1631380, 1631783, 1632194, 1632565, 1632951, 1633333, 1633720]",78,EM,L,R,ITMSR,1.1,
4,600,trial,0,85,85,85,trial,"['S', 'S', 'S', 'S', 'S', 'S', 'S', 'C', 'C', 'C', 'C', 'C', 'C', 'C', 'C', 'C', 'C', 'C', 'C', 'C', 'C', 'C', 'C']","[1639877, 1640351, 1640971, 1641587, 1642133, 1642853, 1643323, 1643895, 1644467, 1645012, 1645566, 1646112, 1646643, 1647201, 1647759, 1648327, 1648884, 1649415, 1649955, 1650508, 1651022, 1651577, 1652101]","[1640088, 1640734, 1641377, 1641944, 1642759, 1642935, 1643708, 1644257, 1644801, 1645316, 1645882, 1646393, 1646964, 1647509, 1648149, 1648621, 1649159, 1649679, 1650253, 1650766, 1651325, 1651841, 1652369]","[235, 30, 224, 44, 196, 237, 90, 35, 70, 71, 52, 40, 69, 35, 39, 6, 43, 11, 246, 21, 63, 55, 212]","[1639958, 1640353, 1640973, 1641589, 1642137, 1642882, 1643325, 1643897, 1644470, 1645016, 1645569, 1646115, 1646645, 1647203, 1647760, 1648481, 1648887, 1649418, 1649957, 1650511, 1651024, 1651580, 1652103]","[1639182, 1639782, 1640382, 1640982, 1641582, 1642182, 1642782, 1643382, 1643915, 1644487, 1645032, 1645586, 1646132, 1646663, 1647221, 1647779, 1648347, 1648904, 1649435, 1649975, 1650528, 1651042, 1651597, 1652121]",78,EM,L,R,ITMSR,1.1,
1,400,trial,0,86,86,86,trial,"['S', 'S', 'S', 'S', 'S', 'S', 'S', 'C', 'C', 'C', 'C', 'C', 'C', 'C', 'C', 'C', 'C', 'C', 'C', 'C', 'C', 'C', 'C']","[1658204, 1658542, 1658931, 1659313, 1659700, 1660112, 1660504, 1660932, 1661332, 1661716, 1662128, 1662509, 1662914, 1663303, 1663710, 1664118, 1664503, 1664900, 1665304, 1665701, 1666093, 1666486, 1666884]","[1658334, 1658633, 1658978, 1659348, 1659735, 1660134, 1660563, 1660952, 1661381, 1661773, 1662188, 1662580, 1662935, 1663373, 1663759, 1664174, 1664567, 1664949, 1665356, 1665742, 1666149, 1666528, 1666933]","[248, 15, 1, 228, 0, 226, 41, 202, 239, 13, 216, 11, 207, 26, 70, 108, 81, 82, 81, 106, 117, 84, 100]","[1658208, 1658544, 1658935, 1659316, 1659703, 1660115, 1660507, 1660936, 1661335, 1661719, 1662132, 1662512, 1662917, 1663306, 1663713, 1664120, 1664506, 1664903, 1665307, 1665704, 1666096, 1666488, 1666887]","[1657747, 1658147, 1658547, 1658947, 1659347, 1659747, 1660147, 1660547, 1660952, 1661352, 1661736, 1662148, 1662529, 1662935, 1663323, 1663730, 1664138, 1664523, 1664920, 1665325, 1665721, 1666113, 1666506, 1666904]",78,EM,L,R,ITMSR,1.1,
2,400,trial,0,87,87,87,trial,"['S', 'S', 'S', 'S', 'S', 'S', 'C', 'C', 'C', 'C', 'C', 'C', 'C', 'C', 'C', 'C', 'C', 'C', 'C', 'C', 'C', 'C']","[1673214, 1673612, 1674012, 1674392, 1674779, 1675190, 1675596, 1675955, 1676322, 1676697, 1677082, 1677444, 1677819, 1678192, 1678578, 1678941, 1679337, 1679699, 1680079, 1680466, 1680854, 1681250]","[1673285, 1673660, 1674070, 1674448, 1674845, 1675260, 1675663, 1676024, 1676401, 1676793, 1677174, 1677552, 1677916, 1678301, 1678668, 1679032, 1679413, 1679796, 1680184, 1680537, 1680939, 1681314]","[201, 43, 30, 73, 72, 68, 57, 98, 88, 100, 110, 111, 94, 123, 93, 114, 76, 70, 76, 66, 44, 46]","[1673219, 1673615, 1674015, 1674394, 1674782, 1675193, 1675599, 1675958, 1676324, 1676699, 1677084, 1677446, 1677821, 1678194, 1678581, 1678944, 1679340, 1679703, 1680082, 1680470, 1680858, 1681253]","[1672450, 1672848, 1673248, 1673648, 1674048, 1674448, 1674848, 1675248, 1675616, 1675975, 1676342, 1676717, 1677102, 1677464, 1677839, 1678212, 1678598, 1678961, 1679357, 1679719, 1680099, 1680486, 1680874, 1681270]",78,EM,L,R,ITMSR,1.1,
0,600,trial,0,88,88,88,trial,"['S', 'S', 'S', 'S', 'S', 'S', 'S', 'S', 'C', 'C', 'C', 'C', 'C', 'C', 'C', 'C', 'C', 'C', 'C', 'C', 'C', 'C', 'C', 'C']","[1687390, 1687654, 1688014, 1688632, 1689250, 1689843, 1690441, 1691042, 1691657, 1692205, 1692753, 1693305, 1693874, 1694448, 1695006, 1695538, 1696078, 1696618, 1697167, 1697716, 1698242, 1698772, 1699291, 1699862]","[1687462, 1687742, 1688121, 1688866, 1689539, 1690138, 1690703, 1691354, 1691913, 1692486, 1693023, 1693607, 1694129, 1694687, 1695247, 1695795, 1696333, 1696869, 1697410, 1697954, 1698492, 1699039, 1699585]","[94, 182, 27, 4, 219, 217, 209, 246, 234, 26, 33, 51, 80, 75, 65, 97, 97, 69, 97, 66, 79, 81, 89]","[1687396, 1687658, 1688018, 1688635, 1689254, 1689846, 1690444, 1691046, 1691661, 1692209, 1692756, 1693308, 1693877, 1694451, 1695009, 1695541, 1696081, 1696621, 1697170, 1697719, 1698245, 1698776, 1699294]","[1686922, 1687521, 1688121, 1688721, 1689321, 1689921, 1690521, 1691121, 1691677, 1692225, 1692773, 1693325, 1693894, 1694468, 1695026, 1695558, 1696098, 1696638, 1697187, 1697736, 1698263, 1698792, 1699311, 1699883]",78,EM,L,R,ITMSR,1.1,
3,600,trial,0,89,89,89,trial,"['S', 'S', 'S', 'S', 'S', 'S', 'C', 'C', 'C', 'C', 'C', 'C', 'C', 'C', 'C', 'C', 'C', 'C', 'C', 'C', 'C', 'C']","[1706412, 1707079, 1707595, 1708208, 1708801, 1709404, 1709991, 1710605, 1711165, 1711753, 1712335, 1712929, 1713524, 1714104, 1714677, 1715228, 1715807, 1716400, 1716976, 1717565, 1718108, 1718643]","[1706567, 1707266, 1707918, 1708504, 1709163, 1709720, 1710354, 1710928, 1711494, 1712078, 1712692, 1713282, 1713831, 1714429, 1714991, 1715576, 1716128, 1716698, 1717301, 1717856, 1718377, 1718904]","[106, 70, 72, 105, 100, 89, 85, 107, 107, 119, 116, 102, 95, 94, 118, 128, 134, 108, 90, 119, 97, 114]","[1706474, 1707175, 1707790, 1708377, 1709040, 1709597, 1710241, 1710801, 1711343, 1711972, 1712559, 1713149, 1713685, 1714250, 1714840, 1715365, 1715995, 1716585, 1716979, 1717567, 1718111, 1718772]","[1705279, 1705879, 1706479, 1707079, 1707679, 1708279, 1708879, 1709479, 1710011, 1710625, 1711185, 1711773, 1712355, 1712949, 1713544, 1714124, 1714697, 1715248, 1715827, 1716420, 1716996, 1717585, 1718128, 1718663]",78,EM,L,R,ITMSR,1.1,
