pitch,ioi,event,.thisRepN,.thisTrialN,.thisN,.thisIndex,event,tap_types,tap_times,release_times,peak_pressures,peak_times,tone_times,subject,experimenter,register,handedness,experiment,version
,,SPR,0,-1,-1,0,SPR,"['P', 'P', 'P', 'P', 'P', 'P', 'P', 'P', 'P', 'P', 'P', 'P', 'P', 'P', 'P', 'P', 'P', 'P', 'P', 'P', 'P', 'P', 'P', 'P', 'P', 'P', 'P', 'P', 'P', 'P']","[66278, 66657, 67022, 67385, 67737, 68091, 68430, 68798, 69143, 69488, 69841, 70208, 70554, 70912, 71273, 71640, 71995, 72339, 72673, 73011, 73361, 73711, 74091, 74445, 74799, 75136, 75491, 75828, 76182, 76511]","[66478, 66845, 67204, 67562, 67928, 68268, 68613, 68967, 69331, 69684, 70025, 70391, 70748, 71102, 71464, 71818, 72154, 72501, 72826, 73187, 73527, 73885, 74253, 74603, 74954, 75303, 75664, 76002, 76343, 76701]","[162, 158, 158, 162, 156, 159, 157, 163, 160, 155, 163, 164, 168, 157, 165, 167, 162, 161, 153, 165, 164, 156, 169, 159, 170, 170, 157, 152, 173, 168]","[66361, 66660, 67026, 67388, 67740, 68094, 68433, 68801, 69146, 69490, 69844, 70210, 70556, 70914, 71276, 71643, 71998, 72342, 72676, 73014, 73363, 73714, 74094, 74447, 74802, 75139, 75493, 75830, 76184, 76513]",,70,OR,U,R,ITMSR,1.1
0,500,practice,0,0,0,0,practice,"['S', 'S', 'S', 'S', 'S', 'S', 'S', 'S', 'S', 'S', 'C', 'C', 'C', 'C', 'C', 'C', 'C', 'C', 'C', 'C', 'C', 'C', 'C', 'C', 'C', 'C']","[158657, 158974, 159310, 159678, 160029, 160380, 160694, 161045, 161457, 161971, 162481, 162939, 163363, 163756, 164106, 164446, 164760, 165079, 165373, 165685, 165994, 166287, 166583, 166871, 167161, 167463]","[158806, 159136, 159470, 159861, 160148, 160507, 160889, 161259, 161763, 162241, 162734, 163163, 163581, 163942, 164296, 164606, 164926, 165217, 165513, 165823, 166105, 166409, 166699, 166992, 167274, 167572]","[152, 158, 157, 149, 147, 167, 171, 168, 176, 172, 176, 175, 178, 175, 181, 173, 184, 170, 174, 176, 145, 173, 174, 176, 171, 171]","[158660, 158978, 159312, 159682, 160032, 160384, 160695, 161047, 161459, 161974, 162484, 162941, 163365, 163758, 164109, 164449, 164762, 165081, 165377, 165687, 165997, 166290, 166585, 166874, 167163, 167465]","[158542, 159042, 159542, 160043, 160542, 161042, 161542, 162042, 162501, 162959, 163383, 163776, 164126, 164466, 164781, 165099, 165393, 165705, 166014, 166307, 166603, 166891, 167181, 167483]",70,OR,U,R,ITMSR,1.1
4,500,practice,0,1,1,1,practice,"['S', 'S', 'S', 'S', 'S', 'S', 'S', 'C', 'C', 'C', 'C', 'C', 'C', 'C', 'C', 'C', 'C', 'C', 'C', 'C', 'C', 'C', 'C']","[174049, 174478, 174981, 175488, 175967, 176450, 176923, 177422, 177986, 178530, 179028, 179525, 180032, 180544, 181031, 181537, 182038, 182547, 183025, 183537, 184047, 184521, 185029]","[174170, 174645, 175160, 175653, 176185, 176671, 177176, 177777, 178321, 178799, 179315, 179825, 180310, 180820, 181334, 181871, 182382, 182874, 183362, 183867, 184338, 184797]","[133, 163, 164, 160, 160, 164, 175, 169, 164, 162, 171, 167, 169, 170, 170, 172, 165, 167, 173, 173, 173, 161]","[174053, 174566, 174984, 175491, 176073, 176567, 177063, 177589, 178117, 178680, 179183, 179691, 180034, 180547, 181035, 181700, 182203, 182727, 183215, 183706, 184208, 184689]","[173177, 173677, 174177, 174678, 175177, 175677, 176177, 176677, 177442, 178007, 178550, 179048, 179545, 180052, 180564, 181051, 181557, 182059, 182567, 183045, 183557, 184067, 184541, 185049]",70,OR,U,R,ITMSR,1.1
5,500,practice,0,2,2,2,practice,"['S', 'S', 'S', 'S', 'S', 'S', 'S', 'S', 'C', 'C', 'C', 'C', 'C', 'C', 'C', 'C', 'C', 'C', 'C', 'C', 'C', 'C', 'C', 'C']","[190874, 191208, 191663, 192133, 192634, 193130, 193606, 194119, 194598, 195052, 195491, 196001, 196492, 196992, 197494, 197980, 198432, 198935, 199411, 199876, 200356, 200784, 201243, 201676]","[191073, 191456, 191945, 192438, 192934, 193419, 193898, 194390, 194879, 195326, 195827, 196285, 196766, 197248, 197762, 198247, 198717, 199182, 199649, 200101, 200563, 201017, 201461, 201911]","[149, 159, 161, 174, 175, 166, 173, 165, 164, 166, 160, 161, 165, 152, 142, 147, 148, 144, 141, 128, 121, 137, 127, 135]","[190961, 191295, 191790, 192287, 192765, 193294, 193760, 194262, 194743, 195184, 195624, 196161, 196494, 196995, 197498, 198145, 198435, 198938, 199561, 200009, 200470, 200787, 201353, 201679]","[190699, 191198, 191698, 192198, 192698, 193198, 193698, 194198, 194618, 195073, 195511, 196021, 196512, 197012, 197514, 198000, 198452, 198956, 199431, 199896, 200376, 200804, 201263, 201696]",70,OR,U,R,ITMSR,1.1
2,500,practice,0,3,3,3,practice,"['B', 'S', 'S', 'S', 'S', 'S', 'S', 'S', 'C', 'C', 'C', 'C', 'C', 'C', 'C', 'C', 'C', 'C', 'C', 'C', 'C', 'C', 'C', 'C']","[207110, 207475, 207998, 208502, 209010, 209509, 209999, 210515, 211039, 211502, 211970, 212446, 212951, 213436, 213929, 214415, 214914, 215408, 215879, 216363, 216830, 217308, 217791, 218273]","[207318, 207813, 208299, 208833, 209313, 209816, 210300, 210794, 211294, 211759, 212204, 212697, 213201, 213663, 214148, 214642, 215140, 215627, 216097, 216593, 217080, 217545, 218033, 218463]","[141, 159, 161, 161, 163, 152, 157, 154, 170, 160, 162, 164, 151, 155, 160, 169, 161, 155, 138, 161, 160, 145, 156, 148]","[207110, 207656, 208171, 208690, 209178, 209696, 210176, 210662, 211188, 211504, 211973, 212448, 213085, 213439, 213933, 214417, 214917, 215411, 215982, 216365, 216833, 217311, 217794, 218276]","[207123, 207623, 208123, 208623, 209123, 209624, 210124, 210624, 211059, 211522, 211990, 212466, 212971, 213456, 213949, 214435, 214934, 215428, 215899, 216383, 216850, 217328, 217811, 218293]",70,OR,U,R,ITMSR,1.1
1,500,practice,0,4,4,4,practice,"['S', 'S', 'S', 'S', 'S', 'S', 'S', 'S', 'C', 'C', 'C', 'C', 'C', 'C', 'C', 'C', 'C', 'C', 'C', 'C', 'C', 'C', 'C', 'C']","[223830, 224189, 224635, 225102, 225574, 226063, 226564, 227043, 227514, 227962, 228423, 228910, 229406, 229902, 230407, 230886, 231397, 231874, 232338, 232807, 233279, 233792, 234312, 234753]","[224052, 224480, 224940, 225402, 225876, 226381, 226822, 227311, 227763, 228212, 228670, 229151, 229618, 230121, 230609, 231108, 231624, 232104, 232559, 233069, 233545, 234024, 234507, 234992]","[169, 162, 165, 155, 160, 146, 146, 163, 164, 155, 163, 160, 140, 148, 144, 144, 139, 156, 151, 143, 133, 157, 141, 159]","[223920, 224312, 224775, 225105, 225577, 226066, 226713, 227046, 227517, 227964, 228426, 228913, 229409, 229905, 230410, 230889, 231400, 231877, 232341, 232810, 233283, 233795, 234407, 234878]","[223600, 224099, 224600, 225100, 225600, 226100, 226600, 227100, 227534, 227982, 228443, 228930, 229426, 229922, 230427, 230906, 231417, 231895, 232358, 232827, 233299, 233812, 234332, 234773]",70,OR,U,R,ITMSR,1.1
3,500,practice,0,5,5,5,practice,"['B', 'S', 'S', 'S', 'S', 'S', 'S', 'S', 'C', 'C', 'C', 'C', 'C', 'C', 'C', 'C', 'C', 'C', 'C', 'C', 'C', 'C', 'C', 'C']","[240242, 240604, 241122, 241601, 242116, 242638, 243154, 243662, 244183, 244610, 245085, 245559, 246018, 246483, 246948, 247402, 247877, 248322, 248769, 249246, 249683, 250164, 250641, 251112]","[240444, 240967, 241430, 241928, 242447, 242976, 243483, 243983, 244432, 244886, 245338, 245833, 246304, 246743, 247174, 247671, 248126, 248569, 249048, 249509, 249974, 250456, 250916]","[151, 159, 161, 163, 151, 157, 168, 156, 153, 163, 161, 158, 144, 164, 162, 170, 162, 160, 157, 159, 161, 156, 170]","[240242, 240797, 241306, 241756, 242118, 242865, 243348, 243879, 244329, 244770, 245088, 245561, 246160, 246640, 246951, 247405, 248004, 248324, 248907, 249248, 249847, 250167, 250807]","[240253, 240753, 241253, 241753, 242253, 242753, 243253, 243753, 244203, 244630, 245105, 245579, 246038, 246503, 246968, 247422, 247897, 248342, 248790, 249266, 249703, 250184, 250661, 251132]",70,OR,U,R,ITMSR,1.1
0,600,trial,0,6,6,6,trial,"['S', 'S', 'S', 'S', 'S', 'S', 'S', 'S', 'C', 'C', 'C', 'C', 'C', 'C', 'C', 'C', 'C', 'C', 'C', 'C', 'C', 'C', 'C', 'C']","[344323, 344890, 345431, 346005, 346603, 347190, 347761, 348285, 348833, 349378, 349892, 350417, 350934, 351431, 351954, 352493, 353038, 353574, 354101, 354611, 355154, 355698, 356236, 356760]","[344529, 345116, 345698, 346225, 346828, 347396, 347952, 348506, 349077, 349634, 350157, 350678, 351177, 351741, 352261, 352800, 353357, 353872, 354393, 354876, 355415, 355943, 356431, 356967]","[162, 160, 157, 164, 166, 169, 151, 88, 66, 102, 107, 124, 117, 135, 143, 156, 136, 128, 136, 123, 146, 130, 127, 118]","[344412, 344995, 345434, 346115, 346605, 347192, 347764, 348395, 348837, 349381, 349896, 350420, 350938, 351434, 351958, 352496, 353041, 353577, 354104, 354614, 355156, 355701, 356239, 356879]","[344042, 344642, 345242, 345842, 346442, 347042, 347642, 348242, 348853, 349399, 349912, 350437, 350954, 351451, 351974, 352514, 353058, 353594, 354121, 354631, 355174, 355718, 356256, 356781]",70,OR,U,R,ITMSR,1.1
0,600,trial,0,7,7,7,trial,"['S', 'S', 'S', 'S', 'S', 'S', 'S', 'S', 'C', 'C', 'C', 'C', 'C', 'C', 'C', 'C', 'C', 'C', 'C', 'C', 'C', 'C', 'C', 'C']","[362504, 362858, 363420, 364050, 364669, 365280, 365889, 366472, 367035, 367620, 368187, 368757, 369377, 369977, 370557, 371125, 371693, 372233, 372803, 373379, 373952, 374510, 375107, 375710]","[362707, 363211, 363781, 364324, 364935, 365528, 366138, 366734, 367335, 367924, 368540, 369154, 369739, 370313, 370847, 371418, 371970, 372551, 373111, 373664, 374267, 374876, 375439]","[137, 148, 131, 133, 127, 115, 135, 129, 106, 120, 137, 125, 119, 123, 128, 122, 139, 121, 128, 128, 121, 121, 132]","[362588, 362963, 363640, 364218, 364816, 365283, 366029, 366641, 367039, 367807, 368414, 369022, 369381, 370189, 370561, 371271, 371872, 372426, 372990, 373549, 374145, 374757, 375306]","[362322, 362921, 363522, 364122, 364722, 365322, 365922, 366522, 367055, 367640, 368207, 368777, 369397, 369997, 370577, 371145, 371714, 372253, 372824, 373399, 373972, 374530, 375128, 375730]",70,OR,U,R,ITMSR,1.1
1,600,trial,0,8,8,8,trial,"['S', 'S', 'S', 'S', 'S', 'S', 'S', 'S', 'C', 'C', 'C', 'C', 'C', 'C', 'C', 'C', 'C', 'C', 'C', 'C', 'C', 'C', 'C', 'C']","[381674, 382140, 382667, 383251, 383817, 384401, 384977, 385574, 386183, 386660, 387259, 387798, 388338, 388885, 389422, 389929, 390451, 391000, 391558, 392117, 392680, 393260, 393842, 394378]","[381993, 382474, 383027, 383563, 384140, 384680, 385265, 385862, 386404, 387067, 387589, 388124, 388663, 389180, 389675, 390196, 390743, 391321, 391888, 392428, 393049, 393620, 394178]","[127, 130, 126, 131, 122, 103, 109, 108, 101, 118, 112, 104, 112, 104, 114, 99, 108, 131, 139, 129, 132, 127, 127]","[381788, 382305, 382671, 383254, 383820, 384405, 384982, 385579, 386311, 386664, 387463, 387802, 388341, 388889, 389426, 389934, 390455, 391003, 391561, 392309, 392683, 393494, 393845]","[381514, 382114, 382714, 383314, 383915, 384514, 385114, 385714, 386203, 386680, 387279, 387818, 388358, 388905, 389442, 389949, 390471, 391020, 391578, 392137, 392700, 393280, 393862, 394398]",70,OR,U,R,ITMSR,1.1
0,400,trial,0,9,9,9,trial,"['S', 'S', 'S', 'S', 'S', 'S', 'S', 'C', 'C', 'C', 'C', 'C', 'C', 'C', 'C', 'C', 'C', 'C', 'C', 'C', 'C', 'C', 'C']","[400220, 400641, 401293, 401739, 402057, 402404, 402763, 403113, 403462, 403774, 404101, 404448, 404797, 405160, 405517, 405885, 406239, 406580, 406900, 407233, 407585, 407911, 408262]","[400494, 401024, 401566, 401917, 402229, 402615, 402961, 403317, 403615, 403937, 404250, 404595, 404930, 405327, 405668, 406036, 406390, 406729, 407049, 407389, 407704, 408029, 408368]","[124, 128, 121, 115, 106, 122, 103, 117, 100, 104, 83, 91, 101, 116, 100, 109, 99, 91, 95, 98, 88, 110, 93]","[400325, 400861, 401452, 401841, 402061, 402408, 402860, 403227, 403544, 403778, 404105, 404452, 404801, 405165, 405521, 405889, 406243, 406584, 406904, 407237, 407588, 407915, 408265]","[400053, 400452, 400852, 401252, 401652, 402052, 402452, 402852, 403133, 403482, 403794, 404121, 404468, 404817, 405180, 405537, 405905, 406259, 406600, 406920, 407254, 407605, 407931, 408282]",70,OR,U,R,ITMSR,1.1
5,400,trial,0,10,10,10,trial,"['S', 'S', 'S', 'S', 'S', 'S', 'S', 'S', 'S', 'C', 'C', 'C', 'C', 'C', 'C', 'C', 'C', 'C', 'C', 'C', 'C', 'C', 'C', 'C', 'C']","[414189, 414500, 414845, 415183, 415558, 415932, 416299, 416683, 417067, 417435, 417807, 418142, 418475, 418867, 419223, 419591, 419953, 420322, 420673, 421038, 421369, 421720, 422060, 422393, 422738]","[414340, 414693, 415021, 415378, 415762, 416139, 416490, 416888, 417244, 417625, 417964, 418281, 418626, 419016, 419352, 419707, 420071, 420432, 420799, 421129, 421482, 421806, 422153, 422479, 422820]","[96, 109, 102, 99, 107, 101, 100, 116, 99, 115, 99, 103, 90, 95, 106, 78, 78, 73, 90, 72, 86, 79, 98, 84, 89]","[414267, 414504, 414849, 415187, 415562, 415936, 416303, 416687, 417071, 417439, 417811, 418146, 418479, 418871, 419227, 419594, 419957, 420325, 420677, 421042, 421373, 421724, 422064, 422397, 422743]","[414022, 414423, 414822, 415222, 415622, 416022, 416422, 416822, 417455, 417827, 418162, 418495, 418887, 419244, 419611, 419973, 420342, 420694, 421058, 421389, 421740, 422080, 422413, 422758]",70,OR,U,R,ITMSR,1.1
5,600,trial,0,11,11,11,trial,"['S', 'S', 'S', 'S', 'S', 'S', 'S', 'S', 'C', 'C', 'C', 'C', 'C', 'C', 'C', 'C', 'C', 'C', 'C', 'C', 'C', 'C', 'C', 'C']","[428273, 428872, 429476, 430071, 430656, 431228, 431833, 432398, 433039, 433704, 434327, 434892, 435453, 436037, 436609, 437169, 437744, 438301, 438838, 439342, 439951, 440492, 441078, 441670]","[428521, 429082, 429726, 430348, 430955, 431550, 432136, 432748, 433462, 434077, 434646, 435229, 435808, 436363, 436939, 437493, 438020, 438601, 439124, 439663, 440225, 440794, 441443]","[113, 86, 94, 91, 79, 102, 109, 112, 116, 110, 126, 117, 118, 104, 117, 112, 107, 104, 106, 115, 120, 116, 109]","[428392, 428877, 429602, 430199, 430797, 431232, 431836, 432402, 433042, 433708, 434331, 434895, 435458, 436246, 436612, 437172, 437748, 438305, 438842, 439346, 439955, 440495, 441082]","[428069, 428669, 429270, 429869, 430469, 431069, 431669, 432269, 433059, 433724, 434348, 434912, 435473, 436057, 436629, 437189, 437764, 438321, 438858, 439362, 439971, 440512, 441098, 441690]",70,OR,U,R,ITMSR,1.1
2,600,trial,0,12,12,12,trial,"['S', 'S', 'S', 'S', 'S', 'S', 'S', 'S', 'C', 'C', 'C', 'C', 'C', 'C', 'C', 'C', 'C', 'C', 'C', 'C', 'C', 'C', 'C', 'C']","[447271, 447677, 448186, 448774, 449341, 449944, 450548, 451122, 451684, 452220, 452768, 453337, 453911, 454475, 455046, 455593, 456163, 456686, 457284, 457827, 458413, 458950, 459500, 460052]","[447494, 448020, 448589, 449126, 449709, 450252, 450859, 451416, 451942, 452512, 453100, 453670, 454237, 454775, 455361, 455895, 456442, 456962, 457559, 458128, 458656, 459237, 459777]","[107, 113, 97, 99, 125, 71, 123, 104, 88, 123, 119, 108, 121, 109, 107, 106, 115, 87, 115, 126, 123, 121, 103]","[447410, 447681, 448410, 448778, 449344, 449949, 450551, 451125, 451837, 452225, 452771, 453341, 453915, 454479, 455049, 455598, 456166, 456869, 457288, 457831, 458417, 458953, 459504]","[447064, 447664, 448264, 448864, 449464, 450064, 450664, 451264, 451704, 452240, 452788, 453357, 453932, 454495, 455066, 455613, 456183, 456706, 457304, 457847, 458433, 458970, 459521, 460072]",70,OR,U,R,ITMSR,1.1
5,600,trial,0,13,13,13,trial,"['S', 'S', 'S', 'S', 'S', 'S', 'S', 'S', 'C', 'C', 'C', 'C', 'C', 'C', 'C', 'C', 'C', 'C', 'C', 'C', 'C', 'C', 'C', 'C']","[465696, 466107, 466653, 467238, 467816, 468382, 468988, 469591, 470205, 470738, 471306, 471907, 472492, 473053, 473604, 474201, 474791, 475378, 475966, 476524, 477119, 477689, 478277, 478848]","[465933, 466460, 467027, 467570, 468135, 468681, 469292, 469882, 470467, 471060, 471643, 472206, 472778, 473347, 473903, 474498, 475075, 475634, 476227, 476787, 477352, 477957, 478534, 479081]","[119, 121, 121, 129, 121, 115, 126, 119, 118, 133, 133, 128, 125, 133, 132, 136, 118, 121, 125, 121, 142, 127, 133, 131]","[465806, 466307, 466657, 467241, 467819, 468386, 468992, 469594, 470320, 470743, 471310, 471910, 472495, 473056, 473607, 474203, 474796, 475381, 475970, 476527, 477122, 477692, 478280, 478851]","[465516, 466116, 466716, 467316, 467916, 468516, 469116, 469716, 470225, 470758, 471326, 471927, 472512, 473073, 473624, 474221, 474811, 475398, 475986, 476545, 477139, 477709, 478297, 478868]",70,OR,U,R,ITMSR,1.1
2,400,trial,0,14,14,14,trial,"['S', 'S', 'S', 'S', 'S', 'S', 'S', 'S', 'C', 'C', 'C', 'C', 'C', 'C', 'C', 'C', 'C', 'C', 'C', 'C', 'C', 'C', 'C', 'C']","[484781, 485248, 485704, 486026, 486386, 486715, 487055, 487375, 487746, 488076, 488428, 488806, 489159, 489520, 489870, 490219, 490546, 490884, 491214, 491582, 491906, 492251, 492574, 492923]","[485035, 485523, 485864, 486216, 486550, 486884, 487211, 487548, 487891, 488238, 488587, 488943, 489308, 489678, 490039, 490376, 490703, 491015, 491340, 491698, 492038, 492365, 492716, 493041]","[118, 129, 113, 116, 116, 114, 114, 105, 116, 121, 102, 99, 110, 103, 103, 97, 93, 95, 103, 105, 100, 100, 95, 97]","[484784, 485251, 485708, 486030, 486390, 486718, 487059, 487377, 487749, 488079, 488432, 488810, 489163, 489523, 489874, 490223, 490550, 490888, 491218, 491586, 491910, 492254, 492578, 492926]","[484580, 484980, 485380, 485780, 486180, 486580, 486980, 487380, 487767, 488096, 488449, 488826, 489179, 489540, 489890, 490240, 490566, 490904, 491234, 491602, 491926, 492271, 492594, 492943]",70,OR,U,R,ITMSR,1.1
3,400,trial,0,15,15,15,trial,"['S', 'S', 'S', 'S', 'S', 'S', 'S', 'S', 'C', 'C', 'C', 'C', 'C', 'C', 'C', 'C', 'C', 'C', 'C', 'C', 'C', 'C', 'C', 'C']","[498642, 498956, 499261, 499571, 499933, 500357, 500711, 501090, 501469, 501826, 502180, 502550, 502910, 503256, 503591, 503946, 504274, 504616, 505009, 505348, 505666, 506021, 506338, 506673]","[498823, 499128, 499421, 499750, 500140, 500546, 500910, 501322, 501676, 502013, 502364, 502700, 503065, 503406, 503730, 504061, 504388, 504733, 505116, 505453, 505772, 506101, 506449, 506777]","[94, 81, 81, 94, 111, 110, 109, 116, 114, 88, 105, 91, 92, 97, 73, 79, 42, 68, 99, 96, 88, 33, 93, 81]","[498647, 498960, 499266, 499574, 499936, 500361, 500715, 501094, 501473, 501831, 502184, 502554, 502915, 503260, 503596, 503950, 504279, 504622, 505013, 505352, 505670, 506025, 506341, 506677]","[498399, 498799, 499200, 499599, 499999, 500399, 500799, 501199, 501489, 501847, 502200, 502571, 502930, 503276, 503611, 503966, 504294, 504636, 505029, 505368, 505687, 506041, 506358, 506693]",70,OR,U,R,ITMSR,1.1
0,400,trial,0,16,16,16,trial,"['S', 'S', 'S', 'S', 'S', 'S', 'S', 'S', 'C', 'C', 'C', 'C', 'C', 'C', 'C', 'C', 'C', 'C', 'C', 'C', 'C', 'C', 'C', 'C']","[512314, 512642, 512969, 513306, 513670, 514056, 514444, 514839, 515225, 515569, 515914, 516262, 516639, 517020, 517382, 517782, 518140, 518508, 518877, 519211, 519555, 519936, 520318, 520697]","[512438, 512819, 513137, 513486, 513865, 514254, 514647, 515049, 515401, 515715, 516039, 516387, 516780, 517136, 517542, 517943, 518311, 518683, 519043, 519367, 519727, 520092, 520459, 520820]","[121, 105, 95, 104, 83, 120, 100, 107, 111, 104, 92, 86, 98, 58, 27, 78, 104, 105, 105, 117, 110, 111, 96, 78]","[512318, 512645, 512973, 513310, 513675, 514059, 514448, 514843, 515229, 515573, 515918, 516267, 516643, 517024, 517387, 517786, 518145, 518511, 518881, 519215, 519559, 519939, 520323, 520701]","[512113, 512514, 512914, 513314, 513714, 514114, 514514, 514914, 515245, 515589, 515934, 516282, 516659, 517040, 517402, 517803, 518160, 518529, 518897, 519231, 519575, 519956, 520338, 520717]",70,OR,U,R,ITMSR,1.1
3,400,trial,0,17,17,17,trial,"['S', 'S', 'S', 'S', 'S', 'S', 'S', 'S', 'C', 'C', 'C', 'C', 'C', 'C', 'C', 'C', 'C', 'C', 'C', 'C', 'C', 'C', 'C', 'C']","[526557, 526836, 527158, 527504, 527874, 528257, 528652, 529047, 529446, 529813, 530168, 530545, 530898, 531277, 531637, 532016, 532372, 532719, 533059, 533428, 533763, 534108, 534461, 534837]","[526660, 527019, 527347, 527719, 528098, 528456, 528849, 529244, 529600, 529965, 530306, 530670, 531055, 531453, 531807, 532156, 532512, 532844, 533186, 533565, 533902, 534225, 534577, 534951]","[103, 103, 110, 116, 112, 117, 94, 108, 110, 109, 103, 88, 101, 82, 81, 70, 92, 85, 83, 119, 94, 97, 80, 67]","[526561, 526839, 527162, 527507, 527877, 528261, 528656, 529050, 529449, 529816, 530172, 530549, 530902, 531281, 531641, 532021, 532376, 532723, 533063, 533432, 533766, 534112, 534464, 534841]","[526315, 526715, 527115, 527515, 527916, 528315, 528715, 529115, 529466, 529833, 530188, 530565, 530918, 531297, 531657, 532036, 532392, 532739, 533080, 533448, 533783, 534128, 534481, 534857]",70,OR,U,R,ITMSR,1.1
4,400,trial,0,18,18,18,trial,"['S', 'S', 'S', 'S', 'S', 'S', 'S', 'S', 'C', 'C', 'C', 'C', 'C', 'C', 'C', 'C', 'C', 'C', 'C', 'C', 'C', 'C', 'C', 'C']","[540792, 541116, 541446, 541810, 542178, 542540, 542915, 543316, 543717, 544093, 544476, 544833, 545209, 545592, 545952, 546342, 546745, 547134, 547489, 547851, 548196, 548544, 548904, 549258]","[540939, 541286, 541637, 542006, 542383, 542739, 543136, 543538, 543922, 544279, 544646, 544992, 545378, 545744, 546109, 546537, 546920, 547280, 547642, 547988, 548331, 548675, 549021, 549406]","[77, 97, 108, 57, 95, 104, 118, 114, 120, 105, 101, 121, 120, 106, 107, 127, 103, 117, 83, 102, 96, 75, 93, 110]","[540795, 541120, 541449, 541814, 542181, 542544, 542919, 543321, 543721, 544096, 544480, 544836, 545212, 545595, 545955, 546344, 546749, 547137, 547493, 547854, 548200, 548548, 548909, 549262]","[540594, 540994, 541394, 541794, 542194, 542594, 542994, 543394, 543737, 544113, 544496, 544854, 545229, 545612, 545972, 546362, 546765, 547154, 547509, 547871, 548216, 548564, 548924, 549278]",70,OR,U,R,ITMSR,1.1
5,400,trial,0,19,19,19,trial,"['S', 'S', 'S', 'S', 'S', 'S', 'S', 'S', 'C', 'C', 'C', 'C', 'C', 'C', 'C', 'C', 'C', 'C', 'C', 'C', 'C', 'C', 'C', 'C']","[554982, 555332, 555670, 556036, 556419, 556826, 557235, 557595, 557958, 558322, 558688, 559040, 559417, 559788, 560154, 560517, 560971, 561387, 561729, 562054, 562409, 562795, 563140, 563495]","[555160, 555521, 555845, 556235, 556624, 557006, 557378, 557755, 558119, 558471, 558825, 559186, 559576, 559930, 560294, 560692, 561199, 561544, 561850, 562192, 562562, 562914, 563263, 563627]","[99, 123, 119, 122, 118, 125, 130, 136, 136, 134, 130, 133, 131, 133, 131, 136, 98, 126, 123, 135, 120, 137, 135, 113]","[554986, 555336, 555674, 556039, 556423, 556827, 557239, 557598, 557961, 558325, 558691, 559043, 559419, 559791, 560156, 560520, 560975, 561390, 561732, 562057, 562412, 562798, 563142, 563500]","[554803, 555203, 555603, 556003, 556403, 556803, 557203, 557603, 557978, 558342, 558708, 559060, 559437, 559808, 560174, 560537, 560991, 561408, 561750, 562074, 562429, 562816, 563160, 563515]",70,OR,U,R,ITMSR,1.1
1,600,trial,0,20,20,20,trial,"['S', 'S', 'S', 'S', 'S', 'S', 'S', 'S', 'C', 'C', 'C', 'C', 'C', 'C', 'C', 'C', 'C', 'C', 'C', 'C', 'C', 'C', 'C', 'C']","[569246, 569555, 570074, 570703, 571369, 571928, 572555, 573166, 573751, 574304, 574839, 575515, 576091, 576647, 577182, 577752, 578295, 578830, 579382, 579935, 580482, 581019, 581521, 582087]","[569362, 569812, 570446, 571095, 571667, 572229, 572830, 573396, 573996, 574555, 575147, 575747, 576335, 576870, 577473, 578019, 578570, 579131, 579687, 580231, 580734, 581293, 581775, 582313]","[108, 118, 125, 116, 105, 98, 83, 89, 95, 82, 74, 90, 104, 79, 81, 100, 90, 85, 93, 83, 101, 109, 78, 101]","[569249, 569560, 570078, 570706, 571373, 571931, 572559, 573170, 573755, 574308, 574843, 575519, 576095, 576651, 577186, 577755, 578298, 578833, 579385, 579939, 580485, 581022, 581525, 582091]","[569004, 569603, 570203, 570803, 571403, 572003, 572603, 573203, 573771, 574324, 574859, 575535, 576111, 576667, 577202, 577772, 578315, 578850, 579402, 579955, 580502, 581039, 581541, 582107]",70,OR,U,R,ITMSR,1.1
2,600,trial,0,21,21,21,trial,"['S', 'S', 'S', 'S', 'S', 'S', 'S', 'S', 'C', 'C', 'C', 'C', 'C', 'C', 'C', 'C', 'C', 'C', 'C', 'C', 'C', 'C', 'C', 'C']","[587991, 588314, 588822, 589441, 590046, 590644, 591262, 591862, 592441, 593027, 593548, 594113, 594713, 595226, 595809, 596357, 596913, 597507, 598046, 598580, 599126, 599678, 600227, 600772]","[588126, 588589, 589231, 589816, 590372, 590959, 591551, 592150, 592739, 593302, 593826, 594409, 594989, 595526, 596075, 596644, 597200, 597776, 598276, 598827, 599419, 599959, 600515]","[106, 118, 130, 96, 116, 113, 113, 117, 124, 127, 111, 113, 107, 102, 113, 108, 120, 114, 119, 106, 119, 101, 114]","[587995, 588422, 588825, 589444, 590049, 590647, 591265, 592020, 592445, 593031, 593718, 594117, 594880, 595229, 595813, 596537, 597094, 597510, 598050, 598733, 599129, 599863, 600230]","[587784, 588384, 588984, 589584, 590184, 590784, 591384, 591984, 592461, 593047, 593568, 594134, 594733, 595246, 595829, 596377, 596933, 597527, 598066, 598600, 599146, 599698, 600247, 600792]",70,OR,U,R,ITMSR,1.1
2,400,trial,0,22,22,22,trial,"['S', 'S', 'S', 'S', 'S', 'S', 'S', 'S', 'C', 'C', 'C', 'C', 'C', 'C', 'C', 'C', 'C', 'C', 'C', 'C', 'C', 'C', 'C', 'C']","[606374, 606844, 607170, 607544, 607968, 608356, 608743, 609120, 609495, 609843, 610215, 610601, 610995, 611374, 611763, 612153, 612489, 612877, 613213, 613580, 613937, 614315, 614677, 615054]","[606632, 607029, 607350, 607750, 608161, 608529, 608921, 609307, 609661, 610016, 610372, 610753, 611146, 611540, 611926, 612310, 612640, 613005, 613336, 613701, 614070, 614452, 614825, 615198]","[94, 100, 80, 101, 85, 108, 72, 103, 90, 118, 68, 61, 95, 90, 92, 112, 101, 101, 70, 74, 107, 114, 110, 114]","[606509, 606849, 607258, 607547, 607972, 608359, 608747, 609124, 609499, 609846, 610220, 610607, 610999, 611378, 611767, 612157, 612493, 612881, 613217, 613584, 613941, 614318, 614681, 615057]","[606184, 606584, 606984, 607384, 607784, 608184, 608584, 608984, 609515, 609863, 610235, 610621, 611015, 611394, 611783, 612173, 612509, 612897, 613233, 613600, 613957, 614335, 614697, 615074]",70,OR,U,R,ITMSR,1.1
4,600,trial,0,23,23,23,trial,"['B', 'S', 'S', 'S', 'S', 'S', 'S', 'S', 'C', 'C', 'C', 'C', 'C', 'C', 'C', 'C', 'C', 'C', 'C', 'C', 'C', 'C', 'C', 'C']","[620429, 620703, 621303, 621914, 622496, 623102, 623737, 624371, 624967, 625612, 626243, 626799, 627401, 627996, 628589, 629189, 629801, 630393, 630992, 631608, 632171, 632730, 633282, 633843]","[620466, 621029, 621611, 622270, 622904, 623547, 624163, 624752, 625386, 626032, 626578, 627195, 627830, 628404, 628989, 629602, 630194, 630805, 631415, 631953, 632517, 633067, 633644]","[126, 66, 110, 92, 79, 94, 93, 128, 132, 122, 131, 106, 114, 119, 95, 126, 118, 123, 123, 118, 144, 115, 138]","[620429, 620829, 621307, 621918, 622709, 623107, 624005, 624375, 624970, 625616, 626246, 627022, 627403, 628297, 628875, 629192, 629805, 630396, 630995, 631611, 632174, 632952, 633285]","[620442, 621041, 621641, 622241, 622841, 623441, 624041, 624642, 624987, 625632, 626264, 626819, 627421, 628016, 628610, 629209, 629821, 630413, 631012, 631628, 632192, 632750, 633303, 633863]",70,OR,U,R,ITMSR,1.1
3,600,trial,0,24,24,24,trial,"['S', 'S', 'S', 'S', 'S', 'S', 'S', 'C', 'C', 'C', 'C', 'C', 'C', 'C', 'C', 'C', 'C', 'C', 'C', 'C', 'C', 'C', 'C']","[639562, 640217, 640842, 641473, 642088, 642717, 643291, 643862, 644574, 645137, 645728, 646287, 646833, 647425, 647988, 648503, 649023, 649510, 650001, 650498, 650981, 651473, 651943]","[640001, 640673, 641302, 641954, 642542, 643126, 643708, 644380, 644939, 645542, 646122, 646621, 647237, 647839, 648337, 648836, 649297, 649792, 650307, 650779, 651260, 651730]","[132, 128, 128, 133, 100, 123, 147, 150, 134, 151, 148, 140, 155, 146, 133, 124, 120, 141, 141, 130, 141, 125]","[639564, 640375, 640845, 641476, 642384, 642720, 643294, 643865, 644577, 645140, 645731, 646290, 646835, 647428, 647991, 648506, 649026, 649513, 650003, 650501, 650984, 651476]","[639387, 639987, 640587, 641187, 641787, 642387, 642988, 643587, 643883, 644594, 645157, 645748, 646307, 646853, 647445, 648008, 648523, 649043, 649530, 650021, 650518, 651001, 651493, 651963]",70,OR,U,R,ITMSR,1.1
1,400,trial,0,25,25,25,trial,"['S', 'S', 'S', 'S', 'S', 'S', 'S', 'S', 'C', 'C', 'C', 'C', 'C', 'C', 'C', 'C', 'C', 'C', 'C', 'C', 'C', 'C', 'C', 'C']","[657640, 658084, 658444, 658814, 659194, 659557, 659957, 660343, 660730, 661124, 661526, 661906, 662298, 662659, 663025, 663396, 663763, 664165, 664514, 664888, 665239, 665614, 665975, 666379]","[657898, 658286, 658630, 659018, 659385, 659777, 660149, 660536, 660928, 661317, 661698, 662103, 662456, 662819, 663183, 663542, 663919, 664297, 664652, 665053, 665389, 665760, 666127, 666535]","[77, 124, 115, 145, 132, 124, 125, 124, 110, 134, 124, 117, 115, 108, 128, 116, 130, 130, 127, 105, 120, 123, 116, 129]","[657771, 658087, 658447, 658818, 659197, 659560, 659960, 660347, 660733, 661127, 661529, 661910, 662302, 662662, 663028, 663400, 663767, 664168, 664517, 664892, 665243, 665617, 665978, 666382]","[657358, 657757, 658157, 658557, 658957, 659357, 659757, 660157, 660750, 661144, 661547, 661926, 662318, 662679, 663045, 663416, 663783, 664185, 664535, 664908, 665260, 665634, 665995, 666399]",70,OR,U,R,ITMSR,1.1
4,600,trial,0,26,26,26,trial,"['S', 'S', 'S', 'S', 'S', 'S', 'S', 'S', 'S', 'C', 'C', 'C', 'C', 'C', 'C', 'C', 'C', 'C', 'C', 'C', 'C', 'C', 'C', 'C', 'C']","[671901, 672221, 672737, 673289, 673860, 674424, 674979, 675534, 676157, 677530, 678054, 678590, 679126, 679656, 680207, 680721, 681270, 681810, 682322, 682812, 683356, 683872, 684364, 684866, 685306]","[672071, 672514, 673103, 673688, 674266, 674798, 675377, 675970, 676603, 677868, 678432, 678945, 679448, 680026, 680544, 681081, 681629, 682159, 682650, 683151, 683651, 684180, 684682, 685143]","[59, 125, 130, 146, 140, 110, 127, 113, 119, 117, 129, 125, 132, 145, 132, 118, 114, 102, 81, 94, 69, 129, 120, 125]","[671905, 672225, 672740, 673292, 673863, 674427, 674982, 675789, 676160, 677680, 678057, 678760, 679129, 679659, 680210, 680724, 681273, 681815, 682326, 683013, 683359, 683874, 684367, 684869]","[671713, 672313, 672913, 673513, 674113, 674713, 675313, 675913, 677550, 678074, 678610, 679146, 679676, 680227, 680741, 681290, 681830, 682342, 682832, 683376, 683892, 684384, 684887, 685326]",70,OR,U,R,ITMSR,1.1
3,600,trial,0,27,27,27,trial,"['S', 'S', 'S', 'S', 'S', 'S', 'S', 'S', 'C', 'C', 'C', 'C', 'C', 'C', 'C', 'C', 'C', 'C', 'C', 'C', 'C', 'C', 'C', 'C']","[691281, 691694, 692201, 692769, 693352, 693917, 694496, 695047, 695604, 696258, 696822, 697330, 697837, 698395, 698898, 699430, 699964, 700482, 701001, 701505, 702056, 702553, 703070, 703570]","[691526, 692033, 692599, 693176, 693712, 694261, 694802, 695347, 696003, 696617, 697133, 697607, 698136, 698669, 699172, 699718, 700240, 700781, 701295, 701790, 702324, 702820, 703330, 703822]","[134, 150, 131, 132, 114, 131, 130, 118, 132, 128, 121, 130, 151, 125, 133, 125, 113, 132, 124, 115, 137, 128, 122, 60]","[691389, 691697, 692204, 692772, 693355, 693920, 694499, 695050, 695607, 696260, 696825, 697333, 697840, 698398, 698901, 699433, 699968, 700485, 701004, 701508, 702058, 702556, 703073, 703574]","[691058, 691658, 692258, 692858, 693458, 694059, 694658, 695258, 695624, 696279, 696842, 697350, 697858, 698415, 698918, 699450, 699984, 700503, 701021, 701526, 702076, 702573, 703090, 703590]",70,OR,U,R,ITMSR,1.1
1,400,trial,0,28,28,28,trial,"['S', 'S', 'S', 'S', 'S', 'S', 'S', 'S', 'C', 'C', 'C', 'C', 'C', 'C', 'C', 'C', 'C', 'C', 'C', 'C', 'C', 'C', 'C', 'C']","[709321, 709734, 710137, 710459, 710768, 711079, 711405, 711798, 712197, 712542, 712890, 713254, 713605, 713939, 714296, 714659, 715003, 715351, 715660, 716001, 716328, 716670, 717015, 717342]","[709570, 709990, 710301, 710601, 710889, 711209, 711515, 711923, 712343, 712692, 713016, 713370, 713713, 714057, 714415, 714765, 715112, 715442, 715755, 716095, 716448, 716784, 717100, 717429]","[90, 136, 103, 106, 251, 25, 50, 77, 82, 57, 19, 42, 66, 14, 65, 76, 59, 61, 242, 44, 57, 67, 59, 78]","[709432, 709737, 710140, 710462, 710772, 711084, 711408, 711802, 712201, 712546, 712894, 713257, 713610, 713944, 714299, 714662, 715008, 715354, 715665, 716004, 716332, 716674, 717018, 717345]","[709135, 709534, 709934, 710334, 710734, 711134, 711534, 711934, 712217, 712562, 712910, 713274, 713625, 713959, 714316, 714679, 715023, 715371, 715680, 716021, 716348, 716690, 717035, 717362]",70,OR,U,R,ITMSR,1.1
4,400,trial,0,29,29,29,trial,"['S', 'S', 'S', 'S', 'S', 'S', 'S', 'S', 'C', 'C', 'C', 'C', 'C', 'C', 'C', 'C', 'C', 'C', 'C', 'C', 'C', 'C', 'C', 'C']","[723238, 723601, 723998, 724431, 724824, 725214, 725593, 725993, 726364, 726733, 727121, 727505, 727929, 728307, 728687, 729063, 729449, 729834, 730227, 730592, 730957, 731336, 731685, 732034]","[723439, 723828, 724233, 724646, 725054, 725423, 725803, 726206, 726568, 726928, 727292, 727705, 728110, 728473, 728851, 729212, 729610, 730004, 730382, 730745, 731117, 731466, 731822, 732154]","[45, 61, 107, 85, 94, 96, 74, 90, 95, 91, 83, 77, 79, 104, 90, 86, 69, 68, 101, 93, 75, 34, 93, 35]","[723243, 723605, 724001, 724435, 724827, 725218, 725597, 725994, 726368, 726737, 727126, 727508, 727932, 728310, 728690, 729067, 729453, 729838, 730230, 730595, 730961, 731341, 731689, 732038]","[723033, 723433, 723833, 724233, 724633, 725033, 725433, 725833, 726384, 726753, 727141, 727525, 727949, 728327, 728707, 729083, 729469, 729854, 730247, 730612, 730977, 731356, 731705, 732054]",70,OR,U,R,ITMSR,1.1
4,600,trial,0,30,30,30,trial,"['S', 'S', 'S', 'S', 'S', 'S', 'S', 'S', 'S', 'C', 'C', 'C', 'C', 'C', 'C', 'C', 'C', 'C', 'C', 'C', 'C', 'C', 'C', 'C', 'C']","[779220, 779528, 780094, 780655, 781185, 781739, 782270, 782856, 783455, 784743, 785215, 785702, 786185, 786712, 787234, 787763, 788281, 788807, 789321, 789838, 790349, 790852, 791390, 791900, 792413]","[779388, 779813, 780342, 780865, 781413, 782030, 782626, 783267, 783866, 785007, 785506, 785985, 786463, 786969, 787573, 788066, 788591, 789132, 789644, 790166, 790634, 791194, 791690, 792201]","[121, 129, 125, 132, 125, 115, 131, 140, 121, 121, 118, 114, 112, 97, 78, 115, 102, 108, 107, 113, 112, 99, 98, 54]","[779312, 779634, 780199, 780750, 781301, 781893, 782496, 783076, 783458, 784859, 785360, 785845, 786342, 786853, 787238, 787933, 788398, 788972, 789324, 790028, 790510, 790856, 791558, 791905]","[779054, 779653, 780253, 780853, 781453, 782053, 782653, 783253, 784763, 785235, 785722, 786205, 786733, 787254, 787783, 788301, 788827, 789341, 789858, 790369, 790872, 791410, 791920, 792433]",70,OR,U,R,ITMSR,1.1
0,600,trial,0,31,31,31,trial,"['S', 'S', 'S', 'S', 'S', 'S', 'S', 'C', 'C', 'C', 'C', 'C', 'C', 'C', 'C', 'C', 'C', 'C', 'C', 'C', 'C', 'C', 'C']","[798353, 799028, 799578, 800186, 800835, 801453, 802077, 802689, 803359, 803942, 804550, 805116, 805682, 806272, 806819, 807386, 807931, 808495, 809062, 809619, 810150, 810713, 811248]","[798691, 799302, 799996, 800640, 801278, 801902, 802522, 803155, 803772, 804384, 804923, 805496, 806102, 806668, 807198, 807746, 808328, 808877, 809434, 809963, 810508, 811036]","[107, 91, 95, 100, 109, 79, 93, 89, 95, 108, 102, 100, 103, 90, 91, 99, 101, 104, 87, 92, 95, 67]","[798457, 799163, 799814, 800452, 801000, 801733, 802382, 803020, 803671, 804247, 804554, 805354, 805932, 806481, 807018, 807606, 808173, 808497, 809066, 809850, 810153, 810946]","[798191, 798791, 799391, 799991, 800591, 801191, 801792, 802392, 802709, 803379, 803962, 804570, 805136, 805702, 806292, 806839, 807406, 807951, 808515, 809082, 809639, 810170, 810733, 811268]",70,OR,U,R,ITMSR,1.1
1,600,trial,0,32,32,32,trial,"['S', 'S', 'S', 'S', 'S', 'S', 'S', 'S', 'C', 'C', 'C', 'C', 'C', 'C', 'C', 'C', 'C', 'C', 'C', 'C', 'C', 'C', 'C', 'C']","[816844, 817180, 817717, 818366, 818945, 819523, 820105, 820705, 821280, 821844, 822392, 822945, 823523, 824074, 824619, 825187, 825750, 826296, 826820, 827338, 827901, 828420, 828976, 829529]","[817021, 817500, 818125, 818734, 819310, 819885, 820453, 821011, 821609, 822178, 822736, 823325, 823887, 824408, 824962, 825511, 826092, 826543, 827079, 827577, 828134, 828689, 829243]","[80, 76, 34, 35, 28, 41, 53, 57, 69, 57, 55, 40, 22, 35, 37, 60, 32, 6, 31, 16, 67, 54, 63]","[816929, 817334, 817935, 818371, 819111, 819748, 820293, 820858, 821452, 822028, 822615, 823225, 823771, 824259, 824623, 825191, 825754, 826300, 826824, 827503, 827905, 828424, 828980]","[816652, 817252, 817852, 818452, 819052, 819652, 820252, 820852, 821300, 821864, 822412, 822965, 823543, 824094, 824639, 825207, 825771, 826316, 826840, 827358, 827921, 828440, 828996, 829549]",70,OR,U,R,ITMSR,1.1
2,400,trial,0,33,33,33,trial,"['S', 'S', 'S', 'S', 'S', 'S', 'S', 'S', 'C', 'C', 'C', 'C', 'C', 'C', 'C', 'C', 'C', 'C', 'C', 'C', 'C', 'C', 'C', 'C']","[835429, 835796, 836236, 836584, 836918, 837246, 837611, 837945, 838287, 838628, 838958, 839289, 839617, 839959, 840266, 840601, 840933, 841274, 841574, 841886, 842178, 842467, 842779, 843098]","[835619, 836055, 836415, 836751, 837086, 837408, 837767, 838125, 838475, 838787, 839089, 839403, 839743, 840071, 840374, 840683, 841024, 841361, 841676, 841974, 842270, 842556, 842864, 843176]","[105, 90, 61, 60, 9, 249, 34, 53, 58, 42, 30, 46, 243, 26, 39, 33, 26, 42, 36, 16, 0, 243, 239, 248]","[835525, 835800, 836240, 836588, 836922, 837252, 837615, 837949, 838291, 838633, 838962, 839293, 839622, 839963, 840271, 840606, 840938, 841279, 841578, 841891, 842183, 842471, 842784, 843103]","[835207, 835607, 836007, 836407, 836807, 837208, 837608, 838008, 838307, 838648, 838978, 839309, 839638, 839980, 840286, 840621, 840953, 841294, 841594, 841906, 842199, 842487, 842799, 843118]",70,OR,U,R,ITMSR,1.1
1,400,trial,0,34,34,34,trial,"['S', 'S', 'S', 'S', 'S', 'S', 'S', 'S', 'C', 'C', 'C', 'C', 'C', 'C', 'C', 'C', 'C', 'C', 'C', 'C', 'C', 'C', 'C', 'C']","[849025, 849410, 849775, 850140, 850503, 850850, 851190, 851507, 851842, 852217, 852556, 852933, 853265, 853628, 853952, 854296, 854659, 854991, 855311, 855633, 855986, 856290, 856588, 856898]","[849232, 849595, 849956, 850321, 850656, 850987, 851296, 851630, 851997, 852335, 852713, 853084, 853421, 853738, 854080, 854413, 854767, 855109, 855421, 855737, 856069, 856383, 856698, 856994]","[63, 56, 37, 29, 22, 31, 47, 43, 40, 42, 64, 81, 79, 69, 74, 55, 32, 63, 31, 15, 3, 39, 2, 1]","[849124, 849413, 849779, 850144, 850508, 850854, 851195, 851511, 851846, 852221, 852560, 852937, 853269, 853633, 853956, 854300, 854664, 854995, 855315, 855638, 855991, 856295, 856593, 856903]","[848789, 849188, 849588, 849988, 850388, 850788, 851188, 851588, 851862, 852237, 852576, 852953, 853285, 853648, 853972, 854317, 854679, 855011, 855331, 855653, 856006, 856310, 856608, 856919]",70,OR,U,R,ITMSR,1.1
3,600,trial,0,35,35,35,trial,"['S', 'S', 'S', 'S', 'S', 'S', 'S', 'S', 'C', 'C', 'C', 'C', 'C', 'C', 'C', 'C', 'C', 'C', 'C', 'C', 'C', 'C', 'C', 'C']","[862866, 863158, 863776, 864396, 864980, 865549, 866151, 866711, 867292, 867787, 868329, 868871, 869428, 869975, 870520, 871060, 871587, 872144, 872691, 873189, 873696, 874220, 874736, 875225]","[862985, 863473, 864109, 864705, 865273, 865815, 866390, 866924, 867492, 868034, 868551, 869074, 869624, 870173, 870691, 871243, 871791, 872328, 872839, 873380, 873883, 874394, 874896, 875433]","[7, 50, 69, 56, 71, 64, 63, 32, 42, 55, 56, 35, 57, 60, 53, 74, 55, 33, 59, 79, 70, 64, 75, 89]","[862927, 863162, 863780, 864400, 864985, 865553, 866155, 866716, 867297, 867791, 868333, 868875, 869433, 869978, 870525, 871064, 871590, 872148, 872695, 873193, 873700, 874224, 874739, 875228]","[862680, 863280, 863880, 864480, 865080, 865680, 866280, 866880, 867312, 867807, 868349, 868891, 869448, 869995, 870540, 871080, 871607, 872164, 872711, 873209, 873716, 874241, 874756, 875245]",70,OR,U,R,ITMSR,1.1
3,600,trial,0,36,36,36,trial,"['S', 'S', 'S', 'S', 'S', 'S', 'S', 'S', 'C', 'C', 'C', 'C', 'C', 'C', 'C', 'C', 'C', 'C', 'C', 'C', 'C', 'C', 'C', 'C']","[881127, 881479, 882038, 882663, 883264, 883836, 884424, 884978, 885610, 886100, 886673, 887230, 887791, 888324, 888879, 889443, 890018, 890556, 891106, 891641, 892189, 892745, 893254, 893766]","[881287, 881761, 882374, 882912, 883478, 884046, 884663, 885242, 885834, 886383, 886926, 887460, 888060, 888578, 889176, 889733, 890308, 890836, 891396, 891937, 892445, 892993, 893513, 894009]","[57, 45, 30, 55, 46, 26, 42, 51, 54, 43, 52, 53, 68, 71, 57, 41, 29, 66, 65, 40, 39, 51, 78, 64]","[881199, 881484, 882042, 882667, 883268, 883933, 884558, 885125, 885738, 886272, 886677, 887356, 887795, 888473, 889051, 889598, 890023, 890723, 891110, 891836, 892318, 892901, 893258, 893770]","[880945, 881544, 882144, 882744, 883344, 883944, 884544, 885144, 885630, 886120, 886693, 887250, 887811, 888344, 888899, 889463, 890038, 890576, 891126, 891661, 892209, 892765, 893274, 893786]",70,OR,U,R,ITMSR,1.1
0,400,trial,0,37,37,37,trial,"['S', 'S', 'S', 'S', 'S', 'S', 'S', 'S', 'C', 'C', 'C', 'C', 'C', 'C', 'C', 'C', 'C', 'C', 'C', 'C', 'C', 'C', 'C', 'C']","[899475, 899848, 900284, 900623, 900943, 901293, 901650, 902030, 902397, 902749, 903110, 903461, 903844, 904201, 904571, 904930, 905274, 905633, 905992, 906336, 906694, 907014, 907352, 907674]","[899662, 900126, 900463, 900775, 901092, 901437, 901806, 902182, 902572, 902878, 903240, 903586, 903965, 904333, 904691, 905040, 905400, 905748, 906114, 906449, 906808, 907106, 907435, 907738]","[23, 52, 58, 46, 39, 23, 29, 25, 50, 35, 38, 36, 42, 58, 47, 56, 43, 42, 32, 251, 12, 203, 239, 5]","[899578, 899852, 900289, 900628, 900947, 901297, 901654, 902034, 902402, 902753, 903113, 903465, 903848, 904205, 904574, 904935, 905279, 905638, 905996, 906341, 906699, 907019, 907357, 907678]","[899315, 899714, 900114, 900514, 900914, 901314, 901714, 902114, 902417, 902769, 903130, 903481, 903864, 904221, 904591, 904950, 905294, 905653, 906012, 906356, 906714, 907034, 907372, 907694]",70,OR,U,R,ITMSR,1.1
1,400,trial,0,38,38,38,trial,"['S', 'S', 'S', 'S', 'S', 'S', 'S', 'S', 'C', 'C', 'C', 'C', 'C', 'C', 'C', 'C', 'C', 'C', 'C', 'C', 'C', 'C', 'C', 'C', 'C', 'C']","[913591, 913968, 914265, 914590, 914947, 915311, 915664, 916029, 916449, 916820, 917187, 917529, 917863, 918235, 918577, 918915, 919244, 919608, 919923, 920272, 920598, 920924, 921192, 922307, 922886, 923130]","[913778, 914117, 914409, 914735, 915087, 915446, 915805, 916189, 916611, 916963, 917303, 917638, 917990, 918338, 918679, 919022, 919382, 919710, 920019, 920363, 920689, 920988, 921280, 922446, 922983]","[10, 33, 34, 61, 69, 74, 32, 57, 89, 68, 60, 24, 45, 51, 49, 23, 75, 50, 30, 17, 32, 35, 250, 49, 75]","[913699, 913973, 914269, 914593, 914950, 915315, 915668, 916033, 916452, 916825, 917190, 917534, 917867, 918238, 918581, 918919, 919247, 919612, 919927, 920276, 920602, 920929, 921198, 922382, 922890]","[913369, 913769, 914169, 914569, 914969, 915369, 915769, 916169, 916469, 916840, 917208, 917549, 917883, 918255, 918597, 918935, 919264, 919628, 919943, 920292, 920619, 920944, 922328, 922906]",70,OR,U,R,ITMSR,1.1
4,600,trial,0,39,39,39,trial,"['S', 'S', 'S', 'S', 'S', 'S', 'S', 'S', 'C', 'C', 'C', 'C', 'C', 'C', 'C', 'C', 'C', 'C', 'C', 'C', 'C', 'C', 'C', 'C']","[928724, 929028, 929482, 930053, 930614, 931197, 931818, 932428, 932973, 933536, 934055, 934593, 935150, 935732, 936278, 936828, 937348, 937892, 938439, 938976, 939546, 940062, 940561, 941096]","[928850, 929213, 929733, 930293, 930882, 931480, 932106, 932728, 933315, 933827, 934344, 934823, 935376, 936000, 936576, 937109, 937672, 938182, 938705, 939231, 939778, 940280, 940807, 941338]","[34, 73, 87, 65, 81, 90, 90, 77, 104, 84, 67, 83, 66, 63, 92, 87, 107, 98, 113, 103, 101, 95, 119, 114]","[928730, 929106, 929486, 930058, 930617, 931332, 931999, 932600, 932976, 933539, 934060, 934597, 935266, 935736, 936419, 936988, 937525, 938077, 938595, 939132, 939685, 940176, 940676, 941245]","[928435, 929035, 929635, 930235, 930835, 931435, 932035, 932635, 932994, 933556, 934075, 934614, 935170, 935752, 936298, 936848, 937368, 937912, 938459, 938996, 939566, 940082, 940581, 941116]",70,OR,U,R,ITMSR,1.1
3,400,trial,0,40,40,40,trial,"['S', 'S', 'S', 'S', 'S', 'S', 'S', 'S', 'S', 'C', 'C', 'C', 'C', 'C', 'C', 'C', 'C', 'C', 'C', 'C', 'C', 'C', 'C', 'C', 'C']","[946953, 947277, 947643, 947970, 948324, 948678, 949041, 949415, 949797, 950338, 950683, 951027, 951374, 951716, 952091, 952436, 952770, 953090, 953470, 953812, 954152, 954502, 954828, 955129, 955456]","[947115, 947488, 947815, 948115, 948472, 948822, 949181, 949573, 949921, 950494, 950825, 951156, 951494, 951839, 952193, 952532, 952872, 953201, 953565, 953931, 954248, 954600, 954924, 955209, 955544]","[53, 79, 72, 50, 73, 72, 60, 63, 12, 2, 15, 34, 36, 64, 38, 29, 50, 52, 53, 44, 69, 8, 33, 214, 22]","[947031, 947354, 947645, 947974, 948327, 948682, 949045, 949420, 949801, 950342, 950687, 951031, 951378, 951720, 952095, 952440, 952775, 953094, 953475, 953817, 954157, 954506, 954832, 955133, 955460]","[946761, 947161, 947561, 947961, 948361, 948761, 949161, 949561, 950359, 950703, 951047, 951394, 951736, 952111, 952456, 952791, 953110, 953490, 953832, 954172, 954522, 954848, 955149, 955476]",70,OR,U,R,ITMSR,1.1
2,600,trial,0,41,41,41,trial,"['S', 'S', 'S', 'S', 'S', 'S', 'S', 'S', 'C', 'C', 'C', 'C', 'C', 'C', 'C', 'C', 'C', 'C', 'C', 'C', 'C', 'C', 'C', 'C']","[961098, 961413, 961936, 962546, 963109, 963713, 964301, 964892, 965458, 965974, 966487, 967022, 967616, 968148, 968692, 969186, 969717, 970264, 970779, 971314, 971872, 972406, 972888, 973390]","[961238, 961652, 962284, 962871, 963465, 964054, 964640, 965208, 965753, 966261, 966790, 967371, 967904, 968387, 968913, 969461, 969976, 970487, 971021, 971546, 972068, 972614, 973069, 973589]","[26, 69, 65, 67, 60, 70, 61, 44, 61, 66, 54, 49, 58, 31, 40, 81, 48, 43, 55, 49, 30, 52, 35, 63]","[961101, 961417, 961940, 962708, 963113, 963716, 964305, 964896, 965642, 965978, 966491, 967026, 967620, 968300, 968817, 969190, 969857, 970386, 970924, 971318, 971959, 972410, 972893, 973393]","[960877, 961477, 962077, 962677, 963277, 963877, 964477, 965078, 965478, 965994, 966507, 967042, 967636, 968168, 968712, 969206, 969737, 970285, 970799, 971334, 971892, 972426, 972908, 973410]",70,OR,U,R,ITMSR,1.1
5,400,trial,0,42,42,42,trial,"['S', 'S', 'S', 'S', 'S', 'S', 'S', 'S', 'C', 'C', 'C', 'C', 'C', 'C', 'C', 'C', 'C', 'C', 'C', 'C', 'C', 'C', 'C', 'C']","[979021, 979379, 979713, 980027, 980407, 980780, 981170, 981562, 981935, 982320, 982704, 983049, 983400, 983774, 984123, 984478, 984851, 985196, 985556, 985910, 986237, 986582, 986914, 987247]","[979186, 979543, 979844, 980157, 980523, 980921, 981326, 981704, 982095, 982446, 982830, 983186, 983545, 983904, 984274, 984609, 984971, 985312, 985662, 986008, 986332, 986681, 987008, 987331]","[39, 77, 78, 82, 73, 63, 79, 73, 70, 84, 78, 75, 86, 81, 89, 74, 55, 65, 20, 25, 46, 36, 57, 50]","[979089, 979383, 979716, 980030, 980410, 980784, 981174, 981566, 981939, 982323, 982707, 983053, 983403, 983777, 984126, 984481, 984855, 985200, 985561, 985914, 986242, 986586, 986918, 987250]","[978833, 979233, 979633, 980033, 980433, 980833, 981233, 981634, 981955, 982340, 982724, 983069, 983420, 983794, 984143, 984498, 984871, 985217, 985576, 985930, 986257, 986602, 986934, 987267]",70,OR,U,R,ITMSR,1.1
2,400,trial,0,43,43,43,trial,"['S', 'S', 'S', 'S', 'S', 'S', 'S', 'S', 'S', 'C', 'C', 'C', 'C', 'C', 'C', 'C', 'C', 'C', 'C', 'C', 'C', 'C', 'C', 'C', 'C']","[992950, 993257, 993587, 993928, 994288, 994673, 995030, 995417, 995773, 996198, 996583, 996973, 997337, 997739, 998098, 998454, 998815, 999192, 999536, 999903, 1000258, 1000593, 1000949, 1001309, 1001649]","[993067, 993416, 993727, 994081, 994416, 994788, 995160, 995523, 995942, 996355, 996728, 997092, 997477, 997868, 998233, 998572, 998940, 999306, 999651, 1000033, 1000367, 1000737, 1001067, 1001423, 1001762]","[34, 72, 109, 72, 53, 31, 37, 49, 61, 92, 74, 73, 95, 93, 90, 58, 81, 104, 97, 102, 94, 96, 98, 103, 79]","[992954, 993261, 993589, 993931, 994292, 994677, 995033, 995421, 995776, 996202, 996587, 996976, 997340, 997742, 998103, 998458, 998819, 999195, 999539, 999906, 1000261, 1000596, 1000952, 1001312, 1001652]","[992728, 993128, 993528, 993928, 994328, 994728, 995128, 995528, 996218, 996603, 996994, 997357, 997760, 998118, 998474, 998835, 999213, 999556, 999923, 1000279, 1000613, 1000969, 1001329, 1001669]",70,OR,U,R,ITMSR,1.1
0,400,trial,0,44,44,44,trial,"['B', 'S', 'S', 'S', 'S', 'S', 'S', 'S', 'S', 'C', 'C', 'C', 'C', 'C', 'C', 'C', 'C', 'C', 'C', 'C', 'C', 'C', 'C', 'C', 'C']","[1007394, 1007645, 1008108, 1008471, 1008888, 1009288, 1009666, 1010077, 1010451, 1010829, 1011194, 1011578, 1011920, 1012289, 1012672, 1013032, 1013387, 1013758, 1014102, 1014450, 1014789, 1015136, 1015490, 1015815, 1016190]","[1007414, 1007866, 1008249, 1008638, 1009007, 1009397, 1009790, 1010172, 1010556, 1010949, 1011309, 1011677, 1012030, 1012387, 1012777, 1013143, 1013487, 1013849, 1014189, 1014545, 1014898, 1015240, 1015586, 1015913, 1016271]","[87, 62, 81, 87, 60, 77, 64, 29, 61, 83, 52, 45, 34, 31, 65, 55, 62, 47, 39, 31, 14, 33, 45, 57, 69]","[1007394, 1007649, 1008111, 1008474, 1008891, 1009292, 1009670, 1010081, 1010454, 1010833, 1011198, 1011582, 1011924, 1012293, 1012676, 1013037, 1013391, 1013763, 1014106, 1014454, 1014794, 1015141, 1015494, 1015819, 1016195]","[1007407, 1007807, 1008207, 1008607, 1009007, 1009408, 1009807, 1010207, 1010849, 1011214, 1011598, 1011940, 1012310, 1012692, 1013052, 1013407, 1013778, 1014122, 1014470, 1014809, 1015156, 1015511, 1015835, 1016210]",70,OR,U,R,ITMSR,1.1
5,600,trial,0,45,45,45,trial,"['S', 'S', 'S', 'S', 'S', 'S', 'S', 'S', 'C', 'C', 'C', 'C', 'C', 'C', 'C', 'C', 'C', 'C', 'C', 'C', 'C', 'C', 'C', 'C']","[1022035, 1022369, 1022867, 1023439, 1024016, 1024581, 1025166, 1025781, 1026383, 1026965, 1027545, 1028087, 1028638, 1029189, 1029752, 1030286, 1030791, 1031301, 1031820, 1032336, 1032852, 1033307, 1033798, 1034274]","[1022147, 1022575, 1023098, 1023705, 1024268, 1024887, 1025504, 1026096, 1026673, 1027253, 1027820, 1028345, 1028894, 1029426, 1029944, 1030458, 1031026, 1031508, 1032035, 1032545, 1033073, 1033544, 1034025, 1034467]","[17, 64, 60, 54, 45, 50, 33, 61, 52, 64, 82, 48, 65, 57, 51, 62, 50, 67, 89, 89, 72, 66, 65, 77]","[1022041, 1022373, 1022871, 1023443, 1024020, 1024584, 1025171, 1025785, 1026387, 1026969, 1027548, 1028091, 1028642, 1029193, 1029756, 1030290, 1030795, 1031305, 1031823, 1032340, 1032855, 1033311, 1033802, 1034278]","[1021844, 1022444, 1023044, 1023644, 1024244, 1024844, 1025444, 1026044, 1026403, 1026985, 1027565, 1028107, 1028658, 1029209, 1029772, 1030306, 1030811, 1031321, 1031840, 1032356, 1032872, 1033327, 1033818, 1034294]",70,OR,U,R,ITMSR,1.1
4,400,trial,0,46,46,46,trial,"['S', 'S', 'S', 'S', 'S', 'S', 'S', 'C', 'C', 'C', 'C', 'C', 'C', 'C', 'C', 'C', 'C', 'C', 'C', 'C', 'C', 'C', 'C']","[1039937, 1040311, 1040806, 1041178, 1041575, 1041939, 1042352, 1042742, 1043138, 1043483, 1043856, 1044227, 1044583, 1044942, 1045305, 1045679, 1046046, 1046405, 1046740, 1047080, 1047413, 1047781, 1048132]","[1040046, 1040455, 1040916, 1041291, 1041700, 1042079, 1042488, 1042869, 1043261, 1043606, 1043982, 1044357, 1044717, 1045064, 1045394, 1045782, 1046167, 1046507, 1046850, 1047169, 1047506, 1047854, 1048245]","[246, 7, 78, 95, 114, 92, 77, 92, 81, 81, 91, 74, 72, 33, 54, 6, 73, 70, 68, 61, 44, 69, 77]","[1039942, 1040314, 1040811, 1041181, 1041580, 1041943, 1042356, 1042746, 1043142, 1043486, 1043859, 1044231, 1044586, 1044946, 1045309, 1045683, 1046049, 1046408, 1046744, 1047084, 1047417, 1047784, 1048135]","[1039664, 1040064, 1040464, 1040864, 1041264, 1041665, 1042064, 1042464, 1042762, 1043159, 1043503, 1043876, 1044247, 1044603, 1044962, 1045325, 1045699, 1046066, 1046425, 1046760, 1047100, 1047433, 1047801, 1048152]",70,OR,U,R,ITMSR,1.1
5,600,trial,0,47,47,47,trial,"['S', 'S', 'S', 'S', 'S', 'S', 'S', 'S', 'C', 'C', 'C', 'C', 'C', 'C', 'C', 'C', 'C', 'C', 'C', 'C', 'C', 'C', 'C', 'C']","[1053768, 1054077, 1054557, 1055180, 1055755, 1056320, 1056863, 1057437, 1058024, 1058585, 1059150, 1059677, 1060217, 1060740, 1061273, 1061804, 1062325, 1062844, 1063358, 1063843, 1064320, 1064828, 1065297, 1065775]","[1053889, 1054282, 1054806, 1055405, 1055974, 1056566, 1057166, 1057753, 1058345, 1058889, 1059435, 1059970, 1060485, 1061000, 1061496, 1062023, 1062509, 1063040, 1063562, 1064081, 1064573, 1065034, 1065474, 1065925]","[33, 82, 109, 90, 105, 100, 107, 116, 97, 94, 95, 82, 96, 108, 106, 91, 78, 76, 45, 78, 109, 78, 48, 47]","[1053833, 1054082, 1054560, 1055183, 1055759, 1056427, 1056866, 1057441, 1058027, 1058588, 1059153, 1059681, 1060221, 1060744, 1061276, 1061807, 1062329, 1062847, 1063362, 1063847, 1064323, 1064833, 1065302, 1065779]","[1053539, 1054138, 1054738, 1055338, 1055938, 1056538, 1057138, 1057738, 1058044, 1058605, 1059170, 1059697, 1060237, 1060760, 1061293, 1061824, 1062345, 1062864, 1063378, 1063863, 1064340, 1064848, 1065317, 1065795]",70,OR,U,R,ITMSR,1.1
1,600,trial,0,48,48,48,trial,"['S', 'S', 'S', 'S', 'S', 'S', 'S', 'S', 'C', 'C', 'C', 'C', 'C', 'C', 'C', 'C', 'C', 'C', 'C', 'C', 'C', 'C', 'C', 'C']","[1071593, 1071916, 1072494, 1073083, 1073700, 1074338, 1074944, 1075506, 1076104, 1076661, 1077239, 1077811, 1078385, 1078925, 1079571, 1080196, 1080754, 1081328, 1081867, 1082395, 1082933, 1083474, 1084012, 1084526]","[1071739, 1072206, 1072807, 1073396, 1074030, 1074630, 1075249, 1075770, 1076396, 1076977, 1077567, 1078142, 1078729, 1079347, 1079964, 1080481, 1081041, 1081594, 1082134, 1082664, 1083169, 1083742, 1084231, 1084727]","[57, 122, 118, 122, 125, 111, 113, 109, 101, 88, 107, 89, 100, 97, 103, 72, 101, 97, 104, 108, 111, 111, 95, 65]","[1071662, 1072001, 1072671, 1073086, 1073703, 1074341, 1074947, 1075509, 1076107, 1076664, 1077242, 1077814, 1078388, 1078928, 1079575, 1080199, 1080757, 1081331, 1081870, 1082398, 1082937, 1083478, 1084016, 1084529]","[1071412, 1072012, 1072612, 1073212, 1073812, 1074412, 1075012, 1075612, 1076124, 1076681, 1077259, 1077831, 1078405, 1078945, 1079591, 1080216, 1080774, 1081348, 1081887, 1082415, 1082953, 1083494, 1084033, 1084546]",70,OR,U,R,ITMSR,1.1
0,600,trial,0,49,49,49,trial,"['S', 'S', 'S', 'S', 'S', 'S', 'S', 'S', 'C', 'C', 'C', 'C', 'C', 'C', 'C', 'C', 'C', 'C', 'C', 'C', 'C', 'C', 'C', 'C']","[1090247, 1090581, 1091182, 1091761, 1092321, 1092921, 1093496, 1094076, 1094669, 1095226, 1095805, 1096380, 1096943, 1097506, 1098050, 1098599, 1099096, 1099612, 1100118, 1100615, 1101176, 1101770, 1102288, 1102833]","[1090436, 1090861, 1091360, 1091941, 1092542, 1093151, 1093755, 1094349, 1094934, 1095458, 1096037, 1096588, 1097152, 1097690, 1098237, 1098748, 1099297, 1099796, 1100340, 1100861, 1101454, 1101990, 1102529, 1103074]","[66, 105, 90, 107, 77, 73, 68, 71, 90, 72, 94, 83, 92, 76, 77, 94, 96, 76, 84, 90, 113, 105, 101, 113]","[1090360, 1090708, 1091281, 1091764, 1092325, 1092925, 1093500, 1094080, 1094672, 1095230, 1095810, 1096383, 1096947, 1097510, 1098053, 1098602, 1099099, 1099616, 1100122, 1100619, 1101179, 1101773, 1102292, 1102836]","[1089999, 1090599, 1091200, 1091800, 1092400, 1093000, 1093600, 1094200, 1094689, 1095246, 1095825, 1096400, 1096963, 1097526, 1098071, 1098619, 1099116, 1099632, 1100138, 1100635, 1101196, 1101790, 1102308, 1102853]",70,OR,U,R,ITMSR,1.1
5,400,trial,0,50,50,50,trial,"['S', 'S', 'S', 'S', 'S', 'S', 'S', 'S', 'C', 'C', 'C', 'C', 'C', 'C', 'C', 'C', 'C', 'C', 'C', 'C', 'C', 'C', 'C', 'C']","[1108833, 1109138, 1109504, 1109822, 1110169, 1110564, 1110944, 1111357, 1111727, 1112120, 1112489, 1112882, 1113243, 1113624, 1113997, 1114357, 1114711, 1115052, 1115437, 1115822, 1116171, 1116535, 1116871, 1117242]","[1108934, 1109336, 1109653, 1109967, 1110277, 1110662, 1111018, 1111456, 1111834, 1112190, 1112564, 1112958, 1113336, 1113721, 1114082, 1114438, 1114787, 1115117, 1115505, 1115889, 1116257, 1116617, 1116985, 1117321]","[201, 47, 78, 75, 36, 210, 156, 193, 244, 20, 38, 12, 54, 28, 22, 2, 7, 10, 227, 56, 55, 31, 30, 45]","[1108887, 1109143, 1109509, 1109826, 1110173, 1110571, 1110950, 1111362, 1111732, 1112124, 1112494, 1112886, 1113247, 1113628, 1114001, 1114362, 1114715, 1115056, 1115441, 1115826, 1116174, 1116539, 1116875, 1117246]","[1108638, 1109038, 1109438, 1109838, 1110238, 1110638, 1111038, 1111438, 1111747, 1112140, 1112509, 1112902, 1113263, 1113645, 1114017, 1114377, 1114731, 1115072, 1115457, 1115842, 1116191, 1116555, 1116891, 1117262]",70,OR,U,R,ITMSR,1.1
2,600,trial,0,51,51,51,trial,"['S', 'S', 'S', 'S', 'S', 'S', 'S', 'S', 'C', 'C', 'C', 'C', 'C', 'C', 'C', 'C', 'C', 'C', 'C', 'C', 'C', 'C', 'C', 'C']","[1123086, 1123387, 1123919, 1124501, 1125022, 1125625, 1126198, 1126838, 1127455, 1127958, 1128488, 1129052, 1129606, 1130172, 1130687, 1131237, 1131760, 1132308, 1132824, 1133378, 1133872, 1134379, 1134857, 1135336]","[1123198, 1123609, 1124176, 1124750, 1125314, 1125903, 1126491, 1127095, 1127685, 1128253, 1128777, 1129294, 1129881, 1130415, 1130935, 1131428, 1131978, 1132491, 1133040, 1133608, 1134095, 1134592, 1135105, 1135584]","[12, 73, 91, 75, 83, 91, 93, 110, 73, 92, 96, 102, 92, 116, 77, 44, 99, 69, 95, 83, 112, 117, 103, 122]","[1123139, 1123391, 1123923, 1124504, 1125026, 1125628, 1126201, 1126841, 1127587, 1127961, 1128491, 1129055, 1129609, 1130175, 1130691, 1131348, 1131763, 1132425, 1132828, 1133382, 1133876, 1134382, 1134859, 1135340]","[1122874, 1123474, 1124074, 1124674, 1125274, 1125874, 1126474, 1127074, 1127475, 1127979, 1128508, 1129072, 1129626, 1130192, 1130707, 1131257, 1131780, 1132328, 1132845, 1133399, 1133892, 1134399, 1134877, 1135356]",70,OR,U,R,ITMSR,1.1
3,400,trial,0,52,52,52,trial,"['S', 'S', 'S', 'S', 'S', 'S', 'S', 'S', 'S', 'C', 'C', 'C', 'C', 'C', 'C', 'C', 'C', 'C', 'C', 'C', 'C', 'C', 'C', 'C', 'C']","[1141029, 1141396, 1141796, 1142164, 1142526, 1142859, 1143170, 1143460, 1143780, 1144126, 1144480, 1144846, 1145256, 1145610, 1145953, 1146291, 1146632, 1146971, 1147328, 1147639, 1147974, 1148314, 1148652, 1148990, 1149300]","[1141222, 1141579, 1141919, 1142280, 1142635, 1142975, 1143270, 1143562, 1143885, 1144242, 1144589, 1144948, 1145371, 1145723, 1146064, 1146398, 1146734, 1147053, 1147376, 1147732, 1148058, 1148394, 1148745, 1149069, 1149394]","[35, 23, 248, 33, 17, 12, 20, 236, 14, 5, 252, 21, 50, 48, 45, 14, 29, 11, 251, 24, 1, 43, 231, 5, 56]","[1141142, 1141489, 1141803, 1142168, 1142531, 1142863, 1143175, 1143465, 1143785, 1144131, 1144485, 1144851, 1145318, 1145614, 1145957, 1146296, 1146636, 1146975, 1147332, 1147644, 1147979, 1148318, 1148656, 1148995, 1149304]","[1140749, 1141149, 1141549, 1141949, 1142349, 1142749, 1143149, 1143549, 1144146, 1144500, 1144866, 1145276, 1145630, 1145973, 1146311, 1146652, 1146991, 1147348, 1147659, 1147994, 1148334, 1148673, 1149010, 1149320]",70,OR,U,R,ITMSR,1.1
4,400,trial,0,53,53,53,trial,"['S', 'S', 'S', 'S', 'S', 'S', 'S', 'S', 'S', 'C', 'C', 'C', 'C', 'C', 'C', 'C', 'C', 'C', 'C', 'C', 'C', 'C', 'C', 'C', 'C']","[1155176, 1155487, 1155818, 1156154, 1156517, 1156883, 1157283, 1157657, 1158051, 1158439, 1158808, 1159169, 1159527, 1159889, 1160273, 1160606, 1160964, 1161305, 1161634, 1162014, 1162348, 1162713, 1163045, 1163379, 1163699]","[1155291, 1155625, 1155928, 1156293, 1156655, 1157046, 1157431, 1157806, 1158214, 1158588, 1158930, 1159267, 1159630, 1160009, 1160376, 1160727, 1161056, 1161412, 1161730, 1162117, 1162446, 1162785, 1163123, 1163454, 1163774]","[213, 46, 230, 249, 40, 1, 246, 252, 44, 21, 232, 22, 175, 12, 24, 7, 17, 238, 243, 248, 1, 28, 252, 243, 18]","[1155246, 1155491, 1155823, 1156158, 1156521, 1156885, 1157287, 1157662, 1158055, 1158445, 1158813, 1159174, 1159532, 1159894, 1160278, 1160610, 1160968, 1161309, 1161639, 1162018, 1162352, 1162718, 1163049, 1163383, 1163704]","[1155028, 1155428, 1155828, 1156228, 1156628, 1157028, 1157428, 1157828, 1158459, 1158829, 1159189, 1159547, 1159909, 1160293, 1160626, 1160984, 1161325, 1161654, 1162034, 1162369, 1162733, 1163065, 1163399, 1163719]",70,OR,U,R,ITMSR,1.1
3,400,trial,0,54,54,54,trial,"['S', 'S', 'S', 'S', 'S', 'S', 'S', 'S', 'C', 'C', 'C', 'C', 'C', 'C', 'C', 'C', 'C', 'C', 'C', 'C', 'C', 'C', 'C', 'C']","[1199513, 1199787, 1200092, 1200468, 1200847, 1201242, 1201656, 1202001, 1202383, 1202721, 1203062, 1203432, 1203772, 1204136, 1204475, 1204879, 1205245, 1205565, 1205940, 1206289, 1206636, 1207005, 1207344, 1207678]","[1199654, 1199910, 1200230, 1200602, 1200973, 1201375, 1201755, 1202126, 1202485, 1202821, 1203154, 1203514, 1203857, 1204235, 1204569, 1204948, 1205334, 1205694, 1206063, 1206419, 1206755, 1207097, 1207436, 1207747]","[7, 30, 72, 110, 56, 63, 21, 63, 70, 56, 44, 53, 58, 60, 65, 79, 69, 76, 80, 56, 54, 27, 61, 68]","[1199577, 1199854, 1200096, 1200472, 1200851, 1201246, 1201660, 1202006, 1202386, 1202725, 1203066, 1203436, 1203776, 1204141, 1204480, 1204883, 1205249, 1205568, 1205943, 1206293, 1206640, 1207009, 1207347, 1207683]","[1199278, 1199678, 1200078, 1200478, 1200878, 1201278, 1201678, 1202078, 1202403, 1202741, 1203082, 1203452, 1203792, 1204156, 1204495, 1204899, 1205265, 1205585, 1205960, 1206309, 1206657, 1207025, 1207364, 1207698]",70,OR,U,R,ITMSR,1.1
1,400,trial,0,55,55,55,trial,"['B', 'S', 'S', 'S', 'S', 'S', 'S', 'S', 'S', 'C', 'C', 'C', 'C', 'C', 'C', 'C', 'C', 'C', 'C', 'C', 'C', 'C', 'C', 'C', 'C']","[1213057, 1213327, 1213709, 1214097, 1214485, 1214863, 1215251, 1215645, 1216022, 1216403, 1216812, 1217200, 1217559, 1217952, 1218281, 1218641, 1219001, 1219399, 1219793, 1220145, 1220509, 1220834, 1221192, 1221556, 1221915]","[1213121, 1213452, 1213840, 1214246, 1214633, 1215003, 1215396, 1215767, 1216181, 1216564, 1216977, 1217330, 1217690, 1218062, 1218415, 1218768, 1219131, 1219524, 1219865, 1220260, 1220603, 1220930, 1221283, 1221647, 1221998]","[138, 5, 39, 59, 36, 51, 50, 54, 60, 42, 29, 40, 29, 56, 58, 60, 53, 52, 39, 119, 57, 52, 44, 59, 55]","[1213070, 1213331, 1213714, 1214101, 1214490, 1214867, 1215255, 1215649, 1216026, 1216407, 1216816, 1217205, 1217563, 1217956, 1218285, 1218646, 1219005, 1219403, 1219798, 1220151, 1220513, 1220838, 1221196, 1221560, 1221919]","[1213068, 1213468, 1213869, 1214269, 1214669, 1215069, 1215469, 1215869, 1216423, 1216832, 1217220, 1217580, 1217972, 1218301, 1218661, 1219021, 1219419, 1219813, 1220165, 1220529, 1220854, 1221212, 1221576, 1221935]",70,OR,U,R,ITMSR,1.1
0,600,trial,0,56,56,56,trial,"['S', 'S', 'S', 'S', 'S', 'S', 'S', 'S', 'C', 'C', 'C', 'C', 'C', 'C', 'C', 'C', 'C', 'C', 'C', 'C', 'C', 'C', 'C', 'C']","[1227859, 1228167, 1228756, 1229365, 1229968, 1230556, 1231141, 1231731, 1232329, 1232882, 1233397, 1233971, 1234552, 1235098, 1235657, 1236198, 1236728, 1237266, 1237821, 1238364, 1238860, 1239359, 1239831, 1240310]","[1227974, 1228395, 1229017, 1229641, 1230244, 1230783, 1231383, 1231975, 1232559, 1233105, 1233672, 1234213, 1234785, 1235310, 1235907, 1236445, 1236993, 1237536, 1238065, 1238587, 1239058, 1239568, 1240029, 1240526]","[30, 28, 74, 78, 72, 41, 26, 34, 48, 25, 38, 74, 69, 76, 79, 45, 65, 47, 48, 19, 237, 13, 52, 59]","[1227864, 1228172, 1228760, 1229369, 1229971, 1230560, 1231145, 1231735, 1232332, 1232886, 1233401, 1233975, 1234556, 1235101, 1235661, 1236202, 1236731, 1237269, 1237825, 1238368, 1238996, 1239362, 1239834, 1240314]","[1227656, 1228255, 1228855, 1229455, 1230055, 1230655, 1231255, 1231855, 1232349, 1232902, 1233417, 1233991, 1234572, 1235118, 1235677, 1236218, 1236748, 1237286, 1237841, 1238384, 1238880, 1239379, 1239852, 1240330]",70,OR,U,R,ITMSR,1.1
5,400,trial,0,57,57,57,trial,"['S', 'S', 'S', 'S', 'S', 'S', 'S', 'S', 'C', 'C', 'C', 'C', 'C', 'C', 'C', 'C', 'C', 'C', 'C', 'C', 'C', 'C', 'C', 'C']","[1245964, 1246352, 1246763, 1247132, 1247474, 1247789, 1248084, 1248468, 1248820, 1249155, 1249529, 1250254, 1250599, 1250928, 1251261, 1251620, 1251994, 1252339, 1252667, 1253009, 1253369, 1253707, 1254047, 1254401]","[1246108, 1246480, 1246882, 1247227, 1247572, 1247878, 1248193, 1248547, 1248919, 1249260, 1249628, 1250323, 1250666, 1250999, 1251345, 1251695, 1252076, 1252436, 1252784, 1253100, 1253462, 1253817, 1254161, 1254499]","[3, 39, 243, 227, 223, 210, 195, 69, 220, 230, 170, 192, 155, 205, 201, 212, 186, 13, 1, 246, 224, 249, 211, 2]","[1246033, 1246357, 1246768, 1247137, 1247479, 1247794, 1248090, 1248475, 1248824, 1249160, 1249534, 1250258, 1250605, 1250933, 1251267, 1251625, 1252000, 1252343, 1252671, 1253013, 1253373, 1253711, 1254052, 1254406]","[1245692, 1246092, 1246492, 1246893, 1247293, 1247693, 1248093, 1248493, 1248840, 1249175, 1249549, 1250274, 1250619, 1250948, 1251281, 1251640, 1252014, 1252359, 1252687, 1253029, 1253389, 1253727, 1254067, 1254421]",70,OR,U,R,ITMSR,1.1
2,400,trial,0,58,58,58,trial,"['S', 'S', 'S', 'S', 'S', 'S', 'S', 'S', 'C', 'C', 'C', 'C', 'C', 'C', 'C', 'C', 'C', 'C', 'C', 'C', 'C', 'C', 'C', 'C']","[1260136, 1260459, 1260801, 1261171, 1261542, 1261913, 1262306, 1262706, 1263114, 1263475, 1263842, 1264195, 1264580, 1264999, 1265333, 1265690, 1266008, 1266364, 1266675, 1267034, 1267400, 1267763, 1268100, 1268466]","[1260247, 1260582, 1260925, 1261293, 1261670, 1262043, 1262448, 1262815, 1263218, 1263580, 1263927, 1264303, 1264665, 1265108, 1265444, 1265782, 1266097, 1266432, 1266761, 1267118, 1267504, 1267834, 1268188, 1268541]","[26, 48, 21, 54, 55, 71, 62, 12, 30, 64, 64, 49, 44, 167, 45, 10, 35, 30, 22, 11, 33, 26, 39, 3]","[1260141, 1260462, 1260804, 1261174, 1261546, 1261917, 1262309, 1262710, 1263118, 1263479, 1263845, 1264199, 1264584, 1265005, 1265337, 1265695, 1266012, 1266368, 1266679, 1267039, 1267404, 1267767, 1268104, 1268470]","[1259953, 1260353, 1260753, 1261153, 1261553, 1261954, 1262354, 1262754, 1263134, 1263495, 1263862, 1264216, 1264600, 1265019, 1265353, 1265710, 1266028, 1266384, 1266695, 1267054, 1267420, 1267783, 1268120, 1268486]",70,OR,U,R,ITMSR,1.1
5,400,trial,0,59,59,59,trial,"['S', 'S', 'S', 'S', 'S', 'S', 'S', 'S', 'S', 'C', 'C', 'C', 'C', 'C', 'C', 'C', 'C', 'C', 'C', 'C', 'C', 'C', 'C', 'C', 'C']","[1274155, 1274443, 1274761, 1275173, 1275526, 1275872, 1276232, 1276613, 1276993, 1277378, 1277758, 1278117, 1278476, 1278851, 1279187, 1279544, 1279879, 1280241, 1280609, 1280960, 1281297, 1281618, 1281980, 1282302, 1282629]","[1274247, 1274557, 1274891, 1275275, 1275629, 1275987, 1276358, 1276729, 1277131, 1277533, 1277884, 1278233, 1278615, 1278962, 1279291, 1279637, 1279981, 1280331, 1280691, 1281024, 1281376, 1281720, 1282062, 1282390, 1282754]","[157, 237, 36, 230, 231, 33, 40, 253, 26, 27, 34, 19, 51, 29, 16, 50, 28, 32, 49, 24, 7, 18, 15, 40, 21]","[1274199, 1274448, 1274765, 1275179, 1275530, 1275876, 1276236, 1276618, 1276997, 1277383, 1277763, 1278121, 1278480, 1278856, 1279193, 1279548, 1279883, 1280245, 1280613, 1280964, 1281301, 1281624, 1281984, 1282308, 1282633]","[1273952, 1274352, 1274753, 1275152, 1275552, 1275952, 1276352, 1276752, 1277399, 1277778, 1278137, 1278496, 1278871, 1279207, 1279564, 1279899, 1280261, 1280629, 1280980, 1281317, 1281638, 1282000, 1282322, 1282649]",70,OR,U,R,ITMSR,1.1
3,600,trial,0,60,60,60,trial,"['S', 'S', 'S', 'S', 'S', 'S', 'S', 'S', 'C', 'C', 'C', 'C', 'C', 'C', 'C', 'C', 'C', 'C', 'C', 'C', 'C', 'C', 'C', 'C']","[1288286, 1288593, 1289122, 1289703, 1290305, 1290902, 1291497, 1292101, 1292718, 1293242, 1293789, 1294331, 1294877, 1295418, 1295976, 1296526, 1297055, 1297603, 1298131, 1298630, 1299109, 1299604, 1300103, 1300592]","[1288388, 1288823, 1289388, 1289943, 1290523, 1291092, 1291754, 1292357, 1292937, 1293487, 1294063, 1294597, 1295135, 1295672, 1296262, 1296768, 1297304, 1297857, 1298356, 1298844, 1299343, 1299835, 1300316, 1300830]","[223, 244, 26, 45, 10, 208, 250, 219, 23, 15, 14, 15, 226, 253, 251, 6, 31, 21, 8, 252, 21, 29, 29, 17]","[1288293, 1288597, 1289126, 1289707, 1290310, 1290907, 1291502, 1292105, 1292722, 1293246, 1293794, 1294336, 1294881, 1295422, 1295980, 1296530, 1297059, 1297607, 1298137, 1298757, 1299115, 1299608, 1300107, 1300596]","[1288080, 1288680, 1289280, 1289880, 1290480, 1291080, 1291680, 1292280, 1292738, 1293262, 1293809, 1294351, 1294897, 1295438, 1295996, 1296546, 1297075, 1297624, 1298151, 1298650, 1299129, 1299624, 1300123, 1300612]",70,OR,U,R,ITMSR,1.1
4,600,trial,0,61,61,61,trial,"['S', 'S', 'S', 'S', 'S', 'S', 'S', 'S', 'C', 'C', 'C', 'C', 'C', 'C', 'C', 'C', 'C', 'C', 'C', 'C', 'C', 'C', 'C', 'C']","[1306419, 1306748, 1307280, 1307877, 1308507, 1309122, 1309728, 1310369, 1310935, 1311480, 1312016, 1312576, 1313123, 1313665, 1314169, 1314720, 1315237, 1315823, 1316374, 1316947, 1317492, 1318092, 1318620, 1319148]","[1306562, 1306973, 1307470, 1308094, 1308710, 1309326, 1309962, 1310592, 1311187, 1311706, 1312200, 1312741, 1313320, 1313881, 1314396, 1314948, 1315479, 1316075, 1316623, 1317184, 1317722, 1318230, 1318807, 1319411]","[53, 19, 61, 4, 43, 18, 208, 18, 9, 238, 4, 23, 62, 48, 24, 38, 24, 47, 58, 61, 18, 247, 46, 55]","[1306423, 1306753, 1307284, 1307881, 1308511, 1309126, 1309733, 1310373, 1310939, 1311484, 1312021, 1312581, 1313127, 1313772, 1314173, 1314724, 1315241, 1315827, 1316377, 1316952, 1317496, 1318096, 1318624, 1319153]","[1306232, 1306832, 1307432, 1308033, 1308632, 1309232, 1309832, 1310432, 1310955, 1311500, 1312036, 1312596, 1313143, 1313685, 1314189, 1314740, 1315257, 1315843, 1316395, 1316967, 1317512, 1318112, 1318640, 1319169]",70,OR,U,R,ITMSR,1.1
5,600,trial,0,62,62,62,trial,"['S', 'S', 'S', 'S', 'S', 'S', 'S', 'S', 'C', 'C', 'C', 'C', 'C', 'C', 'C', 'C', 'C', 'C', 'C', 'C', 'C', 'C', 'C', 'C']","[1324916, 1325256, 1325789, 1326371, 1326946, 1327549, 1328126, 1328781, 1329376, 1329912, 1330476, 1331030, 1331562, 1332100, 1332667, 1333168, 1333673, 1334267, 1334802, 1335306, 1335796, 1336322, 1336805, 1337330]","[1325074, 1325500, 1326075, 1326687, 1327230, 1327791, 1328407, 1329003, 1329595, 1330118, 1330674, 1331254, 1331735, 1332288, 1332835, 1333398, 1333914, 1334446, 1334987, 1335504, 1336009, 1336513, 1337009, 1337594]","[31, 106, 75, 56, 243, 43, 9, 249, 9, 28, 19, 54, 172, 26, 252, 246, 26, 236, 231, 212, 198, 239, 255, 1]","[1325003, 1325259, 1325793, 1326375, 1327105, 1327553, 1328131, 1328897, 1329380, 1329916, 1330480, 1331034, 1331677, 1332103, 1332671, 1333173, 1333677, 1334272, 1334807, 1335420, 1335928, 1336326, 1336809, 1337334]","[1324670, 1325270, 1325869, 1326469, 1327069, 1327669, 1328269, 1328869, 1329396, 1329932, 1330496, 1331050, 1331582, 1332120, 1332687, 1333188, 1333693, 1334287, 1334822, 1335326, 1335816, 1336342, 1336825, 1337350]",70,OR,U,R,ITMSR,1.1
0,600,trial,0,63,63,63,trial,"['S', 'S', 'S', 'S', 'S', 'S', 'S', 'S', 'C', 'C', 'C', 'C', 'C', 'C', 'C', 'C', 'C', 'C', 'C', 'C', 'C', 'C', 'C', 'C']","[1343053, 1343374, 1343904, 1344483, 1345089, 1345673, 1346304, 1346941, 1347549, 1348083, 1348584, 1349110, 1349622, 1350133, 1350637, 1351188, 1351724, 1352221, 1352741, 1353238, 1353767, 1354335, 1354853, 1355370]","[1343218, 1343609, 1344185, 1344778, 1345385, 1345977, 1346610, 1347252, 1347802, 1348314, 1348806, 1349302, 1349830, 1350372, 1350892, 1351399, 1351927, 1352456, 1352982, 1353468, 1354005, 1354576, 1355062, 1355563]","[41, 78, 56, 30, 50, 32, 25, 253, 15, 25, 19, 43, 14, 20, 32, 23, 22, 44, 8, 18, 46, 23, 11, 35]","[1343139, 1343491, 1344048, 1344659, 1345093, 1345793, 1346499, 1347138, 1347718, 1348211, 1348588, 1349114, 1349748, 1350274, 1350789, 1351192, 1351728, 1352225, 1352745, 1353395, 1353772, 1354339, 1354994, 1355374]","[1342819, 1343419, 1344019, 1344619, 1345219, 1345819, 1346419, 1347019, 1347569, 1348103, 1348604, 1349130, 1349642, 1350153, 1350658, 1351208, 1351744, 1352241, 1352761, 1353259, 1353787, 1354355, 1354873, 1355390]",70,OR,U,R,ITMSR,1.1
4,400,trial,0,64,64,64,trial,"['S', 'S', 'S', 'S', 'S', 'S', 'S', 'S', 'C', 'C', 'C', 'C', 'C', 'C', 'C', 'C', 'C', 'C', 'C', 'C', 'C', 'C', 'C', 'C']","[1361030, 1361348, 1361760, 1362149, 1362504, 1362851, 1363219, 1363564, 1363934, 1364299, 1364635, 1364987, 1365351, 1365710, 1366088, 1366417, 1366794, 1367129, 1367491, 1367837, 1368152, 1368519, 1368853, 1369190]","[1361181, 1361555, 1361926, 1362300, 1362685, 1363051, 1363384, 1363701, 1364039, 1364408, 1364732, 1365102, 1365437, 1365783, 1366165, 1366543, 1366897, 1367259, 1367593, 1367952, 1368278, 1368627, 1368957, 1369302]","[251, 24, 21, 191, 237, 246, 11, 227, 166, 214, 156, 222, 118, 192, 141, 215, 173, 163, 153, 198, 216, 198, 204, 213]","[1361107, 1361448, 1361764, 1362153, 1362507, 1362855, 1363223, 1363568, 1363939, 1364304, 1364640, 1364990, 1365356, 1365714, 1366092, 1366421, 1366798, 1367134, 1367495, 1367842, 1368156, 1368524, 1368857, 1369195]","[1360760, 1361160, 1361560, 1361960, 1362360, 1362760, 1363160, 1363560, 1363954, 1364319, 1364655, 1365007, 1365371, 1365730, 1366108, 1366437, 1366814, 1367149, 1367512, 1367857, 1368172, 1368539, 1368873, 1369210]",70,OR,U,R,ITMSR,1.1
3,400,trial,0,65,65,65,trial,"['B', 'S', 'S', 'S', 'S', 'S', 'S', 'S', 'C', 'C', 'C', 'C', 'C', 'C', 'C', 'C', 'C', 'C', 'C', 'C', 'C', 'C', 'C', 'C']","[1374942, 1375266, 1375679, 1376073, 1376524, 1376894, 1377285, 1377666, 1378044, 1378432, 1378809, 1379171, 1379540, 1379914, 1380279, 1380636, 1380996, 1381384, 1381728, 1382063, 1382430, 1382788, 1383146, 1383511]","[1374994, 1375461, 1375866, 1376259, 1376659, 1377044, 1377409, 1377772, 1378160, 1378538, 1378911, 1379277, 1379642, 1380032, 1380396, 1380766, 1381141, 1381501, 1381865, 1382178, 1382564, 1382915, 1383265, 1383610]","[212, 27, 53, 71, 49, 77, 59, 59, 63, 35, 52, 7, 22, 42, 55, 51, 86, 83, 81, 65, 64, 71, 63, 68]","[1374942, 1375270, 1375683, 1376077, 1376528, 1376898, 1377288, 1377670, 1378049, 1378436, 1378812, 1379175, 1379545, 1379917, 1380282, 1380639, 1380999, 1381387, 1381731, 1382067, 1382434, 1382791, 1383149, 1383514]","[1374953, 1375353, 1375753, 1376153, 1376553, 1376953, 1377353, 1377753, 1378064, 1378452, 1378829, 1379191, 1379560, 1379934, 1380299, 1380656, 1381016, 1381404, 1381748, 1382083, 1382450, 1382808, 1383166, 1383531]",70,OR,U,R,ITMSR,1.1
2,400,trial,0,66,66,66,trial,"['S', 'S', 'S', 'S', 'S', 'S', 'S', 'S', 'C', 'C', 'C', 'C', 'C', 'C', 'C', 'C', 'C', 'C', 'C', 'C', 'C', 'C', 'C', 'C']","[1389117, 1389414, 1389757, 1390092, 1390478, 1390840, 1391236, 1391604, 1392025, 1392425, 1392802, 1393141, 1393506, 1393860, 1394179, 1394510, 1394839, 1395210, 1395555, 1395911, 1396246, 1396587, 1396889, 1397225]","[1389219, 1389583, 1389913, 1390280, 1390655, 1391002, 1391393, 1391785, 1392196, 1392585, 1392930, 1393277, 1393636, 1393958, 1394290, 1394604, 1394946, 1395317, 1395677, 1396024, 1396373, 1396687, 1396999, 1397335]","[13, 41, 32, 35, 57, 39, 52, 46, 71, 74, 51, 40, 22, 25, 22, 35, 75, 60, 61, 36, 50, 50, 41, 69]","[1389121, 1389419, 1389760, 1390096, 1390480, 1390843, 1391239, 1391608, 1392028, 1392429, 1392806, 1393144, 1393510, 1393864, 1394183, 1394513, 1394842, 1395214, 1395559, 1395915, 1396250, 1396590, 1396893, 1397228]","[1388921, 1389320, 1389720, 1390120, 1390520, 1390920, 1391320, 1391720, 1392045, 1392445, 1392822, 1393161, 1393526, 1393880, 1394199, 1394530, 1394860, 1395230, 1395575, 1395931, 1396267, 1396608, 1396909, 1397245]",70,OR,U,R,ITMSR,1.1
5,600,trial,0,67,67,67,trial,"['S', 'S', 'S', 'S', 'S', 'S', 'S', 'S', 'C', 'C', 'C', 'C', 'C', 'C', 'C', 'C', 'C', 'C', 'C', 'C', 'C', 'C', 'C', 'C']","[1402943, 1403223, 1403830, 1404378, 1404948, 1405526, 1406056, 1406700, 1407342, 1407946, 1408496, 1409046, 1409601, 1410163, 1410698, 1411191, 1411704, 1412244, 1412793, 1413314, 1413839, 1414377, 1414899, 1415407]","[1403043, 1403456, 1404084, 1404644, 1405237, 1405814, 1406476, 1407113, 1407760, 1408283, 1408855, 1409410, 1409961, 1410465, 1410964, 1411469, 1411991, 1412492, 1413051, 1413577, 1414146, 1414664, 1415206]","[199, 62, 32, 19, 24, 13, 9, 40, 60, 31, 57, 41, 56, 43, 68, 58, 26, 32, 40, 34, 24, 56, 65]","[1402987, 1403227, 1403834, 1404382, 1404953, 1405530, 1406392, 1406704, 1407345, 1407950, 1408500, 1409050, 1409605, 1410166, 1410701, 1411194, 1411707, 1412247, 1412797, 1413318, 1413843, 1414380, 1414902]","[1402788, 1403388, 1403988, 1404589, 1405189, 1405789, 1406389, 1406989, 1407362, 1407966, 1408516, 1409067, 1409622, 1410183, 1410718, 1411211, 1411724, 1412264, 1412813, 1413335, 1413859, 1414397, 1414919, 1415427]",70,OR,U,R,ITMSR,1.1
1,600,trial,0,68,68,68,trial,"['S', 'S', 'S', 'S', 'S', 'S', 'S', 'S', 'C', 'C', 'C', 'C', 'C', 'C', 'C', 'C', 'C', 'C', 'C', 'C', 'C', 'C', 'C', 'C']","[1421352, 1421733, 1422325, 1422904, 1423496, 1424097, 1424700, 1425296, 1425837, 1426400, 1426915, 1427451, 1427975, 1428499, 1429037, 1429568, 1430065, 1430554, 1431016, 1431555, 1432065, 1432570, 1433034, 1433511]","[1421572, 1422101, 1422672, 1423248, 1423800, 1424373, 1424956, 1425585, 1426186, 1426712, 1427189, 1427706, 1428289, 1428802, 1429304, 1429811, 1430292, 1430772, 1431284, 1431767, 1432290, 1432754, 1433183, 1433718]","[51, 50, 97, 83, 71, 35, 81, 77, 84, 76, 78, 67, 65, 66, 89, 82, 2, 37, 50, 42, 59, 50, 89, 76]","[1421357, 1421737, 1422328, 1422907, 1423500, 1424100, 1424703, 1425299, 1425841, 1426403, 1426919, 1427456, 1427978, 1428503, 1429040, 1429571, 1430218, 1430558, 1431020, 1431559, 1432069, 1432574, 1433037, 1433515]","[1421172, 1421772, 1422372, 1422972, 1423572, 1424173, 1424773, 1425373, 1425857, 1426420, 1426935, 1427471, 1427995, 1428519, 1429057, 1429588, 1430085, 1430574, 1431036, 1431575, 1432085, 1432590, 1433054, 1433531]",70,OR,U,R,ITMSR,1.1
1,600,trial,0,69,69,69,trial,"['S', 'S', 'S', 'S', 'S', 'S', 'S', 'S', 'C', 'C', 'C', 'C', 'C', 'C', 'C', 'C', 'C', 'C', 'C', 'C', 'C', 'C', 'C', 'C']","[1439388, 1439709, 1440285, 1440879, 1441477, 1442029, 1442629, 1443250, 1443828, 1444303, 1444832, 1445368, 1445934, 1446482, 1447060, 1447581, 1448135, 1448680, 1449198, 1449696, 1450163, 1450687, 1451182, 1451701]","[1439554, 1440060, 1440621, 1441172, 1441765, 1442304, 1442910, 1443484, 1444046, 1444557, 1445086, 1445614, 1446212, 1446778, 1447299, 1447812, 1448349, 1448910, 1449422, 1449922, 1450437, 1450949, 1451421, 1451956]","[88, 108, 106, 105, 113, 100, 92, 72, 93, 88, 89, 93, 76, 78, 84, 51, 95, 72, 73, 55, 69, 80, 77, 120]","[1439472, 1439881, 1440288, 1440882, 1441647, 1442210, 1442632, 1443253, 1443832, 1444307, 1444836, 1445371, 1445937, 1446487, 1447064, 1447585, 1448138, 1448683, 1449202, 1449700, 1450166, 1450690, 1451186, 1451704]","[1439167, 1439767, 1440367, 1440967, 1441567, 1442167, 1442767, 1443367, 1443848, 1444323, 1444852, 1445388, 1445954, 1446502, 1447080, 1447601, 1448155, 1448700, 1449218, 1449716, 1450183, 1450707, 1451202, 1451721]",70,OR,U,R,ITMSR,1.1
4,600,trial,0,70,70,70,trial,"['S', 'S', 'S', 'S', 'S', 'S', 'S', 'S', 'C', 'C', 'C', 'C', 'C', 'C', 'C', 'C', 'C', 'C', 'C', 'C', 'C', 'C', 'C', 'C']","[1457605, 1458008, 1458485, 1459036, 1459661, 1460226, 1460802, 1461435, 1462014, 1462556, 1463155, 1463739, 1464350, 1464912, 1465445, 1465972, 1466505, 1467087, 1467652, 1468222, 1468780, 1469320, 1469927, 1470495]","[1457812, 1458290, 1458817, 1459422, 1460002, 1460561, 1461120, 1461707, 1462296, 1462821, 1463416, 1464003, 1464523, 1465113, 1465730, 1466248, 1466766, 1467354, 1467898, 1468466, 1469045, 1469598, 1470186, 1470751]","[77, 86, 104, 112, 28, 93, 62, 54, 87, 76, 95, 58, 39, 37, 76, 61, 52, 56, 56, 71, 77, 79, 81, 90]","[1457728, 1458012, 1458488, 1459039, 1459864, 1460229, 1460961, 1461607, 1462018, 1462560, 1463158, 1463906, 1464454, 1464916, 1465449, 1465976, 1466656, 1467253, 1467656, 1468372, 1468932, 1469497, 1469931, 1470657]","[1457317, 1457917, 1458518, 1459117, 1459717, 1460317, 1460917, 1461517, 1462034, 1462576, 1463175, 1463759, 1464370, 1464932, 1465465, 1465992, 1466525, 1467107, 1467672, 1468242, 1468801, 1469340, 1469947, 1470515]",70,OR,U,R,ITMSR,1.1
1,400,trial,0,71,71,71,trial,"['S', 'S', 'S', 'S', 'S', 'S', 'S', 'S', 'C', 'C', 'C', 'C', 'C', 'C', 'C', 'C', 'C', 'C', 'C', 'C', 'C', 'C', 'C', 'C']","[1476234, 1476614, 1476986, 1477286, 1477588, 1477941, 1478347, 1478720, 1479072, 1479465, 1479889, 1480259, 1480634, 1480981, 1481358, 1481729, 1482057, 1482395, 1482768, 1483148, 1483502, 1483860, 1484201, 1484564]","[1476426, 1476797, 1477110, 1477376, 1477702, 1478052, 1478446, 1478833, 1479188, 1479543, 1480005, 1480385, 1480711, 1481067, 1481420, 1481811, 1482131, 1482506, 1482860, 1483235, 1483601, 1483966, 1484307, 1484655]","[75, 80, 53, 244, 0, 248, 229, 179, 195, 236, 127, 205, 151, 152, 126, 169, 124, 173, 211, 226, 244, 4, 0, 255]","[1476326, 1476617, 1476992, 1477291, 1477593, 1477945, 1478351, 1478725, 1479076, 1479471, 1479965, 1480341, 1480638, 1480986, 1481364, 1481735, 1482062, 1482400, 1482773, 1483152, 1483506, 1483865, 1484206, 1484568]","[1476016, 1476416, 1476816, 1477216, 1477616, 1478017, 1478416, 1478816, 1479092, 1479485, 1479909, 1480280, 1480654, 1481001, 1481378, 1481749, 1482077, 1482415, 1482788, 1483168, 1483522, 1483880, 1484221, 1484584]",70,OR,U,R,ITMSR,1.1
4,400,trial,0,72,72,72,trial,"['S', 'S', 'S', 'S', 'S', 'S', 'S', 'S', 'S', 'C', 'C', 'C', 'C', 'C', 'C', 'C', 'C', 'C', 'C', 'C', 'C', 'C', 'C', 'C', 'C']","[1490355, 1490655, 1490959, 1491304, 1491668, 1492029, 1492393, 1492777, 1493150, 1493539, 1493921, 1494274, 1494631, 1494996, 1495362, 1495754, 1496096, 1496483, 1496855, 1497169, 1497518, 1497890, 1498283, 1498641, 1499026]","[1490456, 1490798, 1491096, 1491468, 1491827, 1492166, 1492527, 1492909, 1493301, 1493682, 1494038, 1494419, 1494766, 1495139, 1495507, 1495881, 1496242, 1496600, 1496965, 1497294, 1497659, 1497993, 1498359, 1498729, 1499109]","[160, 221, 204, 209, 18, 206, 151, 200, 230, 235, 194, 244, 252, 10, 250, 19, 11, 249, 253, 44, 200, 122, 124, 147, 103]","[1490405, 1490659, 1490964, 1491309, 1491673, 1492034, 1492399, 1492782, 1493155, 1493544, 1493926, 1494278, 1494636, 1495001, 1495366, 1495757, 1496100, 1496486, 1496858, 1497175, 1497522, 1497895, 1498287, 1498645, 1499031]","[1490122, 1490521, 1490921, 1491321, 1491721, 1492121, 1492521, 1492921, 1493559, 1493941, 1494294, 1494651, 1495016, 1495383, 1495774, 1496116, 1496503, 1496876, 1497189, 1497538, 1497910, 1498303, 1498661, 1499046]",70,OR,U,R,ITMSR,1.1
3,600,trial,0,73,73,73,trial,"['S', 'S', 'S', 'S', 'S', 'S', 'S', 'S', 'C', 'C', 'C', 'C', 'C', 'C', 'C', 'C', 'C', 'C', 'C', 'C', 'C', 'C', 'C', 'C']","[1504880, 1505158, 1505736, 1506364, 1506970, 1507584, 1508193, 1508791, 1509368, 1509924, 1510474, 1511023, 1511589, 1512150, 1512691, 1513233, 1513775, 1514344, 1514873, 1515388, 1515928, 1516441, 1516931, 1517449]","[1504970, 1505409, 1506019, 1506613, 1507245, 1507861, 1508442, 1509053, 1509628, 1510154, 1510693, 1511245, 1511776, 1512382, 1512919, 1513463, 1514009, 1514545, 1515125, 1515653, 1516181, 1516676, 1517154, 1517680]","[78, 238, 249, 201, 9, 12, 15, 14, 231, 236, 207, 211, 233, 216, 232, 251, 246, 239, 5, 8, 226, 238, 179, 230]","[1504886, 1505162, 1505740, 1506369, 1506974, 1507587, 1508196, 1508795, 1509372, 1509928, 1510478, 1511027, 1511593, 1512154, 1512695, 1513238, 1513780, 1514347, 1514877, 1515393, 1515933, 1516446, 1517075, 1517453]","[1504678, 1505278, 1505879, 1506478, 1507078, 1507678, 1508278, 1508878, 1509388, 1509944, 1510494, 1511043, 1511609, 1512170, 1512711, 1513253, 1513795, 1514364, 1514893, 1515408, 1515949, 1516461, 1516951, 1517469]",70,OR,U,R,ITMSR,1.1
2,600,trial,0,74,74,74,trial,"['S', 'S', 'S', 'S', 'S', 'S', 'S', 'S', 'C', 'C', 'C', 'C', 'C', 'C', 'C', 'C', 'C', 'C', 'C', 'C', 'C', 'C', 'C', 'C']","[1523386, 1523706, 1524236, 1524802, 1525399, 1526008, 1526588, 1527156, 1527758, 1528304, 1528858, 1529421, 1529958, 1530514, 1531105, 1531670, 1532277, 1532834, 1533394, 1533931, 1534471, 1535022, 1535543, 1536063]","[1523526, 1523999, 1524556, 1525104, 1525676, 1526235, 1526848, 1527447, 1528039, 1528558, 1529141, 1529679, 1530237, 1530807, 1531409, 1531955, 1532545, 1533059, 1533626, 1534173, 1534680, 1535195, 1535811, 1536308]","[247, 66, 35, 50, 50, 22, 57, 57, 73, 55, 20, 43, 45, 76, 82, 79, 59, 55, 43, 74, 78, 60, 60, 81]","[1523476, 1523710, 1524240, 1524806, 1525403, 1526012, 1526591, 1527160, 1527762, 1528308, 1528862, 1529425, 1529961, 1530518, 1531108, 1531673, 1532281, 1532839, 1533399, 1533934, 1534474, 1535025, 1535546, 1536067]","[1523162, 1523762, 1524362, 1524962, 1525562, 1526162, 1526762, 1527362, 1527778, 1528324, 1528878, 1529441, 1529978, 1530534, 1531125, 1531691, 1532297, 1532854, 1533414, 1533952, 1534491, 1535042, 1535563, 1536083]",70,OR,U,R,ITMSR,1.1
2,600,trial,0,75,75,75,trial,"['S', 'S', 'S', 'S', 'S', 'S', 'S', 'S', 'C', 'C', 'C', 'C', 'C', 'C', 'C', 'C', 'C', 'C', 'C', 'C', 'C', 'C', 'C', 'C']","[1542055, 1542390, 1542970, 1543585, 1544177, 1544739, 1545335, 1545959, 1546535, 1547100, 1547659, 1548189, 1548788, 1549369, 1549943, 1550497, 1550991, 1551595, 1552178, 1552738, 1553329, 1553891, 1554420, 1554978]","[1542226, 1542731, 1543298, 1543857, 1544444, 1545021, 1545593, 1546192, 1546769, 1547290, 1547840, 1548409, 1549000, 1549594, 1550171, 1550694, 1551280, 1551807, 1552387, 1552952, 1553527, 1554102, 1554634, 1555127]","[15, 35, 50, 49, 67, 60, 41, 43, 51, 40, 28, 42, 55, 52, 47, 40, 67, 31, 11, 50, 63, 60, 48, 44]","[1542144, 1542394, 1542974, 1543589, 1544180, 1544743, 1545339, 1545963, 1546540, 1547104, 1547663, 1548193, 1548791, 1549373, 1549946, 1550501, 1550994, 1551599, 1552182, 1552742, 1553332, 1553894, 1554424, 1554982]","[1541799, 1542400, 1543000, 1543600, 1544200, 1544800, 1545400, 1546000, 1546555, 1547120, 1547679, 1548209, 1548808, 1549389, 1549963, 1550517, 1551011, 1551616, 1552198, 1552758, 1553349, 1553911, 1554440, 1554998]",70,OR,U,R,ITMSR,1.1
0,400,trial,0,76,76,76,trial,"['S', 'S', 'S', 'S', 'S', 'S', 'S', 'S', 'S', 'C', 'C', 'C', 'C', 'C', 'C', 'C', 'C', 'C', 'C', 'C', 'C', 'C', 'C', 'C', 'C']","[1560927, 1561256, 1561605, 1561899, 1562221, 1562534, 1562909, 1563292, 1563668, 1564029, 1564384, 1564725, 1565111, 1565477, 1565862, 1566249, 1566608, 1567008, 1567397, 1567760, 1568142, 1568512, 1568879, 1569240, 1569615]","[1561082, 1561440, 1561739, 1562010, 1562322, 1562647, 1563034, 1563421, 1563793, 1564149, 1564484, 1564853, 1565225, 1565621, 1566000, 1566376, 1566750, 1567115, 1567504, 1567880, 1568226, 1568609, 1568994, 1569353, 1569709]","[45, 85, 93, 86, 78, 84, 252, 56, 50, 56, 63, 79, 82, 100, 74, 52, 62, 70, 46, 82, 62, 53, 62, 24, 43]","[1561013, 1561260, 1561608, 1561903, 1562224, 1562537, 1562912, 1563296, 1563673, 1564033, 1564387, 1564729, 1565115, 1565480, 1565867, 1566254, 1566612, 1567012, 1567401, 1567764, 1568145, 1568515, 1568883, 1569244, 1569619]","[1560663, 1561062, 1561462, 1561862, 1562262, 1562662, 1563062, 1563462, 1564049, 1564404, 1564745, 1565131, 1565497, 1565882, 1566269, 1566628, 1567028, 1567417, 1567780, 1568162, 1568532, 1568899, 1569260, 1569635]",70,OR,U,R,ITMSR,1.1
0,400,trial,0,77,77,77,trial,"['S', 'S', 'S', 'S', 'S', 'S', 'S', 'S', 'S', 'C', 'C', 'C', 'C', 'C', 'C', 'C', 'C', 'C', 'C', 'C', 'C', 'C', 'C', 'C', 'C']","[1575703, 1576001, 1576301, 1576621, 1576963, 1577332, 1577702, 1578084, 1578450, 1578804, 1579157, 1579524, 1579897, 1580257, 1580623, 1580981, 1581349, 1581709, 1582067, 1582420, 1582765, 1583120, 1583493, 1583836, 1584185]","[1575795, 1576120, 1576404, 1576760, 1577090, 1577450, 1577805, 1578190, 1578573, 1578926, 1579265, 1579602, 1579992, 1580345, 1580713, 1581087, 1581451, 1581814, 1582120, 1582498, 1582858, 1583205, 1583574, 1583930, 1584264]","[155, 57, 67, 63, 76, 31, 8, 32, 47, 65, 53, 23, 19, 7, 23, 25, 18, 22, 255, 214, 234, 202, 233, 0, 228]","[1575748, 1576004, 1576304, 1576624, 1576966, 1577336, 1577706, 1578085, 1578454, 1578808, 1579161, 1579527, 1579901, 1580261, 1580626, 1580985, 1581353, 1581713, 1582072, 1582426, 1582769, 1583125, 1583498, 1583840, 1584189]","[1575429, 1575829, 1576229, 1576629, 1577029, 1577430, 1577829, 1578229, 1578824, 1579177, 1579544, 1579917, 1580277, 1580643, 1581001, 1581369, 1581729, 1582087, 1582440, 1582785, 1583140, 1583513, 1583856, 1584205]",70,OR,U,R,ITMSR,1.1
5,400,trial,0,78,78,78,trial,"['S', 'S', 'S', 'S', 'S', 'S', 'S', 'S', 'C', 'C', 'C', 'C', 'C', 'C', 'C', 'C', 'C', 'C', 'C', 'C', 'C', 'C', 'C', 'C']","[1621880, 1622164, 1622457, 1622827, 1623217, 1623616, 1624005, 1624413, 1624774, 1625129, 1625480, 1625841, 1626215, 1626578, 1626932, 1627308, 1627676, 1628024, 1628381, 1628727, 1629092, 1629514, 1629878, 1630232]","[1622011, 1622297, 1622598, 1622996, 1623372, 1623759, 1624155, 1624546, 1624910, 1625264, 1625606, 1625964, 1626326, 1626723, 1627084, 1627433, 1627801, 1628121, 1628507, 1628861, 1629205, 1629616, 1629983, 1630313]","[74, 128, 116, 132, 118, 134, 128, 124, 135, 128, 122, 132, 134, 140, 133, 118, 134, 122, 105, 124, 84, 47, 42, 82]","[1621946, 1622168, 1622460, 1622831, 1623221, 1623619, 1624008, 1624416, 1624777, 1625133, 1625483, 1625844, 1626218, 1626582, 1626935, 1627312, 1627679, 1628027, 1628384, 1628730, 1629096, 1629519, 1629882, 1630235]","[1621640, 1622040, 1622440, 1622840, 1623240, 1623640, 1624040, 1624440, 1624794, 1625149, 1625500, 1625861, 1626235, 1626598, 1626952, 1627328, 1627696, 1628044, 1628401, 1628747, 1629112, 1629534, 1629898, 1630253]",70,OR,U,R,ITMSR,1.1
3,400,trial,0,79,79,79,trial,"['S', 'S', 'S', 'S', 'S', 'S', 'S', 'S', 'C', 'C', 'C', 'C', 'C', 'C', 'C', 'C', 'C', 'C', 'C', 'C', 'C', 'C', 'C', 'C']","[1635810, 1636089, 1636455, 1636825, 1637196, 1637572, 1637937, 1638323, 1638703, 1639068, 1639436, 1639789, 1640147, 1640530, 1640909, 1641291, 1641668, 1642041, 1642414, 1642762, 1643110, 1643476, 1643828, 1644178]","[1635923, 1636263, 1636600, 1636956, 1637330, 1637697, 1638085, 1638475, 1638834, 1639194, 1639544, 1639913, 1640296, 1640668, 1641038, 1641413, 1641794, 1642155, 1642506, 1642875, 1643238, 1643613, 1643956, 1644297]","[112, 99, 107, 118, 119, 113, 103, 84, 78, 70, 61, 83, 127, 95, 94, 104, 97, 65, 60, 53, 83, 107, 86, 112]","[1635813, 1636092, 1636459, 1636828, 1637199, 1637575, 1637941, 1638326, 1638707, 1639072, 1639439, 1639792, 1640151, 1640535, 1640913, 1641295, 1641671, 1642045, 1642418, 1642766, 1643114, 1643480, 1643832, 1644181]","[1635646, 1636045, 1636445, 1636845, 1637245, 1637645, 1638045, 1638445, 1638723, 1639088, 1639456, 1639810, 1640167, 1640550, 1640929, 1641311, 1641688, 1642061, 1642434, 1642782, 1643130, 1643496, 1643848, 1644198]",70,OR,U,R,ITMSR,1.1
4,400,trial,0,80,80,80,trial,"['S', 'S', 'S', 'S', 'S', 'S', 'S', 'S', 'C', 'C', 'C', 'C', 'C', 'C', 'C', 'C', 'C', 'C', 'C', 'C', 'C', 'C', 'C', 'C']","[1649915, 1650210, 1650535, 1650907, 1651302, 1651698, 1652066, 1652455, 1652869, 1653261, 1653649, 1654047, 1654406, 1654786, 1655153, 1655517, 1655900, 1656279, 1656657, 1657028, 1657392, 1657764, 1658123, 1658475]","[1650020, 1650373, 1650732, 1651103, 1651508, 1651885, 1652260, 1652645, 1653044, 1653422, 1653810, 1654193, 1654543, 1654932, 1655292, 1655663, 1656046, 1656426, 1656815, 1657184, 1657579, 1657925, 1658263, 1658625]","[73, 89, 81, 102, 108, 105, 69, 99, 110, 104, 95, 93, 58, 83, 97, 96, 96, 95, 112, 84, 119, 110, 109, 122]","[1649921, 1650214, 1650540, 1650911, 1651305, 1651702, 1652071, 1652458, 1652873, 1653265, 1653652, 1654050, 1654410, 1654789, 1655157, 1655521, 1655904, 1656283, 1656662, 1657032, 1657396, 1657767, 1658126, 1658478]","[1649699, 1650098, 1650498, 1650898, 1651298, 1651698, 1652098, 1652498, 1652889, 1653281, 1653669, 1654067, 1654426, 1654806, 1655173, 1655537, 1655920, 1656299, 1656677, 1657048, 1657412, 1657784, 1658143, 1658496]",70,OR,U,R,ITMSR,1.1
5,600,trial,0,81,81,81,trial,"['S', 'S', 'S', 'S', 'S', 'S', 'S', 'S', 'C', 'C', 'C', 'C', 'C', 'C', 'C', 'C', 'C', 'C', 'C', 'C', 'C', 'C', 'C', 'C']","[1664297, 1664586, 1665111, 1665730, 1666350, 1666964, 1667587, 1668196, 1668741, 1669277, 1669835, 1670413, 1670960, 1671504, 1672037, 1672603, 1673144, 1673719, 1674246, 1674789, 1675338, 1675897, 1676420, 1676914]","[1664408, 1664864, 1665487, 1666113, 1666727, 1667319, 1667919, 1668450, 1669027, 1669540, 1670117, 1670665, 1671237, 1671782, 1672317, 1672908, 1673405, 1673971, 1674531, 1675045, 1675612, 1676165, 1676684]","[60, 100, 99, 81, 62, 116, 117, 112, 114, 113, 100, 101, 84, 75, 100, 94, 77, 99, 102, 97, 93, 77, 76]","[1664303, 1664590, 1665115, 1665734, 1666354, 1666968, 1667591, 1668200, 1668744, 1669281, 1669838, 1670417, 1670964, 1671689, 1672041, 1672606, 1673149, 1673723, 1674250, 1674916, 1675476, 1675901, 1676577]","[1664070, 1664670, 1665270, 1665870, 1666470, 1667070, 1667671, 1668270, 1668761, 1669297, 1669855, 1670433, 1670980, 1671524, 1672057, 1672623, 1673164, 1673739, 1674266, 1674809, 1675358, 1675917, 1676440, 1676934]",70,OR,U,R,ITMSR,1.1
2,400,trial,0,82,82,82,trial,"['S', 'S', 'S', 'S', 'S', 'S', 'S', 'S', 'C', 'C', 'C', 'C', 'C', 'C', 'C', 'C', 'C', 'C', 'C', 'C', 'C', 'C', 'C', 'C']","[1682555, 1682891, 1683243, 1683561, 1683908, 1684274, 1684657, 1685064, 1685450, 1685840, 1686194, 1686555, 1686938, 1687324, 1687705, 1688072, 1688455, 1688820, 1689193, 1689555, 1689923, 1690286, 1690674, 1691044]","[1682751, 1683092, 1683412, 1683733, 1684093, 1684472, 1684850, 1685261, 1685619, 1685979, 1686349, 1686730, 1687106, 1687480, 1687841, 1688229, 1688595, 1688968, 1689319, 1689670, 1690008, 1690399, 1690787, 1691171]","[84, 65, 71, 95, 105, 112, 71, 101, 71, 106, 103, 98, 96, 97, 80, 113, 113, 112, 87, 63, 93, 87, 2, 100]","[1682650, 1682980, 1683247, 1683565, 1683912, 1684278, 1684661, 1685068, 1685455, 1685843, 1686197, 1686558, 1686942, 1687327, 1687708, 1688076, 1688458, 1688823, 1689197, 1689560, 1689927, 1690289, 1690679, 1691048]","[1682344, 1682744, 1683144, 1683544, 1683944, 1684344, 1684744, 1685144, 1685470, 1685860, 1686214, 1686575, 1686958, 1687344, 1687725, 1688092, 1688475, 1688840, 1689213, 1689575, 1689944, 1690306, 1690694, 1691064]",70,OR,U,R,ITMSR,1.1
1,600,trial,0,83,83,83,trial,"['S', 'S', 'S', 'S', 'S', 'S', 'S', 'S', 'C', 'C', 'C', 'C', 'C', 'C', 'C', 'C', 'C', 'C', 'C', 'C', 'C', 'C', 'C', 'C']","[1697000, 1697307, 1697871, 1698481, 1699050, 1699607, 1700216, 1700858, 1701462, 1702010, 1702571, 1703111, 1703667, 1704243, 1704788, 1705369, 1705928, 1706491, 1707043, 1707608, 1708195, 1708750, 1709313, 1709850]","[1697145, 1697655, 1698263, 1698840, 1699382, 1699943, 1700520, 1701151, 1701706, 1702269, 1702813, 1703372, 1703934, 1704498, 1705094, 1705682, 1706238, 1706800, 1707352, 1707901, 1708488, 1709002, 1709487, 1710080]","[19, 73, 69, 106, 92, 55, 99, 111, 82, 97, 114, 113, 103, 126, 103, 107, 94, 104, 97, 106, 122, 72, 4, 84]","[1697065, 1697443, 1697875, 1698484, 1699054, 1699612, 1700220, 1700862, 1701466, 1702014, 1702575, 1703115, 1703671, 1704246, 1704793, 1705372, 1705932, 1706496, 1707047, 1707611, 1708198, 1708754, 1709419, 1709854]","[1696761, 1697360, 1697960, 1698561, 1699160, 1699760, 1700360, 1700960, 1701482, 1702030, 1702591, 1703131, 1703687, 1704263, 1704808, 1705389, 1705948, 1706511, 1707063, 1707628, 1708215, 1708770, 1709333, 1709870]",70,OR,U,R,ITMSR,1.1
1,400,trial,0,84,84,84,trial,"['S', 'S', 'S', 'S', 'S', 'S', 'S', 'S', 'C', 'C', 'C', 'C', 'C', 'C', 'C', 'C', 'C', 'C', 'C', 'C', 'C', 'C', 'C', 'C']","[1715449, 1715774, 1716091, 1716406, 1716751, 1717108, 1717493, 1717898, 1718280, 1718654, 1719021, 1719387, 1719770, 1720144, 1720509, 1720905, 1721276, 1721651, 1721995, 1722388, 1722757, 1723128, 1723479, 1723834]","[1715598, 1715953, 1716236, 1716569, 1716928, 1717289, 1717678, 1718065, 1718449, 1718821, 1719188, 1719561, 1719947, 1720316, 1720689, 1721056, 1721443, 1721764, 1722158, 1722556, 1722925, 1723280, 1723616, 1723991]","[58, 98, 74, 74, 67, 64, 53, 39, 64, 90, 96, 66, 30, 40, 10, 60, 89, 43, 70, 93, 93, 97, 89, 73]","[1715519, 1715779, 1716096, 1716410, 1716755, 1717113, 1717588, 1717987, 1718285, 1718659, 1719025, 1719391, 1719775, 1720150, 1720514, 1720909, 1721280, 1721655, 1721999, 1722392, 1722761, 1723131, 1723483, 1723838]","[1715204, 1715604, 1716004, 1716404, 1716804, 1717204, 1717604, 1718004, 1718300, 1718674, 1719042, 1719407, 1719790, 1720164, 1720529, 1720925, 1721296, 1721671, 1722015, 1722408, 1722777, 1723148, 1723499, 1723854]",70,OR,U,R,ITMSR,1.1
3,600,trial,0,85,85,85,trial,"['S', 'S', 'S', 'S', 'S', 'S', 'S', 'S', 'C', 'C', 'C', 'C', 'C', 'C', 'C', 'C', 'C', 'C', 'C', 'C', 'C', 'C', 'C', 'C']","[1729456, 1729750, 1730337, 1730930, 1731508, 1732067, 1732670, 1733231, 1733823, 1734347, 1734901, 1735424, 1735979, 1736558, 1737164, 1737730, 1738261, 1738796, 1739339, 1739921, 1740429, 1740934, 1741468, 1741976]","[1729585, 1730144, 1730729, 1731323, 1731887, 1732450, 1732998, 1733542, 1734127, 1734643, 1735177, 1735689, 1736254, 1736854, 1737438, 1737985, 1738520, 1739065, 1739607, 1740171, 1740686, 1741180, 1741715]","[24, 79, 115, 92, 115, 93, 115, 108, 114, 110, 93, 105, 116, 112, 113, 104, 114, 82, 66, 83, 92, 47, 103]","[1729528, 1729946, 1730340, 1730934, 1731511, 1732071, 1732673, 1733235, 1733826, 1734350, 1735057, 1735427, 1735982, 1736562, 1737167, 1737734, 1738265, 1738800, 1739343, 1739925, 1740433, 1741089, 1741472]","[1729196, 1729794, 1730394, 1730994, 1731594, 1732194, 1732794, 1733394, 1733843, 1734367, 1734921, 1735444, 1735999, 1736578, 1737184, 1737750, 1738281, 1738816, 1739359, 1739941, 1740449, 1740954, 1741488, 1741997]",70,OR,U,R,ITMSR,1.1
0,400,trial,0,86,86,86,trial,"['S', 'S', 'S', 'S', 'S', 'S', 'S', 'S', 'C', 'C', 'C', 'C', 'C', 'C', 'C', 'C', 'C', 'C', 'C', 'C', 'C', 'C', 'C', 'C']","[1747846, 1748206, 1748546, 1748873, 1749228, 1749599, 1749994, 1750384, 1750784, 1751140, 1751520, 1751883, 1752250, 1752597, 1752933, 1753279, 1753590, 1753942, 1754284, 1754628, 1754960, 1755299, 1755593, 1755917]","[1748073, 1748423, 1748707, 1749047, 1749406, 1749799, 1750203, 1750595, 1750964, 1751314, 1751668, 1752029, 1752380, 1752725, 1753068, 1753391, 1753716, 1754053, 1754419, 1754762, 1755065, 1755406, 1755718, 1756010]","[125, 118, 98, 124, 123, 134, 138, 123, 126, 122, 134, 131, 120, 120, 122, 126, 136, 125, 128, 125, 118, 117, 107, 121]","[1747942, 1748305, 1748625, 1748876, 1749231, 1749602, 1749997, 1750387, 1750787, 1751144, 1751522, 1751886, 1752254, 1752600, 1752936, 1753282, 1753592, 1753945, 1754286, 1754631, 1754962, 1755303, 1755596, 1755920]","[1747692, 1748092, 1748492, 1748892, 1749293, 1749693, 1750093, 1750493, 1750804, 1751160, 1751540, 1751903, 1752270, 1752617, 1752953, 1753299, 1753610, 1753962, 1754304, 1754648, 1754980, 1755319, 1755613, 1755937]",70,OR,U,R,ITMSR,1.1
2,600,trial,0,87,87,87,trial,"['S', 'S', 'S', 'S', 'S', 'S', 'S', 'S', 'C', 'C', 'C', 'C', 'C', 'C', 'C', 'C', 'C', 'C', 'C', 'C', 'C', 'C', 'C', 'C']","[1761880, 1762247, 1762892, 1763479, 1764049, 1764599, 1765175, 1765760, 1766319, 1766807, 1767326, 1767824, 1768324, 1768838, 1769331, 1769823, 1770312, 1770808, 1771311, 1771762, 1772235, 1772730, 1773177, 1773635]","[1762070, 1762683, 1763284, 1763841, 1764373, 1764943, 1765543, 1766086, 1766597, 1767118, 1767588, 1768115, 1768630, 1769132, 1769613, 1770108, 1770606, 1771092, 1771576, 1772039, 1772453, 1772933, 1773414, 1773834]","[128, 140, 140, 128, 159, 158, 145, 140, 142, 144, 146, 146, 145, 144, 142, 148, 147, 127, 152, 139, 113, 144, 138, 144]","[1761883, 1762250, 1762895, 1763480, 1764052, 1764602, 1765178, 1765763, 1766321, 1766809, 1767329, 1767826, 1768327, 1768840, 1769334, 1769826, 1770315, 1770811, 1771313, 1771765, 1772238, 1772733, 1773180, 1773638]","[1761683, 1762283, 1762883, 1763483, 1764083, 1764683, 1765283, 1765883, 1766339, 1766828, 1767346, 1767844, 1768344, 1768858, 1769351, 1769843, 1770332, 1770828, 1771331, 1771782, 1772255, 1772750, 1773197, 1773656]",70,OR,U,R,ITMSR,1.1
