pitch,ioi,event,.thisRepN,.thisTrialN,.thisN,.thisIndex,event,tap_types,tap_times,release_times,peak_pressures,peak_times,tone_times,subject,experimenter,register,handedness,experiment,version,
,,SPR,0,-1,-1,0,SPR,"['P', 'P', 'P', 'P', 'P', 'P', 'P', 'P', 'P', 'P', 'P', 'P', 'P', 'P', 'P', 'P', 'P', 'P', 'P', 'P', 'P', 'P', 'P', 'P', 'P', 'P', 'P', 'P', 'P', 'P']","[34141, 35582, 36553, 37335, 38164, 38875, 39613, 40321, 41023, 41731, 42487, 43258, 44040, 44816, 45526, 46178, 46934, 47662, 48407, 49164, 49901, 50628, 51404, 52145, 52909, 53651, 54412, 55200, 56008, 56794]","[34285, 35700, 36663, 37468, 38278, 38988, 39716, 40439, 41146, 41869, 42598, 43355, 44149, 44944, 45655, 46305, 47081, 47813, 48568, 49326, 50028, 50785, 51556, 52280, 53040, 53779, 54522, 55355, 56138, 56934]","[107, 78, 91, 85, 253, 18, 1, 89, 62, 56, 103, 67, 83, 98, 97, 107, 116, 96, 115, 96, 70, 123, 109, 96, 101, 92, 103, 109, 84, 117]","[34211, 35640, 36608, 37397, 38168, 38931, 39618, 40376, 41082, 41791, 42491, 43262, 44044, 44876, 45587, 46236, 47006, 47721, 48476, 49229, 49905, 50707, 51483, 52215, 52913, 53655, 54416, 55273, 56012, 56853]",,90,EM,U,R,ITMSR,1.1,
2,500,practice,0,0,0,0,practice,"['S', 'S', 'S', 'S', 'S', 'S', 'S', 'C', 'C', 'C', 'C', 'C', 'C', 'C', 'C', 'C', 'C', 'C', 'C', 'C', 'C', 'C', 'C', 'C']","[138390, 139311, 139778, 140280, 140773, 141301, 141789, 142275, 142718, 143129, 143482, 143799, 144096, 144371, 144617, 151839, 152227, 152574, 152973, 153483, 153980, 154451, 154918, 155316]","[138482, 139400, 139855, 140366, 140868, 141388, 141862, 142361, 142809, 143219, 143570, 143888, 144169, 144448, 144684, 151947, 152313, 152657, 153075, 153605, 154080, 154553, 155018, 155432]","[84, 76, 68, 43, 64, 75, 21, 84, 88, 103, 119, 100, 99, 104, 42, 130, 83, 85, 70, 46, 38, 53, 32, 48]","[138431, 139346, 139782, 140317, 140777, 141305, 141793, 142279, 142722, 143132, 143485, 143803, 144099, 144374, 144621, 151890, 152231, 152579, 152977, 153487, 153986, 154457, 154923, 155369]","[138341, 138841, 139341, 139841, 140341, 140841, 141341, 141841, 142296, 142738, 143149, 143502, 143819, 144116, 144391, 151859, 152247, 152594, 152993, 153503, 154000, 154471, 154938, 155336]",90,EM,U,R,ITMSR,1.1,
5,500,practice,0,1,1,1,practice,"['S', 'S', 'S', 'S', 'S', 'S', 'S', 'C', 'C', 'C', 'C', 'C', 'C', 'C', 'C', 'C', 'C', 'C', 'C', 'C', 'C', 'C', 'C']","[161640, 162000, 162492, 162996, 163472, 163966, 164466, 164941, 165385, 165839, 166299, 166800, 167283, 167790, 168270, 168759, 169263, 169731, 170244, 170718, 171204, 171667, 172158]","[161713, 162123, 162615, 163103, 163554, 164061, 164547, 165031, 165482, 165939, 166402, 166897, 167399, 167883, 168361, 168857, 169372, 169845, 170351, 170814, 171294, 171783, 172277]","[253, 116, 111, 93, 61, 50, 19, 59, 69, 68, 247, 1, 229, 204, 185, 193, 175, 202, 203, 222, 170, 244, 192]","[161645, 162055, 162545, 163000, 163476, 163971, 164469, 164944, 165388, 165843, 166303, 166804, 167344, 167795, 168276, 168765, 169269, 169793, 170250, 170722, 171209, 171671, 172164]","[161060, 161560, 162060, 162561, 163060, 163560, 164060, 164560, 164961, 165405, 165859, 166319, 166820, 167303, 167810, 168290, 168779, 169283, 169751, 170264, 170738, 171224, 171687, 172178]",90,EM,U,R,ITMSR,1.1,
3,500,practice,0,2,2,2,practice,"['S', 'S', 'S', 'S', 'S', 'S', 'S', 'C', 'C', 'C', 'C', 'C', 'C', 'C', 'C', 'C', 'C', 'C', 'C', 'C', 'C', 'C', 'C']","[178141, 178580, 179104, 179636, 180116, 180640, 181116, 181648, 182131, 182623, 183096, 183571, 184102, 184555, 185022, 185496, 185974, 186425, 186926, 187403, 187890, 188360, 188811]","[178251, 178683, 179193, 179704, 180170, 180714, 181202, 181741, 182224, 182710, 183182, 183664, 184183, 184647, 185094, 185565, 186041, 186504, 187009, 187485, 187961, 188451, 188913]","[47, 46, 235, 6, 247, 24, 39, 35, 18, 11, 7, 178, 152, 245, 229, 199, 139, 167, 141, 161, 196, 143, 137]","[178145, 178631, 179145, 179640, 180120, 180644, 181120, 181652, 182135, 182627, 183101, 183577, 184109, 184560, 185026, 185500, 185979, 186430, 186931, 187409, 187895, 188398, 188816]","[177701, 178200, 178700, 179201, 179700, 180200, 180700, 181200, 181668, 182151, 182643, 183116, 183591, 184122, 184576, 185042, 185517, 185994, 186445, 186946, 187423, 187910, 188380, 188831]",90,EM,U,R,ITMSR,1.1,
0,500,practice,0,3,3,3,practice,"['S', 'S', 'S', 'S', 'S', 'S', 'S', 'C', 'C', 'C', 'C', 'C', 'C', 'C', 'C', 'C', 'C', 'C', 'C', 'C', 'C', 'C', 'C']","[194629, 195128, 195624, 196153, 196652, 197131, 197621, 198122, 198594, 199103, 199607, 200087, 200624, 201057, 201563, 202047, 202518, 202988, 203465, 203943, 204412, 204905, 205373]","[194740, 195223, 195722, 196241, 196736, 197219, 197722, 198213, 198671, 199184, 199701, 200180, 200702, 201165, 201645, 202132, 202595, 203074, 203534, 204028, 204486, 204984, 205464]","[79, 24, 25, 69, 65, 72, 44, 17, 47, 12, 254, 32, 37, 39, 239, 0, 26, 253, 214, 9, 209, 203, 38]","[194681, 195132, 195629, 196157, 196655, 197135, 197625, 198127, 198598, 199108, 199612, 200091, 200628, 201060, 201567, 202052, 202521, 202992, 203470, 203948, 204418, 204910, 205376]","[194169, 194669, 195169, 195670, 196169, 196669, 197169, 197669, 198142, 198615, 199123, 199627, 200108, 200644, 201077, 201583, 202067, 202539, 203009, 203485, 203963, 204432, 204925, 205393]",90,EM,U,R,ITMSR,1.1,
4,500,practice,0,4,4,4,practice,"['S', 'S', 'S', 'S', 'S', 'S', 'S', 'C', 'C', 'C', 'C', 'C', 'C', 'C', 'C', 'C', 'C', 'C', 'C', 'C', 'C', 'C', 'C']","[211202, 211695, 212214, 212706, 213219, 213679, 214192, 214679, 215181, 215661, 216167, 216625, 217135, 217615, 218117, 218592, 219056, 219563, 220051, 220517, 221006, 221460, 221974]","[211282, 211765, 212272, 212777, 213296, 213744, 214263, 214753, 215244, 215726, 216244, 216698, 217198, 217680, 218184, 218656, 219140, 219632, 220131, 220598, 221075, 221541, 222047]","[56, 29, 227, 82, 60, 70, 60, 26, 228, 219, 182, 225, 195, 255, 253, 241, 28, 242, 209, 249, 224, 4, 232]","[211206, 211700, 212219, 212710, 213224, 213682, 214195, 214683, 215184, 215666, 216171, 216630, 217139, 217618, 218121, 218596, 219060, 219567, 220055, 220522, 221011, 221464, 221979]","[210724, 211224, 211724, 212225, 212724, 213224, 213724, 214224, 214700, 215201, 215682, 216187, 216645, 217155, 217635, 218137, 218612, 219076, 219583, 220071, 220537, 221026, 221480, 221995]",90,EM,U,R,ITMSR,1.1,
1,500,practice,0,5,5,5,practice,"['S', 'S', 'S', 'S', 'S', 'S', 'S', 'C', 'C', 'C', 'C', 'C', 'C', 'C', 'C', 'C', 'C', 'C', 'C', 'C', 'C', 'C', 'C']","[228214, 228700, 229196, 229730, 230216, 230699, 231197, 231703, 232163, 232664, 233174, 233650, 234139, 234622, 235089, 235584, 236065, 236562, 237060, 237523, 238001, 238480, 238943]","[228294, 228779, 229288, 229849, 230337, 230810, 231291, 231813, 232279, 232768, 233266, 233741, 234233, 234704, 235171, 235661, 236143, 236637, 237116, 237591, 238064, 238547, 239002]","[43, 250, 89, 58, 39, 50, 37, 24, 13, 39, 24, 42, 238, 197, 7, 198, 209, 157, 118, 14, 213, 169, 239]","[228218, 228704, 229199, 229734, 230220, 230703, 231201, 231707, 232167, 232667, 233177, 233654, 234143, 234628, 235094, 235588, 236069, 236568, 237065, 237528, 238005, 238485, 238947]","[227762, 228261, 228761, 229261, 229762, 230262, 230762, 231262, 231724, 232183, 232684, 233194, 233670, 234159, 234642, 235109, 235604, 236085, 236582, 237080, 237543, 238021, 238500, 238963]",90,EM,U,R,ITMSR,1.1,
3,600,trial,0,6,6,6,trial,"['S', 'S', 'S', 'S', 'S', 'S', 'S', 'C', 'C', 'C', 'C', 'C', 'C', 'C', 'C', 'C', 'C', 'C', 'C', 'C', 'C', 'C', 'C']","[301135, 301856, 302454, 303045, 303668, 304257, 304839, 305487, 306082, 306654, 307253, 307833, 308412, 308974, 309560, 310131, 310725, 311301, 311902, 312457, 313052, 313632, 314206]","[301229, 301964, 302556, 303136, 303735, 304317, 304906, 305555, 306138, 306710, 307312, 307889, 308464, 309048, 309639, 310219, 310807, 311383, 311986, 312544, 313141, 313717, 314293]","[126, 109, 61, 51, 55, 100, 117, 66, 104, 123, 117, 98, 102, 81, 90, 100, 115, 80, 42, 69, 80, 44, 20]","[301185, 301904, 302501, 303049, 303671, 304260, 304842, 305491, 306085, 306658, 307256, 307837, 308417, 308979, 309564, 310167, 310729, 311305, 311907, 312461, 313056, 313636, 314255]","[300717, 301317, 301917, 302517, 303117, 303717, 304317, 304917, 305507, 306102, 306674, 307273, 307853, 308432, 308994, 309580, 310151, 310745, 311321, 311922, 312477, 313072, 313652, 314226]",90,EM,U,R,ITMSR,1.1,
4,400,trial,0,7,7,7,trial,"['S', 'S', 'S', 'S', 'S', 'S', 'S', 'C', 'C', 'C', 'C', 'C', 'C', 'C', 'C', 'C', 'C', 'C', 'C', 'C', 'C', 'C', 'C']","[320339, 320645, 320995, 321396, 321801, 322209, 322594, 323033, 323433, 323844, 324262, 324699, 325088, 325476, 325846, 326274, 326695, 327046, 327449, 327855, 328255, 328642, 329039]","[320421, 320703, 321058, 321456, 321869, 322274, 322683, 323102, 323513, 323922, 324337, 324757, 325144, 325547, 325925, 326350, 326762, 327114, 327516, 327917, 328308, 328708, 329095]","[114, 79, 97, 106, 125, 115, 111, 92, 94, 44, 50, 65, 77, 83, 67, 74, 20, 66, 60, 30, 214, 244, 180]","[320343, 320650, 320999, 321399, 321804, 322212, 322597, 323036, 323436, 323848, 324265, 324702, 325092, 325479, 325849, 326278, 326700, 327050, 327453, 327859, 328258, 328646, 329043]","[319833, 320232, 320632, 321032, 321432, 321832, 322232, 322632, 323053, 323453, 323864, 324282, 324719, 325108, 325496, 325866, 326294, 326715, 327066, 327469, 327875, 328275, 328663, 329059]",90,EM,U,R,ITMSR,1.1,
3,400,trial,0,8,8,8,trial,"['S', 'S', 'S', 'S', 'S', 'S', 'S', 'C', 'C', 'C', 'C', 'C', 'C', 'C', 'C', 'C', 'C', 'C', 'C', 'C', 'C', 'C', 'C']","[334978, 335358, 335752, 336166, 336585, 336994, 337398, 337811, 338190, 338597, 338980, 339400, 339814, 340180, 340587, 340980, 341399, 341783, 342190, 342561, 342968, 343361, 343757]","[335054, 335421, 335828, 336239, 336656, 337067, 337456, 337874, 338250, 338668, 339063, 339452, 339865, 340244, 340641, 341045, 341458, 341859, 342246, 342642, 343043, 343429, 343836]","[98, 151, 141, 157, 138, 117, 143, 121, 136, 120, 98, 72, 61, 92, 90, 81, 82, 103, 12, 107, 76, 76, 110]","[334981, 335362, 335754, 336168, 336587, 336997, 337401, 337814, 338193, 338600, 338983, 339403, 339817, 340184, 340590, 340983, 341402, 341786, 342194, 342564, 342971, 343364, 343760]","[334608, 335007, 335407, 335807, 336207, 336607, 337007, 337408, 337831, 338210, 338617, 339000, 339420, 339834, 340200, 340608, 341000, 341420, 341804, 342210, 342581, 342988, 343382, 343777]",90,EM,U,R,ITMSR,1.1,
3,600,trial,0,9,9,9,trial,"['S', 'S', 'S', 'S', 'S', 'S', 'C', 'C', 'C', 'C', 'C', 'C', 'C', 'C', 'C', 'C', 'C', 'C', 'C', 'C', 'C', 'C']","[350302, 350894, 351505, 352071, 352702, 353325, 353902, 354489, 355080, 355651, 356228, 356815, 357407, 357987, 358541, 359152, 359702, 360256, 360849, 361395, 361975, 362561]","[350391, 350985, 351585, 352167, 352775, 353383, 353953, 354542, 355127, 355710, 356289, 356902, 357494, 358078, 358634, 359230, 359784, 360345, 360931, 361481, 362075, 362652]","[128, 122, 98, 117, 86, 96, 83, 88, 48, 92, 67, 84, 85, 62, 81, 56, 62, 34, 33, 41, 70, 106]","[350304, 350897, 351509, 352074, 352706, 353329, 353905, 354492, 355083, 355655, 356232, 356818, 357410, 357991, 358545, 359156, 359706, 360260, 360853, 361399, 361979, 362565]","[349137, 349737, 350338, 350938, 351538, 352138, 352738, 353338, 353922, 354509, 355100, 355672, 356248, 356835, 357427, 358007, 358561, 359172, 359723, 360276, 360869, 361415, 361995, 362582]",90,EM,U,R,ITMSR,1.1,
2,600,trial,0,10,10,10,trial,"['S', 'S', 'S', 'S', 'S', 'S', 'S', 'C', 'C', 'C', 'C', 'C', 'C', 'C', 'C', 'C', 'C', 'C', 'C', 'C', 'C', 'C', 'C']","[368613, 369300, 369978, 370616, 371198, 371810, 372409, 372990, 373606, 374219, 374775, 375330, 375886, 376492, 377077, 377679, 378286, 378870, 379437, 380055, 380657, 381242, 381779]","[368693, 369425, 370087, 370688, 371293, 371897, 372488, 373014, 373657, 374293, 374851, 375427, 375981, 376619, 377190, 377794, 378383, 378952, 379529, 380140, 380735, 381317, 381859]","[65, 118, 121, 88, 49, 47, 24, 41, 11, 60, 3, 38, 9, 23, 25, 61, 21, 24, 70, 245, 9, 26, 31]","[368617, 369303, 369981, 370619, 371203, 371814, 372413, 372995, 373610, 374223, 374779, 375334, 375890, 376496, 377081, 377682, 378290, 378874, 379441, 380059, 380661, 381246, 381784]","[368222, 368822, 369422, 370022, 370622, 371222, 371822, 372422, 373010, 373626, 374239, 374795, 375350, 375906, 376512, 377097, 377699, 378306, 378890, 379457, 380076, 380677, 381262, 381799]",90,EM,U,R,ITMSR,1.1,
0,600,trial,0,11,11,11,trial,"['S', 'S', 'S', 'S', 'S', 'S', 'C', 'C', 'C', 'C', 'C', 'C', 'C', 'C', 'C', 'C', 'C', 'C', 'C', 'C', 'C', 'C']","[388627, 389245, 389851, 390455, 391064, 391645, 392272, 392856, 393441, 394031, 394577, 395201, 395755, 396315, 396890, 397462, 398011, 398609, 399161, 399773, 400329, 400924]","[388722, 389332, 389936, 390539, 391133, 391719, 392343, 392950, 393527, 394099, 394649, 395261, 395848, 396396, 396957, 397508, 398065, 398665, 399220, 399831, 400396, 400982]","[115, 119, 124, 107, 27, 65, 34, 108, 78, 46, 52, 232, 5, 1, 232, 202, 223, 234, 1, 12, 8, 19]","[388631, 389249, 389854, 390458, 391067, 391649, 392276, 392860, 393444, 394035, 394580, 395207, 395759, 396319, 396894, 397466, 398015, 398612, 399165, 399777, 400333, 400928]","[387507, 388107, 388707, 389307, 389907, 390507, 391107, 391707, 392292, 392877, 393461, 394051, 394597, 395222, 395776, 396335, 396910, 397483, 398031, 398629, 399181, 399793, 400349, 400944]",90,EM,U,R,ITMSR,1.1,
2,400,trial,0,12,12,12,trial,"['S', 'S', 'S', 'S', 'S', 'S', 'C', 'C', 'C', 'C', 'C', 'C', 'C', 'C', 'C', 'C', 'C', 'C', 'C', 'C', 'C', 'C']","[407246, 407643, 408048, 408463, 408861, 409294, 409713, 410108, 410486, 410892, 411286, 411669, 412077, 412479, 412874, 413291, 413700, 414097, 414516, 414928, 415305, 415686]","[407312, 407703, 408116, 408528, 408934, 409359, 409768, 410182, 410578, 410960, 411359, 411750, 412139, 412542, 412965, 413367, 413773, 414168, 414583, 415002, 415378, 415761]","[94, 115, 89, 130, 90, 92, 51, 57, 76, 61, 52, 61, 48, 59, 56, 28, 47, 254, 8, 254, 46, 218]","[407250, 407646, 408051, 408465, 408865, 409298, 409717, 410113, 410489, 410896, 411290, 411672, 412080, 412483, 412878, 413295, 413704, 414102, 414520, 414934, 415309, 415690]","[406534, 406934, 407334, 407734, 408134, 408535, 408934, 409334, 409733, 410128, 410506, 410912, 411307, 411689, 412097, 412499, 412894, 413312, 413720, 414117, 414536, 414948, 415325, 415706]",90,EM,U,R,ITMSR,1.1,
5,400,trial,0,13,13,13,trial,"['S', 'S', 'S', 'S', 'S', 'S', 'C', 'C', 'C', 'C', 'C', 'C', 'C', 'C', 'C', 'C', 'C', 'C', 'C', 'C', 'C', 'C']","[421936, 422332, 422770, 423162, 423569, 423936, 424329, 424731, 425160, 425573, 426009, 426428, 426856, 427292, 427692, 428078, 428505, 428883, 429281, 429669, 430044, 430444]","[421999, 422410, 422844, 423235, 423642, 424005, 424425, 424798, 425233, 425648, 426089, 426485, 426941, 427350, 427760, 428148, 428583, 428963, 429341, 429725, 430114, 430515]","[16, 63, 84, 99, 62, 81, 57, 91, 45, 55, 34, 26, 9, 255, 71, 54, 74, 68, 27, 40, 244, 38]","[421941, 422336, 422774, 423165, 423572, 423939, 424333, 424734, 425164, 425576, 426012, 426432, 426859, 427296, 427695, 428082, 428508, 428888, 429285, 429672, 430048, 430449]","[421163, 421562, 421962, 422362, 422762, 423162, 423562, 423962, 424349, 424751, 425180, 425593, 426029, 426448, 426876, 427312, 427712, 428098, 428525, 428903, 429301, 429689, 430064, 430465]",90,EM,U,R,ITMSR,1.1,
4,600,trial,0,14,14,14,trial,"['S', 'S', 'S', 'S', 'S', 'S', 'C', 'C', 'C', 'C', 'C', 'C', 'C', 'C', 'C', 'C', 'C', 'C', 'C', 'C', 'C', 'C']","[437150, 437724, 438333, 438943, 439523, 440133, 440704, 441286, 441891, 442514, 443104, 443734, 444304, 444899, 445495, 446071, 446660, 447244, 447839, 448442, 449035, 449599]","[437285, 437890, 438431, 439013, 439587, 440211, 440797, 441383, 442000, 442629, 443192, 443828, 444384, 445007, 445586, 446161, 446759, 447335, 447955, 448537, 449127, 449699]","[82, 56, 17, 30, 236, 240, 234, 0, 244, 246, 218, 244, 209, 253, 196, 249, 215, 250, 20, 17, 251, 21]","[437154, 437727, 438337, 438946, 439527, 440137, 440707, 441290, 441895, 442518, 443107, 443738, 444307, 444903, 445498, 446074, 446664, 447247, 447843, 448446, 449038, 449602]","[435983, 436583, 437183, 437783, 438383, 438983, 439583, 440183, 440724, 441306, 441911, 442534, 443124, 443754, 444324, 444919, 445515, 446091, 446680, 447264, 447859, 448462, 449055, 449619]",90,EM,U,R,ITMSR,1.1,
5,600,trial,0,15,15,15,trial,"['S', 'S', 'S', 'S', 'S', 'S', 'C', 'C', 'C', 'C', 'C', 'C', 'C', 'C', 'C', 'C', 'C', 'C', 'C', 'C', 'C', 'C']","[456505, 457090, 457667, 458247, 458857, 459471, 460051, 460622, 461211, 461779, 462396, 462959, 463564, 464149, 464704, 465274, 465878, 466423, 467043, 467608, 468179, 468759]","[456593, 457155, 457728, 458299, 458908, 459529, 460101, 460672, 461267, 461828, 462446, 463024, 463628, 464230, 464766, 465327, 465934, 466491, 467117, 467689, 468257, 468832]","[72, 2, 27, 187, 46, 15, 173, 97, 248, 168, 219, 230, 186, 135, 186, 160, 99, 133, 175, 126, 79, 163]","[456508, 457093, 457670, 458250, 458860, 459475, 460054, 460626, 461214, 461783, 462399, 462962, 463567, 464153, 464707, 465278, 465882, 466427, 467047, 467612, 468185, 468762]","[455344, 455943, 456543, 457143, 457743, 458343, 458943, 459543, 460071, 460642, 461231, 461799, 462416, 462979, 463584, 464169, 464724, 465294, 465898, 466443, 467063, 467629, 468199, 468780]",90,EM,U,R,ITMSR,1.1,
1,400,trial,0,16,16,16,trial,"['S', 'S', 'S', 'S', 'S', 'S', 'C', 'C', 'C', 'C', 'C', 'C', 'C', 'C', 'C', 'C', 'C', 'C', 'C', 'C', 'C', 'C']","[474907, 475311, 475725, 476119, 476542, 476948, 477359, 477731, 478109, 478517, 478914, 479302, 479694, 480094, 480529, 480922, 481324, 481685, 482079, 482490, 482854, 483226]","[474974, 475362, 475786, 476192, 476601, 477009, 477415, 477798, 478179, 478594, 478973, 479370, 479774, 480161, 480591, 480991, 481376, 481743, 482142, 482544, 482927, 483281]","[253, 0, 244, 237, 164, 161, 95, 142, 243, 213, 158, 164, 202, 176, 132, 213, 219, 215, 241, 242, 39, 10]","[474910, 475314, 475728, 476122, 476546, 476951, 477363, 477734, 478112, 478521, 478917, 479305, 479698, 480097, 480533, 480926, 481327, 481688, 482082, 482494, 482857, 483230]","[474192, 474592, 474992, 475393, 475792, 476192, 476592, 476992, 477379, 477751, 478129, 478537, 478935, 479322, 479714, 480114, 480549, 480942, 481344, 481705, 482099, 482510, 482874, 483246]",90,EM,U,R,ITMSR,1.1,
1,600,trial,0,17,17,17,trial,"['S', 'S', 'S', 'S', 'S', 'S', 'C', 'C', 'C', 'C', 'C', 'C', 'C', 'C', 'C', 'C', 'C', 'C', 'C', 'C', 'C', 'C']","[490119, 490714, 491300, 491919, 492484, 493073, 493747, 494338, 494882, 495479, 496038, 496602, 497216, 497784, 498345, 498927, 499531, 500096, 500657, 501256, 501826, 502409]","[490244, 490803, 491394, 491997, 492562, 493148, 493827, 494429, 494972, 495554, 496124, 496689, 497303, 497879, 498412, 499006, 499613, 500170, 500754, 501348, 501940, 502509]","[104, 65, 41, 249, 217, 236, 20, 25, 26, 34, 7, 241, 206, 253, 10, 7, 223, 156, 61, 8, 17, 35]","[490122, 490718, 491304, 491923, 492488, 493078, 493751, 494342, 494886, 495483, 496043, 496607, 497220, 497789, 498350, 498931, 499535, 500100, 500662, 501261, 501831, 502413]","[488938, 489538, 490138, 490738, 491338, 491938, 492538, 493138, 493767, 494358, 494902, 495499, 496058, 496622, 497236, 497804, 498365, 498947, 499551, 500116, 500677, 501276, 501847, 502429]",90,EM,U,R,ITMSR,1.1,
2,400,trial,0,18,18,18,trial,"['S', 'S', 'S', 'S', 'S', 'S', 'S', 'C', 'C', 'C', 'C', 'C', 'C', 'C', 'C', 'C', 'C', 'C', 'C', 'C', 'C', 'C', 'C']","[508536, 508918, 509336, 509752, 510126, 510561, 510988, 511369, 511758, 512166, 512532, 512937, 513338, 513741, 514134, 514543, 514950, 515379, 515798, 516209, 516658, 517027, 517432]","[508582, 508993, 509409, 509822, 510211, 510655, 511074, 511462, 511844, 512249, 512612, 513004, 513401, 513806, 514191, 514613, 515033, 515451, 515847, 516299, 516717, 517080, 517484]","[215, 99, 88, 97, 107, 110, 105, 106, 107, 91, 85, 78, 33, 71, 56, 46, 52, 65, 8, 17, 28, 14, 34]","[508540, 508921, 509339, 509755, 510129, 510563, 510990, 511373, 511761, 512169, 512535, 512942, 513342, 513745, 514138, 514547, 514954, 515382, 515802, 516213, 516662, 517031, 517435]","[508196, 508596, 508996, 509396, 509796, 510196, 510596, 510996, 511389, 511778, 512186, 512552, 512957, 513358, 513761, 514154, 514563, 514970, 515399, 515818, 516229, 516678, 517047, 517452]",90,EM,U,R,ITMSR,1.1,
5,400,trial,0,19,19,19,trial,"['S', 'S', 'S', 'S', 'S', 'S', 'C', 'C', 'C', 'C', 'C', 'C', 'C', 'C', 'C', 'C', 'C', 'C', 'C', 'C', 'C', 'C']","[523561, 523967, 524352, 524734, 525151, 525576, 525980, 526391, 526778, 527172, 527593, 527993, 528396, 528792, 529212, 529604, 530011, 530385, 530771, 531158, 531576, 531989]","[523624, 524027, 524423, 524811, 525217, 525634, 526035, 526452, 526798, 527192, 527651, 528013, 528416, 528813, 529232, 529624, 530055, 530405, 530791, 531220, 531596, 532009]","[136, 122, 140, 102, 127, 130, 119, 142, 110, 97, 118, 75, 136, 85, 119, 146, 209, 173, 206, 82, 188, 115]","[523565, 523970, 524355, 524737, 525154, 525579, 525982, 526393, 526780, 527175, 527596, 527996, 528399, 528795, 529215, 529606, 530013, 530387, 530774, 531161, 531578, 531992]","[522792, 523192, 523592, 523992, 524392, 524792, 525192, 525592, 526000, 526411, 526798, 527192, 527613, 528013, 528416, 528813, 529232, 529624, 530031, 530405, 530791, 531178, 531596, 532009]",90,EM,U,R,ITMSR,1.1,
0,400,trial,0,20,20,20,trial,"['S', 'S', 'S', 'S', 'S', 'S', 'S', 'C', 'C', 'C', 'C', 'C', 'C', 'C', 'C', 'C', 'C', 'C', 'C', 'C', 'C', 'C', 'C']","[537865, 538242, 538642, 539013, 539472, 539834, 540209, 540585, 541001, 541418, 541786, 542177, 542572, 542980, 543351, 543762, 544168, 544589, 544973, 545387, 545771, 546192, 546595]","[537927, 538295, 538696, 539033, 539492, 539901, 540280, 540657, 541044, 541438, 541806, 542197, 542619, 543000, 543371, 543782, 544188, 544609, 544993, 545408, 545845, 546212, 546660]","[91, 199, 68, 204, 207, 131, 105, 126, 81, 121, 127, 194, 128, 177, 157, 195, 123, 161, 88, 193, 139, 172, 139]","[537869, 538244, 538646, 539014, 539476, 539837, 540212, 540589, 541004, 541421, 541789, 542179, 542575, 542982, 543354, 543764, 544172, 544592, 544976, 545389, 545774, 546194, 546598]","[537465, 537864, 538264, 538664, 539064, 539464, 539864, 540264, 540605, 541021, 541438, 541806, 542197, 542593, 543000, 543371, 543782, 544188, 544609, 544993, 545408, 545792, 546212, 546615]",90,EM,U,R,ITMSR,1.1,
4,400,trial,0,21,21,21,trial,"['S', 'S', 'S', 'S', 'S', 'S', 'S', 'C', 'C', 'C', 'C', 'C', 'C', 'C', 'C', 'C', 'C', 'C', 'C', 'C', 'C', 'C', 'C']","[552641, 553052, 553425, 553840, 554224, 554584, 554989, 555420, 555812, 556182, 556547, 556928, 557291, 557671, 558048, 558415, 558815, 559204, 559554, 559952, 560353, 560737, 561132]","[552662, 553097, 553488, 553924, 554244, 554604, 555009, 555440, 555864, 556203, 556599, 556948, 557371, 557724, 558096, 558435, 558855, 559265, 559610, 559972, 560407, 560793, 561153]","[31, 96, 184, 144, 159, 191, 187, 100, 185, 161, 191, 186, 191, 198, 202, 123, 201, 185, 166, 181, 159, 173, 189]","[552645, 553055, 553427, 553842, 554227, 554586, 554991, 555423, 555814, 556185, 556549, 556931, 557293, 557673, 558050, 558418, 558817, 559207, 559557, 559955, 560355, 560739, 561134]","[552276, 552676, 553076, 553476, 553876, 554276, 554676, 555076, 555440, 555832, 556203, 556567, 556948, 557312, 557691, 558068, 558435, 558835, 559224, 559575, 559972, 560373, 560757, 561153]",90,EM,U,R,ITMSR,1.1,
1,600,trial,0,22,22,22,trial,"['S', 'S', 'S', 'S', 'S', 'S', 'S', 'C', 'C', 'C', 'C', 'C', 'C', 'C', 'C', 'C', 'C', 'C', 'C', 'C', 'C', 'C', 'C']","[566853, 567614, 568175, 568804, 569405, 570033, 570624, 571244, 571790, 572391, 572973, 573579, 574152, 574707, 575283, 575896, 576465, 577045, 577639, 578192, 578779, 579310, 579876]","[566897, 567676, 568235, 568843, 569466, 570095, 570677, 571304, 571858, 572476, 573037, 573643, 574212, 574771, 575352, 575954, 576485, 577065, 577690, 578212, 578847, 579377, 579896]","[30, 64, 87, 196, 167, 136, 190, 193, 191, 167, 189, 189, 99, 205, 198, 195, 190, 175, 201, 186, 199, 207, 186]","[566856, 567617, 568178, 568806, 569407, 570035, 570626, 571246, 571792, 572393, 572974, 573581, 574154, 574708, 575285, 575898, 576467, 577047, 577640, 578193, 578781, 579311, 579878]","[566477, 567076, 567676, 568276, 568877, 569477, 570077, 570677, 571265, 571810, 572411, 572993, 573599, 574172, 574727, 575303, 575917, 576485, 577065, 577659, 578212, 578799, 579330, 579896]",90,EM,U,R,ITMSR,1.1,
5,600,trial,0,23,23,23,trial,"['S', 'S', 'S', 'S', 'S', 'S', 'S', 'C', 'C', 'C', 'C', 'C', 'C', 'C', 'C', 'C', 'C', 'C', 'C', 'C', 'C', 'C', 'C']","[585872, 586590, 587238, 587851, 588447, 589043, 589619, 590249, 590837, 591382, 591909, 592428, 592934, 593495, 594073, 594642, 595193, 595755, 596305, 596879, 597427, 598021, 598589]","[585937, 586684, 587326, 587927, 588488, 589063, 589674, 590308, 590902, 591446, 591991, 592490, 593011, 593586, 594163, 594734, 595273, 595843, 596325, 596899, 597494, 598077, 598660]","[140, 154, 120, 98, 7, 134, 111, 97, 105, 136, 145, 126, 155, 112, 152, 83, 140, 60, 107, 115, 74, 178, 122]","[585876, 586592, 587241, 587854, 588449, 589046, 589622, 590253, 590840, 591385, 591911, 592430, 592937, 593498, 594076, 594646, 595195, 595758, 596307, 596882, 597431, 598023, 598591]","[585489, 586088, 586688, 587288, 587888, 588488, 589088, 589688, 590269, 590857, 591403, 591929, 592448, 592954, 593515, 594093, 594662, 595213, 595775, 596325, 596899, 597447, 598041, 598609]",90,EM,U,R,ITMSR,1.1,
4,600,trial,0,24,24,24,trial,"['S', 'S', 'S', 'S', 'S', 'S', 'S', 'C', 'C', 'C', 'C', 'C', 'C', 'C', 'C', 'C', 'C', 'C', 'C', 'C', 'C', 'C', 'C', 'C', 'C']","[604768, 605458, 606076, 606697, 607255, 607891, 608472, 609041, 609522, 610066, 610620, 611173, 611761, 612274, 612374, 612822, 613410, 614001, 614578, 615155, 615713, 616269, 616369, 616907, 617446]","[604838, 605540, 606096, 606772, 607349, 607963, 608558, 609061, 609542, 610188, 610700, 611258, 611864, 612294, 612395, 612927, 613430, 614021, 614598, 615267, 615733, 616289, 616389, 617036, 617629]","[165, 154, 166, 185, 120, 179, 154, 149, 140, 67, 187, 62, 37, 163, 13, 85, 165, 120, 116, 140, 145, 74, 148, 66, 17]","[604769, 605460, 606078, 606699, 607257, 607893, 608474, 609043, 609524, 610069, 610622, 611176, 611764, 612276, 612374, 612825, 613412, 614003, 614580, 615157, 615715, 616272, 616369, 616910, 617448]","[604362, 604962, 605562, 606162, 606763, 607362, 607962, 608562, 609061, 609542, 610086, 610640, 611193, 611781, 612294, 612842, 613430, 614021, 614598, 615175, 615733, 616289, 616927, 617466]",90,EM,U,R,ITMSR,1.1,
3,400,trial,0,25,25,25,trial,"['S', 'S', 'S', 'S', 'S', 'S', 'C', 'C', 'C', 'C', 'C', 'C', 'C', 'C', 'C', 'C', 'C', 'C', 'C', 'C', 'C', 'C']","[623688, 624094, 624497, 624888, 625316, 625693, 626086, 626465, 626893, 627294, 627690, 628117, 628505, 628896, 629305, 629700, 630098, 630492, 630898, 631288, 631701, 632102]","[623763, 624166, 624567, 624961, 625393, 625769, 626157, 626537, 626960, 627359, 627746, 628166, 628562, 628960, 629330, 629760, 630158, 630549, 630966, 631349, 631729, 632145]","[66, 76, 100, 80, 92, 115, 140, 108, 83, 119, 106, 106, 126, 96, 64, 134, 101, 119, 96, 43, 99, 51]","[623691, 624097, 624501, 624892, 625317, 625695, 626089, 626468, 626896, 627296, 627693, 628119, 628508, 628899, 629308, 629702, 630100, 630495, 630901, 631291, 631703, 632104]","[622916, 623316, 623716, 624116, 624516, 624916, 625316, 625716, 626106, 626485, 626913, 627314, 627710, 628137, 628525, 628916, 629325, 629720, 630118, 630512, 630918, 631308, 631721, 632122]",90,EM,U,R,ITMSR,1.1,
1,400,trial,0,26,26,26,trial,"['S', 'S', 'S', 'S', 'S', 'S', 'S', 'C', 'C', 'C', 'C', 'C', 'C', 'C', 'C', 'C', 'C', 'C', 'C', 'C', 'C', 'C', 'C']","[637987, 638372, 638780, 639175, 639569, 639987, 640390, 640797, 641192, 641558, 641933, 642341, 642732, 643137, 643532, 643926, 644332, 644736, 645135, 645499, 645940, 646307, 646683]","[638062, 638439, 638868, 639261, 639653, 640053, 640437, 640850, 641259, 641627, 642006, 642421, 642802, 643219, 643611, 643999, 644395, 644807, 645197, 645597, 646005, 646386, 646747]","[101, 109, 141, 104, 141, 112, 67, 82, 74, 74, 44, 26, 60, 97, 70, 104, 80, 88, 41, 81, 77, 97, 74]","[637990, 638375, 638783, 639178, 639571, 639989, 640392, 640800, 641195, 641560, 641936, 642344, 642735, 643140, 643535, 643929, 644335, 644738, 645138, 645502, 645943, 646309, 646686]","[637606, 638006, 638406, 638807, 639206, 639606, 640006, 640406, 640817, 641212, 641579, 641953, 642361, 642752, 643158, 643552, 643946, 644353, 644756, 645155, 645519, 645960, 646327, 646703]",90,EM,U,R,ITMSR,1.1,
0,600,trial,0,27,27,27,trial,"['S', 'S', 'S', 'S', 'S', 'S', 'S', 'C', 'C', 'C', 'C', 'C', 'C', 'C', 'C', 'C', 'C', 'C', 'C', 'C', 'C', 'C', 'C']","[652786, 653507, 654158, 654784, 655353, 655969, 656525, 657175, 657710, 658295, 658890, 659466, 660048, 660611, 661158, 661716, 662256, 662841, 663426, 663997, 664572, 665135, 665671]","[652856, 653601, 654259, 654876, 655458, 656052, 656631, 657264, 657793, 658400, 658988, 659546, 660115, 660696, 661235, 661801, 662371, 663025, 663621, 664146, 664770, 665328, 665872]","[45, 126, 90, 70, 42, 249, 27, 64, 38, 37, 43, 249, 14, 13, 245, 232, 194, 34, 87, 27, 19, 81, 95]","[652788, 653510, 654161, 654787, 655356, 655972, 656528, 657179, 657713, 658298, 658936, 659470, 660051, 660616, 661164, 661722, 662303, 662939, 663508, 664067, 664576, 665214, 665747]","[652459, 653058, 653658, 654258, 654858, 655458, 656058, 656658, 657196, 657730, 658315, 658910, 659486, 660068, 660631, 661178, 661736, 662276, 662861, 663446, 664017, 664592, 665155, 665691]",90,EM,U,R,ITMSR,1.1,
0,400,trial,0,28,28,28,trial,"['S', 'S', 'S', 'S', 'S', 'S', 'S', 'C', 'C', 'C', 'C', 'C', 'C', 'C', 'C', 'C', 'C', 'C', 'C', 'C', 'C', 'C', 'C']","[671855, 672233, 672581, 673004, 673405, 673785, 674186, 674564, 674932, 675351, 675764, 676159, 676572, 676981, 677381, 677776, 678204, 678629, 679028, 679431, 679819, 680233, 680624]","[671938, 672306, 672668, 673065, 673477, 673851, 674230, 674627, 674993, 675423, 675827, 676215, 676636, 677042, 677457, 677858, 678272, 678678, 679079, 679455, 679876, 680293, 680680]","[93, 87, 90, 56, 87, 52, 2, 19, 31, 247, 202, 236, 239, 16, 10, 4, 236, 218, 187, 112, 174, 11, 191]","[671857, 672236, 672584, 673008, 673409, 673787, 674189, 674566, 674934, 675354, 675767, 676163, 676576, 676984, 677384, 677780, 678208, 678632, 679031, 679435, 679824, 680237, 680628]","[671425, 671824, 672224, 672624, 673025, 673424, 673824, 674224, 674584, 674952, 675372, 675784, 676179, 676592, 677001, 677401, 677796, 678224, 678649, 679048, 679451, 679839, 680253, 680644]",90,EM,U,R,ITMSR,1.1,
2,600,trial,0,29,29,29,trial,"['S', 'S', 'S', 'S', 'S', 'S', 'S', 'C', 'C', 'C', 'C', 'C', 'C', 'C', 'C', 'C', 'C', 'C', 'C', 'C', 'C', 'C', 'C']","[686714, 687478, 688100, 688712, 689340, 689926, 690510, 691112, 691728, 692304, 692886, 693442, 694053, 694624, 695185, 695733, 696312, 696900, 697449, 698016, 698593, 699147, 699747]","[686791, 687559, 688177, 688769, 689381, 689980, 690562, 691162, 691791, 692388, 692967, 693516, 694123, 694699, 695264, 695825, 696400, 696964, 697530, 698098, 698682, 699241, 699826]","[81, 108, 68, 49, 31, 62, 61, 18, 71, 92, 67, 73, 27, 34, 54, 40, 2, 20, 61, 19, 0, 251, 2]","[686718, 687481, 688103, 688716, 689343, 689929, 690514, 691116, 691731, 692307, 692888, 693445, 694057, 694627, 695189, 695736, 696315, 696904, 697452, 698020, 698597, 699151, 699751]","[686368, 686967, 687567, 688167, 688768, 689368, 689968, 690568, 691132, 691748, 692324, 692907, 693463, 694073, 694644, 695205, 695753, 696332, 696920, 697469, 698036, 698613, 699167, 699767]",90,EM,U,R,ITMSR,1.1,
0,600,trial,0,30,30,30,trial,"['S', 'S', 'S', 'S', 'S', 'S', 'S', 'C', 'C', 'C', 'C', 'C', 'C', 'C', 'C', 'C', 'C', 'C', 'C', 'C', 'C', 'C', 'C']","[711153, 711838, 712468, 713063, 713684, 714277, 714903, 715495, 716077, 716666, 717287, 717857, 718401, 718965, 719539, 720105, 720647, 721234, 721814, 722378, 722976, 723561, 724154]","[711239, 711922, 712553, 713153, 713780, 714380, 714993, 715590, 716203, 716781, 717389, 717971, 718511, 719056, 719648, 720199, 720750, 721355, 721942, 722500, 723116, 723695, 724271]","[60, 51, 78, 51, 73, 56, 97, 9, 4, 52, 15, 21, 41, 23, 57, 15, 20, 64, 100, 106, 117, 119, 54]","[711157, 711842, 712471, 713067, 713688, 714280, 714906, 715498, 716080, 716670, 717334, 717922, 718451, 718969, 719595, 720109, 720694, 721291, 721873, 722438, 723045, 723629, 724207]","[710775, 711375, 711975, 712576, 713176, 713776, 714376, 714976, 715515, 716097, 716686, 717307, 717877, 718422, 718985, 719559, 720125, 720667, 721254, 721835, 722398, 722996, 723581, 724174]",90,EM,U,R,ITMSR,1.1,
2,600,trial,0,31,31,31,trial,"['S', 'S', 'S', 'S', 'S', 'S', 'S', 'C', 'C', 'C', 'C', 'C', 'C', 'C', 'C', 'C', 'C', 'C', 'C', 'C', 'C', 'C', 'C']","[730193, 730884, 731490, 732073, 732676, 733326, 733957, 734532, 735128, 735712, 736309, 736899, 737464, 738034, 738636, 739198, 739751, 740321, 740915, 741474, 742069, 742645, 743261]","[730275, 730958, 731558, 732149, 732772, 733391, 734031, 734600, 735190, 735796, 736390, 736966, 737537, 738132, 738723, 739271, 739834, 740458, 741041, 741605, 742188, 742749, 743375]","[110, 89, 67, 85, 102, 67, 102, 75, 61, 52, 244, 18, 52, 44, 249, 199, 23, 17, 95, 99, 71, 56, 78]","[730196, 730888, 731493, 732077, 732679, 733330, 733961, 734534, 735131, 735715, 736313, 736903, 737467, 738038, 738640, 739203, 739756, 740401, 740982, 741534, 742128, 742648, 743265]","[729776, 730376, 730976, 731576, 732176, 732776, 733376, 733976, 734552, 735149, 735732, 736329, 736919, 737484, 738054, 738656, 739218, 739771, 740341, 740935, 741494, 742089, 742665, 743281]",90,EM,U,R,ITMSR,1.1,
4,400,trial,0,32,32,32,trial,"['S', 'S', 'S', 'S', 'S', 'S', 'S', 'C', 'C', 'C', 'C', 'C', 'C', 'C', 'C', 'C', 'C', 'C', 'C', 'C', 'C', 'C', 'C']","[749164, 749437, 749842, 750260, 750678, 751097, 751485, 751910, 752289, 752696, 753084, 753468, 753902, 754304, 754683, 755090, 755522, 755903, 756270, 756662, 757039, 757449, 757839]","[749245, 749530, 749928, 750353, 750760, 751162, 751559, 751973, 752359, 752777, 753149, 753556, 753989, 754393, 754766, 755181, 755585, 755980, 756344, 756741, 757114, 757516, 757914]","[55, 99, 37, 56, 69, 32, 21, 21, 55, 6, 11, 251, 230, 12, 214, 20, 251, 212, 219, 251, 3, 25, 32]","[749168, 749441, 749846, 750264, 750681, 751100, 751490, 751915, 752293, 752700, 753087, 753471, 753906, 754307, 754686, 755093, 755526, 755907, 756273, 756665, 757042, 757453, 757842]","[748710, 749110, 749510, 749911, 750310, 750710, 751110, 751510, 751930, 752309, 752716, 753104, 753488, 753922, 754324, 754703, 755110, 755543, 755923, 756290, 756682, 757059, 757469, 757859]",90,EM,U,R,ITMSR,1.1,
1,400,trial,0,33,33,33,trial,"['S', 'S', 'S', 'S', 'S', 'S', 'S', 'C', 'C', 'C', 'C', 'C', 'C', 'C', 'C', 'C', 'C', 'C', 'C', 'C', 'C', 'C', 'C']","[763555, 763983, 764389, 764811, 765184, 765578, 765982, 766394, 766778, 767160, 767536, 767917, 768311, 768696, 769079, 769457, 769853, 770232, 770666, 771018, 771416, 771828, 772212]","[763620, 764042, 764470, 764888, 765278, 765660, 766055, 766468, 766838, 767236, 767627, 767997, 768398, 768769, 769159, 769536, 769946, 770334, 770736, 771098, 771496, 771926, 772305]","[143, 112, 106, 72, 115, 127, 68, 43, 17, 1, 81, 105, 105, 56, 80, 71, 60, 71, 31, 19, 68, 36, 43]","[763558, 763985, 764392, 764815, 765188, 765580, 765985, 766397, 766781, 767164, 767539, 767919, 768314, 768700, 769082, 769460, 769856, 770236, 770669, 771022, 771418, 771832, 772215]","[763242, 763642, 764042, 764442, 764843, 765242, 765642, 766042, 766414, 766798, 767180, 767556, 767937, 768331, 768716, 769099, 769477, 769873, 770252, 770686, 771038, 771436, 771848, 772232]",90,EM,U,R,ITMSR,1.1,
0,600,trial,0,34,34,34,trial,"['S', 'S', 'S', 'S', 'S', 'S', 'C', 'C', 'C', 'C', 'C', 'C', 'C', 'C', 'C', 'C', 'C', 'C', 'C', 'C', 'C', 'C']","[778140, 778874, 779463, 780088, 781309, 781886, 782476, 783009, 783609, 784177, 784756, 785324, 785910, 786441, 787022, 787565, 788103, 788664, 789249, 789789, 790362, 790929]","[778227, 778974, 779599, 780238, 781551, 782053, 782617, 783185, 783762, 784314, 784881, 785424, 786040, 786573, 787182, 787693, 788227, 788803, 789397, 789964, 790550, 791055]","[14, 66, 140, 129, 162, 156, 150, 132, 117, 128, 138, 91, 92, 125, 142, 139, 130, 140, 154, 158, 162, 100]","[778144, 778878, 779524, 780092, 781425, 781961, 782479, 783096, 783677, 784248, 784815, 785370, 785966, 786497, 787092, 787618, 788155, 788726, 789311, 789863, 790455, 790979]","[777786, 778386, 778986, 779586, 780186, 780786, 781386, 781986, 782496, 783029, 783629, 784197, 784776, 785344, 785930, 786461, 787042, 787586, 788123, 788684, 789269, 789809, 790382, 790949]",90,EM,U,R,ITMSR,1.1,
4,600,trial,0,35,35,35,trial,"['S', 'S', 'S', 'S', 'S', 'S', 'S', 'C', 'C', 'C', 'C', 'C', 'C', 'C', 'C', 'C', 'C', 'C', 'C', 'C', 'C', 'C', 'C']","[796675, 797415, 798056, 798649, 799230, 799810, 800398, 801036, 801595, 802172, 802722, 803279, 803878, 804419, 804955, 805529, 806069, 806628, 807166, 807712, 808305, 808863, 809389]","[796775, 797527, 798171, 798753, 799333, 799923, 800506, 801132, 801676, 802263, 802830, 803392, 803982, 804535, 805090, 805658, 806198, 806752, 807305, 807861, 808474, 809031, 809530]","[60, 125, 17, 44, 100, 54, 48, 57, 23, 193, 3, 6, 224, 228, 143, 179, 158, 200, 144, 154, 231, 150, 238]","[796680, 797417, 798060, 798653, 799234, 799859, 800402, 801039, 801600, 802177, 802726, 803335, 803919, 804475, 805031, 805585, 806118, 806676, 807171, 807792, 808386, 808951, 809392]","[796298, 796897, 797497, 798097, 798697, 799297, 799897, 800497, 801056, 801615, 802192, 802742, 803299, 803898, 804440, 804975, 805549, 806089, 806648, 807186, 807732, 808325, 808883, 809409]",90,EM,U,R,ITMSR,1.1,
4,600,trial,0,36,36,36,trial,"['S', 'S', 'S', 'S', 'S', 'S', 'S', 'C', 'C', 'C', 'C', 'C', 'C', 'C', 'C', 'C', 'C', 'C', 'C', 'C', 'C', 'C', 'C']","[815319, 815981, 816614, 817196, 817833, 818398, 818972, 819569, 820144, 820658, 821225, 821815, 822364, 822944, 823482, 824032, 824611, 825150, 825678, 826259, 826840, 827390, 827893]","[815391, 816068, 816702, 817307, 817936, 818483, 819066, 819653, 820261, 820795, 821366, 821946, 822491, 823035, 823596, 824134, 824692, 825253, 825781, 826350, 826955, 827524, 828016]","[25, 42, 36, 231, 23, 214, 22, 253, 11, 180, 220, 204, 18, 25, 51, 33, 40, 2, 166, 173, 149, 154, 105]","[815322, 815985, 816618, 817199, 817837, 818401, 818975, 819573, 820147, 820660, 821229, 821819, 822368, 822947, 823485, 824036, 824615, 825154, 825682, 826263, 826843, 827395, 827897]","[814908, 815507, 816107, 816707, 817307, 817907, 818507, 819107, 819589, 820164, 820678, 821245, 821835, 822384, 822964, 823502, 824052, 824631, 825170, 825698, 826279, 826860, 827410, 827913]",90,EM,U,R,ITMSR,1.1,
5,400,trial,0,37,37,37,trial,"['S', 'S', 'S', 'S', 'S', 'S', 'C', 'C', 'C', 'C', 'C', 'C', 'C', 'C', 'C', 'C', 'C', 'C', 'C', 'C', 'C', 'C']","[834049, 834483, 834892, 835315, 835712, 836110, 836540, 836955, 837367, 837762, 838170, 838602, 839015, 839461, 839903, 840306, 840708, 841132, 841535, 841965, 842390, 842802]","[834111, 834543, 834953, 835392, 835781, 836166, 836588, 837008, 837399, 837782, 838235, 838665, 839097, 839528, 839973, 840373, 840781, 841194, 841600, 842039, 842411, 842864]","[65, 99, 136, 51, 61, 48, 180, 223, 1, 225, 171, 225, 184, 227, 34, 70, 71, 231, 113, 231, 152, 113]","[834052, 834485, 834894, 835318, 835715, 836113, 836543, 836958, 837370, 837765, 838173, 838605, 839017, 839463, 839906, 840308, 840710, 841134, 841537, 841967, 842391, 842804]","[833334, 833734, 834135, 834534, 834934, 835334, 835734, 836134, 836560, 836975, 837387, 837782, 838190, 838622, 839035, 839481, 839923, 840326, 840728, 841152, 841555, 841986, 842411, 842822]",90,EM,U,R,ITMSR,1.1,
2,400,trial,0,38,38,38,trial,"['S', 'S', 'S', 'S', 'S', 'S', 'S', 'C', 'C', 'C', 'C', 'C', 'C', 'C', 'C', 'C', 'C', 'C', 'C', 'C', 'C', 'C', 'C']","[848995, 849381, 849771, 850184, 850588, 850977, 851364, 851752, 852161, 852568, 852980, 853398, 853798, 854204, 854554, 855001, 855377, 855792, 856216, 856604, 857008, 857396, 857795]","[849036, 849442, 849833, 850257, 850659, 851049, 851446, 851844, 852230, 852588, 853020, 853467, 853851, 854257, 854636, 855021, 855459, 855812, 856237, 856624, 857094, 857481, 857877]","[202, 253, 47, 40, 78, 21, 247, 46, 225, 183, 10, 179, 193, 148, 166, 176, 217, 61, 91, 239, 31, 83, 42]","[848998, 849384, 849773, 850186, 850590, 850980, 851366, 851755, 852163, 852570, 852982, 853400, 853800, 854206, 854556, 855002, 855378, 855793, 856218, 856605, 857011, 857399, 857798]","[848595, 848995, 849395, 849795, 850195, 850595, 850995, 851395, 851772, 852182, 852588, 853000, 853419, 853818, 854224, 854574, 855021, 855397, 855812, 856237, 856624, 857028, 857416, 857816]",90,EM,U,R,ITMSR,1.1,
2,600,trial,0,39,39,39,trial,"['S', 'S', 'S', 'S', 'S', 'S', 'S', 'C', 'C', 'C', 'C', 'C', 'C', 'C', 'C', 'C', 'C', 'C', 'C', 'C', 'C', 'C', 'C']","[863951, 864692, 865301, 865949, 866538, 867127, 867734, 868382, 868961, 869539, 870185, 870762, 871301, 871845, 872379, 872967, 873568, 874127, 874686, 875266, 875801, 876398, 876967]","[864035, 864797, 865400, 866054, 866671, 867250, 867845, 868492, 869075, 869660, 870260, 870959, 871469, 872026, 872606, 873192, 873778, 874362, 874894, 875422, 876025, 876593, 877177]","[66, 44, 55, 45, 35, 39, 80, 76, 248, 45, 19, 239, 166, 158, 46, 36, 57, 29, 8, 36, 41, 15, 2]","[863955, 864696, 865305, 865952, 866542, 867131, 867738, 868385, 868965, 869543, 870190, 870766, 871304, 871849, 872383, 872971, 873571, 874131, 874690, 875270, 875804, 876401, 876972]","[863604, 864203, 864803, 865403, 866003, 866604, 867203, 867803, 868402, 868981, 869559, 870205, 870782, 871321, 871865, 872399, 872987, 873588, 874147, 874706, 875286, 875821, 876418, 876987]",90,EM,U,R,ITMSR,1.1,
1,600,trial,0,40,40,40,trial,"['S', 'S', 'S', 'S', 'S', 'S', 'S', 'C', 'C', 'C', 'C', 'C', 'C', 'C', 'C', 'C', 'C', 'C', 'C', 'C', 'C', 'C', 'C']","[882727, 883387, 883990, 884634, 885212, 885736, 886318, 886893, 887564, 888121, 888637, 889183, 889734, 890301, 890856, 891425, 892043, 892580, 893108, 893626, 894217, 894825, 895362]","[882812, 883484, 884091, 884715, 885294, 885809, 886394, 886979, 887638, 888188, 888756, 889304, 889927, 890504, 891061, 891612, 892145, 892657, 893194, 893742, 894302, 894914, 895482]","[46, 10, 249, 165, 228, 233, 5, 252, 24, 16, 21, 19, 15, 52, 2, 25, 56, 201, 237, 241, 20, 19, 5]","[882732, 883390, 883993, 884639, 885216, 885740, 886322, 886898, 887568, 888125, 888693, 889187, 889737, 890304, 890859, 891524, 892046, 892585, 893111, 893629, 894221, 894829, 895366]","[882334, 882934, 883534, 884134, 884734, 885335, 885934, 886534, 886914, 887584, 888141, 888657, 889203, 889754, 890321, 890876, 891445, 892063, 892600, 893128, 893646, 894237, 894845, 895382]",90,EM,U,R,ITMSR,1.1,
5,600,trial,0,41,41,41,trial,"['S', 'S', 'S', 'S', 'S', 'S', 'S', 'C', 'C', 'C', 'C', 'C', 'C', 'C', 'C', 'C', 'C', 'C', 'C', 'C', 'C', 'C', 'C']","[901340, 902097, 902704, 903284, 903897, 904489, 905098, 905709, 906259, 906873, 907451, 908038, 908634, 909246, 909833, 910426, 911027, 911648, 912267, 912870, 913447, 914076, 914661]","[901430, 902205, 902770, 903360, 903970, 904581, 905195, 905811, 906350, 906964, 907548, 908151, 908726, 909326, 909935, 910526, 911109, 911722, 912316, 912942, 913526, 914148, 914745]","[5, 94, 47, 45, 56, 95, 65, 79, 67, 67, 71, 65, 41, 37, 50, 45, 48, 37, 34, 48, 204, 40, 47]","[901344, 902100, 902708, 903288, 903900, 904493, 905101, 905713, 906262, 906877, 907454, 908041, 908637, 909249, 909836, 910429, 911030, 911651, 912270, 912873, 913452, 914079, 914664]","[900995, 901595, 902195, 902795, 903395, 903995, 904595, 905195, 905730, 906279, 906893, 907471, 908058, 908654, 909266, 909853, 910446, 911047, 911668, 912287, 912890, 913467, 914096, 914681]",90,EM,U,R,ITMSR,1.1,
0,400,trial,0,42,42,42,trial,"['S', 'S', 'S', 'S', 'S', 'S', 'S', 'C', 'C', 'C', 'C', 'C', 'C', 'C', 'C', 'C', 'C', 'C', 'C', 'C', 'C', 'C', 'C']","[920446, 920765, 921126, 921542, 921945, 922359, 922745, 923153, 923528, 923924, 924286, 924696, 925094, 925505, 925912, 926297, 926679, 927063, 927461, 927823, 928232, 928631, 929007]","[920545, 920842, 921210, 921614, 922023, 922428, 922820, 923239, 923601, 924009, 924379, 924791, 925191, 925609, 925972, 926369, 926755, 927139, 927548, 927905, 928323, 928733, 929113]","[1, 39, 60, 76, 54, 28, 112, 104, 97, 93, 59, 40, 101, 43, 52, 60, 54, 88, 100, 86, 106, 90, 64]","[920450, 920768, 921129, 921544, 921948, 922361, 922747, 923156, 923531, 923927, 924290, 924699, 925096, 925508, 925915, 926300, 926682, 927066, 927464, 927826, 928234, 928634, 929010]","[920007, 920408, 920808, 921208, 921608, 922008, 922408, 922808, 923173, 923548, 923944, 924306, 924717, 925114, 925526, 925932, 926317, 926699, 927083, 927481, 927843, 928252, 928651, 929027]",90,EM,U,R,ITMSR,1.1,
5,600,trial,0,43,43,43,trial,"['S', 'S', 'S', 'S', 'S', 'S', 'S', 'C', 'C', 'C', 'C', 'C', 'C', 'C', 'C', 'C', 'C', 'C', 'C', 'C', 'C', 'C', 'C']","[935138, 935840, 936422, 937070, 937708, 938353, 938929, 939514, 940008, 940562, 941132, 941700, 942254, 942866, 943392, 943958, 944517, 945068, 945626, 946216, 946742, 947300, 947862]","[935233, 935928, 936514, 937168, 937792, 938435, 939019, 939618, 940114, 940667, 941225, 941791, 942350, 942961, 943508, 944066, 944608, 945156, 945728, 946297, 946852, 947426, 947988]","[217, 225, 247, 26, 4, 237, 0, 249, 22, 236, 1, 26, 46, 3, 17, 254, 253, 232, 247, 16, 3, 33, 220]","[935142, 935844, 936426, 937073, 937712, 938357, 938932, 939518, 940011, 940566, 941136, 941703, 942257, 942870, 943395, 943961, 944520, 945071, 945630, 946220, 946746, 947302, 947866]","[934787, 935387, 935987, 936587, 937187, 937787, 938387, 938987, 939534, 940028, 940582, 941152, 941720, 942274, 942886, 943412, 943978, 944537, 945088, 945646, 946236, 946762, 947320, 947883]",90,EM,U,R,ITMSR,1.1,
2,400,trial,0,44,44,44,trial,"['S', 'S', 'S', 'S', 'S', 'S', 'S', 'C', 'C', 'C', 'C', 'C', 'C', 'C', 'C', 'C', 'C', 'C', 'C', 'C', 'C', 'C', 'C']","[953677, 954041, 954439, 954851, 955247, 955633, 956053, 956490, 956905, 957320, 957708, 958139, 958545, 958985, 959372, 959791, 960210, 960607, 961036, 961440, 961848, 962207, 962610]","[953768, 954125, 954530, 954942, 955328, 955732, 956142, 956562, 956978, 957399, 957795, 958214, 958612, 959034, 959446, 959877, 960290, 960689, 961121, 961518, 961918, 962297, 962705]","[55, 114, 108, 78, 76, 110, 37, 44, 24, 31, 4, 239, 211, 190, 221, 223, 2, 201, 233, 2, 247, 8, 249]","[953681, 954044, 954441, 954853, 955249, 955635, 956056, 956493, 956908, 957323, 957712, 958142, 958550, 958988, 959375, 959794, 960214, 960610, 961039, 961443, 961851, 962210, 962613]","[953309, 953709, 954109, 954509, 954909, 955309, 955709, 956109, 956510, 956925, 957340, 957728, 958159, 958565, 959005, 959392, 959811, 960230, 960627, 961056, 961460, 961868, 962227, 962630]",90,EM,U,R,ITMSR,1.1,
3,600,trial,0,45,45,45,trial,"['S', 'S', 'S', 'S', 'S', 'S', 'S', 'C', 'C', 'C', 'C', 'C', 'C', 'C', 'C', 'C', 'C', 'C', 'C', 'C', 'C', 'C', 'C']","[968704, 969404, 970020, 970676, 971319, 971897, 972502, 973138, 973688, 974241, 974856, 975436, 976037, 976600, 977212, 977785, 978388, 978959, 979552, 980150, 980704, 981233, 981821]","[968761, 969467, 970097, 970716, 971372, 971937, 972563, 973189, 973728, 974286, 974938, 975532, 976125, 976705, 977299, 977881, 978464, 979036, 979628, 980215, 980793, 981323, 981915]","[66, 67, 37, 30, 78, 83, 50, 24, 72, 60, 79, 61, 32, 42, 39, 254, 26, 29, 28, 222, 31, 230, 38]","[968707, 969407, 970023, 970680, 971322, 971900, 972505, 973143, 973691, 974244, 974859, 975439, 976041, 976604, 977216, 977788, 978393, 978963, 979555, 980153, 980708, 981237, 981825]","[968371, 968971, 969571, 970171, 970771, 971371, 971971, 972571, 973158, 973708, 974261, 974876, 975456, 976057, 976620, 977232, 977805, 978408, 978979, 979572, 980170, 980724, 981253, 981841]",90,EM,U,R,ITMSR,1.1,
5,400,trial,0,46,46,46,trial,"['S', 'S', 'S', 'S', 'S', 'S', 'C', 'C', 'C', 'C', 'C', 'C', 'C', 'C', 'C', 'C', 'C', 'C', 'C', 'C', 'C', 'C']","[988229, 988653, 989052, 989403, 989818, 990209, 990642, 991000, 991390, 991799, 992183, 992570, 992990, 993386, 993795, 994202, 994603, 995006, 995441, 995845, 996242, 996645]","[988312, 988712, 989113, 989492, 989892, 990287, 990705, 991070, 991478, 991887, 992274, 992653, 993062, 993463, 993863, 994253, 994665, 995033, 995488, 995898, 996267, 996709]","[89, 77, 5, 53, 10, 255, 248, 66, 59, 55, 52, 45, 52, 31, 14, 41, 6, 149, 251, 2, 50, 54]","[988232, 988656, 989056, 989406, 989821, 990212, 990646, 991002, 991394, 991802, 992186, 992573, 992993, 993390, 993799, 994205, 994606, 995009, 995444, 995849, 996245, 996648]","[987505, 987906, 988306, 988706, 989106, 989506, 989906, 990306, 990662, 991021, 991410, 991819, 992203, 992590, 993010, 993406, 993815, 994222, 994623, 995026, 995461, 995865, 996262, 996665]",90,EM,U,R,ITMSR,1.1,
0,400,trial,0,47,47,47,trial,"['S', 'S', 'S', 'S', 'S', 'S', 'C', 'C', 'C', 'C', 'C', 'C', 'C', 'C', 'C', 'C', 'C', 'C', 'C', 'C', 'C', 'C']","[1003153, 1003588, 1003963, 1004374, 1004768, 1005154, 1005558, 1005920, 1006332, 1006697, 1007105, 1007497, 1007900, 1008297, 1008695, 1009099, 1009492, 1009890, 1010253, 1010630, 1011054, 1011426]","[1003203, 1003652, 1004043, 1004422, 1004836, 1005217, 1005631, 1005976, 1006397, 1006777, 1007174, 1007571, 1007978, 1008348, 1008752, 1009166, 1009551, 1009938, 1010314, 1010688, 1011106, 1011487]","[242, 15, 7, 24, 37, 25, 8, 11, 250, 238, 221, 251, 192, 15, 207, 184, 179, 156, 153, 153, 155, 144]","[1003157, 1003591, 1003966, 1004377, 1004771, 1005157, 1005562, 1005923, 1006337, 1006701, 1007108, 1007500, 1007903, 1008301, 1008698, 1009103, 1009496, 1009894, 1010258, 1010635, 1011058, 1011430]","[1002426, 1002826, 1003226, 1003626, 1004026, 1004426, 1004826, 1005227, 1005578, 1005940, 1006352, 1006717, 1007125, 1007517, 1007920, 1008317, 1008715, 1009119, 1009512, 1009910, 1010273, 1010650, 1011074, 1011446]",90,EM,U,R,ITMSR,1.1,
3,400,trial,0,48,48,48,trial,"['S', 'S', 'S', 'S', 'S', 'S', 'S', 'C', 'C', 'C', 'C', 'C', 'C', 'C', 'C', 'C', 'C', 'C', 'C', 'C', 'C', 'C', 'C']","[1017171, 1017580, 1018000, 1018397, 1018757, 1019181, 1019518, 1019950, 1020315, 1020733, 1021131, 1021527, 1021923, 1022331, 1022659, 1023082, 1023480, 1023875, 1024275, 1024675, 1025088, 1025483, 1025886]","[1017212, 1017649, 1018064, 1018417, 1018813, 1019243, 1019593, 1020020, 1020366, 1020785, 1021187, 1021584, 1021972, 1022382, 1022746, 1023143, 1023541, 1023949, 1024351, 1024753, 1025150, 1025567, 1026044]","[203, 187, 97, 46, 225, 197, 177, 173, 190, 154, 159, 140, 142, 137, 214, 152, 197, 144, 149, 155, 138, 230, 198]","[1017176, 1017585, 1018005, 1018401, 1018760, 1019185, 1019522, 1019953, 1020318, 1020736, 1021134, 1021531, 1021927, 1022334, 1022663, 1023086, 1023483, 1023878, 1024278, 1024679, 1025091, 1025486, 1025890]","[1016840, 1017240, 1017640, 1018040, 1018440, 1018840, 1019240, 1019640, 1019970, 1020335, 1020753, 1021151, 1021547, 1021943, 1022351, 1022680, 1023102, 1023500, 1023895, 1024295, 1024695, 1025108, 1025503, 1025906]",90,EM,U,R,ITMSR,1.1,
1,400,trial,0,49,49,49,trial,"['S', 'S', 'S', 'S', 'S', 'S', 'S', 'C', 'C', 'C', 'C', 'C', 'C', 'C', 'C', 'C', 'C', 'C', 'C', 'C', 'C', 'C', 'C']","[1031906, 1032333, 1032736, 1033098, 1033528, 1033949, 1034321, 1034719, 1035075, 1035495, 1035867, 1036288, 1036734, 1037110, 1037484, 1037874, 1038277, 1038641, 1039005, 1039404, 1039810, 1040218, 1040562]","[1031976, 1032393, 1032796, 1033182, 1033581, 1033986, 1034389, 1034782, 1035146, 1035525, 1035930, 1036344, 1036776, 1037166, 1037536, 1037932, 1038338, 1038708, 1039097, 1039496, 1039904, 1040288, 1040647]","[201, 228, 254, 32, 245, 165, 201, 207, 223, 108, 187, 123, 164, 152, 143, 184, 177, 171, 136, 164, 203, 123, 134]","[1031911, 1032337, 1032740, 1033102, 1033532, 1033953, 1034326, 1034722, 1035079, 1035499, 1035871, 1036291, 1036738, 1037114, 1037487, 1037877, 1038281, 1038644, 1039009, 1039407, 1039813, 1040221, 1040567]","[1031580, 1031981, 1032381, 1032781, 1033181, 1033581, 1033981, 1034381, 1034739, 1035096, 1035515, 1035887, 1036308, 1036754, 1037130, 1037504, 1037894, 1038297, 1038661, 1039025, 1039424, 1039831, 1040238, 1040582]",90,EM,U,R,ITMSR,1.1,
1,600,trial,0,50,50,50,trial,"['S', 'S', 'S', 'S', 'S', 'S', 'C', 'C', 'C', 'C', 'C', 'C', 'C', 'C', 'C', 'C', 'C', 'C', 'C', 'C', 'C', 'C']","[1047383, 1048015, 1048583, 1049164, 1049721, 1050362, 1050960, 1051531, 1052127, 1052688, 1053250, 1053849, 1054394, 1054958, 1055583, 1056177, 1056714, 1057291, 1057893, 1058461, 1059034, 1059602]","[1047474, 1048094, 1048670, 1049252, 1049806, 1050437, 1051051, 1051618, 1052209, 1052767, 1053339, 1053934, 1054496, 1055034, 1055671, 1056279, 1056806, 1057394, 1057968, 1058542, 1059133, 1059693]","[108, 122, 143, 138, 123, 113, 124, 104, 89, 108, 91, 88, 82, 79, 75, 58, 52, 218, 17, 18, 11, 46]","[1047387, 1048019, 1048586, 1049167, 1049725, 1050365, 1050963, 1051534, 1052130, 1052691, 1053253, 1053852, 1054398, 1054961, 1055586, 1056181, 1056718, 1057343, 1057897, 1058464, 1059038, 1059606]","[1046227, 1046828, 1047427, 1048027, 1048627, 1049227, 1049827, 1050427, 1050980, 1051551, 1052147, 1052708, 1053271, 1053869, 1054414, 1054978, 1055603, 1056197, 1056734, 1057311, 1057913, 1058481, 1059054, 1059622]",90,EM,U,R,ITMSR,1.1,
3,400,trial,0,51,51,51,trial,"['S', 'S', 'S', 'S', 'S', 'S', 'S', 'C', 'C', 'C', 'C', 'C', 'C', 'C', 'C', 'C', 'C', 'C', 'C', 'C', 'C', 'C', 'C']","[1065700, 1066077, 1066489, 1066912, 1067287, 1067670, 1068018, 1068426, 1068805, 1069197, 1069568, 1069977, 1070337, 1070713, 1071112, 1071507, 1071850, 1072258, 1072612, 1072990, 1073401, 1073773, 1074155]","[1065800, 1066161, 1066566, 1066996, 1067360, 1067743, 1068103, 1068507, 1068881, 1069277, 1069640, 1070047, 1070400, 1070792, 1071173, 1071559, 1071933, 1072319, 1072699, 1073063, 1073461, 1073837, 1074234]","[27, 69, 248, 231, 2, 211, 230, 233, 245, 246, 21, 23, 252, 7, 254, 244, 234, 11, 19, 8, 251, 62, 32]","[1065750, 1066080, 1066492, 1066916, 1067290, 1067674, 1068023, 1068429, 1068809, 1069201, 1069572, 1069980, 1070340, 1070716, 1071116, 1071510, 1071854, 1072261, 1072616, 1072995, 1073405, 1073775, 1074158]","[1065330, 1065730, 1066130, 1066530, 1066930, 1067330, 1067730, 1068130, 1068446, 1068825, 1069217, 1069588, 1069997, 1070357, 1070733, 1071132, 1071527, 1071870, 1072278, 1072632, 1073010, 1073421, 1073794, 1074176]",90,EM,U,R,ITMSR,1.1,
3,600,trial,0,52,52,52,trial,"['S', 'S', 'S', 'S', 'S', 'S', 'S', 'C', 'C', 'C', 'C', 'C', 'C', 'C', 'C', 'C', 'C', 'C', 'C', 'C', 'C', 'C', 'C']","[1080040, 1080800, 1081407, 1081991, 1082585, 1083214, 1083800, 1084420, 1084971, 1085543, 1086066, 1086649, 1087178, 1087729, 1088335, 1088898, 1089425, 1090011, 1090565, 1091190, 1091751, 1092314, 1092864]","[1080099, 1080849, 1081479, 1082050, 1082644, 1083268, 1083843, 1084456, 1085032, 1085599, 1086133, 1086699, 1087245, 1087796, 1088394, 1088967, 1089492, 1090082, 1090647, 1091273, 1091829, 1092395, 1092953]","[23, 27, 230, 193, 249, 209, 147, 138, 120, 170, 152, 169, 116, 71, 84, 71, 78, 91, 136, 76, 104, 67, 68]","[1080044, 1080803, 1081411, 1081996, 1082589, 1083218, 1083804, 1084425, 1084976, 1085547, 1086071, 1086653, 1087182, 1087733, 1088338, 1088903, 1089428, 1090016, 1090570, 1091194, 1091756, 1092318, 1092867]","[1079712, 1080312, 1080912, 1081512, 1082113, 1082712, 1083312, 1083912, 1084440, 1084991, 1085563, 1086086, 1086669, 1087198, 1087749, 1088355, 1088918, 1089445, 1090031, 1090585, 1091210, 1091771, 1092334, 1092884]",90,EM,U,R,ITMSR,1.1,
4,400,trial,0,53,53,53,trial,"['S', 'S', 'S', 'S', 'S', 'S', 'S', 'C', 'C', 'C', 'C', 'C', 'C', 'C', 'C', 'C', 'C', 'C', 'C', 'C', 'C', 'C', 'C']","[1098617, 1098969, 1099354, 1099750, 1100198, 1100615, 1101009, 1101388, 1101782, 1102183, 1102565, 1102965, 1103373, 1103748, 1104181, 1104555, 1104955, 1105355, 1105731, 1106128, 1106529, 1106954, 1107347]","[1098676, 1099045, 1099433, 1099813, 1100258, 1100637, 1101062, 1101448, 1101857, 1102270, 1102654, 1103074, 1103476, 1103859, 1104279, 1104660, 1105047, 1105453, 1105835, 1106227, 1106658, 1107035, 1107450]","[210, 33, 12, 8, 26, 197, 227, 33, 99, 91, 106, 109, 71, 90, 46, 83, 67, 66, 88, 93, 82, 90, 88]","[1098621, 1098973, 1099358, 1099752, 1100201, 1100618, 1101014, 1101392, 1101785, 1102187, 1102568, 1102968, 1103376, 1103752, 1104184, 1104558, 1104959, 1105358, 1105734, 1106132, 1106532, 1106958, 1107350]","[1098222, 1098621, 1099021, 1099421, 1099821, 1100221, 1100621, 1101021, 1101408, 1101802, 1102203, 1102585, 1102985, 1103393, 1103768, 1104201, 1104575, 1104975, 1105375, 1105752, 1106148, 1106549, 1106974, 1107367]",90,EM,U,R,ITMSR,1.1,
5,400,trial,0,54,54,54,trial,"['S', 'S', 'S', 'S', 'S', 'S', 'S', 'C', 'C', 'C', 'C', 'C', 'C', 'C', 'C', 'C', 'C', 'C', 'C', 'C', 'C', 'C', 'C']","[1122823, 1123205, 1123647, 1123998, 1124361, 1124770, 1125153, 1125566, 1125928, 1126339, 1126718, 1127106, 1127485, 1127870, 1128270, 1128641, 1129012, 1129404, 1129787, 1130178, 1130561, 1130932, 1131315]","[1122904, 1123255, 1123717, 1124064, 1124442, 1124837, 1125222, 1125634, 1125998, 1126395, 1126804, 1127179, 1127565, 1127961, 1128351, 1128717, 1129084, 1129476, 1129873, 1130267, 1130629, 1131017, 1131390]","[76, 234, 10, 55, 243, 10, 2, 24, 16, 229, 199, 172, 230, 211, 187, 158, 254, 127, 180, 155, 174, 192, 172]","[1122826, 1123209, 1123650, 1124001, 1124365, 1124774, 1125157, 1125570, 1125932, 1126343, 1126721, 1127110, 1127488, 1127874, 1128275, 1128646, 1129018, 1129409, 1129792, 1130183, 1130566, 1130936, 1131319]","[1122422, 1122822, 1123222, 1123622, 1124022, 1124422, 1124823, 1125222, 1125586, 1125948, 1126360, 1126738, 1127127, 1127505, 1127890, 1128290, 1128662, 1129032, 1129424, 1129807, 1130199, 1130582, 1130952, 1131335]",90,EM,U,R,ITMSR,1.1,
3,400,trial,0,55,55,55,trial,"['S', 'S', 'S', 'S', 'S', 'S', 'S', 'C', 'C', 'C', 'C', 'C', 'C', 'C', 'C', 'C', 'C', 'C', 'C', 'C', 'C', 'C', 'C']","[1137355, 1137773, 1138159, 1138552, 1138948, 1139355, 1139733, 1140131, 1140524, 1140929, 1141304, 1141711, 1142121, 1142515, 1142908, 1143296, 1143698, 1144088, 1144468, 1144867, 1145278, 1145651, 1146051]","[1137422, 1137840, 1138242, 1138574, 1139010, 1139412, 1139789, 1140201, 1140575, 1140992, 1141385, 1141783, 1142177, 1142580, 1142985, 1143366, 1143766, 1144163, 1144536, 1144935, 1145330, 1145714, 1146117]","[6, 4, 255, 182, 170, 216, 208, 192, 171, 166, 112, 123, 112, 107, 78, 106, 129, 121, 101, 98, 93, 92, 97]","[1137358, 1137777, 1138163, 1138556, 1138952, 1139358, 1139737, 1140135, 1140528, 1140933, 1141309, 1141714, 1142125, 1142518, 1142914, 1143300, 1143701, 1144092, 1144471, 1144871, 1145282, 1145657, 1146057]","[1137010, 1137410, 1137810, 1138210, 1138610, 1139010, 1139410, 1139810, 1140151, 1140544, 1140950, 1141324, 1141731, 1142141, 1142535, 1142928, 1143316, 1143718, 1144109, 1144488, 1144887, 1145298, 1145671, 1146072]",90,EM,U,R,ITMSR,1.1,
0,400,trial,0,56,56,56,trial,"['S', 'S', 'S', 'S', 'S', 'S', 'S', 'C', 'C', 'C', 'C', 'C', 'C', 'C', 'C', 'C', 'C', 'C', 'C', 'C', 'C', 'C', 'C']","[1151823, 1152234, 1152611, 1153004, 1153354, 1153775, 1154182, 1154610, 1155010, 1155412, 1155788, 1156206, 1156625, 1156979, 1157361, 1157739, 1158119, 1158528, 1158897, 1159305, 1159694, 1160075, 1160472]","[1151895, 1152297, 1152684, 1153068, 1153437, 1153856, 1154271, 1154681, 1155079, 1155480, 1155879, 1156276, 1156696, 1157061, 1157430, 1157834, 1158213, 1158606, 1158996, 1159378, 1159780, 1160150, 1160563]","[231, 209, 185, 181, 153, 116, 129, 100, 105, 90, 64, 69, 81, 22, 48, 109, 148, 71, 62, 135, 142, 140, 141]","[1151826, 1152237, 1152616, 1153008, 1153359, 1153780, 1154187, 1154616, 1155015, 1155418, 1155792, 1156210, 1156629, 1157025, 1157366, 1157790, 1158124, 1158532, 1158952, 1159309, 1159698, 1160079, 1160477]","[1151478, 1151877, 1152277, 1152677, 1153077, 1153477, 1153878, 1154277, 1154630, 1155031, 1155432, 1155808, 1156226, 1156645, 1156999, 1157381, 1157760, 1158139, 1158548, 1158917, 1159325, 1159714, 1160095, 1160493]",90,EM,U,R,ITMSR,1.1,
1,400,trial,0,57,57,57,trial,"['S', 'S', 'S', 'S', 'S', 'S', 'S', 'C', 'C', 'C', 'C', 'C', 'C', 'C', 'C', 'C', 'C', 'C', 'C', 'C', 'C', 'C', 'C']","[1166389, 1166810, 1167184, 1167564, 1167942, 1168349, 1168761, 1169174, 1169551, 1169949, 1170372, 1170749, 1171121, 1171513, 1171902, 1172304, 1172725, 1173076, 1173507, 1173888, 1174299, 1174696, 1175078]","[1166454, 1166872, 1167251, 1167639, 1168009, 1168428, 1168821, 1169253, 1169634, 1170029, 1170448, 1170833, 1171185, 1171592, 1171988, 1172408, 1172801, 1173176, 1173600, 1173988, 1174382, 1174798, 1175153]","[3, 184, 250, 198, 214, 137, 217, 154, 128, 174, 85, 170, 113, 124, 91, 63, 100, 92, 73, 91, 115, 117, 152]","[1166392, 1166813, 1167188, 1167568, 1167946, 1168353, 1168766, 1169179, 1169556, 1169954, 1170377, 1170754, 1171125, 1171518, 1171907, 1172312, 1172731, 1173083, 1173512, 1173939, 1174304, 1174701, 1175083]","[1166045, 1166445, 1166845, 1167245, 1167645, 1168045, 1168445, 1168845, 1169195, 1169571, 1169969, 1170392, 1170769, 1171141, 1171533, 1171922, 1172324, 1172745, 1173096, 1173527, 1173908, 1174319, 1174716, 1175098]",90,EM,U,R,ITMSR,1.1,
4,600,trial,0,58,58,58,trial,"['S', 'S', 'S', 'S', 'S', 'S', 'S', 'C', 'C', 'C', 'C', 'C', 'C', 'C', 'C', 'C', 'C', 'C', 'C', 'C', 'C', 'C', 'C']","[1181270, 1181676, 1182228, 1182844, 1183409, 1183942, 1184576, 1185204, 1185743, 1186312, 1186894, 1187551, 1188135, 1188733, 1189320, 1189889, 1190461, 1191015, 1191588, 1192180, 1192766, 1193254, 1193825]","[1181328, 1181740, 1182300, 1182926, 1183493, 1184050, 1184652, 1185274, 1185824, 1186408, 1186989, 1187614, 1188219, 1188813, 1189392, 1189969, 1190541, 1191103, 1191684, 1192295, 1192824, 1193345, 1193962]","[191, 35, 31, 227, 221, 157, 182, 120, 61, 1, 5, 234, 55, 31, 232, 40, 36, 76, 139, 90, 50, 58, 169]","[1181273, 1181679, 1182231, 1182849, 1183413, 1183946, 1184581, 1185208, 1185748, 1186318, 1186899, 1187556, 1188141, 1188738, 1189324, 1189892, 1190465, 1191018, 1191593, 1192183, 1192770, 1193257, 1193878]","[1180518, 1181118, 1181718, 1182318, 1182918, 1183518, 1184118, 1184718, 1185224, 1185763, 1186332, 1186914, 1187571, 1188155, 1188753, 1189340, 1189909, 1190481, 1191035, 1191608, 1192200, 1192786, 1193274, 1193845]",90,EM,U,R,ITMSR,1.1,
5,600,trial,0,59,59,59,trial,"['S', 'S', 'S', 'S', 'S', 'S', 'S', 'C', 'C', 'C', 'C', 'C', 'C', 'C', 'C', 'C', 'C', 'C', 'C', 'C', 'C', 'C', 'C']","[1199849, 1200580, 1201268, 1201875, 1202493, 1203088, 1203679, 1204272, 1204867, 1205463, 1206039, 1206615, 1207201, 1207793, 1208341, 1208922, 1209475, 1210079, 1210631, 1211208, 1211812, 1212386, 1213000]","[1199928, 1200672, 1201332, 1201954, 1202538, 1203128, 1203727, 1204315, 1204889, 1205485, 1206098, 1206685, 1207250, 1207863, 1208417, 1208980, 1209526, 1210149, 1210693, 1211298, 1211883, 1212454, 1213079]","[240, 24, 17, 26, 17, 147, 142, 208, 60, 20, 70, 66, 0, 38, 2, 30, 41, 49, 249, 91, 254, 254, 202]","[1199853, 1200583, 1201271, 1201879, 1202496, 1203092, 1203684, 1204276, 1204872, 1205468, 1206044, 1206620, 1207205, 1207798, 1208347, 1208927, 1209479, 1210085, 1210636, 1211255, 1211819, 1212423, 1213006]","[1199514, 1200113, 1200713, 1201313, 1201913, 1202513, 1203113, 1203714, 1204292, 1204887, 1205483, 1206060, 1206635, 1207221, 1207813, 1208361, 1208942, 1209495, 1210099, 1210651, 1211228, 1211832, 1212406, 1213020]",90,EM,U,R,ITMSR,1.1,
5,600,trial,0,60,60,60,trial,"['S', 'S', 'S', 'S', 'S', 'S', 'S', 'C', 'C', 'C', 'C', 'C', 'C', 'C', 'C', 'C', 'C', 'C', 'C', 'C', 'C', 'C', 'C']","[1218990, 1219763, 1220387, 1220989, 1221556, 1222163, 1222732, 1223356, 1223972, 1224519, 1225113, 1225697, 1226263, 1226830, 1227405, 1227957, 1228584, 1229150, 1229716, 1230253, 1230782, 1231386, 1231950]","[1219065, 1219825, 1220442, 1221042, 1221613, 1222239, 1222803, 1223429, 1224031, 1224609, 1225180, 1225769, 1226346, 1226928, 1227490, 1228065, 1228666, 1229242, 1229788, 1230327, 1230874, 1231502, 1232047]","[201, 236, 158, 134, 5, 54, 252, 252, 132, 151, 14, 133, 252, 113, 25, 115, 68, 83, 74, 107, 157, 66, 29]","[1218993, 1219767, 1220391, 1220994, 1221561, 1222167, 1222737, 1223362, 1223977, 1224566, 1225118, 1225702, 1226268, 1226877, 1227410, 1228006, 1228590, 1229153, 1229719, 1230257, 1230785, 1231391, 1231955]","[1218622, 1219222, 1219822, 1220422, 1221022, 1221622, 1222222, 1222822, 1223376, 1223992, 1224539, 1225133, 1225717, 1226284, 1226850, 1227425, 1227977, 1228604, 1229170, 1229736, 1230273, 1230802, 1231406, 1231970]",90,EM,U,R,ITMSR,1.1,
1,600,trial,0,61,61,61,trial,"['S', 'S', 'S', 'S', 'S', 'S', 'C', 'C', 'C', 'C', 'C', 'C', 'C', 'C', 'C', 'C', 'C', 'C', 'C', 'C', 'C', 'C']","[1238830, 1239451, 1240066, 1240634, 1241244, 1241819, 1242450, 1242972, 1243541, 1244134, 1244716, 1245286, 1245836, 1246392, 1246998, 1247562, 1248173, 1248716, 1249281, 1249852, 1250405, 1250954]","[1238928, 1239537, 1240139, 1240710, 1241327, 1241893, 1242547, 1243056, 1243659, 1244254, 1244833, 1245415, 1245950, 1246553, 1247135, 1247687, 1248267, 1248819, 1249403, 1249961, 1250554, 1251110]","[32, 31, 6, 252, 242, 250, 54, 238, 2, 7, 4, 11, 10, 10, 238, 185, 165, 18, 212, 169, 142, 158]","[1238833, 1239454, 1240069, 1240637, 1241247, 1241822, 1242454, 1242975, 1243543, 1244138, 1244719, 1245290, 1245839, 1246461, 1247001, 1247565, 1248176, 1248718, 1249284, 1249856, 1250408, 1250957]","[1237689, 1238289, 1238889, 1239489, 1240089, 1240689, 1241289, 1241889, 1242470, 1242992, 1243561, 1244154, 1244736, 1245306, 1245856, 1246412, 1247019, 1247582, 1248193, 1248736, 1249301, 1249872, 1250425, 1250974]",90,EM,U,R,ITMSR,1.1,
3,600,trial,0,62,62,62,trial,"['S', 'S', 'S', 'S', 'S', 'S', 'S', 'C', 'C', 'C', 'C', 'C', 'C', 'C', 'C', 'C', 'C', 'C', 'C', 'C', 'C', 'C', 'C', 'C']","[1257003, 1257705, 1258307, 1258942, 1259545, 1260172, 1260734, 1261314, 1261891, 1262494, 1263089, 1263656, 1264199, 1264799, 1265389, 1265995, 1266544, 1267130, 1267737, 1267838, 1268322, 1268902, 1269450, 1270041]","[1257096, 1257766, 1258370, 1259006, 1259601, 1260241, 1260791, 1261405, 1261965, 1262573, 1263165, 1263752, 1264354, 1264985, 1265555, 1266164, 1266770, 1267329, 1267757, 1267950, 1268496, 1269091, 1269739, 1270270]","[196, 20, 242, 216, 220, 246, 184, 229, 181, 212, 167, 172, 75, 44, 46, 48, 233, 131, 168, 7, 13, 38, 35, 77]","[1257007, 1257708, 1258310, 1258945, 1259548, 1260175, 1260737, 1261317, 1261894, 1262497, 1263093, 1263661, 1264204, 1264803, 1265393, 1265999, 1266547, 1267133, 1267741, 1267838, 1268325, 1268905, 1269453, 1270044]","[1256594, 1257194, 1257794, 1258394, 1258994, 1259594, 1260194, 1260794, 1261334, 1261912, 1262514, 1263109, 1263676, 1264219, 1264819, 1265410, 1266015, 1266564, 1267150, 1267757, 1268342, 1268922, 1269470, 1270061]",90,EM,U,R,ITMSR,1.1,
2,400,trial,0,63,63,63,trial,"['B', 'S', 'S', 'S', 'S', 'S', 'S', 'S', 'C', 'C', 'C', 'C', 'C', 'C', 'C', 'C', 'C', 'C', 'C', 'C', 'C', 'C', 'C', 'C']","[1275679, 1276184, 1276495, 1276863, 1277254, 1277679, 1278069, 1278500, 1278856, 1279265, 1279667, 1280075, 1280459, 1280882, 1281269, 1281684, 1282091, 1282503, 1282889, 1283259, 1283662, 1284055, 1284468, 1284837]","[1275967, 1276244, 1276572, 1276941, 1277342, 1277761, 1278152, 1278548, 1278919, 1279285, 1279712, 1280125, 1280497, 1280928, 1281336, 1281736, 1282154, 1282579, 1282964, 1283340, 1283726, 1284111, 1284530, 1284905]","[6, 8, 71, 79, 45, 45, 13, 239, 204, 83, 117, 64, 51, 63, 89, 96, 192, 201, 243, 160, 220, 65, 86, 89]","[1275819, 1276188, 1276497, 1276865, 1277257, 1277681, 1278072, 1278503, 1278859, 1279269, 1279671, 1280079, 1280463, 1280885, 1281273, 1281688, 1282094, 1282507, 1282892, 1283262, 1283665, 1284059, 1284471, 1284841]","[1275693, 1276093, 1276493, 1276893, 1277293, 1277693, 1278093, 1278493, 1278876, 1279285, 1279687, 1280095, 1280479, 1280902, 1281289, 1281704, 1282111, 1282523, 1282909, 1283279, 1283682, 1284075, 1284488, 1284857]",90,EM,U,R,ITMSR,1.1,
0,600,trial,0,64,64,64,trial,"['S', 'S', 'S', 'S', 'S', 'S', 'S', 'C', 'C', 'C', 'C', 'C', 'C', 'C', 'C', 'C', 'C', 'C', 'C', 'C', 'C', 'C', 'C', 'C']","[1290700, 1291378, 1292007, 1292640, 1293235, 1293861, 1294428, 1295004, 1295611, 1296203, 1296781, 1297348, 1297451, 1297934, 1298525, 1299107, 1299694, 1300274, 1300856, 1301445, 1302013, 1302566, 1303122, 1303699]","[1290770, 1291480, 1292215, 1292855, 1293489, 1294033, 1294615, 1295210, 1295857, 1296374, 1296943, 1297370, 1297512, 1298103, 1298736, 1299364, 1299942, 1300605, 1301090, 1301681, 1302243, 1302796, 1303363, 1303915]","[31, 249, 228, 220, 163, 137, 117, 255, 237, 119, 219, 219, 31, 208, 91, 93, 174, 84, 116, 91, 115, 173, 147, 153]","[1290703, 1291381, 1292009, 1292643, 1293238, 1293863, 1294431, 1295007, 1295614, 1296207, 1296785, 1297351, 1297457, 1297938, 1298529, 1299110, 1299697, 1300277, 1300860, 1301448, 1302017, 1302569, 1303124, 1303702]","[1290278, 1290878, 1291479, 1292078, 1292678, 1293278, 1293878, 1294478, 1295024, 1295631, 1296223, 1296801, 1297368, 1297954, 1298545, 1299127, 1299714, 1300294, 1300876, 1301465, 1302033, 1302586, 1303142, 1303719]",90,EM,U,R,ITMSR,1.1,
1,600,trial,0,65,65,65,trial,"['S', 'S', 'S', 'S', 'S', 'S', 'C', 'C', 'C', 'C', 'C', 'C', 'C', 'C', 'C', 'C', 'C', 'C', 'C', 'C', 'C', 'C']","[1310243, 1310936, 1311556, 1312150, 1312751, 1313371, 1313985, 1314566, 1315192, 1315751, 1316317, 1316898, 1317481, 1318059, 1318607, 1319183, 1319778, 1320344, 1320922, 1321504, 1322091, 1322658]","[1310380, 1311041, 1311664, 1312262, 1312841, 1313459, 1314059, 1314641, 1315272, 1315835, 1316430, 1317029, 1317601, 1318196, 1318734, 1319344, 1319928, 1320529, 1321068, 1321702, 1322301, 1322899]","[84, 20, 212, 231, 233, 125, 86, 163, 137, 143, 210, 195, 210, 223, 150, 135, 133, 181, 211, 202, 173, 180]","[1310245, 1310939, 1311560, 1312153, 1312754, 1313375, 1313989, 1314570, 1315196, 1315755, 1316321, 1316902, 1317484, 1318063, 1318611, 1319187, 1319783, 1320347, 1320925, 1321508, 1322095, 1322662]","[1309202, 1309802, 1310402, 1311002, 1311602, 1312202, 1312802, 1313402, 1314006, 1314586, 1315212, 1315771, 1316337, 1316918, 1317501, 1318079, 1318627, 1319203, 1319798, 1320365, 1320942, 1321524, 1322112, 1322678]",90,EM,U,R,ITMSR,1.1,
2,600,trial,0,66,66,66,trial,"['S', 'S', 'S', 'S', 'S', 'S', 'S', 'C', 'C', 'C', 'C', 'C', 'C', 'C', 'C', 'C', 'C', 'C', 'C', 'C', 'C', 'C', 'C']","[1328792, 1329550, 1330163, 1330755, 1331319, 1331931, 1332551, 1333130, 1333747, 1334404, 1334950, 1335529, 1336074, 1336679, 1337257, 1337853, 1338446, 1339025, 1339577, 1340147, 1340725, 1341292, 1341871]","[1328889, 1329780, 1330276, 1330885, 1331467, 1332038, 1332654, 1333225, 1333924, 1334508, 1335147, 1335713, 1336350, 1336945, 1337536, 1338022, 1338655, 1339224, 1339830, 1340478, 1341040, 1341606]","[249, 228, 135, 106, 138, 94, 187, 178, 180, 129, 144, 73, 124, 148, 187, 176, 204, 130, 151, 248, 191, 191]","[1328795, 1329553, 1330167, 1330758, 1331322, 1331934, 1332554, 1333133, 1333752, 1334408, 1334955, 1335533, 1336078, 1336682, 1337261, 1337857, 1338450, 1339028, 1339580, 1340149, 1340728, 1341294]","[1328429, 1329029, 1329629, 1330229, 1330829, 1331429, 1332029, 1332629, 1333150, 1333767, 1334424, 1334970, 1335549, 1336094, 1336699, 1337277, 1337873, 1338466, 1339045, 1339597, 1340167, 1340745, 1341313, 1341891]",90,EM,U,R,ITMSR,1.1,
3,600,trial,0,67,67,67,trial,"['S', 'S', 'S', 'S', 'S', 'S', 'S', 'C', 'C', 'C', 'C', 'C', 'C', 'C', 'C', 'C', 'C', 'C', 'C', 'C', 'C', 'C', 'C']","[1347994, 1348729, 1349324, 1349900, 1350501, 1351121, 1351721, 1352343, 1352953, 1353491, 1354060, 1354625, 1355213, 1355809, 1356374, 1356947, 1357563, 1358148, 1358706, 1359272, 1359834, 1360428, 1360991]","[1348101, 1348839, 1349425, 1349999, 1350580, 1351208, 1351813, 1352436, 1353066, 1353622, 1354221, 1354779, 1355374, 1355947, 1356552, 1357092, 1357703, 1358285, 1358882, 1359393, 1359975, 1360550, 1361125]","[165, 217, 174, 192, 170, 173, 117, 192, 222, 201, 219, 239, 196, 144, 139, 148, 85, 109, 136, 100, 36, 74, 135]","[1347997, 1348732, 1349327, 1349902, 1350503, 1351123, 1351725, 1352345, 1352956, 1353493, 1354063, 1354628, 1355216, 1355812, 1356378, 1356950, 1357566, 1358151, 1358791, 1359326, 1359895, 1360432, 1360995]","[1347604, 1348203, 1348803, 1349403, 1350003, 1350603, 1351203, 1351803, 1352364, 1352973, 1353511, 1354080, 1354645, 1355233, 1355829, 1356394, 1356967, 1357583, 1358168, 1358726, 1359292, 1359854, 1360448, 1361011]",90,EM,U,R,ITMSR,1.1,
4,600,trial,0,68,68,68,trial,"['S', 'S', 'S', 'S', 'S', 'S', 'S', 'C', 'C', 'C', 'C', 'C', 'C', 'C', 'C', 'C', 'C', 'C', 'C', 'C', 'C', 'C', 'C']","[1366945, 1367593, 1368184, 1368808, 1369399, 1370002, 1370647, 1371201, 1371802, 1372400, 1372959, 1373543, 1374118, 1374701, 1375296, 1375856, 1376454, 1377039, 1377616, 1378203, 1378766, 1379338, 1379936]","[1367034, 1367732, 1368289, 1368933, 1369536, 1370112, 1370768, 1371330, 1371932, 1372540, 1373135, 1373693, 1374295, 1374866, 1375473, 1376039, 1376603, 1377209, 1377753, 1378379, 1378937, 1379499, 1380091]","[63, 32, 206, 117, 240, 190, 94, 53, 179, 168, 178, 154, 144, 125, 89, 79, 190, 75, 34, 55, 7, 36, 131]","[1366948, 1367597, 1368188, 1368811, 1369403, 1370006, 1370650, 1371204, 1371804, 1372402, 1372961, 1373545, 1374121, 1374704, 1375298, 1375859, 1376457, 1377128, 1377619, 1378207, 1378770, 1379341, 1379940]","[1366480, 1367080, 1367681, 1368280, 1368880, 1369480, 1370080, 1370680, 1371222, 1371822, 1372420, 1372979, 1373563, 1374138, 1374722, 1375316, 1375876, 1376474, 1377059, 1377636, 1378223, 1378786, 1379358, 1379956]",90,EM,U,R,ITMSR,1.1,
3,400,trial,0,69,69,69,trial,"['S', 'S', 'S', 'S', 'S', 'S', 'S', 'C', 'C', 'C', 'C', 'C', 'C', 'C', 'C', 'C', 'C', 'C', 'C', 'C', 'C', 'C', 'C']","[1385811, 1386174, 1386566, 1386970, 1387396, 1387795, 1388173, 1388554, 1388953, 1389361, 1389759, 1390166, 1390575, 1390972, 1391376, 1391777, 1392180, 1392586, 1393003, 1393383, 1393773, 1394152, 1394543]","[1385895, 1386265, 1386646, 1387044, 1387456, 1387838, 1388244, 1388631, 1389026, 1389434, 1389828, 1390230, 1390650, 1391051, 1391435, 1391848, 1392266, 1392673, 1393071, 1393467, 1393849, 1394243, 1394626]","[143, 128, 138, 98, 96, 83, 116, 87, 86, 88, 75, 46, 54, 77, 67, 53, 86, 53, 51, 85, 88, 85, 61]","[1385814, 1386176, 1386568, 1386973, 1387399, 1387797, 1388175, 1388558, 1388955, 1389364, 1389761, 1390169, 1390578, 1390974, 1391379, 1391780, 1392182, 1392589, 1393006, 1393385, 1393776, 1394155, 1394546]","[1385385, 1385785, 1386185, 1386585, 1386985, 1387385, 1387785, 1388185, 1388574, 1388973, 1389381, 1389779, 1390186, 1390595, 1390992, 1391396, 1391797, 1392200, 1392606, 1393024, 1393403, 1393794, 1394172, 1394563]",90,EM,U,R,ITMSR,1.1,
4,400,trial,0,70,70,70,trial,"['S', 'S', 'S', 'S', 'S', 'S', 'C', 'C', 'C', 'C', 'C', 'C', 'C', 'C', 'C', 'C', 'C', 'C', 'C', 'C', 'C', 'C']","[1400621, 1401038, 1401452, 1401849, 1402261, 1402655, 1403063, 1403478, 1403844, 1404237, 1404638, 1405019, 1405398, 1405819, 1406195, 1406579, 1406968, 1407336, 1407691, 1408088, 1408470, 1408859]","[1400692, 1401103, 1401496, 1401910, 1402342, 1402738, 1403142, 1403543, 1403919, 1404302, 1404687, 1405083, 1405455, 1405839, 1406238, 1406626, 1407035, 1407401, 1407785, 1408111, 1408538, 1408882]","[73, 65, 68, 112, 96, 58, 74, 63, 68, 77, 121, 87, 88, 215, 36, 59, 73, 39, 63, 58, 63, 54]","[1400625, 1401041, 1401456, 1401852, 1402264, 1402659, 1403067, 1403482, 1403847, 1404239, 1404641, 1405022, 1405401, 1405822, 1406198, 1406582, 1406971, 1407339, 1407693, 1408091, 1408473, 1408862]","[1399883, 1400283, 1400683, 1401083, 1401483, 1401883, 1402284, 1402683, 1403083, 1403498, 1403864, 1404257, 1404658, 1405039, 1405418, 1405839, 1406215, 1406599, 1406988, 1407356, 1407711, 1408108, 1408490, 1408879]",90,EM,U,R,ITMSR,1.1,
4,400,trial,0,71,71,71,trial,"['S', 'S', 'S', 'S', 'S', 'S', 'S', 'C', 'C', 'C', 'C', 'C', 'C', 'C', 'C', 'C', 'C', 'C', 'C', 'C', 'C', 'C', 'C']","[1415033, 1415403, 1415828, 1416235, 1416612, 1417028, 1417407, 1417807, 1418207, 1418601, 1418987, 1419387, 1419773, 1420170, 1420578, 1421010, 1421406, 1421824, 1422191, 1422577, 1422970, 1423348, 1423759]","[1415101, 1415490, 1415918, 1416313, 1416715, 1417115, 1417484, 1417885, 1418270, 1418662, 1419062, 1419463, 1419846, 1420231, 1420651, 1421088, 1421503, 1421897, 1422263, 1422649, 1423034, 1423424, 1423822]","[64, 87, 72, 89, 82, 67, 81, 62, 80, 75, 79, 37, 253, 207, 14, 190, 252, 24, 35, 238, 242, 9, 217]","[1415036, 1415406, 1415831, 1416237, 1416615, 1417032, 1417410, 1417810, 1418210, 1418604, 1418990, 1419390, 1419778, 1420174, 1420581, 1421015, 1421410, 1421828, 1422195, 1422581, 1422976, 1423351, 1423762]","[1414671, 1415071, 1415471, 1415871, 1416271, 1416671, 1417071, 1417472, 1417827, 1418227, 1418621, 1419008, 1419407, 1419793, 1420190, 1420598, 1421030, 1421426, 1421844, 1422211, 1422597, 1422990, 1423368, 1423779]",90,EM,U,R,ITMSR,1.1,
0,400,trial,0,72,72,72,trial,"['S', 'S', 'S', 'S', 'S', 'S', 'S', 'C', 'C', 'C', 'C', 'C', 'C', 'C', 'C', 'C', 'C', 'C', 'C', 'C', 'C', 'C', 'C']","[1429705, 1430105, 1430512, 1430915, 1431289, 1431686, 1432111, 1432483, 1432853, 1433253, 1433649, 1434053, 1434417, 1434828, 1435204, 1435614, 1436013, 1436391, 1436752, 1437162, 1437568, 1437965, 1438348]","[1429786, 1430191, 1430597, 1430994, 1431396, 1431771, 1432180, 1432591, 1432950, 1433339, 1433736, 1434128, 1434526, 1434925, 1435299, 1435736, 1436098, 1436500, 1436892, 1437276, 1437651, 1438042, 1438447]","[251, 47, 60, 14, 73, 51, 38, 250, 34, 32, 32, 52, 39, 18, 227, 51, 17, 28, 172, 31, 68, 67, 40]","[1429711, 1430109, 1430516, 1430919, 1431293, 1431690, 1432114, 1432487, 1432857, 1433256, 1433652, 1434057, 1434421, 1434831, 1435208, 1435617, 1436016, 1436394, 1436756, 1437166, 1437571, 1437968, 1438352]","[1429372, 1429771, 1430171, 1430572, 1430971, 1431371, 1431771, 1432171, 1432503, 1432873, 1433273, 1433669, 1434073, 1434437, 1434848, 1435224, 1435634, 1436034, 1436411, 1436772, 1437182, 1437588, 1437985, 1438368]",90,EM,U,R,ITMSR,1.1,
2,600,trial,0,73,73,73,trial,"['S', 'S', 'S', 'S', 'S', 'S', 'S', 'C', 'C', 'C', 'C', 'C', 'C', 'C', 'C', 'C', 'C', 'C', 'C', 'C', 'C', 'C', 'C']","[1444484, 1445208, 1445851, 1446449, 1447050, 1447709, 1448239, 1448849, 1449330, 1449947, 1450521, 1451121, 1451659, 1452212, 1452801, 1453359, 1453923, 1454495, 1455020, 1455594, 1456189, 1456817, 1457361]","[1444549, 1445287, 1445931, 1446548, 1447173, 1447797, 1448358, 1448964, 1449455, 1450035, 1450622, 1451236, 1451767, 1452332, 1452874, 1453441, 1453992, 1454587, 1455118, 1455675, 1456257, 1456876, 1457456]","[7, 68, 77, 250, 62, 51, 77, 71, 42, 21, 6, 231, 33, 177, 246, 234, 5, 243, 236, 200, 253, 240, 19]","[1444487, 1445213, 1445854, 1446452, 1447053, 1447713, 1448242, 1448853, 1449333, 1449952, 1450524, 1451124, 1451663, 1452216, 1452805, 1453362, 1453927, 1454499, 1455024, 1455597, 1456192, 1456820, 1457366]","[1444142, 1444742, 1445342, 1445942, 1446542, 1447142, 1447742, 1448342, 1448869, 1449350, 1449967, 1450541, 1451141, 1451679, 1452232, 1452821, 1453379, 1453943, 1454515, 1455040, 1455614, 1456209, 1456837, 1457381]",90,EM,U,R,ITMSR,1.1,
2,400,trial,0,74,74,74,trial,"['S', 'S', 'S', 'S', 'S', 'S', 'C', 'C', 'C', 'C', 'C', 'C', 'C', 'C', 'C', 'C', 'C', 'C', 'C', 'C', 'C', 'C']","[1463907, 1464305, 1464714, 1465108, 1465526, 1465939, 1466333, 1466739, 1467129, 1467535, 1467915, 1468323, 1468718, 1469138, 1469532, 1469938, 1470364, 1470763, 1471177, 1471567, 1471986, 1472387]","[1463984, 1464376, 1464781, 1465184, 1465604, 1466018, 1466408, 1466813, 1467215, 1467614, 1468000, 1468390, 1468796, 1469207, 1469607, 1470014, 1470419, 1470814, 1471233, 1471639, 1472067, 1472467]","[112, 81, 110, 128, 105, 102, 115, 111, 98, 70, 87, 65, 76, 67, 86, 80, 56, 225, 69, 41, 62, 43]","[1463911, 1464310, 1464718, 1465112, 1465531, 1465945, 1466338, 1466743, 1467133, 1467540, 1467919, 1468328, 1468723, 1469143, 1469536, 1469943, 1470369, 1470767, 1471181, 1471571, 1471990, 1472391]","[1463171, 1463571, 1463971, 1464371, 1464771, 1465171, 1465571, 1465971, 1466353, 1466759, 1467149, 1467555, 1467935, 1468343, 1468738, 1469158, 1469552, 1469958, 1470384, 1470783, 1471197, 1471587, 1472006, 1472407]",90,EM,U,R,ITMSR,1.1,
0,600,trial,0,75,75,75,trial,"['S', 'S', 'S', 'S', 'S', 'S', 'S', 'C', 'C', 'C', 'C', 'C', 'C', 'C', 'C', 'C', 'C', 'C', 'C', 'C', 'C', 'C', 'C']","[1478218, 1479002, 1479590, 1480244, 1480801, 1481414, 1482045, 1482657, 1483216, 1483777, 1484319, 1484896, 1485473, 1486022, 1486597, 1487166, 1487748, 1488339, 1488876, 1489464, 1490055, 1490615, 1491170]","[1478310, 1479107, 1479733, 1480364, 1480986, 1481694, 1482190, 1482819, 1483358, 1484060, 1484603, 1485149, 1485647, 1486297, 1486824, 1487379, 1488023, 1488603, 1489165, 1489746, 1490372, 1490937]","[144, 58, 79, 57, 111, 96, 71, 41, 48, 65, 60, 63, 80, 59, 54, 89, 98, 81, 50, 44, 69, 96]","[1478221, 1479006, 1479593, 1480247, 1480804, 1481417, 1482048, 1482661, 1483220, 1483780, 1484323, 1484900, 1485476, 1486025, 1486600, 1487170, 1487752, 1488344, 1488880, 1489468, 1490058, 1490618]","[1477900, 1478500, 1479100, 1479700, 1480300, 1480900, 1481500, 1482100, 1482677, 1483236, 1483797, 1484339, 1484916, 1485493, 1486042, 1486617, 1487186, 1487768, 1488359, 1488897, 1489484, 1490075, 1490635, 1491190]",90,EM,U,R,ITMSR,1.1,
1,400,trial,0,76,76,76,trial,"['S', 'S', 'S', 'S', 'S', 'S', 'C', 'C', 'C', 'C', 'C', 'C', 'C', 'C', 'C', 'C', 'C', 'C', 'C', 'C', 'C', 'C']","[1497427, 1497876, 1498283, 1498676, 1499077, 1499448, 1499848, 1500247, 1500658, 1501091, 1501473, 1501853, 1502228, 1502615, 1503007, 1503405, 1503799, 1504174, 1504569, 1504954, 1505341, 1505752]","[1497512, 1497958, 1498355, 1498746, 1499154, 1499545, 1499904, 1500312, 1500734, 1501156, 1501540, 1501931, 1502317, 1502686, 1503087, 1503480, 1503875, 1504247, 1504634, 1505025, 1505430, 1505840]","[65, 30, 1, 15, 20, 52, 21, 16, 5, 254, 213, 245, 247, 203, 243, 208, 186, 163, 155, 125, 162, 120]","[1497432, 1497879, 1498287, 1498680, 1499081, 1499452, 1499852, 1500251, 1500662, 1501095, 1501477, 1501857, 1502232, 1502618, 1503011, 1503409, 1503802, 1504178, 1504572, 1504958, 1505345, 1505756]","[1496707, 1497107, 1497507, 1497907, 1498307, 1498707, 1499107, 1499507, 1499868, 1500267, 1500678, 1501111, 1501493, 1501873, 1502248, 1502636, 1503027, 1503425, 1503819, 1504194, 1504589, 1504974, 1505361, 1505772]",90,EM,U,R,ITMSR,1.1,
5,400,trial,0,77,77,77,trial,"['S', 'S', 'S', 'S', 'S', 'S', 'C', 'C', 'C', 'C', 'C', 'C', 'C', 'C', 'C', 'C', 'C', 'C', 'C', 'C', 'C', 'C']","[1512067, 1512504, 1512902, 1513278, 1513716, 1514137, 1514527, 1514936, 1515330, 1515724, 1516128, 1516535, 1516928, 1517306, 1517717, 1518094, 1518496, 1518886, 1519277, 1519662, 1520067, 1520473]","[1512150, 1512572, 1512985, 1513372, 1513807, 1514222, 1514592, 1515000, 1515421, 1515814, 1516214, 1516605, 1516984, 1517377, 1517797, 1518188, 1518596, 1518988, 1519362, 1519745, 1520151, 1520580]","[223, 13, 236, 183, 224, 76, 119, 112, 92, 115, 123, 70, 138, 100, 173, 148, 184, 145, 88, 81, 146, 72]","[1512071, 1512507, 1512906, 1513281, 1513719, 1514141, 1514532, 1514940, 1515335, 1515728, 1516132, 1516540, 1516932, 1517310, 1517721, 1518098, 1518500, 1518891, 1519281, 1519666, 1520071, 1520478]","[1511349, 1511749, 1512150, 1512549, 1512949, 1513349, 1513749, 1514149, 1514547, 1514956, 1515351, 1515744, 1516148, 1516555, 1516948, 1517326, 1517737, 1518114, 1518516, 1518906, 1519297, 1519682, 1520088, 1520493]",90,EM,U,R,ITMSR,1.1,
2,600,trial,0,78,78,78,trial,"['S', 'S', 'S', 'S', 'S', 'S', 'C', 'C', 'C', 'C', 'C', 'C', 'C', 'C', 'C', 'C', 'C', 'C', 'C', 'C', 'C', 'C']","[1619937, 1620624, 1621212, 1621807, 1622415, 1623000, 1623734, 1624315, 1624889, 1625465, 1626072, 1626649, 1627208, 1627767, 1628341, 1628910, 1629513, 1630041, 1630578, 1631178, 1631782, 1632349]","[1620050, 1620707, 1621291, 1621895, 1622511, 1623102, 1623809, 1624421, 1625008, 1625578, 1626158, 1626778, 1627333, 1627898, 1628460, 1629036, 1629624, 1630167, 1630727, 1631322, 1631933, 1632500]","[128, 36, 16, 253, 39, 26, 49, 54, 225, 16, 10, 247, 236, 243, 242, 74, 29, 90, 63, 50, 132, 88]","[1619984, 1620628, 1621215, 1621811, 1622455, 1623041, 1623737, 1624366, 1624950, 1625469, 1626076, 1626652, 1627212, 1627837, 1628397, 1628956, 1629572, 1630097, 1630652, 1631248, 1631846, 1632417]","[1618871, 1619471, 1620071, 1620671, 1621271, 1621871, 1622471, 1623071, 1623754, 1624335, 1624909, 1625485, 1626092, 1626669, 1627228, 1627787, 1628361, 1628930, 1629533, 1630061, 1630598, 1631198, 1631802, 1632369]",90,EM,U,R,ITMSR,1.1,
2,400,trial,0,79,79,79,trial,"['S', 'S', 'S', 'S', 'S', 'S', 'S', 'C', 'C', 'C', 'C', 'C', 'C', 'C', 'C', 'C', 'C', 'C', 'C', 'C', 'C', 'C', 'C']","[1638200, 1638541, 1638946, 1639364, 1639736, 1640141, 1640558, 1640988, 1641381, 1641754, 1642136, 1642525, 1642932, 1643285, 1643657, 1644045, 1644427, 1644804, 1645185, 1645579, 1645937, 1646308, 1646684]","[1638296, 1638622, 1639028, 1639444, 1639811, 1640227, 1640653, 1641078, 1641446, 1641819, 1642211, 1642603, 1642995, 1643361, 1643729, 1644121, 1644496, 1644887, 1645260, 1645670, 1646027, 1646385, 1646782]","[60, 110, 85, 64, 45, 27, 177, 238, 15, 216, 252, 17, 210, 183, 221, 222, 222, 206, 202, 243, 200, 185, 14]","[1638204, 1638545, 1638950, 1639367, 1639740, 1640145, 1640563, 1640992, 1641384, 1641758, 1642140, 1642528, 1642937, 1643289, 1643662, 1644049, 1644431, 1644808, 1645189, 1645583, 1645940, 1646313, 1646687]","[1637827, 1638227, 1638627, 1639027, 1639427, 1639827, 1640227, 1640627, 1641008, 1641401, 1641774, 1642157, 1642545, 1642952, 1643305, 1643677, 1644065, 1644447, 1644824, 1645205, 1645599, 1645957, 1646328, 1646704]",90,EM,U,R,ITMSR,1.1,
5,600,trial,0,80,80,80,trial,"['S', 'S', 'S', 'S', 'S', 'S', 'S', 'C', 'C', 'C', 'C', 'C', 'C', 'C', 'C', 'C', 'C', 'C', 'C', 'C', 'C', 'C', 'C']","[1652566, 1653325, 1653911, 1654516, 1655126, 1655717, 1656300, 1656868, 1657460, 1658027, 1658571, 1659180, 1659762, 1660329, 1660892, 1661445, 1662042, 1662597, 1663123, 1663704, 1664250, 1664794, 1665382]","[1652647, 1653407, 1654018, 1654601, 1655220, 1655820, 1656400, 1656963, 1657594, 1658142, 1658713, 1659315, 1659862, 1660442, 1661012, 1661589, 1662152, 1662723, 1663276, 1663878, 1664414, 1665017, 1665572]","[196, 205, 133, 123, 183, 203, 217, 227, 3, 188, 204, 122, 69, 84, 170, 119, 60, 151, 207, 196, 216, 13, 243]","[1652570, 1653330, 1653916, 1654521, 1655178, 1655766, 1656305, 1656871, 1657531, 1658080, 1658642, 1659255, 1659767, 1660335, 1660951, 1661519, 1662047, 1662661, 1663191, 1663708, 1664324, 1664877, 1665474]","[1652207, 1652807, 1653407, 1654007, 1654607, 1655207, 1655808, 1656408, 1656888, 1657480, 1658047, 1658591, 1659200, 1659782, 1660349, 1660912, 1661465, 1662062, 1662617, 1663143, 1663724, 1664270, 1664814, 1665402]",90,EM,U,R,ITMSR,1.1,
3,600,trial,0,81,81,81,trial,"['S', 'S', 'S', 'S', 'S', 'S', 'S', 'C', 'C', 'C', 'C', 'C', 'C', 'C', 'C', 'C', 'C', 'C', 'C', 'C', 'C', 'C', 'C']","[1671101, 1671772, 1672402, 1672967, 1673571, 1674182, 1674752, 1675292, 1675884, 1676467, 1676991, 1677634, 1678239, 1678844, 1679387, 1679954, 1680602, 1681143, 1681688, 1682252, 1682836, 1683401, 1683989]","[1671216, 1671859, 1672495, 1673059, 1673671, 1674291, 1674832, 1675396, 1676011, 1676549, 1677109, 1677726, 1678329, 1678913, 1679485, 1680026, 1680663, 1681240, 1681825, 1682368, 1682886, 1683483, 1684069]","[237, 109, 172, 181, 161, 144, 32, 87, 169, 97, 205, 141, 96, 79, 109, 59, 93, 74, 90, 28, 20, 81, 12]","[1671150, 1671776, 1672407, 1672971, 1673612, 1674245, 1674757, 1675337, 1675956, 1676471, 1677037, 1677638, 1678243, 1678849, 1679391, 1679959, 1680607, 1681147, 1681762, 1682257, 1682841, 1683405, 1683994]","[1670722, 1671322, 1671922, 1672522, 1673122, 1673722, 1674322, 1674923, 1675312, 1675905, 1676487, 1677011, 1677655, 1678259, 1678864, 1679407, 1679974, 1680622, 1681163, 1681709, 1682272, 1682856, 1683421, 1684009]",90,EM,U,R,ITMSR,1.1,
5,400,trial,0,82,82,82,trial,"['S', 'S', 'S', 'S', 'S', 'S', 'C', 'C', 'C', 'C', 'C', 'C', 'C', 'C', 'C', 'C', 'C', 'C', 'C', 'C', 'C', 'C']","[1690194, 1690603, 1690989, 1691412, 1691834, 1692236, 1692654, 1693058, 1693455, 1693850, 1694249, 1694660, 1695035, 1695430, 1695827, 1696224, 1696627, 1697015, 1697404, 1697821, 1698192, 1698593]","[1690265, 1690679, 1691076, 1691500, 1691901, 1692328, 1692726, 1693120, 1693522, 1693926, 1694323, 1694739, 1695127, 1695506, 1695918, 1696295, 1696703, 1697099, 1697504, 1697907, 1698289, 1698671]","[118, 101, 69, 88, 59, 60, 28, 47, 42, 16, 226, 0, 238, 214, 191, 18, 35, 24, 235, 247, 8, 13]","[1690198, 1690606, 1690992, 1691415, 1691837, 1692239, 1692657, 1693061, 1693459, 1693853, 1694254, 1694664, 1695039, 1695434, 1695831, 1696228, 1696631, 1697019, 1697409, 1697825, 1698196, 1698596]","[1689462, 1689862, 1690262, 1690662, 1691062, 1691462, 1691863, 1692262, 1692674, 1693078, 1693475, 1693870, 1694269, 1694680, 1695055, 1695450, 1695847, 1696244, 1696647, 1697035, 1697424, 1697841, 1698212, 1698613]",90,EM,U,R,ITMSR,1.1,
5,600,trial,0,83,83,83,trial,"['S', 'S', 'S', 'S', 'S', 'S', 'S', 'C', 'C', 'C', 'C', 'C', 'C', 'C', 'C', 'C', 'C', 'C', 'C', 'C', 'C', 'C', 'C']","[1704712, 1705459, 1706106, 1706674, 1707236, 1707828, 1708452, 1709061, 1709607, 1710205, 1710773, 1711392, 1711951, 1712523, 1713099, 1713650, 1714220, 1714811, 1715385, 1715952, 1716532, 1717080, 1717669]","[1704775, 1705527, 1706172, 1706747, 1707315, 1707929, 1708539, 1709130, 1709710, 1710308, 1710883, 1711482, 1712038, 1712618, 1713190, 1713764, 1714302, 1714893, 1715479, 1716014, 1716613, 1717197, 1717771]","[254, 8, 174, 198, 34, 48, 243, 170, 194, 206, 157, 133, 62, 115, 62, 26, 252, 111, 215, 108, 119, 180, 53]","[1704716, 1705463, 1706109, 1706678, 1707240, 1707832, 1708456, 1709065, 1709613, 1710258, 1710824, 1711397, 1711956, 1712565, 1713138, 1713713, 1714226, 1714817, 1715389, 1715957, 1716536, 1717084, 1717676]","[1704359, 1704960, 1705560, 1706160, 1706760, 1707360, 1707960, 1708560, 1709081, 1709627, 1710225, 1710793, 1711412, 1711971, 1712543, 1713119, 1713670, 1714240, 1714831, 1715405, 1715972, 1716552, 1717100, 1717689]",90,EM,U,R,ITMSR,1.1,
3,600,trial,0,84,84,84,trial,"['S', 'S', 'S', 'S', 'S', 'S', 'C', 'C', 'C', 'C', 'C', 'C', 'C', 'C', 'C', 'C', 'C', 'C', 'C', 'C', 'C', 'C']","[1724190, 1724851, 1725436, 1726012, 1726659, 1727257, 1727832, 1728437, 1729018, 1729588, 1730165, 1730752, 1731366, 1731920, 1732492, 1733046, 1733598, 1734154, 1734787, 1735359, 1735920, 1736463]","[1724303, 1724946, 1725532, 1726111, 1726763, 1727339, 1727929, 1728551, 1729124, 1729690, 1730299, 1730863, 1731457, 1732036, 1732609, 1733156, 1733719, 1734251, 1734889, 1735422, 1735994, 1736562]","[245, 170, 1, 248, 209, 179, 156, 166, 113, 93, 112, 71, 84, 243, 156, 168, 236, 166, 180, 137, 166, 98]","[1724194, 1724855, 1725441, 1726016, 1726663, 1727261, 1727837, 1728441, 1729022, 1729593, 1730226, 1730757, 1731373, 1731976, 1732552, 1733093, 1733667, 1734214, 1734844, 1735387, 1735972, 1736512]","[1723161, 1723761, 1724361, 1724961, 1725561, 1726161, 1726761, 1727362, 1727852, 1728457, 1729038, 1729608, 1730185, 1730772, 1731386, 1731940, 1732512, 1733066, 1733618, 1734174, 1734807, 1735379, 1735940, 1736483]",90,EM,U,R,ITMSR,1.1,
3,400,trial,0,85,85,85,trial,"['S', 'S', 'S', 'S', 'S', 'S', 'C', 'C', 'C', 'C', 'C', 'C', 'C', 'C', 'C', 'C', 'C', 'C', 'C', 'C', 'C', 'C']","[1742724, 1743143, 1743548, 1743949, 1744363, 1744759, 1745185, 1745606, 1746007, 1746411, 1746826, 1747197, 1747610, 1747988, 1748408, 1748805, 1749221, 1749623, 1750041, 1750463, 1750879, 1751259]","[1742792, 1743205, 1743610, 1744025, 1744428, 1744820, 1745235, 1745665, 1746076, 1746452, 1746875, 1747240, 1747675, 1748054, 1748468, 1748875, 1749289, 1749714, 1750114, 1750539, 1750955, 1751330]","[27, 29, 38, 37, 231, 1, 191, 206, 238, 176, 162, 113, 130, 143, 196, 208, 6, 208, 234, 221, 230, 187]","[1742728, 1743148, 1743552, 1743952, 1744367, 1744763, 1745189, 1745610, 1746011, 1746415, 1746830, 1747203, 1747614, 1747992, 1748412, 1748809, 1749225, 1749627, 1750043, 1750466, 1750883, 1751263]","[1742017, 1742417, 1742817, 1743217, 1743618, 1744018, 1744418, 1744818, 1745205, 1745626, 1746027, 1746432, 1746846, 1747217, 1747630, 1748008, 1748428, 1748825, 1749241, 1749643, 1750061, 1750483, 1750899, 1751279]",90,EM,U,R,ITMSR,1.1,
1,600,trial,0,86,86,86,trial,"['S', 'S', 'S', 'S', 'S', 'S', 'S', 'C', 'C', 'C', 'C', 'C', 'C', 'C', 'C', 'C', 'C', 'C', 'C', 'C', 'C', 'C', 'C']","[1756932, 1757634, 1758263, 1758872, 1759485, 1760057, 1760679, 1761302, 1761839, 1762454, 1763007, 1763579, 1764148, 1764711, 1765232, 1765798, 1766336, 1766905, 1767508, 1768050, 1768629, 1769229, 1769787]","[1757005, 1757713, 1758336, 1758951, 1759552, 1760123, 1760771, 1761376, 1761920, 1762545, 1763095, 1763665, 1764231, 1764792, 1765323, 1765876, 1766398, 1767013, 1767589, 1768164, 1768737, 1769294, 1769880]","[233, 203, 34, 7, 238, 2, 20, 253, 221, 52, 34, 242, 187, 220, 192, 171, 152, 153, 103, 151, 147, 187, 157]","[1756937, 1757638, 1758266, 1758876, 1759489, 1760061, 1760684, 1761305, 1761843, 1762457, 1763009, 1763584, 1764152, 1764715, 1765236, 1765803, 1766340, 1766910, 1767514, 1768055, 1768634, 1769233, 1769791]","[1756602, 1757201, 1757801, 1758401, 1759001, 1759601, 1760201, 1760801, 1761323, 1761859, 1762475, 1763027, 1763599, 1764168, 1764731, 1765252, 1765818, 1766356, 1766925, 1767528, 1768070, 1768649, 1769249, 1769807]",90,EM,U,R,ITMSR,1.1,
4,600,trial,0,87,87,87,trial,"['S', 'S', 'S', 'S', 'S', 'S', 'C', 'C', 'C', 'C', 'C', 'C', 'C', 'C', 'C', 'C', 'C', 'C', 'C', 'C', 'C', 'C']","[1776479, 1777036, 1777628, 1778227, 1778824, 1779381, 1780002, 1780543, 1781145, 1781746, 1782277, 1782825, 1783419, 1784029, 1784594, 1785095, 1785688, 1786272, 1786861, 1787459, 1788006, 1788617]","[1776514, 1777103, 1777682, 1778311, 1778912, 1779474, 1780085, 1780634, 1781270, 1781877, 1782374, 1782924, 1783515, 1784144, 1784694, 1785224, 1785775, 1786363, 1786970, 1787608, 1788132, 1788736]","[18, 104, 3, 235, 14, 191, 187, 149, 192, 206, 185, 153, 145, 110, 96, 34, 128, 115, 106, 58, 106, 93]","[1776483, 1777039, 1777632, 1778231, 1778827, 1779384, 1780005, 1780546, 1781148, 1781749, 1782280, 1782829, 1783422, 1784032, 1784597, 1785098, 1785691, 1786276, 1786864, 1787463, 1788010, 1788620]","[1775332, 1775932, 1776532, 1777132, 1777732, 1778332, 1778932, 1779532, 1780022, 1780563, 1781165, 1781766, 1782297, 1782845, 1783439, 1784049, 1784614, 1785115, 1785708, 1786292, 1786882, 1787480, 1788026, 1788637]",90,EM,U,R,ITMSR,1.1,
1,400,trial,0,88,88,88,trial,"['S', 'S', 'S', 'S', 'S', 'S', 'S', 'C', 'C', 'C', 'C', 'C', 'C', 'C', 'C', 'C', 'C', 'C', 'C', 'C', 'C', 'C', 'C']","[1794926, 1795249, 1795601, 1795995, 1796381, 1796801, 1797163, 1797570, 1797951, 1798347, 1798734, 1799135, 1799510, 1799914, 1800320, 1800686, 1801077, 1801499, 1801878, 1802280, 1802663, 1803069, 1803450]","[1795026, 1795323, 1795684, 1796063, 1796447, 1796872, 1797249, 1797648, 1798026, 1798439, 1798817, 1799215, 1799604, 1799974, 1800382, 1800767, 1801169, 1801568, 1801953, 1802355, 1802752, 1803155, 1803541]","[26, 24, 203, 3, 240, 195, 236, 219, 226, 228, 255, 198, 189, 232, 178, 193, 205, 139, 164, 208, 215, 225, 167]","[1794930, 1795254, 1795606, 1795999, 1796384, 1796804, 1797167, 1797573, 1797954, 1798351, 1798737, 1799138, 1799514, 1799918, 1800323, 1800690, 1801081, 1801502, 1801882, 1802285, 1802667, 1803073, 1803453]","[1794437, 1794836, 1795236, 1795636, 1796036, 1796436, 1796836, 1797236, 1797591, 1797971, 1798367, 1798754, 1799155, 1799530, 1799934, 1800340, 1800706, 1801097, 1801519, 1801899, 1802300, 1802683, 1803089, 1803470]",90,EM,U,R,ITMSR,1.1,
4,400,trial,0,89,89,89,trial,"['S', 'S', 'S', 'S', 'S', 'S', 'S', 'C', 'C', 'C', 'C', 'C', 'C', 'C', 'C', 'C', 'C', 'C', 'C', 'C', 'C', 'C', 'C']","[1809337, 1809733, 1810106, 1810496, 1810947, 1811368, 1811752, 1812139, 1812566, 1812955, 1813342, 1813742, 1814147, 1814511, 1814896, 1815278, 1815685, 1816067, 1816454, 1816838, 1817211, 1817614, 1818000]","[1809421, 1809810, 1810183, 1810589, 1811009, 1811428, 1811831, 1812219, 1812634, 1813046, 1813435, 1813806, 1814201, 1814578, 1814953, 1815333, 1815746, 1816088, 1816528, 1816923, 1817292, 1817683, 1818077]","[54, 14, 35, 45, 21, 14, 22, 60, 37, 49, 16, 15, 186, 237, 142, 92, 98, 201, 22, 28, 121, 103, 207]","[1809340, 1809736, 1810110, 1810500, 1810951, 1811373, 1811756, 1812143, 1812570, 1812959, 1813346, 1813745, 1814150, 1814515, 1814899, 1815281, 1815690, 1816072, 1816459, 1816843, 1817216, 1817618, 1818004]","[1809019, 1809418, 1809818, 1810219, 1810618, 1811018, 1811418, 1811818, 1812159, 1812586, 1812975, 1813362, 1813762, 1814167, 1814531, 1814916, 1815298, 1815705, 1816087, 1816474, 1816858, 1817231, 1817634, 1818020]",90,EM,U,R,ITMSR,1.1,
1,400,trial,0,90,90,90,trial,"['S', 'S', 'S', 'S', 'S', 'S', 'C', 'C', 'C', 'C', 'C', 'C', 'C', 'C', 'C', 'C', 'C', 'C', 'C', 'C', 'C', 'C']","[1824419, 1824817, 1825233, 1825597, 1825987, 1826411, 1826785, 1827171, 1827548, 1827949, 1828336, 1828677, 1829072, 1829433, 1829826, 1830507, 1830890, 1831274, 1831682, 1832087, 1832459, 1832843]","[1824496, 1824879, 1825314, 1825686, 1826078, 1826475, 1826852, 1827244, 1827640, 1828026, 1828411, 1828768, 1829157, 1829542, 1829945, 1830619, 1830990, 1831370, 1831782, 1832189, 1832551, 1832943]","[80, 56, 50, 72, 77, 54, 60, 243, 238, 2, 235, 45, 170, 63, 249, 141, 231, 52, 225, 154, 15, 253]","[1824423, 1824820, 1825238, 1825600, 1825991, 1826415, 1826789, 1827175, 1827552, 1827953, 1828339, 1828680, 1829076, 1829436, 1829830, 1830553, 1830893, 1831276, 1831685, 1832091, 1832462, 1832847]","[1823723, 1824123, 1824523, 1824923, 1825324, 1825723, 1826123, 1826523, 1826805, 1827191, 1827568, 1827970, 1828356, 1828697, 1829092, 1829453, 1829847, 1830528, 1830910, 1831294, 1831702, 1832108, 1832479, 1832863]",90,EM,U,R,ITMSR,1.1,
4,400,trial,0,91,91,91,trial,"['S', 'S', 'S', 'S', 'S', 'S', 'S', 'C', 'C', 'C', 'C', 'C', 'C', 'C', 'C', 'C', 'C', 'C', 'C', 'C', 'C', 'C', 'C']","[1838771, 1839151, 1839546, 1839965, 1840348, 1840786, 1841163, 1841580, 1841947, 1842359, 1842753, 1843163, 1843540, 1843952, 1844331, 1844741, 1845107, 1845513, 1845875, 1846283, 1846660, 1847023, 1847429]","[1838864, 1839239, 1839630, 1840047, 1840428, 1840850, 1841260, 1841652, 1842014, 1842419, 1842805, 1843226, 1843611, 1844007, 1844395, 1844820, 1845185, 1845600, 1845963, 1846367, 1846752, 1847148, 1847550]","[188, 15, 167, 149, 222, 154, 155, 124, 183, 129, 42, 165, 207, 159, 174, 72, 147, 100, 165, 141, 147, 184, 183]","[1838775, 1839154, 1839550, 1839969, 1840351, 1840790, 1841168, 1841583, 1841950, 1842362, 1842757, 1843166, 1843544, 1843956, 1844334, 1844745, 1845111, 1845517, 1845879, 1846288, 1846664, 1847027, 1847433]","[1838417, 1838817, 1839217, 1839618, 1840018, 1840418, 1840818, 1841218, 1841600, 1841967, 1842379, 1842774, 1843183, 1843560, 1843972, 1844352, 1844761, 1845127, 1845533, 1845895, 1846303, 1846680, 1847043, 1847449]",90,EM,U,R,ITMSR,1.1,
