pitch,ioi,event,.thisRepN,.thisTrialN,.thisN,.thisIndex,event,tap_types,tap_times,release_times,peak_pressures,peak_times,tone_times,subject,experimenter,register,handedness,experiment,version,
,,SPR,0,-1,-1,0,SPR,"['P', 'P', 'P', 'P', 'P', 'P', 'P', 'P', 'P', 'P', 'P', 'P', 'P', 'P', 'P', 'P', 'P', 'P', 'P', 'P', 'P', 'P', 'P', 'P', 'P', 'P', 'P', 'P', 'P', 'P']","[9628, 10152, 10565, 10955, 11403, 11882, 12395, 12917, 13459, 14025, 14593, 15154, 15748, 16321, 16887, 17464, 18028, 18528, 19099, 19582, 20119, 20682, 21257, 21801, 22386, 22928, 23453, 23979, 24474, 25029]","[9824, 10244, 10663, 11086, 11549, 12047, 12527, 13028, 13586, 14093, 14708, 15309, 15925, 16459, 17017, 17600, 18156, 18685, 19232, 19733, 20293, 20891, 21473, 22006, 22540, 23070, 23601, 24131, 24715, 25231]","[18, 110, 53, 90, 143, 193, 172, 41, 148, 77, 91, 129, 112, 166, 141, 213, 33, 57, 22, 28, 53, 252, 15, 73, 12, 9, 245, 16, 81, 70]","[9714, 10200, 10622, 11030, 11495, 11972, 12467, 12986, 13534, 14057, 14654, 15230, 15835, 16400, 16943, 17539, 18083, 18610, 19170, 19675, 20215, 20782, 21368, 21894, 22462, 23000, 23521, 24055, 24600, 25124]",,84,EM,L,R,ITMSR,1.1,
0,500,practice,0,0,0,0,practice,"['S', 'S', 'S', 'S', 'S', 'S', 'S', 'C', 'C', 'C', 'C', 'C', 'C', 'C', 'C', 'C', 'C', 'C', 'C', 'C', 'C', 'C', 'C']","[101176, 101726, 102282, 102824, 103308, 103801, 104304, 104809, 105297, 105798, 106283, 106753, 107244, 107777, 108226, 108728, 109259, 109772, 110310, 110806, 111321, 111838, 112392]","[101278, 101842, 102387, 102941, 103438, 103934, 104442, 104964, 105431, 105913, 106391, 106873, 107394, 107894, 108355, 108871, 109372, 109897, 110425, 110919, 111458, 111941, 112486]","[241, 120, 211, 84, 1, 105, 177, 91, 172, 199, 121, 12, 15, 221, 199, 28, 207, 112, 87, 23, 91, 148, 2]","[101218, 101786, 102339, 102889, 103384, 103866, 104372, 104900, 105368, 105858, 106335, 106817, 107302, 107833, 108284, 108793, 109316, 109833, 110379, 110865, 111384, 111892, 112443]","[100801, 101301, 101801, 102301, 102801, 103301, 103801, 104301, 104829, 105317, 105818, 106303, 106773, 107265, 107797, 108247, 108748, 109279, 109792, 110330, 110826, 111341, 111858, 112412]",84,EM,L,R,ITMSR,1.1,
4,500,practice,0,1,1,1,practice,"['S', 'S', 'S', 'S', 'S', 'S', 'S', 'C', 'C', 'C', 'C', 'C', 'C', 'C', 'C', 'C', 'C', 'C', 'C', 'C', 'C', 'C', 'C']","[118339, 118887, 119450, 119956, 120541, 120981, 121532, 122019, 122550, 123015, 123502, 123980, 124480, 124983, 125499, 126000, 126504, 127002, 127526, 128037, 128541, 129062, 129561]","[118432, 118985, 119553, 120083, 120664, 121105, 121656, 122148, 122671, 123126, 123619, 124122, 124627, 125103, 125613, 126119, 126642, 127136, 127654, 128175, 128687, 129190, 129714]","[111, 126, 209, 67, 15, 101, 90, 80, 44, 254, 66, 251, 220, 112, 246, 121, 3, 53, 112, 184, 100, 238, 142]","[118385, 118942, 119508, 120016, 120599, 121039, 121594, 122083, 122611, 123063, 123558, 124037, 124555, 125051, 125557, 126040, 126569, 127073, 127588, 128116, 128605, 129132, 129629]","[117950, 118449, 118949, 119449, 119949, 120450, 120950, 121450, 122039, 122570, 123035, 123522, 124000, 124500, 125003, 125519, 126020, 126524, 127022, 127546, 128057, 128561, 129082, 129581]",84,EM,L,R,ITMSR,1.1,
1,500,practice,0,2,2,2,practice,"['S', 'S', 'S', 'S', 'S', 'S', 'S', 'C', 'C', 'C', 'C', 'C', 'C', 'C', 'C', 'C', 'C', 'C', 'C', 'C', 'C', 'C', 'C']","[135469, 136089, 136628, 137150, 137640, 138188, 138691, 139208, 139672, 140134, 140615, 141105, 141623, 142093, 142572, 143076, 143587, 144067, 144544, 145029, 145527, 146006, 146478]","[135590, 136196, 136754, 137279, 137784, 138307, 138812, 139335, 139783, 140248, 140725, 141227, 141735, 142217, 142698, 143204, 143720, 144196, 144684, 145170, 145675, 146137, 146625]","[214, 105, 173, 115, 129, 51, 74, 80, 83, 82, 8, 63, 33, 51, 53, 119, 138, 173, 201, 168, 113, 148, 183]","[135522, 136144, 136684, 137213, 137721, 138254, 138750, 139278, 139728, 140191, 140675, 141173, 141684, 142153, 142633, 143134, 143651, 144119, 144614, 145097, 145600, 146064, 146545]","[135171, 135671, 136171, 136671, 137171, 137671, 138171, 138671, 139228, 139693, 140154, 140635, 141125, 141643, 142113, 142593, 143096, 143607, 144088, 144564, 145049, 145547, 146026, 146498]",84,EM,L,R,ITMSR,1.1,
2,500,practice,0,3,3,3,practice,"['S', 'S', 'S', 'S', 'S', 'S', 'S', 'S', 'C', 'C', 'C', 'C', 'C', 'C', 'C', 'C', 'C', 'C', 'C', 'C', 'C', 'C', 'C', 'C']","[152456, 152828, 153236, 153706, 154210, 154738, 155226, 155721, 156209, 156703, 157233, 157713, 158203, 158691, 159180, 159698, 160161, 160667, 161152, 161627, 162075, 162639, 163103, 163580]","[152570, 152939, 153360, 153836, 154340, 154863, 155359, 155863, 156353, 156846, 157368, 157865, 158360, 158818, 159328, 159835, 160335, 160816, 161317, 161829, 162293, 162799, 163268, 163729]","[46, 99, 206, 240, 159, 203, 122, 159, 193, 88, 107, 68, 138, 71, 156, 170, 176, 194, 180, 209, 213, 190, 182, 181]","[152508, 152885, 153294, 153765, 154274, 154793, 155298, 155791, 156268, 156779, 157297, 157785, 158271, 158752, 159250, 159757, 160242, 160738, 161233, 161723, 162200, 162716, 163177, 163649]","[152246, 152747, 153246, 153746, 154246, 154746, 155246, 155746, 156229, 156723, 157253, 157733, 158223, 158711, 159200, 159718, 160181, 160687, 161172, 161647, 162095, 162659, 163123, 163600]",84,EM,L,R,ITMSR,1.1,
3,500,practice,0,4,4,4,practice,"['S', 'S', 'S', 'S', 'S', 'S', 'S', 'C', 'C', 'C', 'C', 'C', 'C', 'C', 'C', 'C', 'C', 'C', 'C', 'C', 'C', 'C', 'C']","[169530, 170047, 170633, 171152, 171657, 172154, 172687, 173237, 173730, 174202, 174722, 175206, 175686, 176154, 176690, 177181, 177662, 178149, 178636, 179137, 179633, 180136, 180658]","[169643, 170166, 170760, 171268, 171786, 172291, 172843, 173347, 173879, 174375, 174866, 175343, 175822, 176290, 176835, 177311, 177815, 178301, 178792, 179279, 179773, 180280, 180809]","[135, 78, 112, 247, 255, 63, 3, 208, 46, 166, 102, 50, 251, 62, 88, 112, 72, 69, 70, 76, 84, 93, 152]","[169616, 170109, 170698, 171214, 171720, 172219, 172768, 173293, 173800, 174289, 174801, 175271, 175768, 176221, 176762, 177240, 177753, 178221, 178718, 179208, 179697, 180205, 180717]","[169255, 169755, 170255, 170755, 171255, 171755, 172255, 172755, 173257, 173750, 174222, 174742, 175226, 175706, 176174, 176710, 177201, 177682, 178169, 178656, 179158, 179653, 180156, 180678]",84,EM,L,R,ITMSR,1.1,
5,500,practice,0,5,5,5,practice,"['S', 'S', 'S', 'S', 'S', 'S', 'S', 'S', 'C', 'C', 'C', 'C', 'C', 'C', 'C', 'C', 'C', 'C', 'C', 'C', 'C', 'C', 'C', 'C']","[186216, 186626, 187108, 187569, 188075, 188578, 189079, 189557, 190066, 190586, 191079, 191552, 192077, 192520, 193013, 193506, 193998, 194492, 195006, 195512, 196032, 196540, 197092, 197610]","[186312, 186759, 187241, 187692, 188181, 188688, 189187, 189668, 190174, 190712, 191188, 191663, 192184, 192631, 193138, 193638, 194123, 194603, 195143, 195644, 196159, 196681, 197245, 197752]","[143, 23, 200, 157, 124, 160, 172, 146, 169, 180, 125, 152, 178, 128, 203, 218, 243, 210, 74, 243, 2, 243, 10, 237]","[186263, 186686, 187163, 187623, 188128, 188635, 189127, 189601, 190117, 190647, 191137, 191603, 192129, 192592, 193077, 193568, 194054, 194540, 195068, 195568, 196096, 196612, 197175, 197678]","[186071, 186569, 187069, 187569, 188069, 188569, 189069, 189570, 190086, 190606, 191099, 191572, 192097, 192540, 193033, 193526, 194018, 194512, 195026, 195532, 196052, 196560, 197112, 197630]",84,EM,L,R,ITMSR,1.1,
2,400,trial,0,6,6,6,trial,"['S', 'S', 'S', 'S', 'S', 'S', 'S', 'C', 'C', 'C', 'C', 'C', 'C', 'C', 'C', 'C', 'C', 'C', 'C', 'C', 'C', 'C', 'C']","[266049, 266600, 267101, 267440, 267787, 268172, 268558, 268953, 269365, 269770, 270160, 270557, 270967, 271353, 271732, 272135, 272532, 272936, 273328, 273721, 274103, 274477, 274890]","[266151, 266681, 267181, 267529, 267877, 268258, 268633, 269043, 269456, 269854, 270252, 270649, 271057, 271447, 271826, 272237, 272640, 273046, 273437, 273838, 274225, 274600, 275003]","[242, 129, 104, 33, 43, 45, 19, 40, 13, 10, 238, 250, 206, 193, 223, 5, 3, 10, 251, 4, 198, 7, 13]","[266092, 266626, 267126, 267466, 267813, 268196, 268582, 268977, 269388, 269794, 270183, 270580, 270991, 271379, 271756, 272159, 272556, 272962, 273351, 273746, 274128, 274499, 274914]","[265805, 266204, 266604, 267004, 267404, 267804, 268205, 268605, 268973, 269385, 269790, 270180, 270577, 270987, 271373, 271752, 272155, 272552, 272956, 273348, 273741, 274123, 274497, 274910]",84,EM,L,R,ITMSR,1.1,
1,600,trial,0,7,7,7,trial,"['S', 'S', 'S', 'S', 'S', 'S', 'S', 'S', 'C', 'C', 'C', 'C', 'C', 'C', 'C', 'C', 'C', 'C', 'C', 'C', 'C', 'C', 'C', 'C']","[280941, 281430, 281974, 282566, 283145, 283716, 284328, 284891, 285442, 286021, 286621, 287242, 287847, 288452, 289079, 289697, 290310, 290925, 291526, 292143, 292773, 293393, 293991, 294624]","[281008, 281493, 282056, 282654, 283243, 283817, 284432, 285012, 285560, 286155, 286746, 287366, 287971, 288582, 289209, 289810, 290438, 291017, 291651, 292260, 292886, 293493, 294102, 294737]","[99, 63, 30, 49, 37, 17, 241, 11, 32, 2, 19, 24, 27, 23, 242, 236, 185, 24, 33, 21, 43, 10, 1, 77]","[280961, 281450, 281999, 282587, 283171, 283741, 284354, 284916, 285468, 286050, 286646, 287270, 287870, 288478, 289103, 289725, 290337, 290947, 291550, 292166, 292797, 293416, 294014, 294651]","[280662, 281261, 281861, 282461, 283061, 283661, 284261, 284861, 285462, 286041, 286641, 287262, 287867, 288472, 289099, 289717, 290330, 290946, 291546, 292163, 292793, 293413, 294011, 294644]",84,EM,L,R,ITMSR,1.1,
1,400,trial,0,8,8,8,trial,"['S', 'S', 'S', 'S', 'S', 'S', 'S', 'C', 'C', 'C', 'C', 'C', 'C', 'C', 'C', 'C', 'C', 'C', 'C', 'C', 'C', 'C', 'C']","[300282, 300863, 301231, 301581, 301980, 302382, 302778, 303174, 303577, 303977, 304374, 304784, 305178, 305573, 305978, 306383, 306767, 307165, 307558, 307951, 308346, 308734, 309110]","[300367, 300953, 301318, 301664, 302062, 302460, 302865, 303268, 303672, 304062, 304467, 304858, 305280, 305675, 306094, 306465, 306883, 307261, 307668, 308060, 308453, 308847, 309225]","[63, 231, 77, 68, 49, 44, 28, 58, 20, 25, 60, 51, 68, 71, 45, 40, 87, 60, 32, 49, 50, 104, 95]","[300304, 300890, 301252, 301603, 301999, 302402, 302799, 303198, 303601, 304000, 304398, 304804, 305201, 305594, 306004, 306404, 306792, 307186, 307582, 307975, 308371, 308760, 309136]","[300036, 300436, 300836, 301236, 301636, 302036, 302436, 302836, 303194, 303597, 303997, 304394, 304804, 305198, 305593, 305998, 306403, 306787, 307185, 307578, 307971, 308366, 308754, 309130]",84,EM,L,R,ITMSR,1.1,
5,400,trial,0,9,9,9,trial,"['S', 'S', 'S', 'S', 'S', 'S', 'S', 'C', 'C', 'C', 'C', 'C', 'C', 'C', 'C', 'C', 'C', 'C', 'C', 'C', 'C', 'C', 'C']","[315013, 315429, 315870, 316312, 316737, 317163, 317564, 317974, 318379, 318788, 319198, 319602, 320000, 320395, 320809, 321203, 321608, 322028, 322418, 322827, 323258, 323638, 324074]","[315103, 315524, 315962, 316398, 316818, 317255, 317656, 318088, 318484, 318882, 319302, 319707, 320096, 320489, 320906, 321300, 321718, 322119, 322529, 322930, 323343, 323755, 324183]","[103, 60, 5, 19, 27, 246, 37, 29, 38, 9, 68, 49, 58, 35, 30, 42, 47, 51, 39, 22, 33, 73, 52]","[315038, 315454, 315896, 316335, 316760, 317190, 317588, 318002, 318405, 318811, 319224, 319626, 320023, 320420, 320833, 321227, 321630, 322051, 322443, 322852, 323281, 323663, 324099]","[314797, 315197, 315597, 315997, 316397, 316797, 317197, 317597, 317995, 318399, 318808, 319218, 319622, 320020, 320415, 320829, 321223, 321628, 322049, 322438, 322847, 323278, 323658, 324094]",84,EM,L,R,ITMSR,1.1,
4,600,trial,0,10,10,10,trial,"['S', 'S', 'S', 'S', 'S', 'S', 'S', 'S', 'C', 'C', 'C', 'C', 'C', 'C', 'C', 'C', 'C', 'C', 'C', 'C', 'C', 'C', 'C', 'C']","[330034, 330583, 331137, 331691, 332261, 332833, 333409, 334010, 334616, 335204, 335760, 336315, 336897, 337470, 338045, 338650, 339207, 339807, 340407, 340986, 341579, 342178, 342781, 343361]","[330113, 330680, 331228, 331793, 332365, 332938, 333520, 334126, 334723, 335307, 335892, 336453, 337057, 337637, 338214, 338770, 339362, 339950, 340553, 341130, 341711, 342317, 342913, 343488]","[2, 41, 32, 54, 41, 21, 60, 11, 25, 49, 51, 36, 50, 84, 76, 60, 10, 47, 82, 24, 54, 42, 32, 37]","[330059, 330609, 331163, 331718, 332288, 332862, 333433, 334034, 334645, 335227, 335787, 336340, 336922, 337497, 338072, 338677, 339235, 339833, 340444, 341020, 341603, 342202, 342804, 343385]","[329790, 330390, 330990, 331590, 332190, 332790, 333390, 333990, 334637, 335224, 335780, 336335, 336917, 337490, 338065, 338670, 339227, 339827, 340427, 341006, 341599, 342198, 342801, 343382]",84,EM,L,R,ITMSR,1.1,
4,600,trial,0,11,11,11,trial,"['S', 'S', 'S', 'S', 'S', 'S', 'S', 'S', 'C', 'C', 'C', 'C', 'C', 'C', 'C', 'C', 'C', 'C', 'C', 'C', 'C', 'C', 'C', 'C']","[349253, 349826, 350286, 350840, 351448, 352083, 352656, 353224, 353806, 354401, 355010, 355593, 356177, 356742, 357356, 357962, 358584, 359186, 359768, 360351, 360967, 361543, 362136, 362744]","[349339, 349918, 350387, 350946, 351549, 352171, 352759, 353329, 353904, 354511, 355124, 355700, 356273, 356861, 357482, 358077, 358680, 359290, 359887, 360462, 361051, 361648, 362256, 362869]","[36, 51, 18, 38, 3, 2, 12, 37, 10, 3, 20, 24, 252, 0, 217, 13, 254, 185, 138, 228, 170, 226, 233, 232]","[349275, 349848, 350311, 350866, 351471, 352107, 352680, 353252, 353832, 354430, 355040, 355622, 356205, 356767, 357383, 357990, 358611, 359217, 359798, 360379, 360992, 361576, 362163, 362776]","[349035, 349635, 350235, 350835, 351435, 352035, 352635, 353235, 353826, 354421, 355031, 355613, 356197, 356762, 357377, 357982, 358604, 359206, 359788, 360371, 360987, 361563, 362157, 362764]",84,EM,L,R,ITMSR,1.1,
1,400,trial,0,12,12,12,trial,"['S', 'S', 'S', 'S', 'S', 'S', 'S', 'C', 'C', 'C', 'C', 'C', 'C', 'C', 'C', 'C', 'C', 'C', 'C', 'C', 'C', 'C', 'C']","[368287, 368799, 369216, 369639, 370054, 370478, 370867, 371283, 371695, 372090, 372503, 372908, 373307, 373740, 374139, 374537, 374968, 375367, 375766, 376182, 376604, 377012, 377409]","[368379, 368896, 369290, 369714, 370130, 370558, 370969, 371375, 371756, 372185, 372585, 372992, 373413, 373831, 374219, 374616, 375044, 375443, 375861, 376267, 376694, 377095, 377492]","[11, 247, 217, 214, 254, 199, 18, 244, 243, 225, 220, 220, 252, 42, 215, 231, 219, 221, 235, 177, 152, 196, 237]","[368319, 368842, 369243, 369666, 370077, 370504, 370894, 371309, 371719, 372123, 372532, 372933, 373336, 373764, 374163, 374561, 374995, 375390, 375792, 376208, 376636, 377038, 377438]","[368107, 368507, 368907, 369307, 369708, 370107, 370507, 370907, 371303, 371715, 372110, 372524, 372928, 373327, 373761, 374159, 374557, 374988, 375387, 375786, 376202, 376624, 377032, 377430]",84,EM,L,R,ITMSR,1.1,
2,400,trial,0,13,13,13,trial,"['S', 'S', 'S', 'S', 'S', 'S', 'S', 'C', 'C', 'C', 'C', 'C', 'C', 'C', 'C', 'C', 'C', 'C', 'C', 'C', 'C', 'C', 'C']","[382999, 383370, 383827, 384253, 384663, 385096, 385500, 385910, 386301, 386726, 387103, 387510, 387899, 388307, 388697, 389099, 389509, 389915, 390323, 390702, 391096, 391533, 391944]","[383067, 383454, 383922, 384358, 384777, 385203, 385612, 386019, 386414, 386832, 387194, 387605, 387996, 388393, 388781, 389192, 389590, 390006, 390398, 390798, 391185, 391621, 392015]","[85, 246, 234, 26, 34, 44, 62, 25, 30, 31, 43, 42, 36, 37, 42, 38, 0, 230, 242, 14, 236, 5, 212]","[383020, 383395, 383856, 384281, 384692, 385124, 385522, 385934, 386329, 386752, 387128, 387533, 387926, 388332, 388720, 389125, 389532, 389940, 390346, 390728, 391123, 391561, 391969]","[382773, 383172, 383572, 383972, 384372, 384772, 385172, 385572, 385930, 386321, 386746, 387123, 387530, 387919, 388327, 388717, 389120, 389529, 389935, 390343, 390722, 391116, 391554, 391964]",84,EM,L,R,ITMSR,1.1,
5,600,trial,0,14,14,14,trial,"['S', 'S', 'S', 'S', 'S', 'S', 'S', 'S', 'C', 'C', 'C', 'C', 'C', 'C', 'C', 'C', 'C', 'C', 'C', 'C', 'C', 'C', 'C', 'C']","[397659, 398061, 398689, 399311, 399899, 400503, 401086, 401670, 402263, 402837, 403443, 404058, 404681, 405276, 405868, 406463, 407070, 407661, 408241, 408888, 409527, 410114, 410723, 411313]","[397746, 398201, 398784, 399423, 400013, 400617, 401197, 401795, 402382, 402979, 403571, 404197, 404771, 405386, 405995, 406584, 407176, 407775, 408370, 409008, 409638, 410219, 410850, 411443]","[76, 58, 2, 21, 32, 27, 12, 22, 38, 25, 9, 234, 250, 247, 227, 229, 171, 191, 237, 32, 190, 243, 33, 231]","[397684, 398086, 398714, 399342, 399921, 400536, 401113, 401703, 402289, 402875, 403475, 404098, 404709, 405309, 405899, 406496, 407099, 407695, 408266, 408914, 409565, 410141, 410761, 411360]","[397484, 398083, 398683, 399283, 399883, 400483, 401083, 401683, 402283, 402857, 403463, 404078, 404701, 405296, 405889, 406483, 407090, 407682, 408261, 408908, 409547, 410134, 410743, 411333]",84,EM,L,R,ITMSR,1.1,
1,600,trial,0,15,15,15,trial,"['S', 'S', 'S', 'S', 'S', 'S', 'S', 'S', 'C', 'C', 'C', 'C', 'C', 'C', 'C', 'C', 'C', 'C', 'C', 'C', 'C', 'C', 'C', 'C']","[417208, 417783, 418308, 418903, 419466, 420045, 420649, 421227, 421857, 422447, 423018, 423606, 424208, 424826, 425449, 426050, 426619, 427219, 427838, 428432, 429050, 429629, 430213, 430842]","[417307, 417875, 418427, 418999, 419580, 420163, 420771, 421353, 421977, 422569, 423155, 423732, 424338, 424948, 425561, 426166, 426756, 427368, 427964, 428574, 429175, 429771, 430374, 430997]","[65, 13, 41, 205, 203, 213, 239, 18, 244, 167, 231, 250, 235, 119, 169, 195, 120, 225, 188, 181, 167, 173, 159, 189]","[417255, 417836, 418358, 418955, 419535, 420101, 420716, 421281, 421913, 422518, 423095, 423669, 424270, 424894, 425506, 426106, 426703, 427303, 427915, 428507, 429118, 429711, 430287, 430918]","[417040, 417640, 418240, 418840, 419440, 420040, 420640, 421240, 421877, 422467, 423038, 423626, 424228, 424846, 425469, 426071, 426639, 427239, 427858, 428452, 429070, 429649, 430233, 430862]",84,EM,L,R,ITMSR,1.1,
0,600,trial,0,16,16,16,trial,"['S', 'S', 'S', 'S', 'S', 'S', 'S', 'S', 'C', 'C', 'C', 'C', 'C', 'C', 'C', 'C', 'C', 'C', 'C', 'C', 'C', 'C', 'C', 'C']","[436618, 437137, 437636, 438156, 438785, 439401, 440036, 440621, 441222, 441844, 442469, 443077, 443663, 444265, 444940, 445536, 446142, 446766, 447405, 448073, 448676, 449253, 449878, 450457]","[436718, 437250, 437741, 438292, 438889, 439520, 440155, 440744, 441340, 441970, 442631, 443278, 443858, 444414, 445072, 445711, 446315, 446923, 447574, 448209, 448790, 449379, 450008, 450578]","[60, 234, 2, 44, 31, 6, 212, 245, 244, 239, 240, 16, 242, 239, 204, 248, 200, 209, 134, 108, 127, 129, 201, 179]","[436660, 437196, 437685, 438223, 438837, 439459, 440105, 440694, 441290, 441911, 442542, 443170, 443755, 444364, 445024, 445618, 446242, 446841, 447503, 448147, 448732, 449320, 449948, 450529]","[436349, 436950, 437549, 438149, 438749, 439349, 439949, 440549, 441242, 441864, 442489, 443097, 443683, 444285, 444960, 445556, 446162, 446786, 447425, 448093, 448696, 449273, 449898, 450477]",84,EM,L,R,ITMSR,1.1,
0,400,trial,0,17,17,17,trial,"['S', 'S', 'S', 'S', 'S', 'S', 'S', 'C', 'C', 'C', 'C', 'C', 'C', 'C', 'C', 'C', 'C', 'C', 'C', 'C', 'C', 'C', 'C']","[456453, 457056, 457356, 457710, 458087, 458513, 458925, 459340, 459751, 460188, 460595, 460996, 461382, 461778, 462226, 462615, 463076, 463444, 463881, 464277, 464681, 465080, 465475]","[456558, 457147, 457433, 457794, 458183, 458602, 459019, 459430, 459854, 460284, 460676, 461079, 461474, 461895, 462326, 462706, 463149, 463553, 463967, 464357, 464765, 465172, 465561]","[248, 157, 208, 190, 182, 194, 193, 251, 253, 120, 81, 86, 166, 125, 84, 30, 171, 29, 48, 14, 154, 49, 255]","[456506, 457106, 457396, 457756, 458130, 458558, 458967, 459381, 459807, 460249, 460637, 461031, 461427, 461845, 462274, 462666, 463118, 463513, 463926, 464319, 464728, 465132, 465516]","[456165, 456565, 456965, 457365, 457765, 458165, 458565, 458966, 459360, 459771, 460208, 460615, 461016, 461402, 461798, 462246, 462636, 463096, 463464, 463901, 464297, 464701, 465100, 465496]",84,EM,L,R,ITMSR,1.1,
3,400,trial,0,18,18,18,trial,"['S', 'S', 'S', 'S', 'S', 'S', 'S', 'C', 'C', 'C', 'C', 'C', 'C', 'C', 'C', 'C', 'C', 'C', 'C', 'C', 'C', 'C', 'C']","[471370, 471811, 472212, 472632, 473042, 473485, 473890, 474276, 474687, 475074, 475449, 475862, 476254, 476631, 477042, 477466, 477833, 478251, 478650, 479032, 479452, 479865, 480280]","[471458, 471900, 472315, 472743, 473147, 473580, 473981, 474378, 474796, 475174, 475555, 475962, 476353, 476731, 477165, 477573, 477946, 478377, 478764, 479158, 479583, 479990, 480401]","[177, 146, 163, 134, 112, 75, 172, 80, 98, 129, 71, 36, 72, 127, 167, 89, 140, 174, 174, 173, 190, 175, 162]","[471412, 471847, 472255, 472674, 473102, 473529, 473948, 474333, 474743, 475125, 475505, 475919, 476302, 476688, 477100, 477514, 477889, 478316, 478702, 479089, 479533, 479940, 480342]","[471141, 471540, 471940, 472340, 472740, 473140, 473540, 473940, 474296, 474707, 475095, 475469, 475882, 476274, 476651, 477062, 477486, 477853, 478271, 478670, 479052, 479472, 479885, 480301]",84,EM,L,R,ITMSR,1.1,
4,400,trial,0,19,19,19,trial,"['S', 'S', 'S', 'S', 'S', 'S', 'S', 'C', 'C', 'C', 'C', 'C', 'C', 'C', 'C', 'C', 'C', 'C', 'C', 'C', 'C', 'C', 'C']","[486140, 486538, 486942, 487365, 487767, 488174, 488574, 488985, 489362, 489792, 490217, 490591, 490998, 491376, 491782, 492163, 492576, 492961, 493387, 493796, 494178, 494541, 495005]","[486253, 486638, 487046, 487456, 487856, 488288, 488690, 489095, 489478, 489907, 490319, 490695, 491107, 491494, 491890, 492292, 492704, 493093, 493505, 493896, 494269, 494647, 495141]","[237, 115, 151, 5, 246, 111, 132, 166, 56, 134, 85, 58, 94, 102, 125, 117, 150, 149, 45, 33, 19, 29, 141]","[486182, 486592, 486999, 487406, 487809, 488238, 488642, 489041, 489422, 489848, 490266, 490636, 491060, 491431, 491838, 492231, 492644, 493025, 493450, 493847, 494228, 494589, 495089]","[485829, 486230, 486629, 487029, 487429, 487829, 488229, 488629, 489005, 489382, 489812, 490237, 490611, 491018, 491396, 491802, 492183, 492596, 492981, 493407, 493816, 494198, 494561, 495025]",84,EM,L,R,ITMSR,1.1,
4,400,trial,0,20,20,20,trial,"['S', 'S', 'S', 'S', 'S', 'S', 'C', 'C', 'C', 'C', 'C', 'C', 'C', 'C', 'C', 'C', 'C', 'C', 'C', 'C', 'C', 'C']","[501371, 501769, 502183, 502604, 503004, 503416, 503834, 504212, 504638, 505061, 505432, 505846, 506259, 506657, 507069, 507494, 507905, 508318, 508687, 509139, 509541, 509975]","[501451, 501854, 502256, 502705, 503111, 503515, 503916, 504303, 504743, 505157, 505511, 505954, 506350, 506747, 507165, 507585, 508013, 508397, 508804, 509246, 509630, 510041]","[245, 109, 123, 104, 128, 72, 212, 138, 33, 17, 9, 16, 16, 108, 0, 135, 59, 169, 18, 74, 32, 117]","[501417, 501807, 502220, 502660, 503053, 503465, 503872, 504253, 504698, 505120, 505472, 505906, 506302, 506705, 507126, 507538, 507967, 508366, 508749, 509197, 509587, 510003]","[500646, 501046, 501446, 501847, 502246, 502646, 503046, 503446, 503854, 504232, 504658, 505081, 505452, 505866, 506279, 506677, 507089, 507514, 507925, 508338, 508707, 509159, 509561, 509996]",84,EM,L,R,ITMSR,1.1,
0,600,trial,0,21,21,21,trial,"['S', 'S', 'S', 'S', 'S', 'S', 'S', 'S', 'C', 'C', 'C', 'C', 'C', 'C', 'C', 'C', 'C', 'C', 'C', 'C', 'C', 'C', 'C', 'C']","[515735, 516125, 516783, 517367, 517961, 518602, 519213, 519780, 520379, 521014, 521614, 522243, 522853, 523452, 524038, 524637, 525261, 525884, 526507, 527125, 527770, 528400, 529019, 529650]","[515812, 516290, 516869, 517476, 518074, 518708, 519333, 519904, 520488, 521127, 521728, 522351, 522964, 523560, 524142, 524751, 525370, 525983, 526625, 527240, 527895, 528518, 529147, 529772]","[146, 175, 109, 175, 50, 87, 130, 70, 128, 138, 93, 88, 93, 112, 78, 45, 30, 32, 55, 16, 49, 65, 28, 49]","[515772, 516219, 516823, 517423, 518023, 518662, 519272, 519849, 520437, 521075, 521667, 522299, 522916, 523497, 524101, 524699, 525319, 525927, 526578, 527191, 527843, 528462, 529091, 529713]","[515575, 516175, 516775, 517376, 517976, 518576, 519176, 519776, 520399, 521034, 521634, 522263, 522873, 523472, 524058, 524657, 525281, 525904, 526527, 527145, 527790, 528420, 529039, 529670]",84,EM,L,R,ITMSR,1.1,
3,600,trial,0,22,22,22,trial,"['S', 'S', 'S', 'S', 'S', 'S', 'S', 'S', 'C', 'C', 'C', 'C', 'C', 'C', 'C', 'C', 'C', 'C', 'C', 'C', 'C', 'C', 'C', 'C']","[535570, 536167, 536683, 537236, 537817, 538407, 539015, 539624, 540187, 540765, 541377, 542019, 542593, 543208, 543831, 544454, 545105, 545686, 546314, 546932, 547552, 548158, 548792, 549421]","[535655, 536256, 536795, 537371, 537948, 538554, 539151, 539743, 540307, 540887, 541511, 542152, 542777, 543360, 543989, 544610, 545226, 545858, 546471, 547087, 547700, 548331, 548960, 549581]","[136, 212, 153, 225, 191, 219, 186, 169, 155, 161, 214, 154, 229, 228, 239, 235, 213, 244, 216, 171, 144, 230, 216, 214]","[535610, 536209, 536733, 537302, 537887, 538487, 539085, 539691, 540255, 540827, 541452, 542099, 542697, 543293, 543913, 544534, 545167, 545769, 546387, 547011, 547635, 548243, 548874, 549496]","[535389, 535988, 536588, 537188, 537788, 538388, 538988, 539588, 540207, 540785, 541398, 542040, 542613, 543228, 543851, 544474, 545125, 545707, 546334, 546952, 547572, 548178, 548812, 549441]",84,EM,L,R,ITMSR,1.1,
0,400,trial,0,23,23,23,trial,"['S', 'S', 'S', 'S', 'S', 'S', 'S', 'C', 'C', 'C', 'C', 'C', 'C', 'C', 'C', 'C', 'C', 'C', 'C', 'C', 'C', 'C', 'C']","[555536, 555922, 556306, 556697, 557113, 557527, 557948, 558364, 558729, 559133, 559535, 559922, 560332, 560728, 561134, 561549, 561957, 562375, 562781, 563221, 563644, 564017, 564468]","[555661, 556020, 556397, 556810, 557214, 557625, 558048, 558477, 558823, 559215, 559609, 560032, 560441, 560835, 561228, 561632, 562028, 562456, 562864, 563304, 563735, 564103, 564548]","[177, 27, 13, 219, 35, 82, 24, 135, 7, 246, 8, 94, 95, 88, 228, 251, 138, 170, 245, 205, 220, 252, 188]","[555597, 555969, 556349, 556748, 557175, 557576, 558015, 558426, 558774, 559177, 559581, 559983, 560392, 560789, 561189, 561593, 561987, 562412, 562823, 563262, 563689, 564056, 564507]","[555166, 555566, 555966, 556366, 556766, 557166, 557566, 557966, 558384, 558749, 559153, 559555, 559942, 560352, 560748, 561154, 561569, 561977, 562395, 562801, 563241, 563664, 564037, 564488]",84,EM,L,R,ITMSR,1.1,
3,600,trial,0,24,24,24,trial,"['S', 'S', 'S', 'S', 'S', 'S', 'S', 'S', 'C', 'C', 'C', 'C', 'C', 'C', 'C', 'C', 'C', 'C', 'C', 'C', 'C', 'C', 'C', 'C']","[570196, 570754, 571225, 571774, 572348, 572951, 573520, 574128, 574706, 575322, 575937, 576558, 577163, 577793, 578430, 579070, 579704, 580323, 580920, 581536, 582160, 582800, 583434, 584059]","[570276, 570858, 571333, 571890, 572457, 573069, 573642, 574246, 574836, 575444, 576067, 576667, 577289, 577918, 578568, 579197, 579834, 580460, 581038, 581658, 582304, 582915, 583572, 584184]","[117, 222, 154, 193, 116, 131, 31, 72, 9, 107, 169, 82, 70, 149, 141, 55, 221, 9, 25, 101, 108, 14, 60, 48]","[570232, 570810, 571283, 571835, 572404, 573011, 573594, 574199, 574776, 575392, 576006, 576602, 577230, 577861, 578499, 579132, 579783, 580411, 580994, 581604, 582257, 582870, 583517, 584131]","[569942, 570541, 571141, 571741, 572341, 572941, 573541, 574141, 574726, 575342, 575958, 576578, 577183, 577813, 578450, 579090, 579724, 580343, 580940, 581556, 582180, 582820, 583454, 584079]",84,EM,L,R,ITMSR,1.1,
3,400,trial,0,25,25,25,trial,"['S', 'S', 'S', 'S', 'S', 'S', 'S', 'C', 'C', 'C', 'C', 'C', 'C', 'C', 'C', 'C', 'C', 'C', 'C', 'C', 'C', 'C', 'C']","[590150, 590508, 590939, 591316, 591735, 592126, 592531, 592933, 593349, 593776, 594190, 594595, 595020, 595403, 595812, 596207, 596609, 597021, 597445, 597853, 598265, 598684, 599105]","[590257, 590599, 591044, 591411, 591823, 592233, 592634, 593032, 593445, 593873, 594287, 594694, 595120, 595505, 595907, 596315, 596734, 597148, 597554, 597975, 598377, 598774, 599219]","[164, 123, 42, 147, 177, 31, 72, 202, 147, 253, 225, 95, 196, 235, 187, 108, 91, 111, 240, 58, 29, 231, 43]","[590188, 590559, 590994, 591375, 591778, 592174, 592601, 592997, 593402, 593837, 594246, 594651, 595076, 595461, 595858, 596251, 596676, 597090, 597507, 597918, 598319, 598728, 599171]","[589787, 590186, 590586, 590986, 591386, 591787, 592186, 592586, 592953, 593369, 593796, 594210, 594615, 595040, 595423, 595832, 596227, 596629, 597041, 597465, 597873, 598285, 598704, 599126]",84,EM,L,R,ITMSR,1.1,
2,600,trial,0,26,26,26,trial,"['S', 'S', 'S', 'S', 'S', 'S', 'S', 'S', 'C', 'C', 'C', 'C', 'C', 'C', 'C', 'C', 'C', 'C', 'C', 'C', 'C', 'C', 'C', 'C']","[605115, 605652, 606119, 606674, 607229, 607865, 608494, 609032, 609625, 610235, 610838, 611488, 612066, 612678, 613276, 613865, 614458, 615069, 615673, 616244, 616881, 617478, 618071, 618663]","[605193, 605753, 606241, 606787, 607362, 607996, 608608, 609144, 609735, 610345, 610941, 611578, 612196, 612801, 613414, 614019, 614586, 615182, 615824, 616420, 617050, 617628, 618224, 618823]","[228, 78, 152, 106, 95, 78, 141, 45, 99, 18, 27, 165, 42, 5, 122, 38, 65, 178, 122, 152, 146, 168, 170, 153]","[605155, 605708, 606181, 606739, 607296, 607944, 608552, 609076, 609674, 610292, 610904, 611533, 612151, 612743, 613358, 613950, 614529, 615137, 615752, 616332, 616964, 617562, 618157, 618749]","[604890, 605490, 606090, 606690, 607290, 607890, 608490, 609090, 609645, 610255, 610859, 611508, 612086, 612698, 613296, 613885, 614478, 615089, 615693, 616264, 616901, 617498, 618091, 618683]",84,EM,L,R,ITMSR,1.1,
2,600,trial,0,27,27,27,trial,"['S', 'S', 'S', 'S', 'S', 'S', 'S', 'C', 'C', 'C', 'C', 'C', 'C', 'C', 'C', 'C', 'C', 'C', 'C', 'C', 'C', 'C', 'C']","[624472, 625192, 625839, 626442, 627061, 627682, 628275, 628882, 629465, 630082, 630710, 631329, 631962, 632573, 633192, 633782, 634400, 635013, 635621, 636211, 636783, 637424, 638025]","[624604, 625319, 625972, 626588, 627192, 627802, 628393, 629008, 629595, 630210, 630840, 631451, 632075, 632686, 633299, 633919, 634513, 635141, 635744, 636366, 636922, 637565, 638214]","[164, 122, 115, 28, 28, 166, 159, 156, 3, 156, 242, 75, 96, 167, 114, 156, 97, 90, 90, 168, 138, 167, 208]","[624537, 625266, 625905, 626526, 627134, 627735, 628350, 628952, 629545, 630157, 630790, 631393, 632034, 632648, 633249, 633857, 634461, 635097, 635709, 636308, 636855, 637509, 638129]","[624096, 624696, 625296, 625896, 626496, 627096, 627696, 628296, 628902, 629485, 630103, 630730, 631349, 631982, 632593, 633212, 633802, 634420, 635033, 635641, 636231, 636803, 637444, 638045]",84,EM,L,R,ITMSR,1.1,
5,600,trial,0,28,28,28,trial,"['S', 'S', 'S', 'S', 'S', 'S', 'C', 'C', 'C', 'C', 'C', 'C', 'C', 'C', 'C', 'C', 'C', 'C', 'C', 'C', 'C', 'C']","[644788, 645453, 646057, 646708, 647329, 647958, 648550, 649190, 649814, 650390, 651044, 651641, 652282, 652932, 653560, 654166, 654811, 655390, 656018, 656613, 657231, 657851]","[644892, 645559, 646196, 646836, 647457, 648072, 648698, 649312, 649949, 650551, 651200, 651801, 652392, 653058, 653694, 654283, 654931, 655524, 656167, 656753, 657426, 658033]","[114, 27, 14, 191, 158, 213, 165, 169, 227, 143, 119, 113, 110, 222, 116, 124, 59, 112, 91, 110, 209, 152]","[644835, 645516, 646148, 646774, 647391, 648036, 648595, 649261, 649890, 650483, 651134, 651748, 652360, 653004, 653630, 654235, 654875, 655470, 656101, 656673, 657333, 657960]","[643722, 644322, 644922, 645522, 646122, 646722, 647322, 647922, 648570, 649210, 649834, 650411, 651064, 651661, 652302, 652952, 653580, 654186, 654831, 655410, 656038, 656633, 657251, 657871]",84,EM,L,R,ITMSR,1.1,
5,400,trial,0,29,29,29,trial,"['S', 'S', 'S', 'S', 'S', 'S', 'C', 'C', 'C', 'C', 'C', 'C', 'C', 'C', 'C', 'C', 'C', 'C', 'C', 'C', 'C', 'C']","[664257, 664628, 665043, 665443, 665866, 666272, 666687, 667092, 667488, 667904, 668312, 668738, 669158, 669560, 669969, 670396, 670767, 671185, 671571, 671976, 672409, 672812]","[664338, 664701, 665132, 665522, 665958, 666356, 666750, 667168, 667583, 667995, 668363, 668815, 669233, 669647, 670052, 670481, 670851, 671261, 671646, 672058, 672454, 672890]","[196, 93, 24, 28, 232, 220, 236, 46, 55, 124, 123, 214, 239, 233, 39, 173, 81, 49, 222, 54, 175, 57]","[664299, 664667, 665088, 665479, 665913, 666312, 666715, 667122, 667547, 667958, 668342, 668783, 669196, 669604, 670017, 670440, 670824, 671223, 671609, 672022, 672434, 672851]","[663522, 663922, 664322, 664722, 665122, 665522, 665922, 666322, 666707, 667112, 667508, 667924, 668333, 668759, 669178, 669580, 669989, 670416, 670787, 671205, 671591, 671996, 672429, 672832]",84,EM,L,R,ITMSR,1.1,
5,600,trial,0,30,30,30,trial,"['S', 'S', 'S', 'S', 'S', 'S', 'C', 'C', 'C', 'C', 'C', 'C', 'C', 'C', 'C', 'C', 'C', 'C', 'C', 'C', 'C', 'C']","[693062, 693676, 694279, 694885, 695518, 696095, 696737, 697351, 697986, 698605, 699265, 699885, 700525, 701156, 701749, 702368, 702966, 703618, 704281, 704923, 705558, 706195]","[693209, 693821, 694437, 695036, 695650, 696253, 696878, 697519, 698135, 698789, 699431, 700077, 700673, 701294, 701917, 702516, 703161, 703788, 704473, 705099, 705770, 706421]","[85, 28, 187, 253, 159, 204, 124, 234, 214, 150, 134, 194, 7, 164, 145, 211, 215, 239, 223, 7, 16, 18]","[693131, 693753, 694361, 694950, 695585, 696167, 696806, 697434, 698057, 698692, 699358, 699976, 700598, 701231, 701835, 702431, 703092, 703709, 704382, 705025, 705645, 706310]","[691915, 692515, 693115, 693715, 694316, 694915, 695515, 696115, 696757, 697371, 698006, 698626, 699285, 699906, 700546, 701176, 701769, 702388, 702986, 703638, 704301, 704943, 705579, 706215]",84,EM,L,R,ITMSR,1.1,
4,400,trial,0,31,31,31,trial,"['S', 'S', 'S', 'S', 'S', 'S', 'C', 'C', 'C', 'C', 'C', 'C', 'C', 'C', 'C', 'C', 'C', 'C', 'C', 'C', 'C', 'C']","[712538, 713019, 713449, 713870, 714270, 714699, 715089, 715488, 715890, 716280, 716702, 717113, 717547, 717955, 718352, 718779, 719194, 719619, 720007, 720394, 720845, 721274]","[712637, 713106, 713530, 713965, 714355, 714802, 715186, 715597, 715986, 716374, 716793, 717204, 717629, 718043, 718436, 718887, 719285, 719689, 720096, 720499, 720947, 721364]","[205, 253, 34, 69, 54, 133, 214, 138, 144, 161, 115, 155, 134, 46, 128, 145, 140, 36, 124, 53, 81, 138]","[712541, 713023, 713487, 713874, 714276, 714733, 715125, 715525, 715927, 716317, 716707, 717150, 717582, 717958, 718358, 718844, 719227, 719624, 720041, 720398, 720901, 721277]","[711965, 712365, 712765, 713165, 713565, 713965, 714365, 714765, 715109, 715508, 715910, 716300, 716722, 717133, 717568, 717975, 718372, 718799, 719214, 719639, 720027, 720414, 720865, 721294]",84,EM,L,R,ITMSR,1.1,
3,600,trial,0,32,32,32,trial,"['S', 'S', 'S', 'S', 'S', 'S', 'S', 'S', 'C', 'C', 'C', 'C', 'C', 'C', 'C', 'C', 'C', 'C', 'C', 'C', 'C', 'C', 'C', 'C']","[726935, 727482, 727936, 728420, 729026, 729646, 730218, 730820, 731413, 732023, 732626, 733242, 733830, 734445, 735046, 735648, 736269, 736847, 737435, 738051, 738723, 739356, 739918, 740542]","[727011, 727592, 728052, 728543, 729149, 729760, 730345, 730958, 731571, 732169, 732766, 733388, 733948, 734582, 735197, 735820, 736437, 737011, 737603, 738211, 738846, 739488, 740071, 740709]","[206, 59, 184, 74, 4, 206, 111, 95, 129, 145, 125, 139, 30, 45, 37, 124, 149, 178, 175, 200, 233, 47, 108, 205]","[726971, 727535, 727999, 728475, 729088, 729709, 730301, 730903, 731505, 732114, 732706, 733335, 733895, 734528, 735120, 735730, 736354, 736917, 737500, 738144, 738809, 739435, 740013, 740625]","[726642, 727242, 727842, 728442, 729042, 729643, 730242, 730842, 731433, 732043, 732646, 733262, 733850, 734466, 735066, 735668, 736289, 736867, 737455, 738071, 738743, 739376, 739938, 740562]",84,EM,L,R,ITMSR,1.1,
0,600,trial,0,33,33,33,trial,"['S', 'S', 'S', 'S', 'S', 'S', 'S', 'C', 'C', 'C', 'C', 'C', 'C', 'C', 'C', 'C', 'C', 'C', 'C', 'C', 'C', 'C', 'C']","[746648, 747311, 747936, 748531, 749131, 749741, 750315, 750907, 751534, 752122, 752733, 753309, 753888, 754532, 755119, 755751, 756426, 757037, 757622, 758233, 758817, 759462, 760048]","[746778, 747424, 748071, 748659, 749244, 749852, 750432, 751028, 751657, 752247, 752854, 753460, 754069, 754727, 755274, 755889, 756558, 757147, 757773, 758387, 759012, 759584, 760203]","[156, 125, 65, 242, 168, 206, 21, 3, 166, 162, 131, 159, 238, 220, 96, 56, 124, 62, 203, 99, 125, 124, 160]","[746686, 747372, 748003, 748600, 749178, 749794, 750379, 750970, 751593, 752194, 752798, 753394, 753965, 754613, 755211, 755824, 756499, 757090, 757692, 758324, 758934, 759519, 760129]","[746131, 746731, 747331, 747931, 748531, 749131, 749731, 750331, 750927, 751554, 752142, 752753, 753329, 753908, 754552, 755139, 755771, 756446, 757057, 757642, 758253, 758837, 759482, 760068]",84,EM,L,R,ITMSR,1.1,
2,600,trial,0,34,34,34,trial,"['S', 'S', 'S', 'S', 'S', 'S', 'C', 'C', 'C', 'C', 'C', 'C', 'C', 'C', 'C', 'C', 'C', 'C', 'C', 'C', 'C', 'C']","[766973, 767614, 768239, 768871, 769514, 770107, 770722, 771315, 771932, 772531, 773149, 773779, 774433, 775011, 775635, 776273, 776885, 777503, 778112, 778703, 779330, 779981]","[767074, 767738, 768403, 769057, 769668, 770302, 770917, 771523, 772129, 772741, 773374, 773963, 774593, 775186, 775806, 776444, 777078, 777725, 778362, 778923, 779503, 780141]","[56, 204, 2, 236, 115, 223, 14, 8, 46, 95, 40, 22, 22, 225, 215, 227, 0, 144, 221, 181, 30, 202]","[767004, 767686, 768317, 768962, 769596, 770213, 770825, 771405, 772016, 772638, 773272, 773860, 774516, 775099, 775720, 776354, 776984, 777609, 778204, 778796, 779406, 780071]","[765856, 766456, 767056, 767656, 768257, 768856, 769456, 770056, 770742, 771335, 771952, 772551, 773169, 773799, 774453, 775031, 775655, 776293, 776905, 777523, 778132, 778723, 779351, 780001]",84,EM,L,R,ITMSR,1.1,
2,600,trial,0,35,35,35,trial,"['S', 'S', 'S', 'S', 'S', 'S', 'S', 'S', 'C', 'C', 'C', 'C', 'C', 'C', 'C', 'C', 'C', 'C', 'C', 'C', 'C', 'C', 'C', 'C']","[786036, 786502, 787020, 787621, 788243, 788845, 789498, 790057, 790628, 791231, 791805, 792376, 792965, 793585, 794225, 794797, 795387, 795982, 796583, 797180, 797797, 798379, 798989, 799578]","[786161, 786648, 787158, 787768, 788361, 788988, 789616, 790203, 790802, 791365, 791965, 792526, 793071, 793724, 794373, 794978, 795596, 796219, 796800, 797406, 797985, 798534, 799139, 799723]","[102, 54, 45, 36, 163, 23, 12, 21, 143, 31, 20, 15, 173, 189, 153, 222, 249, 239, 200, 235, 243, 86, 132, 140]","[786100, 786574, 787089, 787685, 788305, 788903, 789561, 790129, 790711, 791294, 791889, 792456, 793021, 793650, 794289, 794884, 795481, 796084, 796686, 797280, 797893, 798449, 799076, 799646]","[785790, 786390, 786989, 787589, 788189, 788789, 789389, 789989, 790648, 791251, 791825, 792396, 792985, 793605, 794245, 794817, 795407, 796002, 796603, 797200, 797817, 798399, 799009, 799598]",84,EM,L,R,ITMSR,1.1,
0,600,trial,0,36,36,36,trial,"['S', 'S', 'S', 'S', 'S', 'S', 'S', 'C', 'C', 'C', 'C', 'C', 'C', 'C', 'C', 'C', 'C', 'C', 'C', 'C', 'C', 'C', 'C']","[805746, 806368, 806942, 807554, 808184, 808805, 809412, 810043, 810678, 811268, 811898, 812499, 813125, 813733, 814341, 815009, 815702, 816332, 816910, 817515, 818068, 818704, 819315]","[805883, 806501, 807095, 807694, 808316, 808952, 809563, 810171, 810823, 811417, 812063, 812648, 813255, 813878, 814474, 815125, 815820, 816454, 817024, 817615, 818194, 818827, 819446]","[51, 81, 168, 101, 245, 71, 233, 64, 156, 203, 168, 109, 24, 179, 26, 101, 255, 36, 3, 25, 242, 6, 81]","[805817, 806416, 807025, 807626, 808260, 808876, 809494, 810118, 810742, 811338, 811982, 812579, 813201, 813808, 814417, 815073, 815770, 816399, 816977, 817566, 818137, 818771, 819386]","[805248, 805847, 806446, 807046, 807646, 808246, 808846, 809446, 810063, 810698, 811288, 811918, 812519, 813145, 813753, 814361, 815029, 815722, 816352, 816930, 817536, 818088, 818724, 819335]",84,EM,L,R,ITMSR,1.1,
5,400,trial,0,37,37,37,trial,"['S', 'S', 'S', 'S', 'S', 'S', 'S', 'C', 'C', 'C', 'C', 'C', 'C', 'C', 'C', 'C', 'C', 'C', 'C', 'C', 'C', 'C', 'C']","[825100, 825515, 825820, 826188, 826574, 826990, 827388, 827793, 828187, 828583, 828981, 829390, 829782, 830200, 830607, 830995, 831419, 831810, 832198, 832585, 833008, 833401, 833805]","[825235, 825619, 825936, 826310, 826683, 827083, 827494, 827899, 828285, 828701, 829081, 829485, 829895, 830313, 830714, 831115, 831535, 831895, 832309, 832689, 833116, 833508, 833896]","[53, 71, 27, 186, 77, 181, 57, 9, 227, 143, 1, 31, 53, 62, 2, 65, 75, 1, 248, 208, 10, 240, 222]","[825159, 825570, 825878, 826253, 826630, 827041, 827443, 827829, 828191, 828590, 829035, 829437, 829834, 830259, 830663, 831052, 831477, 831844, 832254, 832644, 833064, 833463, 833838]","[824640, 825039, 825439, 825839, 826240, 826639, 827039, 827439, 827813, 828207, 828603, 829001, 829410, 829802, 830220, 830627, 831015, 831439, 831831, 832218, 832605, 833028, 833421, 833825]",84,EM,L,R,ITMSR,1.1,
0,400,trial,0,38,38,38,trial,"['S', 'S', 'S', 'S', 'S', 'S', 'S', 'C', 'C', 'C', 'C', 'C', 'C', 'C', 'C', 'C', 'C', 'C', 'C', 'C', 'C', 'C', 'C']","[839621, 839981, 840353, 840744, 841159, 841534, 841957, 842355, 842750, 843148, 843517, 843917, 844339, 844710, 845113, 845517, 845907, 846304, 846694, 847130, 847524, 847862, 848295]","[839726, 840078, 840456, 840848, 841260, 841640, 842056, 842437, 842850, 843255, 843612, 844028, 844427, 844797, 845222, 845607, 846013, 846404, 846806, 847215, 847623, 847970, 848388]","[107, 190, 205, 160, 244, 213, 86, 172, 194, 232, 120, 178, 218, 30, 104, 126, 151, 180, 190, 92, 63, 75, 218]","[839671, 840032, 840411, 840799, 841210, 841591, 842012, 842398, 842808, 843205, 843568, 843974, 844379, 844760, 845173, 845556, 845963, 846361, 846754, 847163, 847585, 847915, 848347]","[839186, 839585, 839985, 840385, 840785, 841185, 841585, 841986, 842375, 842770, 843168, 843537, 843937, 844359, 844730, 845133, 845537, 845927, 846324, 846714, 847150, 847544, 847882, 848315]",84,EM,L,R,ITMSR,1.1,
1,400,trial,0,39,39,39,trial,"['S', 'S', 'S', 'S', 'S', 'S', 'S', 'C', 'C', 'C', 'C', 'C', 'C', 'C', 'C', 'C', 'C', 'C', 'C', 'C', 'C', 'C', 'C']","[854161, 854523, 854919, 855319, 855747, 856158, 856572, 856979, 857364, 857785, 858192, 858616, 859033, 859443, 859824, 860225, 860677, 861078, 861489, 861872, 862288, 862692, 863084]","[854268, 854628, 855011, 855411, 855856, 856269, 856672, 857065, 857462, 857887, 858292, 858715, 859128, 859547, 859917, 860332, 860768, 861171, 861583, 861974, 862404, 862794, 863176]","[214, 177, 207, 161, 154, 158, 244, 42, 36, 83, 136, 91, 62, 121, 114, 151, 142, 194, 104, 117, 147, 140, 158]","[854208, 854577, 854969, 855368, 855804, 856217, 856630, 857017, 857414, 857842, 858245, 858669, 859088, 859504, 859871, 860277, 860712, 861124, 861533, 861921, 862347, 862746, 863129]","[853793, 854192, 854592, 854992, 855392, 855792, 856193, 856592, 856999, 857384, 857805, 858212, 858636, 859053, 859463, 859844, 860246, 860697, 861099, 861509, 861892, 862308, 862712, 863105]",84,EM,L,R,ITMSR,1.1,
1,600,trial,0,40,40,40,trial,"['S', 'S', 'S', 'S', 'S', 'C', 'C', 'C', 'C', 'C', 'C', 'C', 'C', 'C', 'C', 'C', 'C', 'C', 'C', 'C', 'C']","[870435, 871086, 871718, 872317, 872949, 873574, 874128, 874717, 875339, 875954, 876589, 877224, 877844, 878440, 879082, 879699, 880314, 880951, 881540, 882138, 882782]","[870538, 871218, 871844, 872449, 873068, 873684, 874303, 874914, 875490, 876138, 876756, 877376, 878023, 878586, 879215, 879809, 880447, 881075, 881697, 882328, 882970]","[240, 128, 115, 114, 60, 238, 47, 163, 16, 14, 108, 57, 121, 91, 78, 101, 26, 123, 74, 153, 71]","[870482, 871150, 871784, 872384, 873006, 873621, 874232, 874808, 875406, 876029, 876670, 877286, 877933, 878510, 879151, 879764, 880375, 881012, 881634, 882213, 882868]","[868699, 869299, 869899, 870499, 871099, 871699, 872299, 872899, 873594, 874148, 874737, 875359, 875974, 876609, 877244, 877864, 878460, 879102, 879719, 880334, 880971, 881560, 882158, 882802]",84,EM,L,R,ITMSR,1.1,
0,400,trial,0,41,41,41,trial,"['S', 'S', 'S', 'S', 'C', 'C', 'C', 'C', 'C', 'C', 'C', 'C', 'C', 'C', 'C', 'C', 'C', 'C', 'C', 'C']","[890070, 890492, 890878, 891312, 891712, 892141, 892562, 892947, 893350, 893768, 894188, 894581, 895007, 895423, 895863, 896279, 896706, 897150, 897530, 897970]","[890150, 890587, 890990, 891426, 891800, 892238, 892637, 893033, 893425, 893870, 894283, 894689, 895114, 895525, 895975, 896371, 896818, 897263, 897588, 898020]","[116, 43, 239, 145, 110, 111, 54, 126, 13, 108, 74, 176, 236, 150, 156, 133, 14, 12, 59, 115]","[890107, 890541, 890938, 891374, 891749, 892197, 892595, 892982, 893384, 893824, 894235, 894637, 895065, 895484, 895925, 896333, 896764, 897209, 897560, 897999]","[888547, 888946, 889346, 889746, 890146, 890546, 890946, 891346, 891732, 892162, 892582, 892967, 893370, 893788, 894209, 894601, 895027, 895443, 895883, 896300, 896727, 897170, 897550, 897990]",84,EM,L,R,ITMSR,1.1,
4,600,trial,0,42,42,42,trial,"['S', 'S', 'S', 'S', 'S', 'S', 'S', 'C', 'C', 'C', 'C', 'C', 'C', 'C', 'C', 'C', 'C', 'C', 'C', 'C', 'C', 'C', 'C']","[904115, 904843, 905522, 906134, 906726, 907307, 907915, 908532, 909135, 909694, 910319, 910946, 911601, 912190, 912828, 913445, 914038, 914618, 915246, 915834, 916431, 917022, 917651]","[904201, 904950, 905632, 906260, 906853, 907424, 908044, 908670, 909250, 909846, 910485, 911118, 911726, 912323, 912957, 913584, 914160, 914794, 915376, 915992, 916548, 917206, 917794]","[44, 175, 219, 69, 167, 108, 201, 146, 251, 202, 40, 103, 95, 67, 142, 101, 209, 201, 14, 3, 219, 148, 90]","[904153, 904898, 905580, 906198, 906792, 907378, 907985, 908596, 909199, 909766, 910390, 911045, 911668, 912260, 912896, 913516, 914106, 914702, 915317, 915907, 916501, 917098, 917723]","[903731, 904331, 904931, 905531, 906131, 906731, 907331, 907931, 908552, 909155, 909714, 910339, 910966, 911621, 912210, 912848, 913465, 914058, 914638, 915266, 915854, 916451, 917042, 917671]",84,EM,L,R,ITMSR,1.1,
1,400,trial,0,43,43,43,trial,"['S', 'S', 'S', 'C', 'C', 'C', 'C', 'C', 'C', 'C', 'C', 'C', 'C', 'C', 'C', 'C', 'C', 'C', 'C']","[925107, 925518, 925948, 926358, 926759, 927182, 927622, 928040, 928455, 928832, 929230, 929672, 930063, 930462, 930874, 931293, 931714, 932148, 932538]","[925175, 925606, 926029, 926455, 926859, 927284, 927714, 928145, 928525, 928923, 929321, 929761, 930156, 930564, 930985, 931381, 931821, 932239, 932620]","[121, 21, 15, 28, 26, 64, 137, 98, 21, 83, 242, 244, 85, 252, 102, 83, 117, 49, 249]","[925137, 925571, 925981, 926410, 926766, 927240, 927628, 928047, 928490, 928871, 929268, 929729, 930119, 930514, 930945, 931345, 931775, 932186, 932574]","[923171, 923571, 923971, 924371, 924771, 925171, 925571, 925971, 926379, 926779, 927202, 927642, 928060, 928475, 928852, 929250, 929692, 930083, 930482, 930894, 931313, 931734, 932168, 932558]",84,EM,L,R,ITMSR,1.1,
3,400,trial,0,44,44,44,trial,"['S', 'S', 'S', 'S', 'S', 'S', 'C', 'C', 'C', 'C', 'C', 'C', 'C', 'C', 'C', 'C', 'C', 'C', 'C', 'C', 'C', 'C']","[938970, 939397, 939801, 940205, 940634, 941032, 941448, 941837, 942252, 942717, 943120, 943525, 943867, 944337, 944699, 945122, 945460, 945906, 946331, 946731, 947144, 947547]","[939059, 939476, 939886, 940302, 940732, 941124, 941539, 941906, 942336, 942781, 943191, 943550, 943932, 944390, 944781, 945162, 945534, 945970, 946386, 946817, 947214, 947617]","[2, 139, 8, 179, 125, 33, 7, 204, 47, 215, 248, 127, 179, 141, 202, 175, 202, 201, 219, 243, 197, 234]","[939015, 939402, 939836, 940259, 940691, 941069, 941485, 941873, 942258, 942746, 943153, 943534, 943903, 944342, 944704, 945125, 945464, 945910, 946336, 946733, 947148, 947551]","[938253, 938653, 939053, 939453, 939853, 940253, 940653, 941053, 941468, 941857, 942272, 942737, 943140, 943545, 943887, 944357, 944719, 945142, 945480, 945926, 946351, 946751, 947164, 947567]",84,EM,L,R,ITMSR,1.1,
4,400,trial,0,45,45,45,trial,"['S', 'S', 'S', 'S', 'S', 'S', 'S', 'C', 'C', 'C', 'C', 'C', 'C', 'C', 'C', 'C', 'C', 'C', 'C', 'C', 'C', 'C', 'C']","[953592, 953962, 954342, 954746, 955183, 955604, 955994, 956403, 956777, 957177, 957601, 957989, 958413, 958816, 959194, 959643, 960049, 960471, 960867, 961242, 961656, 962035, 962487]","[953686, 954058, 954444, 954876, 955294, 955705, 956090, 956502, 956868, 957267, 957684, 958085, 958495, 958887, 959300, 959749, 960159, 960581, 960962, 961355, 961752, 962135, 962576]","[64, 110, 58, 33, 30, 34, 20, 56, 5, 198, 255, 73, 206, 178, 139, 67, 246, 73, 184, 206, 53, 13, 65]","[953621, 953966, 954393, 954810, 955229, 955640, 956032, 956462, 956825, 957214, 957637, 958047, 958459, 958853, 959245, 959698, 960110, 960534, 960917, 961306, 961704, 962095, 962541]","[953180, 953580, 953980, 954380, 954780, 955181, 955581, 955981, 956423, 956797, 957197, 957621, 958009, 958433, 958836, 959214, 959663, 960069, 960491, 960887, 961262, 961676, 962055, 962507]",84,EM,L,R,ITMSR,1.1,
5,400,trial,0,46,46,46,trial,"['S', 'S', 'S', 'S', 'S', 'C', 'C', 'C', 'C', 'C', 'C', 'C', 'C', 'C', 'C', 'C', 'C', 'C', 'C', 'C', 'C']","[969094, 969515, 969893, 970289, 970688, 971112, 971520, 971962, 972361, 972768, 973148, 973568, 974003, 974363, 974796, 975155, 975575, 975954, 976361, 976772, 977185]","[969171, 969597, 970001, 970373, 970788, 971197, 971613, 972050, 972446, 972838, 973235, 973654, 974062, 974449, 974865, 975223, 975642, 976031, 976437, 976843, 977245]","[40, 93, 112, 225, 152, 15, 243, 203, 189, 162, 176, 209, 133, 84, 208, 188, 149, 170, 39, 28, 243]","[969128, 969550, 969955, 970317, 970739, 971161, 971572, 972013, 972407, 972802, 973150, 973616, 974007, 974419, 974833, 975191, 975579, 975998, 976399, 976805, 977214]","[967922, 968322, 968722, 969122, 969522, 969922, 970322, 970722, 971132, 971540, 971982, 972381, 972788, 973168, 973588, 974023, 974383, 974816, 975175, 975595, 975974, 976381, 976792, 977205]",84,EM,L,R,ITMSR,1.1,
5,600,trial,0,47,47,47,trial,"['S', 'S', 'S', 'S', 'S', 'S', 'C', 'C', 'C', 'C', 'C', 'C', 'C', 'C', 'C', 'C', 'C', 'C', 'C', 'C', 'C', 'C']","[983835, 984534, 985189, 985811, 986355, 987000, 987585, 988252, 988896, 989571, 990187, 990798, 991369, 991996, 992619, 993200, 993852, 994464, 994972, 995605, 996235, 996874]","[983958, 984670, 985329, 985927, 986462, 987097, 987700, 988356, 989004, 989664, 990307, 990923, 991480, 992104, 992738, 993326, 993974, 994561, 995088, 995719, 996327, 996936]","[90, 82, 255, 96, 26, 183, 98, 161, 92, 60, 81, 102, 20, 19, 145, 118, 85, 42, 176, 30, 148, 104]","[983897, 984595, 985262, 985863, 986420, 987031, 987654, 988300, 988963, 989619, 990255, 990862, 991436, 992047, 992683, 993262, 993922, 994524, 995037, 995680, 996264, 996911]","[982764, 983364, 983964, 984564, 985164, 985764, 986364, 986964, 987606, 988272, 988916, 989591, 990208, 990818, 991389, 992016, 992640, 993220, 993872, 994484, 994992, 995625, 996255, 996894]",84,EM,L,R,ITMSR,1.1,
3,400,trial,0,48,48,48,trial,"['S', 'S', 'S', 'S', 'C', 'C', 'C', 'C', 'C', 'C', 'C', 'C', 'C', 'C', 'C', 'C', 'C', 'C', 'C', 'C']","[1003777, 1004219, 1004645, 1005061, 1005469, 1005883, 1006301, 1006685, 1007120, 1007547, 1007927, 1008338, 1008733, 1009153, 1009596, 1009990, 1010395, 1010816, 1011224, 1011637]","[1003870, 1004313, 1004715, 1005133, 1005554, 1005956, 1006362, 1006765, 1007200, 1007617, 1008019, 1008429, 1008805, 1009236, 1009637, 1010057, 1010469, 1010899, 1011284, 1011737]","[249, 219, 188, 163, 178, 181, 190, 199, 232, 190, 209, 219, 186, 160, 49, 155, 171, 170, 79, 117]","[1003822, 1004274, 1004649, 1005096, 1005518, 1005886, 1006305, 1006688, 1007166, 1007550, 1007981, 1008340, 1008737, 1009156, 1009600, 1009993, 1010399, 1010818, 1011257, 1011681]","[1002269, 1002669, 1003069, 1003469, 1003869, 1004269, 1004669, 1005069, 1005489, 1005903, 1006321, 1006705, 1007140, 1007567, 1007947, 1008358, 1008753, 1009173, 1009616, 1010010, 1010415, 1010836, 1011245, 1011657]",84,EM,L,R,ITMSR,1.1,
3,600,trial,0,49,49,49,trial,"['S', 'S', 'S', 'S', 'S', 'S', 'C', 'C', 'C', 'C', 'C', 'C', 'C', 'C', 'C', 'C', 'C', 'C', 'C', 'C', 'C', 'C']","[1018568, 1019182, 1019777, 1020434, 1021052, 1021672, 1022253, 1022879, 1023455, 1024059, 1024617, 1025187, 1025810, 1026460, 1027057, 1027673, 1028278, 1028926, 1029563, 1030208, 1030842, 1031484]","[1018696, 1019297, 1019897, 1020557, 1021186, 1021779, 1022367, 1023005, 1023568, 1024164, 1024712, 1025304, 1025942, 1026568, 1027179, 1027785, 1028397, 1029037, 1029680, 1030324, 1030926, 1031575]","[251, 248, 86, 203, 52, 196, 240, 23, 155, 125, 115, 218, 79, 133, 126, 129, 191, 108, 1, 80, 228, 220]","[1018639, 1019248, 1019845, 1020495, 1021122, 1021725, 1022320, 1022950, 1023460, 1024064, 1024643, 1025254, 1025882, 1026525, 1027122, 1027718, 1028340, 1028988, 1029633, 1030272, 1030893, 1031532]","[1017352, 1017952, 1018552, 1019152, 1019752, 1020352, 1020952, 1021552, 1022273, 1022899, 1023475, 1024079, 1024637, 1025207, 1025830, 1026480, 1027077, 1027693, 1028298, 1028946, 1029583, 1030228, 1030862, 1031504]",84,EM,L,R,ITMSR,1.1,
1,600,trial,0,50,50,50,trial,"['S', 'S', 'S', 'S', 'S', 'S', 'S', 'C', 'C', 'C', 'C', 'C', 'C', 'C', 'C', 'C', 'C', 'C', 'C', 'C', 'C', 'C', 'C']","[1037639, 1038285, 1038963, 1039589, 1040162, 1040726, 1041326, 1041949, 1042578, 1043164, 1043738, 1044325, 1044916, 1045539, 1046137, 1046738, 1047357, 1048015, 1048620, 1049218, 1049824, 1050401, 1051010]","[1037730, 1038400, 1039066, 1039689, 1040268, 1040839, 1041459, 1042060, 1042690, 1043267, 1043866, 1044439, 1045037, 1045641, 1046251, 1046844, 1047471, 1048129, 1048722, 1049337, 1049945, 1050526, 1051110]","[135, 227, 0, 209, 252, 154, 243, 250, 250, 125, 253, 214, 226, 215, 217, 164, 232, 202, 159, 209, 211, 237, 119]","[1037678, 1038343, 1039010, 1039639, 1040220, 1040788, 1041396, 1042010, 1042641, 1043167, 1043809, 1044383, 1044987, 1045595, 1046199, 1046803, 1047416, 1048082, 1048678, 1049286, 1049887, 1050468, 1051039]","[1037180, 1037780, 1038381, 1038981, 1039581, 1040181, 1040781, 1041381, 1041969, 1042598, 1043184, 1043758, 1044345, 1044936, 1045559, 1046157, 1046758, 1047377, 1048035, 1048640, 1049238, 1049844, 1050421, 1051030]",84,EM,L,R,ITMSR,1.1,
2,400,trial,0,51,51,51,trial,"['S', 'S', 'S', 'S', 'S', 'C', 'C', 'C', 'C', 'C', 'C', 'C', 'C', 'C', 'C', 'C', 'C', 'C', 'C', 'C', 'C']","[1057530, 1057961, 1058369, 1058793, 1059186, 1059619, 1060019, 1060451, 1060842, 1061250, 1061640, 1062048, 1062445, 1062828, 1063251, 1063642, 1064068, 1064488, 1064852, 1065294, 1065668]","[1057613, 1058025, 1058460, 1058882, 1059280, 1059700, 1060096, 1060504, 1060911, 1061298, 1061696, 1062104, 1062521, 1062910, 1063314, 1063718, 1064142, 1064523, 1064932, 1065337, 1065725]","[14, 219, 252, 229, 234, 148, 132, 109, 137, 83, 109, 138, 150, 121, 119, 131, 128, 107, 128, 64, 61]","[1057572, 1057996, 1058417, 1058839, 1059241, 1059670, 1060048, 1060478, 1060846, 1061282, 1061679, 1062051, 1062486, 1062832, 1063279, 1063646, 1064070, 1064511, 1064855, 1065320, 1065703]","[1056437, 1056837, 1057238, 1057637, 1058037, 1058437, 1058837, 1059237, 1059639, 1060039, 1060471, 1060862, 1061270, 1061660, 1062068, 1062465, 1062848, 1063271, 1063662, 1064088, 1064508, 1064872, 1065314, 1065688]",84,EM,L,R,ITMSR,1.1,
4,600,trial,0,52,52,52,trial,"['S', 'S', 'S', 'S', 'S', 'S', 'C', 'C', 'C', 'C', 'C', 'C', 'C', 'C', 'C', 'C', 'C', 'C', 'C', 'C', 'C', 'C']","[1072160, 1072809, 1073477, 1074063, 1074646, 1075255, 1075883, 1076453, 1077057, 1077637, 1078264, 1078863, 1079482, 1080096, 1080711, 1081315, 1081914, 1082486, 1083138, 1083741, 1084366, 1084957]","[1072237, 1072927, 1073591, 1074170, 1074757, 1075367, 1075995, 1076576, 1077177, 1077761, 1078374, 1078980, 1079587, 1080203, 1080845, 1081437, 1082005, 1082604, 1083246, 1083855, 1084469, 1085057]","[210, 154, 111, 236, 243, 52, 198, 254, 205, 227, 150, 127, 94, 117, 123, 125, 113, 64, 175, 128, 123, 63]","[1072199, 1072874, 1073536, 1074126, 1074713, 1075318, 1075950, 1076516, 1077123, 1077710, 1078318, 1078890, 1079513, 1080132, 1080716, 1081340, 1081918, 1082510, 1083196, 1083745, 1084395, 1085012]","[1071077, 1071677, 1072277, 1072877, 1073477, 1074077, 1074677, 1075277, 1075903, 1076473, 1077078, 1077657, 1078284, 1078883, 1079502, 1080116, 1080731, 1081335, 1081934, 1082506, 1083158, 1083761, 1084386, 1084977]",84,EM,L,R,ITMSR,1.1,
2,400,trial,0,53,53,53,trial,"['S', 'S', 'S', 'S', 'S', 'S', 'S', 'C', 'C', 'C', 'C', 'C', 'C', 'C', 'C', 'C', 'C', 'C', 'C', 'C', 'C', 'C', 'C']","[1091109, 1091451, 1091816, 1092191, 1092596, 1093021, 1093423, 1093809, 1094197, 1094610, 1095015, 1095402, 1095795, 1096223, 1096654, 1097015, 1097439, 1097822, 1098240, 1098660, 1099073, 1099479, 1099939]","[1091220, 1091522, 1091869, 1092287, 1092704, 1093117, 1093514, 1093893, 1094297, 1094686, 1095094, 1095454, 1095847, 1096302, 1096679, 1097066, 1097485, 1097868, 1098319, 1098728, 1099145, 1099536, 1100008]","[69, 176, 175, 238, 169, 183, 121, 124, 134, 125, 134, 59, 57, 118, 46, 111, 66, 52, 71, 67, 72, 52, 77]","[1091161, 1091493, 1091845, 1092240, 1092653, 1093053, 1093441, 1093836, 1094220, 1094636, 1095041, 1095432, 1095829, 1096248, 1096667, 1097017, 1097459, 1097835, 1098241, 1098662, 1099075, 1099504, 1099941]","[1090631, 1091032, 1091432, 1091832, 1092232, 1092632, 1093032, 1093432, 1093829, 1094217, 1094630, 1095035, 1095422, 1095815, 1096243, 1096674, 1097035, 1097459, 1097842, 1098260, 1098680, 1099094, 1099499, 1099959]",84,EM,L,R,ITMSR,1.1,
2,600,trial,0,54,54,54,trial,"['S', 'S', 'S', 'S', 'S', 'S', 'C', 'C', 'C', 'C', 'C', 'C', 'C', 'C', 'C', 'C', 'C', 'C', 'C', 'C', 'C', 'C']","[1116789, 1117342, 1117995, 1118597, 1119194, 1119783, 1120408, 1121045, 1121647, 1122259, 1122871, 1123510, 1124137, 1124763, 1125381, 1126037, 1126672, 1127271, 1127883, 1128505, 1129151, 1129763]","[1116911, 1117485, 1118131, 1118748, 1119339, 1119918, 1120556, 1121190, 1121783, 1122397, 1123010, 1123647, 1124304, 1124953, 1125541, 1126189, 1126833, 1127451, 1128060, 1128680, 1129296, 1129918]","[182, 92, 99, 115, 82, 35, 48, 7, 100, 21, 56, 112, 243, 221, 214, 244, 244, 4, 219, 15, 1, 164]","[1116856, 1117404, 1118060, 1118669, 1119265, 1119851, 1120480, 1121120, 1121712, 1122334, 1122950, 1123591, 1124233, 1124874, 1125466, 1126107, 1126757, 1127368, 1127979, 1128590, 1129225, 1129856]","[1115472, 1116072, 1116673, 1117272, 1117872, 1118472, 1119072, 1119672, 1120429, 1121065, 1121667, 1122279, 1122891, 1123530, 1124157, 1124783, 1125401, 1126057, 1126692, 1127291, 1127903, 1128525, 1129171, 1129783]",84,EM,L,R,ITMSR,1.1,
3,400,trial,0,55,55,55,trial,"['S', 'S', 'S', 'S', 'S', 'S', 'S', 'C', 'C', 'C', 'C', 'C', 'C', 'C', 'C', 'C', 'C', 'C', 'C', 'C', 'C', 'C', 'C']","[1135588, 1135910, 1136221, 1136617, 1137050, 1137459, 1137886, 1138248, 1138652, 1139060, 1139460, 1139861, 1140272, 1140661, 1141062, 1141470, 1141861, 1142301, 1142668, 1143068, 1143465, 1143829, 1144244]","[1135682, 1136006, 1136318, 1136720, 1137154, 1137568, 1137989, 1138338, 1138748, 1139140, 1139557, 1139943, 1140372, 1140750, 1141152, 1141554, 1141955, 1142376, 1142728, 1143146, 1143563, 1143953, 1144339]","[219, 255, 210, 232, 242, 241, 243, 218, 240, 115, 165, 174, 148, 222, 138, 97, 157, 176, 112, 132, 76, 205, 71]","[1135624, 1135952, 1136272, 1136650, 1137106, 1137514, 1137932, 1138278, 1138708, 1139064, 1139496, 1139895, 1140325, 1140708, 1141111, 1141498, 1141910, 1142335, 1142699, 1143100, 1143529, 1143906, 1144296]","[1135094, 1135494, 1135894, 1136294, 1136694, 1137094, 1137495, 1137894, 1138268, 1138672, 1139080, 1139480, 1139881, 1140292, 1140681, 1141082, 1141490, 1141881, 1142321, 1142688, 1143088, 1143485, 1143849, 1144264]",84,EM,L,R,ITMSR,1.1,
2,400,trial,0,56,56,56,trial,"['S', 'S', 'S', 'S', 'S', 'S', 'C', 'C', 'C', 'C', 'C', 'C', 'C', 'C', 'C', 'C', 'C', 'C', 'C', 'C', 'C', 'C']","[1150730, 1151091, 1151506, 1151944, 1152325, 1152748, 1153144, 1153537, 1153923, 1154323, 1154692, 1155109, 1155496, 1155888, 1156303, 1156704, 1157082, 1157482, 1157883, 1158300, 1158704, 1159090]","[1150787, 1151182, 1151619, 1152033, 1152449, 1152869, 1153265, 1153655, 1154028, 1154400, 1154761, 1155208, 1155596, 1156003, 1156410, 1156798, 1157177, 1157584, 1157978, 1158390, 1158781, 1159166]","[7, 8, 0, 39, 18, 182, 226, 18, 207, 43, 207, 169, 91, 156, 150, 136, 99, 177, 106, 142, 16, 139]","[1150753, 1151136, 1151566, 1151992, 1152381, 1152805, 1153202, 1153594, 1153968, 1154352, 1154714, 1155163, 1155549, 1155942, 1156354, 1156734, 1157129, 1157527, 1157933, 1158333, 1158736, 1159118]","[1150001, 1150401, 1150801, 1151201, 1151601, 1152002, 1152402, 1152802, 1153164, 1153557, 1153943, 1154343, 1154712, 1155129, 1155516, 1155908, 1156323, 1156724, 1157102, 1157502, 1157903, 1158320, 1158724, 1159110]",84,EM,L,R,ITMSR,1.1,
3,600,trial,0,57,57,57,trial,"['S', 'S', 'S', 'S', 'S', 'S', 'C', 'C', 'C', 'C', 'C', 'C', 'C', 'C', 'C', 'C', 'C', 'C', 'C', 'C', 'C', 'C']","[1165858, 1166490, 1167082, 1167687, 1168293, 1168918, 1169559, 1170149, 1170753, 1171377, 1172016, 1172655, 1173338, 1173933, 1174511, 1175161, 1175825, 1176440, 1177057, 1177655, 1178327, 1178911]","[1165945, 1166580, 1167194, 1167801, 1168404, 1169015, 1169654, 1170291, 1170894, 1171488, 1172100, 1172738, 1173429, 1174029, 1174612, 1175264, 1175942, 1176554, 1177166, 1177752, 1178431, 1179024]","[107, 158, 125, 137, 53, 191, 135, 204, 24, 111, 124, 129, 112, 108, 105, 107, 111, 206, 129, 111, 112, 82]","[1165892, 1166533, 1167137, 1167742, 1168352, 1168943, 1169605, 1170232, 1170833, 1171434, 1172043, 1172688, 1173366, 1173938, 1174515, 1175165, 1175878, 1176494, 1177097, 1177680, 1178388, 1178975]","[1164733, 1165333, 1165933, 1166533, 1167133, 1167733, 1168333, 1168933, 1169580, 1170169, 1170774, 1171397, 1172036, 1172675, 1173358, 1173953, 1174531, 1175181, 1175845, 1176460, 1177077, 1177675, 1178347, 1178931]",84,EM,L,R,ITMSR,1.1,
0,400,trial,0,58,58,58,trial,"['S', 'S', 'S', 'S', 'S', 'S', 'S', 'C', 'C', 'C', 'C', 'C', 'C', 'C', 'C', 'C', 'C', 'C', 'C', 'C', 'C', 'C', 'C']","[1184855, 1185196, 1185494, 1185833, 1186246, 1186661, 1187049, 1187449, 1187841, 1188257, 1188611, 1189011, 1189403, 1189808, 1190205, 1190626, 1191000, 1191412, 1191815, 1192193, 1192614, 1192987, 1193417]","[1184954, 1185287, 1185586, 1185945, 1186339, 1186756, 1187148, 1187547, 1187937, 1188335, 1188707, 1189083, 1189464, 1189889, 1190284, 1190697, 1191078, 1191480, 1191835, 1192260, 1192671, 1193048, 1193453]","[109, 48, 21, 95, 16, 232, 191, 166, 146, 171, 98, 202, 130, 233, 154, 148, 27, 196, 77, 207, 184, 139, 115]","[1184909, 1185247, 1185545, 1185897, 1186296, 1186714, 1187099, 1187508, 1187899, 1188295, 1188663, 1189045, 1189435, 1189854, 1190254, 1190670, 1191047, 1191449, 1191818, 1192232, 1192643, 1193027, 1193437]","[1184309, 1184709, 1185110, 1185509, 1185909, 1186309, 1186709, 1187109, 1187469, 1187861, 1188277, 1188631, 1189031, 1189423, 1189828, 1190225, 1190646, 1191020, 1191432, 1191835, 1192213, 1192634, 1193007, 1193437]",84,EM,L,R,ITMSR,1.1,
3,400,trial,0,59,59,59,trial,"['S', 'S', 'S', 'S', 'S', 'S', 'C', 'C', 'C', 'C', 'C', 'C', 'C', 'C', 'C', 'C', 'C', 'C', 'C', 'C', 'C', 'C']","[1199618, 1199906, 1200282, 1200693, 1201118, 1201466, 1201887, 1202279, 1202667, 1203060, 1203454, 1203881, 1204260, 1204649, 1205054, 1205449, 1205826, 1206258, 1206674, 1207091, 1207457, 1207879]","[1199715, 1200014, 1200371, 1200791, 1201183, 1201573, 1201967, 1202381, 1202761, 1203150, 1203546, 1203918, 1204352, 1204751, 1205127, 1205543, 1205934, 1206348, 1206776, 1207177, 1207541, 1207966]","[0, 179, 126, 0, 170, 128, 10, 110, 82, 31, 57, 165, 37, 85, 125, 99, 206, 152, 178, 147, 19, 16]","[1199662, 1199960, 1200311, 1200749, 1201156, 1201515, 1201932, 1202335, 1202718, 1203113, 1203510, 1203893, 1204316, 1204707, 1205104, 1205505, 1205894, 1206310, 1206731, 1207144, 1207510, 1207923]","[1198768, 1199167, 1199567, 1199967, 1200367, 1200768, 1201167, 1201567, 1201907, 1202299, 1202688, 1203080, 1203474, 1203901, 1204280, 1204669, 1205074, 1205469, 1205847, 1206278, 1206694, 1207111, 1207477, 1207899]",84,EM,L,R,ITMSR,1.1,
5,600,trial,0,60,60,60,trial,"['S', 'S', 'S', 'S', 'S', 'S', 'S', 'C', 'C', 'C', 'C', 'C', 'C', 'C', 'C', 'C', 'C', 'C', 'C', 'C', 'C', 'C', 'C', 'C']","[1213550, 1214298, 1214942, 1215562, 1216198, 1216827, 1217417, 1218029, 1218648, 1219280, 1219908, 1220541, 1221165, 1221795, 1222435, 1223073, 1223759, 1224312, 1224906, 1225006, 1225551, 1226167, 1226831, 1227482]","[1213642, 1214396, 1215062, 1215694, 1216317, 1216923, 1217521, 1218150, 1218742, 1219373, 1220002, 1220663, 1221298, 1221932, 1222566, 1223216, 1223892, 1224437, 1224926, 1225048, 1225691, 1226339, 1226933, 1227596]","[26, 193, 49, 223, 95, 90, 230, 88, 3, 60, 57, 24, 35, 24, 225, 170, 179, 65, 43, 78, 22, 176, 48, 58]","[1213593, 1214353, 1215001, 1215630, 1216253, 1216854, 1217471, 1218087, 1218699, 1219284, 1219942, 1220621, 1221236, 1221873, 1222513, 1223146, 1223835, 1224390, 1224909, 1225006, 1225636, 1226246, 1226844, 1227532]","[1213223, 1213824, 1214424, 1215024, 1215624, 1216224, 1216824, 1217424, 1218050, 1218668, 1219300, 1219928, 1220561, 1221185, 1221815, 1222455, 1223093, 1223779, 1224332, 1224926, 1225571, 1226187, 1226851, 1227502]",84,EM,L,R,ITMSR,1.1,
5,600,trial,0,61,61,61,trial,"['S', 'S', 'S', 'S', 'S', 'C', 'C', 'C', 'C', 'C', 'C', 'C', 'C', 'C', 'C', 'C', 'C', 'C', 'C', 'C', 'C']","[1234560, 1235191, 1235781, 1236392, 1236992, 1237600, 1238224, 1238842, 1239429, 1240011, 1240609, 1241194, 1241790, 1242413, 1243003, 1243626, 1244266, 1244904, 1245555, 1246147, 1246781]","[1234658, 1235307, 1235899, 1236533, 1237131, 1237751, 1238366, 1238969, 1239584, 1240167, 1240737, 1241369, 1241958, 1242569, 1243190, 1243865, 1244475, 1245094, 1245750, 1246328, 1246965]","[4, 139, 9, 244, 190, 36, 129, 25, 231, 45, 210, 68, 190, 200, 1, 7, 229, 212, 137, 242, 207]","[1234606, 1235254, 1235836, 1236465, 1237061, 1237673, 1238292, 1238900, 1239504, 1240090, 1240673, 1241287, 1241867, 1242491, 1243102, 1243718, 1244358, 1245001, 1245657, 1246244, 1246870]","[1232804, 1233404, 1234004, 1234605, 1235205, 1235805, 1236405, 1237005, 1237620, 1238244, 1238862, 1239449, 1240031, 1240629, 1241214, 1241810, 1242433, 1243023, 1243646, 1244286, 1244924, 1245575, 1246168, 1246801]",84,EM,L,R,ITMSR,1.1,
4,600,trial,0,62,62,62,trial,"['S', 'S', 'S', 'S', 'S', 'S', 'C', 'C', 'C', 'C', 'C', 'C', 'C', 'C', 'C', 'C', 'C', 'C', 'C', 'C', 'C', 'C']","[1253569, 1254193, 1254831, 1255415, 1256007, 1256645, 1257269, 1257877, 1258430, 1259002, 1259595, 1260157, 1260768, 1261337, 1261968, 1262589, 1263180, 1263777, 1264413, 1265079, 1265703, 1266320]","[1253690, 1254333, 1254988, 1255596, 1256159, 1256804, 1257412, 1258023, 1258607, 1259167, 1259756, 1260340, 1260930, 1261513, 1262140, 1262770, 1263384, 1263948, 1264563, 1265233, 1265872, 1266469]","[99, 84, 89, 98, 70, 74, 30, 52, 249, 241, 240, 184, 221, 176, 179, 0, 192, 121, 138, 77, 146, 100]","[1253625, 1254263, 1254909, 1255499, 1256076, 1256723, 1257351, 1257946, 1258515, 1259076, 1259672, 1260252, 1260852, 1261419, 1262052, 1262662, 1263290, 1263859, 1264486, 1265154, 1265797, 1266392]","[1252448, 1253048, 1253648, 1254248, 1254848, 1255448, 1256048, 1256648, 1257289, 1257897, 1258450, 1259022, 1259615, 1260177, 1260788, 1261357, 1261988, 1262609, 1263200, 1263797, 1264433, 1265099, 1265723, 1266340]",84,EM,L,R,ITMSR,1.1,
1,600,trial,0,63,63,63,trial,"['S', 'S', 'S', 'S', 'S', 'C', 'C', 'C', 'C', 'C', 'C', 'C', 'C', 'C', 'C', 'C', 'C', 'C', 'C', 'C', 'C']","[1273761, 1274412, 1275043, 1275617, 1276201, 1276822, 1277452, 1278069, 1278671, 1279237, 1279822, 1280434, 1281045, 1281656, 1282267, 1282890, 1283494, 1284096, 1284682, 1285307, 1285945]","[1273848, 1274512, 1275158, 1275762, 1276365, 1276950, 1277601, 1278214, 1278824, 1279414, 1280006, 1280587, 1281230, 1281832, 1282477, 1283065, 1283692, 1284289, 1284882, 1285498, 1286117]","[90, 136, 148, 63, 42, 187, 167, 192, 115, 236, 210, 161, 32, 197, 181, 249, 5, 35, 245, 138, 233]","[1273803, 1274462, 1275094, 1275681, 1276275, 1276882, 1277534, 1278141, 1278756, 1279319, 1279901, 1280501, 1281136, 1281741, 1282350, 1282980, 1283588, 1284210, 1284781, 1285407, 1286020]","[1272011, 1272611, 1273211, 1273811, 1274412, 1275011, 1275611, 1276211, 1276843, 1277472, 1278089, 1278691, 1279257, 1279842, 1280454, 1281065, 1281676, 1282287, 1282910, 1283514, 1284116, 1284702, 1285327, 1285965]",84,EM,L,R,ITMSR,1.1,
1,400,trial,0,64,64,64,trial,"['S', 'S', 'S', 'S', 'S', 'S', 'C', 'C', 'C', 'C', 'C', 'C', 'C', 'C', 'C', 'C', 'C', 'C', 'C', 'C', 'C', 'C']","[1292425, 1292796, 1293217, 1293607, 1294023, 1294417, 1294838, 1295256, 1295671, 1296056, 1296436, 1296852, 1297239, 1297643, 1298056, 1298482, 1298850, 1299272, 1299647, 1300091, 1300482, 1300894]","[1292507, 1292907, 1293330, 1293731, 1294143, 1294542, 1294960, 1295372, 1295791, 1296178, 1296558, 1296973, 1297351, 1297774, 1298183, 1298601, 1298972, 1299390, 1299776, 1300176, 1300579, 1301000]","[118, 25, 34, 26, 249, 33, 47, 1, 227, 61, 155, 190, 193, 183, 211, 129, 190, 175, 100, 129, 187, 25]","[1292467, 1292848, 1293280, 1293650, 1294082, 1294475, 1294900, 1295312, 1295727, 1296120, 1296496, 1296903, 1297300, 1297708, 1298114, 1298538, 1298912, 1299328, 1299709, 1300092, 1300521, 1300945]","[1291671, 1292071, 1292471, 1292871, 1293272, 1293672, 1294072, 1294472, 1294858, 1295277, 1295691, 1296076, 1296456, 1296872, 1297259, 1297664, 1298076, 1298502, 1298870, 1299292, 1299667, 1300111, 1300502, 1300914]",84,EM,L,R,ITMSR,1.1,
1,400,trial,0,65,65,65,trial,"['S', 'S', 'S', 'S', 'C', 'C', 'C', 'C', 'C', 'C', 'C', 'C', 'C', 'C', 'C', 'C', 'C', 'C', 'C', 'C']","[1308200, 1308600, 1309003, 1309391, 1309793, 1310192, 1310576, 1310976, 1311397, 1311750, 1312144, 1312529, 1312907, 1313296, 1313682, 1314108, 1314480, 1314885, 1315248, 1315650]","[1308308, 1308730, 1309135, 1309546, 1309926, 1310314, 1310701, 1311120, 1311510, 1311870, 1312258, 1312645, 1313017, 1313390, 1313782, 1314205, 1314593, 1314996, 1315319, 1315747]","[98, 123, 56, 58, 84, 51, 22, 33, 108, 243, 126, 169, 191, 101, 112, 217, 214, 171, 33, 150]","[1308256, 1308668, 1309072, 1309462, 1309851, 1310255, 1310643, 1311052, 1311461, 1311817, 1312206, 1312592, 1312966, 1313350, 1313735, 1314153, 1314538, 1314950, 1315281, 1315701]","[1306656, 1307056, 1307456, 1307856, 1308256, 1308656, 1309057, 1309456, 1309813, 1310212, 1310596, 1310996, 1311417, 1311770, 1312164, 1312549, 1312927, 1313316, 1313702, 1314128, 1314500, 1314905, 1315268, 1315671]",84,EM,L,R,ITMSR,1.1,
0,600,trial,0,66,66,66,trial,"['S', 'S', 'S', 'S', 'S', 'S', 'C', 'C', 'C', 'C', 'C', 'C', 'C', 'C', 'C', 'C', 'C', 'C', 'C', 'C', 'C', 'C']","[1322549, 1323212, 1323824, 1324417, 1325064, 1325603, 1326241, 1326839, 1327410, 1327959, 1328559, 1329181, 1329822, 1330458, 1331077, 1331699, 1332285, 1332902, 1333505, 1334158, 1334749, 1335359]","[1322685, 1323327, 1323943, 1324553, 1325198, 1325751, 1326377, 1326964, 1327559, 1328120, 1328708, 1329332, 1329975, 1330583, 1331214, 1331848, 1332363, 1332986, 1333648, 1334285, 1334868, 1335469]","[94, 28, 236, 203, 205, 249, 3, 137, 94, 202, 224, 255, 212, 169, 116, 189, 212, 232, 138, 126, 49, 62]","[1322615, 1323271, 1323882, 1324482, 1325134, 1325678, 1326309, 1326909, 1327482, 1328051, 1328635, 1329250, 1329909, 1330520, 1331144, 1331774, 1332331, 1332937, 1333574, 1334221, 1334812, 1335419]","[1321404, 1322003, 1322603, 1323203, 1323803, 1324403, 1325003, 1325603, 1326261, 1326859, 1327430, 1327979, 1328579, 1329201, 1329842, 1330478, 1331097, 1331719, 1332305, 1332922, 1333525, 1334178, 1334769, 1335379]",84,EM,L,R,ITMSR,1.1,
4,400,trial,0,67,67,67,trial,"['S', 'S', 'S', 'S', 'S', 'S', 'S', 'C', 'C', 'C', 'C', 'C', 'C', 'C', 'C', 'C', 'C', 'C', 'C', 'C', 'C', 'C', 'C']","[1341491, 1341888, 1342281, 1342702, 1343067, 1343492, 1343872, 1344266, 1344673, 1345041, 1345451, 1345841, 1346246, 1346631, 1347032, 1347469, 1347897, 1348355, 1348745, 1349155, 1349582, 1349934, 1350384]","[1341643, 1342000, 1342403, 1342813, 1343195, 1343614, 1343973, 1344360, 1344763, 1345123, 1345549, 1345929, 1346333, 1346727, 1347147, 1347554, 1348007, 1348461, 1348838, 1349261, 1349680, 1350053, 1350482]","[224, 187, 226, 169, 78, 153, 95, 57, 251, 244, 101, 44, 17, 87, 127, 233, 98, 128, 68, 35, 21, 95, 56]","[1341563, 1341943, 1342338, 1342757, 1343135, 1343551, 1343922, 1344316, 1344723, 1345089, 1345507, 1345888, 1346291, 1346682, 1347095, 1347518, 1347958, 1348413, 1348793, 1349213, 1349638, 1349998, 1350436]","[1341156, 1341556, 1341956, 1342356, 1342756, 1343156, 1343556, 1343956, 1344286, 1344693, 1345061, 1345471, 1345861, 1346266, 1346651, 1347052, 1347489, 1347917, 1348375, 1348765, 1349175, 1349602, 1349954, 1350404]",84,EM,L,R,ITMSR,1.1,
4,400,trial,0,68,68,68,trial,"['S', 'S', 'S', 'S', 'C', 'C', 'C', 'C', 'C', 'C', 'C', 'C', 'C', 'C', 'C', 'C', 'C', 'C', 'C', 'C']","[1357630, 1358044, 1358460, 1358868, 1359302, 1359720, 1360128, 1360498, 1360912, 1361326, 1361713, 1362169, 1362541, 1362970, 1363342, 1363756, 1364175, 1364628, 1364923, 1387990]","[1357724, 1358139, 1358552, 1358977, 1359397, 1359827, 1360216, 1360601, 1361033, 1361434, 1361817, 1362221, 1362610, 1362996, 1363407, 1363815, 1364238, 1364669, 1365007, 1388098]","[22, 1, 224, 115, 124, 119, 47, 171, 162, 147, 101, 119, 127, 76, 211, 123, 217, 88, 195, 139]","[1357672, 1358095, 1358500, 1358914, 1359354, 1359772, 1360175, 1360553, 1360975, 1361380, 1361762, 1362194, 1362585, 1362980, 1363377, 1363784, 1364205, 1364645, 1364958, 1388015]","[1356155, 1356555, 1356955, 1357356, 1357755, 1358155, 1358555, 1358955, 1359322, 1359740, 1360148, 1360518, 1360932, 1361346, 1361733, 1362189, 1362562, 1362990, 1363362, 1363776, 1364195, 1364648, 1364943, 1388010]",84,EM,L,R,ITMSR,1.1,
5,400,trial,0,69,69,69,trial,"['S', 'S', 'S', 'S', 'C', 'C', 'C', 'C', 'C', 'C', 'C', 'C', 'C', 'C', 'C', 'C', 'C', 'C', 'C', 'C']","[1394892, 1395284, 1395667, 1396148, 1396560, 1396952, 1397374, 1397794, 1398154, 1398535, 1398918, 1399326, 1399716, 1400120, 1400541, 1400947, 1401326, 1401721, 1402113, 1402516]","[1394998, 1395376, 1395785, 1396247, 1396670, 1397060, 1397488, 1397890, 1398242, 1398642, 1399031, 1399431, 1399829, 1400233, 1400646, 1401047, 1401437, 1401804, 1402215, 1402600]","[83, 67, 41, 176, 2, 220, 2, 183, 136, 187, 5, 89, 189, 132, 138, 142, 149, 179, 216, 132]","[1394948, 1395336, 1395736, 1396199, 1396616, 1397004, 1397436, 1397847, 1398183, 1398584, 1398976, 1399359, 1399767, 1400161, 1400597, 1400982, 1401378, 1401765, 1402165, 1402545]","[1393395, 1393795, 1394195, 1394595, 1394995, 1395395, 1395795, 1396195, 1396580, 1396972, 1397394, 1397814, 1398174, 1398555, 1398938, 1399346, 1399736, 1400140, 1400561, 1400967, 1401346, 1401741, 1402133, 1402536]",84,EM,L,R,ITMSR,1.1,
0,400,trial,0,70,70,70,trial,"['S', 'S', 'S', 'S', 'S', 'S', 'C', 'C', 'C', 'C', 'C', 'C', 'C', 'C', 'C', 'C', 'C', 'C', 'C', 'C', 'C', 'C']","[1408946, 1409328, 1409718, 1410099, 1410518, 1410950, 1411348, 1411724, 1412136, 1412533, 1412925, 1413316, 1413691, 1414099, 1414518, 1414923, 1415284, 1415690, 1416076, 1416477, 1416875, 1417291]","[1409018, 1409436, 1409815, 1410201, 1410613, 1411057, 1411453, 1411850, 1412239, 1412626, 1413020, 1413431, 1413820, 1414214, 1414608, 1415026, 1415369, 1415793, 1416159, 1416576, 1416966, 1417405]","[48, 47, 29, 153, 93, 238, 227, 124, 37, 179, 211, 103, 129, 117, 164, 247, 85, 236, 202, 140, 213, 186]","[1408972, 1409389, 1409766, 1410150, 1410569, 1411021, 1411405, 1411791, 1412192, 1412582, 1412958, 1413379, 1413754, 1414161, 1414565, 1414981, 1415333, 1415738, 1416126, 1416527, 1416922, 1417344]","[1408160, 1408560, 1408960, 1409360, 1409760, 1410160, 1410561, 1410960, 1411368, 1411744, 1412156, 1412553, 1412945, 1413336, 1413711, 1414119, 1414538, 1414943, 1415304, 1415710, 1416096, 1416497, 1416895, 1417311]",84,EM,L,R,ITMSR,1.1,
3,600,trial,0,71,71,71,trial,"['S', 'S', 'S', 'S', 'S', 'S', 'C', 'C', 'C', 'C', 'C', 'C', 'C', 'C', 'C', 'C', 'C', 'C', 'C', 'C', 'C', 'C']","[1423961, 1424584, 1425202, 1425833, 1426408, 1427003, 1427574, 1428168, 1428765, 1429338, 1429978, 1430604, 1431191, 1431827, 1432415, 1432994, 1433607, 1434238, 1434827, 1435523, 1436098, 1436752]","[1424097, 1424748, 1425360, 1425982, 1426549, 1427140, 1427714, 1428297, 1428914, 1429473, 1430090, 1430734, 1431326, 1431925, 1432541, 1433112, 1433738, 1434375, 1434963, 1435558, 1436256, 1436898]","[149, 98, 101, 128, 23, 128, 152, 237, 5, 174, 76, 244, 81, 213, 48, 59, 171, 161, 86, 18, 183, 246]","[1424021, 1424657, 1425268, 1425905, 1426475, 1427076, 1427637, 1428232, 1428834, 1429395, 1430024, 1430671, 1431257, 1431855, 1432462, 1433039, 1433671, 1434299, 1434891, 1435533, 1436128, 1436812]","[1422862, 1423461, 1424061, 1424661, 1425261, 1425861, 1426461, 1427061, 1427594, 1428188, 1428785, 1429358, 1429998, 1430624, 1431212, 1431847, 1432435, 1433014, 1433627, 1434258, 1434847, 1435543, 1436119, 1436772]",84,EM,L,R,ITMSR,1.1,
1,600,trial,0,72,72,72,trial,"['S', 'S', 'S', 'S', 'S', 'S', 'C', 'C', 'C', 'C', 'C', 'C', 'C', 'C', 'C', 'C', 'C', 'C', 'C', 'C', 'C', 'C']","[1443644, 1444288, 1444859, 1445486, 1446040, 1446656, 1447220, 1447789, 1448345, 1448941, 1449520, 1450097, 1450665, 1451227, 1451830, 1452406, 1452971, 1453538, 1454110, 1454693, 1455279, 1455860]","[1443781, 1444384, 1444975, 1445581, 1446164, 1446746, 1447347, 1447915, 1448474, 1449061, 1449641, 1450233, 1450785, 1451351, 1451960, 1452551, 1453079, 1453644, 1454240, 1454808, 1455379, 1455982]","[107, 251, 44, 49, 81, 246, 140, 183, 32, 199, 227, 65, 158, 35, 1, 197, 50, 97, 173, 100, 118, 153]","[1443714, 1444335, 1444911, 1445533, 1446096, 1446703, 1447271, 1447838, 1448401, 1448992, 1449579, 1450156, 1450723, 1451277, 1451892, 1452471, 1453003, 1453564, 1454181, 1454754, 1455327, 1455920]","[1442545, 1443145, 1443745, 1444345, 1444945, 1445545, 1446146, 1446746, 1447240, 1447810, 1448365, 1448962, 1449540, 1450117, 1450685, 1451247, 1451850, 1452426, 1452991, 1453558, 1454130, 1454713, 1455299, 1455880]",84,EM,L,R,ITMSR,1.1,
0,600,trial,0,73,73,73,trial,"['S', 'S', 'S', 'S', 'S', 'S', 'S', 'C', 'C', 'C', 'C', 'C', 'C', 'C', 'C', 'C', 'C', 'C', 'C', 'C', 'C', 'C', 'C']","[1462291, 1462809, 1463413, 1464045, 1464648, 1465252, 1465836, 1466389, 1466995, 1467623, 1468237, 1468780, 1469378, 1469981, 1470524, 1471136, 1471674, 1472272, 1472826, 1473423, 1473970, 1474571, 1475182]","[1462431, 1462956, 1463550, 1464205, 1464786, 1465394, 1465988, 1466552, 1467150, 1467790, 1468381, 1468949, 1469524, 1470137, 1470701, 1471272, 1471827, 1472442, 1472993, 1473567, 1474130, 1474733, 1475308]","[94, 64, 77, 63, 67, 7, 6, 18, 35, 25, 251, 220, 193, 254, 7, 180, 195, 254, 226, 172, 189, 144, 109]","[1462355, 1462881, 1463469, 1464110, 1464715, 1465320, 1465904, 1466457, 1467063, 1467692, 1468300, 1468850, 1469446, 1470056, 1470610, 1471192, 1471747, 1472358, 1472894, 1473496, 1474041, 1474642, 1475208]","[1461607, 1462207, 1462807, 1463407, 1464007, 1464607, 1465207, 1465807, 1466409, 1467015, 1467643, 1468257, 1468801, 1469399, 1470001, 1470544, 1471156, 1471694, 1472292, 1472846, 1473443, 1473990, 1474591, 1475202]",84,EM,L,R,ITMSR,1.1,
5,400,trial,0,74,74,74,trial,"['S', 'S', 'S', 'S', 'S', 'S', 'C', 'C', 'C', 'C', 'C', 'C', 'C', 'C', 'C', 'C', 'C', 'C', 'C', 'C', 'C', 'C']","[1481469, 1481870, 1482276, 1482659, 1483095, 1483499, 1483880, 1484270, 1484664, 1485046, 1485416, 1485811, 1486182, 1486586, 1486957, 1487358, 1487776, 1488169, 1492846, 1493191, 1493541, 1493902]","[1481590, 1481979, 1482380, 1482780, 1483205, 1483585, 1483977, 1484365, 1484751, 1485145, 1485518, 1485936, 1486305, 1486692, 1487078, 1487471, 1487847, 1488242, 1492927, 1493263, 1493629, 1493989]","[35, 227, 236, 235, 237, 80, 127, 82, 104, 94, 127, 160, 174, 81, 78, 66, 22, 15, 84, 51, 223, 236]","[1481526, 1481918, 1482324, 1482705, 1483142, 1483533, 1483931, 1484297, 1484667, 1485069, 1485474, 1485870, 1486245, 1486608, 1486982, 1487383, 1487804, 1488220, 1492891, 1493235, 1493566, 1493925]","[1480767, 1481167, 1481567, 1481967, 1482368, 1482767, 1483167, 1483567, 1483900, 1484290, 1484684, 1485066, 1485436, 1485831, 1486202, 1486606, 1486978, 1487378, 1487796, 1488189, 1492866, 1493211, 1493561, 1493922]",84,EM,L,R,ITMSR,1.1,
2,400,trial,0,75,75,75,trial,"['S', 'S', 'S', 'S', 'C', 'C', 'C', 'C', 'C', 'C', 'C', 'C', 'C', 'C', 'C', 'C', 'C', 'C', 'C', 'C']","[1500738, 1501156, 1501564, 1501985, 1502396, 1502807, 1503153, 1503544, 1503953, 1504316, 1504719, 1505103, 1505501, 1505910, 1506290, 1506661, 1507058, 1507446, 1507858, 1508249]","[1500811, 1501230, 1501658, 1502081, 1502488, 1502903, 1503262, 1503646, 1504038, 1504431, 1504823, 1505222, 1505608, 1506018, 1506388, 1506752, 1507142, 1507542, 1507935, 1508333]","[46, 36, 160, 196, 146, 103, 196, 108, 91, 119, 86, 117, 103, 101, 102, 71, 71, 97, 48, 104]","[1500769, 1501185, 1501618, 1502033, 1502447, 1502829, 1503203, 1503566, 1503998, 1504376, 1504773, 1505179, 1505530, 1505934, 1506334, 1506711, 1507107, 1507476, 1507904, 1508296]","[1499222, 1499621, 1500021, 1500421, 1500821, 1501221, 1501621, 1502021, 1502416, 1502827, 1503173, 1503564, 1503973, 1504336, 1504739, 1505123, 1505521, 1505930, 1506310, 1506681, 1507078, 1507466, 1507878, 1508269]",84,EM,L,R,ITMSR,1.1,
2,600,trial,0,76,76,76,trial,"['S', 'S', 'S', 'S', 'S', 'S', 'S', 'C', 'C', 'C', 'C', 'C', 'C', 'C', 'C', 'C', 'C', 'C', 'C', 'C', 'C', 'C', 'C']","[1514483, 1515122, 1515793, 1516446, 1517010, 1517604, 1518254, 1518838, 1519436, 1520057, 1520616, 1521251, 1521884, 1522546, 1523078, 1523724, 1524331, 1524905, 1525487, 1526208, 1526842, 1527393, 1527953]","[1514592, 1515239, 1515908, 1516573, 1517148, 1517744, 1518377, 1518994, 1519585, 1520188, 1520749, 1521396, 1522035, 1522660, 1523212, 1523856, 1524472, 1525037, 1525616, 1526312, 1526946, 1527488, 1528072]","[177, 186, 211, 26, 44, 191, 210, 255, 17, 236, 131, 164, 173, 71, 118, 119, 98, 114, 202, 222, 77, 218, 21]","[1514541, 1515180, 1515851, 1516498, 1517067, 1517668, 1518302, 1518905, 1519505, 1520119, 1520679, 1521319, 1521945, 1522606, 1523110, 1523772, 1524383, 1524959, 1525557, 1526260, 1526895, 1527438, 1528010]","[1514050, 1514649, 1515249, 1515849, 1516449, 1517049, 1517649, 1518249, 1518858, 1519456, 1520077, 1520636, 1521271, 1521904, 1522566, 1523098, 1523744, 1524352, 1524925, 1525507, 1526228, 1526862, 1527413, 1527973]",84,EM,L,R,ITMSR,1.1,
4,600,trial,0,77,77,77,trial,"['S', 'S', 'S', 'S', 'S', 'S', 'C', 'C', 'C', 'C', 'C', 'C', 'C', 'C', 'C', 'C', 'C', 'C', 'C', 'C', 'C', 'C']","[1534592, 1535266, 1535869, 1536512, 1537106, 1537703, 1538289, 1538897, 1539451, 1540034, 1540597, 1541183, 1541774, 1542337, 1542930, 1543503, 1544112, 1544695, 1545278, 1545893, 1546547, 1547207]","[1534696, 1535377, 1535993, 1536615, 1537236, 1537835, 1538415, 1539035, 1539606, 1540155, 1540728, 1541320, 1541914, 1542487, 1543057, 1543681, 1544275, 1544866, 1545428, 1546061, 1546696, 1547332]","[201, 101, 129, 78, 106, 89, 99, 78, 94, 67, 33, 28, 208, 245, 167, 13, 195, 33, 189, 237, 211, 166]","[1534639, 1535329, 1535932, 1536559, 1537166, 1537758, 1538348, 1538967, 1539529, 1540094, 1540668, 1541251, 1541856, 1542405, 1542986, 1543595, 1544198, 1544769, 1545348, 1545968, 1546615, 1547257]","[1533590, 1534189, 1534789, 1535389, 1535989, 1536589, 1537189, 1537789, 1538309, 1538917, 1539471, 1540055, 1540617, 1541203, 1541794, 1542358, 1542950, 1543523, 1544132, 1544715, 1545298, 1545913, 1546567, 1547227]",84,EM,L,R,ITMSR,1.1,
2,600,trial,0,78,78,78,trial,"['S', 'S', 'S', 'S', 'S', 'S', 'C', 'C', 'C', 'C', 'C', 'C', 'C', 'C', 'C', 'C', 'C', 'C', 'C', 'C', 'C', 'C']","[1564053, 1564699, 1565312, 1565943, 1566546, 1567116, 1567745, 1568311, 1568886, 1569480, 1570075, 1570667, 1571287, 1571856, 1572485, 1573070, 1573700, 1574297, 1574900, 1575510, 1576124, 1576755]","[1564162, 1564795, 1565414, 1566036, 1566671, 1567241, 1567862, 1568456, 1569040, 1569640, 1570235, 1570822, 1571436, 1572007, 1572613, 1573197, 1573848, 1574422, 1575025, 1575664, 1576272, 1576885]","[143, 47, 41, 49, 66, 249, 172, 53, 196, 238, 248, 79, 93, 90, 55, 35, 52, 4, 243, 90, 89, 48]","[1564108, 1564704, 1565364, 1565995, 1566605, 1567174, 1567780, 1568368, 1568958, 1569556, 1570151, 1570748, 1571354, 1571931, 1572541, 1573131, 1573773, 1574352, 1574964, 1575586, 1576194, 1576815]","[1562998, 1563598, 1564198, 1564798, 1565399, 1565998, 1566598, 1567198, 1567765, 1568331, 1568906, 1569500, 1570095, 1570688, 1571307, 1571876, 1572505, 1573090, 1573720, 1574317, 1574920, 1575530, 1576144, 1576775]",84,EM,L,R,ITMSR,1.1,
4,400,trial,0,79,79,79,trial,"['S', 'S', 'S', 'S', 'S', 'S', 'C', 'C', 'C', 'C', 'C', 'C', 'C', 'C', 'C', 'C', 'C', 'C', 'C', 'C', 'C', 'C']","[1582838, 1583250, 1583657, 1584070, 1584484, 1584870, 1585263, 1585675, 1586109, 1586472, 1586883, 1587272, 1587643, 1588088, 1588496, 1588908, 1589319, 1589740, 1590156, 1590568, 1590982, 1591394]","[1582946, 1583363, 1583776, 1584180, 1584598, 1584988, 1585364, 1585784, 1586206, 1586579, 1586974, 1587350, 1587745, 1588195, 1588610, 1588999, 1589437, 1589855, 1590287, 1590677, 1591086, 1591499]","[156, 196, 236, 234, 64, 213, 75, 112, 78, 90, 83, 85, 195, 193, 160, 209, 196, 240, 45, 166, 244, 228]","[1582873, 1583301, 1583716, 1584124, 1584489, 1584905, 1585297, 1585732, 1586115, 1586522, 1586890, 1587307, 1587699, 1588094, 1588559, 1588914, 1589380, 1589793, 1590219, 1590624, 1591032, 1591443]","[1582127, 1582527, 1582927, 1583327, 1583727, 1584128, 1584527, 1584927, 1585283, 1585695, 1586129, 1586492, 1586904, 1587292, 1587663, 1588108, 1588516, 1588928, 1589339, 1589761, 1590176, 1590588, 1591002, 1591414]",84,EM,L,R,ITMSR,1.1,
3,400,trial,0,80,80,80,trial,"['S', 'S', 'S', 'S', 'C', 'C', 'C', 'C', 'C', 'C', 'C', 'C', 'C', 'C', 'C', 'C', 'C', 'C', 'C', 'C']","[1598283, 1598726, 1599156, 1599588, 1599976, 1600353, 1600735, 1601122, 1601583, 1601973, 1602375, 1602729, 1603170, 1603566, 1603943, 1604357, 1604763, 1605186, 1605584, 1605939]","[1598395, 1598843, 1599288, 1599687, 1600094, 1600444, 1600855, 1601248, 1601657, 1601998, 1602448, 1602826, 1603267, 1603639, 1604051, 1604459, 1604860, 1605286, 1605694, 1606046]","[232, 24, 50, 71, 192, 126, 194, 175, 226, 63, 58, 130, 121, 134, 116, 116, 112, 136, 126, 55]","[1598338, 1598781, 1599218, 1599591, 1600038, 1600356, 1600740, 1601128, 1601613, 1601975, 1602381, 1602731, 1603174, 1603567, 1603944, 1604359, 1604767, 1605190, 1605588, 1605942]","[1596794, 1597194, 1597594, 1597995, 1598394, 1598794, 1599194, 1599594, 1599996, 1600373, 1600755, 1601142, 1601603, 1601993, 1602395, 1602749, 1603190, 1603586, 1603963, 1604377, 1604783, 1605207, 1605604, 1605959]",84,EM,L,R,ITMSR,1.1,
1,400,trial,0,81,81,81,trial,"['S', 'S', 'S', 'S', 'S', 'C', 'C', 'C', 'C', 'C', 'C', 'C', 'C', 'C', 'C', 'C', 'C', 'C', 'C', 'C', 'C']","[1612550, 1612944, 1613339, 1613734, 1614125, 1614537, 1614947, 1615318, 1615732, 1616103, 1616534, 1616881, 1617281, 1617678, 1618113, 1618482, 1618898, 1619230, 1619663, 1620064, 1620503]","[1612635, 1613029, 1613443, 1613843, 1614236, 1614656, 1615044, 1615427, 1615828, 1616190, 1616602, 1616958, 1617301, 1617766, 1618206, 1618538, 1618981, 1619250, 1619770, 1620149, 1620574]","[164, 168, 115, 59, 224, 232, 161, 232, 185, 209, 243, 58, 141, 191, 190, 112, 76, 57, 104, 143, 129]","[1612587, 1612947, 1613400, 1613801, 1614183, 1614542, 1614949, 1615320, 1615735, 1616105, 1616538, 1616886, 1617282, 1617683, 1618119, 1618486, 1618903, 1619236, 1619665, 1620066, 1620506]","[1611376, 1611777, 1612176, 1612576, 1612976, 1613376, 1613776, 1614176, 1614557, 1614967, 1615338, 1615752, 1616123, 1616555, 1616901, 1617301, 1617698, 1618134, 1618502, 1618918, 1619250, 1619683, 1620084, 1620524]",84,EM,L,R,ITMSR,1.1,
2,600,trial,0,82,82,82,trial,"['S', 'S', 'S', 'S', 'S', 'C', 'C', 'C', 'C', 'C', 'C', 'C', 'C', 'C', 'C', 'C', 'C', 'C', 'C', 'C', 'C']","[1627661, 1628296, 1628901, 1629549, 1630163, 1630690, 1631248, 1631832, 1632466, 1633084, 1633685, 1634379, 1634939, 1636213, 1636759, 1637243, 1637755, 1638247, 1638750, 1639225, 1639788]","[1627796, 1628437, 1629044, 1629704, 1630288, 1630803, 1631397, 1631969, 1632584, 1633223, 1633805, 1634414, 1635031, 1636328, 1636900, 1637449, 1637907, 1638443, 1638906, 1639316, 1639865]","[148, 234, 232, 185, 188, 178, 210, 31, 205, 250, 153, 30, 158, 93, 194, 19, 131, 96, 158, 155, 63]","[1627729, 1628364, 1628971, 1629616, 1630221, 1630746, 1631311, 1631901, 1632519, 1633158, 1633745, 1634399, 1634979, 1636285, 1636827, 1637364, 1637838, 1638371, 1638814, 1639259, 1639805]","[1625925, 1626525, 1627125, 1627725, 1628325, 1628925, 1629526, 1630125, 1630710, 1631268, 1631852, 1632486, 1633104, 1633705, 1634399, 1634959, 1636233, 1636780, 1637263, 1637775, 1638267, 1638770, 1639245, 1639809]",84,EM,L,R,ITMSR,1.1,
5,400,trial,0,83,83,83,trial,"['S', 'S', 'S', 'S', 'S', 'S', 'C', 'C', 'C', 'C', 'C', 'C', 'C', 'C', 'C', 'C', 'C', 'C', 'C', 'C', 'C', 'C']","[1646173, 1646462, 1646818, 1647215, 1647619, 1648022, 1648404, 1648825, 1649212, 1649556, 1649951, 1650341, 1650724, 1651122, 1651535, 1651959, 1652350, 1652749, 1653152, 1653548, 1653939, 1654370]","[1646255, 1646572, 1646948, 1647331, 1647738, 1648149, 1648541, 1648910, 1649303, 1649678, 1650048, 1650429, 1650818, 1651228, 1651627, 1652061, 1652453, 1652857, 1653252, 1653647, 1654030, 1654441]","[146, 188, 196, 52, 186, 169, 198, 74, 143, 234, 243, 187, 193, 12, 134, 186, 173, 174, 98, 112, 148, 70]","[1646209, 1646529, 1646884, 1647276, 1647685, 1648092, 1648481, 1648828, 1649268, 1649559, 1650007, 1650344, 1650728, 1651179, 1651538, 1651963, 1652406, 1652808, 1653211, 1653553, 1653995, 1654372]","[1645335, 1645735, 1646135, 1646535, 1646936, 1647336, 1647736, 1648136, 1648424, 1648845, 1649232, 1649576, 1649971, 1650361, 1650744, 1651142, 1651555, 1651979, 1652370, 1652769, 1653172, 1653568, 1653959, 1654390]",84,EM,L,R,ITMSR,1.1,
0,400,trial,0,84,84,84,trial,"['S', 'S', 'S', 'S', 'S', 'C', 'C', 'C', 'C', 'C', 'C', 'C', 'C', 'C', 'C', 'C', 'C', 'C', 'C', 'C', 'C']","[1660906, 1661260, 1661694, 1662126, 1662550, 1662953, 1663404, 1663826, 1664234, 1664602, 1665037, 1665449, 1665899, 1666327, 1666710, 1667149, 1667552, 1667973, 1668361, 1670082, 1670465]","[1660988, 1661368, 1661803, 1662229, 1662630, 1663038, 1663472, 1663846, 1664279, 1664622, 1665125, 1665524, 1665970, 1666349, 1666731, 1667169, 1667572, 1667993, 1668381, 1670146, 1670486]","[224, 198, 178, 120, 82, 126, 70, 41, 58, 58, 81, 79, 78, 48, 24, 38, 111, 39, 52, 189, 58]","[1660957, 1661325, 1661753, 1662185, 1662556, 1663010, 1663407, 1663831, 1664237, 1664605, 1665040, 1665456, 1665903, 1666332, 1666715, 1667154, 1667557, 1667977, 1668365, 1670115, 1670471]","[1659747, 1660147, 1660547, 1660947, 1661347, 1661747, 1662147, 1662547, 1662973, 1663424, 1663846, 1664254, 1664622, 1665057, 1665469, 1665920, 1666348, 1666731, 1667169, 1667572, 1667993, 1668381, 1670103, 1670486]",84,EM,L,R,ITMSR,1.1,
5,400,trial,0,85,85,85,trial,"['S', 'S', 'S', 'S', 'S', 'C', 'C', 'C', 'C', 'C', 'C', 'C', 'C', 'C', 'C', 'C', 'C', 'C', 'C', 'C', 'C']","[1677208, 1677520, 1677922, 1678354, 1678747, 1679156, 1679562, 1679934, 1680340, 1680746, 1681118, 1681545, 1681933, 1682334, 1682712, 1683145, 1683547, 1683900, 1684337, 1684754, 1685647]","[1677273, 1677622, 1677998, 1678374, 1678767, 1679176, 1679655, 1680031, 1680419, 1680843, 1681226, 1681640, 1682042, 1682428, 1682817, 1683165, 1683656, 1684002, 1684357, 1684850, 1685771]","[241, 217, 216, 147, 108, 84, 159, 121, 75, 101, 211, 100, 173, 199, 53, 65, 184, 149, 26, 132, 45]","[1677240, 1677581, 1677978, 1678360, 1678752, 1679162, 1679621, 1679990, 1680396, 1680807, 1681175, 1681602, 1681992, 1682387, 1682776, 1683150, 1683607, 1683905, 1684340, 1684760, 1685707]","[1676002, 1676402, 1676802, 1677202, 1677602, 1678002, 1678402, 1678802, 1679176, 1679582, 1679954, 1680360, 1680766, 1681138, 1681565, 1681953, 1682354, 1682733, 1683165, 1683567, 1683920, 1684357, 1684774, 1685667]",84,EM,L,R,ITMSR,1.1,
4,400,trial,0,86,86,86,trial,"['S', 'S', 'S', 'S', 'S', 'S', 'C', 'C', 'C', 'C', 'C', 'C', 'C', 'C', 'C', 'C', 'C', 'C', 'C', 'C', 'C', 'C']","[1691977, 1692379, 1692763, 1693157, 1693597, 1694039, 1694436, 1694859, 1695256, 1695684, 1696074, 1696488, 1696908, 1697755, 1698156, 1698529, 1698934, 1699345, 1699764, 1700141, 1700550, 1700926]","[1692064, 1692399, 1692847, 1693253, 1693617, 1694139, 1694538, 1694956, 1695354, 1695783, 1696159, 1696580, 1697015, 1697851, 1698235, 1698603, 1699006, 1699422, 1699853, 1700161, 1700570, 1701017]","[189, 54, 227, 150, 60, 128, 222, 202, 170, 180, 121, 118, 119, 35, 178, 191, 118, 151, 195, 74, 50, 119]","[1692029, 1692381, 1692797, 1693208, 1693599, 1694041, 1694493, 1694918, 1695313, 1695718, 1696126, 1696544, 1696964, 1697811, 1698209, 1698562, 1698970, 1699397, 1699829, 1700143, 1700551, 1700975]","[1691291, 1691692, 1692091, 1692491, 1692891, 1693291, 1693691, 1694091, 1694456, 1694879, 1695277, 1695704, 1696094, 1696508, 1696928, 1697775, 1698177, 1698549, 1698954, 1699365, 1699784, 1700161, 1700570, 1700946]",84,EM,L,R,ITMSR,1.1,
1,600,trial,0,87,87,87,trial,"['S', 'S', 'S', 'S', 'C', 'C', 'C', 'C', 'C', 'C', 'C', 'C', 'C', 'C', 'C', 'C', 'C', 'C', 'C', 'C']","[1708341, 1708923, 1709550, 1710147, 1711904, 1712495, 1713051, 1713604, 1714158, 1714694, 1715244, 1715751, 1716294, 1716882, 1717421, 1718004, 1719217, 1719769, 1720288, 1720828]","[1708459, 1709037, 1709699, 1710316, 1712009, 1712655, 1713240, 1713777, 1714420, 1714997, 1715564, 1716115, 1716644, 1717196, 1717784, 1718249, 1719396, 1719914, 1720434, 1721030]","[137, 37, 66, 180, 209, 80, 172, 247, 91, 98, 139, 121, 66, 0, 43, 11, 35, 33, 15, 20]","[1708400, 1708983, 1709627, 1710222, 1711962, 1712564, 1713130, 1713655, 1714333, 1714864, 1715440, 1715903, 1716413, 1716887, 1717504, 1718091, 1719280, 1719806, 1720328, 1720888]","[1706554, 1707153, 1707753, 1708353, 1708953, 1709553, 1710153, 1710753, 1711924, 1712515, 1713071, 1713624, 1714178, 1714714, 1715264, 1715771, 1716314, 1716902, 1717441, 1718024, 1719237, 1719789, 1720308, 1720848]",84,EM,L,R,ITMSR,1.1,
0,600,trial,0,88,88,88,trial,"['S', 'S', 'S', 'S', 'S', 'S', 'S', 'C', 'C', 'C', 'C', 'C', 'C', 'C', 'C', 'C', 'C', 'C', 'C', 'C', 'C', 'C', 'C']","[1726909, 1727571, 1728246, 1728850, 1729455, 1730060, 1730708, 1731302, 1731899, 1732486, 1733150, 1733731, 1734354, 1734913, 1735480, 1736048, 1736624, 1737822, 1738380, 1738953, 1739518, 1740186, 1740709]","[1727012, 1727684, 1728385, 1728969, 1729606, 1730205, 1730853, 1731433, 1732036, 1732621, 1733282, 1733880, 1734506, 1735051, 1735601, 1736187, 1736750, 1737936, 1738503, 1739048, 1739644, 1740269, 1740826]","[234, 56, 68, 46, 54, 243, 148, 154, 135, 151, 245, 83, 129, 49, 130, 72, 198, 152, 132, 211, 86, 9, 107]","[1726965, 1727630, 1728318, 1728905, 1729528, 1730123, 1730768, 1731359, 1731960, 1732544, 1733207, 1733811, 1734439, 1734985, 1735532, 1736110, 1736683, 1737856, 1738438, 1739006, 1739579, 1740221, 1740767]","[1726528, 1727128, 1727728, 1728328, 1728928, 1729528, 1730128, 1730728, 1731322, 1731919, 1732506, 1733170, 1733751, 1734374, 1734933, 1735500, 1736068, 1736644, 1737842, 1738400, 1738973, 1739538, 1740206, 1740729]",84,EM,L,R,ITMSR,1.1,
3,600,trial,0,89,89,89,trial,"['S', 'S', 'S', 'S', 'S', 'C', 'C', 'C', 'C', 'C', 'C', 'C', 'C', 'C', 'C', 'C', 'C', 'C', 'C', 'C', 'C']","[1747256, 1747825, 1748434, 1749035, 1750199, 1750808, 1751668, 1752262, 1752769, 1753333, 1753882, 1754465, 1755026, 1755747, 1756292, 1756797, 1757376, 1758884, 1759470, 1760010, 1760555]","[1747377, 1747961, 1748590, 1749182, 1750335, 1750943, 1751759, 1752389, 1752910, 1753508, 1754009, 1754653, 1755301, 1755897, 1756481, 1756989, 1757510, 1759080, 1759693, 1760266, 1760807]","[230, 82, 179, 180, 215, 242, 79, 169, 191, 98, 10, 227, 5, 63, 148, 177, 56, 14, 14, 10, 255]","[1747315, 1747894, 1748502, 1749098, 1750278, 1750862, 1751729, 1752267, 1752849, 1753414, 1753888, 1754545, 1755121, 1755820, 1756353, 1756900, 1757433, 1758947, 1759527, 1760092, 1760660]","[1746092, 1746690, 1747290, 1747890, 1748490, 1749090, 1749690, 1750290, 1750829, 1751688, 1752282, 1752790, 1753353, 1753902, 1754485, 1755046, 1755767, 1756312, 1756817, 1757396, 1758904, 1759490, 1760030, 1760575]",84,EM,L,R,ITMSR,1.1,
1,400,trial,0,90,90,90,trial,"['S', 'S', 'S', 'S', 'S', 'C', 'C', 'C', 'C', 'C', 'C', 'C', 'C', 'C', 'C', 'C', 'C', 'C', 'C', 'C', 'C']","[1767275, 1767707, 1768117, 1768735, 1769048, 1769390, 1769743, 1770101, 1770505, 1770892, 1771286, 1771920, 1772227, 1772568, 1772977, 1773384, 1773770, 1774134, 1774786, 1775114, 1775511]","[1767404, 1767819, 1768238, 1768848, 1769112, 1769478, 1769849, 1770211, 1770618, 1771029, 1771378, 1771999, 1772342, 1772702, 1773095, 1773499, 1773875, 1774280, 1774879, 1775232, 1775616]","[58, 206, 97, 117, 11, 44, 40, 118, 126, 237, 70, 246, 105, 163, 176, 158, 122, 56, 88, 183, 66]","[1767322, 1767760, 1768179, 1768795, 1769076, 1769393, 1769747, 1770161, 1770563, 1770952, 1771322, 1771969, 1772266, 1772630, 1773035, 1773390, 1773829, 1774171, 1774851, 1775174, 1775565]","[1766179, 1766579, 1766979, 1767379, 1767779, 1768179, 1768579, 1768979, 1769410, 1769763, 1770121, 1770525, 1770912, 1771307, 1771940, 1772248, 1772589, 1772997, 1773404, 1773790, 1774154, 1774807, 1775134, 1775532]",84,EM,L,R,ITMSR,1.1,
5,600,trial,0,91,91,91,trial,"['S', 'S', 'S', 'S', 'S', 'S', 'S', 'C', 'C', 'C', 'C', 'C', 'C', 'C', 'C', 'C', 'C', 'C', 'C', 'C', 'C', 'C', 'C']","[1782052, 1782515, 1783054, 1783644, 1784271, 1784853, 1785468, 1786071, 1786665, 1787257, 1787863, 1788407, 1789022, 1789654, 1790284, 1790900, 1791519, 1792099, 1792696, 1793259, 1793900, 1794466, 1795060]","[1782196, 1782654, 1783211, 1783788, 1784417, 1784988, 1785629, 1786194, 1786822, 1787387, 1788026, 1788559, 1789225, 1789803, 1790413, 1790989, 1791646, 1792262, 1792824, 1793420, 1794070, 1794598, 1795185]","[6, 14, 146, 6, 122, 203, 215, 111, 123, 253, 4, 181, 9, 245, 41, 248, 240, 70, 16, 15, 240, 66, 5]","[1782120, 1782576, 1783113, 1783714, 1784324, 1784920, 1785541, 1786127, 1786736, 1787319, 1787935, 1788487, 1789104, 1789733, 1790345, 1790932, 1791587, 1792173, 1792761, 1793342, 1793976, 1794535, 1795116]","[1781328, 1781928, 1782529, 1783128, 1783728, 1784328, 1784928, 1785528, 1786091, 1786685, 1787277, 1787883, 1788427, 1789042, 1789674, 1790304, 1790920, 1791539, 1792119, 1792716, 1793280, 1793921, 1794486, 1795080]",84,EM,L,R,ITMSR,1.1,
3,600,trial,0,92,92,92,trial,"['S', 'S', 'C', 'C', 'C', 'C', 'C', 'C', 'C', 'C', 'C', 'C', 'C', 'C', 'C', 'C', 'C', 'C']","[1804103, 1804573, 1805196, 1805777, 1806303, 1806852, 1807488, 1808090, 1808719, 1809373, 1809942, 1810573, 1811064, 1811673, 1812234, 1812842, 1813345, 1813838]","[1804189, 1804685, 1805336, 1805914, 1806449, 1806985, 1807601, 1808216, 1808846, 1809502, 1810051, 1810739, 1811215, 1811825, 1812404, 1813001, 1813514, 1814006]","[99, 118, 137, 52, 47, 112, 143, 120, 231, 132, 144, 229, 182, 250, 71, 207, 177, 156]","[1804156, 1804577, 1805268, 1805835, 1806371, 1806908, 1807544, 1808137, 1808790, 1809438, 1810000, 1810634, 1811136, 1811749, 1812290, 1812915, 1813420, 1813922]","[1800438, 1801038, 1801638, 1802238, 1802839, 1803438, 1804038, 1804638, 1805216, 1805797, 1806323, 1806872, 1807508, 1808110, 1808739, 1809393, 1809963, 1810593, 1811084, 1811693, 1812254, 1812862, 1813365, 1813858]",84,EM,L,R,ITMSR,1.1,
0,600,trial,0,93,93,93,trial,"['S', 'S', 'S', 'S', 'S', 'C', 'C', 'C', 'C', 'C', 'C', 'C', 'C', 'C', 'C', 'C', 'C', 'C', 'C', 'C', 'C']","[1821381, 1821935, 1822546, 1823160, 1823727, 1824329, 1824911, 1825471, 1826001, 1826543, 1827096, 1827672, 1828640, 1829187, 1829688, 1830208, 1830689, 1831228, 1831732, 1832181, 1832690]","[1821488, 1822062, 1822681, 1823296, 1823833, 1824459, 1825026, 1825605, 1826156, 1826644, 1827220, 1827823, 1828783, 1829340, 1829818, 1830358, 1830877, 1831385, 1831882, 1832302, 1832799]","[247, 185, 4, 205, 4, 1, 161, 157, 232, 238, 72, 155, 49, 13, 221, 229, 11, 4, 253, 111, 210]","[1821437, 1821992, 1822610, 1823217, 1823755, 1824392, 1824974, 1825528, 1826064, 1826569, 1827155, 1827729, 1828704, 1829217, 1829755, 1830264, 1830786, 1831286, 1831790, 1832232, 1832740]","[1819601, 1820201, 1820802, 1821402, 1822002, 1822602, 1823202, 1823802, 1824349, 1824931, 1825491, 1826021, 1826563, 1827117, 1827692, 1828660, 1829208, 1829708, 1830228, 1830709, 1831248, 1831752, 1832201, 1832710]",84,EM,L,R,ITMSR,1.1,
