pitch,ioi,event,.thisRepN,.thisTrialN,.thisN,.thisIndex,event,tap_types,tap_times,release_times,peak_pressures,peak_times,tone_times,subject,experimenter,register,handedness,experiment,version,
,,SPR,0,-1,-1,0,SPR,"['P', 'P', 'P', 'P', 'P', 'P', 'P', 'P', 'P', 'P', 'P', 'P', 'P', 'P', 'P', 'P', 'P', 'P', 'P', 'P', 'P', 'P', 'P', 'P', 'P', 'P', 'P', 'P', 'P', 'P']","[32628, 38074, 38687, 39195, 39663, 40193, 40799, 41349, 41931, 42542, 43143, 43742, 44289, 44813, 45406, 46038, 46644, 47201, 47759, 48348, 48892, 49465, 50013, 50589, 51167, 51712, 52257, 52805, 53361, 53947]","[32781, 38150, 38800, 39291, 39809, 40312, 40953, 41497, 42087, 42688, 43296, 43906, 44433, 44921, 45549, 46172, 46768, 47339, 47866, 48482, 49020, 49611, 50146, 50681, 51272, 51854, 52414, 52947, 53518, 54105]","[182, 118, 99, 90, 96, 55, 203, 119, 158, 116, 224, 217, 232, 25, 201, 167, 138, 217, 15, 15, 44, 203, 37, 11, 211, 236, 224, 164, 158, 225]","[32632, 38077, 38692, 39200, 39668, 40198, 40807, 41355, 41938, 42547, 43148, 43748, 44294, 44862, 45485, 46092, 46652, 47275, 47765, 48353, 48898, 49470, 50018, 50594, 51173, 51718, 52261, 52810, 53366, 53952]",,85,SB,L,R,ITMSR,1.1,
5,500,practice,0,0,0,0,practice,"['S', 'S', 'S', 'S', 'S', 'C', 'C', 'C', 'C', 'C', 'C', 'C', 'C', 'C', 'C', 'C', 'C', 'C', 'C', 'C', 'C']","[129758, 130913, 131411, 131946, 132406, 132910, 133404, 133888, 134389, 134895, 135368, 135869, 136343, 136832, 137338, 137817, 138302, 138745, 139227, 139699, 140196]","[129926, 131040, 131529, 132064, 132562, 133047, 133529, 134018, 134549, 135053, 135541, 136013, 136510, 137010, 137528, 137991, 138458, 138886, 139379, 139879, 140385]","[51, 16, 255, 235, 233, 209, 253, 10, 234, 171, 142, 132, 139, 98, 205, 146, 78, 119, 232, 4, 46]","[129819, 130919, 131419, 131951, 132413, 132979, 133410, 133894, 134395, 134901, 135375, 135944, 136420, 136839, 137446, 137904, 138370, 138815, 139312, 139752, 140307]","[128934, 129434, 129934, 130434, 130934, 131434, 131934, 132434, 132930, 133424, 133908, 134409, 134915, 135388, 135889, 136364, 136852, 137358, 137837, 138322, 138765, 139247, 139719, 140216]",85,SB,L,R,ITMSR,1.1,
4,500,practice,0,1,1,1,practice,"['S', 'S', 'S', 'S', 'C', 'C', 'C', 'C', 'C', 'C', 'C', 'C', 'C', 'C', 'C', 'C', 'C', 'C', 'C', 'C', 'C']","[147787, 148262, 148746, 149269, 149777, 150294, 150784, 151256, 151792, 152311, 152783, 153290, 153780, 154311, 154823, 155322, 155828, 156345, 156834, 157326, 157426]","[147923, 148444, 148934, 149420, 149909, 150458, 150956, 151448, 151975, 152473, 152983, 153446, 153932, 154458, 154843, 155424, 155954, 156506, 156968, 157346, 157492]","[135, 126, 48, 246, 192, 158, 176, 219, 202, 151, 98, 158, 47, 134, 30, 250, 111, 200, 100, 2, 5]","[147853, 148344, 148834, 149344, 149813, 150387, 150870, 151365, 151882, 152396, 152898, 153370, 153831, 154386, 154825, 155398, 155886, 156421, 156890, 157326, 157426]","[145792, 146291, 146791, 147291, 147791, 148291, 148791, 149292, 149797, 150315, 150804, 151276, 151812, 152331, 152803, 153310, 153800, 154331, 154843, 155342, 155848, 156365, 156854, 157346]",85,SB,L,R,ITMSR,1.1,
3,500,practice,0,2,2,2,practice,"['S', 'S', 'S', 'S', 'C', 'C', 'C', 'C', 'C', 'C', 'C', 'C', 'C', 'C', 'C', 'C', 'C', 'C', 'C', 'C']","[164874, 165410, 165510, 165941, 167477, 168488, 169006, 169511, 169982, 170486, 170978, 171493, 171973, 172462, 172933, 173421, 173929, 176196, 176693, 177183]","[164999, 165430, 165530, 165961, 167497, 168592, 169181, 169638, 170143, 170639, 171143, 171678, 172216, 172662, 173114, 173584, 174062, 176347, 176898, 177396]","[67, 1, 3, 1, 5, 235, 80, 154, 196, 203, 9, 208, 72, 103, 253, 59, 233, 111, 95, 237]","[164921, 165410, 165510, 165941, 167477, 168535, 169085, 169581, 170061, 170556, 171053, 171590, 172130, 172553, 173019, 173495, 174016, 176230, 176803, 177299]","[162875, 163374, 163874, 164374, 164874, 165374, 165874, 166374, 167497, 168508, 169026, 169531, 170002, 170506, 170998, 171513, 171993, 172482, 172953, 173442, 173949, 176216, 176713, 177203]",85,SB,L,R,ITMSR,1.1,
1,500,practice,0,3,3,3,practice,"['S', 'S', 'S', 'S', 'S', 'C', 'C', 'C', 'C', 'C', 'C', 'C', 'C', 'C', 'C', 'C', 'C', 'C', 'C', 'C', 'C']","[184761, 185257, 185779, 186247, 186352, 186772, 187270, 188744, 189232, 189732, 190225, 190710, 191201, 191685, 192167, 192649, 193156, 193629, 194125, 194616, 195125]","[184933, 185417, 185879, 186272, 186372, 186792, 187343, 188904, 189398, 189883, 190416, 190871, 191364, 191848, 192353, 192795, 193297, 193796, 194277, 194746, 195277]","[142, 57, 18, 160, 90, 51, 132, 112, 185, 123, 28, 252, 36, 90, 15, 184, 53, 44, 170, 203, 15]","[184835, 185298, 185848, 186266, 186352, 186782, 187311, 188783, 189308, 189765, 190253, 190751, 191249, 191718, 192197, 192689, 193229, 193667, 194171, 194646, 195166]","[182767, 183266, 183767, 184266, 184766, 185266, 185766, 186266, 186792, 187290, 188764, 189252, 189752, 190245, 190730, 191221, 191705, 192187, 192669, 193176, 193649, 194145, 194636, 195145]",85,SB,L,R,ITMSR,1.1,
0,500,practice,0,4,4,4,practice,"['S', 'S', 'S', 'S', 'C', 'C', 'C', 'C', 'C', 'C', 'C', 'C', 'C', 'C', 'C', 'C', 'C', 'C', 'C', 'C']","[202904, 203393, 203884, 204379, 204889, 205380, 205865, 206358, 206829, 207319, 207813, 208314, 208784, 209271, 209757, 210244, 210768, 211272, 211749, 212259]","[203061, 203554, 204027, 204532, 205051, 205575, 206044, 206493, 206931, 207514, 207978, 208481, 208973, 209449, 209954, 210485, 210931, 211469, 211937, 212416]","[51, 20, 10, 15, 14, 240, 246, 241, 142, 198, 212, 198, 145, 211, 188, 202, 4, 134, 65, 58]","[202943, 203447, 203919, 204447, 204916, 205472, 205897, 206393, 206860, 207372, 207884, 208363, 208818, 209306, 209848, 210328, 210829, 211383, 211849, 212295]","[200923, 201422, 201922, 202422, 202923, 203422, 203922, 204422, 204909, 205400, 205885, 206379, 206850, 207339, 207833, 208334, 208804, 209291, 209777, 210264, 210788, 211292, 211769, 212279]",85,SB,L,R,ITMSR,1.1,
2,500,practice,0,5,5,5,practice,"['C', 'C', 'C', 'C', 'C', 'C', 'C', 'C', 'C', 'C', 'C', 'C', 'C', 'C', 'C', 'C']","[221636, 222111, 222602, 223104, 223616, 224069, 224580, 225101, 225583, 226087, 226593, 227088, 227536, 228073, 228595, 229130]","[221810, 222341, 222810, 223301, 223777, 224300, 224757, 225267, 225755, 226270, 226783, 227292, 227739, 228284, 228762, 229302]","[209, 249, 0, 249, 244, 89, 9, 178, 215, 237, 223, 27, 29, 222, 188, 119]","[221727, 222242, 222644, 223130, 223699, 224142, 224683, 225126, 225687, 226173, 226689, 227186, 227645, 228211, 228690, 229203]","[217608, 218107, 218607, 219107, 219608, 220108, 220608, 221108, 221656, 222131, 222622, 223124, 223636, 224089, 224600, 225121, 225603, 226107, 226613, 227108, 227556, 228093, 228615, 229150]",85,SB,L,R,ITMSR,1.1,
3,400,trial,0,6,6,6,trial,"['S', 'S', 'S', 'S', 'C', 'C', 'C', 'C', 'C', 'C', 'C', 'C', 'C', 'C', 'C', 'C', 'C', 'C', 'C', 'C']","[269688, 270120, 270536, 270930, 271343, 271766, 272175, 272586, 272961, 273354, 273757, 274162, 274568, 274949, 275380, 275781, 276170, 276587, 276994, 277404]","[269819, 270252, 270681, 271040, 271458, 271925, 272277, 272689, 273071, 273462, 273899, 274284, 274706, 275079, 275509, 275914, 276299, 276721, 277127, 277531]","[61, 134, 108, 131, 35, 7, 92, 27, 19, 101, 47, 251, 23, 42, 236, 16, 16, 10, 15, 34]","[269694, 270128, 270542, 270938, 271350, 271828, 272183, 272594, 272968, 273362, 273838, 274229, 274576, 275021, 275425, 275850, 276244, 276596, 277028, 277478]","[268188, 268588, 268987, 269387, 269787, 270187, 270587, 270987, 271363, 271787, 272195, 272606, 272982, 273374, 273777, 274182, 274588, 274969, 275400, 275801, 276190, 276608, 277014, 277424]",85,SB,L,R,ITMSR,1.1,
5,600,trial,0,7,7,7,trial,"['S', 'S', 'S', 'S', 'C', 'C', 'C', 'C', 'C', 'C', 'C', 'C', 'C', 'C', 'C', 'C', 'C', 'C', 'C', 'C']","[285617, 286113, 286729, 287339, 287932, 288548, 289167, 289775, 290403, 290996, 291635, 292251, 292866, 293515, 294154, 294723, 295297, 295882, 296482, 297074]","[285735, 286304, 286934, 287483, 288158, 288764, 289399, 290011, 290658, 291251, 291890, 292484, 293087, 293722, 294342, 294951, 295564, 296159, 296777]","[246, 63, 73, 84, 150, 98, 111, 143, 147, 151, 79, 170, 190, 212, 226, 161, 204, 205, 228]","[285691, 286198, 286735, 287407, 288016, 288674, 289274, 289901, 290529, 291087, 291773, 292384, 292997, 293586, 294252, 294865, 295400, 296038, 296658]","[283105, 283705, 284305, 284905, 285505, 286105, 286705, 287305, 287952, 288568, 289187, 289795, 290423, 291016, 291655, 292271, 292886, 293535, 294174, 294744, 295317, 295902, 296502, 297094]",85,SB,L,R,ITMSR,1.1,
0,400,trial,0,8,8,8,trial,"['S', 'S', 'S', 'S', 'C', 'C', 'C', 'C', 'C', 'C', 'C', 'C', 'C', 'C', 'C', 'C', 'C', 'C', 'C', 'C']","[304261, 304716, 305073, 305459, 305867, 306249, 306669, 307074, 307480, 307877, 308278, 308667, 309061, 309469, 309868, 310246, 310645, 311061, 311457, 311871]","[304375, 304833, 305204, 305586, 305998, 306391, 306783, 307195, 307595, 307992, 308392, 308783, 309177, 309582, 309974, 310365, 310771, 311188, 311572, 311968]","[208, 29, 68, 160, 165, 115, 114, 76, 87, 72, 46, 104, 35, 94, 92, 98, 35, 114, 130, 133]","[304289, 304748, 305125, 305469, 305874, 306258, 306677, 307085, 307488, 307885, 308311, 308675, 309091, 309498, 309895, 310274, 310653, 311090, 311486, 311897]","[302687, 303087, 303488, 303887, 304287, 304687, 305087, 305487, 305887, 306269, 306690, 307094, 307501, 307897, 308298, 308687, 309081, 309489, 309889, 310266, 310665, 311081, 311477, 311891]",85,SB,L,R,ITMSR,1.1,
1,600,trial,0,9,9,9,trial,"['S', 'S', 'S', 'S', 'S', 'S', 'C', 'C', 'C', 'C', 'C', 'C', 'C', 'C', 'C', 'C', 'C', 'C', 'C', 'C', 'C', 'C']","[318567, 319177, 319770, 320370, 320984, 321562, 322202, 322811, 323418, 324041, 324671, 325293, 325879, 326479, 327092, 327732, 328345, 328932, 329526, 330118, 330707, 331290]","[318708, 319369, 319968, 320553, 321122, 321707, 322347, 323010, 323604, 324173, 324803, 325465, 326076, 326685, 327316, 327956, 328525, 329089, 329678, 330327, 330919, 331480]","[146, 98, 141, 192, 148, 141, 138, 158, 167, 203, 66, 89, 125, 126, 192, 161, 200, 153, 177, 189, 216, 176]","[318595, 319211, 319799, 320404, 320993, 321590, 322232, 322823, 323428, 324069, 324694, 325395, 325907, 326585, 327118, 327843, 328451, 328958, 329551, 330222, 330731, 331393]","[317374, 317974, 318574, 319174, 319774, 320374, 320974, 321574, 322222, 322831, 323438, 324061, 324691, 325313, 325899, 326499, 327112, 327752, 328365, 328952, 329546, 330138, 330727, 331310]",85,SB,L,R,ITMSR,1.1,
1,600,trial,0,10,10,10,trial,"['S', 'S', 'S', 'S', 'C', 'C', 'C', 'C', 'C', 'C', 'C', 'C', 'C', 'C', 'C', 'C', 'C', 'C', 'C', 'C']","[339219, 339888, 340467, 341064, 341682, 342294, 342917, 343508, 344134, 344764, 345392, 346033, 346686, 347270, 347890, 348567, 349164, 349808, 350447, 351074]","[339346, 340020, 340629, 341270, 341867, 342470, 343059, 343703, 344320, 344934, 345555, 346260, 346929, 347492, 348100, 348774, 349307, 349971, 350598, 351211]","[221, 61, 199, 137, 130, 115, 102, 57, 75, 50, 219, 50, 123, 80, 45, 138, 137, 75, 128, 190]","[339246, 339896, 340475, 341073, 341708, 342319, 342941, 343537, 344245, 344795, 345485, 346140, 346712, 347298, 348005, 348597, 349190, 349835, 350475, 351112]","[336882, 337482, 338082, 338682, 339282, 339883, 340482, 341082, 341702, 342315, 342937, 343528, 344154, 344784, 345412, 346053, 346706, 347290, 347910, 348588, 349185, 349828, 350467, 351094]",85,SB,L,R,ITMSR,1.1,
0,600,trial,0,11,11,11,trial,"['S', 'S', 'S', 'S', 'S', 'C', 'C', 'C', 'C', 'C', 'C', 'C', 'C', 'C', 'C', 'C', 'C', 'C', 'C', 'C', 'C']","[358416, 358940, 359540, 360148, 360764, 361355, 361978, 362548, 363165, 363742, 364355, 364902, 365542, 366123, 366706, 367301, 367907, 368503, 369090, 369701, 370312]","[358547, 359095, 359714, 360351, 360943, 361536, 362138, 362739, 363406, 363975, 364601, 365185, 365763, 366311, 366924, 367525, 368113, 368681, 369349, 369908, 370453]","[27, 156, 175, 65, 97, 49, 100, 104, 3, 7, 70, 129, 90, 81, 62, 96, 73, 149, 44, 113, 56]","[358446, 358967, 359577, 360249, 360793, 361385, 362005, 362575, 363197, 363902, 364385, 365009, 365637, 366217, 366732, 367333, 368007, 368533, 369179, 369831, 370341]","[356528, 357128, 357728, 358328, 358928, 359528, 360128, 360728, 361375, 361998, 362568, 363185, 363762, 364376, 364922, 365562, 366143, 366726, 367321, 367927, 368523, 369111, 369721, 370332]",85,SB,L,R,ITMSR,1.1,
4,600,trial,0,12,12,12,trial,"['S', 'S', 'S', 'S', 'S', 'S', 'C', 'C', 'C', 'C', 'C', 'C', 'C', 'C', 'C', 'C', 'C', 'C', 'C', 'C', 'C', 'C']","[376885, 377486, 378106, 378704, 379330, 379894, 380535, 381158, 381773, 382377, 382997, 383639, 384230, 384801, 385436, 386057, 386634, 387246, 387861, 388481, 389098, 389741]","[377044, 377619, 378236, 378816, 379480, 380067, 380691, 381365, 381996, 382572, 383208, 383789, 384440, 385015, 385634, 386249, 386908, 387505, 388106, 388690, 389308, 389990]","[159, 207, 219, 228, 197, 245, 182, 200, 175, 184, 185, 43, 139, 166, 162, 84, 113, 127, 123, 154, 120, 101]","[376913, 377512, 378133, 378729, 379357, 379955, 380542, 381182, 381870, 382472, 383089, 383664, 384256, 384903, 385528, 386074, 386659, 387416, 388027, 388508, 389189, 389766]","[375705, 376304, 376904, 377504, 378104, 378704, 379304, 379905, 380555, 381178, 381793, 382397, 383017, 383660, 384250, 384821, 385456, 386077, 386654, 387266, 387881, 388501, 389118, 389762]",85,SB,L,R,ITMSR,1.1,
5,600,trial,0,13,13,13,trial,"['S', 'S', 'S', 'S', 'S', 'S', 'C', 'C', 'C', 'C', 'C', 'C', 'C', 'C', 'C', 'C', 'C', 'C', 'C', 'C', 'C', 'C']","[396274, 396930, 397486, 398077, 398670, 399341, 399877, 400473, 401047, 401654, 402270, 402841, 403437, 404057, 404644, 405254, 405810, 406458, 407067, 407693, 408268, 408893]","[396395, 397052, 397604, 398196, 398798, 399458, 400031, 400605, 401176, 401825, 402385, 402975, 403596, 404197, 404797, 405396, 405993, 406635, 407248, 407879, 408470, 409076]","[161, 1, 36, 37, 252, 3, 59, 216, 191, 149, 129, 137, 137, 156, 209, 205, 16, 233, 195, 214, 199, 217]","[396318, 396937, 397492, 398084, 398678, 399349, 399883, 400481, 401055, 401738, 402320, 402896, 403509, 404126, 404706, 405307, 405905, 406550, 407162, 407786, 408344, 408995]","[395117, 395716, 396316, 396916, 397516, 398116, 398716, 399316, 399897, 400493, 401068, 401674, 402290, 402861, 403458, 404077, 404664, 405274, 405830, 406478, 407087, 407713, 408288, 408913]",85,SB,L,R,ITMSR,1.1,
3,400,trial,0,14,14,14,trial,"['S', 'S', 'S', 'S', 'C', 'C', 'C', 'C', 'C', 'C', 'C', 'C', 'C', 'C', 'C', 'C', 'C', 'C', 'C', 'C']","[415800, 416248, 416656, 417070, 417498, 417896, 418302, 418733, 419127, 419531, 419936, 420380, 420761, 421184, 421579, 421974, 422410, 422776, 423180, 423591]","[415941, 416400, 416802, 417240, 417629, 418070, 418455, 418881, 419292, 419662, 420068, 420493, 420882, 421319, 421758, 422103, 422489, 422895, 423297, 423729]","[6, 176, 188, 182, 166, 172, 138, 127, 105, 94, 114, 127, 122, 112, 121, 234, 253, 78, 109, 34]","[415808, 416257, 416664, 417079, 417506, 417905, 418313, 418741, 419200, 419596, 420003, 420418, 420793, 421252, 421647, 422006, 422420, 422809, 423238, 423659]","[414296, 414694, 415094, 415494, 415894, 416294, 416694, 417094, 417518, 417916, 418322, 418753, 419147, 419551, 419956, 420400, 420781, 421204, 421599, 421994, 422430, 422796, 423200, 423611]",85,SB,L,R,ITMSR,1.1,
0,600,trial,0,15,15,15,trial,"['S', 'S', 'S', 'S', 'S', 'S', 'C', 'C', 'C', 'C', 'C', 'C', 'C', 'C', 'C', 'C', 'C', 'C', 'C', 'C', 'C', 'C']","[430152, 430760, 431343, 431945, 432538, 433136, 433694, 434276, 434869, 435442, 436020, 436593, 437180, 437765, 438348, 438930, 439506, 440095, 440695, 441238, 441796, 442387]","[430240, 430862, 431437, 432074, 432666, 433251, 433830, 434414, 434990, 435567, 436173, 436723, 437304, 437886, 438450, 439086, 439632, 440220, 440807, 441365, 441963, 442583]","[174, 10, 11, 222, 15, 250, 225, 228, 200, 135, 143, 165, 142, 131, 189, 126, 150, 161, 103, 38, 74, 90]","[430160, 430766, 431351, 431953, 432545, 433143, 433701, 434283, 434876, 435451, 436030, 436601, 437242, 437775, 438356, 439002, 439516, 440102, 440704, 441315, 441876, 442459]","[428963, 429563, 430163, 430764, 431363, 431963, 432563, 433163, 433714, 434296, 434889, 435462, 436040, 436613, 437200, 437785, 438368, 438950, 439526, 440115, 440715, 441259, 441816, 442407]",85,SB,L,R,ITMSR,1.1,
5,400,trial,0,16,16,16,trial,"['S', 'S', 'S', 'S', 'S', 'S', 'C', 'C', 'C', 'C', 'C', 'C', 'C', 'C', 'C', 'C', 'C', 'C', 'C', 'C', 'C', 'C']","[448779, 449148, 449589, 450003, 450386, 450783, 451204, 451618, 451997, 452404, 452810, 453200, 453623, 454034, 454471, 454841, 455236, 455651, 456049, 456446, 456839, 457216]","[448891, 449292, 449736, 450146, 450532, 450925, 451316, 451767, 452140, 452532, 452933, 453345, 453739, 454149, 454590, 454950, 455372, 455781, 456171, 456560, 456945, 457359]","[177, 33, 192, 7, 23, 16, 230, 200, 196, 219, 186, 182, 159, 113, 163, 194, 219, 150, 170, 199, 216, 175]","[448831, 449156, 449597, 450012, 450395, 450790, 451212, 451625, 452005, 452413, 452818, 453208, 453632, 454043, 454481, 454851, 455244, 455718, 456057, 456456, 456847, 457226]","[448031, 448431, 448831, 449231, 449631, 450031, 450432, 450831, 451224, 451638, 452017, 452424, 452830, 453220, 453643, 454054, 454491, 454861, 455256, 455671, 456069, 456466, 456859, 457236]",85,SB,L,R,ITMSR,1.1,
3,600,trial,0,17,17,17,trial,"['S', 'S', 'S', 'S', 'S', 'S', 'S', 'C', 'C', 'C', 'C', 'C', 'C', 'C', 'C', 'C', 'C', 'C', 'C', 'C', 'C', 'C', 'C']","[463104, 463971, 464614, 465221, 465839, 466414, 467013, 467638, 468277, 468924, 469523, 470141, 470770, 471360, 471947, 472526, 473146, 473726, 474287, 474895, 475504, 476165, 476790]","[463133, 464062, 464709, 465320, 465957, 466531, 467165, 467750, 468391, 469075, 469678, 470282, 470895, 471467, 472077, 472630, 473265, 473826, 474386, 475011, 475637, 476278, 476898]","[95, 251, 94, 94, 38, 22, 223, 197, 200, 189, 230, 196, 198, 240, 205, 202, 129, 228, 179, 206, 105, 67, 82]","[463113, 463978, 464620, 465228, 465845, 466420, 467019, 467646, 468284, 468996, 469531, 470203, 470779, 471366, 472009, 472534, 473203, 473734, 474321, 474904, 475572, 476212, 476827]","[462831, 463431, 464031, 464631, 465231, 465831, 466432, 467032, 467658, 468297, 468944, 469543, 470161, 470790, 471380, 471967, 472546, 473166, 473746, 474307, 474915, 475524, 476185, 476810]",85,SB,L,R,ITMSR,1.1,
3,600,trial,0,18,18,18,trial,"['S', 'S', 'S', 'S', 'S', 'S', 'C', 'C', 'C', 'C', 'C', 'C', 'C', 'C', 'C', 'C', 'C', 'C', 'C', 'C', 'C', 'C']","[483550, 484190, 484795, 485395, 486013, 486614, 487203, 487824, 488464, 489074, 489663, 490286, 490901, 491501, 492083, 492686, 493296, 493898, 494526, 495138, 495718, 496272]","[483644, 484348, 484937, 485490, 486109, 486732, 487318, 487926, 488570, 489217, 489804, 490427, 491028, 491621, 492213, 492802, 493393, 494017, 494628, 495257, 495844, 496396]","[82, 48, 245, 221, 177, 129, 179, 86, 108, 120, 157, 189, 118, 182, 168, 154, 113, 203, 147, 98, 105, 151]","[483554, 484195, 484801, 485401, 486021, 486623, 487212, 487832, 488471, 489167, 489672, 490371, 490911, 491509, 492092, 492694, 493305, 493906, 494533, 495147, 495726, 496328]","[482427, 483027, 483628, 484227, 484827, 485427, 486027, 486627, 487223, 487844, 488484, 489094, 489683, 490306, 490921, 491522, 492103, 492706, 493316, 493918, 494546, 495158, 495738, 496292]",85,SB,L,R,ITMSR,1.1,
4,400,trial,0,19,19,19,trial,"['S', 'S', 'S', 'S', 'S', 'S', 'C', 'C', 'C', 'C', 'C', 'C', 'C', 'C', 'C', 'C', 'C', 'C', 'C', 'C', 'C', 'C']","[502359, 502766, 503188, 503640, 504010, 504379, 504772, 505179, 505572, 505952, 506350, 506708, 507023, 507425, 507828, 508212, 508636, 509041, 509451, 509900, 510323, 510749]","[502470, 502832, 503275, 503713, 504104, 504440, 504832, 505262, 505647, 506055, 506390, 506817, 507179, 507528, 507935, 508312, 508705, 509105, 509556, 510019, 510430, 510848]","[197, 225, 199, 17, 153, 178, 16, 221, 148, 83, 173, 71, 146, 64, 47, 19, 249, 118, 4, 19, 197, 244]","[502422, 502771, 503194, 503644, 504015, 504384, 504777, 505184, 505578, 506003, 506355, 506778, 507125, 507497, 507887, 508254, 508642, 509048, 509459, 509980, 510337, 510782]","[501622, 502022, 502422, 502822, 503222, 503622, 504023, 504422, 504792, 505199, 505592, 505972, 506370, 506728, 507043, 507445, 507848, 508232, 508656, 509061, 509471, 509920, 510343, 510769]",85,SB,L,R,ITMSR,1.1,
4,600,trial,0,20,20,20,trial,"['S', 'S', 'S', 'S', 'S', 'S', 'C', 'C', 'C', 'C', 'C', 'C', 'C', 'C', 'C', 'C', 'C', 'C', 'C', 'C', 'C', 'C']","[517436, 518094, 518707, 519309, 519919, 520497, 521122, 521704, 522336, 522950, 523577, 524154, 524784, 525412, 526019, 526594, 527201, 527828, 528434, 529034, 529644, 530201]","[517533, 518179, 518830, 519408, 520042, 520630, 521237, 521841, 522442, 523065, 523675, 524279, 524880, 525512, 526137, 526723, 527327, 527941, 528555, 529139, 529764, 530326]","[214, 228, 213, 210, 227, 227, 175, 215, 36, 134, 36, 148, 253, 147, 125, 111, 97, 90, 128, 86, 58, 99]","[517456, 518102, 518728, 519328, 519977, 520556, 521180, 521768, 522394, 523006, 523629, 524212, 524808, 525471, 526078, 526661, 527276, 527900, 528496, 529088, 529718, 530285]","[516307, 516908, 517507, 518107, 518707, 519307, 519907, 520507, 521142, 521724, 522356, 522970, 523597, 524174, 524804, 525432, 526040, 526614, 527221, 527848, 528454, 529054, 529665, 530221]",85,SB,L,R,ITMSR,1.1,
5,400,trial,0,21,21,21,trial,"['S', 'S', 'S', 'S', 'S', 'S', 'C', 'C', 'C', 'C', 'C', 'C', 'C', 'C', 'C', 'C', 'C', 'C', 'C', 'C', 'C', 'C']","[536579, 536978, 537438, 537792, 538179, 538575, 539005, 539413, 539809, 540205, 540619, 541029, 541423, 541815, 542215, 542630, 543028, 543417, 543803, 544223, 544620, 545019]","[536675, 537064, 537528, 537927, 538261, 538674, 539130, 539495, 539928, 540299, 540687, 541117, 541481, 541895, 542315, 542728, 543116, 543514, 543905, 544323, 544707, 545097]","[93, 164, 33, 164, 49, 235, 219, 197, 229, 223, 191, 171, 117, 204, 223, 243, 209, 191, 161, 139, 40, 210]","[536611, 536984, 537443, 537850, 538185, 538585, 539014, 539439, 539820, 540212, 540626, 541038, 541434, 541825, 542225, 542656, 543039, 543428, 543828, 544238, 544631, 545046]","[535837, 536237, 536637, 537037, 537437, 537837, 538237, 538637, 539025, 539433, 539829, 540225, 540639, 541049, 541443, 541835, 542235, 542650, 543048, 543437, 543823, 544243, 544641, 545039]",85,SB,L,R,ITMSR,1.1,
2,600,trial,0,22,22,22,trial,"['S', 'S', 'S', 'S', 'S', 'S', 'C', 'C', 'C', 'C', 'C', 'C', 'C', 'C', 'C', 'C', 'C', 'C', 'C', 'C', 'C', 'C']","[551748, 552342, 552976, 553571, 554178, 554753, 555394, 555990, 556597, 557209, 557861, 558470, 559051, 559633, 560224, 560840, 561445, 562032, 562700, 563291, 563837, 564441]","[551848, 552480, 553102, 553705, 554306, 554893, 555527, 556123, 556732, 557349, 557987, 558596, 559178, 559767, 560356, 560968, 561585, 562198, 562844, 563475, 564024, 564609]","[205, 227, 219, 213, 146, 230, 176, 145, 152, 173, 195, 142, 36, 76, 96, 161, 174, 170, 221, 192, 170, 139]","[551770, 552368, 552999, 553597, 554205, 554778, 555414, 556014, 556619, 557237, 557885, 558494, 559063, 559660, 560247, 560862, 561474, 562045, 562720, 563315, 563865, 564465]","[550563, 551162, 551762, 552363, 552962, 553562, 554162, 554762, 555414, 556010, 556617, 557229, 557881, 558490, 559071, 559653, 560244, 560860, 561465, 562052, 562720, 563311, 563857, 564461]",85,SB,L,R,ITMSR,1.1,
2,600,trial,0,23,23,23,trial,"['S', 'S', 'S', 'S', 'C', 'C', 'C', 'C', 'C', 'C', 'C', 'C', 'C', 'C', 'C', 'C', 'C', 'C', 'C', 'C']","[572334, 572925, 573535, 574134, 574733, 575331, 575933, 576552, 577172, 577780, 578386, 579021, 579600, 580250, 580852, 581470, 582054, 582695, 583299, 583936]","[572465, 573049, 573693, 574294, 574916, 575509, 576073, 576708, 577341, 577909, 578547, 579162, 579776, 580380, 581018, 581619, 582260, 582879, 583441, 584094]","[189, 157, 125, 91, 107, 75, 237, 250, 99, 90, 94, 27, 11, 164, 211, 190, 87, 60, 238, 13]","[572358, 572953, 573560, 574153, 574754, 575353, 575955, 576575, 577200, 577808, 578411, 579039, 579625, 580272, 580876, 581491, 582080, 582793, 583323, 583959]","[569899, 570498, 571098, 571698, 572298, 572898, 573498, 574098, 574753, 575351, 575953, 576572, 577192, 577800, 578406, 579041, 579620, 580270, 580872, 581490, 582074, 582715, 583319, 583956]",85,SB,L,R,ITMSR,1.1,
1,400,trial,0,24,24,24,trial,"['S', 'S', 'S', 'S', 'C', 'C', 'C', 'C', 'C', 'C', 'C', 'C', 'C', 'C', 'C', 'C', 'C', 'C', 'C', 'C']","[590885, 591275, 591678, 592104, 592465, 592861, 593242, 593639, 594063, 594450, 594876, 595235, 595649, 596072, 596472, 596870, 597269, 597676, 598091, 598483]","[590967, 591367, 591773, 592229, 592564, 592959, 593316, 593761, 594139, 594550, 595002, 595372, 595784, 596189, 596609, 597012, 597390, 597815, 598189, 598587]","[172, 127, 202, 212, 205, 151, 138, 220, 58, 90, 32, 122, 183, 39, 100, 146, 80, 42, 119, 10]","[590911, 591295, 591690, 592130, 592490, 592875, 593256, 593660, 594083, 594470, 594893, 595260, 595673, 596092, 596498, 596898, 597298, 597699, 598112, 598507]","[589285, 589685, 590085, 590485, 590885, 591285, 591685, 592086, 592485, 592881, 593262, 593659, 594083, 594470, 594896, 595255, 595670, 596092, 596492, 596890, 597289, 597696, 598111, 598503]",85,SB,L,R,ITMSR,1.1,
4,400,trial,0,25,25,25,trial,"['S', 'S', 'S', 'S', 'S', 'S', 'C', 'C', 'C', 'C', 'C', 'C', 'C', 'C', 'C', 'C', 'C', 'C', 'C', 'C', 'C', 'C']","[604939, 605337, 605754, 606172, 606597, 607005, 607379, 607749, 608183, 608579, 608980, 609379, 609796, 610186, 610582, 611000, 611409, 611824, 612214, 612630, 612998, 613410]","[605031, 605437, 605861, 606285, 606735, 607118, 607475, 607875, 608302, 608658, 609069, 609484, 609907, 610295, 610706, 611103, 611518, 611938, 612314, 612714, 613079, 613532]","[122, 94, 213, 10, 205, 217, 211, 211, 229, 165, 195, 216, 171, 165, 202, 173, 172, 97, 166, 115, 109, 61]","[604968, 605345, 605762, 606180, 606621, 607030, 607403, 607772, 608208, 608588, 608989, 609403, 609820, 610212, 610606, 611022, 611435, 611849, 612236, 612639, 613023, 613433]","[604190, 604590, 604990, 605390, 605790, 606190, 606590, 606990, 607399, 607769, 608203, 608600, 609000, 609399, 609816, 610206, 610603, 611020, 611429, 611844, 612234, 612651, 613018, 613430]",85,SB,L,R,ITMSR,1.1,
2,400,trial,0,26,26,26,trial,"['S', 'S', 'S', 'S', 'S', 'S', 'C', 'C', 'C', 'C', 'C', 'C', 'C', 'C', 'C', 'C', 'C', 'C', 'C', 'C', 'C', 'C']","[619490, 619939, 620358, 620788, 621201, 621575, 621947, 622366, 622780, 623199, 623610, 624008, 624418, 624824, 625239, 625655, 626062, 626490, 626880, 627284, 627661, 628071]","[619597, 620025, 620443, 620889, 621307, 621680, 622064, 622493, 622894, 623310, 623712, 624128, 624520, 624944, 625356, 625754, 626182, 626583, 626967, 627372, 627766, 628197]","[108, 247, 89, 23, 14, 16, 25, 252, 8, 7, 20, 239, 52, 48, 2, 48, 62, 61, 1, 70, 30, 31]","[619518, 619945, 620363, 620795, 621208, 621580, 621955, 622374, 622788, 623208, 623631, 624016, 624425, 624831, 625248, 625662, 626069, 626497, 626888, 627292, 627668, 628078]","[618783, 619183, 619583, 619983, 620383, 620783, 621184, 621583, 621967, 622386, 622800, 623219, 623630, 624028, 624438, 624844, 625259, 625675, 626082, 626510, 626900, 627304, 627681, 628091]",85,SB,L,R,ITMSR,1.1,
1,400,trial,0,27,27,27,trial,"['S', 'S', 'S', 'S', 'S', 'S', 'C', 'C', 'C', 'C', 'C', 'C', 'C', 'C', 'C', 'C', 'C', 'C', 'C', 'C', 'C', 'C']","[634339, 634760, 635169, 635559, 635939, 636352, 636763, 637168, 637579, 637970, 638363, 638760, 639187, 639563, 639963, 640351, 640758, 641134, 641556, 641960, 642396, 642733]","[634399, 634845, 635245, 635665, 636033, 636450, 636837, 637273, 637660, 638038, 638448, 638840, 639273, 639632, 640049, 640447, 640872, 641238, 641666, 642062, 642466, 642839]","[30, 43, 61, 32, 30, 6, 31, 255, 24, 28, 71, 36, 38, 71, 53, 10, 59, 29, 57, 54, 45, 22]","[634344, 634765, 635174, 635566, 635945, 636358, 636769, 637174, 637594, 637975, 638375, 638766, 639194, 639577, 639977, 640357, 640772, 641144, 641562, 641975, 642403, 642753]","[633583, 633984, 634383, 634783, 635183, 635583, 635983, 636383, 636783, 637188, 637599, 637990, 638383, 638780, 639207, 639583, 639983, 640371, 640778, 641154, 641576, 641980, 642416, 642753]",85,SB,L,R,ITMSR,1.1,
0,400,trial,0,28,28,28,trial,"['S', 'S', 'S', 'S', 'S', 'S', 'S', 'S', 'C', 'C', 'C', 'C', 'C', 'C', 'C', 'C', 'C', 'C', 'C', 'C', 'C', 'C', 'C', 'C']","[648201, 648452, 648862, 649300, 649706, 650096, 650483, 650892, 651324, 651708, 652122, 652513, 652901, 653294, 653698, 654100, 654503, 654901, 655306, 655675, 656080, 656489, 656889, 657277]","[648280, 648508, 648950, 649398, 649795, 650184, 650586, 650998, 651411, 651834, 652219, 652615, 652997, 653408, 653797, 654192, 654628, 654970, 655383, 655774, 656194, 656621, 656988, 657385]","[116, 117, 0, 232, 227, 234, 74, 250, 134, 252, 29, 231, 60, 15, 6, 215, 31, 24, 16, 37, 217, 249, 230, 55]","[648231, 648461, 648868, 649307, 649713, 650102, 650488, 650901, 651331, 651715, 652129, 652520, 652907, 653300, 653704, 654106, 654510, 654907, 655316, 655681, 656095, 656517, 656899, 657285]","[648114, 648513, 648913, 649313, 649713, 650114, 650514, 650914, 651344, 651728, 652142, 652533, 652921, 653314, 653718, 654120, 654523, 654921, 655326, 655695, 656100, 656509, 656909, 657297]",85,SB,L,R,ITMSR,1.1,
2,400,trial,0,29,29,29,trial,"['S', 'S', 'S', 'S', 'S', 'S', 'C', 'C', 'C', 'C', 'C', 'C', 'C', 'C', 'C', 'C', 'C', 'C', 'C', 'C', 'C', 'C']","[663786, 664251, 664672, 665072, 665437, 665840, 666259, 666655, 667053, 667437, 667875, 668293, 668675, 669088, 669473, 669862, 670272, 670668, 671048, 671470, 671827, 672231]","[663865, 664315, 664735, 665150, 665511, 665910, 666329, 666726, 667134, 667518, 667954, 668364, 668766, 669172, 669551, 669943, 670348, 670749, 671140, 671541, 671904, 672315]","[135, 121, 64, 79, 80, 99, 102, 102, 107, 105, 91, 99, 92, 105, 79, 88, 79, 83, 95, 90, 81, 90]","[663791, 664255, 664676, 665077, 665444, 665845, 666265, 666660, 667058, 667442, 667882, 668299, 668681, 669095, 669480, 669869, 670279, 670676, 671055, 671476, 671835, 672238]","[663072, 663472, 663872, 664272, 664672, 665072, 665473, 665872, 666279, 666675, 667073, 667457, 667895, 668313, 668695, 669108, 669493, 669882, 670292, 670688, 671068, 671490, 671847, 672251]",85,SB,L,R,ITMSR,1.1,
5,400,trial,0,30,30,30,trial,"['S', 'S', 'S', 'S', 'C', 'C', 'C', 'C', 'C', 'C', 'C', 'C', 'C', 'C', 'C', 'C', 'C', 'C', 'C', 'C']","[686594, 686983, 687411, 687805, 688228, 688630, 689039, 689431, 689826, 690225, 690621, 691021, 691415, 691795, 692180, 692582, 692954, 693360, 693739, 694092]","[686688, 687141, 687495, 687893, 688305, 688709, 689114, 689523, 689918, 690325, 690709, 691102, 691483, 691897, 692272, 692639, 693032, 693430, 693827, 694171]","[79, 26, 69, 60, 84, 61, 73, 72, 74, 51, 72, 63, 47, 52, 71, 85, 79, 80, 76, 60]","[686599, 686991, 687418, 687811, 688233, 688635, 689044, 689436, 689831, 690230, 690626, 691027, 691420, 691802, 692186, 692587, 692960, 693366, 693744, 694098]","[685047, 685447, 685847, 686247, 686647, 687047, 687448, 687848, 688248, 688650, 689059, 689452, 689846, 690245, 690641, 691041, 691435, 691815, 692200, 692602, 692974, 693380, 693760, 694112]",85,SB,L,R,ITMSR,1.1,
1,600,trial,0,31,31,31,trial,"['S', 'S', 'S', 'S', 'C', 'C', 'C', 'C', 'C', 'C', 'C', 'C', 'C', 'C', 'C', 'C', 'C', 'C', 'C', 'C']","[701855, 702470, 703057, 703703, 704280, 704903, 705512, 706128, 706737, 707324, 707963, 708597, 709181, 709779, 710374, 710971, 711599, 712228, 712830, 713432]","[701938, 702581, 703147, 703799, 704382, 705005, 705645, 706232, 706810, 707410, 708039, 708673, 709272, 709864, 710478, 711056, 711671, 712338, 712946, 713534]","[88, 63, 70, 80, 96, 79, 91, 88, 74, 5, 54, 83, 86, 58, 85, 87, 79, 65, 95, 99]","[701861, 702476, 703065, 703708, 704285, 704909, 705517, 706135, 706744, 707332, 707970, 708604, 709187, 709786, 710381, 710976, 711604, 712235, 712836, 713437]","[699490, 700090, 700690, 701290, 701890, 702490, 703090, 703690, 704301, 704923, 705532, 706148, 706757, 707344, 707983, 708617, 709201, 709799, 710394, 710991, 711619, 712248, 712850, 713452]",85,SB,L,R,ITMSR,1.1,
3,600,trial,0,32,32,32,trial,"['S', 'S', 'S', 'S', 'C', 'C', 'C', 'C', 'C', 'C', 'C', 'C', 'C', 'C', 'C', 'C', 'C', 'C', 'C', 'C']","[721350, 721957, 722562, 723185, 723792, 724410, 725027, 725615, 726210, 726845, 727480, 728089, 728726, 729345, 729959, 730573, 731183, 731798, 732370, 733007]","[721428, 722054, 722664, 723283, 723883, 724499, 725109, 725725, 726294, 726933, 727577, 728202, 728811, 729432, 730036, 730629, 731244, 731877, 732455, 733101]","[81, 84, 71, 90, 74, 66, 66, 103, 84, 98, 61, 228, 40, 42, 66, 43, 20, 81, 54, 14]","[721354, 721963, 722568, 723190, 723798, 724415, 725032, 725619, 726216, 726849, 727488, 728097, 728733, 729351, 729966, 730580, 731191, 731804, 732377, 733015]","[719006, 719606, 720206, 720806, 721406, 722007, 722606, 723206, 723812, 724430, 725047, 725635, 726231, 726865, 727500, 728109, 728747, 729365, 729979, 730593, 731203, 731819, 732390, 733027]",85,SB,L,R,ITMSR,1.1,
2,400,trial,0,33,33,33,trial,"['S', 'S', 'S', 'S', 'C', 'C', 'C', 'C', 'C', 'C', 'C', 'C', 'C', 'C', 'C', 'C', 'C', 'C', 'C', 'C']","[739921, 740320, 740736, 741146, 741548, 741936, 742335, 742739, 743162, 743580, 743984, 744394, 744790, 745208, 745612, 746019, 746436, 746829, 747253, 747630]","[739974, 740385, 740816, 741215, 741628, 742017, 742410, 742818, 743244, 743667, 744067, 744468, 744877, 745307, 745693, 746094, 746511, 746899, 747335, 747718]","[97, 112, 109, 103, 98, 96, 103, 98, 111, 110, 103, 100, 102, 84, 97, 108, 114, 103, 112, 85]","[739928, 740325, 740740, 741150, 741554, 741942, 742341, 742746, 743168, 743586, 743989, 744400, 744796, 745216, 745618, 746024, 746441, 746835, 747259, 747635]","[738347, 738746, 739146, 739546, 739946, 740346, 740746, 741146, 741568, 741956, 742355, 742759, 743182, 743600, 744004, 744414, 744810, 745228, 745632, 746039, 746456, 746849, 747273, 747650]",85,SB,L,R,ITMSR,1.1,
0,600,trial,0,34,34,34,trial,"['S', 'S', 'S', 'S', 'S', 'S', 'C', 'C', 'C', 'C', 'C', 'C', 'C', 'C', 'C', 'C', 'C', 'C', 'C', 'C', 'C', 'C']","[754329, 754893, 755473, 756093, 756662, 757254, 757855, 758428, 759020, 759591, 760186, 760788, 761363, 761958, 762526, 763118, 763723, 764284, 764863, 765517, 766105, 766684]","[754407, 754987, 755566, 756199, 756771, 757351, 758016, 758524, 759143, 759713, 760299, 760901, 761447, 761978, 762629, 763238, 763797, 764380, 764920, 765540, 766193, 766728]","[110, 129, 110, 89, 75, 24, 1, 107, 18, 34, 63, 216, 17, 89, 6, 53, 227, 254, 84, 72, 101, 157]","[754332, 754897, 755477, 756098, 756667, 757259, 757860, 758434, 759026, 759599, 760192, 760796, 761369, 761961, 762532, 763124, 763729, 764292, 764871, 765524, 766113, 766689]","[753093, 753693, 754293, 754893, 755493, 756093, 756694, 757293, 757875, 758448, 759041, 759611, 760206, 760808, 761383, 761978, 762546, 763138, 763743, 764304, 764883, 765537, 766125, 766704]",85,SB,L,R,ITMSR,1.1,
4,400,trial,0,35,35,35,trial,"['S', 'S', 'S', 'S', 'C', 'C', 'C', 'C', 'C', 'C', 'C', 'C', 'C', 'C', 'C', 'C', 'C', 'C', 'C', 'C']","[773968, 774387, 774774, 775149, 775555, 775995, 776396, 776795, 777189, 777583, 777999, 778369, 778777, 779161, 779561, 779952, 780345, 780801, 781149, 781554]","[774033, 774446, 774866, 775262, 775646, 776070, 776461, 776856, 777253, 777639, 778068, 778446, 778872, 779267, 779635, 780069, 780459, 780846, 781225, 781639]","[105, 61, 84, 75, 60, 37, 22, 14, 54, 63, 51, 70, 71, 53, 64, 235, 42, 69, 204, 16]","[773972, 774393, 774780, 775156, 775563, 776003, 776404, 776802, 777196, 777590, 778007, 778377, 778785, 779169, 779570, 779960, 780352, 780809, 781156, 781562]","[772403, 772803, 773203, 773603, 774003, 774403, 774803, 775203, 775575, 776015, 776416, 776815, 777209, 777603, 778019, 778389, 778797, 779181, 779581, 779972, 780365, 780821, 781169, 781574]",85,SB,L,R,ITMSR,1.1,
5,600,trial,0,36,36,36,trial,"['S', 'S', 'S', 'S', 'S', 'S', 'C', 'C', 'C', 'C', 'C', 'C', 'C', 'C', 'C', 'C', 'C', 'C', 'C', 'C', 'C', 'C']","[788160, 788753, 789355, 789965, 790553, 791162, 791736, 792328, 792969, 793559, 794142, 794771, 795376, 795953, 796556, 797165, 797734, 798330, 798931, 799532, 800124, 800678]","[788220, 788818, 789430, 790065, 790657, 791261, 791838, 792407, 793051, 793671, 794244, 794847, 795456, 796044, 796642, 797279, 797834, 798453, 799013, 799612, 800208, 800780]","[95, 92, 65, 251, 59, 5, 85, 82, 219, 62, 77, 58, 62, 56, 76, 45, 67, 56, 32, 59, 67, 79]","[788165, 788759, 789360, 789974, 790558, 791170, 791741, 792335, 792977, 793565, 794149, 794777, 795383, 795958, 796561, 797172, 797741, 798336, 798938, 799538, 800131, 800685]","[786973, 787573, 788173, 788773, 789373, 789974, 790573, 791173, 791756, 792348, 792989, 793579, 794162, 794791, 795396, 795973, 796576, 797186, 797754, 798350, 798951, 799552, 800144, 800698]",85,SB,L,R,ITMSR,1.1,
3,400,trial,0,37,37,37,trial,"['S', 'S', 'S', 'S', 'C', 'C', 'C', 'C', 'C', 'C', 'C', 'C', 'C', 'C', 'C', 'C', 'C', 'C', 'C', 'C']","[807631, 808024, 808422, 808803, 809206, 809616, 810036, 810423, 810853, 811255, 811689, 812080, 812475, 812887, 813285, 813677, 814118, 814541, 814943, 815357]","[807678, 808100, 808471, 808884, 809275, 809692, 810099, 810527, 810929, 811361, 811769, 812166, 812572, 813001, 813372, 813774, 814138, 814613, 815023, 815433]","[84, 70, 87, 59, 37, 37, 26, 51, 51, 24, 39, 35, 19, 235, 111, 195, 31, 159, 40, 60]","[807638, 808030, 808428, 808810, 809214, 809623, 810044, 810431, 810860, 811264, 811700, 812091, 812484, 812896, 813290, 813685, 814126, 814550, 814950, 815366]","[806041, 806441, 806841, 807241, 807641, 808041, 808441, 808841, 809226, 809636, 810056, 810443, 810873, 811275, 811709, 812100, 812495, 812907, 813305, 813698, 814138, 814561, 814963, 815377]",85,SB,L,R,ITMSR,1.1,
1,400,trial,0,38,38,38,trial,"['S', 'S', 'S', 'S', 'C', 'C', 'C', 'C', 'C', 'C', 'C', 'C', 'C', 'C', 'C', 'C', 'C', 'C', 'C', 'C']","[822589, 822996, 823397, 823783, 824158, 824560, 824979, 825371, 825783, 826196, 826592, 827005, 827372, 827770, 828186, 828583, 829017, 829428, 829820, 830257]","[822663, 823077, 823479, 823889, 824243, 824645, 825062, 825482, 825888, 826302, 826683, 827103, 827482, 827884, 828320, 828685, 829094, 829523, 829917, 830369]","[71, 65, 59, 20, 54, 52, 64, 3, 29, 18, 254, 229, 250, 223, 208, 229, 202, 195, 240, 251]","[822594, 823003, 823403, 823789, 824164, 824566, 824985, 825378, 825790, 826205, 826599, 827013, 827379, 827778, 828194, 828592, 829026, 829435, 829831, 830266]","[821023, 821423, 821823, 822223, 822623, 823023, 823424, 823823, 824178, 824580, 824999, 825391, 825803, 826216, 826612, 827025, 827393, 827790, 828206, 828603, 829037, 829448, 829840, 830277]",85,SB,L,R,ITMSR,1.1,
1,400,trial,0,39,39,39,trial,"['S', 'S', 'S', 'S', 'C', 'C', 'C', 'C', 'C', 'C', 'C', 'C', 'C', 'C', 'C', 'C', 'C', 'C', 'C', 'C']","[837233, 837645, 838049, 838434, 838828, 839228, 839617, 839999, 840417, 840848, 841222, 841616, 842009, 842418, 842817, 843213, 843585, 843993, 844418, 844814]","[837325, 837728, 838122, 838520, 838912, 839319, 839700, 840095, 840510, 840930, 841314, 841703, 842108, 842497, 842910, 843350, 843672, 844115, 844521, 844933]","[80, 51, 0, 31, 44, 50, 26, 24, 28, 35, 12, 16, 21, 25, 29, 225, 19, 20, 19, 11]","[837238, 837650, 838057, 838440, 838834, 839235, 839624, 840007, 840424, 840857, 841230, 841623, 842016, 842425, 842825, 843223, 843594, 844001, 844426, 844824]","[835645, 836045, 836445, 836845, 837245, 837645, 838045, 838445, 838848, 839248, 839638, 840019, 840437, 840868, 841242, 841636, 842029, 842438, 842838, 843233, 843606, 844013, 844438, 844834]",85,SB,L,R,ITMSR,1.1,
2,600,trial,0,40,40,40,trial,"['S', 'S', 'S', 'S', 'S', 'S', 'C', 'C', 'C', 'C', 'C', 'C', 'C', 'C', 'C', 'C', 'C', 'C', 'C', 'C', 'C', 'C']","[851353, 851966, 852597, 853271, 853826, 854406, 855006, 855595, 856187, 856818, 857356, 857895, 858444, 859032, 859638, 860238, 860797, 861350, 861918, 862499, 863045, 863605]","[851456, 852051, 852690, 853363, 853978, 854536, 855116, 855747, 856307, 856931, 857505, 858075, 858590, 859165, 859781, 860363, 860928, 861499, 862069, 862679, 863214, 863751]","[252, 80, 87, 68, 75, 95, 58, 68, 48, 10, 61, 16, 68, 29, 59, 65, 62, 71, 33, 72, 78, 59]","[851379, 851972, 852602, 853278, 853832, 854411, 855012, 855601, 856194, 856826, 857362, 857904, 858451, 859038, 859644, 860247, 860805, 861358, 861926, 862504, 863051, 863611]","[850223, 850823, 851423, 852023, 852623, 853223, 853823, 854423, 855026, 855615, 856207, 856838, 857376, 857915, 858464, 859053, 859658, 860258, 860817, 861370, 861938, 862519, 863065, 863625]",85,SB,L,R,ITMSR,1.1,
4,400,trial,0,41,41,41,trial,"['S', 'S', 'S', 'S', 'C', 'C', 'C', 'C', 'C', 'C', 'C', 'C', 'C', 'C', 'C', 'C', 'C', 'C', 'C', 'C']","[870571, 870946, 871346, 871780, 872189, 872590, 872982, 873375, 873786, 874180, 874591, 874968, 875395, 875784, 876190, 876577, 876980, 877367, 877778, 878174]","[870673, 871081, 871506, 871923, 872349, 872734, 873143, 873535, 873951, 874377, 874739, 875144, 875544, 875933, 876332, 876718, 877119, 877516, 877935, 878346]","[26, 30, 239, 235, 168, 126, 122, 143, 106, 108, 100, 153, 123, 96, 135, 117, 83, 89, 94, 118]","[870576, 870950, 871351, 871787, 872198, 872599, 872990, 873383, 873795, 874189, 874664, 875048, 875404, 875792, 876199, 876584, 877052, 877375, 877851, 878257]","[869063, 869464, 869864, 870264, 870664, 871064, 871464, 871864, 872209, 872610, 873003, 873395, 873806, 874200, 874611, 874988, 875415, 875804, 876210, 876597, 877000, 877387, 877798, 878194]",85,SB,L,R,ITMSR,1.1,
5,600,trial,0,42,42,42,trial,"['S', 'S', 'S', 'S', 'S', 'S', 'C', 'C', 'C', 'C', 'C', 'C', 'C', 'C', 'C', 'C', 'C', 'C', 'C', 'C', 'C', 'C']","[884899, 885473, 886075, 886638, 887250, 887871, 888427, 888934, 889519, 890095, 890657, 891206, 891798, 892400, 892949, 893491, 894078, 894675, 895272, 895859, 896377, 896930]","[884999, 885618, 886245, 886819, 887399, 888014, 888609, 889106, 889731, 890303, 890875, 891403, 891987, 892580, 893172, 893786, 894328, 894894, 895469, 896055, 896627, 897139]","[4, 202, 215, 69, 3, 220, 26, 13, 238, 48, 60, 210, 53, 243, 7, 78, 47, 104, 239, 21, 252, 2]","[884904, 885480, 886082, 886648, 887259, 887945, 888516, 889001, 889630, 890221, 890782, 891320, 891904, 892481, 893064, 893684, 894233, 894701, 895377, 895965, 896523, 897045]","[883717, 884317, 884917, 885517, 886117, 886717, 887317, 887917, 888448, 888954, 889539, 890115, 890677, 891226, 891819, 892420, 892969, 893511, 894098, 894695, 895292, 895879, 896397, 896950]",85,SB,L,R,ITMSR,1.1,
0,600,trial,0,43,43,43,trial,"['S', 'S', 'S', 'S', 'S', 'S', 'C', 'C', 'C', 'C', 'C', 'C', 'C', 'C', 'C', 'C', 'C', 'C', 'C', 'C', 'C', 'C']","[903891, 904436, 905044, 905658, 906243, 906863, 907486, 908081, 908657, 909236, 909883, 910418, 911029, 911605, 912256, 912840, 913443, 913981, 915275, 916127, 926452, 926999]","[904041, 904567, 905202, 905864, 906429, 907035, 907664, 908254, 908815, 909433, 910070, 910664, 911190, 911771, 912434, 913089, 913673, 914192, 915499, 916298, 926574, 927243]","[90, 169, 110, 10, 10, 90, 111, 245, 200, 26, 184, 53, 4, 49, 6, 92, 26, 10, 27, 195, 85, 82]","[903897, 904440, 905052, 905666, 906251, 906872, 907495, 908089, 908667, 909243, 909977, 910523, 911100, 911685, 912332, 912982, 913569, 914101, 915372, 916246, 926536, 927062]","[902694, 903294, 903895, 904494, 905094, 905694, 906294, 906894, 907506, 908101, 908677, 909256, 909903, 910438, 911049, 911625, 912276, 912860, 913463, 914001, 915295, 916147, 926472, 927020]",85,SB,L,R,ITMSR,1.1,
3,400,trial,0,44,44,44,trial,"['S', 'S', 'S', 'S', 'C', 'C', 'C', 'C', 'C', 'C', 'C', 'C', 'C', 'C', 'C', 'C', 'C', 'C', 'C', 'C']","[934164, 934569, 934988, 935403, 935797, 936216, 936634, 937015, 937395, 937771, 938161, 938572, 938994, 939378, 939766, 940145, 940559, 940999, 941383, 941797]","[934265, 934675, 935092, 935496, 935902, 936335, 936796, 937114, 937545, 937926, 938271, 938676, 939104, 939509, 939875, 940281, 940706, 941107, 941497, 941907]","[66, 99, 107, 54, 168, 33, 249, 22, 32, 21, 61, 37, 115, 15, 66, 91, 118, 94, 20, 230]","[934171, 934577, 934998, 935410, 935804, 936225, 936643, 937022, 937457, 937850, 938231, 938635, 939059, 939442, 939825, 940151, 940632, 941005, 941453, 941805]","[932628, 933028, 933428, 933828, 934228, 934628, 935028, 935428, 935817, 936237, 936654, 937035, 937415, 937791, 938181, 938592, 939014, 939398, 939786, 940165, 940579, 941019, 941403, 941817]",85,SB,L,R,ITMSR,1.1,
4,600,trial,0,45,45,45,trial,"['S', 'S', 'S', 'S', 'S', 'S', 'C', 'C', 'C', 'C', 'C', 'C', 'C', 'C', 'C', 'C', 'C', 'C', 'C', 'C', 'C', 'C']","[948462, 949062, 949699, 950300, 950900, 951479, 952056, 952593, 953197, 953788, 954363, 954896, 955424, 955996, 956570, 957113, 957650, 958256, 958872, 959435, 960003, 960546]","[948548, 949206, 949849, 950460, 951099, 951633, 952223, 952796, 953376, 953929, 954542, 955053, 955676, 956133, 956747, 957282, 957839, 958416, 959051, 959650, 960181, 960688]","[173, 181, 109, 224, 148, 171, 201, 158, 106, 196, 203, 106, 63, 162, 165, 54, 148, 144, 148, 161, 161, 173]","[948468, 949068, 949705, 950377, 950987, 951561, 952065, 952708, 953299, 953851, 954467, 954905, 955578, 956064, 956660, 957204, 957771, 958343, 958949, 959550, 960097, 960628]","[947340, 947940, 948540, 949140, 949740, 950340, 950940, 951540, 952076, 952613, 953218, 953808, 954383, 954916, 955444, 956016, 956590, 957133, 957670, 958276, 958893, 959455, 960023, 960566]",85,SB,L,R,ITMSR,1.1,
4,600,trial,0,46,46,46,trial,"['S', 'S', 'S', 'S', 'S', 'S', 'C', 'C', 'C', 'C', 'C', 'C', 'C', 'C', 'C', 'C', 'C', 'C', 'C', 'C', 'C', 'C']","[967252, 967836, 968446, 969028, 969645, 970211, 970857, 971425, 972064, 972661, 973229, 973790, 974356, 974964, 975557, 976136, 976746, 977333, 977932, 978515, 979089, 979792]","[967402, 968003, 968603, 969252, 969790, 970383, 971042, 971621, 972248, 972862, 973572, 973980, 974658, 975248, 975796, 976474, 977054, 977644, 978171, 978750, 979367, 980001]","[173, 164, 92, 140, 19, 156, 81, 84, 114, 95, 96, 55, 180, 161, 69, 175, 175, 168, 182, 177, 163, 118]","[967331, 967904, 968515, 969140, 969737, 970301, 970949, 971515, 972171, 972766, 973338, 973873, 974528, 975141, 975665, 976289, 976901, 977459, 978081, 978644, 979235, 979910]","[966132, 966731, 967331, 967931, 968531, 969132, 969731, 970331, 970877, 971445, 972084, 972681, 973249, 973810, 974376, 974984, 975577, 976156, 976766, 977353, 977952, 978535, 979109, 979812]",85,SB,L,R,ITMSR,1.1,
1,600,trial,0,47,47,47,trial,"['B', 'S', 'S', 'S', 'S', 'S', 'S', 'S', 'S', 'S', 'C', 'C', 'C', 'C', 'C', 'C', 'C', 'C', 'C', 'C', 'C', 'C', 'C', 'C', 'C', 'C']","[985425, 985567, 985762, 986109, 986589, 987235, 987774, 988375, 988973, 989539, 990191, 990817, 991446, 992088, 992736, 993254, 993823, 994446, 995019, 995589, 996180, 996784, 997407, 997976, 998602, 999235]","[985457, 985637, 985849, 986213, 986721, 987394, 988036, 988651, 989286, 989808, 990467, 991118, 991685, 992325, 992952, 993529, 994113, 994665, 995254, 995826, 996386, 996982, 997591, 998220, 998805, 999451]","[133, 202, 210, 80, 249, 174, 121, 70, 234, 31, 240, 254, 24, 223, 251, 4, 227, 6, 204, 19, 24, 198, 215, 220, 214, 195]","[985425, 985603, 985773, 986117, 986594, 987242, 987781, 988382, 989110, 989727, 990331, 990991, 991584, 992251, 992744, 993423, 993994, 994558, 995030, 995735, 996305, 996881, 997489, 998136, 998706, 999337]","[985439, 986038, 986638, 987238, 987838, 988438, 989038, 989638, 990211, 990837, 991466, 992108, 992756, 993274, 993843, 994466, 995039, 995609, 996200, 996804, 997427, 997996, 998622, 999256]",85,SB,L,R,ITMSR,1.1,
0,400,trial,0,48,48,48,trial,"['B', 'S', 'S', 'S', 'S', 'C', 'C', 'C', 'C', 'C', 'C', 'C', 'C', 'C', 'C', 'C', 'C', 'C', 'C', 'C', 'C']","[1004892, 1006431, 1006877, 1007327, 1007722, 1008102, 1008464, 1008889, 1009290, 1009719, 1010161, 1010629, 1011028, 1011436, 1011795, 1012191, 1012587, 1013001, 1013447, 1013830, 1014199]","[1005523, 1006546, 1007011, 1007484, 1007878, 1008253, 1008643, 1009084, 1009505, 1009891, 1010345, 1010812, 1011203, 1011615, 1012039, 1012376, 1012719, 1013168, 1013619, 1014037, 1014389]","[31, 146, 105, 229, 41, 99, 101, 201, 236, 207, 168, 128, 211, 230, 242, 128, 191, 188, 177, 147, 204]","[1005203, 1006436, 1006884, 1007336, 1007731, 1008109, 1008472, 1008899, 1009421, 1009799, 1010248, 1010754, 1011125, 1011543, 1011950, 1012276, 1012633, 1013085, 1013508, 1013947, 1014298]","[1004902, 1005302, 1005702, 1006102, 1006502, 1006902, 1007302, 1007703, 1008122, 1008484, 1008909, 1009310, 1009739, 1010181, 1010649, 1011048, 1011457, 1011815, 1012211, 1012608, 1013021, 1013467, 1013850, 1014219]",85,SB,L,R,ITMSR,1.1,
2,400,trial,0,49,49,49,trial,"['S', 'S', 'S', 'S', 'S', 'S', 'S', 'S', 'C', 'C', 'C', 'C', 'C', 'C', 'C', 'C', 'C', 'C', 'C', 'C', 'C', 'C', 'C', 'C']","[1019854, 1020055, 1020607, 1020949, 1021335, 1021737, 1022163, 1022573, 1022936, 1023323, 1023754, 1024152, 1024561, 1024992, 1025398, 1025800, 1026231, 1026597, 1026978, 1027389, 1027808, 1028224, 1028669, 1029078]","[1019916, 1020135, 1020704, 1021047, 1021475, 1021900, 1022324, 1022759, 1023111, 1023529, 1023930, 1024351, 1024749, 1025168, 1025567, 1026007, 1026366, 1026771, 1027160, 1027573, 1027960, 1028423, 1028834, 1029266]","[161, 200, 200, 99, 190, 164, 108, 21, 60, 242, 241, 5, 8, 16, 183, 212, 245, 217, 187, 242, 197, 246, 189, 168]","[1019889, 1020099, 1020615, 1020955, 1021342, 1021744, 1022171, 1022691, 1022944, 1023441, 1023763, 1024270, 1024687, 1025112, 1025406, 1025940, 1026299, 1026696, 1027078, 1027502, 1027885, 1028320, 1028677, 1029183]","[1019749, 1020149, 1020549, 1020949, 1021349, 1021749, 1022149, 1022550, 1022956, 1023343, 1023774, 1024173, 1024581, 1025012, 1025418, 1025820, 1026251, 1026617, 1026998, 1027409, 1027828, 1028244, 1028689, 1029098]",85,SB,L,R,ITMSR,1.1,
0,400,trial,0,50,50,50,trial,"['S', 'S', 'S', 'S', 'S', 'S', 'C', 'C', 'C', 'C', 'C', 'C', 'C', 'C', 'C', 'C', 'C', 'C', 'C', 'C', 'C', 'C']","[1035140, 1035593, 1036000, 1036387, 1036828, 1037201, 1037634, 1038024, 1038432, 1038821, 1039192, 1039553, 1039947, 1040394, 1040816, 1041206, 1041576, 1042016, 1042406, 1042796, 1043192, 1043581]","[1035244, 1035708, 1036148, 1036527, 1036932, 1037325, 1037765, 1038176, 1038558, 1038912, 1039311, 1039677, 1040108, 1040542, 1040996, 1041367, 1041779, 1042189, 1042581, 1042968, 1043343, 1043743]","[90, 161, 49, 27, 100, 230, 4, 76, 161, 166, 174, 92, 159, 231, 1, 91, 232, 153, 19, 170, 121, 136]","[1035146, 1035599, 1036007, 1036396, 1036834, 1037209, 1037642, 1038108, 1038504, 1038829, 1039201, 1039562, 1040037, 1040475, 1040907, 1041293, 1041701, 1042116, 1042509, 1042882, 1043277, 1043674]","[1034426, 1034826, 1035226, 1035626, 1036026, 1036426, 1036826, 1037227, 1037655, 1038044, 1038452, 1038841, 1039212, 1039574, 1039967, 1040414, 1040836, 1041226, 1041596, 1042036, 1042426, 1042817, 1043212, 1043601]",85,SB,L,R,ITMSR,1.1,
2,600,trial,0,51,51,51,trial,"['S', 'S', 'S', 'S', 'S', 'S', 'C', 'C', 'C', 'C', 'C', 'C', 'C', 'C', 'C', 'C', 'C', 'C', 'C', 'C', 'C', 'C']","[1050201, 1050827, 1051418, 1052027, 1052603, 1053229, 1053804, 1054473, 1055060, 1055626, 1056185, 1056731, 1057248, 1057807, 1058342, 1058816, 1059342, 1059843, 1060358, 1060904, 1061438, 1061933]","[1050297, 1050967, 1051574, 1052186, 1052754, 1053392, 1054000, 1054671, 1055318, 1055827, 1056384, 1056904, 1057405, 1057983, 1058526, 1058981, 1059514, 1060000, 1060533, 1061089, 1061624, 1062120]","[209, 132, 80, 92, 163, 117, 115, 141, 166, 45, 119, 132, 44, 51, 117, 111, 166, 106, 117, 144, 185, 183]","[1050207, 1050832, 1051424, 1052111, 1052611, 1053302, 1053883, 1054579, 1055192, 1055711, 1056277, 1056837, 1057327, 1057909, 1058447, 1058869, 1059350, 1059899, 1060443, 1061008, 1061550, 1062050]","[1049091, 1049690, 1050290, 1050890, 1051490, 1052090, 1052690, 1053290, 1053825, 1054493, 1055080, 1055646, 1056205, 1056751, 1057268, 1057827, 1058362, 1058836, 1059362, 1059863, 1060378, 1060924, 1061458, 1061953]",85,SB,L,R,ITMSR,1.1,
5,400,trial,0,52,52,52,trial,"['S', 'S', 'S', 'S', 'S', 'C', 'C', 'C', 'C', 'C', 'C', 'C', 'C', 'C', 'C', 'C', 'C', 'C', 'C', 'C', 'C']","[1067558, 1068812, 1069250, 1069633, 1070055, 1070475, 1070920, 1071414, 1071831, 1072270, 1072709, 1073096, 1073524, 1073906, 1074310, 1074679, 1075073, 1075445, 1075848, 1076232, 1076665]","[1067580, 1068919, 1069382, 1069791, 1070196, 1070609, 1071085, 1071535, 1072022, 1072389, 1072858, 1073265, 1073661, 1074033, 1074442, 1074822, 1075229, 1075599, 1076023, 1076393, 1076800]","[20, 224, 144, 133, 118, 104, 96, 34, 118, 137, 141, 143, 128, 131, 121, 102, 116, 160, 185, 172, 133]","[1067571, 1068819, 1069259, 1069641, 1070127, 1070538, 1070995, 1071455, 1071925, 1072279, 1072716, 1073199, 1073531, 1073915, 1074318, 1074749, 1075148, 1075456, 1075947, 1076312, 1076675]","[1067295, 1067695, 1068095, 1068495, 1068895, 1069295, 1069696, 1070095, 1070495, 1070940, 1071434, 1071851, 1072290, 1072729, 1073116, 1073544, 1073926, 1074330, 1074699, 1075093, 1075465, 1075868, 1076252, 1076685]",85,SB,L,R,ITMSR,1.1,
3,600,trial,0,53,53,53,trial,"['C', 'C', 'C', 'C', 'C', 'C', 'C', 'C', 'C', 'C', 'C', 'C', 'C', 'C', 'C', 'C']","[1086936, 1087510, 1088069, 1088626, 1089158, 1089691, 1090259, 1090776, 1091291, 1091812, 1092375, 1092870, 1093388, 1093905, 1094484, 1094983]","[1087035, 1087647, 1088214, 1088763, 1089307, 1089827, 1090424, 1090971, 1091463, 1091958, 1092571, 1093159, 1093562, 1094153, 1094653, 1095147]","[217, 150, 199, 129, 32, 16, 24, 254, 254, 127, 95, 24, 33, 12, 75, 12]","[1086939, 1087515, 1088073, 1088631, 1089164, 1089698, 1090266, 1090883, 1091399, 1091817, 1092381, 1092876, 1093393, 1093912, 1094557, 1094991]","[1082227, 1082827, 1083427, 1084027, 1084627, 1085228, 1085827, 1086427, 1086956, 1087531, 1088089, 1088646, 1089178, 1089711, 1090279, 1090796, 1091311, 1091832, 1092396, 1092890, 1093408, 1093925, 1094504, 1095003]",85,SB,L,R,ITMSR,1.1,
2,400,trial,0,54,54,54,trial,"['S', 'S', 'S', 'S', 'C', 'C', 'C', 'C', 'C', 'C', 'C', 'C', 'C', 'C', 'C', 'C', 'C', 'C', 'C', 'C']","[1178797, 1179218, 1179613, 1180038, 1180453, 1180847, 1181233, 1181625, 1182022, 1182394, 1182778, 1183143, 1183548, 1183953, 1184318, 1184673, 1185078, 1185453, 1185849, 1186233]","[1178884, 1179303, 1179716, 1180133, 1180529, 1180945, 1181330, 1181692, 1182103, 1182512, 1182881, 1183278, 1183663, 1184070, 1184448, 1184824, 1185200, 1185615, 1185983, 1186367]","[58, 40, 35, 236, 42, 209, 198, 14, 21, 237, 1, 172, 188, 132, 119, 147, 112, 81, 108, 60]","[1178804, 1179224, 1179618, 1180044, 1180460, 1180855, 1181241, 1181631, 1182029, 1182402, 1182785, 1183153, 1183558, 1183963, 1184330, 1184683, 1185088, 1185509, 1185861, 1186245]","[1177236, 1177636, 1178036, 1178436, 1178836, 1179236, 1179636, 1180036, 1180473, 1180867, 1181253, 1181645, 1182042, 1182414, 1182798, 1183163, 1183568, 1183973, 1184338, 1184693, 1185098, 1185473, 1185869, 1186253]",85,SB,L,R,ITMSR,1.1,
0,400,trial,0,55,55,55,trial,"['S', 'S', 'S', 'S', 'C', 'C', 'C', 'C', 'C', 'C', 'C', 'C', 'C', 'C', 'C', 'C', 'C', 'C', 'C', 'C']","[1193148, 1193569, 1193951, 1194378, 1194766, 1195159, 1195534, 1195936, 1196333, 1196723, 1197096, 1197477, 1197875, 1198245, 1198639, 1198998, 1199446, 1199835, 1200253, 1200645]","[1193249, 1193681, 1194040, 1194470, 1194881, 1195258, 1195648, 1196033, 1196419, 1196850, 1197194, 1197589, 1197963, 1198336, 1198735, 1199148, 1199563, 1199967, 1200378, 1200776]","[43, 50, 27, 248, 236, 237, 195, 252, 239, 97, 234, 191, 133, 180, 205, 145, 144, 105, 183, 37]","[1193152, 1193573, 1193955, 1194383, 1194771, 1195164, 1195539, 1195943, 1196338, 1196731, 1197103, 1197484, 1197882, 1198251, 1198645, 1199089, 1199455, 1199843, 1200296, 1200654]","[1191598, 1191997, 1192397, 1192797, 1193197, 1193597, 1193997, 1194397, 1194786, 1195180, 1195554, 1195956, 1196353, 1196743, 1197116, 1197497, 1197895, 1198265, 1198659, 1199019, 1199466, 1199855, 1200273, 1200665]",85,SB,L,R,ITMSR,1.1,
4,600,trial,0,56,56,56,trial,"['S', 'S', 'S', 'S', 'S', 'S', 'C', 'C', 'C', 'C', 'C', 'C', 'C', 'C', 'C', 'C', 'C', 'C', 'C', 'C', 'C', 'C']","[1207389, 1207962, 1208521, 1209122, 1209734, 1210365, 1210939, 1211512, 1212043, 1212584, 1213115, 1213628, 1214174, 1214722, 1215250, 1215768, 1216274, 1216801, 1217317, 1217830, 1218356, 1218905]","[1207493, 1208091, 1208660, 1209282, 1209863, 1210486, 1211081, 1211670, 1212201, 1212728, 1213276, 1213809, 1214336, 1214828, 1215389, 1215953, 1216418, 1216961, 1217454, 1217985, 1218483, 1219031]","[100, 30, 12, 27, 245, 193, 42, 8, 5, 245, 229, 230, 11, 236, 248, 5, 255, 220, 247, 191, 210, 179]","[1207394, 1207968, 1208529, 1209128, 1209743, 1210372, 1210945, 1211518, 1212051, 1212593, 1213122, 1213637, 1214182, 1214730, 1215258, 1215776, 1216282, 1216812, 1217326, 1217841, 1218364, 1218914]","[1206166, 1206765, 1207365, 1207965, 1208565, 1209165, 1209765, 1210365, 1210959, 1211532, 1212063, 1212604, 1213135, 1213648, 1214194, 1214742, 1215270, 1215789, 1216294, 1216821, 1217337, 1217850, 1218376, 1218925]",85,SB,L,R,ITMSR,1.1,
4,600,trial,0,57,57,57,trial,"['S', 'S', 'S', 'S', 'S', 'S', 'C', 'C', 'C', 'C', 'C', 'C', 'C', 'C', 'C', 'C', 'C', 'C', 'C', 'C', 'C', 'C']","[1225596, 1226227, 1226793, 1227378, 1228029, 1228597, 1229189, 1229784, 1230375, 1230984, 1231568, 1232150, 1232769, 1233363, 1233924, 1234535, 1235108, 1235676, 1236282, 1236891, 1237486, 1238083]","[1225707, 1226342, 1226959, 1227513, 1228173, 1228769, 1229374, 1230014, 1230515, 1231144, 1231756, 1232329, 1232918, 1233505, 1234018, 1234646, 1235160, 1235784, 1236399, 1237018, 1237590, 1238191]","[95, 113, 46, 83, 72, 244, 246, 23, 79, 70, 59, 83, 63, 38, 23, 244, 191, 56, 32, 63, 51, 49]","[1225602, 1226231, 1226800, 1227383, 1228035, 1228603, 1229195, 1229790, 1230381, 1230989, 1231574, 1232154, 1232774, 1233370, 1233929, 1234541, 1235115, 1235682, 1236289, 1236898, 1237492, 1238089]","[1224425, 1225025, 1225625, 1226225, 1226825, 1227425, 1228025, 1228625, 1229209, 1229804, 1230395, 1231004, 1231588, 1232171, 1232789, 1233383, 1233944, 1234555, 1235128, 1235696, 1236302, 1236911, 1237506, 1238104]",85,SB,L,R,ITMSR,1.1,
2,400,trial,0,58,58,58,trial,"['S', 'S', 'S', 'S', 'C', 'C', 'C', 'C', 'C', 'C', 'C', 'C', 'C', 'C', 'C', 'C', 'C', 'C', 'C', 'C']","[1244993, 1245393, 1245790, 1246197, 1246592, 1246987, 1247377, 1247782, 1248183, 1248581, 1248978, 1249371, 1249789, 1250180, 1250577, 1250965, 1251321, 1251735, 1252124, 1252517]","[1245069, 1245483, 1245892, 1246285, 1246688, 1247085, 1247468, 1247866, 1248260, 1248671, 1249063, 1249466, 1249863, 1250258, 1250647, 1251035, 1251411, 1251814, 1252198, 1252602]","[115, 74, 85, 54, 73, 74, 74, 44, 93, 85, 113, 95, 86, 56, 240, 33, 20, 6, 40, 36]","[1244997, 1245398, 1245795, 1246203, 1246598, 1246992, 1247383, 1247789, 1248188, 1248586, 1248984, 1249377, 1249795, 1250186, 1250584, 1250973, 1251329, 1251742, 1252131, 1252524]","[1243401, 1243801, 1244201, 1244601, 1245001, 1245401, 1245801, 1246201, 1246612, 1247007, 1247397, 1247802, 1248203, 1248601, 1248998, 1249391, 1249809, 1250200, 1250597, 1250985, 1251341, 1251756, 1252144, 1252537]",85,SB,L,R,ITMSR,1.1,
3,400,trial,0,59,59,59,trial,"['S', 'S', 'S', 'S', 'S', 'C', 'C', 'C', 'C', 'C', 'C', 'C', 'C', 'C', 'C', 'C', 'C', 'C', 'C', 'C', 'C']","[1259350, 1259684, 1260072, 1260455, 1260839, 1261222, 1261616, 1262009, 1262389, 1262798, 1263198, 1263575, 1263977, 1264360, 1264760, 1265139, 1265553, 1265938, 1266307, 1266695, 1267108]","[1259426, 1259778, 1260155, 1260545, 1260924, 1261307, 1261714, 1262095, 1262491, 1262867, 1263294, 1263660, 1264048, 1264432, 1264840, 1265219, 1265623, 1266029, 1266357, 1266794, 1267198]","[230, 71, 70, 66, 95, 76, 56, 56, 53, 38, 250, 246, 177, 17, 135, 164, 218, 200, 247, 139, 240]","[1259370, 1259692, 1260079, 1260462, 1260845, 1261229, 1261622, 1262016, 1262396, 1262804, 1263206, 1263583, 1263984, 1264367, 1264768, 1265147, 1265561, 1265948, 1266313, 1266704, 1267118]","[1258113, 1258512, 1258912, 1259312, 1259712, 1260112, 1260512, 1260912, 1261242, 1261636, 1262029, 1262409, 1262818, 1263218, 1263595, 1263997, 1264380, 1264780, 1265159, 1265573, 1265958, 1266327, 1266715, 1267128]",85,SB,L,R,ITMSR,1.1,
3,600,trial,0,60,60,60,trial,"['S', 'S', 'S', 'S', 'S', 'C', 'C', 'C', 'C', 'C', 'C', 'C', 'C', 'C', 'C', 'C', 'C', 'C', 'C', 'C', 'C']","[1274488, 1275073, 1275646, 1276272, 1276847, 1277409, 1277968, 1278508, 1279070, 1279628, 1280185, 1280726, 1281298, 1281881, 1282483, 1283063, 1283645, 1284176, 1284714, 1285295, 1285862]","[1274516, 1275170, 1275760, 1276405, 1276981, 1277555, 1278158, 1278712, 1279230, 1279776, 1280292, 1280831, 1281412, 1282000, 1282621, 1283204, 1283775, 1284290, 1284840, 1285416, 1286009]","[148, 85, 83, 56, 40, 201, 169, 5, 254, 224, 222, 23, 106, 233, 22, 3, 112, 221, 38, 154, 13]","[1274494, 1275077, 1275651, 1276276, 1276851, 1277415, 1277975, 1278513, 1279076, 1279635, 1280193, 1280732, 1281307, 1281888, 1282489, 1283072, 1283653, 1284184, 1284722, 1285302, 1285868]","[1272688, 1273288, 1273888, 1274488, 1275088, 1275688, 1276289, 1276888, 1277429, 1277988, 1278528, 1279090, 1279648, 1280205, 1280746, 1281318, 1281901, 1282503, 1283083, 1283665, 1284196, 1284734, 1285315, 1285882]",85,SB,L,R,ITMSR,1.1,
1,600,trial,0,61,61,61,trial,"['S', 'S', 'S', 'S', 'C', 'C', 'C', 'C', 'C', 'C', 'C', 'C', 'C', 'C', 'C', 'C', 'C', 'C', 'C', 'C']","[1293589, 1294164, 1294790, 1295424, 1295985, 1296586, 1297175, 1297796, 1298423, 1299040, 1299638, 1300191, 1300816, 1301357, 1301931, 1302524, 1303118, 1303721, 1304313, 1304876]","[1293690, 1294298, 1294912, 1295539, 1296140, 1296757, 1297327, 1297939, 1298527, 1299169, 1299773, 1300315, 1300962, 1301619, 1302172, 1302738, 1303250, 1303852, 1304473, 1305071]","[104, 63, 29, 63, 47, 1, 229, 25, 39, 35, 5, 66, 40, 231, 11, 28, 44, 14, 26, 23]","[1293594, 1294172, 1294797, 1295430, 1295991, 1296593, 1297181, 1297802, 1298430, 1299046, 1299645, 1300198, 1300823, 1301364, 1301939, 1302532, 1303124, 1303728, 1304320, 1304884]","[1291216, 1291816, 1292417, 1293016, 1293616, 1294216, 1294816, 1295416, 1296005, 1296606, 1297196, 1297816, 1298443, 1299060, 1299658, 1300211, 1300836, 1301378, 1301951, 1302544, 1303138, 1303741, 1304333, 1304896]",85,SB,L,R,ITMSR,1.1,
5,600,trial,0,62,62,62,trial,"['S', 'S', 'S', 'S', 'S', 'S', 'C', 'C', 'C', 'C', 'C', 'C', 'C', 'C', 'C', 'C', 'C', 'C', 'C', 'C', 'C', 'C']","[1311520, 1312101, 1312696, 1313267, 1313911, 1314530, 1315132, 1315732, 1316312, 1316923, 1317541, 1318125, 1318724, 1319341, 1319975, 1320571, 1321971, 1322543, 1323140, 1323761, 1324341, 1324926]","[1311609, 1312175, 1312763, 1313357, 1314002, 1314623, 1315190, 1315862, 1316403, 1317014, 1317655, 1318251, 1318838, 1319434, 1320066, 1320674, 1322059, 1322678, 1323266, 1323854, 1324443, 1325012]","[127, 95, 84, 90, 30, 89, 89, 73, 79, 90, 110, 64, 15, 120, 42, 100, 76, 42, 68, 78, 107, 33]","[1311524, 1312107, 1312702, 1313273, 1313921, 1314536, 1315139, 1315738, 1316318, 1316929, 1317545, 1318130, 1318729, 1319345, 1319981, 1320577, 1321976, 1322548, 1323145, 1323766, 1324346, 1324931]","[1310316, 1310916, 1311516, 1312116, 1312716, 1313316, 1313916, 1314516, 1315152, 1315752, 1316332, 1316943, 1317561, 1318146, 1318744, 1319361, 1319995, 1320591, 1321991, 1322563, 1323160, 1323781, 1324361, 1324946]",85,SB,L,R,ITMSR,1.1,
1,400,trial,0,63,63,63,trial,"['S', 'S', 'S', 'S', 'C', 'C', 'C', 'C', 'C', 'C', 'C', 'C', 'C', 'C', 'C', 'C', 'C', 'C', 'C', 'C']","[1332220, 1332645, 1333045, 1333430, 1333839, 1334244, 1334645, 1335041, 1335432, 1335836, 1336245, 1336655, 1337031, 1337424, 1337827, 1338213, 1338622, 1339019, 1339417, 1339840]","[1332307, 1332739, 1333127, 1333516, 1333948, 1334320, 1334715, 1335124, 1335523, 1335922, 1336336, 1336733, 1337121, 1337497, 1337892, 1338295, 1338664, 1339075, 1339501, 1339923]","[135, 124, 85, 99, 112, 114, 90, 125, 113, 113, 101, 82, 113, 94, 26, 47, 47, 9, 93, 80]","[1332228, 1332649, 1333048, 1333435, 1333844, 1334249, 1334650, 1335045, 1335437, 1335840, 1336250, 1336660, 1337036, 1337431, 1337832, 1338218, 1338628, 1339025, 1339422, 1339845]","[1330681, 1331080, 1331480, 1331880, 1332280, 1332680, 1333080, 1333480, 1333859, 1334264, 1334665, 1335061, 1335452, 1335856, 1336265, 1336675, 1337051, 1337444, 1337847, 1338233, 1338642, 1339039, 1339437, 1339860]",85,SB,L,R,ITMSR,1.1,
5,600,trial,0,64,64,64,trial,"['S', 'S', 'S', 'S', 'S', 'S', 'C', 'C', 'C', 'C', 'C', 'C', 'C', 'C', 'C', 'C', 'C', 'C', 'C', 'C', 'C', 'C']","[1346419, 1347040, 1347628, 1348258, 1348864, 1349481, 1350051, 1350676, 1351257, 1351856, 1352464, 1353027, 1353610, 1354189, 1354752, 1355374, 1355911, 1356513, 1357119, 1357703, 1358850, 1359431]","[1346480, 1347098, 1347717, 1348348, 1348957, 1349545, 1350156, 1350761, 1351350, 1351876, 1352484, 1353143, 1353702, 1354254, 1354772, 1355455, 1356002, 1356592, 1357210, 1357782, 1358963, 1359579]","[132, 116, 132, 98, 108, 118, 136, 129, 106, 58, 196, 223, 128, 103, 110, 120, 130, 129, 141, 120, 130, 152]","[1346422, 1347044, 1347632, 1348263, 1348869, 1349485, 1350055, 1350681, 1351263, 1351859, 1352466, 1353031, 1353615, 1354193, 1354757, 1355378, 1355915, 1356518, 1357123, 1357707, 1358854, 1359435]","[1345272, 1345872, 1346472, 1347073, 1347672, 1348272, 1348872, 1349472, 1350071, 1350696, 1351277, 1351876, 1352484, 1353048, 1353630, 1354209, 1354772, 1355394, 1355931, 1356533, 1357139, 1357723, 1358870, 1359451]",85,SB,L,R,ITMSR,1.1,
3,400,trial,0,65,65,65,trial,"['S', 'S', 'S', 'S', 'C', 'C', 'C', 'C', 'C', 'C', 'C', 'C', 'C', 'C', 'C', 'C', 'C', 'C', 'C', 'C']","[1366551, 1367018, 1367454, 1367866, 1368239, 1368651, 1369052, 1369469, 1369881, 1370284, 1370691, 1371099, 1371494, 1371896, 1372289, 1372684, 1373074, 1373460, 1373853, 1374261]","[1366625, 1367084, 1367536, 1367956, 1368352, 1368765, 1369144, 1369547, 1369956, 1370364, 1370767, 1371190, 1371557, 1371990, 1372381, 1372790, 1373178, 1373586, 1373940, 1374341]","[151, 141, 118, 121, 110, 102, 102, 97, 96, 97, 125, 104, 82, 30, 41, 27, 77, 74, 65, 108]","[1366556, 1367023, 1367459, 1367872, 1368245, 1368658, 1369059, 1369476, 1369887, 1370290, 1370697, 1371106, 1371500, 1371902, 1372296, 1372691, 1373081, 1373468, 1373861, 1374267]","[1365050, 1365450, 1365850, 1366250, 1366650, 1367050, 1367450, 1367851, 1368259, 1368671, 1369072, 1369489, 1369901, 1370304, 1370712, 1371119, 1371514, 1371916, 1372309, 1372704, 1373094, 1373480, 1373873, 1374281]",85,SB,L,R,ITMSR,1.1,
4,400,trial,0,66,66,66,trial,"['S', 'S', 'S', 'S', 'C', 'C', 'C', 'C', 'C', 'C', 'C', 'C', 'C', 'C', 'C', 'C', 'C', 'C', 'C', 'C']","[1381550, 1381970, 1382370, 1382791, 1383195, 1383584, 1383973, 1384391, 1384771, 1385158, 1385536, 1385946, 1386348, 1386746, 1387155, 1387524, 1387930, 1388322, 1388724, 1389109]","[1381623, 1382052, 1382450, 1382870, 1383292, 1383669, 1384071, 1384483, 1384865, 1385248, 1385632, 1386032, 1386421, 1386824, 1387238, 1387608, 1388024, 1388418, 1388794, 1389212]","[164, 143, 165, 131, 149, 164, 138, 149, 133, 135, 139, 131, 116, 114, 143, 106, 113, 118, 117, 111]","[1381554, 1381977, 1382374, 1382796, 1383200, 1383589, 1383981, 1384396, 1384777, 1385163, 1385541, 1385952, 1386355, 1386754, 1387161, 1387531, 1387937, 1388329, 1388730, 1389117]","[1380008, 1380408, 1380808, 1381208, 1381608, 1382008, 1382408, 1382808, 1383215, 1383604, 1383993, 1384411, 1384792, 1385178, 1385556, 1385966, 1386369, 1386766, 1387175, 1387544, 1387950, 1388342, 1388744, 1389129]",85,SB,L,R,ITMSR,1.1,
0,600,trial,0,67,67,67,trial,"['S', 'S', 'S', 'S', 'S', 'S', 'C', 'C', 'C', 'C', 'C', 'C', 'C', 'C', 'C', 'C', 'C', 'C', 'C', 'C', 'C', 'C']","[1395804, 1396397, 1396975, 1397559, 1398175, 1398796, 1399384, 1399967, 1400545, 1401137, 1401721, 1402314, 1402901, 1403450, 1404043, 1404617, 1405199, 1405787, 1406362, 1406959, 1407536, 1408102]","[1395877, 1396465, 1397057, 1397669, 1398268, 1398884, 1399488, 1400062, 1400632, 1401242, 1401827, 1402398, 1403020, 1403541, 1404120, 1404696, 1405273, 1405856, 1406427, 1407022, 1407605, 1408175]","[174, 162, 120, 101, 116, 122, 143, 137, 136, 159, 143, 142, 119, 138, 141, 133, 149, 147, 152, 154, 157, 144]","[1395808, 1396402, 1396981, 1397566, 1398181, 1398803, 1399389, 1399973, 1400551, 1401143, 1401728, 1402320, 1402907, 1403456, 1404049, 1404624, 1405205, 1405794, 1406368, 1406966, 1407542, 1408108]","[1394595, 1395194, 1395794, 1396395, 1396994, 1397594, 1398194, 1398794, 1399404, 1399987, 1400565, 1401157, 1401741, 1402334, 1402921, 1403470, 1404063, 1404637, 1405219, 1405807, 1406382, 1406979, 1407556, 1408122]",85,SB,L,R,ITMSR,1.1,
2,600,trial,0,68,68,68,trial,"['S', 'S', 'S', 'S', 'S', 'C', 'C', 'C', 'C', 'C', 'C', 'C', 'C', 'C', 'C', 'C', 'C', 'C', 'C', 'C', 'C']","[1415544, 1416120, 1416706, 1417324, 1417948, 1418500, 1419087, 1419675, 1420295, 1420856, 1421406, 1421968, 1422551, 1423129, 1423717, 1424304, 1424898, 1425460, 1426072, 1426642, 1427217]","[1415593, 1416174, 1416772, 1417382, 1417994, 1418574, 1419171, 1419738, 1420364, 1420923, 1421483, 1422084, 1422644, 1423225, 1423811, 1424432, 1424992, 1425527, 1426148, 1426716, 1427290]","[154, 92, 170, 158, 43, 163, 132, 140, 154, 131, 125, 138, 150, 163, 115, 149, 137, 160, 164, 174, 177]","[1415550, 1416122, 1416712, 1417331, 1417956, 1418506, 1419095, 1419682, 1420301, 1420863, 1421412, 1421973, 1422556, 1423134, 1423722, 1424309, 1424903, 1425465, 1426077, 1426649, 1427223]","[1413764, 1414364, 1414964, 1415564, 1416164, 1416764, 1417364, 1417964, 1418520, 1419107, 1419695, 1420315, 1420876, 1421426, 1421988, 1422571, 1423149, 1423737, 1424324, 1424918, 1425480, 1426093, 1426662, 1427237]",85,SB,L,R,ITMSR,1.1,
5,400,trial,0,69,69,69,trial,"['S', 'S', 'S', 'S', 'S', 'S', 'S', 'C', 'C', 'C', 'C', 'C', 'C', 'C', 'C', 'C', 'C', 'C', 'C', 'C', 'C', 'C', 'C']","[1433480, 1433821, 1434174, 1434584, 1434981, 1435338, 1435723, 1436134, 1436530, 1436925, 1437314, 1437684, 1438077, 1438487, 1438888, 1439294, 1439679, 1440073, 1440478, 1440873, 1441276, 1441669, 1442076]","[1433549, 1433900, 1434245, 1434642, 1435049, 1435401, 1435807, 1436216, 1436621, 1436997, 1437401, 1437789, 1438159, 1438567, 1438976, 1439375, 1439767, 1440159, 1440581, 1440948, 1441354, 1441750, 1442152]","[187, 165, 149, 138, 166, 161, 168, 155, 152, 129, 148, 135, 135, 128, 138, 149, 140, 136, 148, 156, 165, 155, 148]","[1433484, 1433824, 1434178, 1434590, 1434986, 1435342, 1435728, 1436139, 1436535, 1436932, 1437319, 1437689, 1438084, 1438493, 1438894, 1439299, 1439686, 1440079, 1440483, 1440879, 1441283, 1441675, 1442081]","[1432974, 1433374, 1433774, 1434174, 1434574, 1434974, 1435374, 1435774, 1436154, 1436550, 1436945, 1437334, 1437704, 1438097, 1438508, 1438908, 1439314, 1439699, 1440093, 1440498, 1440893, 1441296, 1441689, 1442096]",85,SB,L,R,ITMSR,1.1,
0,600,trial,0,70,70,70,trial,"['S', 'S', 'S', 'S', 'S', 'S', 'S', 'S', 'C', 'C', 'C', 'C', 'C', 'C', 'C', 'C', 'C', 'C', 'C', 'C', 'C', 'C', 'C', 'C']","[1447657, 1447985, 1448649, 1449293, 1449880, 1450443, 1451026, 1451638, 1452212, 1452805, 1453384, 1453977, 1454576, 1455166, 1455759, 1456320, 1456911, 1457511, 1458075, 1458662, 1459268, 1459856, 1460406, 1460984]","[1447749, 1448087, 1448738, 1449365, 1449971, 1450529, 1451121, 1451736, 1452305, 1452904, 1453480, 1454061, 1454666, 1455273, 1455853, 1456400, 1457011, 1457582, 1458185, 1458757, 1459381, 1459958, 1460525, 1461105]","[149, 159, 169, 174, 178, 173, 177, 163, 156, 156, 128, 147, 159, 164, 163, 144, 166, 147, 173, 160, 163, 160, 139, 139]","[1447662, 1447990, 1448654, 1449298, 1449884, 1450446, 1451030, 1451642, 1452217, 1452810, 1453390, 1453983, 1454581, 1455171, 1455764, 1456325, 1456915, 1457516, 1458078, 1458667, 1459273, 1459861, 1460411, 1460990]","[1447478, 1448077, 1448677, 1449277, 1449877, 1450477, 1451077, 1451677, 1452232, 1452825, 1453404, 1453997, 1454596, 1455186, 1455779, 1456340, 1456931, 1457531, 1458095, 1458682, 1459288, 1459876, 1460426, 1461004]",85,SB,L,R,ITMSR,1.1,
2,600,trial,0,71,71,71,trial,"['S', 'S', 'S', 'S', 'S', 'S', 'C', 'C', 'C', 'C', 'C', 'C', 'C', 'C', 'C', 'C', 'C', 'C', 'C', 'C', 'C', 'C']","[1467569, 1468198, 1468752, 1469355, 1469945, 1470524, 1471150, 1471763, 1472386, 1472941, 1473525, 1474122, 1474731, 1475310, 1475907, 1476491, 1477093, 1477687, 1478279, 1478885, 1479468, 1480088]","[1467631, 1468262, 1468841, 1469455, 1470068, 1470618, 1471247, 1471856, 1472496, 1473052, 1473618, 1474224, 1474835, 1475416, 1476021, 1476595, 1477189, 1477789, 1478410, 1479027, 1479617, 1480180]","[193, 188, 177, 170, 162, 165, 175, 166, 152, 172, 163, 150, 164, 174, 166, 167, 150, 171, 166, 172, 157, 150]","[1467572, 1468203, 1468756, 1469359, 1469948, 1470528, 1471154, 1471767, 1472392, 1472946, 1473530, 1474127, 1474735, 1475313, 1475910, 1476496, 1477098, 1477692, 1478284, 1478889, 1479473, 1480094]","[1466406, 1467006, 1467607, 1468206, 1468806, 1469406, 1470006, 1470606, 1471170, 1471783, 1472406, 1472961, 1473545, 1474142, 1474751, 1475330, 1475928, 1476511, 1477113, 1477707, 1478299, 1478905, 1479488, 1480109]",85,SB,L,R,ITMSR,1.1,
1,600,trial,0,72,72,72,trial,"['S', 'S', 'S', 'S', 'S', 'S', 'C', 'C', 'C', 'C', 'C', 'C', 'C', 'C', 'C', 'C', 'C', 'C', 'C', 'C', 'C', 'C']","[1486854, 1487432, 1488046, 1488616, 1489192, 1489789, 1490367, 1491000, 1491596, 1492198, 1492786, 1493401, 1493988, 1494554, 1495150, 1495740, 1496326, 1496897, 1497503, 1498108, 1498690, 1499250]","[1486924, 1487494, 1488135, 1488712, 1489290, 1489878, 1490471, 1491094, 1491702, 1492295, 1492878, 1493494, 1494076, 1494656, 1495262, 1495834, 1496428, 1496981, 1497579, 1498216, 1498804, 1499352]","[134, 126, 146, 134, 140, 152, 166, 104, 95, 94, 140, 115, 98, 99, 148, 158, 97, 62, 63, 140, 104, 42]","[1486856, 1487436, 1488049, 1488619, 1489196, 1489793, 1490370, 1491005, 1491600, 1492201, 1492789, 1493404, 1493991, 1494558, 1495153, 1495743, 1496328, 1496900, 1497506, 1498112, 1498693, 1499253]","[1485675, 1486275, 1486875, 1487475, 1488075, 1488675, 1489275, 1489875, 1490387, 1491020, 1491616, 1492218, 1492806, 1493421, 1494008, 1494574, 1495170, 1495760, 1496346, 1496918, 1497523, 1498128, 1498711, 1499270]",85,SB,L,R,ITMSR,1.1,
1,400,trial,0,73,73,73,trial,"['S', 'S', 'S', 'S', 'S', 'C', 'C', 'C', 'C', 'C', 'C', 'C', 'C', 'C', 'C', 'C', 'C', 'C', 'C', 'C', 'C']","[1506140, 1506545, 1506966, 1507381, 1507794, 1508189, 1508595, 1508996, 1509383, 1509794, 1510209, 1510615, 1510998, 1511384, 1511808, 1512215, 1512625, 1513020, 1513433, 1513848, 1514236]","[1506219, 1506598, 1506987, 1507479, 1507878, 1508285, 1508686, 1509082, 1509488, 1509889, 1510279, 1510706, 1511086, 1511483, 1511908, 1512312, 1512705, 1513105, 1513519, 1513923, 1514353]","[143, 150, 154, 171, 164, 155, 137, 144, 121, 139, 75, 129, 112, 136, 109, 84, 102, 133, 101, 68, 106]","[1506143, 1506547, 1506968, 1507383, 1507798, 1508192, 1508599, 1508999, 1509387, 1509797, 1510213, 1510619, 1511002, 1511387, 1511812, 1512220, 1512629, 1513024, 1513438, 1513853, 1514242]","[1505006, 1505406, 1505806, 1506206, 1506606, 1507006, 1507406, 1507806, 1508209, 1508615, 1509016, 1509403, 1509814, 1510230, 1510635, 1511018, 1511404, 1511828, 1512236, 1512645, 1513040, 1513453, 1513868, 1514256]",85,SB,L,R,ITMSR,1.1,
3,600,trial,0,74,74,74,trial,"['S', 'S', 'S', 'S', 'S', 'S', 'C', 'C', 'C', 'C', 'C', 'C', 'C', 'C', 'C', 'C', 'C', 'C', 'C', 'C', 'C', 'C']","[1520966, 1521585, 1522172, 1522723, 1523365, 1523984, 1524566, 1525109, 1525685, 1526245, 1526814, 1527407, 1527996, 1528555, 1529129, 1529729, 1530312, 1530895, 1531448, 1531995, 1532577, 1533120]","[1521025, 1521658, 1522266, 1522837, 1523506, 1524106, 1524722, 1525253, 1525852, 1526459, 1527001, 1527578, 1528157, 1528748, 1529383, 1529925, 1530521, 1531060, 1531678, 1532279, 1532818]","[156, 155, 146, 154, 116, 95, 238, 48, 96, 127, 116, 120, 126, 119, 136, 138, 94, 111, 110, 93, 69]","[1520969, 1521588, 1522176, 1522726, 1523369, 1523988, 1524572, 1525114, 1525689, 1526249, 1526817, 1527410, 1528000, 1528559, 1529133, 1529733, 1530316, 1530899, 1531453, 1531999, 1532582]","[1519830, 1520429, 1521029, 1521629, 1522229, 1522829, 1523429, 1524029, 1524586, 1525129, 1525705, 1526265, 1526834, 1527427, 1528016, 1528576, 1529149, 1529749, 1530332, 1530915, 1531468, 1532015, 1532597, 1533140]",85,SB,L,R,ITMSR,1.1,
5,400,trial,0,75,75,75,trial,"['S', 'S', 'S', 'S', 'C', 'C', 'C', 'C', 'C', 'C', 'C', 'C', 'C', 'C', 'C', 'C', 'C', 'C', 'C', 'C']","[1540336, 1540797, 1541197, 1541591, 1541978, 1542375, 1542767, 1543193, 1543595, 1544007, 1544393, 1544784, 1545165, 1545555, 1545946, 1546330, 1546770, 1547157, 1547549, 1547897]","[1540449, 1540910, 1541295, 1541704, 1542073, 1542487, 1542863, 1543302, 1543692, 1544102, 1544491, 1544895, 1545279, 1545686, 1546057, 1546448, 1546898, 1547285, 1547677, 1548040]","[130, 154, 128, 95, 122, 144, 32, 7, 75, 83, 111, 71, 90, 70, 66, 74, 81, 71, 90, 60]","[1540340, 1540800, 1541201, 1541594, 1541982, 1542378, 1542771, 1543195, 1543599, 1544011, 1544397, 1544788, 1545170, 1545561, 1545950, 1546336, 1546775, 1547162, 1547554, 1547983]","[1538798, 1539197, 1539597, 1539997, 1540397, 1540797, 1541197, 1541597, 1541998, 1542395, 1542787, 1543213, 1543615, 1544027, 1544413, 1544804, 1545185, 1545575, 1545966, 1546350, 1546790, 1547177, 1547569, 1547917]",85,SB,L,R,ITMSR,1.1,
0,400,trial,0,76,76,76,trial,"['S', 'S', 'S', 'S', 'S', 'S', 'C', 'C', 'C', 'C', 'C', 'C', 'C', 'C', 'C', 'C', 'C', 'C', 'C', 'C', 'C', 'C']","[1554054, 1554502, 1554899, 1555305, 1555702, 1556084, 1556486, 1556866, 1557294, 1557732, 1558128, 1558536, 1558943, 1559346, 1559734, 1560128, 1560556, 1560939, 1561307, 1561719, 1562107, 1562541]","[1554142, 1554601, 1554993, 1555385, 1555795, 1556192, 1556506, 1556993, 1557403, 1557855, 1558248, 1558647, 1559061, 1559456, 1559855, 1560255, 1560693, 1561096, 1561460, 1561852, 1562240, 1562658]","[152, 131, 128, 88, 55, 91, 94, 46, 103, 47, 104, 249, 11, 226, 234, 16, 237, 207, 220, 96, 126, 14]","[1554056, 1554503, 1554904, 1555309, 1555706, 1556089, 1556491, 1556871, 1557300, 1557738, 1558135, 1558543, 1558950, 1559354, 1559741, 1560135, 1560564, 1560946, 1561374, 1561795, 1562117, 1562549]","[1553302, 1553702, 1554102, 1554502, 1554903, 1555302, 1555702, 1556102, 1556506, 1556886, 1557314, 1557752, 1558148, 1558556, 1558963, 1559366, 1559754, 1560148, 1560577, 1560960, 1561327, 1561739, 1562127, 1562561]",85,SB,L,R,ITMSR,1.1,
4,400,trial,0,77,77,77,trial,"['S', 'S', 'S', 'S', 'S', 'S', 'C', 'C', 'C', 'C', 'C', 'C', 'C', 'C', 'C', 'C', 'C', 'C', 'C', 'C', 'C', 'C']","[1568756, 1569158, 1569577, 1569980, 1570414, 1570800, 1571185, 1571570, 1571955, 1572384, 1572763, 1573130, 1573501, 1573915, 1574307, 1574673, 1575063, 1575420, 1575822, 1576194, 1576547, 1576915]","[1568846, 1569250, 1569656, 1570077, 1570507, 1570899, 1571289, 1571662, 1572057, 1572474, 1572843, 1573236, 1573609, 1574017, 1574387, 1574794, 1575165, 1575522, 1575903, 1576297, 1576615, 1577017]","[233, 58, 228, 96, 191, 131, 233, 114, 115, 192, 139, 168, 217, 167, 118, 102, 150, 8, 88, 57, 26, 25]","[1568761, 1569162, 1569583, 1569984, 1570418, 1570805, 1571190, 1571575, 1571960, 1572389, 1572768, 1573135, 1573506, 1573921, 1574313, 1574678, 1575068, 1575426, 1575826, 1576199, 1576552, 1576922]","[1568030, 1568429, 1568829, 1569229, 1569629, 1570029, 1570429, 1570829, 1571205, 1571590, 1571975, 1572404, 1572783, 1573150, 1573521, 1573935, 1574327, 1574693, 1575084, 1575440, 1575842, 1576214, 1576567, 1576935]",85,SB,L,R,ITMSR,1.1,
2,400,trial,0,78,78,78,trial,"['S', 'S', 'S', 'S', 'S', 'C', 'C', 'C', 'C', 'C', 'C', 'C', 'C', 'C', 'C', 'C', 'C', 'C', 'C', 'C', 'C']","[1596292, 1596695, 1597106, 1597518, 1597925, 1598303, 1598691, 1599079, 1599446, 1599837, 1600263, 1600666, 1601050, 1601439, 1601827, 1602216, 1602588, 1603016, 1603442, 1603828, 1604213]","[1596374, 1596752, 1597192, 1597609, 1598013, 1598387, 1598783, 1599166, 1599558, 1599955, 1600366, 1600777, 1601186, 1601556, 1601947, 1602332, 1602704, 1603126, 1603546, 1603940, 1604322]","[118, 122, 143, 133, 125, 122, 111, 126, 106, 75, 104, 92, 92, 108, 55, 61, 83, 98, 87, 86, 63]","[1596297, 1596698, 1597109, 1597521, 1597928, 1598307, 1598695, 1599082, 1599450, 1599842, 1600268, 1600671, 1601055, 1601443, 1601832, 1602223, 1602593, 1603020, 1603447, 1603833, 1604218]","[1595131, 1595531, 1595931, 1596332, 1596731, 1597131, 1597531, 1597931, 1598323, 1598711, 1599099, 1599466, 1599857, 1600283, 1600686, 1601070, 1601459, 1601847, 1602236, 1602608, 1603036, 1603462, 1603848, 1604233]",85,SB,L,R,ITMSR,1.1,
4,600,trial,0,79,79,79,trial,"['S', 'S', 'S', 'S', 'S', 'C', 'C', 'C', 'C', 'C', 'C', 'C', 'C', 'C', 'C', 'C', 'C', 'C', 'C', 'C', 'C']","[1611645, 1612209, 1612843, 1613433, 1613993, 1614577, 1615124, 1615670, 1616229, 1616808, 1617372, 1617947, 1618499, 1619072, 1619644, 1620198, 1620771, 1621349, 1621909, 1622489, 1623044]","[1611665, 1612289, 1612931, 1613532, 1614097, 1614702, 1615232, 1615759, 1616306, 1616882, 1617476, 1618029, 1618592, 1619197, 1619755, 1620296, 1620842, 1621441, 1622016, 1622574, 1623154]","[249, 123, 104, 126, 128, 137, 121, 103, 126, 125, 116, 148, 133, 122, 107, 82, 126, 56, 89, 143, 121]","[1611650, 1612214, 1612848, 1613437, 1613998, 1614582, 1615128, 1615675, 1616234, 1616814, 1617377, 1617952, 1618504, 1619076, 1619650, 1620203, 1620776, 1621354, 1621914, 1622492, 1623048]","[1609892, 1610492, 1611092, 1611693, 1612293, 1612893, 1613493, 1614093, 1614597, 1615144, 1615690, 1616249, 1616828, 1617392, 1617967, 1618520, 1619092, 1619664, 1620218, 1620791, 1621369, 1621929, 1622509, 1623064]",85,SB,L,R,ITMSR,1.1,
1,600,trial,0,80,80,80,trial,"['S', 'S', 'S', 'S', 'S', 'S', 'C', 'C', 'C', 'C', 'C', 'C', 'C', 'C', 'C', 'C', 'C', 'C', 'C', 'C', 'C', 'C']","[1629980, 1630367, 1631012, 1631679, 1632249, 1632786, 1633309, 1633883, 1634451, 1635002, 1635545, 1636098, 1636647, 1637222, 1637773, 1638385, 1638960, 1639523, 1640038, 1640585, 1641136, 1641713]","[1630074, 1630469, 1631076, 1631739, 1632392, 1632925, 1633441, 1634020, 1634582, 1635107, 1635656, 1636235, 1636775, 1637346, 1637899, 1638499, 1639092, 1639628, 1640152, 1640726, 1641290, 1641841]","[117, 116, 135, 140, 141, 133, 130, 110, 110, 87, 120, 134, 100, 97, 11, 49, 67, 49, 82, 23, 43, 57]","[1629983, 1630371, 1631016, 1631683, 1632253, 1632789, 1633313, 1633887, 1634455, 1635007, 1635550, 1636102, 1636652, 1637226, 1637776, 1638391, 1638965, 1639529, 1640043, 1640592, 1641142, 1641719]","[1628630, 1629229, 1629829, 1630429, 1631029, 1631629, 1632229, 1632829, 1633329, 1633903, 1634471, 1635022, 1635565, 1636118, 1636667, 1637242, 1637793, 1638405, 1638980, 1639543, 1640058, 1640605, 1641156, 1641733]",85,SB,L,R,ITMSR,1.1,
1,400,trial,0,81,81,81,trial,"['S', 'S', 'S', 'S', 'S', 'S', 'S', 'C', 'C', 'C', 'C', 'C', 'C', 'C', 'C', 'C', 'C', 'C', 'C', 'C', 'C', 'C', 'C']","[1647537, 1647935, 1648282, 1648677, 1649115, 1649471, 1649864, 1650245, 1650638, 1651043, 1651443, 1651838, 1652224, 1652583, 1652978, 1653369, 1653744, 1654175, 1654550, 1654929, 1655316, 1655732, 1656144]","[1647649, 1648011, 1648382, 1648768, 1649203, 1649543, 1649959, 1650335, 1650734, 1651138, 1651518, 1651938, 1652333, 1652685, 1653080, 1653464, 1653843, 1654277, 1654662, 1655023, 1655418, 1655824, 1656251]","[66, 137, 119, 140, 134, 142, 110, 100, 96, 106, 95, 67, 87, 64, 50, 60, 57, 69, 85, 95, 84, 72, 52]","[1647543, 1647939, 1648287, 1648681, 1649119, 1649474, 1649869, 1650250, 1650644, 1651048, 1651447, 1651845, 1652229, 1652588, 1652983, 1653374, 1653750, 1654180, 1654555, 1654935, 1655321, 1655738, 1656151]","[1647101, 1647501, 1647901, 1648301, 1648701, 1649101, 1649501, 1649901, 1650265, 1650658, 1651063, 1651463, 1651858, 1652244, 1652603, 1652998, 1653389, 1653764, 1654195, 1654571, 1654949, 1655336, 1655752, 1656164]",85,SB,L,R,ITMSR,1.1,
0,400,trial,0,82,82,82,trial,"['S', 'S', 'S', 'S', 'S', 'S', 'C', 'C', 'C', 'C', 'C', 'C', 'C', 'C', 'C', 'C', 'C', 'C', 'C', 'C', 'C', 'C']","[1662350, 1662756, 1663143, 1663535, 1663933, 1664340, 1664701, 1665097, 1665473, 1665880, 1666270, 1666647, 1667061, 1667457, 1667845, 1668234, 1668634, 1669011, 1669395, 1669797, 1670174, 1670574]","[1662438, 1662841, 1663242, 1663645, 1664033, 1664433, 1664793, 1665192, 1665589, 1665975, 1666381, 1666757, 1667137, 1667555, 1667940, 1668304, 1668743, 1669111, 1669512, 1669888, 1670292, 1670693]","[103, 117, 147, 101, 87, 122, 126, 114, 74, 100, 65, 79, 79, 63, 71, 79, 99, 80, 42, 73, 80, 72]","[1662355, 1662760, 1663148, 1663539, 1663938, 1664345, 1664705, 1665102, 1665478, 1665885, 1666276, 1666652, 1667066, 1667462, 1667851, 1668239, 1668640, 1669016, 1669401, 1669803, 1670179, 1670580]","[1661568, 1661967, 1662367, 1662767, 1663167, 1663567, 1663967, 1664367, 1664721, 1665117, 1665494, 1665900, 1666290, 1666667, 1667081, 1667477, 1667865, 1668254, 1668654, 1669031, 1669415, 1669817, 1670194, 1670594]",85,SB,L,R,ITMSR,1.1,
4,400,trial,0,83,83,83,trial,"['S', 'S', 'S', 'S', 'S', 'S', 'S', 'C', 'C', 'C', 'C', 'C', 'C', 'C', 'C', 'C', 'C', 'C', 'C', 'C', 'C', 'C', 'C']","[1676461, 1676861, 1677241, 1677619, 1678026, 1678453, 1678844, 1679223, 1679621, 1680037, 1680418, 1680806, 1681225, 1681653, 1682054, 1682445, 1682854, 1683240, 1683619, 1683987, 1684391, 1684787, 1685184]","[1676547, 1676960, 1677337, 1677689, 1678149, 1678559, 1678957, 1679325, 1679709, 1680123, 1680523, 1680878, 1681320, 1681778, 1682165, 1682555, 1682967, 1683340, 1683721, 1684097, 1684503, 1684891, 1685286]","[240, 99, 77, 190, 221, 224, 212, 32, 252, 23, 22, 254, 79, 61, 26, 34, 53, 189, 242, 225, 187, 205, 219]","[1676463, 1676863, 1677245, 1677623, 1678030, 1678457, 1678850, 1679228, 1679626, 1680043, 1680423, 1680811, 1681229, 1681658, 1682059, 1682450, 1682860, 1683247, 1683624, 1683993, 1684398, 1684792, 1685190]","[1676060, 1676461, 1676861, 1677261, 1677661, 1678061, 1678461, 1678861, 1679243, 1679641, 1680057, 1680438, 1680826, 1681245, 1681673, 1682074, 1682465, 1682874, 1683260, 1683639, 1684007, 1684411, 1684807, 1685204]",85,SB,L,R,ITMSR,1.1,
0,600,trial,0,84,84,84,trial,"['S', 'S', 'S', 'S', 'S', 'S', 'C', 'C', 'C', 'C', 'C', 'C', 'C', 'C', 'C', 'C', 'C', 'C', 'C', 'C', 'C', 'C']","[1691928, 1692640, 1693211, 1693835, 1694456, 1694993, 1695644, 1696233, 1696826, 1697416, 1698012, 1698610, 1699257, 1699830, 1700432, 1701047, 1701633, 1702225, 1702802, 1703333, 1703917, 1704514]","[1692048, 1692759, 1693333, 1693930, 1694570, 1695096, 1695747, 1696346, 1696920, 1697530, 1698130, 1698678, 1699341, 1699938, 1700544, 1701146, 1701776, 1702380, 1702963, 1703505, 1704097, 1704621]","[133, 135, 123, 141, 105, 100, 101, 92, 106, 21, 204, 20, 99, 71, 76, 67, 76, 80, 55, 119, 223, 82]","[1691931, 1692643, 1693216, 1693839, 1694461, 1694996, 1695649, 1696238, 1696830, 1697420, 1698016, 1698614, 1699261, 1699834, 1700438, 1701052, 1701638, 1702230, 1702807, 1703339, 1703923, 1704519]","[1690871, 1691471, 1692071, 1692672, 1693272, 1693872, 1694472, 1695072, 1695664, 1696253, 1696846, 1697436, 1698032, 1698630, 1699277, 1699850, 1700452, 1701067, 1701653, 1702245, 1702822, 1703353, 1703938, 1704535]",85,SB,L,R,ITMSR,1.1,
0,400,trial,0,85,85,85,trial,"['S', 'S', 'S', 'S', 'S', 'S', 'C', 'C', 'C', 'C', 'C', 'C', 'C', 'C', 'C', 'C', 'C', 'C', 'C', 'C', 'C', 'C']","[1710756, 1711166, 1711617, 1712020, 1712404, 1712816, 1713185, 1713584, 1714001, 1714393, 1714798, 1715216, 1715604, 1715991, 1716364, 1716736, 1717137, 1717518, 1717899, 1718284, 1718694, 1719100]","[1710854, 1711251, 1711722, 1712111, 1712504, 1712889, 1713278, 1713682, 1714100, 1714509, 1714872, 1715296, 1715699, 1716059, 1716449, 1716835, 1717202, 1717569, 1717971, 1718376, 1718780, 1719120]","[140, 110, 30, 27, 15, 43, 39, 46, 40, 74, 71, 242, 239, 60, 1, 3, 244, 201, 231, 31, 238, 72]","[1710761, 1711171, 1711621, 1712025, 1712409, 1712820, 1713190, 1713589, 1714006, 1714398, 1714803, 1715222, 1715610, 1715995, 1716370, 1716742, 1717143, 1717523, 1717904, 1718289, 1718701, 1719104]","[1710029, 1710429, 1710829, 1711229, 1711629, 1712029, 1712429, 1712829, 1713205, 1713604, 1714021, 1714413, 1714818, 1715236, 1715624, 1716012, 1716384, 1716756, 1717157, 1717538, 1717919, 1718304, 1718714, 1719120]",85,SB,L,R,ITMSR,1.1,
2,600,trial,0,86,86,86,trial,"['S', 'S', 'S', 'S', 'S', 'S', 'S', 'C', 'C', 'C', 'C', 'C', 'C', 'C', 'C', 'C', 'C', 'C', 'C', 'C', 'C', 'C', 'C']","[1725299, 1725748, 1726389, 1726995, 1727596, 1728160, 1728783, 1729400, 1730016, 1730651, 1731223, 1731795, 1732358, 1732922, 1733510, 1734075, 1734622, 1735199, 1735732, 1736302, 1736879, 1737466, 1737995]","[1725382, 1725857, 1726505, 1727111, 1727700, 1728303, 1728942, 1729554, 1730114, 1730751, 1731320, 1731883, 1732475, 1733052, 1733609, 1734198, 1734642, 1735223, 1735823, 1736436, 1736955, 1737570, 1738140]","[93, 117, 156, 121, 92, 8, 40, 59, 97, 32, 47, 112, 126, 81, 37, 21, 38, 15, 182, 79, 240, 122, 32]","[1725302, 1725752, 1726392, 1726999, 1727601, 1728166, 1728788, 1729405, 1730020, 1730657, 1731228, 1731799, 1732363, 1732926, 1733514, 1734079, 1734626, 1735204, 1735737, 1736307, 1736886, 1737472, 1738001]","[1724630, 1725229, 1725829, 1726429, 1727029, 1727629, 1728229, 1728829, 1729420, 1730036, 1730671, 1731244, 1731815, 1732378, 1732942, 1733530, 1734095, 1734642, 1735219, 1735752, 1736322, 1736899, 1737486, 1738015]",85,SB,L,R,ITMSR,1.1,
2,400,trial,0,87,87,87,trial,"['S', 'S', 'S', 'S', 'S', 'S', 'S', 'C', 'C', 'C', 'C', 'C', 'C', 'C', 'C', 'C', 'C', 'C', 'C', 'C', 'C', 'C', 'C']","[1743964, 1744360, 1744763, 1745177, 1745552, 1745953, 1746415, 1746836, 1747220, 1747613, 1748001, 1748402, 1748768, 1749173, 1749567, 1749960, 1750380, 1750772, 1751203, 1751568, 1751983, 1752353, 1752756]","[1744068, 1744455, 1744864, 1745281, 1745672, 1746056, 1746486, 1746920, 1747337, 1747708, 1748120, 1748423, 1748885, 1749289, 1749683, 1750081, 1750494, 1750886, 1751322, 1751701, 1752068, 1752452, 1752858]","[133, 252, 4, 234, 176, 28, 74, 106, 151, 225, 194, 106, 185, 171, 165, 218, 42, 133, 215, 182, 169, 155, 174]","[1744034, 1744366, 1744766, 1745181, 1745555, 1745957, 1746417, 1746840, 1747226, 1747617, 1748007, 1748405, 1748773, 1749178, 1749572, 1749965, 1750385, 1750777, 1751208, 1751573, 1751988, 1752357, 1752761]","[1743633, 1744032, 1744432, 1744832, 1745232, 1745632, 1746032, 1746433, 1746856, 1747240, 1747633, 1748021, 1748422, 1748788, 1749193, 1749587, 1749980, 1750401, 1750792, 1751223, 1751588, 1752003, 1752373, 1752776]",85,SB,L,R,ITMSR,1.1,
0,600,trial,0,88,88,88,trial,"['B', 'S', 'S', 'S', 'S', 'S', 'C', 'C', 'C', 'C', 'C', 'C', 'C', 'C', 'C', 'C', 'C', 'C', 'C', 'C', 'C', 'C']","[1758265, 1759414, 1759981, 1760598, 1761203, 1762363, 1762971, 1763527, 1764069, 1764637, 1765194, 1765742, 1766317, 1766883, 1767429, 1768018, 1768573, 1769128, 1769675, 1770252, 1770834, 1771358]","[1758532, 1759446, 1760060, 1760670, 1761269, 1762434, 1763028, 1763611, 1764139, 1764727, 1765294, 1765833, 1766387, 1766982, 1767520, 1768099, 1768646, 1769203, 1769754, 1770317, 1770929, 1771437]","[202, 77, 138, 87, 76, 30, 57, 44, 248, 25, 39, 39, 254, 151, 50, 47, 52, 255, 3, 39, 55, 73]","[1758265, 1759417, 1759985, 1760604, 1761209, 1762366, 1762975, 1763532, 1764073, 1764644, 1765200, 1765746, 1766344, 1766888, 1767434, 1768024, 1768579, 1769134, 1769682, 1770258, 1770841, 1771362]","[1758276, 1758876, 1759476, 1760076, 1760676, 1761276, 1761876, 1762477, 1762991, 1763547, 1764089, 1764657, 1765214, 1765762, 1766337, 1766903, 1767449, 1768038, 1768593, 1769148, 1769695, 1770272, 1770854, 1771378]",85,SB,L,R,ITMSR,1.1,
2,600,trial,0,89,89,89,trial,"['S', 'S', 'S', 'S', 'S', 'S', 'C', 'C', 'C', 'C', 'C', 'C', 'C', 'C', 'C', 'C', 'C', 'C', 'C', 'C', 'C', 'C']","[1778142, 1778743, 1779308, 1779922, 1780514, 1781089, 1781711, 1782281, 1782872, 1783477, 1784040, 1784602, 1785191, 1785728, 1786287, 1786861, 1787419, 1787986, 1788579, 1789153, 1789701, 1790270]","[1778228, 1778786, 1779379, 1779990, 1780575, 1781169, 1781784, 1782356, 1782944, 1783554, 1784123, 1784666, 1785248, 1785812, 1786369, 1786950, 1787484, 1788060, 1788617, 1789186, 1789765, 1790344]","[144, 145, 156, 117, 47, 93, 119, 0, 29, 33, 233, 10, 71, 94, 100, 113, 44, 78, 55, 59, 89, 116]","[1778147, 1778745, 1779311, 1779927, 1780518, 1781094, 1781715, 1782286, 1782877, 1783482, 1784047, 1784609, 1785197, 1785733, 1786292, 1786866, 1787425, 1787993, 1788584, 1789158, 1789706, 1790276]","[1776962, 1777562, 1778162, 1778762, 1779362, 1779962, 1780562, 1781163, 1781731, 1782301, 1782892, 1783497, 1784060, 1784622, 1785211, 1785748, 1786307, 1786882, 1787439, 1788006, 1788599, 1789173, 1789721, 1790290]",85,SB,L,R,ITMSR,1.1,
5,600,trial,0,90,90,90,trial,"['S', 'S', 'S', 'S', 'S', 'S', 'C', 'C', 'C', 'C', 'C', 'C', 'C', 'C', 'C', 'C', 'C', 'C', 'C', 'C', 'C', 'C']","[1796751, 1797369, 1797996, 1798604, 1799193, 1799791, 1800407, 1800976, 1801561, 1802148, 1802744, 1803314, 1803850, 1804432, 1805018, 1805602, 1806184, 1806759, 1807343, 1807902, 1808478, 1809067]","[1796844, 1797443, 1798076, 1798678, 1799260, 1799860, 1800477, 1801035, 1801643, 1802204, 1802804, 1803381, 1803915, 1804490, 1805070, 1805659, 1806254, 1806779, 1807405, 1807974, 1808522, 1809123]","[131, 103, 142, 75, 90, 77, 41, 28, 68, 76, 67, 61, 77, 21, 74, 65, 126, 72, 45, 22, 34, 73]","[1796757, 1797373, 1797999, 1798609, 1799199, 1799796, 1800413, 1800981, 1801567, 1802152, 1802749, 1803320, 1803854, 1804437, 1805023, 1805608, 1806188, 1806761, 1807347, 1807910, 1808482, 1809072]","[1795672, 1796270, 1796870, 1797470, 1798070, 1798670, 1799270, 1799870, 1800427, 1800996, 1801581, 1802168, 1802764, 1803334, 1803870, 1804452, 1805038, 1805622, 1806204, 1806779, 1807363, 1807922, 1808498, 1809087]",85,SB,L,R,ITMSR,1.1,
4,600,trial,0,91,91,91,trial,"['S', 'S', 'S', 'S', 'S', 'S', 'C', 'C', 'C', 'C', 'C', 'C', 'C', 'C', 'C', 'C', 'C', 'C', 'C', 'C', 'C', 'C']","[1815696, 1816370, 1816963, 1817612, 1818150, 1818731, 1819308, 1819866, 1820391, 1820962, 1821535, 1822136, 1822707, 1823260, 1823850, 1824465, 1825046, 1825599, 1826114, 1826654, 1827235, 1827802]","[1815776, 1816454, 1817027, 1817632, 1818229, 1818770, 1819383, 1819952, 1820440, 1821025, 1821602, 1822187, 1822774, 1823338, 1823911, 1824557, 1825128, 1825667, 1826209, 1826759, 1827330, 1827869]","[91, 134, 137, 84, 80, 248, 84, 67, 34, 35, 53, 73, 29, 27, 94, 13, 24, 55, 87, 78, 67, 208]","[1815701, 1816373, 1816966, 1817617, 1818155, 1818733, 1819312, 1819871, 1820395, 1820967, 1821541, 1822141, 1822714, 1823265, 1823854, 1824472, 1825051, 1825603, 1826118, 1826661, 1827241, 1827808]","[1814588, 1815187, 1815787, 1816387, 1816987, 1817587, 1818187, 1818787, 1819328, 1819886, 1820411, 1820982, 1821555, 1822156, 1822727, 1823280, 1823870, 1824485, 1825067, 1825619, 1826135, 1826674, 1827255, 1827822]",85,SB,L,R,ITMSR,1.1,
3,600,trial,0,92,92,92,trial,"['S', 'S', 'S', 'C', 'C', 'C', 'C', 'C', 'C', 'C', 'C', 'C', 'C', 'C', 'C', 'C', 'C', 'C', 'C']","[1834523, 1835170, 1837592, 1838206, 1838812, 1839434, 1840033, 1840612, 1841215, 1841808, 1842436, 1843023, 1843613, 1844203, 1844782, 1845370, 1845968, 1846557, 1847156]","[1834567, 1835219, 1837624, 1838276, 1838881, 1839482, 1840102, 1840668, 1841264, 1841860, 1842505, 1843082, 1843661, 1844263, 1844852, 1845427, 1846024, 1846635, 1847205]","[29, 144, 179, 98, 46, 34, 57, 70, 55, 90, 93, 115, 86, 88, 128, 94, 87, 119, 118]","[1834529, 1835173, 1837598, 1838212, 1838817, 1839439, 1840036, 1840616, 1841220, 1841814, 1842440, 1843027, 1843617, 1844207, 1844786, 1845374, 1845975, 1846560, 1847161]","[1833416, 1834016, 1834616, 1835216, 1835816, 1836417, 1837016, 1837616, 1838226, 1838832, 1839454, 1840053, 1840632, 1841235, 1841828, 1842456, 1843043, 1843633, 1844224, 1844802, 1845390, 1845988, 1846577, 1847176]",85,SB,L,R,ITMSR,1.1,
4,400,trial,0,93,93,93,trial,"['S', 'S', 'S', 'S', 'S', 'S', 'S', 'C', 'C', 'C', 'C', 'C', 'C', 'C', 'C', 'C', 'C', 'C', 'C', 'C', 'C', 'C', 'C']","[1853046, 1853452, 1853750, 1854124, 1854528, 1854985, 1855346, 1855736, 1856137, 1856537, 1856925, 1857335, 1857739, 1858117, 1858510, 1858900, 1859313, 1859696, 1860088, 1860482, 1860854, 1861282, 1862046]","[1853066, 1853478, 1853770, 1854164, 1854584, 1855005, 1855395, 1855790, 1856196, 1856588, 1856994, 1857383, 1857759, 1858172, 1858586, 1858965, 1859386, 1859746, 1860168, 1860514, 1860903, 1861302, 1862118]","[125, 101, 253, 92, 99, 225, 30, 47, 68, 70, 50, 0, 205, 5, 40, 62, 254, 224, 42, 148, 44, 231, 44]","[1853048, 1853461, 1853756, 1854128, 1854532, 1854990, 1855351, 1855740, 1856143, 1856543, 1856930, 1857341, 1857743, 1858121, 1858514, 1858906, 1859319, 1859700, 1860094, 1860510, 1860859, 1861288, 1862052]","[1852546, 1852946, 1853346, 1853746, 1854146, 1854546, 1854946, 1855346, 1855756, 1856157, 1856557, 1856945, 1857355, 1857759, 1858137, 1858530, 1858920, 1859333, 1859716, 1860108, 1860502, 1860874, 1861302, 1862066]",85,SB,L,R,ITMSR,1.1,
3,600,trial,0,94,94,94,trial,"['S', 'S', 'S', 'S', 'C', 'C', 'C', 'C', 'C', 'C', 'C', 'C', 'C', 'C', 'C', 'C', 'C', 'C', 'C', 'C']","[1869948, 1870537, 1871113, 1871742, 1872306, 1872815, 1873338, 1873888, 1874430, 1874991, 1875576, 1876115, 1876647, 1877251, 1877796, 1878327, 1878896, 1879461, 1880009, 1880568]","[1870022, 1870632, 1871194, 1871816, 1872386, 1872910, 1873408, 1873932, 1874483, 1875049, 1875620, 1876200, 1876759, 1877335, 1877870, 1878409, 1878987, 1879538, 1880097, 1880635]","[177, 149, 115, 107, 103, 91, 46, 15, 180, 230, 128, 189, 30, 119, 171, 37, 220, 175, 254, 210]","[1869953, 1870543, 1871118, 1871748, 1872312, 1872823, 1873345, 1873896, 1874440, 1874999, 1875585, 1876122, 1876653, 1877257, 1877804, 1878332, 1878903, 1879471, 1880016, 1880577]","[1867609, 1868209, 1868809, 1869409, 1870009, 1870609, 1871209, 1871809, 1872326, 1872835, 1873358, 1873908, 1874450, 1875011, 1875596, 1876135, 1876667, 1877271, 1877816, 1878347, 1878916, 1879481, 1880029, 1880588]",85,SB,L,R,ITMSR,1.1,
3,400,trial,0,95,95,95,trial,"['S', 'S', 'S', 'S', 'S', 'S', 'S', 'S', 'C', 'C', 'C', 'C', 'C', 'C', 'C', 'C', 'C', 'C', 'C', 'C', 'C', 'C', 'C', 'C']","[1885990, 1886459, 1886752, 1887069, 1887437, 1887877, 1888279, 1888691, 1889094, 1889487, 1889921, 1890332, 1890725, 1891125, 1891528, 1891919, 1892299, 1892749, 1893148, 1893550, 1893983, 1894421, 1894834, 1895236]","[1886077, 1886526, 1886820, 1887151, 1887504, 1887935, 1888334, 1888752, 1889157, 1889544, 1889972, 1890396, 1890796, 1891201, 1891592, 1891976, 1892349, 1892808, 1893215, 1893618, 1894029, 1894474, 1894897, 1895296]","[101, 122, 114, 119, 101, 145, 127, 15, 54, 45, 154, 238, 190, 233, 0, 215, 192, 232, 8, 230, 235, 206, 25, 28]","[1885995, 1886465, 1886757, 1887075, 1887442, 1887883, 1888287, 1888697, 1889116, 1889495, 1889930, 1890357, 1890734, 1891131, 1891534, 1891926, 1892307, 1892777, 1893155, 1893570, 1893990, 1894429, 1894839, 1895243]","[1885896, 1886296, 1886696, 1887096, 1887496, 1887896, 1888296, 1888696, 1889114, 1889507, 1889941, 1890352, 1890745, 1891145, 1891548, 1891939, 1892319, 1892769, 1893168, 1893570, 1894003, 1894441, 1894854, 1895256]",85,SB,L,R,ITMSR,1.1,
1,600,trial,0,96,96,96,trial,"['S', 'S', 'S', 'C', 'C', 'C', 'C', 'C', 'C', 'C', 'C', 'C', 'C', 'C', 'C', 'C', 'C', 'C', 'C']","[1903799, 1904363, 1905010, 1905579, 1906106, 1906683, 1907259, 1907879, 1908449, 1908973, 1909529, 1910097, 1910681, 1911288, 1911861, 1912441, 1912999, 1913587, 1914205]","[1903892, 1904484, 1905089, 1905664, 1906235, 1906811, 1907366, 1907970, 1908558, 1909087, 1909640, 1910210, 1910761, 1911410, 1912003, 1912538, 1913096, 1913659, 1914287]","[184, 158, 151, 169, 169, 138, 146, 148, 171, 160, 175, 176, 168, 157, 157, 139, 173, 63, 136]","[1903804, 1904368, 1905015, 1905584, 1906110, 1906688, 1907264, 1907885, 1908455, 1908978, 1909535, 1910103, 1910686, 1911293, 1911865, 1912446, 1913006, 1913592, 1914210]","[1900831, 1901430, 1902030, 1902630, 1903230, 1903831, 1904430, 1905030, 1905599, 1906126, 1906703, 1907279, 1907899, 1908469, 1908994, 1909549, 1910117, 1910701, 1911308, 1911881, 1912461, 1913019, 1913607, 1914225]",85,SB,L,R,ITMSR,1.1,
