pitch,ioi,event,.thisRepN,.thisTrialN,.thisN,.thisIndex,event,tap_types,tap_times,release_times,peak_pressures,peak_times,tone_times,subject,experimenter,register,handedness,experiment,version
,,SPR,0,-1,-1,0,SPR,"['P', 'P', 'P', 'P', 'P', 'P', 'P', 'P', 'P', 'P', 'P', 'P', 'P', 'P', 'P', 'P', 'P', 'P', 'P', 'P', 'P', 'P', 'P', 'P', 'P', 'P', 'P', 'P', 'P', 'P']","[51443, 52040, 52711, 53355, 54023, 54635, 55290, 55945, 56625, 57274, 57908, 58527, 59159, 59754, 60392, 61042, 61658, 62303, 62912, 63557, 64150, 64796, 65377, 65999, 66594, 67240, 67831, 68461, 69051, 69655]","[51611, 52287, 53005, 53681, 54334, 54963, 55569, 56225, 56900, 57574, 58224, 58844, 59464, 60056, 60701, 61338, 61982, 62569, 63187, 63827, 64454, 65056, 65677, 66269, 66902, 67521, 68099, 68708, 69325, 69929]","[96, 71, 75, 54, 67, 25, 23, 61, 43, 76, 31, 74, 32, 68, 62, 47, 67, 50, 48, 254, 10, 210, 175, 9, 198, 171, 6, 231, 242, 80]","[51446, 52043, 52715, 53359, 54026, 54639, 55294, 55949, 56628, 57278, 57912, 58531, 59163, 59758, 60395, 61046, 61662, 62307, 62916, 63561, 64154, 64800, 65381, 66002, 66598, 67245, 67835, 68464, 69054, 69660]",,59,SB,L,R,ITMSR,1.1
5,500,practice,0,0,0,0,practice,"['S', 'S', 'S', 'S', 'S', 'S', 'S', 'C', 'C', 'C', 'C', 'C', 'C', 'C', 'C', 'C', 'C', 'C', 'C', 'C', 'C', 'C', 'C']","[154835, 155330, 155845, 156335, 156847, 157348, 157819, 158318, 158740, 159259, 159754, 160246, 160696, 161193, 161667, 162140, 162613, 163100, 163582, 164060, 164553, 165024, 165482]","[154985, 155471, 155979, 156441, 156960, 157446, 157911, 158408, 158868, 159356, 159860, 160348, 160805, 161297, 161784, 162250, 162712, 163198, 163707, 164187, 164678, 165151, 165614]","[140, 91, 113, 71, 85, 99, 71, 78, 76, 243, 25, 216, 30, 158, 18, 241, 178, 158, 213, 173, 154, 205, 135]","[154903, 155396, 155848, 156389, 156903, 157352, 157824, 158322, 158744, 159263, 159758, 160251, 160700, 161200, 161672, 162145, 162619, 163161, 163588, 164132, 164559, 165029, 165488]","[154498, 154998, 155498, 155998, 156498, 156998, 157498, 157998, 158338, 158760, 159279, 159774, 160266, 160716, 161213, 161687, 162160, 162633, 163120, 163602, 164080, 164573, 165044, 165502]",59,SB,L,R,ITMSR,1.1
4,500,practice,0,1,1,1,practice,"['S', 'S', 'S', 'S', 'C', 'C', 'C', 'C', 'C', 'C', 'C', 'C', 'C', 'C', 'C', 'C', 'C', 'C', 'C', 'C']","[172944, 173412, 173899, 174408, 174930, 175414, 175899, 176392, 176880, 177369, 177875, 178375, 178861, 179385, 179858, 180358, 180811, 181334, 181774, 182256]","[173081, 173593, 174114, 174644, 175130, 175621, 176107, 176589, 177087, 177577, 178061, 178550, 179070, 179564, 180066, 180505, 181015, 181449, 181916, 182402]","[235, 70, 81, 87, 107, 70, 70, 75, 77, 95, 82, 98, 91, 93, 72, 79, 96, 39, 2, 252]","[172949, 173416, 173903, 174412, 174934, 175418, 175903, 176396, 176886, 177373, 177880, 178379, 178866, 179390, 179862, 180362, 180815, 181339, 181779, 182262]","[170956, 171456, 171956, 172456, 172956, 173456, 173956, 174456, 174950, 175434, 175919, 176412, 176900, 177389, 177895, 178395, 178881, 179405, 179878, 180378, 180831, 181354, 181794, 182276]",59,SB,L,R,ITMSR,1.1
0,500,practice,0,2,2,2,practice,"['S', 'S', 'S', 'S', 'C', 'C', 'C', 'C', 'C', 'C', 'C', 'C', 'C', 'C', 'C', 'C', 'C', 'C', 'C', 'C']","[189698, 190170, 190664, 191170, 191666, 192224, 192746, 193218, 193772, 194266, 194738, 195241, 195745, 196228, 196712, 197167, 197675, 198158, 198621, 199144]","[189834, 190352, 190875, 191367, 191874, 192350, 192885, 193385, 193901, 194406, 194904, 195396, 195867, 196388, 196857, 197330, 197831, 198278, 198770, 199266]","[64, 69, 98, 84, 51, 225, 7, 21, 246, 14, 244, 247, 113, 231, 195, 18, 99, 27, 98, 43]","[189701, 190174, 190668, 191174, 191670, 192228, 192750, 193223, 193776, 194270, 194742, 195246, 195815, 196232, 196717, 197171, 197680, 198163, 198626, 199150]","[187716, 188215, 188716, 189215, 189715, 190215, 190715, 191215, 191686, 192244, 192766, 193239, 193793, 194286, 194758, 195261, 195765, 196248, 196732, 197187, 197695, 198178, 198641, 199164]",59,SB,L,R,ITMSR,1.1
3,500,practice,0,3,3,3,practice,"['S', 'S', 'S', 'S', 'C', 'C', 'C', 'C', 'C', 'C', 'C', 'C', 'C', 'C', 'C', 'C', 'C', 'C', 'C', 'C', 'C', 'C']","[206955, 207403, 207923, 208443, 208939, 209449, 209936, 210449, 210941, 211410, 211935, 212420, 212910, 213012, 213400, 213897, 214394, 214918, 215375, 215863, 215963, 216374]","[207100, 207596, 208144, 208658, 209131, 209622, 210137, 210629, 211101, 211596, 212091, 212605, 212931, 213060, 213573, 214054, 214616, 215086, 215584, 215883, 216024, 216569]","[215, 246, 255, 217, 225, 228, 9, 169, 187, 208, 198, 162, 72, 60, 85, 14, 129, 108, 187, 36, 32, 185]","[207045, 207407, 207927, 208448, 208943, 209455, 209941, 210454, 210947, 211415, 211940, 212424, 212913, 213012, 213491, 213900, 214397, 214921, 215380, 215866, 215965, 216378]","[204954, 205454, 205954, 206454, 206954, 207454, 207954, 208454, 208959, 209469, 209956, 210469, 210961, 211430, 211955, 212440, 212930, 213421, 213917, 214414, 214938, 215395, 215883, 216394]",59,SB,L,R,ITMSR,1.1
1,500,practice,0,4,4,4,practice,"['S', 'S', 'S', 'S', 'C', 'C', 'C', 'C', 'C', 'C', 'C', 'C', 'C', 'C', 'C', 'C', 'C', 'C', 'C', 'C']","[224143, 224590, 225129, 225635, 226145, 226666, 227148, 227615, 228103, 228618, 229091, 229591, 230080, 230581, 231062, 231494, 231990, 232524, 232974, 233475]","[224296, 224806, 225337, 225843, 226342, 226835, 227316, 227776, 228279, 228763, 229237, 229730, 230194, 230665, 231126, 231581, 232084, 232614, 233083, 233573]","[70, 1, 65, 59, 69, 51, 230, 28, 250, 244, 251, 229, 167, 210, 184, 197, 121, 102, 190, 191]","[224147, 224686, 225133, 225639, 226149, 226670, 227152, 227618, 228107, 228623, 229095, 229596, 230085, 230586, 231066, 231499, 231995, 232529, 232978, 233480]","[222174, 222673, 223173, 223673, 224173, 224673, 225173, 225673, 226165, 226686, 227168, 227635, 228123, 228638, 229111, 229611, 230100, 230601, 231083, 231514, 232010, 232544, 232994, 233495]",59,SB,L,R,ITMSR,1.1
2,500,practice,0,5,5,5,practice,"['S', 'S', 'S', 'S', 'C', 'C', 'C', 'C', 'C', 'C', 'C', 'C', 'C', 'C', 'C', 'C', 'C', 'C', 'C', 'C', 'C', 'C']","[240897, 241392, 241894, 242410, 242923, 243432, 243904, 244399, 244901, 245398, 245886, 246372, 246871, 247360, 247884, 248323, 248797, 249339, 249439, 249835, 250274, 250374]","[241062, 241612, 242141, 242618, 243123, 243562, 244080, 244571, 245061, 245575, 246067, 246539, 247052, 247556, 248081, 248570, 249051, 249359, 249468, 249856, 250294, 250403]","[55, 43, 31, 41, 215, 237, 210, 145, 118, 181, 238, 187, 158, 117, 92, 137, 55, 7, 162, 70, 42, 97]","[240902, 241397, 241898, 242414, 242928, 243436, 243909, 244404, 244907, 245403, 245891, 246376, 246875, 247366, 247889, 248327, 248802, 249344, 249439, 249837, 250278, 250379]","[238943, 239443, 239943, 240443, 240943, 241443, 241943, 242443, 242944, 243452, 243924, 244419, 244921, 245419, 245906, 246392, 246891, 247380, 247904, 248343, 248817, 249359, 249856, 250294]",59,SB,L,R,ITMSR,1.1
4,400,trial,0,6,6,6,trial,"['S', 'S', 'S', 'S', 'C', 'C', 'C', 'C', 'C', 'C', 'C', 'C', 'C', 'C', 'C', 'C', 'C', 'C', 'C', 'C']","[315640, 316041, 316425, 316822, 317218, 317646, 318008, 318432, 318822, 319243, 319614, 320030, 320427, 320834, 321224, 321599, 322023, 322416, 322796, 323228]","[315754, 316145, 316562, 316960, 317359, 317788, 318170, 318581, 318971, 319377, 319779, 320187, 320581, 320973, 321356, 321726, 322150, 322536, 322913, 323353]","[132, 113, 107, 101, 105, 41, 70, 38, 49, 79, 17, 7, 22, 46, 25, 232, 218, 224, 160, 192]","[315644, 316045, 316428, 316825, 317222, 317651, 318013, 318437, 318826, 319247, 319719, 320115, 320507, 320839, 321229, 321672, 322092, 322422, 322852, 323234]","[314082, 314482, 314882, 315282, 315682, 316082, 316482, 316882, 317238, 317666, 318028, 318452, 318842, 319263, 319634, 320050, 320447, 320855, 321244, 321619, 322043, 322436, 322817, 323248]",59,SB,L,R,ITMSR,1.1
3,600,trial,0,7,7,7,trial,"['S', 'S', 'S', 'S', 'C', 'C', 'C', 'C', 'C', 'C', 'C', 'C', 'C', 'C', 'C', 'C', 'C', 'C', 'C', 'C']","[331352, 331966, 332570, 333198, 333806, 334406, 335045, 335667, 336307, 336947, 337543, 338161, 338744, 339378, 339969, 340571, 341187, 341818, 342444, 343065]","[331608, 332289, 332926, 333534, 334136, 334734, 335382, 335953, 336576, 337222, 337818, 338453, 339066, 339675, 340300, 340883, 341501, 342136, 342720, 343329]","[114, 115, 125, 132, 117, 112, 100, 99, 98, 93, 81, 30, 75, 46, 57, 23, 45, 34, 18, 246]","[331356, 332152, 332810, 333381, 333984, 334574, 335205, 335832, 336311, 336951, 337547, 338166, 338748, 339601, 340200, 340576, 341191, 341822, 342449, 343070]","[328993, 329593, 330193, 330793, 331394, 331994, 332594, 333194, 333826, 334426, 335065, 335687, 336327, 336967, 337563, 338181, 338764, 339398, 339989, 340591, 341208, 341838, 342464, 343085]",59,SB,L,R,ITMSR,1.1
3,400,trial,0,8,8,8,trial,"['S', 'S', 'S', 'S', 'C', 'C', 'C', 'C', 'C', 'C', 'C', 'C', 'C', 'C', 'C', 'C', 'C', 'C', 'C', 'C']","[350299, 350670, 351075, 351490, 351924, 352317, 352714, 353123, 353496, 353928, 354344, 354724, 355146, 355561, 355974, 356370, 356795, 357201, 357626, 358007]","[350454, 350869, 351283, 351717, 352114, 352489, 352890, 353282, 353669, 354111, 354510, 354933, 355341, 355744, 356128, 356532, 356962, 357358, 357763, 358164]","[85, 66, 101, 86, 79, 36, 50, 41, 70, 56, 55, 57, 44, 5, 51, 61, 242, 21, 20, 42]","[350303, 350675, 351080, 351494, 351929, 352403, 352806, 353206, 353598, 354032, 354427, 354834, 355261, 355664, 355980, 356375, 356898, 357206, 357632, 358012]","[348717, 349117, 349517, 349917, 350317, 350717, 351117, 351517, 351944, 352337, 352734, 353143, 353516, 353948, 354364, 354744, 355166, 355581, 355994, 356390, 356815, 357221, 357646, 358027]",59,SB,L,R,ITMSR,1.1
3,400,trial,0,9,9,9,trial,"['S', 'S', 'S', 'S', 'C', 'C', 'C', 'C', 'C', 'C', 'C', 'C', 'C', 'C', 'C', 'C', 'C', 'C', 'C', 'C']","[365006, 365384, 365767, 366156, 366586, 367006, 367408, 367806, 368205, 368605, 369006, 369376, 369782, 370213, 370606, 371022, 371434, 371788, 372192, 372625]","[365138, 365575, 365964, 366387, 366786, 367196, 367576, 367969, 368368, 368779, 369131, 369511, 369931, 370334, 370746, 371148, 371534, 371930, 372341, 372760]","[114, 107, 109, 102, 119, 122, 112, 122, 110, 110, 93, 111, 96, 75, 72, 79, 22, 79, 37, 11]","[365010, 365389, 365847, 366160, 366590, 367010, 367412, 367810, 368209, 368609, 369064, 369380, 369787, 370217, 370610, 371027, 371439, 371792, 372196, 372630]","[363423, 363822, 364222, 364622, 365022, 365422, 365822, 366222, 366606, 367026, 367428, 367826, 368225, 368625, 369026, 369396, 369802, 370233, 370626, 371042, 371454, 371808, 372212, 372645]",59,SB,L,R,ITMSR,1.1
1,400,trial,0,10,10,10,trial,"['S', 'S', 'S', 'S', 'C', 'C', 'C', 'C', 'C', 'C', 'C', 'C', 'C', 'C', 'C', 'C', 'C', 'C', 'C', 'C']","[379741, 380109, 380492, 380920, 381285, 381688, 382100, 382453, 382879, 383312, 383702, 384095, 384531, 384913, 385284, 385721, 386125, 386526, 386953, 387326]","[379852, 380235, 380619, 381020, 381389, 381809, 382209, 382592, 383011, 383426, 383824, 384229, 384637, 385016, 385404, 385827, 386227, 386633, 387030, 387438]","[113, 106, 129, 90, 119, 95, 91, 94, 49, 22, 34, 52, 24, 33, 39, 45, 12, 17, 25, 61]","[379745, 380113, 380495, 380923, 381288, 381692, 382104, 382456, 382883, 383316, 383706, 384100, 384535, 384917, 385289, 385724, 386130, 386531, 386957, 387331]","[378126, 378526, 378926, 379326, 379726, 380126, 380526, 380926, 381305, 381708, 382120, 382473, 382899, 383332, 383722, 384115, 384551, 384933, 385304, 385741, 386145, 386546, 386973, 387346]",59,SB,L,R,ITMSR,1.1
5,600,trial,0,11,11,11,trial,"['S', 'S', 'S', 'S', 'C', 'C', 'C', 'C', 'C', 'C', 'C', 'C', 'C', 'C', 'C', 'C', 'C', 'C', 'C', 'C']","[395458, 396056, 396693, 397351, 397895, 398477, 399067, 399643, 400234, 400868, 401439, 402035, 402621, 403239, 403838, 404415, 405017, 405645, 406239, 406845]","[395660, 396329, 396982, 397598, 398174, 398776, 399305, 399907, 400485, 401148, 401739, 402337, 402958, 403489, 404082, 404694, 405298, 405913, 406532]","[113, 127, 106, 120, 143, 154, 142, 128, 142, 127, 124, 139, 128, 136, 114, 131, 91, 82, 105]","[395462, 396059, 396695, 397353, 397898, 398481, 399071, 399647, 400238, 400872, 401443, 402038, 402624, 403243, 403842, 404418, 405021, 405648, 406242]","[393093, 393693, 394293, 394893, 395493, 396093, 396693, 397293, 397915, 398497, 399087, 399663, 400254, 400888, 401459, 402055, 402641, 403259, 403858, 404435, 405037, 405665, 406259, 406865]",59,SB,L,R,ITMSR,1.1
2,600,trial,0,12,12,12,trial,"['S', 'S', 'S', 'S', 'C', 'C', 'C', 'C', 'C', 'C', 'C', 'C', 'C', 'C', 'C', 'C', 'C', 'C', 'C', 'C']","[414638, 415269, 415889, 416438, 417017, 417614, 418202, 418788, 419377, 419937, 420563, 421136, 421719, 422346, 422964, 423541, 424126, 424755, 425369, 425951]","[414830, 415442, 416091, 416667, 417256, 417851, 418427, 419031, 419610, 420189, 420744, 421289, 421938, 422547, 423147, 423739, 424339, 424933, 425544, 426096]","[137, 144, 120, 133, 143, 119, 134, 105, 61, 222, 65, 79, 115, 118, 127, 117, 131, 98, 113, 109]","[414641, 415272, 415893, 416441, 417020, 417618, 418206, 418791, 419381, 420041, 420569, 421140, 421722, 422349, 422968, 423545, 424129, 424759, 425372, 425954]","[412253, 412852, 413452, 414052, 414652, 415252, 415852, 416452, 417037, 417634, 418222, 418808, 419397, 419957, 420583, 421156, 421739, 422366, 422984, 423561, 424146, 424775, 425389, 425971]",59,SB,L,R,ITMSR,1.1
1,600,trial,0,13,13,13,trial,"['S', 'S', 'S', 'S', 'C', 'C', 'C', 'C', 'C', 'C', 'C', 'C', 'C', 'C', 'C', 'C', 'C', 'C', 'C', 'C']","[433696, 434263, 434874, 435453, 436084, 436675, 437266, 437865, 438474, 439091, 439688, 440291, 440871, 441508, 442109, 442712, 443289, 443890, 444483, 445118]","[433866, 434491, 435098, 435691, 436317, 436932, 437527, 438097, 438682, 439287, 439898, 440489, 441071, 441686, 442294, 442885, 443505, 444063, 444655, 445235]","[144, 145, 138, 149, 118, 153, 144, 123, 118, 116, 134, 128, 153, 23, 151, 133, 129, 131, 136, 88]","[433699, 434266, 434877, 435457, 436087, 436678, 437270, 437868, 438478, 439095, 439691, 440295, 440875, 441513, 442113, 442715, 443292, 443893, 444486, 445122]","[431296, 431896, 432496, 433096, 433696, 434296, 434896, 435496, 436104, 436696, 437286, 437885, 438494, 439111, 439708, 440311, 440891, 441528, 442129, 442732, 443309, 443910, 444504, 445138]",59,SB,L,R,ITMSR,1.1
5,600,trial,0,14,14,14,trial,"['S', 'S', 'S', 'S', 'C', 'C', 'C', 'C', 'C', 'C', 'C', 'C', 'C', 'C', 'C', 'C', 'C', 'C', 'C', 'C']","[452932, 453506, 454092, 454682, 455314, 455918, 456531, 457118, 457675, 458245, 458856, 459486, 460053, 460647, 461207, 461821, 462380, 462976, 463587, 464188]","[453170, 453783, 454381, 455002, 455589, 456204, 456772, 457359, 457982, 458555, 459131, 459704, 460338, 460922, 461484, 462084, 462672, 463245, 463832, 464418]","[133, 135, 154, 157, 121, 146, 100, 95, 131, 102, 124, 83, 78, 120, 120, 106, 124, 101, 85, 65]","[452936, 453510, 454095, 454685, 455317, 455921, 456536, 457121, 457678, 458249, 458860, 459491, 460057, 460650, 461211, 461825, 462384, 462979, 463591, 464192]","[450576, 451175, 451775, 452375, 452975, 453575, 454175, 454775, 455334, 455938, 456551, 457138, 457695, 458265, 458876, 459506, 460073, 460667, 461228, 461841, 462400, 462996, 463607, 464208]",59,SB,L,R,ITMSR,1.1
5,400,trial,0,15,15,15,trial,"['S', 'S', 'S', 'S', 'C', 'C', 'C', 'C', 'C', 'C', 'C', 'C', 'C', 'C', 'C', 'C', 'C', 'C', 'C', 'C']","[471409, 471817, 472272, 472654, 473055, 473491, 473919, 474341, 474757, 475209, 475620, 476041, 476494, 476859, 477232, 477602, 478023, 478390, 478799, 479177]","[471562, 471994, 472425, 472818, 473227, 473650, 474086, 474483, 474925, 475330, 475777, 476174, 476582, 476978, 477351, 477727, 478142, 478514, 478924, 479305]","[154, 146, 133, 135, 146, 125, 101, 144, 151, 94, 129, 139, 80, 93, 61, 107, 103, 98, 100, 78]","[471412, 471820, 472275, 472657, 473058, 473495, 473923, 474344, 474760, 475214, 475623, 476044, 476498, 476863, 477237, 477606, 478026, 478394, 478803, 479181]","[469809, 470209, 470609, 471009, 471409, 471810, 472210, 472610, 473075, 473511, 473939, 474361, 474777, 475229, 475640, 476061, 476514, 476879, 477252, 477622, 478043, 478410, 478819, 479197]",59,SB,L,R,ITMSR,1.1
1,600,trial,0,16,16,16,trial,"['S', 'S', 'S', 'S', 'C', 'C', 'C', 'C', 'C', 'C', 'C', 'C', 'C', 'C', 'C', 'C', 'C', 'C', 'C', 'C']","[487045, 487623, 488219, 488845, 489443, 490060, 490665, 491253, 491857, 492476, 493051, 493644, 494236, 494815, 495400, 495983, 496583, 497130, 497734, 498324]","[487255, 487878, 488474, 489042, 489655, 490251, 490816, 491374, 492006, 492583, 493201, 493775, 494402, 494971, 495563, 496143, 496771, 497341, 497879, 498458]","[171, 154, 133, 118, 84, 80, 34, 245, 24, 0, 179, 214, 222, 87, 37, 58, 89, 45, 145, 140]","[487047, 487625, 488222, 488847, 489447, 490064, 490670, 491258, 491862, 492481, 493057, 493649, 494240, 494820, 495407, 495987, 496587, 497135, 497739, 498329]","[484645, 485245, 485846, 486445, 487045, 487645, 488245, 488845, 489463, 490080, 490685, 491273, 491877, 492496, 493071, 493664, 494256, 494835, 495420, 496003, 496603, 497150, 497754, 498344]",59,SB,L,R,ITMSR,1.1
2,400,trial,0,17,17,17,trial,"['S', 'S', 'S', 'S', 'C', 'C', 'C', 'C', 'C', 'C', 'C', 'C', 'C', 'C', 'C', 'C', 'C', 'C', 'C', 'C']","[505567, 505975, 506368, 506793, 507187, 507607, 508003, 508391, 508820, 509219, 509585, 509981, 510418, 510787, 511187, 511608, 511995, 512411, 512775, 513191]","[505700, 506129, 506549, 506973, 507370, 507790, 508158, 508568, 508961, 509353, 509716, 510097, 510524, 510897, 511316, 511714, 512118, 512506, 512858, 513280]","[21, 52, 60, 46, 30, 66, 58, 80, 26, 65, 244, 13, 120, 165, 105, 116, 10, 250, 84, 233]","[505572, 505979, 506372, 506798, 507192, 507611, 508007, 508395, 508824, 509223, 509589, 509986, 510424, 510792, 511193, 511613, 512001, 512417, 512781, 513196]","[503988, 504388, 504788, 505188, 505588, 505988, 506388, 506788, 507207, 507627, 508023, 508411, 508840, 509239, 509605, 510001, 510438, 510808, 511207, 511628, 512015, 512431, 512795, 513211]",59,SB,L,R,ITMSR,1.1
4,600,trial,0,18,18,18,trial,"['S', 'S', 'S', 'S', 'C', 'C', 'C', 'C', 'C', 'C', 'C', 'C', 'C', 'C', 'C', 'C', 'C', 'C', 'C', 'C']","[521157, 521788, 522380, 522977, 523570, 524209, 524853, 525488, 526115, 526702, 527247, 527831, 528440, 529029, 529638, 530238, 530812, 531407, 532034, 532667]","[521447, 522073, 522698, 523274, 523913, 524465, 525106, 525729, 526365, 527012, 527580, 528100, 528739, 529344, 529931, 530491, 531086, 531702, 532282, 532878]","[94, 69, 89, 92, 66, 43, 60, 29, 15, 33, 186, 42, 27, 45, 31, 244, 25, 34, 37, 30]","[521161, 521792, 522384, 522981, 523574, 524213, 524857, 525492, 526120, 526706, 527364, 527834, 528443, 529032, 529642, 530242, 530817, 531410, 532037, 532671]","[518819, 519419, 520019, 520620, 521219, 521819, 522419, 523019, 523590, 524229, 524873, 525508, 526135, 526722, 527267, 527851, 528460, 529049, 529658, 530258, 530832, 531427, 532055, 532687]",59,SB,L,R,ITMSR,1.1
1,400,trial,0,19,19,19,trial,"['S', 'S', 'S', 'S', 'C', 'C', 'C', 'C', 'C', 'C', 'C', 'C', 'C', 'C', 'C', 'C', 'C', 'C', 'C', 'C', 'C', 'C']","[539919, 540316, 540705, 541120, 541531, 541937, 542327, 542738, 543104, 543543, 543643, 543946, 544381, 544765, 545183, 545283, 545581, 546013, 546377, 546790, 547193, 547581]","[540042, 540445, 540854, 541277, 541674, 542083, 542469, 542849, 543253, 543563, 543663, 544071, 544473, 544892, 545203, 545303, 545601, 546082, 546485, 546892, 547281, 547681]","[34, 240, 235, 12, 71, 74, 235, 57, 74, 209, 213, 247, 210, 248, 187, 50, 215, 201, 251, 189, 182, 140]","[539924, 540321, 540709, 541124, 541535, 541942, 542332, 542742, 543108, 543548, 543643, 543951, 544388, 544771, 545188, 545283, 545586, 546018, 546381, 546796, 547198, 547588]","[538336, 538736, 539137, 539536, 539936, 540336, 540736, 541136, 541551, 541957, 542347, 542758, 543124, 543563, 543966, 544401, 544785, 545203, 545601, 546033, 546397, 546810, 547213, 547601]",59,SB,L,R,ITMSR,1.1
0,600,trial,0,20,20,20,trial,"['S', 'S', 'S', 'S', 'C', 'C', 'C', 'C', 'C', 'C', 'C', 'C', 'C', 'C', 'C', 'C', 'C', 'C', 'C', 'C']","[555457, 556076, 556685, 557262, 557852, 558465, 559058, 559661, 560288, 560929, 561532, 562129, 562751, 563363, 563938, 564573, 565175, 565776, 566408, 567045]","[555622, 556284, 556865, 557448, 558014, 558631, 559212, 559827, 560445, 561089, 561692, 562300, 562915, 563507, 564099, 564704, 565316, 565946, 566541, 567192]","[124, 115, 102, 101, 134, 95, 101, 79, 88, 72, 73, 39, 36, 178, 239, 255, 58, 231, 15, 55]","[555460, 556079, 556689, 557266, 557856, 558468, 559063, 559665, 560292, 560933, 561537, 562135, 562756, 563448, 563943, 564577, 565178, 565781, 566412, 567048]","[553070, 553670, 554270, 554870, 555470, 556070, 556670, 557271, 557872, 558485, 559078, 559681, 560308, 560949, 561552, 562149, 562771, 563383, 563958, 564593, 565195, 565796, 566428, 567065]",59,SB,L,R,ITMSR,1.1
4,600,trial,0,21,21,21,trial,"['S', 'S', 'S', 'S', 'C', 'C', 'C', 'C', 'C', 'C', 'C', 'C', 'C', 'C', 'C', 'C', 'C', 'C', 'C', 'C']","[574995, 575580, 576138, 576750, 577388, 578030, 578634, 579231, 579819, 580467, 581051, 581646, 582236, 582837, 583486, 584055, 584635, 585201, 585814, 586398]","[575171, 575806, 576437, 577060, 577666, 578271, 578859, 579469, 580059, 580685, 581316, 581880, 582484, 583069, 583674, 584259, 584892, 585505, 586020, 586569]","[110, 108, 105, 128, 117, 111, 83, 106, 4, 66, 66, 90, 83, 101, 86, 102, 51, 99, 46, 67]","[574998, 575583, 576142, 576753, 577392, 578034, 578637, 579235, 579824, 580471, 581055, 581649, 582240, 582840, 583490, 584059, 584639, 585205, 585817, 586401]","[572606, 573206, 573806, 574406, 575006, 575606, 576206, 576806, 577409, 578050, 578654, 579251, 579840, 580487, 581071, 581666, 582256, 582857, 583506, 584075, 584655, 585221, 585834, 586418]",59,SB,L,R,ITMSR,1.1
0,600,trial,0,22,22,22,trial,"['S', 'S', 'S', 'S', 'C', 'C', 'C', 'C', 'C', 'C', 'C', 'C', 'C', 'C', 'C', 'C', 'C', 'C', 'C', 'C']","[594579, 595103, 595679, 596272, 596869, 597468, 598063, 598656, 599254, 599855, 600431, 600992, 601580, 602136, 602762, 603364, 603955, 604549, 605132, 605688]","[594743, 595323, 595943, 596566, 597173, 597699, 598273, 598857, 599445, 600042, 600626, 601198, 601778, 602366, 602937, 603539, 604141, 604701, 605268, 605850]","[148, 139, 134, 158, 149, 96, 101, 84, 60, 45, 57, 59, 2, 38, 49, 212, 31, 182, 231, 241]","[594582, 595106, 595683, 596275, 596872, 597472, 598066, 598659, 599258, 599859, 600435, 600995, 601584, 602139, 602766, 603368, 603958, 604553, 605136, 605693]","[592155, 592754, 593354, 593954, 594554, 595154, 595755, 596354, 596889, 597488, 598083, 598676, 599274, 599875, 600451, 601012, 601601, 602157, 602782, 603384, 603975, 604569, 605152, 605708]",59,SB,L,R,ITMSR,1.1
0,400,trial,0,23,23,23,trial,"['S', 'S', 'S', 'S', 'S', 'S', 'S', 'S', 'C', 'C', 'C', 'C', 'C', 'C', 'C', 'C', 'C', 'C', 'C', 'C', 'C', 'C', 'C', 'C']","[611524, 611927, 612243, 612541, 612936, 613332, 613750, 614135, 614546, 614936, 615335, 615691, 616085, 616532, 616925, 617350, 617771, 618162, 618574, 618952, 619384, 619763, 620190, 620545]","[611605, 612046, 612402, 612698, 613082, 613490, 613880, 614264, 614645, 615053, 615438, 615837, 616212, 616635, 617035, 617463, 617862, 618262, 618659, 619051, 619480, 619866, 620277, 620648]","[23, 36, 18, 73, 69, 95, 51, 99, 51, 77, 54, 97, 48, 221, 43, 35, 180, 9, 225, 198, 228, 178, 166, 254]","[611528, 611930, 612248, 612618, 612940, 613337, 613754, 614138, 614550, 614940, 615341, 615695, 616089, 616537, 616929, 617354, 617775, 618167, 618579, 618957, 619388, 619767, 620194, 620549]","[611356, 611757, 612157, 612557, 612957, 613357, 613757, 614157, 614566, 614957, 615355, 615711, 616105, 616552, 616945, 617370, 617791, 618182, 618594, 618972, 619404, 619783, 620210, 620565]",59,SB,L,R,ITMSR,1.1
3,600,trial,0,24,24,24,trial,"['S', 'S', 'S', 'S', 'C', 'C', 'C', 'C', 'C', 'C', 'C', 'C', 'C', 'C', 'C', 'C', 'C', 'C', 'C', 'C']","[628686, 629275, 629849, 630463, 631058, 631618, 632211, 632810, 633382, 633969, 634567, 635146, 635725, 636317, 636866, 637471, 638010, 638618, 639215, 639805]","[628909, 629561, 630145, 630740, 631342, 631916, 632480, 633041, 633670, 634252, 634830, 635327, 635923, 636545, 637103, 637668, 638248, 638814, 639408, 639938]","[131, 97, 75, 63, 40, 34, 46, 50, 246, 19, 51, 61, 207, 38, 87, 54, 7, 233, 219, 194]","[628689, 629279, 629852, 630466, 631061, 631622, 632214, 632813, 633387, 633973, 634571, 635149, 635729, 636321, 636869, 637474, 638014, 638621, 639219, 639808]","[626301, 626900, 627501, 628101, 628701, 629301, 629901, 630501, 631078, 631639, 632231, 632830, 633402, 633989, 634587, 635166, 635745, 636337, 636887, 637491, 638030, 638638, 639235, 639825]",59,SB,L,R,ITMSR,1.1
0,400,trial,0,25,25,25,trial,"['S', 'S', 'S', 'S', 'C', 'C', 'C', 'C', 'C', 'C', 'C', 'C', 'C', 'C', 'C', 'C', 'C', 'C', 'C', 'C', 'C']","[647178, 647574, 647970, 648383, 648837, 649259, 649680, 650063, 650458, 650558, 650871, 651289, 651662, 652079, 652498, 654127, 654551, 654936, 655354, 655706, 656164]","[647298, 647687, 648118, 648532, 648857, 649373, 649700, 650198, 650478, 650578, 650991, 651400, 651772, 652099, 652608, 654230, 654639, 655041, 655451, 655822, 656242]","[63, 14, 9, 19, 94, 101, 9, 231, 75, 44, 213, 56, 167, 5, 154, 34, 187, 21, 218, 166, 111]","[647182, 647577, 647972, 648387, 648840, 649262, 649682, 650067, 650460, 650573, 650874, 651292, 651666, 652081, 652503, 654130, 654556, 654941, 655358, 655711, 656171]","[645570, 645970, 646370, 646770, 647170, 647570, 647970, 648370, 648857, 649279, 649700, 650083, 650478, 650891, 651309, 651682, 652099, 652518, 654147, 654571, 654956, 655374, 655726, 656184]",59,SB,L,R,ITMSR,1.1
2,400,trial,0,26,26,26,trial,"['S', 'S', 'S', 'S', 'C', 'C', 'C', 'C', 'C', 'C', 'C', 'C', 'C', 'C', 'C', 'C', 'C', 'C', 'C', 'C']","[663511, 663899, 664284, 664693, 665096, 665470, 665893, 666308, 666718, 667108, 667501, 667877, 668280, 668684, 669090, 669451, 669838, 670288, 670668, 671056]","[663629, 664045, 664456, 664868, 665262, 665648, 666047, 666444, 666868, 667252, 667658, 668027, 668426, 668830, 669239, 669604, 669995, 670414, 670793, 671221]","[133, 105, 144, 129, 78, 66, 87, 121, 100, 144, 102, 61, 104, 115, 122, 45, 88, 94, 20, 247]","[663515, 663904, 664288, 664697, 665100, 665475, 665897, 666312, 666723, 667112, 667504, 667881, 668284, 668688, 669094, 669455, 669842, 670291, 670672, 671149]","[661904, 662304, 662704, 663104, 663504, 663904, 664304, 664705, 665116, 665490, 665913, 666328, 666738, 667128, 667522, 667897, 668300, 668704, 669110, 669471, 669858, 670308, 670688, 671076]",59,SB,L,R,ITMSR,1.1
5,400,trial,0,27,27,27,trial,"['S', 'S', 'S', 'S', 'C', 'C', 'C', 'C', 'C', 'C', 'C', 'C', 'C', 'C', 'C', 'C', 'C', 'C', 'C', 'C']","[678011, 678401, 678795, 679189, 679598, 679967, 680421, 680802, 681197, 681597, 681998, 682405, 682762, 683183, 683565, 683999, 684398, 684792, 685229, 685621]","[678138, 678542, 678924, 679316, 679709, 680117, 680547, 680940, 681321, 681717, 682101, 682542, 682924, 683296, 683694, 684121, 684511, 684907, 685339, 685731]","[107, 83, 113, 83, 70, 104, 87, 74, 75, 75, 77, 80, 22, 37, 42, 42, 230, 14, 244, 8]","[678016, 678406, 678798, 679193, 679602, 679971, 680425, 680806, 681201, 681602, 682002, 682409, 682859, 683187, 683569, 684003, 684403, 684797, 685289, 685625]","[676405, 676805, 677206, 677605, 678005, 678405, 678805, 679205, 679618, 679987, 680441, 680822, 681218, 681617, 682018, 682425, 682782, 683203, 683585, 684019, 684418, 684812, 685249, 685641]",59,SB,L,R,ITMSR,1.1
4,400,trial,0,28,28,28,trial,"['S', 'S', 'S', 'S', 'C', 'C', 'C', 'C', 'C', 'C', 'C', 'C', 'C', 'C', 'C', 'C', 'C', 'C', 'C', 'C']","[692886, 693279, 693680, 694093, 694509, 694901, 695293, 695726, 696132, 696513, 696934, 697334, 697722, 698134, 698539, 698942, 699322, 699755, 700169, 700560]","[693017, 693473, 693893, 694286, 694679, 695090, 695477, 695863, 696309, 696709, 697083, 697510, 697897, 698319, 698699, 699098, 699483, 699892, 700352, 700727]","[131, 117, 92, 82, 99, 100, 100, 113, 107, 102, 64, 92, 75, 82, 50, 98, 72, 96, 108, 52]","[692889, 693283, 693684, 694098, 694512, 694905, 695298, 695730, 696136, 696517, 696937, 697337, 697726, 698138, 698543, 698946, 699326, 699759, 700173, 700565]","[691297, 691697, 692098, 692498, 692898, 693298, 693698, 694098, 694530, 694921, 695313, 695746, 696152, 696534, 696954, 697354, 697742, 698155, 698559, 698962, 699342, 699776, 700189, 700580]",59,SB,L,R,ITMSR,1.1
2,600,trial,0,29,29,29,trial,"['S', 'S', 'S', 'S', 'C', 'C', 'C', 'C', 'C', 'C', 'C', 'C', 'C', 'C', 'C', 'C', 'C', 'C', 'C', 'C']","[708418, 709026, 709609, 710217, 710831, 711457, 712071, 712705, 713306, 713907, 714523, 715116, 715736, 716342, 716966, 717602, 718214, 718834, 719474, 720075]","[708595, 709237, 709860, 710431, 711065, 711687, 712301, 712929, 713519, 714108, 714724, 715283, 715934, 716557, 717191, 717752, 718452, 719072, 719676, 720316]","[161, 151, 146, 143, 116, 134, 133, 135, 54, 134, 126, 106, 65, 53, 68, 36, 84, 59, 43, 91]","[708421, 709029, 709612, 710219, 710834, 711460, 712075, 712708, 713375, 713910, 714526, 715119, 715739, 716346, 716971, 717605, 718216, 718837, 719477, 720078]","[706032, 706632, 707232, 707832, 708432, 709032, 709633, 710232, 710851, 711477, 712091, 712725, 713326, 713927, 714543, 715137, 715756, 716362, 716986, 717622, 718234, 718854, 719494, 720095]",59,SB,L,R,ITMSR,1.1
3,600,trial,0,30,30,30,trial,"['S', 'S', 'S', 'S', 'S', 'S', 'S', 'C', 'C', 'C', 'C', 'C', 'C', 'C', 'C', 'C', 'C', 'C', 'C', 'C', 'C', 'C', 'C']","[735596, 736123, 736689, 737282, 737841, 738463, 739072, 739687, 740267, 740848, 741431, 742030, 742597, 743201, 743831, 744445, 745073, 745678, 746246, 746850, 747476, 748089, 748692]","[735712, 736317, 736907, 737531, 738119, 738756, 739342, 739945, 740517, 741098, 741679, 742288, 742872, 743467, 744046, 744613, 745262, 745915, 746504, 747107, 747704, 748319, 748925]","[121, 111, 117, 112, 94, 108, 109, 98, 47, 67, 96, 63, 66, 75, 27, 66, 6, 199, 197, 182, 253, 254, 230]","[735599, 736126, 736693, 737285, 737845, 738467, 739076, 739691, 740270, 740852, 741435, 742033, 742601, 743204, 743835, 744450, 745077, 745682, 746249, 746855, 747480, 748093, 748696]","[734915, 735514, 736114, 736714, 737314, 737914, 738514, 739115, 739707, 740287, 740868, 741451, 742050, 742617, 743221, 743852, 744465, 745093, 745698, 746266, 746870, 747496, 748109, 748712]",59,SB,L,R,ITMSR,1.1
0,600,trial,0,31,31,31,trial,"['S', 'S', 'S', 'S', 'C', 'C', 'C', 'C', 'C', 'C', 'C', 'C', 'C', 'C', 'C', 'C', 'C', 'C', 'C', 'C']","[756775, 757386, 757908, 758528, 759122, 759719, 760305, 760889, 761453, 762082, 762672, 763247, 763857, 764459, 765091, 765658, 766252, 766815, 767405, 767980]","[756965, 757596, 758152, 758762, 759349, 759918, 760508, 761111, 761707, 762249, 762859, 763436, 764042, 764634, 765244, 765820, 766407, 766982, 767561, 768133]","[154, 98, 75, 85, 117, 73, 97, 76, 93, 194, 43, 245, 208, 33, 184, 245, 167, 250, 152, 44]","[756777, 757389, 757912, 758533, 759126, 759724, 760308, 760892, 761455, 762086, 762676, 763250, 763862, 764463, 765094, 765661, 766255, 766819, 767408, 767982]","[754332, 754932, 755532, 756132, 756732, 757332, 757933, 758533, 759142, 759739, 760325, 760909, 761474, 762102, 762692, 763267, 763877, 764479, 765111, 765678, 766272, 766835, 767425, 768001]",59,SB,L,R,ITMSR,1.1
1,400,trial,0,32,32,32,trial,"['S', 'S', 'S', 'S', 'C', 'C', 'C', 'C', 'C', 'C', 'C', 'C', 'C', 'C', 'C', 'C', 'C', 'C', 'C', 'C']","[775206, 775595, 775996, 776403, 776782, 777196, 777595, 778008, 778409, 778820, 779219, 779618, 780027, 780474, 780834, 781240, 781646, 782058, 782460, 782849]","[775307, 775720, 776127, 776529, 776925, 777323, 777711, 778110, 778515, 778901, 779311, 779706, 780126, 780553, 780941, 781331, 781742, 782151, 782560, 782940]","[95, 251, 109, 209, 244, 238, 243, 180, 173, 71, 3, 119, 96, 126, 56, 191, 57, 65, 158, 82]","[775207, 775596, 775999, 776407, 776785, 777200, 777598, 778011, 778413, 778823, 779223, 779621, 780030, 780476, 780838, 781243, 781649, 782061, 782464, 782853]","[773595, 773994, 774394, 774794, 775194, 775595, 775994, 776394, 776802, 777217, 777615, 778029, 778429, 778840, 779239, 779638, 780047, 780494, 780854, 781260, 781666, 782078, 782480, 782869]",59,SB,L,R,ITMSR,1.1
0,400,trial,0,33,33,33,trial,"['S', 'S', 'S', 'S', 'C', 'C', 'C', 'C', 'C', 'C', 'C', 'C', 'C', 'C', 'C', 'C', 'C', 'C', 'C', 'C', 'C']","[790004, 790376, 790762, 791192, 791552, 791959, 792324, 792719, 793128, 793501, 793888, 794277, 794627, 795035, 795412, 795828, 796192, 796604, 796969, 797323, 797423]","[790106, 790486, 790890, 791298, 791678, 792062, 792454, 792850, 793238, 793617, 793986, 794379, 794730, 795142, 795508, 795907, 796290, 796693, 797080, 797343, 797445]","[117, 105, 116, 96, 126, 61, 37, 54, 27, 34, 195, 192, 170, 123, 32, 18, 105, 93, 114, 236, 253]","[790007, 790380, 790766, 791194, 791555, 791962, 792328, 792723, 793133, 793505, 793893, 794281, 794632, 795040, 795417, 795834, 796197, 796608, 796975, 797329, 797423]","[788397, 788797, 789197, 789597, 789997, 790397, 790797, 791197, 791572, 791980, 792344, 792739, 793148, 793521, 793908, 794297, 794647, 795055, 795432, 795848, 796212, 796624, 796989, 797343]",59,SB,L,R,ITMSR,1.1
2,600,trial,0,34,34,34,trial,"['S', 'S', 'S', 'S', 'C', 'C', 'C', 'C', 'C', 'C', 'C', 'C', 'C', 'C', 'C', 'C', 'C', 'C', 'C', 'C']","[805453, 806014, 806582, 807177, 807826, 808402, 809012, 809619, 810195, 810803, 811382, 811967, 812535, 813165, 813769, 814376, 814972, 815583, 816148, 816710]","[805613, 806241, 806863, 807472, 808081, 808680, 809261, 809834, 810446, 811036, 811621, 812219, 812797, 813433, 814019, 814575, 815183, 815767, 816346, 816893]","[106, 120, 90, 112, 93, 91, 109, 45, 76, 46, 82, 96, 33, 63, 38, 108, 56, 48, 55, 75]","[805456, 806018, 806586, 807180, 807829, 808407, 809016, 809622, 810200, 810807, 811385, 811970, 812539, 813169, 813773, 814381, 814977, 815587, 816152, 816714]","[803066, 803666, 804267, 804866, 805466, 806066, 806666, 807266, 807846, 808422, 809032, 809639, 810215, 810823, 811402, 811987, 812555, 813186, 813789, 814396, 814992, 815603, 816168, 816730]",59,SB,L,R,ITMSR,1.1
1,600,trial,0,35,35,35,trial,"['S', 'S', 'S', 'S', 'C', 'C', 'C', 'C', 'C', 'C', 'C', 'C', 'C', 'C', 'C', 'C', 'C', 'C', 'C', 'C']","[824916, 825480, 826046, 826640, 827241, 827781, 828379, 828995, 829593, 830175, 830779, 831368, 831992, 832615, 833225, 833835, 834398, 834975, 835593, 836154]","[825066, 825601, 826173, 826775, 827376, 827958, 828524, 829114, 829710, 830295, 830916, 831535, 832124, 832757, 833340, 833951, 834503, 835116, 835696, 836291]","[129, 74, 119, 134, 111, 94, 10, 52, 44, 11, 54, 39, 252, 51, 142, 19, 223, 70, 100, 186]","[824920, 825483, 826049, 826642, 827244, 827784, 828384, 829000, 829597, 830179, 830783, 831372, 831995, 832620, 833230, 833839, 834402, 834981, 835599, 836159]","[822472, 823072, 823672, 824272, 824872, 825473, 826072, 826672, 827261, 827801, 828399, 829016, 829613, 830195, 830799, 831388, 832012, 832635, 833245, 833855, 834418, 834995, 835613, 836174]",59,SB,L,R,ITMSR,1.1
5,400,trial,0,36,36,36,trial,"['S', 'S', 'S', 'S', 'C', 'C', 'C', 'C', 'C', 'C', 'C', 'C', 'C', 'C', 'C', 'C', 'C', 'C', 'C', 'C']","[843227, 843643, 844034, 844451, 844841, 845252, 845655, 846068, 846486, 846882, 847308, 847704, 848101, 848465, 848880, 849277, 849690, 850129, 850539, 850932]","[843360, 843788, 844190, 844588, 844996, 845400, 845801, 846224, 846620, 846998, 847415, 847802, 848199, 848570, 848979, 849388, 849809, 850228, 850649, 851031]","[132, 92, 136, 115, 125, 39, 99, 122, 107, 50, 43, 27, 62, 113, 222, 123, 223, 219, 194, 242]","[843230, 843646, 844036, 844455, 844846, 845256, 845658, 846071, 846489, 846886, 847312, 847708, 848105, 848470, 848884, 849283, 849694, 850134, 850544, 850936]","[841625, 842025, 842425, 842825, 843225, 843625, 844025, 844425, 844861, 845272, 845675, 846088, 846507, 846902, 847328, 847724, 848121, 848485, 848900, 849297, 849710, 850149, 850560, 850952]",59,SB,L,R,ITMSR,1.1
0,600,trial,0,37,37,37,trial,"['S', 'S', 'S', 'S', 'C', 'C', 'C', 'C', 'C', 'C', 'C', 'C', 'C', 'C', 'C', 'C', 'C', 'C', 'C', 'C']","[859116, 859711, 860303, 860913, 861505, 862091, 862695, 863290, 863891, 864462, 864991, 865617, 866150, 866770, 867362, 867994, 868599, 869145, 869730, 870288]","[859254, 859870, 860449, 861036, 861620, 862206, 862790, 863384, 863974, 864572, 865113, 865723, 866281, 866909, 867515, 868145, 868717, 869268, 869841, 870402]","[155, 130, 125, 113, 108, 90, 102, 125, 48, 82, 138, 212, 161, 212, 10, 3, 35, 248, 60, 17]","[859119, 859715, 860307, 860916, 861508, 862095, 862699, 863292, 863895, 864465, 864997, 865623, 866156, 866776, 867367, 867998, 868604, 869150, 869734, 870292]","[856738, 857338, 857938, 858539, 859138, 859738, 860338, 860938, 861526, 862111, 862715, 863310, 863911, 864482, 865011, 865637, 866170, 866790, 867382, 868014, 868619, 869165, 869750, 870308]",59,SB,L,R,ITMSR,1.1
1,600,trial,0,38,38,38,trial,"['S', 'S', 'S', 'S', 'C', 'C', 'C', 'C', 'C', 'C', 'C', 'C', 'C', 'C', 'C', 'C', 'C', 'C', 'C', 'C']","[878321, 878929, 879504, 880129, 880717, 881304, 881897, 882447, 882993, 883621, 884205, 884781, 885374, 885961, 886575, 887176, 887770, 888399, 888944, 889474]","[878457, 879085, 879641, 880252, 880842, 881409, 881986, 882527, 883100, 883714, 884320, 884889, 885500, 886077, 886705, 887302, 887921, 888526, 889093, 889623]","[118, 118, 102, 115, 67, 67, 55, 210, 178, 132, 7, 253, 22, 242, 247, 246, 25, 209, 151, 219]","[878324, 878932, 879508, 880133, 880721, 881308, 881901, 882453, 882998, 883628, 884209, 884786, 885380, 885966, 886579, 887180, 887774, 888403, 888949, 889478]","[875935, 876535, 877135, 877735, 878336, 878936, 879536, 880136, 880737, 881325, 881917, 882467, 883013, 883641, 884226, 884801, 885394, 885981, 886595, 887196, 887790, 888419, 888964, 889494]",59,SB,L,R,ITMSR,1.1
0,400,trial,0,39,39,39,trial,"['S', 'S', 'S', 'S', 'C', 'C', 'C', 'C', 'C', 'C', 'C', 'C', 'C', 'C', 'C', 'C', 'C', 'C', 'C', 'C']","[896886, 897258, 897647, 898043, 898469, 898867, 899247, 899672, 900060, 900485, 900925, 901321, 901735, 902135, 902507, 902936, 903346, 903746, 904148, 904597]","[896983, 897362, 897761, 898157, 898579, 898971, 899360, 899771, 900166, 900576, 901008, 901420, 901820, 902211, 902595, 903038, 903432, 903767, 904168, 904617]","[118, 124, 81, 90, 47, 10, 235, 3, 206, 168, 124, 189, 210, 216, 69, 136, 229, 219, 104, 91]","[896889, 897261, 897651, 898046, 898472, 898872, 899251, 899676, 900065, 900490, 900930, 901326, 901740, 902140, 902513, 902940, 903351, 903751, 904153, 904601]","[895266, 895666, 896066, 896466, 896866, 897266, 897666, 898066, 898489, 898887, 899267, 899692, 900080, 900505, 900945, 901341, 901755, 902155, 902528, 902957, 903366, 903767, 904168, 904617]",59,SB,L,R,ITMSR,1.1
5,400,trial,0,40,40,40,trial,"['S', 'S', 'S', 'S', 'C', 'C', 'C', 'C', 'C', 'C', 'C', 'C', 'C', 'C', 'C', 'C', 'C', 'C', 'C', 'C']","[912017, 912425, 912795, 913199, 913586, 913984, 914362, 914780, 915178, 915586, 915976, 916365, 916806, 917163, 917592, 917977, 918404, 918784, 919171, 919609]","[912125, 912536, 912927, 913296, 913699, 914110, 914465, 914875, 915261, 915682, 916070, 916470, 916910, 917259, 917684, 918070, 918512, 918907, 919290, 919695]","[41, 41, 33, 123, 243, 181, 129, 148, 105, 158, 43, 141, 132, 227, 62, 142, 75, 52, 124, 118]","[912021, 912431, 912799, 913205, 913590, 913989, 914367, 914785, 915184, 915591, 915982, 916369, 916811, 917170, 917597, 917983, 918409, 918790, 919176, 919614]","[910412, 910812, 911212, 911612, 912012, 912412, 912813, 913213, 913606, 914004, 914382, 914800, 915198, 915606, 915996, 916385, 916826, 917183, 917612, 917997, 918424, 918804, 919191, 919629]",59,SB,L,R,ITMSR,1.1
5,600,trial,0,41,41,41,trial,"['S', 'S', 'S', 'S', 'C', 'C', 'C', 'C', 'C', 'C', 'C', 'C', 'C', 'C', 'C', 'C', 'C', 'C', 'C', 'C']","[927633, 928239, 928835, 929417, 930012, 930627, 931246, 931836, 932438, 933045, 933658, 934292, 934935, 935540, 936140, 936798, 937406, 938061, 938660, 939286]","[927839, 928500, 929142, 929728, 930333, 930934, 931547, 932162, 932772, 933343, 933984, 934620, 935260, 935871, 936517, 937122, 937778, 938433, 939043]","[104, 83, 105, 42, 34, 225, 13, 188, 1, 97, 200, 244, 0, 46, 35, 71, 61, 66, 20]","[927636, 928243, 928839, 929421, 930015, 930631, 931249, 931842, 932442, 933184, 933662, 934296, 934939, 935544, 936144, 936801, 937410, 938064, 938664]","[925274, 925873, 926473, 927073, 927673, 928273, 928873, 929473, 930032, 930648, 931266, 931856, 932458, 933065, 933678, 934312, 934956, 935560, 936160, 936818, 937426, 938081, 938680, 939307]",59,SB,L,R,ITMSR,1.1
1,400,trial,0,42,42,42,trial,"['S', 'S', 'S', 'S', 'C', 'C', 'C', 'C', 'C', 'C', 'C', 'C', 'C', 'C', 'C', 'C', 'C', 'C', 'C', 'C']","[946219, 946613, 947020, 947441, 947833, 948246, 948647, 949044, 949468, 949888, 950309, 950727, 951129, 951549, 951988, 952371, 952830, 953230, 953651, 954081]","[946350, 946754, 947179, 947569, 947986, 948398, 948828, 949246, 949622, 950022, 950440, 950848, 951258, 951677, 952151, 952531, 952967, 953388, 953814, 954234]","[85, 67, 79, 66, 39, 59, 11, 14, 4, 39, 238, 215, 207, 210, 191, 81, 159, 201, 128, 78]","[946220, 946618, 947023, 947445, 947837, 948250, 948653, 949048, 949472, 949892, 950312, 950731, 951133, 951554, 951992, 952477, 952835, 953234, 953656, 954085]","[944618, 945018, 945418, 945818, 946219, 946618, 947018, 947418, 947853, 948267, 948667, 949064, 949488, 949908, 950329, 950747, 951149, 951569, 952008, 952391, 952850, 953250, 953671, 954101]",59,SB,L,R,ITMSR,1.1
5,600,trial,0,43,43,43,trial,"['S', 'S', 'S', 'S', 'C', 'C', 'C', 'C', 'C', 'C', 'C', 'C', 'C', 'C', 'C', 'C', 'C', 'C', 'C', 'C']","[961942, 962505, 963119, 963744, 964363, 965007, 965636, 966262, 966905, 967547, 968227, 968812, 969459, 970140, 970741, 971333, 971911, 972523, 973117, 973808]","[962155, 962786, 963426, 964050, 964696, 965318, 965951, 966578, 967230, 967851, 968514, 969149, 969752, 970423, 971028, 971608, 972235, 972841, 973448]","[106, 62, 57, 86, 74, 83, 77, 91, 30, 37, 22, 53, 15, 8, 143, 73, 70, 34, 33]","[961945, 962509, 963122, 963747, 964367, 965010, 965639, 966265, 966909, 967550, 968231, 968815, 969463, 970144, 970745, 971336, 971915, 972527, 973120]","[959587, 960186, 960786, 961386, 961986, 962586, 963186, 963786, 964383, 965027, 965656, 966282, 966925, 967567, 968247, 968833, 969479, 970160, 970761, 971353, 971931, 972544, 973137, 973828]",59,SB,L,R,ITMSR,1.1
4,400,trial,0,44,44,44,trial,"['S', 'S', 'S', 'S', 'C', 'C', 'C', 'C', 'C', 'C', 'C', 'C', 'C', 'C', 'C', 'C', 'C', 'C', 'C', 'C']","[981124, 981541, 981936, 982338, 982765, 983195, 983603, 984020, 984434, 984855, 985287, 985673, 986080, 986520, 986929, 987338, 987773, 988157, 988605, 989010]","[981274, 981714, 982129, 982549, 982959, 983373, 983779, 984218, 984626, 985025, 985447, 985870, 986288, 986695, 987108, 987522, 987968, 988356, 988734, 989220]","[80, 82, 92, 81, 65, 77, 56, 82, 66, 242, 25, 69, 44, 48, 166, 16, 28, 220, 237, 9]","[981127, 981545, 981939, 982340, 982768, 983198, 983607, 984024, 984437, 984859, 985291, 985676, 986083, 986524, 987005, 987342, 987778, 988163, 988609, 989015]","[979550, 979950, 980350, 980750, 981150, 981550, 981950, 982350, 982786, 983215, 983623, 984040, 984454, 984876, 985307, 985693, 986100, 986541, 986949, 987358, 987793, 988177, 988625, 989030]",59,SB,L,R,ITMSR,1.1
2,600,trial,0,45,45,45,trial,"['S', 'S', 'S', 'S', 'C', 'C', 'C', 'C', 'C', 'C', 'C', 'C', 'C', 'C', 'C', 'C', 'C', 'C', 'C', 'C']","[997144, 997741, 998318, 998919, 999518, 1000132, 1000756, 1001350, 1001955, 1002542, 1003169, 1003795, 1004361, 1004965, 1005576, 1006162, 1006755, 1007320, 1007903, 1008471]","[997368, 998008, 998620, 999219, 999841, 1000452, 1001054, 1001610, 1002232, 1002845, 1003457, 1004053, 1004670, 1005262, 1005834, 1006407, 1007005, 1007601, 1008156, 1008715]","[153, 143, 150, 158, 146, 100, 120, 133, 106, 126, 84, 128, 88, 90, 110, 130, 103, 133, 92, 123]","[997147, 997744, 998321, 998922, 999521, 1000135, 1000760, 1001354, 1001958, 1002545, 1003173, 1003799, 1004365, 1004969, 1005580, 1006167, 1006759, 1007324, 1007907, 1008474]","[994782, 995382, 995982, 996582, 997182, 997782, 998382, 998982, 999538, 1000152, 1000776, 1001370, 1001975, 1002562, 1003189, 1003815, 1004381, 1004985, 1005596, 1006182, 1006775, 1007340, 1007923, 1008491]",59,SB,L,R,ITMSR,1.1
2,400,trial,0,46,46,46,trial,"['S', 'S', 'S', 'S', 'C', 'C', 'C', 'C', 'C', 'C', 'C', 'C', 'C', 'C', 'C', 'C', 'C', 'C', 'C', 'C']","[1015630, 1016023, 1016426, 1016826, 1017234, 1017628, 1018030, 1018441, 1018836, 1019237, 1019651, 1020032, 1020461, 1020859, 1021267, 1021627, 1022062, 1022427, 1022867, 1023294]","[1015796, 1016218, 1016616, 1017010, 1017410, 1017814, 1018206, 1018604, 1018994, 1019399, 1019792, 1020183, 1020594, 1020993, 1021389, 1021772, 1022174, 1022559, 1022983, 1023403]","[159, 150, 156, 152, 154, 140, 103, 141, 143, 138, 104, 112, 133, 111, 121, 106, 91, 99, 92, 98]","[1015633, 1016026, 1016427, 1016828, 1017237, 1017632, 1018113, 1018444, 1018840, 1019240, 1019719, 1020035, 1020465, 1020862, 1021272, 1021631, 1022065, 1022431, 1022871, 1023298]","[1014026, 1014426, 1014827, 1015226, 1015626, 1016026, 1016426, 1016826, 1017254, 1017648, 1018050, 1018461, 1018856, 1019257, 1019671, 1020052, 1020481, 1020879, 1021287, 1021647, 1022082, 1022447, 1022887, 1023314]",59,SB,L,R,ITMSR,1.1
4,600,trial,0,47,47,47,trial,"['S', 'S', 'S', 'S', 'C', 'C', 'C', 'C', 'C', 'C', 'C', 'C', 'C', 'C', 'C', 'C', 'C', 'C', 'C', 'C']","[1031359, 1031929, 1032526, 1033129, 1033738, 1034343, 1034902, 1035489, 1036099, 1036711, 1037361, 1037975, 1038571, 1039147, 1039747, 1040326, 1040955, 1041551, 1042142, 1042725]","[1031597, 1032226, 1032832, 1033423, 1034005, 1034613, 1035232, 1035767, 1036361, 1036997, 1037657, 1038267, 1038828, 1039415, 1040012, 1040616, 1041183, 1041800, 1042391, 1042963]","[132, 134, 144, 132, 138, 122, 75, 114, 119, 133, 110, 125, 131, 125, 116, 134, 124, 104, 130, 129]","[1031362, 1031932, 1032528, 1033133, 1033741, 1034347, 1034906, 1035492, 1036102, 1036715, 1037365, 1037978, 1038574, 1039150, 1039751, 1040329, 1040958, 1041555, 1042145, 1042728]","[1028979, 1029578, 1030178, 1030778, 1031378, 1031979, 1032578, 1033178, 1033758, 1034363, 1034923, 1035509, 1036120, 1036731, 1037381, 1037996, 1038592, 1039167, 1039767, 1040346, 1040975, 1041571, 1042162, 1042745]",59,SB,L,R,ITMSR,1.1
4,400,trial,0,48,48,48,trial,"['S', 'S', 'S', 'S', 'C', 'C', 'C', 'C', 'C', 'C', 'C', 'C', 'C', 'C', 'C', 'C', 'C', 'C', 'C', 'C']","[1049865, 1050251, 1050658, 1051053, 1051476, 1051879, 1052277, 1052663, 1053065, 1053469, 1053901, 1054284, 1054683, 1055114, 1055512, 1055906, 1056329, 1056711, 1057172, 1057550]","[1049998, 1050431, 1050844, 1051238, 1051648, 1052040, 1052465, 1052860, 1053260, 1053632, 1054072, 1054462, 1054838, 1055224, 1055629, 1056026, 1056445, 1056860, 1057298, 1057676]","[141, 144, 147, 138, 149, 146, 145, 136, 133, 114, 126, 116, 115, 102, 89, 111, 79, 20, 76, 32]","[1049868, 1050254, 1050661, 1051056, 1051480, 1051882, 1052279, 1052666, 1053067, 1053472, 1053905, 1054288, 1054686, 1055118, 1055516, 1055910, 1056333, 1056786, 1057176, 1057555]","[1048262, 1048662, 1049061, 1049461, 1049861, 1050261, 1050661, 1051061, 1051496, 1051899, 1052297, 1052683, 1053085, 1053489, 1053921, 1054304, 1054703, 1055134, 1055533, 1055926, 1056349, 1056731, 1057192, 1057570]",59,SB,L,R,ITMSR,1.1
3,400,trial,0,49,49,49,trial,"['S', 'S', 'S', 'S', 'C', 'C', 'C', 'C', 'C', 'C', 'C', 'C', 'C', 'C', 'C', 'C', 'C', 'C', 'C', 'C']","[1064785, 1065191, 1065578, 1065989, 1066387, 1066803, 1067235, 1067625, 1068057, 1068462, 1068839, 1069228, 1069691, 1070103, 1070515, 1070932, 1071323, 1071742, 1072196, 1072603]","[1064942, 1065357, 1065773, 1066163, 1066590, 1067018, 1067424, 1067804, 1068195, 1068613, 1069039, 1069451, 1069851, 1070299, 1070706, 1071119, 1071519, 1071911, 1072332, 1072747]","[136, 133, 140, 136, 103, 124, 93, 99, 91, 63, 50, 8, 38, 78, 62, 71, 54, 42, 50, 11]","[1064790, 1065195, 1065581, 1065991, 1066391, 1066806, 1067239, 1067628, 1068060, 1068466, 1068844, 1069232, 1069697, 1070107, 1070518, 1070937, 1071327, 1071747, 1072199, 1072607]","[1063165, 1063565, 1063965, 1064365, 1064765, 1065165, 1065565, 1065965, 1066407, 1066823, 1067255, 1067645, 1068077, 1068482, 1068859, 1069248, 1069711, 1070124, 1070535, 1070952, 1071343, 1071762, 1072216, 1072623]",59,SB,L,R,ITMSR,1.1
4,600,trial,0,50,50,50,trial,"['S', 'S', 'S', 'S', 'C', 'C', 'C', 'C', 'C', 'C', 'C', 'C', 'C', 'C', 'C', 'C', 'C', 'C', 'C', 'C']","[1080538, 1081121, 1081712, 1082317, 1082902, 1083505, 1084126, 1084731, 1085335, 1085965, 1086527, 1087096, 1087730, 1088349, 1088971, 1089577, 1090193, 1090817, 1091434, 1092008]","[1080799, 1081420, 1082022, 1082622, 1083199, 1083807, 1084412, 1085022, 1085652, 1086227, 1086811, 1087401, 1088027, 1088632, 1089249, 1089871, 1090514, 1091060, 1091684]","[156, 141, 134, 135, 127, 130, 147, 135, 131, 86, 97, 119, 123, 128, 120, 118, 110, 102, 34]","[1080541, 1081124, 1081715, 1082319, 1082905, 1083508, 1084129, 1084734, 1085338, 1085968, 1086531, 1087099, 1087733, 1088352, 1088974, 1089581, 1090196, 1090820, 1091438]","[1078163, 1078763, 1079363, 1079963, 1080563, 1081163, 1081763, 1082363, 1082923, 1083525, 1084146, 1084751, 1085356, 1085985, 1086547, 1087116, 1087750, 1088369, 1088991, 1089597, 1090213, 1090837, 1091454, 1092028]",59,SB,L,R,ITMSR,1.1
3,400,trial,0,51,51,51,trial,"['S', 'S', 'S', 'S', 'C', 'C', 'C', 'C', 'C', 'C', 'C', 'C', 'C', 'C', 'C', 'C', 'C', 'C', 'C', 'C']","[1099169, 1099566, 1099975, 1100374, 1100764, 1101185, 1101611, 1102032, 1102441, 1102853, 1103279, 1103704, 1104133, 1104569, 1104936, 1105397, 1105823, 1106253, 1106683, 1107093]","[1099319, 1099739, 1100133, 1100556, 1100943, 1101363, 1101775, 1102206, 1102609, 1103023, 1103444, 1103856, 1104231, 1104706, 1105116, 1105524, 1105952, 1106392, 1106783, 1107201]","[133, 124, 137, 131, 118, 102, 116, 106, 89, 99, 93, 99, 75, 40, 51, 232, 57, 53, 235, 11]","[1099172, 1099568, 1099978, 1100377, 1100767, 1101189, 1101615, 1102035, 1102445, 1102857, 1103283, 1103708, 1104137, 1104573, 1104941, 1105401, 1105827, 1106258, 1106689, 1107097]","[1097546, 1097946, 1098346, 1098746, 1099146, 1099546, 1099947, 1100346, 1100784, 1101205, 1101631, 1102052, 1102461, 1102873, 1103299, 1103724, 1104153, 1104589, 1104956, 1105417, 1105843, 1106273, 1106703, 1107113]",59,SB,L,R,ITMSR,1.1
3,600,trial,0,52,52,52,trial,"['S', 'S', 'S', 'S', 'C', 'C', 'C', 'C', 'C', 'C', 'C', 'C', 'C', 'C', 'C', 'C', 'C', 'C', 'C', 'C']","[1115008, 1115626, 1116220, 1116818, 1117431, 1118051, 1118692, 1119335, 1119927, 1120519, 1121113, 1121769, 1122394, 1123009, 1123628, 1124273, 1124901, 1125526, 1126172, 1126819]","[1115217, 1115868, 1116481, 1117081, 1117681, 1118301, 1118939, 1119568, 1120152, 1120769, 1121388, 1121967, 1122617, 1123222, 1123864, 1124505, 1125157, 1125763, 1126416, 1127019]","[136, 102, 112, 116, 89, 112, 121, 114, 75, 77, 71, 101, 106, 93, 10, 100, 68, 48, 17, 106]","[1115011, 1115627, 1116223, 1116821, 1117434, 1118054, 1118695, 1119338, 1119931, 1120523, 1121118, 1121773, 1122398, 1123012, 1123633, 1124277, 1124905, 1125530, 1126177, 1126822]","[1112626, 1113226, 1113826, 1114426, 1115026, 1115626, 1116226, 1116826, 1117451, 1118071, 1118712, 1119355, 1119947, 1120539, 1121133, 1121789, 1122414, 1123030, 1123648, 1124293, 1124921, 1125547, 1126192, 1126839]",59,SB,L,R,ITMSR,1.1
2,400,trial,0,53,53,53,trial,"['S', 'S', 'S', 'S', 'C', 'C', 'C', 'C', 'C', 'C', 'C', 'C', 'C', 'C', 'C', 'C', 'C', 'C', 'C', 'C']","[1134114, 1134514, 1134910, 1135306, 1135706, 1136108, 1136525, 1136923, 1137325, 1137731, 1138139, 1138547, 1138959, 1139359, 1139758, 1140195, 1140592, 1141010, 1141399, 1141844]","[1134246, 1134658, 1135057, 1135466, 1135873, 1136265, 1136638, 1137039, 1137451, 1137850, 1138252, 1138660, 1139052, 1139450, 1139850, 1140276, 1140677, 1141101, 1141495, 1141918]","[103, 115, 122, 69, 76, 46, 88, 83, 72, 56, 86, 254, 34, 201, 21, 190, 131, 136, 94, 157]","[1134118, 1134517, 1134913, 1135310, 1135711, 1136112, 1136529, 1136927, 1137329, 1137735, 1138143, 1138552, 1138963, 1139364, 1139762, 1140201, 1140598, 1141018, 1141405, 1141851]","[1132506, 1132906, 1133306, 1133706, 1134106, 1134507, 1134906, 1135306, 1135726, 1136129, 1136545, 1136943, 1137345, 1137752, 1138159, 1138567, 1138979, 1139379, 1139778, 1140215, 1140612, 1141030, 1141420, 1141864]",59,SB,L,R,ITMSR,1.1
0,400,trial,0,54,54,54,trial,"['S', 'S', 'S', 'S', 'C', 'C', 'C', 'C', 'C', 'C', 'C', 'C', 'C', 'C', 'C', 'C', 'C', 'C', 'C', 'C', 'C']","[1189723, 1190133, 1190531, 1190947, 1191378, 1191797, 1192217, 1192629, 1193051, 1193485, 1193906, 1194329, 1194772, 1195186, 1195607, 1196030, 1196435, 1196864, 1197304, 1197404, 1197714]","[1189858, 1190282, 1190694, 1191110, 1191527, 1191952, 1192370, 1192766, 1193203, 1193625, 1194048, 1194469, 1194903, 1195314, 1195734, 1196148, 1196563, 1196990, 1197324, 1197424, 1197844]","[87, 105, 60, 26, 79, 11, 31, 33, 253, 244, 254, 3, 231, 174, 228, 240, 174, 243, 215, 25, 221]","[1189725, 1190137, 1190535, 1190951, 1191382, 1191801, 1192220, 1192633, 1193055, 1193489, 1193910, 1194333, 1194776, 1195190, 1195611, 1196035, 1196440, 1196869, 1197309, 1197404, 1197718]","[1188128, 1188528, 1188928, 1189328, 1189728, 1190128, 1190529, 1190928, 1191398, 1191817, 1192237, 1192649, 1193071, 1193505, 1193926, 1194349, 1194792, 1195206, 1195627, 1196050, 1196455, 1196884, 1197324, 1197734]",59,SB,L,R,ITMSR,1.1
3,400,trial,0,55,55,55,trial,"['S', 'S', 'S', 'S', 'C', 'C', 'C', 'C', 'C', 'C', 'C', 'C', 'C', 'C', 'C', 'C', 'C', 'C', 'C', 'C']","[1204715, 1205104, 1205511, 1205911, 1206334, 1206761, 1207181, 1207586, 1207984, 1208391, 1208834, 1209251, 1209673, 1210089, 1210494, 1210964, 1211397, 1211881, 1212304, 1212770]","[1204847, 1205261, 1205675, 1206067, 1206490, 1206903, 1207312, 1207723, 1208126, 1208528, 1208951, 1209377, 1209798, 1210224, 1210662, 1211076, 1211553, 1211999, 1212441, 1212872]","[24, 50, 55, 24, 17, 18, 23, 44, 220, 217, 197, 208, 227, 108, 103, 137, 68, 59, 129, 55]","[1204718, 1205107, 1205514, 1205915, 1206338, 1206765, 1207185, 1207590, 1207989, 1208395, 1208839, 1209255, 1209677, 1210094, 1210499, 1210969, 1211401, 1211885, 1212308, 1212774]","[1203086, 1203486, 1203886, 1204286, 1204686, 1205086, 1205486, 1205886, 1206354, 1206781, 1207201, 1207606, 1208004, 1208411, 1208854, 1209271, 1209693, 1210109, 1210514, 1210984, 1211417, 1211901, 1212324, 1212790]",59,SB,L,R,ITMSR,1.1
1,600,trial,0,56,56,56,trial,"['S', 'S', 'S', 'S', 'C', 'C', 'C', 'C', 'C', 'C', 'C', 'C', 'C', 'C', 'C', 'C', 'C', 'C', 'C', 'C']","[1220747, 1221318, 1221904, 1222504, 1223110, 1223728, 1224337, 1224907, 1225505, 1226110, 1226713, 1227317, 1227916, 1228526, 1229156, 1229744, 1230380, 1230968, 1231579, 1232194]","[1220898, 1221498, 1222111, 1222714, 1223308, 1223913, 1224498, 1225064, 1225705, 1226309, 1226926, 1227503, 1228086, 1228699, 1229330, 1229934, 1230554, 1231157, 1231751, 1232386]","[107, 110, 93, 105, 97, 95, 78, 72, 34, 26, 96, 76, 27, 101, 36, 52, 64, 48, 4, 50]","[1220749, 1221321, 1221908, 1222507, 1223113, 1223731, 1224341, 1224911, 1225509, 1226115, 1226716, 1227320, 1227920, 1228529, 1229160, 1229748, 1230384, 1230972, 1231583, 1232198]","[1218334, 1218934, 1219534, 1220134, 1220734, 1221335, 1221934, 1222534, 1223130, 1223748, 1224357, 1224927, 1225525, 1226130, 1226733, 1227337, 1227936, 1228546, 1229176, 1229764, 1230400, 1230988, 1231599, 1232215]",59,SB,L,R,ITMSR,1.1
4,400,trial,0,57,57,57,trial,"['S', 'S', 'S', 'S', 'C', 'C', 'C', 'C', 'C', 'C', 'C', 'C', 'C', 'C', 'C', 'C', 'C', 'C', 'C', 'C']","[1239348, 1239752, 1240175, 1240560, 1240962, 1241359, 1241789, 1242190, 1242613, 1243042, 1243482, 1243892, 1244296, 1244720, 1245117, 1245542, 1245965, 1246374, 1246801, 1247225]","[1239484, 1239916, 1240311, 1240700, 1241103, 1241534, 1241951, 1242366, 1242774, 1243215, 1243621, 1244058, 1244479, 1244888, 1245315, 1245732, 1246151, 1246572, 1246985, 1247420]","[121, 115, 70, 115, 103, 103, 115, 90, 109, 98, 83, 94, 85, 57, 67, 87, 74, 80, 91, 94]","[1239352, 1239756, 1240180, 1240563, 1240965, 1241362, 1241792, 1242194, 1242616, 1243045, 1243486, 1243895, 1244299, 1244723, 1245121, 1245546, 1245969, 1246379, 1246804, 1247229]","[1237744, 1238145, 1238544, 1238944, 1239344, 1239744, 1240144, 1240544, 1240982, 1241379, 1241809, 1242210, 1242633, 1243062, 1243502, 1243912, 1244316, 1244740, 1245137, 1245562, 1245985, 1246394, 1246821, 1247245]",59,SB,L,R,ITMSR,1.1
5,600,trial,0,58,58,58,trial,"['S', 'S', 'S', 'S', 'C', 'C', 'C', 'C', 'C', 'C', 'C', 'C', 'C', 'C', 'C', 'C', 'C', 'C', 'C', 'C']","[1255022, 1255613, 1256190, 1256772, 1257382, 1257985, 1258563, 1259160, 1259752, 1260353, 1260933, 1261517, 1262130, 1262759, 1263365, 1263969, 1264560, 1265159, 1265782, 1266336]","[1255278, 1255906, 1256492, 1257092, 1257722, 1258271, 1258846, 1259436, 1260039, 1260646, 1261251, 1261810, 1262405, 1263034, 1263621, 1264224, 1264802, 1265435, 1266018]","[160, 136, 151, 151, 143, 135, 126, 135, 139, 80, 119, 132, 131, 101, 114, 127, 129, 111, 109]","[1255025, 1255616, 1256194, 1256774, 1257385, 1257988, 1258566, 1259162, 1259755, 1260357, 1260936, 1261520, 1262132, 1262763, 1263368, 1263972, 1264564, 1265162, 1265785]","[1252636, 1253236, 1253836, 1254436, 1255036, 1255636, 1256237, 1256837, 1257402, 1258005, 1258584, 1259181, 1259772, 1260374, 1260953, 1261537, 1262150, 1262779, 1263385, 1263989, 1264580, 1265179, 1265802, 1266356]",59,SB,L,R,ITMSR,1.1
3,400,trial,0,59,59,59,trial,"['S', 'S', 'S', 'S', 'C', 'C', 'C', 'C', 'C', 'C', 'C', 'C', 'C', 'C', 'C', 'C', 'C', 'C', 'C', 'C']","[1273293, 1273701, 1274104, 1274499, 1274906, 1275324, 1275745, 1276137, 1276577, 1276999, 1277434, 1277861, 1278272, 1278708, 1279134, 1279548, 1279986, 1280416, 1280854, 1281261]","[1273432, 1273864, 1274257, 1274658, 1275082, 1275479, 1275906, 1276313, 1276746, 1277166, 1277590, 1278032, 1278444, 1278861, 1279305, 1279713, 1280132, 1280569, 1280979, 1281376]","[156, 148, 138, 125, 126, 139, 107, 96, 100, 115, 113, 120, 69, 96, 92, 73, 123, 124, 109, 66]","[1273296, 1273703, 1274106, 1274502, 1274909, 1275327, 1275748, 1276140, 1276580, 1277001, 1277437, 1277864, 1278274, 1278711, 1279137, 1279552, 1279989, 1280418, 1280857, 1281264]","[1271690, 1272089, 1272489, 1272889, 1273289, 1273689, 1274089, 1274489, 1274926, 1275344, 1275765, 1276157, 1276597, 1277019, 1277454, 1277881, 1278292, 1278728, 1279154, 1279568, 1280006, 1280436, 1280874, 1281282]",59,SB,L,R,ITMSR,1.1
2,600,trial,0,60,60,60,trial,"['S', 'S', 'S', 'S', 'C', 'C', 'C', 'C', 'C', 'C', 'C', 'C', 'C', 'C', 'C', 'C', 'C', 'C', 'C', 'C']","[1289016, 1289620, 1290214, 1290801, 1291426, 1292020, 1292638, 1293249, 1293893, 1294532, 1295152, 1295734, 1296380, 1297037, 1297646, 1298281, 1298902, 1299506, 1300143, 1300725]","[1289241, 1289872, 1290466, 1291030, 1291654, 1292233, 1292845, 1293426, 1294061, 1294688, 1295321, 1295902, 1296518, 1297159, 1297771, 1298404, 1299018, 1299648, 1300278, 1300889]","[123, 104, 128, 128, 122, 113, 106, 129, 82, 85, 68, 116, 76, 42, 74, 101, 94, 86, 69, 77]","[1289019, 1289623, 1290216, 1290803, 1291429, 1292023, 1292641, 1293251, 1293896, 1294535, 1295156, 1295737, 1296385, 1297040, 1297649, 1298285, 1298905, 1299509, 1300147, 1300728]","[1286638, 1287237, 1287837, 1288437, 1289037, 1289637, 1290237, 1290838, 1291446, 1292040, 1292658, 1293270, 1293913, 1294552, 1295172, 1295754, 1296400, 1297057, 1297666, 1298301, 1298922, 1299526, 1300163, 1300745]",59,SB,L,R,ITMSR,1.1
2,600,trial,0,61,61,61,trial,"['S', 'S', 'S', 'S', 'C', 'C', 'C', 'C', 'C', 'C', 'C', 'C', 'C', 'C', 'C', 'C', 'C', 'C', 'C', 'C']","[1308560, 1309142, 1309723, 1310366, 1310962, 1311563, 1312126, 1312734, 1313356, 1313942, 1314545, 1315171, 1315781, 1316363, 1316958, 1317578, 1318198, 1318782, 1319349, 1319929]","[1308759, 1309387, 1309995, 1310587, 1311203, 1311775, 1312380, 1312979, 1313574, 1314176, 1314786, 1315353, 1315982, 1316547, 1317147, 1317769, 1318384, 1318938, 1319548, 1320137]","[139, 135, 144, 138, 141, 121, 125, 121, 97, 97, 129, 130, 89, 74, 119, 133, 114, 105, 119, 78]","[1308563, 1309145, 1309726, 1310367, 1310964, 1311566, 1312130, 1312737, 1313359, 1313945, 1314548, 1315174, 1315784, 1316367, 1316961, 1317581, 1318201, 1318786, 1319352, 1319932]","[1306166, 1306766, 1307366, 1307966, 1308566, 1309166, 1309766, 1310366, 1310982, 1311583, 1312146, 1312754, 1313376, 1313963, 1314565, 1315191, 1315801, 1316383, 1316978, 1317598, 1318218, 1318802, 1319369, 1319949]",59,SB,L,R,ITMSR,1.1
0,600,trial,0,62,62,62,trial,"['S', 'S', 'S', 'S', 'C', 'C', 'C', 'C', 'C', 'C', 'C', 'C', 'C', 'C', 'C', 'C', 'C', 'C', 'C', 'C', 'C']","[1327710, 1328305, 1328886, 1329470, 1330078, 1330675, 1331246, 1331831, 1332451, 1333030, 1333607, 1334232, 1334789, 1335343, 1335934, 1336561, 1337142, 1337703, 1337805, 1338287, 1338910]","[1327916, 1328550, 1329147, 1329759, 1330364, 1330949, 1331523, 1332108, 1332658, 1333230, 1333831, 1334345, 1334964, 1335530, 1336100, 1336716, 1337273, 1337724, 1337856, 1338409, 1339063]","[155, 146, 156, 151, 154, 150, 147, 120, 138, 66, 110, 100, 46, 240, 241, 48, 19, 214, 29, 48, 201]","[1327712, 1328307, 1328889, 1329473, 1330080, 1330677, 1331248, 1331834, 1332453, 1333035, 1333610, 1334236, 1334793, 1335347, 1335939, 1336564, 1337145, 1337707, 1337806, 1338291, 1338914]","[1325303, 1325903, 1326503, 1327104, 1327704, 1328304, 1328904, 1329504, 1330098, 1330695, 1331266, 1331851, 1332471, 1333050, 1333627, 1334252, 1334809, 1335363, 1335954, 1336581, 1337162, 1337723, 1338307, 1338930]",59,SB,L,R,ITMSR,1.1
2,400,trial,0,63,63,63,trial,"['S', 'S', 'S', 'S', 'C', 'C', 'C', 'C', 'C', 'C', 'C', 'C', 'C', 'C', 'C', 'C', 'C', 'C', 'C', 'C']","[1346097, 1346466, 1346865, 1347259, 1347680, 1348133, 1348524, 1348939, 1349355, 1349754, 1350194, 1350637, 1351061, 1351484, 1351903, 1352322, 1352764, 1353180, 1353594, 1353986]","[1346200, 1346606, 1347018, 1347418, 1347842, 1348285, 1348686, 1349086, 1349509, 1349919, 1350337, 1350781, 1351207, 1351628, 1352055, 1352483, 1352913, 1353345, 1353737, 1354130]","[122, 139, 131, 123, 126, 118, 84, 74, 75, 58, 91, 73, 104, 55, 83, 67, 67, 64, 47, 37]","[1346100, 1346469, 1346868, 1347261, 1347683, 1348136, 1348528, 1348943, 1349358, 1349758, 1350197, 1350641, 1351064, 1351488, 1351907, 1352326, 1352767, 1353183, 1353597, 1353990]","[1344459, 1344859, 1345259, 1345659, 1346059, 1346459, 1346860, 1347259, 1347700, 1348153, 1348544, 1348959, 1349376, 1349774, 1350214, 1350658, 1351081, 1351504, 1351923, 1352342, 1352784, 1353200, 1353614, 1354006]",59,SB,L,R,ITMSR,1.1
5,600,trial,0,64,64,64,trial,"['S', 'S', 'S', 'S', 'C', 'C', 'C', 'C', 'C', 'C', 'C', 'C', 'C', 'C', 'C', 'C', 'C', 'C', 'C', 'C']","[1362165, 1362744, 1363313, 1363885, 1364505, 1365071, 1365654, 1366219, 1366778, 1367369, 1367926, 1368511, 1369084, 1369631, 1370206, 1370785, 1371365, 1371952, 1372539, 1373132]","[1362369, 1363000, 1363608, 1364249, 1364813, 1365367, 1365932, 1366488, 1367084, 1367673, 1368228, 1368794, 1369391, 1369953, 1370491, 1371097, 1371671, 1372244, 1372855]","[112, 101, 107, 95, 91, 107, 96, 93, 74, 79, 29, 70, 65, 2, 64, 62, 57, 88, 87]","[1362168, 1362747, 1363316, 1363888, 1364509, 1365074, 1365657, 1366222, 1366782, 1367372, 1367930, 1368514, 1369089, 1369635, 1370209, 1370789, 1371368, 1371955, 1372542]","[1359753, 1360353, 1360953, 1361553, 1362153, 1362753, 1363353, 1363953, 1364525, 1365091, 1365675, 1366239, 1366798, 1367389, 1367946, 1368531, 1369104, 1369651, 1370226, 1370805, 1371385, 1371972, 1372559, 1373152]",59,SB,L,R,ITMSR,1.1
3,600,trial,0,65,65,65,trial,"['S', 'S', 'S', 'S', 'C', 'C', 'C', 'C', 'C', 'C', 'C', 'C', 'C', 'C', 'C', 'C', 'C', 'C', 'C', 'C']","[1380848, 1381441, 1382021, 1382641, 1383227, 1383817, 1384430, 1385033, 1385608, 1386216, 1386796, 1387356, 1387922, 1388469, 1389025, 1389597, 1390168, 1390756, 1391324, 1391911]","[1381082, 1381723, 1382353, 1382965, 1383552, 1384147, 1384747, 1385332, 1385964, 1386522, 1387071, 1387652, 1388206, 1388726, 1389302, 1389890, 1390446, 1391025, 1391594, 1392156]","[124, 127, 124, 127, 121, 122, 113, 128, 117, 113, 120, 129, 118, 117, 120, 34, 112, 112, 105, 153]","[1380851, 1381443, 1382024, 1382644, 1383230, 1383820, 1384433, 1385036, 1385611, 1386219, 1386799, 1387359, 1387925, 1388472, 1389028, 1389601, 1390171, 1390759, 1391326, 1391913]","[1378459, 1379058, 1379658, 1380258, 1380858, 1381458, 1382059, 1382658, 1383247, 1383837, 1384450, 1385053, 1385628, 1386236, 1386816, 1387376, 1387942, 1388489, 1389045, 1389617, 1390188, 1390776, 1391344, 1391931]",59,SB,L,R,ITMSR,1.1
4,400,trial,0,66,66,66,trial,"['S', 'S', 'S', 'S', 'C', 'C', 'C', 'C', 'C', 'C', 'C', 'C', 'C', 'C', 'C', 'C', 'C', 'C', 'C', 'C', 'C']","[1399023, 1399422, 1399837, 1400245, 1400664, 1401051, 1401486, 1401879, 1402302, 1402705, 1403089, 1403513, 1403935, 1404343, 1404740, 1405136, 1405236, 1405545, 1405976, 1406368, 1406831]","[1399197, 1399622, 1400033, 1400454, 1400856, 1401270, 1401654, 1402054, 1402470, 1402900, 1403313, 1403704, 1404096, 1404488, 1404902, 1405156, 1405296, 1405729, 1406168, 1406544, 1406969]","[141, 115, 69, 111, 98, 87, 77, 236, 8, 189, 2, 253, 55, 68, 47, 162, 17, 32, 38, 63, 34]","[1399026, 1399426, 1399840, 1400248, 1400668, 1401055, 1401488, 1401883, 1402305, 1402710, 1403094, 1403516, 1403939, 1404346, 1404743, 1405139, 1405236, 1405549, 1405979, 1406373, 1406834]","[1397432, 1397832, 1398232, 1398632, 1399032, 1399432, 1399832, 1400232, 1400684, 1401071, 1401506, 1401900, 1402322, 1402725, 1403109, 1403533, 1403955, 1404363, 1404760, 1405156, 1405565, 1405997, 1406388, 1406851]",59,SB,L,R,ITMSR,1.1
1,400,trial,0,67,67,67,trial,"['S', 'S', 'S', 'S', 'C', 'C', 'C', 'C', 'C', 'C', 'C', 'C', 'C', 'C', 'C', 'C', 'C', 'C', 'C', 'C']","[1414264, 1414666, 1415051, 1415454, 1415846, 1416268, 1416664, 1417084, 1417503, 1417905, 1418320, 1418740, 1419149, 1419600, 1420010, 1420405, 1420810, 1421246, 1421641, 1422036]","[1414412, 1414828, 1415207, 1415620, 1416020, 1416436, 1416859, 1417264, 1417674, 1418079, 1418466, 1418907, 1419289, 1419707, 1420136, 1420524, 1420929, 1421337, 1421746, 1422143]","[141, 120, 122, 123, 123, 113, 97, 94, 71, 90, 102, 105, 87, 93, 56, 66, 92, 48, 49, 59]","[1414267, 1414669, 1415055, 1415457, 1415849, 1416271, 1416668, 1417089, 1417507, 1417908, 1418324, 1418744, 1419152, 1419603, 1420014, 1420409, 1420814, 1421250, 1421645, 1422041]","[1412636, 1413037, 1413437, 1413837, 1414237, 1414637, 1415037, 1415437, 1415866, 1416288, 1416684, 1417104, 1417523, 1417925, 1418340, 1418760, 1419169, 1419620, 1420030, 1420425, 1420830, 1421266, 1421661, 1422056]",59,SB,L,R,ITMSR,1.1
1,600,trial,0,68,68,68,trial,"['S', 'S', 'S', 'S', 'C', 'C', 'C', 'C', 'C', 'C', 'C', 'C', 'C', 'C', 'C', 'C', 'C', 'C', 'C', 'C']","[1430145, 1430729, 1431337, 1431937, 1432531, 1433137, 1433745, 1434380, 1434982, 1435595, 1436205, 1436838, 1437459, 1438146, 1438778, 1439368, 1439919, 1440551, 1441164, 1441828]","[1430294, 1430917, 1431546, 1432166, 1432763, 1433378, 1434001, 1434575, 1435195, 1435790, 1436377, 1437033, 1437655, 1438296, 1438927, 1439506, 1440095, 1440693, 1441306, 1441958]","[131, 121, 131, 127, 127, 91, 90, 121, 70, 57, 58, 70, 29, 81, 229, 19, 149, 108, 139, 20]","[1430148, 1430732, 1431341, 1431939, 1432535, 1433140, 1433749, 1434383, 1434985, 1435599, 1436209, 1436843, 1437463, 1438149, 1438782, 1439372, 1439923, 1440556, 1441168, 1441832]","[1427776, 1428376, 1428976, 1429576, 1430176, 1430776, 1431376, 1431976, 1432551, 1433157, 1433765, 1434400, 1435002, 1435615, 1436225, 1436858, 1437479, 1438167, 1438798, 1439388, 1439939, 1440571, 1441184, 1441848]",59,SB,L,R,ITMSR,1.1
4,600,trial,0,69,69,69,trial,"['S', 'S', 'S', 'S', 'C', 'C', 'C', 'C', 'C', 'C', 'C', 'C', 'C', 'C', 'C', 'C', 'C', 'C', 'C', 'C']","[1449870, 1450465, 1451064, 1451664, 1452265, 1452877, 1453462, 1454080, 1454710, 1455279, 1455899, 1456494, 1457094, 1457715, 1458309, 1458921, 1459534, 1460120, 1460760, 1461350]","[1450097, 1450732, 1451336, 1451955, 1452565, 1453175, 1453780, 1454376, 1454996, 1455577, 1456163, 1456775, 1457392, 1457956, 1458611, 1459163, 1459778, 1460395, 1460968]","[125, 138, 136, 139, 123, 118, 129, 109, 100, 112, 101, 121, 121, 109, 105, 95, 101, 108, 60]","[1449872, 1450468, 1451067, 1451667, 1452267, 1452880, 1453464, 1454083, 1454713, 1455281, 1455901, 1456496, 1457096, 1457717, 1458312, 1458923, 1459537, 1460122, 1460763]","[1447482, 1448082, 1448682, 1449282, 1449882, 1450482, 1451082, 1451682, 1452285, 1452897, 1453483, 1454100, 1454730, 1455299, 1455919, 1456514, 1457114, 1457735, 1458329, 1458941, 1459554, 1460141, 1460781, 1461370]",59,SB,L,R,ITMSR,1.1
3,600,trial,0,70,70,70,trial,"['S', 'S', 'S', 'S', 'C', 'C', 'C', 'C', 'C', 'C', 'C', 'C', 'C', 'C', 'C', 'C', 'C', 'C', 'C', 'C']","[1469194, 1469765, 1470338, 1470929, 1471527, 1472113, 1472711, 1473299, 1473857, 1474440, 1475022, 1475623, 1476235, 1476815, 1477390, 1477986, 1478574, 1479138, 1479755, 1480324]","[1469423, 1470052, 1470642, 1471233, 1471847, 1472381, 1472946, 1473518, 1474105, 1474683, 1475271, 1475879, 1476476, 1477052, 1477658, 1478219, 1478821, 1479432, 1480022, 1480576]","[136, 117, 123, 136, 114, 74, 69, 100, 73, 116, 110, 80, 87, 53, 55, 94, 42, 92, 242, 93]","[1469197, 1469768, 1470341, 1470932, 1471531, 1472117, 1472714, 1473302, 1473860, 1474443, 1475025, 1475627, 1476238, 1476818, 1477394, 1477989, 1478578, 1479141, 1479759, 1480327]","[1466814, 1467413, 1468013, 1468613, 1469213, 1469813, 1470413, 1471013, 1471547, 1472133, 1472731, 1473319, 1473878, 1474460, 1475042, 1475643, 1476255, 1476835, 1477410, 1478006, 1478594, 1479158, 1479775, 1480344]",59,SB,L,R,ITMSR,1.1
4,600,trial,0,71,71,71,trial,"['S', 'S', 'S', 'S', 'C', 'C', 'C', 'C', 'C', 'C', 'C', 'C', 'C', 'C', 'C', 'C', 'C', 'C', 'C', 'C']","[1488404, 1489015, 1489602, 1490169, 1490747, 1491341, 1491937, 1492540, 1493139, 1493675, 1494265, 1494866, 1495458, 1496050, 1496687, 1497239, 1497837, 1498407, 1499008, 1499575]","[1488646, 1489255, 1489853, 1490454, 1491070, 1491602, 1492171, 1492767, 1493407, 1493953, 1494534, 1495123, 1495720, 1496305, 1496912, 1497519, 1498077, 1498634, 1499214, 1499798]","[154, 99, 90, 73, 66, 241, 45, 56, 11, 212, 240, 241, 16, 24, 238, 36, 5, 235, 1, 16]","[1488406, 1489017, 1489605, 1490172, 1490751, 1491345, 1491940, 1492543, 1493142, 1493679, 1494268, 1494871, 1495460, 1496054, 1496690, 1497242, 1497841, 1498412, 1499011, 1499578]","[1486015, 1486615, 1487215, 1487815, 1488415, 1489015, 1489615, 1490215, 1490767, 1491361, 1491957, 1492560, 1493159, 1493695, 1494285, 1494886, 1495478, 1496070, 1496707, 1497260, 1497858, 1498427, 1499028, 1499595]",59,SB,L,R,ITMSR,1.1
2,400,trial,0,72,72,72,trial,"['S', 'S', 'S', 'S', 'C', 'C', 'C', 'C', 'C', 'C', 'C', 'C', 'C', 'C', 'C', 'C', 'C', 'C', 'C', 'C', 'C', 'C']","[1506522, 1506925, 1507317, 1507703, 1508127, 1508533, 1508968, 1509368, 1509762, 1510196, 1510602, 1511007, 1511428, 1511528, 1511804, 1512238, 1512630, 1513015, 1513441, 1513819, 1513919, 1514201]","[1506647, 1507078, 1507497, 1507878, 1508287, 1508686, 1509078, 1509484, 1509885, 1510300, 1510705, 1511113, 1511448, 1511548, 1511824, 1512333, 1512650, 1513035, 1513461, 1513839, 1513939, 1514221]","[139, 134, 134, 70, 86, 28, 59, 20, 226, 239, 199, 201, 137, 65, 174, 143, 246, 32, 35, 224, 101, 136]","[1506524, 1506927, 1507318, 1507706, 1508130, 1508536, 1508972, 1509372, 1509766, 1510200, 1510606, 1511012, 1511432, 1511528, 1511810, 1512242, 1512635, 1513019, 1513445, 1513824, 1513919, 1514206]","[1504894, 1505294, 1505694, 1506094, 1506494, 1506894, 1507294, 1507694, 1508147, 1508553, 1508988, 1509388, 1509782, 1510216, 1510622, 1511027, 1511448, 1511824, 1512258, 1512650, 1513035, 1513461, 1513839, 1514221]",59,SB,L,R,ITMSR,1.1
0,600,trial,0,73,73,73,trial,"['S', 'S', 'S', 'S', 'C', 'C', 'C', 'C', 'C', 'C', 'C', 'C', 'C', 'C', 'C', 'C', 'C', 'C', 'C', 'C', 'C', 'C', 'C', 'C']","[1522402, 1523020, 1523581, 1524172, 1524759, 1525370, 1525992, 1526630, 1527193, 1527294, 1527819, 1528428, 1529037, 1529137, 1529633, 1530242, 1530342, 1530833, 1531438, 1531980, 1532080, 1532526, 1533101, 1533699]","[1522603, 1523245, 1523847, 1524428, 1525013, 1525595, 1526202, 1526809, 1527213, 1527406, 1527994, 1528624, 1529057, 1529229, 1529828, 1530262, 1530392, 1531025, 1531552, 1532000, 1532107, 1532669, 1533285, 1533831]","[144, 97, 119, 30, 38, 4, 26, 198, 80, 146, 48, 175, 120, 27, 130, 39, 176, 235, 179, 14, 222, 50, 123, 45]","[1522405, 1523022, 1523584, 1524176, 1524762, 1525374, 1525995, 1526634, 1527198, 1527319, 1527824, 1528433, 1529042, 1529166, 1529637, 1530247, 1530345, 1530839, 1531442, 1531985, 1532080, 1532530, 1533106, 1533704]","[1520005, 1520605, 1521205, 1521805, 1522405, 1523005, 1523605, 1524205, 1524780, 1525390, 1526012, 1526650, 1527213, 1527839, 1528449, 1529057, 1529653, 1530262, 1530853, 1531458, 1532000, 1532546, 1533121, 1533719]",59,SB,L,R,ITMSR,1.1
5,400,trial,0,74,74,74,trial,"['S', 'S', 'S', 'S', 'C', 'C', 'C', 'C', 'C', 'C', 'C', 'C', 'C', 'C', 'C', 'C', 'C', 'C', 'C', 'C', 'C', 'C', 'C']","[1540810, 1541195, 1541602, 1541998, 1542408, 1542827, 1543265, 1543672, 1544073, 1544497, 1544931, 1545345, 1545749, 1546174, 1546620, 1547031, 1547133, 1547417, 1547518, 1547869, 1548279, 1548379, 1548682]","[1540928, 1541350, 1541792, 1542177, 1542610, 1543011, 1543441, 1543856, 1544253, 1544675, 1545076, 1545493, 1545919, 1546347, 1546746, 1547052, 1547164, 1547437, 1547546, 1548006, 1548299, 1548427, 1548820]","[67, 88, 105, 71, 40, 28, 56, 19, 0, 25, 30, 32, 227, 210, 204, 180, 39, 193, 109, 158, 229, 73, 84]","[1540812, 1541199, 1541605, 1542000, 1542412, 1542830, 1543269, 1543676, 1544077, 1544501, 1544935, 1545349, 1545754, 1546179, 1546626, 1547036, 1547133, 1547422, 1547518, 1547873, 1548283, 1548393, 1548687]","[1539198, 1539598, 1539998, 1540398, 1540798, 1541198, 1541598, 1541998, 1542428, 1542847, 1543285, 1543692, 1544093, 1544517, 1544951, 1545365, 1545769, 1546194, 1546640, 1547052, 1547437, 1547889, 1548299, 1548702]",59,SB,L,R,ITMSR,1.1
5,400,trial,0,75,75,75,trial,"['S', 'S', 'S', 'S', 'C', 'C', 'C', 'C', 'C', 'C', 'C', 'C', 'C', 'C', 'C', 'C', 'C', 'C', 'C', 'C']","[1556013, 1556419, 1556819, 1557235, 1557658, 1558055, 1558451, 1558867, 1559290, 1559675, 1560118, 1560531, 1560964, 1561384, 1561847, 1562283, 1562708, 1563103, 1563548, 1563965]","[1556135, 1556586, 1557011, 1557421, 1557872, 1558261, 1558674, 1559076, 1559496, 1559895, 1560301, 1560715, 1561139, 1561547, 1561962, 1562398, 1562823, 1563242, 1563676, 1564098]","[36, 75, 104, 84, 87, 125, 136, 133, 119, 113, 122, 127, 129, 63, 37, 21, 79, 76, 82, 81]","[1556016, 1556504, 1556915, 1557314, 1557769, 1558165, 1558565, 1558972, 1559393, 1559793, 1560221, 1560633, 1561068, 1561490, 1561909, 1562337, 1562767, 1563168, 1563613, 1564030]","[1554419, 1554819, 1555219, 1555619, 1556019, 1556419, 1556819, 1557219, 1557678, 1558075, 1558471, 1558887, 1559310, 1559695, 1560138, 1560551, 1560984, 1561404, 1561867, 1562303, 1562728, 1563123, 1563568, 1563985]",59,SB,L,R,ITMSR,1.1
1,400,trial,0,76,76,76,trial,"['S', 'S', 'S', 'S', 'C', 'C', 'C', 'C', 'C', 'C', 'C', 'C', 'C', 'C', 'C', 'C', 'C', 'C', 'C', 'C']","[1571003, 1571404, 1571809, 1572225, 1572608, 1573002, 1573407, 1573789, 1574187, 1574626, 1575034, 1575424, 1575834, 1576266, 1576659, 1577109, 1577539, 1577919, 1578347, 1578772]","[1571138, 1571543, 1571966, 1572387, 1572782, 1573175, 1573580, 1573972, 1574370, 1574791, 1575188, 1575590, 1575990, 1576398, 1576791, 1577226, 1577626, 1578014, 1578452, 1578880]","[126, 110, 94, 94, 92, 78, 83, 86, 60, 69, 92, 28, 31, 27, 241, 173, 144, 119, 159, 27]","[1571007, 1571407, 1571813, 1572227, 1572678, 1573074, 1573498, 1573874, 1574280, 1574708, 1575119, 1575522, 1575838, 1576337, 1576726, 1577172, 1577585, 1577958, 1578403, 1578841]","[1569412, 1569812, 1570212, 1570612, 1571012, 1571412, 1571812, 1572212, 1572628, 1573022, 1573427, 1573809, 1574207, 1574646, 1575054, 1575444, 1575854, 1576286, 1576679, 1577129, 1577560, 1577939, 1578368, 1578792]",59,SB,L,R,ITMSR,1.1
0,400,trial,0,77,77,77,trial,"['S', 'S', 'S', 'S', 'C', 'C', 'C', 'C', 'C', 'C', 'C', 'C', 'C', 'C', 'C', 'C', 'C', 'C', 'C', 'C']","[1586121, 1586508, 1586926, 1587317, 1587723, 1588132, 1588519, 1588959, 1589378, 1589797, 1590230, 1590666, 1591075, 1591494, 1591910, 1592331, 1592766, 1593182, 1593641, 1594062]","[1586227, 1586648, 1587063, 1587462, 1587858, 1588292, 1588690, 1589099, 1589493, 1589906, 1590344, 1590763, 1591165, 1591592, 1592001, 1592420, 1592852, 1593268, 1593732, 1594136]","[74, 55, 60, 37, 54, 35, 31, 251, 220, 142, 159, 190, 120, 140, 42, 12, 221, 145, 178, 53]","[1586125, 1586512, 1586930, 1587400, 1587727, 1588207, 1588623, 1589035, 1589441, 1589804, 1590286, 1590671, 1591115, 1591540, 1591915, 1592338, 1592771, 1593187, 1593690, 1594067]","[1584498, 1584898, 1585298, 1585698, 1586098, 1586498, 1586898, 1587298, 1587743, 1588152, 1588539, 1588979, 1589398, 1589817, 1590250, 1590686, 1591095, 1591514, 1591930, 1592351, 1592786, 1593202, 1593661, 1594082]",59,SB,L,R,ITMSR,1.1
1,400,trial,0,78,78,78,trial,"['S', 'S', 'S', 'S', 'C', 'C', 'C', 'C', 'C', 'C', 'C', 'C', 'C', 'C', 'C', 'C', 'C', 'C', 'C', 'C']","[1604409, 1604803, 1605193, 1605580, 1606026, 1606462, 1606886, 1607323, 1607739, 1608170, 1608609, 1609033, 1609444, 1609885, 1610299, 1610701, 1611133, 1611506, 1611975, 1612414]","[1604501, 1604934, 1605328, 1605736, 1606163, 1606601, 1607023, 1607443, 1607876, 1608310, 1608730, 1609123, 1609535, 1609970, 1610374, 1610787, 1611217, 1611590, 1612072, 1612493]","[114, 66, 31, 5, 30, 238, 5, 174, 181, 237, 179, 137, 124, 22, 215, 48, 123, 76, 190, 37]","[1604412, 1604806, 1605197, 1605584, 1606030, 1606466, 1606890, 1607388, 1607812, 1608249, 1608677, 1609038, 1609450, 1609940, 1610344, 1610749, 1611173, 1611561, 1612030, 1612446]","[1602779, 1603179, 1603579, 1603979, 1604379, 1604780, 1605179, 1605579, 1606046, 1606482, 1606906, 1607343, 1607759, 1608190, 1608629, 1609053, 1609464, 1609905, 1610319, 1610721, 1611153, 1611526, 1611995, 1612434]",59,SB,L,R,ITMSR,1.1
2,600,trial,0,79,79,79,trial,"['S', 'S', 'S', 'S', 'C', 'C', 'C', 'C', 'C', 'C', 'C', 'C', 'C', 'C', 'C', 'C', 'C', 'C', 'C', 'C', 'C']","[1620465, 1621041, 1621642, 1622245, 1622824, 1623427, 1624029, 1624608, 1625203, 1625810, 1625910, 1626384, 1626975, 1627573, 1628161, 1628772, 1629350, 1629952, 1630528, 1631157, 1631764]","[1620679, 1621297, 1621927, 1622514, 1623137, 1623687, 1624273, 1624854, 1625450, 1625830, 1626036, 1626653, 1627207, 1627794, 1628413, 1629020, 1629557, 1630184, 1630802, 1631379, 1631977]","[87, 61, 11, 37, 36, 44, 217, 225, 107, 173, 229, 171, 45, 1, 248, 57, 102, 72, 60, 68, 65]","[1620468, 1621044, 1621645, 1622248, 1622828, 1623430, 1624033, 1624611, 1625205, 1625812, 1625975, 1626536, 1626978, 1627575, 1628163, 1628775, 1629352, 1629955, 1630531, 1631160, 1631767]","[1618074, 1618674, 1619274, 1619874, 1620474, 1621074, 1621675, 1622274, 1622844, 1623447, 1624049, 1624628, 1625223, 1625830, 1626404, 1626995, 1627593, 1628181, 1628792, 1629370, 1629972, 1630548, 1631177, 1631784]",59,SB,L,R,ITMSR,1.1
5,400,trial,0,80,80,80,trial,"['S', 'S', 'S', 'S', 'C', 'C', 'C', 'C', 'C', 'C', 'C', 'C', 'C', 'C', 'C', 'C', 'C', 'C', 'C', 'C']","[1638924, 1639303, 1639743, 1640145, 1640538, 1640936, 1641359, 1641759, 1642170, 1642570, 1642970, 1643368, 1643783, 1644186, 1644582, 1645029, 1645440, 1645846, 1646266, 1646717]","[1639052, 1639476, 1639884, 1640283, 1640691, 1641077, 1641465, 1641839, 1642247, 1642642, 1643040, 1643443, 1643862, 1644260, 1644665, 1645105, 1645513, 1645932, 1646359, 1646792]","[26, 36, 54, 44, 29, 235, 37, 252, 243, 191, 95, 180, 94, 144, 138, 181, 164, 211, 203, 193]","[1638926, 1639306, 1639746, 1640150, 1640541, 1640940, 1641362, 1641763, 1642173, 1642574, 1642974, 1643371, 1643787, 1644190, 1644587, 1645033, 1645444, 1645849, 1646269, 1646722]","[1637324, 1637724, 1638124, 1638524, 1638924, 1639324, 1639725, 1640125, 1640558, 1640956, 1641379, 1641779, 1642190, 1642590, 1642990, 1643388, 1643803, 1644206, 1644602, 1645049, 1645460, 1645867, 1646286, 1646737]",59,SB,L,R,ITMSR,1.1
1,400,trial,0,81,81,81,trial,"['S', 'S', 'S', 'S', 'C', 'C', 'C', 'C', 'C', 'C', 'C', 'C', 'C', 'C', 'C', 'C', 'C', 'C', 'C', 'C']","[1654087, 1654454, 1654881, 1655304, 1655694, 1656119, 1656524, 1656922, 1657354, 1657699, 1658119, 1658530, 1658971, 1659404, 1659830, 1660283, 1660652, 1661076, 1661523, 1661944]","[1654174, 1654590, 1655045, 1655448, 1655853, 1656263, 1656671, 1657046, 1657456, 1657819, 1658212, 1658633, 1659058, 1659497, 1659921, 1660355, 1660752, 1661174, 1661591, 1662028]","[60, 77, 26, 33, 21, 9, 4, 27, 23, 168, 155, 58, 171, 124, 43, 74, 13, 210, 21, 47]","[1654090, 1654457, 1654884, 1655305, 1655697, 1656123, 1656527, 1656925, 1657357, 1657704, 1658124, 1658587, 1658975, 1659410, 1659836, 1660289, 1660657, 1661082, 1661529, 1661950]","[1652505, 1652904, 1653304, 1653704, 1654104, 1654504, 1654904, 1655304, 1655714, 1656139, 1656544, 1656942, 1657374, 1657719, 1658139, 1658550, 1658991, 1659424, 1659850, 1660303, 1660673, 1661096, 1661543, 1661964]",59,SB,L,R,ITMSR,1.1
4,600,trial,0,82,82,82,trial,"['S', 'S', 'S', 'S', 'C', 'C', 'C', 'C', 'C', 'C', 'C', 'C', 'C', 'C', 'C', 'C', 'C', 'C', 'C', 'C']","[1669712, 1670306, 1670904, 1671523, 1672139, 1672760, 1673407, 1674042, 1674684, 1675329, 1675975, 1676590, 1677169, 1677802, 1678428, 1679038, 1679641, 1680224, 1680868, 1681484]","[1670009, 1670627, 1671214, 1671797, 1672471, 1673083, 1673682, 1674345, 1674995, 1675663, 1676265, 1676875, 1677512, 1678108, 1678727, 1679330, 1679992, 1680575, 1681174, 1681750]","[129, 89, 105, 116, 109, 80, 81, 84, 76, 93, 61, 63, 36, 72, 56, 87, 49, 56, 76, 81]","[1669715, 1670309, 1670907, 1671526, 1672142, 1672763, 1673410, 1674045, 1674688, 1675332, 1675978, 1676593, 1677173, 1677805, 1678431, 1679041, 1679644, 1680227, 1680871, 1681487]","[1667374, 1667973, 1668573, 1669173, 1669773, 1670373, 1670973, 1671573, 1672159, 1672780, 1673427, 1674062, 1674704, 1675350, 1675995, 1676610, 1677189, 1677822, 1678448, 1679058, 1679661, 1680244, 1680888, 1681504]",59,SB,L,R,ITMSR,1.1
0,600,trial,0,83,83,83,trial,"['S', 'S', 'S', 'S', 'C', 'C', 'C', 'C', 'C', 'C', 'C', 'C', 'C', 'C', 'C', 'C', 'C', 'C', 'C', 'C', 'C']","[1689415, 1689994, 1690590, 1691196, 1691814, 1692392, 1692993, 1693601, 1694212, 1694822, 1695433, 1696036, 1696670, 1697270, 1697913, 1698530, 1699116, 1699659, 1700261, 1700361, 1700867]","[1689658, 1690286, 1690878, 1691481, 1692081, 1692660, 1693275, 1693876, 1694461, 1695097, 1695724, 1696288, 1696874, 1697507, 1698141, 1698734, 1699349, 1699962, 1700281, 1700492, 1701095]","[92, 241, 78, 67, 222, 37, 20, 253, 35, 212, 235, 244, 154, 180, 178, 190, 96, 94, 255, 1, 78]","[1689418, 1689999, 1690594, 1691200, 1691819, 1692395, 1692997, 1693604, 1694215, 1694826, 1695436, 1696040, 1696675, 1697274, 1697917, 1698534, 1699121, 1699664, 1700265, 1700377, 1700872]","[1687026, 1687626, 1688226, 1688826, 1689426, 1690027, 1690626, 1691226, 1691834, 1692412, 1693014, 1693621, 1694232, 1694842, 1695453, 1696056, 1696690, 1697290, 1697933, 1698550, 1699136, 1699679, 1700281, 1700887]",59,SB,L,R,ITMSR,1.1
4,400,trial,0,84,84,84,trial,"['S', 'S', 'S', 'S', 'C', 'C', 'C', 'C', 'C', 'C', 'C', 'C', 'C', 'C', 'C', 'C', 'C', 'C', 'C', 'C']","[1708073, 1708454, 1708861, 1709274, 1709680, 1710061, 1710508, 1710921, 1711343, 1711822, 1712236, 1712651, 1713099, 1713485, 1713897, 1714315, 1714735, 1715181, 1715581, 1715995]","[1708192, 1708606, 1709001, 1709409, 1709838, 1710235, 1710657, 1711077, 1711488, 1711912, 1712353, 1712777, 1713196, 1713622, 1714025, 1714439, 1714862, 1715283, 1715707, 1716143]","[53, 100, 48, 59, 42, 27, 209, 212, 190, 175, 11, 247, 238, 194, 228, 212, 2, 1, 235, 35]","[1708077, 1708457, 1708866, 1709277, 1709683, 1710066, 1710513, 1710926, 1711348, 1711827, 1712240, 1712655, 1713104, 1713491, 1713902, 1714319, 1714740, 1715186, 1715587, 1715999]","[1706466, 1706866, 1707266, 1707666, 1708066, 1708466, 1708866, 1709266, 1709700, 1710082, 1710528, 1710941, 1711363, 1711842, 1712257, 1712671, 1713119, 1713505, 1713917, 1714335, 1714755, 1715202, 1715601, 1716015]",59,SB,L,R,ITMSR,1.1
3,400,trial,0,85,85,85,trial,"['S', 'S', 'S', 'S', 'C', 'C', 'C', 'C', 'C', 'C', 'C', 'C', 'C', 'C', 'C', 'C', 'C', 'C', 'C', 'C']","[1723251, 1723652, 1724079, 1724475, 1724863, 1725279, 1725667, 1726052, 1726466, 1726898, 1727314, 1727697, 1728101, 1728522, 1728899, 1729318, 1729763, 1730137, 1730511, 1730971]","[1723410, 1723843, 1724262, 1724653, 1725029, 1725428, 1725828, 1726238, 1726627, 1727046, 1727440, 1727827, 1728233, 1728638, 1729019, 1729444, 1729859, 1730271, 1730651, 1731077]","[88, 50, 75, 59, 95, 75, 83, 61, 49, 57, 56, 202, 16, 252, 154, 133, 180, 153, 151, 122]","[1723254, 1723655, 1724083, 1724479, 1724866, 1725282, 1725670, 1726056, 1726470, 1726902, 1727320, 1727780, 1728105, 1728526, 1728904, 1729324, 1729768, 1730142, 1730516, 1730976]","[1721650, 1722049, 1722449, 1722849, 1723249, 1723650, 1724050, 1724450, 1724883, 1725299, 1725687, 1726072, 1726486, 1726918, 1727334, 1727717, 1728121, 1728542, 1728919, 1729338, 1729783, 1730157, 1730531, 1730991]",59,SB,L,R,ITMSR,1.1
4,400,trial,0,86,86,86,trial,"['S', 'S', 'S', 'S', 'C', 'C', 'C', 'C', 'C', 'C', 'C', 'C', 'C', 'C', 'C', 'C', 'C', 'C', 'C', 'C']","[1737881, 1738298, 1738704, 1739104, 1739498, 1739885, 1740306, 1740718, 1741101, 1741504, 1741926, 1742313, 1742734, 1743159, 1743549, 1743966, 1744400, 1744795, 1745197, 1745591]","[1738061, 1738520, 1738923, 1739276, 1739670, 1740072, 1740454, 1740855, 1741259, 1741648, 1742064, 1742445, 1742868, 1743285, 1743695, 1744106, 1744523, 1744914, 1745314, 1745686]","[37, 221, 208, 172, 194, 175, 153, 185, 218, 121, 191, 78, 186, 190, 166, 151, 192, 104, 210, 38]","[1737884, 1738299, 1738708, 1739108, 1739501, 1739888, 1740310, 1740721, 1741104, 1741508, 1741929, 1742383, 1742737, 1743162, 1743553, 1743970, 1744404, 1744799, 1745201, 1745595]","[1736298, 1736698, 1737098, 1737498, 1737899, 1738298, 1738698, 1739098, 1739518, 1739906, 1740326, 1740738, 1741121, 1741524, 1741946, 1742333, 1742754, 1743179, 1743569, 1743986, 1744420, 1744815, 1745217, 1745611]",59,SB,L,R,ITMSR,1.1
1,600,trial,0,87,87,87,trial,"['S', 'S', 'S', 'S', 'C', 'C', 'C', 'C', 'C', 'C', 'C', 'C', 'C', 'C', 'C', 'C', 'C', 'C', 'C', 'C']","[1753580, 1754145, 1754766, 1755346, 1755970, 1756573, 1757175, 1757787, 1758402, 1759011, 1759639, 1760233, 1760856, 1761458, 1762065, 1762671, 1763303, 1763880, 1764487, 1765115]","[1753782, 1754388, 1755006, 1755591, 1756246, 1756848, 1757394, 1757995, 1758600, 1759208, 1759811, 1760417, 1761040, 1761634, 1762202, 1762798, 1763423, 1764012, 1764620, 1765210]","[134, 129, 113, 123, 126, 105, 112, 114, 93, 68, 28, 71, 65, 31, 55, 65, 1, 185, 202, 186]","[1753583, 1754148, 1754769, 1755350, 1755973, 1756577, 1757179, 1757790, 1758406, 1759015, 1759643, 1760237, 1760860, 1761462, 1762068, 1762674, 1763308, 1763886, 1764491, 1765120]","[1751179, 1751778, 1752378, 1752978, 1753578, 1754178, 1754778, 1755378, 1755991, 1756593, 1757195, 1757807, 1758423, 1759031, 1759660, 1760253, 1760876, 1761478, 1762085, 1762691, 1763323, 1763900, 1764507, 1765135]",59,SB,L,R,ITMSR,1.1
0,400,trial,0,88,88,88,trial,"['S', 'S', 'S', 'S', 'C', 'C', 'C', 'C', 'C', 'C', 'C', 'C', 'C', 'C', 'C', 'C', 'C', 'C', 'C', 'C']","[1772510, 1772907, 1773290, 1773707, 1774103, 1774515, 1774963, 1775368, 1775783, 1776178, 1776615, 1776997, 1777402, 1777845, 1778254, 1778675, 1779093, 1779544, 1779948, 1780367]","[1772630, 1773030, 1773424, 1773817, 1774195, 1774597, 1775033, 1775453, 1775859, 1776277, 1776692, 1777079, 1777478, 1777912, 1778339, 1778755, 1779175, 1779614, 1780033, 1780443]","[124, 116, 121, 82, 1, 146, 30, 250, 30, 249, 202, 165, 131, 87, 208, 206, 228, 86, 156, 158]","[1772513, 1772910, 1773294, 1773710, 1774108, 1774573, 1774968, 1775373, 1775788, 1776182, 1776620, 1777002, 1777408, 1777850, 1778258, 1778680, 1779098, 1779549, 1779953, 1780372]","[1770894, 1771294, 1771694, 1772094, 1772494, 1772894, 1773294, 1773694, 1774124, 1774535, 1774983, 1775388, 1775803, 1776198, 1776635, 1777017, 1777422, 1777865, 1778274, 1778695, 1779113, 1779564, 1779969, 1780387]",59,SB,L,R,ITMSR,1.1
5,600,trial,0,89,89,89,trial,"['S', 'S', 'S', 'S', 'C', 'C', 'C', 'C', 'C', 'C', 'C', 'C', 'C', 'C', 'C', 'C', 'C', 'C', 'C', 'C']","[1788136, 1788719, 1789343, 1789941, 1790533, 1791153, 1791760, 1792347, 1792923, 1793523, 1794101, 1794708, 1795306, 1795904, 1796525, 1797137, 1797742, 1798345, 1798963, 1799535]","[1788364, 1788998, 1789606, 1790234, 1790851, 1791443, 1792018, 1792609, 1793214, 1793810, 1794411, 1795025, 1795622, 1796229, 1796841, 1797454, 1798047, 1798654, 1799267]","[112, 82, 82, 85, 100, 90, 109, 113, 99, 110, 103, 114, 110, 100, 104, 101, 92, 91, 104]","[1788139, 1788723, 1789346, 1789944, 1790536, 1791156, 1791763, 1792350, 1792926, 1793526, 1794104, 1794711, 1795308, 1795906, 1796528, 1797140, 1797745, 1798348, 1798966]","[1785772, 1786371, 1786971, 1787571, 1788171, 1788771, 1789371, 1789971, 1790553, 1791173, 1791780, 1792367, 1792943, 1793543, 1794121, 1794728, 1795326, 1795924, 1796545, 1797157, 1797762, 1798365, 1798983, 1799555]",59,SB,L,R,ITMSR,1.1
5,600,trial,0,90,90,90,trial,"['S', 'S', 'S', 'S', 'C', 'C', 'C', 'C', 'C', 'C', 'C', 'C', 'C', 'C', 'C', 'C', 'C', 'C', 'C', 'C', 'C', 'C', 'C', 'C']","[1807350, 1807925, 1808521, 1809116, 1809730, 1810321, 1810905, 1811518, 1812088, 1812716, 1813326, 1813917, 1814508, 1815096, 1815725, 1816382, 1816482, 1817005, 1817105, 1817609, 1817709, 1818222, 1818323, 1818838]","[1807639, 1808234, 1808827, 1809441, 1810015, 1810612, 1811190, 1811781, 1812381, 1812992, 1813606, 1814209, 1814818, 1815419, 1816027, 1816402, 1816636, 1817025, 1817217, 1817629, 1817843, 1818242, 1818475, 1819072]","[120, 123, 119, 121, 85, 31, 64, 72, 107, 82, 196, 86, 18, 35, 59, 250, 8, 243, 159, 249, 121, 164, 56, 215]","[1807353, 1807927, 1808524, 1809120, 1809733, 1810325, 1810909, 1811521, 1812091, 1812719, 1813330, 1813920, 1814511, 1815100, 1815728, 1816385, 1816578, 1817008, 1817105, 1817612, 1817781, 1818225, 1818401, 1818841]","[1804972, 1805571, 1806171, 1806771, 1807371, 1807971, 1808571, 1809171, 1809751, 1810341, 1810925, 1811538, 1812108, 1812737, 1813346, 1813937, 1814529, 1815116, 1815745, 1816402, 1817025, 1817629, 1818242, 1818858]",59,SB,L,R,ITMSR,1.1
3,600,trial,0,91,91,91,trial,"['S', 'S', 'S', 'S', 'C', 'C', 'C', 'C', 'C', 'C', 'C', 'C', 'C', 'C', 'C', 'C', 'C', 'C', 'C', 'C']","[1826817, 1827382, 1827981, 1828588, 1829180, 1829739, 1830351, 1830961, 1831523, 1832103, 1832716, 1833319, 1833902, 1834509, 1835114, 1835738, 1836365, 1836939, 1837530, 1838130]","[1827068, 1827686, 1828279, 1828879, 1829483, 1830054, 1830641, 1831221, 1831809, 1832383, 1832991, 1833564, 1834161, 1834731, 1835374, 1835957, 1836545, 1837115, 1837749, 1838380]","[79, 97, 91, 111, 62, 10, 75, 89, 93, 45, 84, 37, 206, 43, 90, 139, 22, 16, 36, 84]","[1826821, 1827385, 1827984, 1828591, 1829183, 1829743, 1830355, 1830964, 1831526, 1832107, 1832720, 1833323, 1833906, 1834513, 1835117, 1835740, 1836369, 1836943, 1837533, 1838134]","[1824423, 1825024, 1825624, 1826224, 1826824, 1827424, 1828024, 1828624, 1829200, 1829760, 1830371, 1830981, 1831543, 1832123, 1832736, 1833339, 1833922, 1834529, 1835134, 1835758, 1836385, 1836959, 1837550, 1838150]",59,SB,L,R,ITMSR,1.1
2,400,trial,0,92,92,92,trial,"['S', 'S', 'S', 'S', 'C', 'C', 'C', 'C', 'C', 'C', 'C', 'C', 'C', 'C', 'C', 'C', 'C', 'C', 'C', 'C', 'C']","[1845065, 1845460, 1845877, 1846288, 1846695, 1847089, 1847492, 1847907, 1848312, 1848412, 1848719, 1849145, 1849548, 1849961, 1850394, 1850810, 1851249, 1851610, 1852025, 1852492, 1852900]","[1845214, 1845639, 1846037, 1846464, 1846844, 1847249, 1847656, 1848075, 1848332, 1848474, 1848846, 1849273, 1849679, 1850087, 1850520, 1850925, 1851348, 1851747, 1852150, 1852596, 1852999]","[90, 106, 112, 117, 94, 233, 58, 242, 244, 177, 30, 11, 199, 245, 249, 192, 235, 154, 153, 208, 199]","[1845068, 1845464, 1845879, 1846291, 1846699, 1847093, 1847495, 1847911, 1848317, 1848412, 1848723, 1849149, 1849552, 1849964, 1850398, 1850814, 1851253, 1851683, 1852029, 1852495, 1852903]","[1843458, 1843858, 1844258, 1844658, 1845058, 1845458, 1845858, 1846258, 1846715, 1847109, 1847512, 1847927, 1848332, 1848739, 1849165, 1849568, 1849981, 1850414, 1850830, 1851269, 1851630, 1852045, 1852512, 1852920]",59,SB,L,R,ITMSR,1.1
0,400,trial,0,93,93,93,trial,"['S', 'S', 'S', 'S', 'C', 'C', 'C', 'C', 'C', 'C', 'C', 'C', 'C', 'C', 'C', 'C', 'C', 'C', 'C', 'C']","[1860084, 1860470, 1860881, 1861273, 1861675, 1862074, 1862475, 1862847, 1863264, 1863705, 1864105, 1864505, 1864940, 1865353, 1865766, 1866131, 1866555, 1866993, 1867383, 1867810]","[1860204, 1860595, 1861031, 1861432, 1861829, 1862239, 1862644, 1863008, 1863419, 1863848, 1864243, 1864648, 1865068, 1865477, 1865875, 1866257, 1866679, 1867118, 1867496, 1867920]","[136, 88, 62, 82, 119, 77, 91, 87, 76, 67, 108, 53, 92, 83, 53, 209, 8, 42, 6, 41]","[1860087, 1860474, 1860885, 1861277, 1861679, 1862078, 1862561, 1862930, 1863268, 1863709, 1864109, 1864591, 1864943, 1865357, 1865771, 1866136, 1866558, 1866996, 1867387, 1867813]","[1858467, 1858867, 1859267, 1859667, 1860067, 1860467, 1860867, 1861267, 1861695, 1862094, 1862495, 1862867, 1863284, 1863725, 1864125, 1864525, 1864961, 1865373, 1865786, 1866151, 1866575, 1867013, 1867403, 1867830]",59,SB,L,R,ITMSR,1.1
4,600,trial,0,94,94,94,trial,"['S', 'S', 'S', 'S', 'C', 'C', 'C', 'C', 'C', 'C', 'C', 'C', 'C', 'C', 'C', 'C', 'C', 'C', 'C', 'C']","[1875484, 1876064, 1876684, 1877281, 1877912, 1878482, 1879054, 1879651, 1880244, 1880808, 1881408, 1881994, 1882602, 1883181, 1883773, 1884395, 1884971, 1885536, 1886120, 1886702]","[1875739, 1876383, 1876983, 1877569, 1878172, 1878776, 1879328, 1879915, 1880526, 1881132, 1881714, 1882287, 1882840, 1883494, 1884090, 1884662, 1885255, 1885844, 1886425]","[117, 120, 134, 133, 135, 118, 96, 111, 118, 106, 110, 84, 78, 105, 127, 66, 96, 119, 115]","[1875487, 1876067, 1876686, 1877284, 1877915, 1878484, 1879058, 1879654, 1880247, 1880811, 1881411, 1881998, 1882605, 1883184, 1883777, 1884399, 1884974, 1885540, 1886124]","[1873129, 1873729, 1874329, 1874929, 1875529, 1876129, 1876729, 1877329, 1877933, 1878502, 1879074, 1879671, 1880264, 1880828, 1881428, 1882014, 1882622, 1883201, 1883793, 1884416, 1884991, 1885556, 1886140, 1886722]",59,SB,L,R,ITMSR,1.1
1,600,trial,0,95,95,95,trial,"['S', 'S', 'S', 'S', 'C', 'C', 'C', 'C', 'C', 'C', 'C', 'C', 'C', 'C', 'C', 'C', 'C', 'C', 'C', 'C']","[1894867, 1895453, 1896045, 1896623, 1897241, 1897834, 1898418, 1899001, 1899594, 1900221, 1900811, 1901389, 1902014, 1902619, 1903198, 1903732, 1904338, 1904925, 1905506, 1906093]","[1895104, 1895723, 1896322, 1896906, 1897507, 1898102, 1898661, 1899259, 1899869, 1900452, 1901032, 1901643, 1902233, 1902823, 1903380, 1903958, 1904547, 1905117, 1905674, 1906281]","[131, 129, 142, 146, 139, 140, 133, 131, 130, 107, 93, 121, 100, 57, 41, 83, 221, 94, 96, 200]","[1894871, 1895456, 1896048, 1896626, 1897244, 1897836, 1898420, 1899005, 1899597, 1900224, 1900815, 1901392, 1902018, 1902623, 1903201, 1903735, 1904342, 1904929, 1905509, 1906096]","[1892467, 1893067, 1893667, 1894267, 1894867, 1895468, 1896067, 1896667, 1897261, 1897854, 1898438, 1899021, 1899614, 1900241, 1900831, 1901409, 1902034, 1902639, 1903218, 1903752, 1904358, 1904945, 1905526, 1906113]",59,SB,L,R,ITMSR,1.1
2,400,trial,0,96,96,96,trial,"['S', 'S', 'S', 'S', 'C', 'C', 'C', 'C', 'C', 'C', 'C', 'C', 'C', 'C', 'C', 'C', 'C', 'C', 'C', 'C']","[1913456, 1913845, 1914242, 1914644, 1915049, 1915465, 1915879, 1916289, 1916711, 1917128, 1917534, 1917924, 1918348, 1918766, 1919176, 1919620, 1920041, 1920476, 1920889, 1921284]","[1913594, 1913991, 1914391, 1914809, 1915220, 1915643, 1916059, 1916447, 1916864, 1917278, 1917684, 1918080, 1918481, 1918908, 1919326, 1919707, 1920154, 1920589, 1921000, 1921402]","[94, 125, 135, 123, 123, 125, 124, 117, 126, 92, 97, 60, 50, 62, 8, 50, 71, 231, 242, 14]","[1913458, 1913849, 1914245, 1914647, 1915054, 1915468, 1915882, 1916293, 1916715, 1917131, 1917538, 1917928, 1918352, 1918771, 1919181, 1919625, 1920046, 1920481, 1920894, 1921289]","[1911837, 1912237, 1912637, 1913037, 1913437, 1913837, 1914237, 1914637, 1915069, 1915485, 1915899, 1916309, 1916731, 1917148, 1917554, 1917944, 1918368, 1918786, 1919196, 1919640, 1920061, 1920496, 1920909, 1921304]",59,SB,L,R,ITMSR,1.1
0,600,trial,0,97,97,97,trial,"['S', 'S', 'S', 'S', 'C', 'C', 'C', 'C', 'C', 'C', 'C', 'C', 'C', 'C', 'C', 'C', 'C', 'C', 'C', 'C']","[1929470, 1930057, 1930661, 1931248, 1931864, 1932471, 1933097, 1933710, 1934319, 1934906, 1935521, 1936161, 1936739, 1937334, 1937924, 1938565, 1939197, 1939807, 1940422, 1941086]","[1929694, 1930323, 1930916, 1931512, 1932122, 1932716, 1933332, 1933958, 1934526, 1935136, 1935773, 1936378, 1936956, 1937568, 1938181, 1938754, 1939397, 1940006, 1940631, 1941261]","[136, 112, 137, 125, 116, 114, 111, 104, 121, 94, 90, 95, 90, 65, 59, 36, 80, 52, 52, 86]","[1929474, 1930060, 1930664, 1931251, 1931868, 1932475, 1933102, 1933713, 1934323, 1934910, 1935524, 1936164, 1936743, 1937338, 1937929, 1938570, 1939203, 1939812, 1940426, 1941090]","[1927067, 1927667, 1928267, 1928867, 1929467, 1930067, 1930668, 1931267, 1931884, 1932491, 1933117, 1933730, 1934339, 1934926, 1935541, 1936181, 1936759, 1937354, 1937944, 1938585, 1939217, 1939827, 1940442, 1941106]",59,SB,L,R,ITMSR,1.1
3,400,trial,0,98,98,98,trial,"['S', 'S', 'S', 'S', 'C', 'C', 'C', 'C', 'C', 'C', 'C', 'C', 'C', 'C', 'C', 'C', 'C', 'C', 'C', 'C']","[1948126, 1948516, 1948938, 1949348, 1949771, 1950180, 1950558, 1950973, 1951429, 1951832, 1952251, 1952628, 1953028, 1953428, 1953827, 1954233, 1954620, 1955019, 1955424, 1955815]","[1948273, 1948709, 1949119, 1949546, 1949952, 1950355, 1950735, 1951154, 1951538, 1951955, 1952350, 1952745, 1953147, 1953557, 1953950, 1954370, 1954768, 1955140, 1955589, 1956000]","[120, 41, 50, 98, 43, 8, 28, 79, 37, 26, 228, 1, 254, 200, 176, 252, 221, 180, 235, 248]","[1948128, 1948519, 1948942, 1949351, 1949775, 1950185, 1950562, 1950979, 1951433, 1951836, 1952257, 1952633, 1953032, 1953434, 1953833, 1954238, 1954625, 1955024, 1955430, 1955819]","[1946524, 1946925, 1947325, 1947725, 1948125, 1948525, 1948925, 1949325, 1949791, 1950200, 1950578, 1950993, 1951449, 1951852, 1952271, 1952648, 1953048, 1953448, 1953847, 1954253, 1954640, 1955039, 1955444, 1955835]",59,SB,L,R,ITMSR,1.1
2,600,trial,0,99,99,99,trial,"['S', 'S', 'S', 'S', 'C', 'C', 'C', 'C', 'C', 'C', 'C', 'C', 'C', 'C', 'C', 'C', 'C', 'C', 'C', 'C']","[1963845, 1964412, 1964989, 1965598, 1966216, 1966801, 1967411, 1968000, 1968591, 1969171, 1969763, 1970349, 1970939, 1971513, 1972089, 1972715, 1973326, 1973883, 1974432, 1975016]","[1964086, 1964700, 1965323, 1965926, 1966540, 1967120, 1967692, 1968286, 1968873, 1969483, 1970060, 1970617, 1971203, 1971814, 1972370, 1972946, 1973564, 1974157, 1974720, 1975241]","[106, 46, 120, 118, 112, 107, 90, 108, 125, 94, 103, 114, 87, 96, 104, 105, 82, 36, 78, 91]","[1963848, 1964418, 1964992, 1965601, 1966219, 1966804, 1967415, 1968003, 1968595, 1969175, 1969766, 1970353, 1970942, 1971517, 1972092, 1972719, 1973330, 1973888, 1974436, 1975019]","[1961451, 1962051, 1962651, 1963251, 1963851, 1964451, 1965051, 1965651, 1966236, 1966821, 1967431, 1968020, 1968611, 1969191, 1969783, 1970369, 1970959, 1971533, 1972109, 1972736, 1973346, 1973903, 1974452, 1975036]",59,SB,L,R,ITMSR,1.1
