pitch,ioi,event,.thisRepN,.thisTrialN,.thisN,.thisIndex,event,tap_types,tap_times,release_times,peak_pressures,peak_times,tone_times,subject,experimenter,register,handedness,experiment,version,
,,SPR,0,-1,-1,0,SPR,"['P', 'P', 'P', 'P', 'P', 'P', 'P', 'P', 'P', 'P', 'P', 'P', 'P', 'P', 'P', 'P', 'P', 'P', 'P', 'P', 'P', 'P', 'P', 'P', 'P', 'P', 'P', 'P', 'P', 'P']","[15027, 15746, 16531, 17317, 18094, 18868, 19611, 20346, 21103, 21871, 22599, 23305, 24067, 24816, 25570, 26328, 27024, 27758, 28485, 29220, 29940, 30644, 31389, 32108, 32828, 33505, 34193, 34980, 35637, 36380]","[15190, 15922, 16683, 17487, 18256, 18992, 19763, 20488, 21241, 22013, 22734, 23444, 24211, 24989, 25725, 26469, 27163, 27904, 28652, 29332, 30076, 30775, 31502, 32264, 32984, 33658, 34336, 35127, 35809, 36554]","[167, 209, 198, 13, 22, 152, 5, 4, 14, 37, 38, 232, 46, 28, 240, 36, 0, 20, 49, 225, 40, 224, 167, 16, 26, 18, 2, 55, 32, 26]","[15147, 15839, 16537, 17402, 18099, 18945, 19616, 20353, 21109, 21875, 22604, 23311, 24072, 24822, 25574, 26332, 27029, 27763, 28490, 29225, 29945, 30649, 31395, 32113, 32832, 33572, 34197, 35057, 35721, 36384]",,79,EM,L,R,ITMSR,1.1,
2,500,practice,0,0,0,0,practice,"['S', 'S', 'S', 'S', 'S', 'S', 'C', 'C', 'C', 'C', 'C', 'C', 'C', 'C', 'C', 'C', 'C', 'C', 'C', 'C', 'C', 'C']","[122628, 122944, 123915, 124376, 124904, 125378, 125868, 126373, 126850, 127348, 127808, 128272, 128759, 129239, 129753, 130201, 130688, 131161, 131609, 132101, 132537, 133020]","[122717, 123044, 124006, 124484, 125014, 125503, 125995, 126487, 126952, 127447, 127940, 128394, 128850, 129336, 129829, 130291, 130779, 131255, 131706, 132188, 132647, 133133]","[116, 31, 194, 40, 232, 195, 6, 3, 230, 234, 220, 246, 44, 254, 207, 206, 144, 61, 120, 97, 103, 156]","[122681, 123011, 123921, 124380, 124908, 125383, 125873, 126377, 126854, 127353, 127813, 128277, 128763, 129243, 129758, 130206, 130694, 131167, 131615, 132108, 132590, 133026]","[121891, 122391, 122891, 123392, 123891, 124391, 124891, 125391, 125888, 126393, 126870, 127368, 127828, 128292, 128779, 129259, 129773, 130221, 130708, 131181, 131629, 132121, 132557, 133040]",79,EM,L,R,ITMSR,1.1,
0,500,practice,0,1,1,1,practice,"['S', 'S', 'S', 'S', 'S', 'S', 'C', 'C', 'C', 'C', 'C', 'C', 'C', 'C', 'C', 'C', 'C', 'C', 'C', 'C', 'C', 'C']","[139594, 140056, 140564, 141068, 141574, 142095, 142613, 143124, 143627, 144123, 144595, 145086, 145560, 146071, 146524, 146981, 147512, 147985, 148488, 148980, 149405, 149924]","[139681, 140141, 140639, 141175, 141677, 142196, 142704, 143227, 143719, 144208, 144679, 145177, 145648, 146156, 146626, 147083, 147622, 148105, 148582, 149065, 149565, 150030]","[159, 180, 227, 251, 28, 246, 189, 176, 134, 3, 109, 84, 58, 65, 114, 90, 183, 36, 196, 23, 185, 208]","[139639, 140093, 140573, 141132, 141639, 142133, 142649, 143184, 143665, 144130, 144633, 145123, 145597, 146079, 146586, 147022, 147548, 148045, 148545, 149015, 149508, 149983]","[138626, 139126, 139626, 140126, 140626, 141126, 141626, 142126, 142633, 143144, 143647, 144143, 144615, 145106, 145581, 146092, 146544, 147001, 147532, 148005, 148508, 149000, 149425, 149944]",79,EM,L,R,ITMSR,1.1,
3,500,practice,0,2,2,2,practice,"['S', 'S', 'S', 'S', 'S', 'S', 'S', 'C', 'C', 'C', 'C', 'C', 'C', 'C', 'C', 'C', 'C', 'C', 'C', 'C', 'C', 'C', 'C']","[155974, 156437, 156918, 157423, 157887, 158385, 158866, 159350, 159808, 160262, 160738, 161202, 161714, 162186, 162661, 163158, 163635, 164118, 164585, 165092, 165565, 166026, 166525]","[156077, 156536, 157022, 157509, 157981, 158475, 158960, 159465, 159926, 160366, 160835, 161328, 161816, 162306, 162780, 163261, 163752, 164235, 164707, 165211, 165681, 166152, 166629]","[87, 32, 18, 210, 176, 196, 141, 185, 226, 227, 219, 232, 214, 211, 231, 215, 194, 152, 176, 216, 212, 12, 105]","[155980, 156480, 156984, 157469, 157924, 158428, 158899, 159408, 159861, 160316, 160778, 161267, 161751, 162251, 162731, 163204, 163695, 164167, 164648, 165151, 165627, 166095, 166572]","[155494, 155994, 156494, 156994, 157494, 157995, 158494, 158994, 159370, 159828, 160282, 160758, 161222, 161734, 162206, 162681, 163178, 163655, 164139, 164605, 165112, 165585, 166046, 166545]",79,EM,L,R,ITMSR,1.1,
1,500,practice,0,3,3,3,practice,"['S', 'S', 'S', 'S', 'S', 'S', 'S', 'S', 'C', 'C', 'C', 'C', 'C', 'C', 'C', 'C', 'C', 'C', 'C', 'C', 'C', 'C', 'C', 'C']","[172124, 172451, 172888, 173351, 173869, 174402, 174839, 175361, 175841, 176352, 176838, 177311, 177807, 178274, 178771, 179202, 179755, 180221, 180739, 181202, 181737, 182191, 182667, 183158]","[172215, 172532, 172964, 173450, 173958, 174488, 174926, 175449, 175945, 176455, 176956, 177421, 177929, 178378, 178844, 179291, 179838, 180346, 180836, 181304, 181814, 182318, 182797, 183279]","[88, 167, 93, 156, 156, 136, 125, 103, 141, 120, 159, 144, 184, 111, 21, 10, 109, 153, 78, 163, 86, 176, 193, 190]","[172163, 172460, 172922, 173415, 173903, 174437, 174875, 175397, 175905, 176415, 176903, 177380, 177881, 178336, 178807, 179236, 179802, 180307, 180792, 181255, 181778, 182278, 182726, 183227]","[171947, 172445, 172945, 173445, 173945, 174445, 174945, 175446, 175861, 176372, 176858, 177331, 177827, 178294, 178791, 179222, 179775, 180241, 180759, 181222, 181757, 182211, 182687, 183178]",79,EM,L,R,ITMSR,1.1,
5,500,practice,0,4,4,4,practice,"['S', 'S', 'S', 'S', 'S', 'S', 'S', 'S', 'C', 'C', 'C', 'C', 'C', 'C', 'C', 'C', 'C', 'C', 'C', 'C', 'C', 'C', 'C', 'C']","[189122, 189470, 189908, 190376, 190883, 191370, 191842, 192336, 192837, 193289, 193803, 194275, 194751, 195247, 195642, 196116, 196590, 197066, 197542, 198070, 198507, 199006, 199465, 199974]","[189207, 189557, 189991, 190457, 190968, 191450, 191935, 192421, 192916, 193386, 193897, 194358, 194803, 195269, 195737, 196191, 196662, 197124, 197633, 198147, 198605, 199105, 199575, 200045]","[250, 171, 106, 103, 169, 110, 210, 117, 119, 178, 21, 112, 11, 150, 157, 232, 87, 38, 116, 247, 58, 58, 161, 19]","[189157, 189477, 189945, 190411, 190915, 191405, 191879, 192384, 192870, 193324, 193840, 194309, 194766, 195254, 195699, 196150, 196626, 197098, 197599, 198104, 198557, 199038, 199522, 200007]","[188921, 189421, 189921, 190422, 190921, 191421, 191921, 192421, 192857, 193309, 193823, 194295, 194771, 195267, 195662, 196136, 196610, 197086, 197562, 198090, 198528, 199026, 199485, 199994]",79,EM,L,R,ITMSR,1.1,
4,500,practice,0,5,5,5,practice,"['S', 'S', 'S', 'S', 'S', 'S', 'S', 'S', 'C', 'C', 'C', 'C', 'C', 'C', 'C', 'C', 'C', 'C', 'C', 'C', 'C', 'C', 'C', 'C']","[205848, 206212, 206604, 207091, 207579, 208105, 208591, 209097, 209563, 210052, 210524, 211034, 211484, 211999, 212465, 212954, 213400, 213885, 214338, 214777, 215268, 215752, 216244, 216675]","[205924, 206286, 206692, 207168, 207671, 208192, 208675, 209175, 209654, 210180, 210617, 211121, 211600, 212077, 212579, 213045, 213509, 213976, 214430, 214861, 215342, 215842, 216311, 216766]","[151, 4, 142, 231, 106, 23, 118, 66, 255, 147, 60, 59, 66, 46, 35, 218, 76, 86, 191, 63, 137, 174, 242, 178]","[205854, 206218, 206609, 207097, 207584, 208158, 208598, 209104, 209570, 210114, 210531, 211039, 211553, 212005, 212529, 213013, 213405, 213890, 214394, 214782, 215304, 215788, 216251, 216732]","[205656, 206156, 206656, 207156, 207656, 208156, 208656, 209156, 209583, 210072, 210544, 211054, 211504, 212019, 212485, 212974, 213421, 213905, 214359, 214797, 215288, 215772, 216264, 216695]",79,EM,L,R,ITMSR,1.1,
4,400,trial,0,6,6,6,trial,"['S', 'S', 'S', 'S', 'S', 'S', 'S', 'C', 'C', 'C', 'C', 'C', 'C', 'C', 'C', 'C', 'C', 'C', 'C', 'C', 'C', 'C', 'C']","[277813, 278241, 278558, 278951, 279333, 279739, 280125, 280545, 280891, 281267, 281636, 282014, 282364, 282716, 283102, 283462, 283810, 284173, 284522, 284861, 285198, 285557, 285911]","[277898, 278306, 278629, 279018, 279397, 279798, 280197, 280596, 280966, 281336, 281717, 282084, 282425, 282793, 283171, 283531, 283888, 284242, 284595, 284932, 285279, 285631, 285986]","[46, 105, 163, 213, 125, 83, 54, 21, 54, 72, 116, 24, 201, 194, 231, 194, 197, 190, 241, 173, 70, 168, 217]","[277818, 278245, 278563, 278957, 279340, 279745, 280131, 280551, 280898, 281273, 281643, 282020, 282372, 282723, 283109, 283469, 283817, 284181, 284529, 284867, 285207, 285563, 285918]","[277405, 277805, 278205, 278605, 279005, 279405, 279805, 280205, 280565, 280911, 281287, 281656, 282034, 282384, 282736, 283122, 283482, 283830, 284193, 284542, 284881, 285218, 285577, 285931]",79,EM,L,R,ITMSR,1.1,
3,400,trial,0,7,7,7,trial,"['S', 'S', 'S', 'S', 'S', 'S', 'S', 'S', 'C', 'C', 'C', 'C', 'C', 'C', 'C', 'C', 'C', 'C', 'C', 'C', 'C', 'C', 'C', 'C']","[291609, 291859, 292192, 292546, 292946, 293336, 293729, 294107, 294510, 294877, 295227, 295621, 295969, 296363, 296690, 297067, 297424, 297778, 298139, 298511, 298856, 299235, 299556, 299908]","[291684, 291942, 292260, 292620, 293019, 293409, 293794, 294170, 294582, 294946, 295290, 295692, 296053, 296439, 296771, 297144, 297505, 297846, 298209, 298583, 298940, 299311, 299638, 299981]","[2, 216, 120, 253, 58, 234, 225, 182, 129, 172, 215, 223, 131, 149, 151, 186, 118, 121, 150, 144, 142, 165, 158, 151]","[291613, 291864, 292198, 292551, 292953, 293343, 293735, 294112, 294517, 294884, 295234, 295628, 296008, 296369, 296697, 297074, 297431, 297785, 298143, 298517, 298861, 299271, 299564, 299942]","[291419, 291819, 292219, 292619, 293019, 293420, 293819, 294219, 294530, 294897, 295247, 295641, 295989, 296383, 296710, 297088, 297444, 297798, 298159, 298531, 298876, 299255, 299576, 299928]",79,EM,L,R,ITMSR,1.1,
1,400,trial,0,8,8,8,trial,"['S', 'S', 'S', 'S', 'S', 'S', 'S', 'C', 'C', 'C', 'C', 'C', 'C', 'C', 'C', 'C', 'C', 'C', 'C', 'C', 'C', 'C', 'C']","[305696, 306166, 306601, 307019, 307405, 307807, 308195, 308587, 308999, 309381, 309775, 310153, 310531, 310929, 311265, 311682, 312074, 312445, 312834, 313212, 313559, 313936, 314322]","[305761, 306239, 306675, 307076, 307466, 307862, 308264, 308655, 309051, 309445, 309843, 310227, 310599, 310996, 311360, 311752, 312144, 312537, 312919, 313289, 313651, 314021, 314408]","[75, 97, 255, 193, 192, 153, 135, 178, 122, 157, 175, 179, 107, 136, 80, 245, 85, 93, 78, 106, 200, 154, 158]","[305702, 306171, 306608, 307025, 307411, 307813, 308202, 308591, 309004, 309386, 309781, 310159, 310536, 310934, 311271, 311687, 312079, 312492, 312882, 313218, 313603, 313968, 314356]","[305469, 305869, 306269, 306669, 307069, 307469, 307869, 308269, 308608, 309019, 309401, 309795, 310173, 310551, 310949, 311285, 311702, 312094, 312465, 312854, 313232, 313579, 313956, 314342]",79,EM,L,R,ITMSR,1.1,
0,400,trial,0,9,9,9,trial,"['S', 'S', 'S', 'S', 'S', 'S', 'S', 'S', 'C', 'C', 'C', 'C', 'C', 'C', 'C', 'C', 'C', 'C', 'C', 'C', 'C', 'C', 'C', 'C']","[320138, 320409, 320771, 321153, 321569, 321933, 322338, 322739, 323135, 323532, 323951, 324329, 324730, 325115, 325506, 325861, 326255, 326662, 327046, 327457, 327801, 328221, 328601, 328958]","[320219, 320496, 320835, 321214, 321626, 322014, 322408, 322810, 323212, 323606, 324031, 324412, 324813, 325209, 325582, 325953, 326353, 326762, 327156, 327559, 327913, 328315, 328712, 329083]","[46, 162, 42, 120, 10, 190, 51, 66, 106, 79, 104, 72, 251, 35, 19, 62, 52, 82, 171, 156, 92, 100, 114, 85]","[320181, 320443, 320776, 321159, 321575, 321971, 322345, 322745, 323141, 323538, 323956, 324335, 324738, 325166, 325513, 325867, 326294, 326668, 327052, 327463, 327858, 328226, 328656, 329019]","[319993, 320393, 320793, 321193, 321593, 321993, 322393, 322793, 323155, 323552, 323971, 324349, 324750, 325135, 325526, 325881, 326275, 326682, 327066, 327477, 327821, 328241, 328621, 328978]",79,EM,L,R,ITMSR,1.1,
1,400,trial,0,10,10,10,trial,"['S', 'S', 'S', 'S', 'S', 'S', 'S', 'S', 'C', 'C', 'C', 'C', 'C', 'C', 'C', 'C', 'C', 'C', 'C', 'C', 'C', 'C', 'C', 'C']","[334900, 335151, 335463, 335849, 336224, 336625, 337028, 337428, 337851, 338228, 338621, 338970, 339366, 339742, 340162, 340540, 340918, 341294, 341660, 342017, 342405, 342777, 343155, 343522]","[334978, 335233, 335537, 335909, 336288, 336700, 337108, 337500, 337920, 338296, 338697, 339072, 339440, 339828, 340242, 340642, 341002, 341377, 341753, 342108, 342484, 342873, 343245, 343651]","[181, 232, 147, 68, 12, 67, 139, 131, 137, 156, 109, 64, 82, 53, 75, 54, 227, 249, 205, 198, 174, 243, 93, 134]","[334932, 335188, 335468, 335855, 336230, 336631, 337033, 337433, 337857, 338233, 338627, 338975, 339372, 339747, 340167, 340597, 340957, 341331, 341699, 342054, 342440, 342816, 343190, 343581]","[334713, 335113, 335513, 335913, 336313, 336713, 337113, 337513, 337871, 338248, 338641, 338990, 339386, 339762, 340183, 340560, 340938, 341314, 341680, 342037, 342425, 342797, 343175, 343542]",79,EM,L,R,ITMSR,1.1,
3,400,trial,0,11,11,11,trial,"['S', 'S', 'S', 'S', 'S', 'S', 'S', 'C', 'C', 'C', 'C', 'C', 'C', 'C', 'C', 'C', 'C', 'C', 'C', 'C', 'C', 'C', 'C']","[349310, 349769, 350176, 350599, 350993, 351384, 351813, 352208, 352564, 352935, 353314, 353696, 354064, 354444, 354798, 355225, 355563, 355940, 356311, 356663, 357009, 357399, 357761]","[349386, 349836, 350251, 350661, 351074, 351467, 351880, 352284, 352646, 353021, 353396, 353782, 354143, 354525, 354893, 355293, 355654, 356031, 356413, 356767, 357109, 357490, 357884]","[161, 192, 230, 173, 162, 209, 242, 72, 37, 214, 230, 227, 239, 190, 176, 80, 114, 129, 206, 198, 245, 239, 55]","[349319, 349776, 350183, 350606, 351000, 351391, 351820, 352215, 352570, 352972, 353320, 353731, 354070, 354451, 354855, 355233, 355599, 355975, 356369, 356705, 357068, 357444, 357829]","[349128, 349528, 349928, 350328, 350728, 351128, 351528, 351928, 352228, 352584, 352955, 353334, 353716, 354084, 354464, 354818, 355245, 355584, 355960, 356331, 356683, 357029, 357420, 357781]",79,EM,L,R,ITMSR,1.1,
1,600,trial,0,12,12,12,trial,"['S', 'S', 'S', 'S', 'S', 'S', 'S', 'S', 'C', 'C', 'C', 'C', 'C', 'C', 'C', 'C', 'C', 'C', 'C', 'C', 'C', 'C', 'C', 'C']","[363676, 363930, 364712, 365297, 365905, 366534, 367085, 367663, 368208, 368784, 369387, 369946, 370578, 371181, 371750, 372324, 372901, 373556, 374095, 374660, 375254, 375811, 376358, 376910]","[363758, 364019, 364794, 365380, 365983, 366609, 367188, 367753, 368327, 368905, 369490, 370078, 370698, 371290, 371889, 372463, 373035, 373669, 374241, 374800, 375376, 375937, 376503, 377016]","[215, 253, 126, 127, 99, 44, 127, 125, 39, 253, 187, 234, 243, 94, 180, 15, 252, 218, 205, 252, 205, 212, 26, 224]","[363714, 363972, 364769, 365336, 365942, 366568, 367143, 367717, 368271, 368849, 369441, 370025, 370642, 371229, 371829, 372404, 372971, 373615, 374187, 374738, 375315, 375873, 376449, 376968]","[363550, 364150, 364750, 365350, 365950, 366551, 367150, 367750, 368228, 368804, 369408, 369966, 370598, 371202, 371770, 372344, 372921, 373576, 374115, 374680, 375274, 375831, 376378, 376930]",79,EM,L,R,ITMSR,1.1,
5,400,trial,0,13,13,13,trial,"['S', 'S', 'S', 'S', 'S', 'S', 'C', 'C', 'C', 'C', 'C', 'C', 'C', 'C', 'C', 'C', 'C', 'C', 'C', 'C', 'C', 'C']","[382544, 383447, 383837, 384189, 384591, 384992, 385424, 385789, 386154, 386549, 386905, 387333, 387674, 388065, 388450, 388807, 389179, 389540, 389911, 390265, 390645, 391002]","[382576, 383525, 383904, 384264, 384661, 385060, 385500, 385861, 386243, 386617, 387008, 387402, 387774, 388163, 388530, 388898, 389266, 389628, 389996, 390343, 390728, 391098]","[120, 237, 208, 175, 190, 166, 61, 211, 184, 132, 161, 161, 175, 242, 195, 144, 134, 216, 163, 176, 115, 237]","[382548, 383486, 383844, 384195, 384598, 384998, 385430, 385798, 386193, 386553, 386913, 387339, 387732, 388118, 388480, 388841, 389216, 389575, 389945, 390298, 390680, 391040]","[382311, 382711, 383111, 383511, 383911, 384311, 384711, 385112, 385444, 385809, 386174, 386569, 386925, 387353, 387694, 388085, 388470, 388827, 389199, 389560, 389932, 390285, 390665, 391022]",79,EM,L,R,ITMSR,1.1,
2,400,trial,0,14,14,14,trial,"['S', 'S', 'S', 'S', 'S', 'S', 'S', 'S', 'C', 'C', 'C', 'C', 'C', 'C', 'C', 'C', 'C', 'C', 'C', 'C', 'C', 'C', 'C', 'C']","[396985, 397229, 397511, 397878, 398295, 398664, 399052, 399449, 399872, 400234, 400605, 400976, 401342, 401722, 402073, 402448, 402827, 403208, 403572, 403955, 404338, 404684, 405046, 405435]","[397005, 397297, 397584, 397957, 398373, 398743, 399145, 399555, 399959, 400325, 400694, 401080, 401446, 401809, 402164, 402539, 402921, 403300, 403690, 404049, 404414, 404792, 405151, 405561]","[152, 60, 112, 89, 87, 76, 88, 174, 104, 136, 143, 155, 157, 129, 129, 139, 133, 138, 101, 150, 96, 157, 144, 223]","[396988, 397261, 397545, 397916, 398333, 398702, 399112, 399509, 399908, 400271, 400641, 401033, 401400, 401755, 402111, 402482, 402869, 403245, 403652, 403996, 404374, 404746, 405105, 405497]","[396738, 397137, 397537, 397937, 398338, 398738, 399138, 399538, 399892, 400254, 400625, 400996, 401362, 401742, 402093, 402468, 402847, 403228, 403592, 403975, 404358, 404704, 405066, 405455]",79,EM,L,R,ITMSR,1.1,
5,600,trial,0,15,15,15,trial,"['S', 'S', 'S', 'S', 'S', 'S', 'S', 'C', 'C', 'C', 'C', 'C', 'C', 'C', 'C', 'C', 'C', 'C', 'C', 'C', 'C', 'C', 'C']","[411129, 412023, 412651, 413233, 413834, 414425, 414995, 415571, 416199, 416798, 417390, 417958, 418542, 419086, 419699, 420268, 420861, 421421, 422026, 422606, 423154, 423704, 424271]","[411212, 412118, 412725, 413319, 413929, 414507, 415077, 415688, 416289, 416880, 417476, 418058, 418636, 419202, 419786, 420376, 420969, 421552, 422128, 422720, 423284, 423819, 424379]","[192, 152, 98, 138, 166, 171, 173, 161, 170, 134, 162, 161, 113, 156, 92, 134, 129, 169, 178, 132, 235, 203, 231]","[411163, 412059, 412691, 413270, 413887, 414459, 415035, 415651, 416248, 416837, 417445, 418017, 418597, 419150, 419744, 420328, 420935, 421495, 422084, 422675, 423229, 423773, 424329]","[410898, 411498, 412098, 412698, 413298, 413898, 414498, 415098, 415591, 416219, 416818, 417410, 417978, 418562, 419106, 419719, 420288, 420881, 421441, 422046, 422626, 423174, 423725, 424291]",79,EM,L,R,ITMSR,1.1,
0,400,trial,0,16,16,16,trial,"['S', 'S', 'S', 'S', 'S', 'S', 'S', 'C', 'C', 'C', 'C', 'C', 'C', 'C', 'C', 'C', 'C', 'C', 'C', 'C', 'C', 'C', 'C']","[430159, 430521, 430987, 431380, 431794, 432218, 432603, 433011, 433416, 433780, 434137, 434521, 434874, 435271, 435673, 436069, 436415, 436799, 437184, 437585, 437940, 438301, 438679]","[430203, 430621, 431053, 431461, 431874, 432303, 432685, 433082, 433472, 433871, 434217, 434588, 434960, 435347, 435762, 436147, 436508, 436894, 437293, 437667, 438029, 438395, 438779]","[178, 106, 62, 172, 182, 212, 251, 184, 249, 123, 153, 57, 198, 182, 238, 159, 187, 226, 218, 189, 192, 200, 68]","[430191, 430585, 431021, 431413, 431831, 432269, 432653, 433041, 433443, 433814, 434171, 434551, 434930, 435304, 435730, 436104, 436465, 436856, 437248, 437623, 437977, 438334, 438737]","[429911, 430309, 430709, 431109, 431509, 431909, 432309, 432709, 433031, 433436, 433800, 434157, 434541, 434894, 435291, 435693, 436089, 436435, 436819, 437204, 437605, 437960, 438321, 438700]",79,EM,L,R,ITMSR,1.1,
5,400,trial,0,17,17,17,trial,"['S', 'S', 'S', 'S', 'S', 'S', 'C', 'C', 'C', 'C', 'C', 'C', 'C', 'C', 'C', 'C', 'C', 'C', 'C', 'C', 'C', 'C']","[445007, 445368, 445742, 446104, 446544, 446889, 447315, 447710, 448068, 448456, 448817, 449174, 449554, 449940, 450317, 450627, 451049, 451363, 451755, 452103, 452462, 452854]","[445027, 445446, 445811, 446193, 446610, 446969, 447409, 447783, 448153, 448527, 448904, 449270, 449627, 450019, 450406, 450723, 451105, 451461, 451825, 452199, 452566, 452971]","[156, 128, 195, 188, 16, 196, 248, 53, 104, 52, 77, 218, 22, 151, 105, 236, 253, 89, 233, 191, 69, 44]","[445011, 445406, 445774, 446138, 446576, 446921, 447369, 447742, 448107, 448491, 448868, 449209, 449589, 449973, 450369, 450679, 451055, 451411, 451784, 452137, 452509, 452916]","[444223, 444622, 445022, 445422, 445822, 446222, 446622, 447022, 447335, 447730, 448088, 448476, 448837, 449195, 449574, 449960, 450337, 450648, 451069, 451383, 451775, 452123, 452482, 452874]",79,EM,L,R,ITMSR,1.1,
1,600,trial,0,18,18,18,trial,"['S', 'S', 'S', 'S', 'S', 'S', 'C', 'C', 'C', 'C', 'C', 'C', 'C', 'C', 'C', 'C', 'C', 'C', 'C', 'C', 'C', 'C']","[459613, 460232, 460793, 461386, 462009, 462541, 463182, 463787, 464404, 465000, 465531, 466178, 466714, 467314, 467914, 468535, 469139, 469728, 470296, 470859, 471397, 471975]","[459687, 460302, 460879, 461488, 462118, 462667, 463301, 463915, 464523, 465115, 465693, 466295, 466859, 467450, 468033, 468645, 469245, 469859, 470428, 470993, 471552, 472123]","[157, 158, 190, 41, 85, 65, 100, 88, 70, 19, 253, 48, 69, 69, 35, 20, 45, 38, 66, 76, 85, 174]","[459651, 460267, 460829, 461424, 462053, 462604, 463240, 463846, 464470, 465058, 465641, 466236, 466797, 467396, 467978, 468591, 469195, 469808, 470376, 470935, 471493, 472062]","[458471, 459071, 459671, 460271, 460871, 461471, 462071, 462671, 463202, 463807, 464424, 465020, 465551, 466198, 466734, 467334, 467934, 468555, 469159, 469748, 470317, 470879, 471417, 471995]",79,EM,L,R,ITMSR,1.1,
3,600,trial,0,19,19,19,trial,"['S', 'S', 'S', 'S', 'S', 'S', 'S', 'C', 'C', 'C', 'C', 'C', 'C', 'C', 'C', 'C', 'C', 'C', 'C', 'C', 'C', 'C', 'C']","[477956, 478446, 479033, 479643, 480247, 480838, 481432, 482034, 482668, 483263, 483825, 484383, 485019, 485555, 486153, 486680, 487280, 487845, 488363, 488947, 489519, 490050, 490628]","[478034, 478522, 479134, 479720, 480336, 480908, 481525, 482137, 482761, 483367, 483952, 484533, 485130, 485692, 486270, 486806, 487383, 487972, 488512, 489075, 489648, 490208, 490824]","[241, 127, 153, 44, 108, 142, 166, 175, 175, 177, 196, 200, 211, 247, 216, 174, 152, 222, 219, 229, 234, 16, 124]","[478007, 478483, 479093, 479684, 480286, 480874, 481471, 482080, 482719, 483311, 483899, 484480, 485080, 485625, 486209, 486756, 487327, 487920, 488439, 489012, 489590, 490133, 490746]","[477305, 477905, 478505, 479106, 479706, 480306, 480906, 481506, 482054, 482689, 483283, 483845, 484403, 485039, 485575, 486173, 486701, 487300, 487865, 488383, 488967, 489539, 490071, 490648]",79,EM,L,R,ITMSR,1.1,
5,600,trial,0,20,20,20,trial,"['S', 'S', 'S', 'S', 'S', 'S', 'C', 'C', 'C', 'C', 'C', 'C', 'C', 'C', 'C', 'C', 'C', 'C', 'C', 'C', 'C', 'C']","[497438, 498001, 498642, 499238, 499789, 500358, 500986, 501586, 502219, 502795, 503362, 503941, 504509, 505079, 505630, 506292, 506818, 507360, 507907, 508403, 508985, 509502]","[497487, 498093, 498733, 499335, 499885, 500464, 501101, 501700, 502315, 502895, 503488, 504075, 504676, 505237, 505792, 506412, 506973, 507537, 508063, 508560, 509135, 509678]","[223, 3, 81, 140, 74, 213, 3, 226, 112, 152, 22, 35, 50, 74, 47, 223, 60, 87, 76, 66, 100, 165]","[497442, 498065, 498696, 499293, 499841, 500411, 501047, 501644, 502277, 502841, 503431, 504013, 504611, 505174, 505736, 506372, 506909, 507464, 508000, 508499, 509067, 509606]","[496269, 496868, 497468, 498068, 498668, 499268, 499868, 500468, 501006, 501606, 502239, 502815, 503383, 503961, 504529, 505099, 505650, 506312, 506839, 507380, 507927, 508423, 509005, 509522]",79,EM,L,R,ITMSR,1.1,
0,600,trial,0,21,21,21,trial,"['S', 'S', 'S', 'S', 'S', 'S', 'S', 'C', 'C', 'C', 'C', 'C', 'C', 'C', 'C', 'C', 'C', 'C', 'C', 'C', 'C', 'C', 'C']","[515593, 516153, 516767, 517342, 517943, 518558, 519134, 519785, 520340, 520930, 521503, 522066, 522615, 523156, 523760, 524359, 524909, 525446, 526010, 526543, 527090, 527629, 528190]","[515637, 516234, 516854, 517478, 518056, 518664, 519237, 519887, 520455, 521049, 521603, 522166, 522729, 523272, 523851, 524447, 525009, 525556, 526118, 526678, 527230, 527780, 528359]","[180, 84, 30, 246, 21, 41, 229, 28, 145, 157, 118, 113, 172, 162, 132, 217, 229, 141, 219, 6, 6, 21, 66]","[515623, 516207, 516822, 517429, 517999, 518603, 519188, 519836, 520400, 520993, 521543, 522123, 522677, 523213, 523816, 524403, 524963, 525517, 526075, 526619, 527177, 527721, 528294]","[515037, 515637, 516237, 516837, 517437, 518037, 518637, 519237, 519805, 520360, 520950, 521523, 522086, 522635, 523176, 523780, 524379, 524930, 525466, 526030, 526563, 527110, 527649, 528210]",79,EM,L,R,ITMSR,1.1,
4,600,trial,0,22,22,22,trial,"['S', 'S', 'S', 'S', 'S', 'S', 'S', 'C', 'C', 'C', 'C', 'C', 'C', 'C', 'C', 'C', 'C', 'C', 'C', 'C', 'C', 'C', 'C']","[534075, 534729, 535359, 535976, 536619, 537147, 537701, 538334, 538895, 539495, 540109, 540627, 541231, 541723, 542288, 542866, 543423, 544003, 544548, 545128, 545683, 546202, 546776]","[534170, 534834, 535482, 536082, 536693, 537272, 537832, 538439, 539010, 539586, 540192, 540734, 541319, 541854, 542413, 542999, 543552, 544122, 544673, 545246, 545788, 546344, 546905]","[115, 123, 198, 163, 227, 175, 183, 204, 173, 48, 22, 74, 46, 179, 173, 208, 193, 185, 173, 215, 104, 235, 85]","[534134, 534795, 535433, 536034, 536653, 537225, 537782, 538397, 538952, 539548, 540157, 540690, 541275, 541804, 542350, 542948, 543508, 544070, 544615, 545200, 545739, 546293, 546855]","[533646, 534246, 534846, 535446, 536046, 536646, 537246, 537846, 538354, 538915, 539515, 540129, 540647, 541251, 541743, 542308, 542886, 543443, 544023, 544568, 545148, 545703, 546222, 546796]",79,EM,L,R,ITMSR,1.1,
4,600,trial,0,23,23,23,trial,"['S', 'S', 'S', 'S', 'S', 'S', 'S', 'S', 'C', 'C', 'C', 'C', 'C', 'C', 'C', 'C', 'C', 'C', 'C', 'C', 'C', 'C', 'C', 'C']","[552814, 553188, 553673, 554302, 554871, 555449, 556023, 556614, 557259, 557838, 558412, 559002, 559618, 560152, 560741, 561291, 561842, 562473, 563078, 563628, 564179, 564737, 565310, 565863]","[552834, 553260, 553778, 554371, 554992, 555566, 556165, 556728, 557342, 557931, 558514, 559073, 559685, 560221, 560814, 561401, 561988, 562564, 563158, 563732, 564307, 564878, 565422, 566007]","[120, 200, 91, 188, 102, 102, 107, 7, 63, 239, 203, 238, 103, 131, 52, 197, 239, 139, 36, 164, 177, 204, 209, 71]","[552823, 553220, 553736, 554331, 554943, 555511, 556116, 556693, 557313, 557892, 558481, 559041, 559626, 560186, 560783, 561358, 561935, 562524, 563123, 563680, 564262, 564811, 565370, 565954]","[552578, 553178, 553778, 554378, 554978, 555578, 556178, 556778, 557279, 557858, 558432, 559022, 559638, 560173, 560761, 561311, 561862, 562493, 563098, 563648, 564199, 564757, 565330, 565883]",79,EM,L,R,ITMSR,1.1,
3,600,trial,0,24,24,24,trial,"['S', 'S', 'S', 'S', 'S', 'S', 'S', 'C', 'C', 'C', 'C', 'C', 'C', 'C', 'C', 'C', 'C', 'C', 'C', 'C', 'C', 'C', 'C']","[571876, 572564, 573194, 573825, 574353, 574900, 575513, 576124, 576727, 577362, 577923, 578509, 579076, 579633, 580233, 580819, 581405, 581948, 582580, 583150, 583674, 584246, 584804]","[572002, 572627, 573286, 573857, 574451, 575004, 575620, 576234, 576822, 577430, 578044, 578624, 579197, 579759, 580336, 580940, 581508, 582093, 582695, 583275, 583838, 584389, 584979]","[129, 81, 17, 210, 186, 221, 184, 98, 243, 133, 28, 255, 214, 3, 221, 205, 191, 249, 0, 247, 74, 53, 120]","[571914, 572597, 573235, 573840, 574404, 574949, 575571, 576177, 576778, 577390, 577995, 578562, 579137, 579701, 580270, 580880, 581451, 582031, 582630, 583211, 583767, 584324, 584904]","[571415, 572015, 572615, 573215, 573815, 574415, 575015, 575616, 576144, 576747, 577382, 577943, 578529, 579096, 579653, 580253, 580839, 581425, 581968, 582600, 583170, 583694, 584266, 584824]",79,EM,L,R,ITMSR,1.1,
2,600,trial,0,25,25,25,trial,"['S', 'S', 'S', 'S', 'S', 'S', 'S', 'S', 'C', 'C', 'C', 'C', 'C', 'C', 'C', 'C', 'C', 'C', 'C', 'C', 'C', 'C', 'C', 'C']","[590568, 590967, 591515, 592093, 592738, 593288, 593839, 594463, 595093, 595684, 596238, 596757, 597309, 597891, 598450, 598948, 599526, 600071, 600594, 601099, 601678, 602232, 602781, 603295]","[590665, 591005, 591594, 592186, 592783, 593368, 593940, 594565, 595187, 595757, 596335, 596875, 597423, 598007, 598559, 599093, 599655, 600195, 600709, 601238, 601793, 602329, 602873, 603433]","[246, 189, 55, 68, 188, 130, 127, 172, 131, 66, 172, 70, 201, 209, 201, 39, 228, 216, 209, 138, 33, 185, 106, 40]","[590624, 590983, 591548, 592151, 592773, 593331, 593898, 594521, 595151, 595720, 596296, 596802, 597368, 597953, 598518, 599030, 599598, 600151, 600650, 601181, 601739, 602284, 602826, 603379]","[590381, 590979, 591579, 592179, 592779, 593379, 593979, 594579, 595113, 595704, 596258, 596777, 597329, 597911, 598470, 598968, 599546, 600091, 600614, 601119, 601698, 602252, 602801, 603315]",79,EM,L,R,ITMSR,1.1,
0,600,trial,0,26,26,26,trial,"['S', 'S', 'S', 'S', 'S', 'S', 'S', 'C', 'C', 'C', 'C', 'C', 'C', 'C', 'C', 'C', 'C', 'C', 'C', 'C', 'C', 'C', 'C']","[609163, 609931, 610563, 611116, 611710, 612347, 612909, 613534, 614157, 614769, 615361, 615833, 616383, 616943, 617479, 618054, 618663, 619230, 619819, 620375, 620921, 621474, 622043]","[609310, 610044, 610653, 611220, 611824, 612443, 613027, 613634, 614264, 614856, 615450, 615982, 616534, 617092, 617623, 618174, 618798, 619361, 619952, 620530, 621063, 621611, 622171]","[99, 241, 175, 235, 19, 162, 210, 198, 184, 164, 136, 232, 59, 87, 78, 62, 85, 38, 90, 89, 83, 33, 74]","[609212, 610001, 610597, 611170, 611769, 612397, 612984, 613587, 614213, 614816, 615411, 615931, 616468, 617028, 617582, 618110, 618724, 619301, 619891, 620469, 621001, 621564, 622102]","[608784, 609384, 609984, 610584, 611184, 611784, 612384, 612984, 613554, 614177, 614789, 615382, 615853, 616403, 616963, 617499, 618074, 618683, 619250, 619839, 620395, 620941, 621494, 622063]",79,EM,L,R,ITMSR,1.1,
2,600,trial,0,27,27,27,trial,"['S', 'S', 'S', 'S', 'S', 'S', 'S', 'C', 'C', 'C', 'C', 'C', 'C', 'C', 'C', 'C', 'C', 'C', 'C', 'C', 'C', 'C', 'C']","[628113, 628741, 629321, 629925, 630514, 631119, 631719, 632316, 632830, 633389, 633986, 634517, 635111, 635621, 636219, 636771, 637302, 637889, 638442, 638950, 639570, 640065, 640633]","[628211, 628860, 629442, 630022, 630602, 631216, 631820, 632409, 632951, 633497, 634073, 634647, 635218, 635760, 636321, 636857, 637402, 637974, 638537, 639069, 639661, 640199, 640789]","[75, 232, 16, 234, 180, 175, 193, 158, 185, 226, 197, 189, 183, 244, 196, 168, 4, 32, 71, 135, 134, 192, 25]","[628171, 628802, 629387, 629983, 630555, 631156, 631777, 632373, 632895, 633446, 634025, 634578, 635169, 635683, 636275, 636808, 637360, 637920, 638488, 639017, 639620, 640149, 640717]","[627602, 628201, 628801, 629401, 630001, 630601, 631201, 631801, 632336, 632850, 633409, 634006, 634537, 635131, 635641, 636239, 636791, 637322, 637910, 638462, 638970, 639590, 640086, 640653]",79,EM,L,R,ITMSR,1.1,
4,400,trial,0,28,28,28,trial,"['S', 'S', 'S', 'S', 'S', 'S', 'S', 'C', 'C', 'C', 'C', 'C', 'C', 'C', 'C', 'C', 'C', 'C', 'C', 'C', 'C', 'C', 'C']","[646605, 646935, 647269, 647612, 648032, 648415, 648824, 649248, 649611, 649993, 650392, 650736, 651143, 651507, 651886, 652233, 652612, 652972, 653346, 653682, 654053, 654398, 654771]","[646676, 646990, 647336, 647706, 648114, 648488, 648885, 649321, 649696, 650060, 650456, 650803, 651190, 651575, 651960, 652317, 652698, 653046, 653424, 653754, 654134, 654479, 654862]","[76, 55, 165, 191, 152, 123, 49, 124, 126, 129, 25, 66, 69, 157, 91, 109, 20, 127, 93, 109, 118, 129, 151]","[646641, 646964, 647305, 647670, 648069, 648450, 648855, 649285, 649650, 650023, 650427, 650765, 651172, 651545, 651911, 652278, 652653, 652997, 653374, 653714, 654082, 654434, 654824]","[646088, 646488, 646888, 647288, 647688, 648088, 648488, 648888, 649268, 649631, 650013, 650413, 650756, 651163, 651527, 651906, 652253, 652632, 652992, 653366, 653702, 654073, 654418, 654791]",79,EM,L,R,ITMSR,1.1,
2,400,trial,0,29,29,29,trial,"['S', 'S', 'S', 'S', 'S', 'S', 'S', 'C', 'C', 'C', 'C', 'C', 'C', 'C', 'C', 'C', 'C', 'C', 'C', 'C', 'C', 'C', 'C']","[661060, 661341, 661677, 662051, 662455, 662860, 663229, 663667, 664022, 664402, 664787, 665159, 665476, 665859, 666222, 666547, 666905, 667273, 667626, 667998, 668322, 668661, 669052]","[661103, 661409, 661743, 662135, 662549, 662935, 663320, 663755, 664096, 664469, 664858, 665237, 665570, 665929, 666291, 666639, 666979, 667358, 667711, 668087, 668424, 668756, 669132]","[54, 67, 62, 218, 128, 115, 148, 111, 64, 132, 59, 141, 115, 136, 136, 121, 89, 116, 112, 128, 195, 115, 122]","[661068, 661345, 661710, 662089, 662512, 662898, 663286, 663700, 664052, 664411, 664819, 665194, 665527, 665883, 666258, 666582, 666938, 667300, 667655, 668025, 668378, 668691, 669079]","[660539, 660939, 661339, 661739, 662139, 662539, 662939, 663340, 663687, 664042, 664422, 664807, 665179, 665496, 665879, 666242, 666567, 666925, 667293, 667646, 668018, 668342, 668681, 669072]",79,EM,L,R,ITMSR,1.1,
2,400,trial,0,30,30,30,trial,"['S', 'S', 'S', 'S', 'S', 'S', 'S', 'C', 'C', 'C', 'C', 'C', 'C', 'C', 'C', 'C', 'C', 'C', 'C', 'C', 'C', 'C', 'C']","[678904, 679225, 679589, 679975, 680360, 680742, 681123, 681536, 681911, 682240, 682606, 683001, 683347, 683715, 684065, 684473, 684824, 685156, 685491, 685886, 686221, 686562, 686930]","[678994, 679309, 679671, 680069, 680454, 680859, 681213, 681646, 682011, 682352, 682710, 683092, 683456, 683803, 684163, 684551, 684913, 685254, 685582, 685947, 686326, 686653, 687025]","[157, 135, 121, 81, 249, 82, 90, 22, 101, 23, 93, 74, 90, 45, 86, 100, 84, 82, 84, 68, 91, 84, 92]","[678955, 679271, 679634, 680033, 680391, 680805, 681159, 681594, 681963, 682304, 682686, 683036, 683393, 683755, 684122, 684490, 684846, 685221, 685514, 685921, 686302, 686611, 686986]","[678459, 678859, 679259, 679659, 680059, 680459, 680859, 681260, 681556, 681931, 682260, 682626, 683021, 683367, 683736, 684085, 684493, 684845, 685176, 685511, 685906, 686241, 686582, 686950]",79,EM,L,R,ITMSR,1.1,
3,600,trial,0,31,31,31,trial,"['S', 'S', 'S', 'S', 'S', 'S', 'S', 'S', 'C', 'C', 'C', 'C', 'C', 'C', 'C', 'C', 'C', 'C', 'C', 'C', 'C', 'C', 'C', 'C']","[692605, 692864, 693574, 694155, 694780, 695366, 695976, 696539, 697151, 697772, 698353, 698973, 699517, 700087, 700636, 701223, 701719, 702331, 702864, 703433, 703955, 704548, 705091, 705636]","[692707, 692960, 693672, 694275, 694895, 695485, 696089, 696658, 697271, 697866, 698470, 699079, 699662, 700215, 700801, 701360, 701915, 702468, 703021, 703535, 704084, 704651, 705232, 705789]","[34, 230, 206, 227, 194, 5, 249, 168, 213, 155, 90, 169, 184, 14, 50, 109, 81, 30, 34, 3, 242, 242, 251, 46]","[692663, 692907, 693632, 694233, 694848, 695431, 696044, 696613, 697211, 697828, 698418, 699036, 699600, 700155, 700727, 701303, 701821, 702402, 702944, 703490, 704034, 704602, 705171, 705716]","[692471, 693071, 693671, 694272, 694872, 695472, 696072, 696672, 697171, 697792, 698373, 698993, 699537, 700107, 700656, 701243, 701740, 702351, 702884, 703453, 703975, 704568, 705112, 705656]",79,EM,L,R,ITMSR,1.1,
2,600,trial,0,32,32,32,trial,"['S', 'S', 'S', 'S', 'S', 'S', 'S', 'S', 'C', 'C', 'C', 'C', 'C', 'C', 'C', 'C', 'C', 'C', 'C', 'C', 'C', 'C', 'C', 'C']","[711320, 711711, 712238, 712842, 713463, 714055, 714647, 715220, 715795, 716462, 716976, 717611, 718216, 718788, 719371, 719928, 720519, 721089, 721661, 722275, 722843, 723426, 723994, 724640]","[711387, 711836, 712330, 712944, 713576, 714161, 714761, 715356, 715939, 716560, 717140, 717728, 718327, 718926, 719509, 720111, 720657, 721250, 721806, 722410, 722985, 723578, 724151, 724774]","[40, 208, 217, 160, 143, 187, 169, 170, 23, 111, 217, 202, 188, 234, 194, 58, 11, 22, 254, 228, 234, 19, 247, 252]","[711353, 711784, 712284, 712899, 713534, 714118, 714712, 715307, 715875, 716512, 717079, 717682, 718280, 718853, 719459, 720037, 720607, 721186, 721752, 722350, 722923, 723517, 724081, 724708]","[711124, 711725, 712325, 712925, 713525, 714125, 714725, 715325, 715815, 716482, 716996, 717631, 718236, 718808, 719391, 719948, 720539, 721110, 721681, 722295, 722863, 723446, 724014, 724660]",79,EM,L,R,ITMSR,1.1,
4,600,trial,0,33,33,33,trial,"['S', 'S', 'S', 'S', 'S', 'S', 'S', 'C', 'C', 'C', 'C', 'C', 'C', 'C', 'C', 'C', 'C', 'C', 'C', 'C', 'C', 'C', 'C']","[730446, 731141, 731764, 732361, 733053, 733642, 734219, 734886, 735473, 736098, 736640, 737242, 737839, 738436, 739070, 739686, 740252, 740855, 741500, 742012, 742650, 743190, 743738]","[730550, 731235, 731863, 732479, 733073, 733723, 734298, 734969, 735568, 736167, 736755, 737351, 737938, 738538, 739191, 739777, 740345, 740967, 741587, 742137, 742754, 743299, 743838]","[79, 126, 109, 161, 100, 58, 75, 119, 119, 59, 189, 105, 136, 106, 169, 84, 80, 157, 133, 200, 152, 175, 139]","[730485, 731196, 731826, 732366, 733057, 733648, 734224, 734893, 735535, 736102, 736701, 737247, 737897, 738498, 739149, 739743, 740256, 740918, 741558, 742083, 742656, 743250, 743800]","[730030, 730630, 731230, 731830, 732430, 733030, 733630, 734230, 734906, 735493, 736118, 736660, 737262, 737859, 738456, 739090, 739706, 740272, 740875, 741520, 742032, 742670, 743211, 743758]",79,EM,L,R,ITMSR,1.1,
1,600,trial,0,34,34,34,trial,"['S', 'S', 'S', 'S', 'S', 'S', 'C', 'C', 'C', 'C', 'C', 'C', 'C', 'C', 'C', 'C', 'C', 'C', 'C', 'C', 'C', 'C']","[750604, 751174, 751790, 752355, 752968, 753537, 754141, 754704, 755271, 755795, 756413, 757004, 757607, 758512, 759056, 759588, 760128, 760702, 761322, 761873, 762411, 762917]","[750676, 751257, 751827, 752433, 753069, 753606, 754247, 754799, 755361, 755916, 756494, 757075, 757671, 758619, 759186, 759748, 760280, 760851, 761439, 762003, 762558, 763118]","[38, 122, 92, 29, 32, 38, 39, 39, 33, 233, 225, 193, 140, 27, 245, 58, 125, 95, 66, 95, 104, 144]","[750638, 751226, 751814, 752398, 753018, 753573, 754195, 754755, 755322, 755869, 756455, 757039, 757629, 758580, 759136, 759690, 760230, 760797, 761382, 761949, 762500, 763052]","[749480, 750081, 750680, 751280, 751880, 752480, 753080, 753680, 754161, 754724, 755291, 755815, 756433, 757024, 757627, 758532, 759076, 759608, 760148, 760722, 761342, 761893, 762431, 762937]",79,EM,L,R,ITMSR,1.1,
3,600,trial,0,35,35,35,trial,"['S', 'S', 'S', 'S', 'S', 'S', 'S', 'C', 'C', 'C', 'C', 'C', 'C', 'C', 'C', 'C', 'C', 'C', 'C', 'C', 'C', 'C', 'C']","[768759, 769427, 770041, 770638, 771255, 771863, 772403, 772974, 773542, 774139, 774699, 775228, 775800, 776427, 776985, 777464, 778019, 778517, 779111, 779686, 780189, 780755, 781320]","[768877, 769500, 770146, 770752, 771333, 771995, 772535, 773129, 773673, 774253, 774825, 775391, 775955, 776545, 777141, 777648, 778174, 778697, 779239, 779826, 780362, 780904, 781498]","[171, 253, 204, 7, 191, 38, 220, 71, 40, 170, 25, 84, 89, 10, 116, 103, 116, 116, 26, 224, 78, 56, 122]","[768816, 769465, 770097, 770702, 771291, 771941, 772483, 773053, 773613, 774203, 774770, 775326, 775892, 776500, 777071, 777578, 778105, 778608, 779191, 779757, 780286, 780848, 781430]","[768325, 768924, 769524, 770124, 770724, 771324, 771924, 772525, 772994, 773562, 774159, 774719, 775248, 775820, 776448, 777005, 777484, 778039, 778537, 779131, 779706, 780209, 780775, 781340]",79,EM,L,R,ITMSR,1.1,
0,400,trial,0,36,36,36,trial,"['S', 'S', 'S', 'S', 'C', 'C', 'C', 'C', 'C', 'C', 'C', 'C', 'C', 'C', 'C', 'C', 'C', 'C', 'C', 'C']","[788480, 788864, 789268, 789650, 790064, 790445, 790812, 791196, 791568, 791943, 792317, 792679, 793011, 793398, 793745, 794109, 794472, 794802, 795182, 795550]","[788540, 788952, 789343, 789727, 790163, 790524, 790902, 791277, 791664, 792026, 792410, 792775, 793135, 793484, 793853, 794194, 794551, 794895, 795261, 795675]","[40, 67, 40, 132, 207, 128, 134, 113, 223, 229, 218, 0, 62, 10, 19, 13, 9, 7, 168, 55]","[788485, 788868, 789272, 789655, 790070, 790483, 790847, 791203, 791613, 791975, 792373, 792724, 793067, 793405, 793801, 794148, 794507, 794838, 795215, 795613]","[786912, 787312, 787713, 788112, 788512, 788912, 789312, 789712, 790084, 790465, 790832, 791216, 791588, 791963, 792337, 792699, 793031, 793418, 793765, 794129, 794492, 794822, 795202, 795570]",79,EM,L,R,ITMSR,1.1,
0,400,trial,0,37,37,37,trial,"['S', 'S', 'S', 'S', 'S', 'S', 'S', 'C', 'C', 'C', 'C', 'C', 'C', 'C', 'C', 'C', 'C', 'C', 'C', 'C', 'C', 'C', 'C']","[801497, 801886, 802229, 802623, 802992, 803404, 803831, 804233, 804599, 804966, 805367, 805716, 806086, 806481, 806831, 807217, 807607, 807984, 808329, 808724, 809082, 809453, 809797]","[801566, 801941, 802320, 802713, 803094, 803513, 803911, 804329, 804682, 805059, 805436, 805809, 806180, 806585, 806940, 807324, 807718, 808102, 808436, 808821, 809196, 809562, 809929]","[51, 88, 223, 220, 202, 211, 154, 157, 83, 92, 77, 92, 161, 121, 191, 201, 206, 223, 206, 156, 210, 201, 13]","[801503, 801892, 802235, 802631, 803049, 803458, 803865, 804291, 804631, 805013, 805397, 805749, 806138, 806540, 806891, 807274, 807664, 808041, 808386, 808777, 809131, 809507, 809859]","[801101, 801501, 801901, 802301, 802701, 803101, 803501, 803901, 804253, 804619, 804986, 805387, 805736, 806106, 806501, 806851, 807237, 807627, 808004, 808349, 808744, 809102, 809474, 809817]",79,EM,L,R,ITMSR,1.1,
3,400,trial,0,38,38,38,trial,"['S', 'S', 'S', 'S', 'S', 'S', 'S', 'C', 'C', 'C', 'C', 'C', 'C', 'C', 'C', 'C', 'C', 'C', 'C', 'C', 'C', 'C', 'C']","[815516, 815890, 816235, 816661, 817035, 817429, 817822, 818258, 818625, 818987, 819389, 819759, 820126, 820477, 820840, 821260, 821598, 821994, 822369, 822692, 823063, 823420, 823811]","[815606, 815976, 816333, 816755, 817142, 817542, 817923, 818353, 818712, 819095, 819480, 819866, 820221, 820560, 820940, 821344, 821714, 822099, 822467, 822821, 823187, 823557, 823981]","[96, 83, 31, 151, 189, 231, 193, 150, 109, 184, 112, 196, 183, 156, 167, 173, 248, 222, 212, 227, 243, 23, 82]","[815553, 815925, 816276, 816695, 817096, 817482, 817882, 818306, 818667, 819050, 819438, 819820, 820163, 820513, 820887, 821291, 821655, 822047, 822420, 822762, 823128, 823489, 823913]","[815121, 815521, 815921, 816321, 816721, 817121, 817521, 817922, 818278, 818646, 819007, 819409, 819779, 820146, 820497, 820860, 821280, 821618, 822014, 822389, 822712, 823084, 823440, 823831]",79,EM,L,R,ITMSR,1.1,
4,400,trial,0,39,39,39,trial,"['S', 'S', 'S', 'S', 'S', 'S', 'S', 'C', 'C', 'C', 'C', 'C', 'C', 'C', 'C', 'C', 'C', 'C', 'C', 'C', 'C', 'C', 'C']","[829378, 829857, 830263, 830649, 831078, 831465, 831801, 832273, 832649, 832993, 833376, 833743, 834147, 834476, 834893, 835259, 835618, 835984, 836364, 836720, 837136, 837501, 837841]","[829461, 829929, 830339, 830737, 831150, 831545, 831935, 832353, 832721, 833082, 833462, 833843, 834229, 834601, 834978, 835362, 835727, 836077, 836450, 836816, 837209, 837585, 837943]","[53, 145, 158, 167, 41, 39, 109, 173, 79, 147, 168, 195, 172, 251, 132, 203, 121, 147, 34, 199, 107, 156, 223]","[829416, 829891, 830270, 830656, 831113, 831471, 831894, 832321, 832684, 833027, 833411, 833783, 834178, 834538, 834926, 835311, 835686, 836028, 836395, 836776, 837169, 837533, 837897]","[829136, 829535, 829935, 830336, 830735, 831135, 831535, 831935, 832293, 832669, 833013, 833396, 833763, 834167, 834496, 834913, 835279, 835638, 836004, 836384, 836740, 837156, 837521, 837861]",79,EM,L,R,ITMSR,1.1,
1,600,trial,0,40,40,40,trial,"['S', 'S', 'S', 'S', 'S', 'S', 'S', 'S', 'C', 'C', 'C', 'C', 'C', 'C', 'C', 'C', 'C', 'C', 'C', 'C', 'C', 'C', 'C', 'C']","[843580, 843838, 844517, 845071, 845727, 846333, 846900, 847456, 848087, 848672, 849280, 849844, 850361, 850946, 851548, 852103, 852683, 853305, 853860, 854412, 854995, 855582, 856057, 856638]","[843644, 843932, 844587, 845190, 845815, 846385, 846982, 847544, 848195, 848787, 849388, 849952, 850503, 851068, 851659, 852205, 852820, 853421, 853999, 854568, 855123, 855697, 856214, 856752]","[247, 231, 39, 250, 173, 35, 124, 128, 157, 158, 153, 136, 177, 151, 172, 155, 214, 202, 230, 205, 205, 131, 233, 204]","[843610, 843891, 844524, 845132, 845763, 846340, 846949, 847516, 848140, 848740, 849342, 849902, 850456, 851006, 851608, 852161, 852765, 853367, 853940, 854497, 855059, 855655, 856143, 856696]","[843396, 843996, 844596, 845196, 845796, 846396, 846996, 847596, 848107, 848692, 849300, 849864, 850381, 850966, 851568, 852123, 852703, 853325, 853880, 854432, 855015, 855602, 856077, 856658]",79,EM,L,R,ITMSR,1.1,
1,400,trial,0,41,41,41,trial,"['S', 'S', 'S', 'S', 'S', 'S', 'S', 'C', 'C', 'C', 'C', 'C', 'C', 'C', 'C', 'C', 'C', 'C', 'C', 'C', 'C', 'C', 'C']","[862545, 863021, 863366, 863763, 864158, 864581, 864990, 865363, 865732, 866078, 866455, 866824, 867217, 867547, 867926, 868267, 868644, 869040, 869423, 869749, 870102, 870474, 870843]","[862656, 863104, 863464, 863875, 864266, 864671, 865077, 865476, 865822, 866188, 866570, 866934, 867308, 867682, 868014, 868375, 868758, 869138, 869528, 869856, 870235, 870580, 870965]","[56, 223, 220, 224, 168, 130, 46, 120, 103, 98, 192, 168, 98, 192, 79, 223, 186, 195, 155, 105, 171, 137, 249]","[862553, 863062, 863423, 863827, 864209, 864616, 865015, 865417, 865770, 866130, 866508, 866876, 867251, 867618, 867973, 868326, 868702, 869090, 869473, 869817, 870167, 870531, 870901]","[862276, 862675, 863075, 863475, 863875, 864275, 864675, 865075, 865383, 865752, 866098, 866476, 866844, 867237, 867567, 867946, 868287, 868664, 869060, 869443, 869769, 870122, 870494, 870863]",79,EM,L,R,ITMSR,1.1,
5,400,trial,0,42,42,42,trial,"['S', 'S', 'S', 'S', 'S', 'S', 'S', 'S', 'C', 'C', 'C', 'C', 'C', 'C', 'C', 'C', 'C', 'C', 'C', 'C', 'C', 'C', 'C', 'C', 'C']","[876564, 876856, 877168, 877513, 877902, 878300, 878688, 879111, 879545, 879908, 880276, 880623, 881010, 881336, 881700, 882058, 882380, 882729, 883086, 883380, 883816, 884079, 884433, 884717, 885062]","[876662, 876959, 877243, 877630, 878029, 878399, 878799, 879220, 879636, 880008, 880376, 880741, 881089, 881452, 881798, 882165, 882506, 882844, 883212, 883552, 883898, 884241, 884574, 884901, 885236]","[136, 187, 116, 32, 4, 207, 214, 196, 184, 194, 184, 195, 125, 204, 158, 206, 198, 150, 243, 120, 158, 197, 101, 44, 67]","[876611, 876916, 877203, 877568, 877974, 878359, 878740, 879162, 879581, 879953, 880317, 880669, 881047, 881396, 881752, 882121, 882447, 882796, 883150, 883486, 883852, 884163, 884514, 884845, 885159]","[876406, 876806, 877206, 877606, 878006, 878406, 878807, 879206, 879565, 879928, 880296, 880643, 881030, 881356, 881720, 882078, 882400, 882749, 883106, 883400, 883836, 884453, 884738, 885082]",79,EM,L,R,ITMSR,1.1,
0,600,trial,0,43,43,43,trial,"['S', 'S', 'S', 'S', 'S', 'S', 'S', 'S', 'S', 'C', 'C', 'C', 'C', 'C', 'C', 'C', 'C', 'C', 'C', 'C', 'C', 'C', 'C', 'C', 'C']","[890691, 890827, 891154, 891618, 892230, 892845, 893446, 894017, 894579, 895199, 895764, 896345, 896898, 897469, 898057, 898644, 899247, 899834, 900446, 900968, 901530, 902127, 902661, 903206, 903783]","[890711, 890936, 891284, 891762, 892380, 892984, 893564, 894146, 894716, 895312, 895888, 896477, 897045, 897637, 898200, 898812, 899396, 900002, 900561, 901130, 901676, 902259, 902774, 903340, 903913]","[96, 67, 65, 126, 154, 172, 132, 101, 135, 40, 252, 35, 251, 48, 34, 58, 91, 57, 226, 38, 57, 54, 11, 59, 53]","[890695, 890898, 891217, 891682, 892235, 892850, 893451, 894022, 894585, 895205, 895827, 896409, 896982, 897547, 898063, 898738, 899253, 899905, 900521, 901070, 901610, 902196, 902718, 903281, 903856]","[890469, 891069, 891669, 892269, 892869, 893469, 894069, 894669, 895219, 895784, 896365, 896918, 897489, 898077, 898664, 899267, 899854, 900466, 900988, 901550, 902147, 902681, 903226, 903803]",79,EM,L,R,ITMSR,1.1,
4,400,trial,0,44,44,44,trial,"['S', 'S', 'S', 'S', 'S', 'S', 'S', 'C', 'C', 'C', 'C', 'C', 'C', 'C', 'C', 'C', 'C', 'C', 'C', 'C', 'C', 'C', 'C']","[910028, 910333, 910645, 911067, 911409, 911777, 912180, 912612, 912969, 913303, 913687, 914036, 914411, 914797, 915149, 915531, 915899, 916301, 916585, 916983, 917277, 917666, 918012]","[910048, 910395, 910742, 911155, 911519, 911892, 912291, 912711, 913064, 913402, 913767, 914142, 914495, 914890, 915267, 915627, 916001, 916403, 916738, 917070, 917410, 917763, 918164]","[162, 139, 53, 5, 42, 70, 40, 221, 226, 157, 117, 176, 114, 145, 178, 172, 152, 224, 218, 121, 221, 137, 61]","[910031, 910365, 910700, 911119, 911469, 911838, 912242, 912664, 913008, 913363, 913738, 914093, 914445, 914853, 915222, 915565, 915958, 916353, 916694, 917036, 917356, 917725, 918116]","[909512, 909912, 910312, 910712, 911112, 911512, 911912, 912312, 912632, 912989, 913324, 913708, 914056, 914432, 914818, 915169, 915551, 915919, 916321, 916605, 917003, 917297, 917686, 918032]",79,EM,L,R,ITMSR,1.1,
5,600,trial,0,45,45,45,trial,"['S', 'S', 'S', 'S', 'S', 'S', 'S', 'S', 'C', 'C', 'C', 'C', 'C', 'C', 'C', 'C', 'C', 'C', 'C', 'C', 'C', 'C', 'C', 'C']","[923766, 924028, 924625, 925188, 925810, 926434, 927032, 927649, 928228, 928789, 929377, 929953, 930493, 931050, 931580, 932124, 932701, 933249, 933798, 934331, 934914, 935468, 935974, 936513]","[923799, 924131, 924737, 925332, 925946, 926546, 927171, 927742, 928354, 928919, 929481, 930068, 930628, 931213, 931744, 932312, 932851, 933455, 934005, 934530, 935094, 935645, 936172, 936747]","[112, 191, 170, 1, 65, 196, 188, 62, 182, 150, 126, 172, 194, 7, 246, 21, 210, 20, 56, 55, 23, 59, 102, 118]","[923782, 924094, 924691, 925283, 925872, 926491, 927124, 927710, 928304, 928876, 929441, 930034, 930586, 931159, 931682, 932268, 932792, 933359, 933937, 934459, 935027, 935586, 936113, 936666]","[923488, 924088, 924688, 925288, 925888, 926488, 927088, 927688, 928248, 928809, 929397, 929973, 930513, 931070, 931600, 932144, 932721, 933269, 933818, 934351, 934934, 935488, 935994, 936534]",79,EM,L,R,ITMSR,1.1,
4,600,trial,0,46,46,46,trial,"['S', 'S', 'S', 'S', 'S', 'S', 'S', 'C', 'C', 'C', 'C', 'C', 'C', 'C', 'C', 'C', 'C', 'C', 'C', 'C', 'C', 'C', 'C']","[942330, 942997, 943601, 944168, 944792, 945360, 945975, 946610, 947208, 947796, 948344, 948890, 949509, 950045, 950593, 951120, 951701, 952272, 952780, 953356, 953869, 954451, 954996]","[942444, 943090, 943707, 944291, 944903, 945482, 946113, 946725, 947330, 947923, 948504, 949063, 949577, 950200, 950744, 951284, 951862, 952389, 952929, 953497, 954021, 954631, 955191]","[147, 200, 137, 146, 149, 135, 155, 149, 173, 136, 182, 191, 217, 192, 192, 218, 212, 151, 223, 227, 188, 8, 82]","[942391, 943048, 943668, 944244, 944859, 945427, 946052, 946682, 947276, 947867, 948448, 948998, 949549, 950126, 950681, 951226, 951798, 952333, 952870, 953443, 953954, 954567, 955124]","[941902, 942501, 943101, 943702, 944301, 944901, 945501, 946101, 946630, 947228, 947816, 948364, 948910, 949529, 950065, 950614, 951140, 951721, 952292, 952800, 953376, 953889, 954471, 955016]",79,EM,L,R,ITMSR,1.1,
3,400,trial,0,47,47,47,trial,"['S', 'S', 'S', 'S', 'S', 'S', 'S', 'S', 'C', 'C', 'C', 'C', 'C', 'C', 'C', 'C', 'C', 'C', 'C', 'C', 'C', 'C', 'C', 'C']","[960678, 961051, 961321, 961644, 962084, 962446, 962837, 963238, 963618, 963995, 964381, 964745, 965108, 965491, 965851, 966213, 966934, 967309, 967663, 968020, 968396, 968734, 969074, 969450]","[960777, 961115, 961387, 961775, 962182, 962575, 962968, 963330, 963730, 964093, 964464, 964841, 965176, 965552, 965931, 966287, 967069, 967439, 967782, 968135, 968506, 968870, 969218, 969590]","[230, 90, 90, 176, 143, 80, 129, 171, 16, 158, 137, 147, 108, 255, 98, 116, 99, 57, 34, 104, 100, 143, 158, 146]","[960734, 961079, 961349, 961698, 962137, 962516, 962896, 963290, 963676, 964046, 964422, 964794, 965144, 965508, 965877, 966249, 967019, 967393, 967735, 968088, 968446, 968813, 969160, 969527]","[960521, 960921, 961321, 961721, 962121, 962521, 962921, 963321, 963638, 964015, 964401, 964765, 965128, 965511, 965871, 966233, 966955, 967329, 967683, 968040, 968416, 968754, 969094, 969470]",79,EM,L,R,ITMSR,1.1,
2,600,trial,0,48,48,48,trial,"['S', 'S', 'S', 'S', 'S', 'S', 'S', 'C', 'C', 'C', 'C', 'C', 'C', 'C', 'C', 'C', 'C', 'C', 'C', 'C', 'C', 'C', 'C']","[975535, 976270, 976914, 977509, 978150, 978699, 979284, 979916, 980513, 981022, 981586, 982113, 982671, 983200, 983752, 984274, 984859, 985441, 986010, 986523, 987029, 987557, 988091]","[975644, 976394, 977025, 977646, 978285, 978813, 979409, 980029, 980627, 981166, 981701, 982263, 982822, 983328, 983884, 984451, 984963, 985538, 986100, 986652, 987179, 987711, 988229]","[162, 189, 48, 177, 152, 97, 133, 67, 117, 116, 64, 95, 106, 99, 101, 169, 89, 246, 192, 73, 104, 104, 150]","[975579, 976274, 976920, 977585, 978208, 978751, 979345, 979959, 980572, 981097, 981642, 982182, 982750, 983257, 983810, 984384, 984914, 985494, 986059, 986592, 987115, 987657, 988179]","[975178, 975777, 976377, 976977, 977577, 978178, 978778, 979378, 979936, 980533, 981042, 981606, 982133, 982691, 983220, 983772, 984294, 984879, 985461, 986030, 986543, 987049, 987577, 988111]",79,EM,L,R,ITMSR,1.1,
5,400,trial,0,49,49,49,trial,"['S', 'S', 'S', 'S', 'S', 'S', 'S', 'C', 'C', 'C', 'C', 'C', 'C', 'C', 'C', 'C', 'C', 'C', 'C', 'C', 'C', 'C', 'C']","[993859, 994199, 994550, 994978, 995353, 995747, 996182, 996585, 996960, 997372, 997760, 998096, 998481, 998845, 999187, 999571, 999934, 1000314, 1000653, 1001035, 1001397, 1001750, 1002088]","[993959, 994283, 994651, 995095, 995465, 995842, 996265, 996673, 997059, 997464, 997849, 998210, 998566, 998932, 999306, 999658, 1000037, 1000421, 1000755, 1001122, 1001497, 1001866, 1002201]","[54, 83, 169, 180, 214, 171, 144, 93, 60, 199, 10, 13, 17, 99, 135, 26, 119, 103, 103, 28, 111, 135, 128]","[993893, 994235, 994556, 994983, 995358, 995753, 996188, 996591, 997006, 997420, 997801, 998161, 998518, 998882, 999248, 999611, 999987, 1000372, 1000704, 1001071, 1001449, 1001808, 1002148]","[993418, 993818, 994219, 994618, 995018, 995418, 995818, 996218, 996605, 996980, 997392, 997780, 998116, 998501, 998865, 999207, 999591, 999954, 1000334, 1000673, 1001055, 1001417, 1001771, 1002108]",79,EM,L,R,ITMSR,1.1,
0,600,trial,0,50,50,50,trial,"['S', 'S', 'S', 'S', 'S', 'S', 'S', 'C', 'C', 'C', 'C', 'C', 'C', 'C', 'C', 'C', 'C', 'C', 'C', 'C', 'C', 'C', 'C']","[1007889, 1008578, 1009211, 1009769, 1010392, 1011005, 1011607, 1012194, 1012707, 1013222, 1013739, 1014274, 1014820, 1015312, 1015805, 1016274, 1016741, 1017219, 1017721, 1018215, 1018712, 1019212, 1019693]","[1007984, 1008689, 1009318, 1009892, 1010486, 1011111, 1011733, 1012296, 1012825, 1013336, 1013870, 1014409, 1014941, 1015440, 1015918, 1016392, 1016868, 1017351, 1017879, 1018349, 1018822, 1019334, 1019842]","[184, 68, 138, 126, 92, 73, 72, 200, 228, 209, 244, 1, 23, 251, 198, 216, 197, 46, 64, 61, 12, 69, 93]","[1007930, 1008631, 1009264, 1009824, 1010439, 1011054, 1011676, 1012221, 1012763, 1013285, 1013804, 1014335, 1014879, 1015375, 1015862, 1016333, 1016804, 1017280, 1017808, 1018287, 1018760, 1019264, 1019782]","[1007486, 1008087, 1008686, 1009286, 1009886, 1010486, 1011086, 1011686, 1012214, 1012727, 1013242, 1013760, 1014294, 1014840, 1015332, 1015825, 1016294, 1016761, 1017239, 1017741, 1018235, 1018732, 1019232, 1019713]",79,EM,L,R,ITMSR,1.1,
1,400,trial,0,51,51,51,trial,"['S', 'S', 'S', 'S', 'S', 'S', 'S', 'C', 'C', 'C', 'C', 'C', 'C', 'C', 'C', 'C', 'C', 'C', 'C', 'C', 'C', 'C', 'C']","[1025533, 1025898, 1026255, 1026632, 1027018, 1027447, 1027869, 1028269, 1028663, 1029009, 1029429, 1029791, 1030168, 1030517, 1030895, 1031268, 1031683, 1032037, 1032436, 1032788, 1033158, 1033541, 1033951]","[1025603, 1026008, 1026375, 1026747, 1027141, 1027554, 1027955, 1028362, 1028731, 1029118, 1029520, 1029902, 1030270, 1030617, 1030998, 1031379, 1031776, 1032147, 1032523, 1032905, 1033272, 1033645, 1034090]","[115, 96, 181, 129, 108, 239, 200, 9, 229, 237, 240, 65, 86, 75, 42, 67, 199, 217, 202, 241, 210, 213, 77]","[1025539, 1025954, 1026313, 1026672, 1027082, 1027502, 1027906, 1028321, 1028670, 1029065, 1029468, 1029850, 1030210, 1030568, 1030955, 1031320, 1031720, 1032101, 1032474, 1032853, 1033223, 1033586, 1034034]","[1025125, 1025525, 1025925, 1026325, 1026725, 1027125, 1027525, 1027926, 1028289, 1028683, 1029029, 1029449, 1029811, 1030189, 1030537, 1030915, 1031288, 1031703, 1032057, 1032456, 1032808, 1033178, 1033561, 1033971]",79,EM,L,R,ITMSR,1.1,
5,600,trial,0,52,52,52,trial,"['S', 'S', 'S', 'S', 'S', 'S', 'S', 'S', 'C', 'C', 'C', 'C', 'C', 'C', 'C', 'C', 'C', 'C', 'C', 'C', 'C', 'C', 'C', 'C']","[1039636, 1039890, 1040567, 1041166, 1041796, 1042394, 1043022, 1043565, 1044183, 1044758, 1045311, 1045851, 1046459, 1046996, 1047529, 1048064, 1048589, 1049131, 1049687, 1050238, 1050776, 1051264, 1051781, 1052303]","[1039718, 1039997, 1040663, 1041264, 1041902, 1042486, 1043113, 1043678, 1044271, 1044861, 1045413, 1045962, 1046558, 1047126, 1047684, 1048184, 1048724, 1049251, 1049816, 1050363, 1050905, 1051427, 1051918, 1052475]","[181, 254, 48, 226, 4, 209, 173, 215, 109, 163, 116, 127, 114, 181, 46, 208, 206, 170, 160, 216, 219, 217, 208, 71]","[1039675, 1039951, 1040619, 1041219, 1041856, 1042433, 1043062, 1043627, 1044213, 1044822, 1045373, 1045913, 1046512, 1047072, 1047617, 1048126, 1048653, 1049192, 1049761, 1050310, 1050848, 1051361, 1051851, 1052413]","[1039449, 1040049, 1040649, 1041249, 1041849, 1042449, 1043049, 1043649, 1044203, 1044779, 1045331, 1045871, 1046479, 1047016, 1047549, 1048084, 1048609, 1049151, 1049707, 1050258, 1050797, 1051284, 1051801, 1052323]",79,EM,L,R,ITMSR,1.1,
2,400,trial,0,53,53,53,trial,"['S', 'S', 'S', 'S', 'S', 'S', 'S', 'C', 'C', 'C', 'C', 'C', 'C', 'C', 'C', 'C', 'C', 'C', 'C', 'C', 'C', 'C', 'C']","[1058333, 1058640, 1058992, 1059396, 1059759, 1060184, 1060609, 1061015, 1061372, 1061753, 1062123, 1062495, 1062900, 1063271, 1063620, 1063989, 1064360, 1064721, 1065102, 1065442, 1065788, 1066198, 1066552]","[1058353, 1058705, 1059079, 1059527, 1059905, 1060259, 1060675, 1061106, 1061485, 1061855, 1062211, 1062601, 1062971, 1063345, 1063719, 1064073, 1064438, 1064813, 1065162, 1065520, 1065876, 1066265, 1066672]","[246, 153, 21, 8, 2, 252, 233, 168, 68, 51, 22, 48, 215, 215, 175, 211, 248, 161, 75, 167, 19, 128, 76]","[1058339, 1058670, 1058998, 1059401, 1059834, 1060189, 1060613, 1061021, 1061434, 1061793, 1062163, 1062551, 1062906, 1063305, 1063657, 1063994, 1064397, 1064773, 1065131, 1065449, 1065833, 1066222, 1066615]","[1057835, 1058234, 1058634, 1059034, 1059434, 1059834, 1060234, 1060634, 1061036, 1061392, 1061773, 1062144, 1062515, 1062920, 1063291, 1063640, 1064009, 1064380, 1064741, 1065122, 1065462, 1065808, 1066218, 1066572]",79,EM,L,R,ITMSR,1.1,
1,600,trial,0,54,54,54,trial,"['S', 'S', 'S', 'S', 'S', 'S', 'S', 'S', 'C', 'C', 'C', 'C', 'C', 'C', 'C', 'C', 'C', 'C', 'C', 'C', 'C', 'C', 'C', 'C']","[1078060, 1078339, 1079029, 1079625, 1080251, 1080861, 1081426, 1081986, 1082617, 1083187, 1083805, 1084399, 1085015, 1085589, 1086199, 1086736, 1087270, 1087852, 1088460, 1089050, 1089595, 1090165, 1090726, 1091266]","[1078144, 1078433, 1079114, 1079709, 1080339, 1080934, 1081513, 1082087, 1082719, 1083285, 1083884, 1084481, 1085109, 1085682, 1086298, 1086850, 1087401, 1087990, 1088596, 1089163, 1089724, 1090299, 1090863, 1091404]","[211, 41, 14, 190, 91, 204, 22, 4, 222, 29, 200, 3, 241, 131, 247, 240, 202, 210, 15, 21, 216, 13, 15, 92]","[1078104, 1078346, 1079036, 1079632, 1080287, 1080869, 1081434, 1082038, 1082660, 1083228, 1083842, 1084437, 1085054, 1085624, 1086246, 1086777, 1087334, 1087937, 1088523, 1089112, 1089669, 1090240, 1090804, 1091351]","[1077919, 1078519, 1079119, 1079719, 1080320, 1080920, 1081520, 1082120, 1082637, 1083207, 1083825, 1084419, 1085035, 1085609, 1086219, 1086756, 1087290, 1087873, 1088480, 1089070, 1089615, 1090185, 1090746, 1091287]",79,EM,L,R,ITMSR,1.1,
3,600,trial,0,55,55,55,trial,"['S', 'S', 'S', 'S', 'S', 'S', 'C', 'C', 'C', 'C', 'C', 'C', 'C', 'C', 'C', 'C', 'C', 'C', 'C', 'C', 'C', 'C']","[1098113, 1098760, 1099333, 1099936, 1100548, 1101155, 1101745, 1102307, 1102922, 1103521, 1104129, 1104689, 1105284, 1105894, 1106390, 1106924, 1107506, 1108068, 1108600, 1109138, 1109688, 1110228]","[1098199, 1098825, 1099417, 1100040, 1100637, 1101264, 1101856, 1102426, 1103026, 1103639, 1104220, 1104838, 1105401, 1106032, 1106547, 1107054, 1107633, 1108192, 1108747, 1109315, 1109855, 1110388]","[210, 237, 199, 157, 105, 250, 13, 232, 171, 2, 141, 32, 252, 48, 92, 37, 238, 50, 34, 122, 121, 119]","[1098164, 1098797, 1099368, 1099998, 1100588, 1101213, 1101804, 1102374, 1102983, 1103596, 1104185, 1104776, 1105342, 1105974, 1106488, 1107005, 1107574, 1108135, 1108688, 1109244, 1109790, 1110339]","[1097024, 1097624, 1098224, 1098824, 1099424, 1100024, 1100624, 1101224, 1101765, 1102327, 1102942, 1103541, 1104149, 1104709, 1105304, 1105914, 1106410, 1106945, 1107526, 1108088, 1108620, 1109158, 1109708, 1110248]",79,EM,L,R,ITMSR,1.1,
1,600,trial,0,56,56,56,trial,"['S', 'S', 'S', 'S', 'S', 'S', 'S', 'S', 'C', 'C', 'C', 'C', 'C', 'C', 'C', 'C', 'C', 'C', 'C', 'C', 'C', 'C', 'C', 'C']","[1115877, 1116211, 1116841, 1117447, 1118005, 1118605, 1119241, 1119875, 1120418, 1120994, 1121547, 1122077, 1122573, 1123107, 1123646, 1124199, 1124696, 1125217, 1125752, 1126224, 1126724, 1127244, 1127760, 1128254]","[1115936, 1116320, 1116935, 1117552, 1118148, 1118763, 1119366, 1119968, 1120548, 1121105, 1121655, 1122196, 1122711, 1123209, 1123781, 1124332, 1124833, 1125343, 1125854, 1126361, 1126855, 1127387, 1127926, 1128468]","[44, 207, 240, 182, 165, 189, 235, 169, 8, 228, 125, 196, 244, 111, 5, 188, 213, 211, 198, 240, 138, 5, 93, 198]","[1115902, 1116273, 1116880, 1117507, 1118087, 1118702, 1119304, 1119926, 1120493, 1121055, 1121584, 1122146, 1122661, 1123141, 1123710, 1124272, 1124780, 1125276, 1125812, 1126299, 1126788, 1127320, 1127864, 1128392]","[1115689, 1116290, 1116890, 1117490, 1118090, 1118690, 1119290, 1119890, 1120438, 1121014, 1121567, 1122097, 1122593, 1123127, 1123666, 1124219, 1124716, 1125237, 1125772, 1126244, 1126744, 1127264, 1127780, 1128274]",79,EM,L,R,ITMSR,1.1,
3,400,trial,0,57,57,57,trial,"['S', 'S', 'S', 'S', 'S', 'S', 'S', 'S', 'C', 'C', 'C', 'C', 'C', 'C', 'C', 'C', 'C', 'C', 'C', 'C', 'C', 'C', 'C', 'C']","[1134090, 1134449, 1134781, 1135066, 1135431, 1135872, 1136250, 1136664, 1137082, 1137438, 1137820, 1138227, 1138589, 1138966, 1139308, 1139686, 1140061, 1140438, 1140758, 1141150, 1141518, 1141849, 1142242, 1142639]","[1134171, 1134535, 1134832, 1135166, 1135519, 1135955, 1136364, 1136733, 1137173, 1137533, 1137916, 1138318, 1138681, 1139060, 1139416, 1139764, 1140144, 1140512, 1140869, 1141231, 1141613, 1141943, 1142315, 1142748]","[152, 165, 212, 253, 191, 118, 188, 151, 159, 117, 149, 134, 99, 83, 97, 105, 115, 41, 158, 109, 152, 132, 126, 252]","[1134138, 1134497, 1134803, 1135128, 1135472, 1135920, 1136316, 1136694, 1137115, 1137481, 1137869, 1138271, 1138633, 1139022, 1139351, 1139724, 1140103, 1140465, 1140817, 1141193, 1141563, 1141896, 1142280, 1142700]","[1133938, 1134338, 1134738, 1135138, 1135538, 1135938, 1136338, 1136738, 1137102, 1137458, 1137840, 1138247, 1138609, 1138987, 1139329, 1139706, 1140081, 1140458, 1140779, 1141170, 1141538, 1141869, 1142262, 1142659]",79,EM,L,R,ITMSR,1.1,
4,400,trial,0,58,58,58,trial,"['S', 'S', 'S', 'S', 'S', 'S', 'S', 'S', 'C', 'C', 'C', 'C', 'C', 'C', 'C', 'C', 'C', 'C', 'C', 'C', 'C', 'C', 'C', 'C']","[1148216, 1148471, 1148797, 1149163, 1149562, 1149984, 1150362, 1150778, 1151152, 1151525, 1151899, 1152247, 1152653, 1153000, 1153372, 1153764, 1154158, 1154455, 1154825, 1155158, 1155488, 1155827, 1156163, 1156521]","[1148308, 1148579, 1148876, 1149247, 1149650, 1150042, 1150434, 1150851, 1151230, 1151604, 1151995, 1152363, 1152732, 1153105, 1153489, 1153850, 1154248, 1154584, 1154925, 1155261, 1155571, 1155915, 1156242, 1156615]","[134, 211, 22, 231, 78, 93, 108, 75, 107, 68, 89, 124, 115, 157, 193, 74, 68, 77, 82, 170, 52, 50, 35, 100]","[1148256, 1148533, 1148834, 1149170, 1149616, 1149990, 1150368, 1150785, 1151192, 1151562, 1151938, 1152314, 1152691, 1153063, 1153440, 1153803, 1154199, 1154536, 1154861, 1155211, 1155495, 1155836, 1156171, 1156557]","[1148006, 1148406, 1148806, 1149206, 1149606, 1150006, 1150406, 1150807, 1151172, 1151545, 1151919, 1152267, 1152673, 1153020, 1153392, 1153784, 1154178, 1154476, 1154845, 1155178, 1155508, 1155847, 1156184, 1156541]",79,EM,L,R,ITMSR,1.1,
4,600,trial,0,59,59,59,trial,"['S', 'S', 'S', 'S', 'S', 'S', 'S', 'S', 'C', 'C', 'C', 'C', 'C', 'C', 'C', 'C', 'C', 'C', 'C', 'C', 'C', 'C', 'C', 'C']","[1162070, 1162353, 1163024, 1163611, 1164201, 1164811, 1165425, 1165984, 1166579, 1167168, 1167717, 1168247, 1168743, 1169285, 1169788, 1170316, 1170825, 1171347, 1171901, 1172410, 1172881, 1173393, 1173879, 1174350]","[1162176, 1162454, 1163107, 1163722, 1164312, 1164891, 1165519, 1166090, 1166684, 1167267, 1167819, 1168360, 1168878, 1169393, 1169915, 1170424, 1170927, 1171445, 1171983, 1172514, 1173007, 1173489, 1173997, 1174498]","[115, 175, 176, 179, 221, 159, 159, 236, 209, 58, 32, 16, 155, 178, 248, 208, 193, 123, 0, 128, 198, 133, 191, 117]","[1162126, 1162408, 1163057, 1163662, 1164264, 1164846, 1165475, 1166038, 1166629, 1167201, 1167764, 1168305, 1168823, 1169342, 1169866, 1170374, 1170878, 1171386, 1171932, 1172469, 1172958, 1173446, 1173937, 1174436]","[1161899, 1162498, 1163098, 1163698, 1164298, 1164898, 1165498, 1166098, 1166599, 1167188, 1167737, 1168267, 1168763, 1169305, 1169808, 1170336, 1170845, 1171367, 1171921, 1172430, 1172901, 1173413, 1173899, 1174370]",79,EM,L,R,ITMSR,1.1,
5,600,trial,0,60,60,60,trial,"['S', 'S', 'S', 'S', 'S', 'S', 'S', 'S', 'C', 'C', 'C', 'C', 'C', 'C', 'C', 'C', 'C', 'C', 'C', 'C', 'C', 'C', 'C', 'C']","[1179748, 1180156, 1180822, 1181450, 1182035, 1182623, 1183216, 1183845, 1184450, 1184946, 1185478, 1186024, 1186564, 1187088, 1187646, 1188131, 1188658, 1189157, 1189684, 1190196, 1190722, 1191213, 1191703, 1192174]","[1179849, 1180235, 1180886, 1181537, 1182120, 1182705, 1183305, 1183913, 1184541, 1185048, 1185574, 1186092, 1186634, 1187184, 1187740, 1188247, 1188762, 1189303, 1189775, 1190317, 1190824, 1191289, 1191835, 1192300]","[160, 193, 53, 14, 37, 217, 35, 195, 47, 31, 249, 57, 148, 6, 193, 43, 252, 78, 1, 43, 202, 147, 77, 67]","[1179774, 1180195, 1180851, 1181495, 1182076, 1182666, 1183259, 1183877, 1184489, 1185000, 1185531, 1186058, 1186596, 1187131, 1187688, 1188196, 1188708, 1189238, 1189730, 1190259, 1190774, 1191243, 1191783, 1192247]","[1179731, 1180332, 1180931, 1181531, 1182131, 1182731, 1183331, 1183931, 1184471, 1184966, 1185498, 1186044, 1186584, 1187108, 1187666, 1188151, 1188678, 1189177, 1189704, 1190216, 1190743, 1191233, 1191724, 1192194]",79,EM,L,R,ITMSR,1.1,
2,600,trial,0,61,61,61,trial,"['S', 'S', 'S', 'S', 'S', 'S', 'S', 'C', 'C', 'C', 'C', 'C', 'C', 'C', 'C', 'C', 'C', 'C', 'C', 'C', 'C', 'C', 'C']","[1198075, 1198815, 1199455, 1200046, 1200655, 1201268, 1201827, 1202421, 1202996, 1203576, 1204150, 1204696, 1205235, 1205835, 1206409, 1206967, 1207498, 1208073, 1208633, 1209233, 1209798, 1210328, 1210861]","[1198159, 1198893, 1199544, 1200118, 1200744, 1201345, 1201918, 1202532, 1203090, 1203674, 1204237, 1204799, 1205337, 1205925, 1206511, 1207065, 1207640, 1208165, 1208748, 1209342, 1209897, 1210459, 1210963]","[156, 186, 208, 238, 197, 35, 163, 202, 42, 225, 201, 174, 155, 123, 221, 195, 52, 173, 8, 241, 211, 48, 247]","[1198110, 1198848, 1199491, 1200052, 1200661, 1201274, 1201861, 1202482, 1203001, 1203633, 1204186, 1204753, 1205295, 1205864, 1206462, 1207020, 1207585, 1208119, 1208697, 1209293, 1209858, 1210401, 1210920]","[1197708, 1198308, 1198908, 1199508, 1200108, 1200708, 1201308, 1201908, 1202441, 1203016, 1203596, 1204170, 1204716, 1205255, 1205855, 1206429, 1206987, 1207518, 1208093, 1208653, 1209253, 1209818, 1210348, 1210882]",79,EM,L,R,ITMSR,1.1,
1,400,trial,0,62,62,62,trial,"['S', 'S', 'S', 'S', 'S', 'S', 'S', 'S', 'C', 'C', 'C', 'C', 'C', 'C', 'C', 'C', 'C', 'C', 'C', 'C', 'C', 'C', 'C', 'C']","[1216452, 1216812, 1217080, 1217446, 1217849, 1218242, 1218663, 1219067, 1219474, 1219852, 1220242, 1220619, 1221022, 1221421, 1221798, 1222165, 1222572, 1222939, 1223300, 1223688, 1224057, 1224454, 1224841, 1225194]","[1216521, 1216861, 1217148, 1217515, 1217904, 1218305, 1218719, 1219121, 1219537, 1219931, 1220321, 1220704, 1221093, 1221499, 1221880, 1222254, 1222656, 1223035, 1223421, 1223772, 1224163, 1224531, 1224908, 1225314]","[70, 95, 6, 119, 90, 71, 227, 212, 166, 170, 166, 151, 97, 178, 190, 160, 139, 182, 200, 202, 237, 139, 150, 103]","[1216486, 1216817, 1217085, 1217452, 1217855, 1218248, 1218668, 1219073, 1219480, 1219887, 1220277, 1220656, 1221051, 1221456, 1221834, 1222203, 1222605, 1222999, 1223383, 1223694, 1224116, 1224483, 1224879, 1225254]","[1216284, 1216684, 1217083, 1217483, 1217883, 1218283, 1218683, 1219083, 1219494, 1219872, 1220262, 1220639, 1221042, 1221441, 1221818, 1222185, 1222592, 1222959, 1223320, 1223708, 1224077, 1224474, 1224861, 1225214]",79,EM,L,R,ITMSR,1.1,
0,600,trial,0,63,63,63,trial,"['S', 'S', 'S', 'S', 'S', 'S', 'C', 'C', 'C', 'C', 'C', 'C', 'C', 'C', 'C', 'C', 'C', 'C', 'C', 'C', 'C', 'C']","[1231864, 1232538, 1233089, 1233694, 1234310, 1234839, 1235459, 1236041, 1236641, 1237147, 1237627, 1238134, 1238668, 1239185, 1239702, 1240246, 1240788, 1241269, 1241757, 1242246, 1242669, 1243149]","[1231967, 1232614, 1233154, 1233769, 1234379, 1234906, 1235528, 1236124, 1236706, 1237258, 1237726, 1238226, 1238747, 1239287, 1239802, 1240328, 1240888, 1241413, 1241882, 1242345, 1242785, 1243237]","[5, 216, 201, 228, 192, 151, 29, 55, 251, 198, 238, 6, 232, 253, 8, 9, 210, 1, 1, 209, 246, 28]","[1231867, 1232543, 1233094, 1233698, 1234316, 1234844, 1235464, 1236046, 1236647, 1237207, 1237635, 1238140, 1238676, 1239241, 1239761, 1240253, 1240827, 1241361, 1241825, 1242281, 1242730, 1243155]","[1230730, 1231329, 1231929, 1232529, 1233129, 1233729, 1234329, 1234929, 1235479, 1236061, 1236661, 1237167, 1237647, 1238154, 1238688, 1239205, 1239723, 1240266, 1240808, 1241289, 1241777, 1242266, 1242689, 1243169]",79,EM,L,R,ITMSR,1.1,
3,400,trial,0,64,64,64,trial,"['S', 'S', 'S', 'S', 'S', 'S', 'S', 'C', 'C', 'C', 'C', 'C', 'C', 'C', 'C', 'C', 'C', 'C', 'C', 'C', 'C', 'C', 'C']","[1249211, 1249568, 1249935, 1250328, 1250719, 1251112, 1251481, 1251944, 1252327, 1252684, 1253036, 1253405, 1253778, 1254128, 1254481, 1254846, 1255199, 1255573, 1255924, 1256278, 1256624, 1256993, 1257327]","[1249274, 1249633, 1250007, 1250394, 1250797, 1251173, 1251560, 1251998, 1252400, 1252754, 1253106, 1253483, 1253854, 1254207, 1254575, 1254937, 1255287, 1255654, 1256015, 1256359, 1256717, 1257084, 1257474]","[225, 64, 80, 84, 241, 237, 247, 75, 26, 249, 235, 244, 12, 115, 60, 62, 253, 23, 231, 221, 30, 21, 139]","[1249216, 1249574, 1249940, 1250334, 1250725, 1251119, 1251487, 1251949, 1252334, 1252690, 1253042, 1253411, 1253784, 1254134, 1254488, 1254892, 1255249, 1255579, 1255963, 1256315, 1256663, 1257032, 1257417]","[1248795, 1249195, 1249594, 1249994, 1250394, 1250794, 1251194, 1251594, 1251964, 1252347, 1252704, 1253056, 1253425, 1253798, 1254148, 1254501, 1254866, 1255219, 1255593, 1255944, 1256298, 1256644, 1257013, 1257347]",79,EM,L,R,ITMSR,1.1,
1,400,trial,0,65,65,65,trial,"['S', 'S', 'S', 'S', 'S', 'S', 'S', 'S', 'C', 'C', 'C', 'C', 'C', 'C', 'C', 'C', 'C', 'C', 'C', 'C', 'C', 'C', 'C', 'C']","[1263049, 1263352, 1263651, 1263997, 1264389, 1264766, 1265174, 1265538, 1265991, 1266331, 1266707, 1267073, 1267461, 1267835, 1268213, 1268547, 1268888, 1269255, 1269611, 1269963, 1270365, 1270706, 1271059, 1271404]","[1263125, 1263415, 1263697, 1264052, 1264460, 1264847, 1265240, 1265608, 1266061, 1266406, 1266794, 1267172, 1267522, 1267909, 1268289, 1268633, 1268972, 1269346, 1269702, 1270049, 1270435, 1270797, 1271143, 1271490]","[91, 68, 224, 13, 53, 76, 128, 53, 23, 151, 18, 240, 199, 229, 216, 208, 219, 243, 214, 209, 201, 213, 212, 209]","[1263088, 1263387, 1263659, 1264004, 1264395, 1264773, 1265180, 1265544, 1265996, 1266364, 1266713, 1267113, 1267469, 1267865, 1268221, 1268580, 1268898, 1269294, 1269646, 1269999, 1270394, 1270743, 1271087, 1271434]","[1262845, 1263245, 1263645, 1264045, 1264445, 1264845, 1265245, 1265645, 1266011, 1266351, 1266727, 1267093, 1267481, 1267855, 1268233, 1268568, 1268909, 1269275, 1269632, 1269983, 1270385, 1270726, 1271079, 1271425]",79,EM,L,R,ITMSR,1.1,
5,400,trial,0,66,66,66,trial,"['S', 'S', 'S', 'S', 'S', 'S', 'S', 'S', 'C', 'C', 'C', 'C', 'C', 'C', 'C', 'C', 'C', 'C', 'C', 'C', 'C', 'C', 'C', 'C']","[1277359, 1277614, 1277933, 1278325, 1278724, 1279121, 1279490, 1279911, 1280307, 1280676, 1281022, 1281421, 1281777, 1282138, 1282513, 1282874, 1283247, 1283573, 1283951, 1284308, 1284680, 1285047, 1285361, 1285749]","[1277427, 1277698, 1277993, 1278404, 1278794, 1279196, 1279571, 1279977, 1280396, 1280735, 1281105, 1281486, 1281857, 1282226, 1282599, 1282956, 1283325, 1283693, 1284033, 1284399, 1284774, 1285138, 1285482, 1285868]","[50, 85, 44, 57, 48, 208, 231, 222, 244, 198, 241, 173, 251, 226, 219, 110, 229, 44, 208, 231, 223, 228, 219, 34]","[1277365, 1277620, 1277940, 1278331, 1278730, 1279128, 1279528, 1279918, 1280347, 1280685, 1281060, 1281429, 1281784, 1282168, 1282553, 1282907, 1283282, 1283637, 1283988, 1284353, 1284730, 1285091, 1285419, 1285814]","[1277178, 1277577, 1277977, 1278377, 1278777, 1279177, 1279577, 1279977, 1280327, 1280696, 1281042, 1281441, 1281797, 1282158, 1282533, 1282894, 1283267, 1283593, 1283971, 1284328, 1284700, 1285067, 1285381, 1285769]",79,EM,L,R,ITMSR,1.1,
2,400,trial,0,67,67,67,trial,"['S', 'S', 'S', 'S', 'S', 'S', 'S', 'S', 'C', 'C', 'C', 'C', 'C', 'C', 'C', 'C', 'C', 'C', 'C', 'C', 'C', 'C', 'C', 'C']","[1291500, 1291787, 1292120, 1292490, 1292867, 1293256, 1293640, 1294032, 1294447, 1294824, 1295186, 1295551, 1295931, 1296284, 1296647, 1297038, 1297391, 1297772, 1298094, 1298456, 1298833, 1299164, 1299534, 1299913]","[1291557, 1291862, 1292168, 1292557, 1292938, 1293340, 1293721, 1294109, 1294531, 1294895, 1295264, 1295631, 1295991, 1296363, 1296742, 1297122, 1297500, 1297861, 1298197, 1298518, 1298909, 1299252, 1299610, 1300016]","[65, 244, 89, 55, 39, 18, 253, 183, 231, 160, 231, 245, 137, 221, 28, 3, 255, 234, 5, 119, 175, 219, 180, 28]","[1291505, 1291795, 1292126, 1292495, 1292872, 1293263, 1293646, 1294040, 1294483, 1294854, 1295193, 1295558, 1295961, 1296323, 1296688, 1297078, 1297452, 1297809, 1298146, 1298461, 1298869, 1299211, 1299569, 1299972]","[1291336, 1291736, 1292136, 1292536, 1292936, 1293336, 1293736, 1294136, 1294467, 1294844, 1295206, 1295571, 1295951, 1296304, 1296667, 1297058, 1297411, 1297793, 1298114, 1298477, 1298853, 1299184, 1299554, 1299933]",79,EM,L,R,ITMSR,1.1,
3,600,trial,0,68,68,68,trial,"['S', 'S', 'S', 'S', 'S', 'S', 'S', 'C', 'C', 'C', 'C', 'C', 'C', 'C', 'C', 'C', 'C', 'C', 'C', 'C', 'C', 'C', 'C']","[1305721, 1306674, 1307333, 1307937, 1308530, 1309143, 1309679, 1310323, 1310899, 1311518, 1312078, 1312617, 1313213, 1313748, 1314351, 1314872, 1315422, 1316023, 1316569, 1317114, 1317682, 1318252, 1318756]","[1305820, 1306756, 1307389, 1308006, 1308603, 1309220, 1309762, 1310415, 1311010, 1311593, 1312180, 1312738, 1313299, 1313874, 1314457, 1314991, 1315545, 1316110, 1316640, 1317232, 1317774, 1318324, 1318847]","[49, 224, 201, 186, 81, 83, 202, 165, 218, 104, 128, 177, 149, 5, 248, 4, 0, 114, 102, 0, 170, 108, 93]","[1305774, 1306713, 1307338, 1307969, 1308573, 1309181, 1309719, 1310371, 1310960, 1311550, 1312137, 1312685, 1313250, 1313815, 1314414, 1314932, 1315479, 1316029, 1316576, 1317181, 1317739, 1318287, 1318815]","[1305603, 1306203, 1306803, 1307403, 1308003, 1308603, 1309203, 1309803, 1310343, 1310919, 1311538, 1312098, 1312637, 1313233, 1313768, 1314371, 1314892, 1315442, 1316043, 1316589, 1317134, 1317702, 1318273, 1318776]",79,EM,L,R,ITMSR,1.1,
5,600,trial,0,69,69,69,trial,"['S', 'S', 'S', 'S', 'S', 'S', 'S', 'C', 'C', 'C', 'C', 'C', 'C', 'C', 'C', 'C', 'C', 'C', 'C', 'C', 'C', 'C', 'C']","[1324657, 1325400, 1326049, 1326652, 1327233, 1327825, 1328399, 1329020, 1329525, 1330061, 1330605, 1331111, 1331618, 1332162, 1332703, 1333271, 1333833, 1334363, 1334876, 1335400, 1335840, 1336324, 1336836]","[1324736, 1325480, 1326120, 1326721, 1327299, 1327896, 1328472, 1329100, 1329628, 1330145, 1330673, 1331167, 1331728, 1332231, 1332768, 1333327, 1333874, 1334422, 1334930, 1335491, 1335934, 1336402, 1336935]","[123, 41, 10, 173, 203, 93, 79, 22, 221, 221, 243, 3, 45, 115, 79, 254, 220, 70, 215, 222, 221, 137, 19]","[1324695, 1325407, 1326056, 1326689, 1327265, 1327832, 1328404, 1329061, 1329588, 1330095, 1330639, 1331119, 1331680, 1332197, 1332736, 1333301, 1333846, 1334391, 1334909, 1335452, 1335897, 1336363, 1336894]","[1324317, 1324917, 1325517, 1326117, 1326717, 1327318, 1327917, 1328517, 1329040, 1329545, 1330081, 1330625, 1331131, 1331638, 1332183, 1332723, 1333292, 1333853, 1334383, 1334896, 1335420, 1335860, 1336344, 1336856]",79,EM,L,R,ITMSR,1.1,
4,600,trial,0,70,70,70,trial,"['S', 'S', 'S', 'S', 'S', 'S', 'S', 'S', 'C', 'C', 'C', 'C', 'C', 'C', 'C', 'C', 'C', 'C', 'C', 'C', 'C', 'C', 'C', 'C']","[1342683, 1343026, 1343651, 1344246, 1344861, 1345490, 1346059, 1346653, 1347297, 1347923, 1348489, 1349045, 1349642, 1350202, 1350817, 1351378, 1351954, 1352540, 1353101, 1353643, 1354222, 1354787, 1355282, 1355789]","[1342740, 1343093, 1343726, 1344327, 1344941, 1345577, 1346150, 1346752, 1347385, 1348015, 1348612, 1349154, 1349746, 1350316, 1350915, 1351516, 1352066, 1352646, 1353223, 1353758, 1354336, 1354886, 1355411, 1355977]","[68, 154, 228, 214, 209, 205, 12, 209, 126, 38, 26, 251, 212, 247, 180, 219, 202, 192, 155, 199, 236, 197, 0, 139]","[1342689, 1343057, 1343683, 1344278, 1344897, 1345520, 1346111, 1346710, 1347332, 1347955, 1348564, 1349104, 1349700, 1350259, 1350865, 1351447, 1352006, 1352601, 1353170, 1353702, 1354283, 1354840, 1355352, 1355908]","[1342526, 1343126, 1343726, 1344326, 1344926, 1345526, 1346126, 1346726, 1347317, 1347943, 1348509, 1349065, 1349662, 1350222, 1350837, 1351398, 1351974, 1352560, 1353121, 1353663, 1354242, 1354807, 1355302, 1355809]",79,EM,L,R,ITMSR,1.1,
5,400,trial,0,71,71,71,trial,"['S', 'S', 'S', 'S', 'S', 'S', 'S', 'S', 'C', 'C', 'C', 'C', 'C', 'C', 'C', 'C', 'C', 'C', 'C', 'C', 'C', 'C', 'C', 'C']","[1361793, 1362141, 1362430, 1362775, 1363102, 1363519, 1363901, 1364307, 1364758, 1365121, 1365494, 1365868, 1366262, 1366614, 1367009, 1367391, 1367745, 1368107, 1368467, 1368838, 1369156, 1369510, 1369880, 1370267]","[1361868, 1362214, 1362510, 1362836, 1363202, 1363607, 1363986, 1364400, 1364828, 1365212, 1365586, 1365980, 1366364, 1366748, 1367109, 1367507, 1367848, 1368201, 1368563, 1368931, 1369276, 1369616, 1369976, 1370395]","[43, 50, 116, 125, 98, 140, 176, 188, 147, 142, 173, 200, 208, 196, 183, 213, 175, 224, 184, 169, 198, 226, 226, 26]","[1361829, 1362146, 1362437, 1362782, 1363168, 1363526, 1363941, 1364365, 1364765, 1365153, 1365538, 1365933, 1366323, 1366681, 1367071, 1367454, 1367801, 1368144, 1368511, 1368885, 1369234, 1369566, 1369925, 1370335]","[1361601, 1362000, 1362400, 1362800, 1363201, 1363600, 1364000, 1364400, 1364779, 1365141, 1365514, 1365889, 1366282, 1366634, 1367029, 1367411, 1367766, 1368127, 1368487, 1368858, 1369176, 1369530, 1369901, 1370287]",79,EM,L,R,ITMSR,1.1,
0,600,trial,0,72,72,72,trial,"['S', 'S', 'S', 'S', 'S', 'S', 'S', 'C', 'C', 'C', 'C', 'C', 'C', 'C', 'C', 'C', 'C', 'C', 'C', 'C', 'C', 'C', 'C']","[1376363, 1377039, 1377685, 1378297, 1378872, 1379459, 1380056, 1380687, 1381246, 1381832, 1382338, 1382902, 1383461, 1384051, 1384610, 1385196, 1385740, 1386289, 1386824, 1387379, 1387926, 1388450, 1388959]","[1376414, 1377108, 1377752, 1378360, 1378941, 1379565, 1380130, 1380769, 1381344, 1381915, 1382437, 1382981, 1383547, 1384153, 1384709, 1385289, 1385828, 1386400, 1386898, 1387465, 1388026, 1388565, 1389039]","[48, 99, 84, 77, 111, 5, 205, 216, 230, 153, 137, 99, 143, 222, 196, 166, 106, 241, 133, 199, 227, 242, 174]","[1376370, 1377072, 1377714, 1378331, 1378906, 1379514, 1380088, 1380724, 1381292, 1381873, 1382378, 1382935, 1383502, 1384108, 1384667, 1385247, 1385774, 1386354, 1386856, 1387424, 1387977, 1388522, 1388995]","[1375953, 1376552, 1377153, 1377752, 1378352, 1378952, 1379552, 1380152, 1380707, 1381266, 1381852, 1382359, 1382922, 1383481, 1384071, 1384630, 1385217, 1385760, 1386309, 1386844, 1387399, 1387947, 1388470, 1388979]",79,EM,L,R,ITMSR,1.1,
0,400,trial,0,73,73,73,trial,"['S', 'S', 'S', 'S', 'S', 'S', 'S', 'C', 'C', 'C', 'C', 'C', 'C', 'C', 'C', 'C', 'C', 'C', 'C', 'C', 'C', 'C', 'C']","[1394753, 1395110, 1395461, 1395844, 1396241, 1396652, 1397044, 1397451, 1397825, 1398201, 1398568, 1398939, 1399305, 1399649, 1400011, 1400359, 1400761, 1401114, 1401480, 1401840, 1402163, 1402537, 1402878]","[1394817, 1395166, 1395528, 1395923, 1396314, 1396731, 1397122, 1397532, 1397894, 1398268, 1398661, 1399012, 1399365, 1399726, 1400086, 1400446, 1400840, 1401218, 1401568, 1401939, 1402279, 1402618, 1402995]","[33, 55, 236, 102, 208, 15, 12, 11, 176, 163, 76, 78, 202, 110, 116, 156, 133, 177, 167, 215, 248, 195, 233]","[1394761, 1395118, 1395467, 1395850, 1396247, 1396657, 1397049, 1397456, 1397832, 1398208, 1398616, 1398944, 1399311, 1399680, 1400016, 1400395, 1400792, 1401171, 1401516, 1401895, 1402235, 1402578, 1402941]","[1394314, 1394714, 1395115, 1395514, 1395914, 1396314, 1396714, 1397114, 1397471, 1397846, 1398221, 1398588, 1398959, 1399325, 1399669, 1400031, 1400379, 1400781, 1401134, 1401500, 1401860, 1402183, 1402557, 1402898]",79,EM,L,R,ITMSR,1.1,
0,400,trial,0,74,74,74,trial,"['S', 'S', 'S', 'S', 'S', 'S', 'S', 'C', 'C', 'C', 'C', 'C', 'C', 'C', 'C', 'C', 'C', 'C', 'C', 'C', 'C', 'C', 'C']","[1408727, 1409065, 1409460, 1409867, 1410224, 1410683, 1411053, 1411457, 1411838, 1412199, 1412560, 1412947, 1413335, 1413727, 1414055, 1414452, 1414824, 1415219, 1415596, 1415970, 1416343, 1416684, 1417043]","[1408796, 1409129, 1409529, 1409939, 1410302, 1410756, 1411132, 1411524, 1411915, 1412280, 1412646, 1413025, 1413416, 1413804, 1414177, 1414534, 1414909, 1415307, 1415674, 1416042, 1416423, 1416782, 1417137]","[157, 58, 219, 236, 179, 143, 97, 101, 75, 132, 157, 164, 125, 135, 142, 175, 202, 235, 236, 127, 162, 192, 228]","[1408732, 1409072, 1409467, 1409874, 1410229, 1410691, 1411086, 1411484, 1411871, 1412232, 1412592, 1412984, 1413368, 1413765, 1414122, 1414484, 1414863, 1415261, 1415631, 1416002, 1416379, 1416724, 1417083]","[1408317, 1408717, 1409117, 1409517, 1409917, 1410317, 1410717, 1411117, 1411477, 1411858, 1412219, 1412580, 1412967, 1413355, 1413747, 1414075, 1414472, 1414844, 1415239, 1415616, 1415990, 1416364, 1416705, 1417063]",79,EM,L,R,ITMSR,1.1,
4,400,trial,0,75,75,75,trial,"['S', 'S', 'S', 'S', 'S', 'S', 'S', 'S', 'C', 'C', 'C', 'C', 'C', 'C', 'C', 'C', 'C', 'C', 'C', 'C', 'C', 'C', 'C', 'C']","[1422781, 1423041, 1423366, 1423711, 1424135, 1424491, 1424923, 1425313, 1425674, 1426026, 1426377, 1426733, 1427045, 1427397, 1427744, 1428087, 1428441, 1428791, 1429110, 1429457, 1429813, 1430141, 1430460, 1430816]","[1422849, 1423133, 1423432, 1423797, 1424203, 1424579, 1425008, 1425393, 1425761, 1426114, 1426458, 1426820, 1427149, 1427475, 1427834, 1428175, 1428532, 1428895, 1429212, 1429554, 1429926, 1430278, 1430581, 1430941]","[38, 157, 115, 92, 91, 182, 122, 204, 157, 161, 100, 89, 140, 64, 117, 78, 121, 181, 89, 126, 230, 178, 253, 247]","[1422814, 1423095, 1423373, 1423716, 1424171, 1424527, 1424979, 1425318, 1425713, 1426060, 1426412, 1426769, 1427101, 1427427, 1427789, 1428143, 1428480, 1428856, 1429159, 1429514, 1429876, 1430226, 1430524, 1430880]","[1422588, 1422987, 1423387, 1423788, 1424187, 1424587, 1424987, 1425387, 1425694, 1426046, 1426397, 1426753, 1427065, 1427417, 1427764, 1428107, 1428461, 1428811, 1429130, 1429477, 1429833, 1430161, 1430480, 1430836]",79,EM,L,R,ITMSR,1.1,
2,400,trial,0,76,76,76,trial,"['S', 'S', 'S', 'S', 'S', 'S', 'C', 'C', 'C', 'C', 'C', 'C', 'C', 'C', 'C', 'C', 'C', 'C', 'C', 'C', 'C', 'C']","[1437267, 1437683, 1438072, 1438443, 1438877, 1439226, 1439644, 1440009, 1440372, 1440751, 1441134, 1441441, 1441803, 1442163, 1442491, 1442852, 1443206, 1443564, 1443910, 1444280, 1444641, 1445008]","[1437327, 1437723, 1438142, 1438507, 1438920, 1439304, 1439718, 1440077, 1440462, 1440838, 1441224, 1441566, 1441878, 1442248, 1442582, 1442912, 1443275, 1443644, 1444002, 1444356, 1444719, 1445125]","[160, 145, 243, 170, 128, 208, 92, 82, 43, 36, 47, 185, 110, 189, 86, 66, 130, 134, 95, 54, 42, 241]","[1437274, 1437688, 1438081, 1438451, 1438883, 1439234, 1439649, 1440014, 1440375, 1440785, 1441186, 1441508, 1441837, 1442198, 1442525, 1442859, 1443241, 1443600, 1443961, 1444315, 1444668, 1445075]","[1436520, 1436920, 1437320, 1437720, 1438120, 1438520, 1438920, 1439320, 1439664, 1440029, 1440392, 1440771, 1441154, 1441461, 1441823, 1442183, 1442511, 1442872, 1443226, 1443585, 1443930, 1444300, 1444661, 1445028]",79,EM,L,R,ITMSR,1.1,
2,600,trial,0,77,77,77,trial,"['S', 'S', 'S', 'S', 'S', 'S', 'S', 'S', 'C', 'C', 'C', 'C', 'C', 'C', 'C', 'C', 'C', 'C', 'C', 'C', 'C', 'C', 'C', 'C']","[1450541, 1451018, 1451457, 1452068, 1452689, 1453262, 1453859, 1454467, 1455034, 1455635, 1456189, 1456764, 1457340, 1457954, 1458500, 1459098, 1459691, 1460253, 1460807, 1461383, 1461933, 1462508, 1463077, 1463614]","[1450611, 1451141, 1451536, 1452142, 1452774, 1453352, 1453954, 1454546, 1455151, 1455729, 1456293, 1456886, 1457456, 1458044, 1458615, 1459219, 1459809, 1460375, 1460938, 1461509, 1462060, 1462619, 1463197, 1463746]","[38, 192, 28, 20, 104, 124, 161, 154, 195, 200, 199, 213, 203, 151, 170, 213, 211, 200, 239, 203, 205, 214, 218, 219]","[1450576, 1451092, 1451490, 1452075, 1452726, 1453319, 1453897, 1454503, 1455087, 1455680, 1456251, 1456821, 1457396, 1458007, 1458565, 1459165, 1459759, 1460325, 1460886, 1461453, 1461993, 1462560, 1463127, 1463697]","[1450337, 1450936, 1451536, 1452136, 1452736, 1453336, 1453936, 1454536, 1455054, 1455655, 1456209, 1456784, 1457360, 1457974, 1458520, 1459118, 1459712, 1460273, 1460827, 1461403, 1461953, 1462529, 1463097, 1463634]",79,EM,L,R,ITMSR,1.1,
2,400,trial,0,78,78,78,trial,"['S', 'S', 'S', 'S', 'S', 'S', 'S', 'C', 'C', 'C', 'C', 'C', 'C', 'C', 'C', 'C', 'C', 'C', 'C', 'C', 'C', 'C', 'C']","[1473911, 1474234, 1474617, 1475031, 1475404, 1475795, 1476162, 1476603, 1476958, 1477317, 1477664, 1478021, 1478396, 1478769, 1479134, 1479498, 1479842, 1480204, 1480569, 1480915, 1481254, 1481612, 1481973]","[1474022, 1474326, 1474711, 1475109, 1475487, 1475877, 1476253, 1476672, 1477026, 1477390, 1477735, 1478099, 1478477, 1478849, 1479188, 1479571, 1479932, 1480272, 1480641, 1481000, 1481346, 1481706, 1482080]","[86, 93, 28, 33, 29, 230, 199, 190, 192, 108, 71, 132, 186, 199, 147, 151, 156, 128, 221, 207, 195, 215, 13]","[1473976, 1474277, 1474623, 1475036, 1475411, 1475804, 1476204, 1476612, 1476987, 1477353, 1477696, 1478059, 1478435, 1478807, 1479164, 1479532, 1479901, 1480238, 1480596, 1480958, 1481302, 1481666, 1482032]","[1473506, 1473905, 1474306, 1474706, 1475106, 1475506, 1475906, 1476306, 1476623, 1476978, 1477337, 1477684, 1478041, 1478416, 1478789, 1479154, 1479518, 1479862, 1480224, 1480589, 1480935, 1481274, 1481632, 1481993]",79,EM,L,R,ITMSR,1.1,
1,600,trial,0,79,79,79,trial,"['S', 'S', 'S', 'S', 'S', 'S', 'S', 'C', 'C', 'C', 'C', 'C', 'C', 'C', 'C', 'C', 'C', 'C', 'C', 'C', 'C', 'C', 'C']","[1487815, 1488528, 1489208, 1489771, 1490361, 1490953, 1491560, 1492187, 1492800, 1493360, 1493917, 1494499, 1495019, 1495580, 1496115, 1496672, 1497211, 1497764, 1498276, 1498848, 1499342, 1499878, 1500445]","[1487904, 1488612, 1489276, 1489856, 1490426, 1491031, 1491645, 1492270, 1492891, 1493466, 1494034, 1494591, 1495143, 1495682, 1496212, 1496760, 1497324, 1497874, 1498397, 1498944, 1499459, 1500005, 1500559]","[226, 35, 149, 54, 187, 181, 158, 89, 93, 146, 133, 67, 47, 128, 101, 68, 149, 111, 149, 118, 150, 180, 185]","[1487855, 1488571, 1489235, 1489811, 1490370, 1490987, 1491609, 1492224, 1492846, 1493421, 1493980, 1494538, 1495100, 1495640, 1496173, 1496732, 1497278, 1497825, 1498348, 1498905, 1499404, 1499953, 1500514]","[1487430, 1488029, 1488629, 1489229, 1489829, 1490429, 1491030, 1491629, 1492207, 1492820, 1493380, 1493937, 1494519, 1495040, 1495600, 1496135, 1496692, 1497231, 1497784, 1498296, 1498868, 1499362, 1499898, 1500465]",79,EM,L,R,ITMSR,1.1,
0,400,trial,0,80,80,80,trial,"['S', 'S', 'S', 'S', 'S', 'S', 'C', 'C', 'C', 'C', 'C', 'C', 'C', 'C', 'C', 'C', 'C', 'C', 'C', 'C', 'C', 'C']","[1506764, 1507136, 1507585, 1507934, 1508323, 1508706, 1509139, 1509509, 1509915, 1510295, 1510675, 1511064, 1511451, 1511817, 1512182, 1512574, 1512928, 1513283, 1513675, 1514086, 1514402, 1514740]","[1506824, 1507203, 1507663, 1508018, 1508397, 1508768, 1509204, 1509581, 1509987, 1510380, 1510766, 1511132, 1511531, 1511908, 1512285, 1512650, 1513027, 1513387, 1513759, 1514168, 1514527, 1514855]","[125, 179, 155, 214, 73, 13, 192, 166, 113, 141, 162, 104, 134, 40, 166, 153, 191, 188, 127, 178, 191, 211]","[1506770, 1507141, 1507591, 1507940, 1508360, 1508713, 1509145, 1509547, 1509920, 1510331, 1510722, 1511098, 1511490, 1511843, 1512245, 1512607, 1512985, 1513331, 1513719, 1514131, 1514469, 1514799]","[1505991, 1506391, 1506790, 1507190, 1507590, 1507990, 1508390, 1508790, 1509159, 1509529, 1509935, 1510316, 1510695, 1511085, 1511471, 1511837, 1512202, 1512594, 1512948, 1513304, 1513695, 1514106, 1514422, 1514760]",79,EM,L,R,ITMSR,1.1,
5,600,trial,0,81,81,81,trial,"['S', 'S', 'S', 'S', 'S', 'S', 'S', 'C', 'C', 'C', 'C', 'C', 'C', 'C', 'C', 'C', 'C', 'C', 'C', 'C', 'C', 'C', 'C']","[1520587, 1521305, 1521922, 1522534, 1523142, 1523683, 1524308, 1524929, 1525476, 1526061, 1526648, 1527193, 1527801, 1528330, 1528866, 1529387, 1529931, 1530462, 1531019, 1531539, 1532075, 1532584, 1533063]","[1520674, 1521385, 1521999, 1522600, 1523194, 1523761, 1524370, 1524998, 1525573, 1526133, 1526721, 1527307, 1527876, 1528434, 1528975, 1529485, 1530022, 1530580, 1531101, 1531625, 1532156, 1532684, 1533163]","[186, 223, 97, 88, 63, 24, 107, 59, 171, 144, 115, 192, 92, 155, 187, 172, 92, 198, 146, 94, 119, 161, 166]","[1520636, 1521309, 1521927, 1522538, 1523148, 1523689, 1524339, 1524958, 1525535, 1526095, 1526688, 1527266, 1527836, 1528389, 1528933, 1529446, 1529984, 1530536, 1531078, 1531593, 1532123, 1532647, 1533122]","[1520199, 1520799, 1521399, 1521999, 1522599, 1523200, 1523800, 1524400, 1524950, 1525496, 1526081, 1526668, 1527213, 1527821, 1528350, 1528886, 1529407, 1529951, 1530482, 1531039, 1531559, 1532095, 1532604, 1533083]",79,EM,L,R,ITMSR,1.1,
0,600,trial,0,82,82,82,trial,"['S', 'S', 'S', 'S', 'S', 'S', 'S', 'S', 'C', 'C', 'C', 'C', 'C', 'C', 'C', 'C', 'C', 'C', 'C', 'C', 'C', 'C', 'C', 'C']","[1538909, 1539204, 1539858, 1540496, 1541097, 1541677, 1542258, 1542867, 1543488, 1544085, 1544645, 1545195, 1545758, 1546312, 1546865, 1547440, 1547998, 1548547, 1549079, 1549651, 1550218, 1550748, 1551281, 1551777]","[1538974, 1539276, 1539908, 1540569, 1541140, 1541752, 1542346, 1542932, 1543508, 1544153, 1544723, 1545280, 1545831, 1546392, 1546956, 1547512, 1548087, 1548632, 1549175, 1549722, 1550301, 1550845, 1551360, 1551875]","[30, 217, 29, 20, 204, 66, 17, 237, 192, 26, 101, 101, 117, 129, 173, 124, 165, 131, 179, 111, 110, 145, 146, 159]","[1538916, 1539211, 1539865, 1540503, 1541104, 1541684, 1542265, 1542874, 1543495, 1544092, 1544685, 1545234, 1545795, 1546348, 1546901, 1547447, 1548034, 1548579, 1549120, 1549686, 1550256, 1550809, 1551319, 1551821]","[1538720, 1539320, 1539920, 1540520, 1541121, 1541720, 1542320, 1542920, 1543508, 1544105, 1544665, 1545216, 1545778, 1546332, 1546885, 1547460, 1548018, 1548567, 1549100, 1549671, 1550238, 1550768, 1551301, 1551797]",79,EM,L,R,ITMSR,1.1,
3,600,trial,0,83,83,83,trial,"['S', 'S', 'S', 'S', 'S', 'S', 'S', 'S', 'C', 'C', 'C', 'C', 'C', 'C', 'C', 'C', 'C', 'C', 'C', 'C', 'C', 'C', 'C', 'C']","[1557565, 1557855, 1558474, 1559093, 1559684, 1560280, 1560865, 1561454, 1562065, 1562619, 1563167, 1563675, 1564227, 1564727, 1565279, 1565776, 1566317, 1566804, 1567353, 1567846, 1568352, 1568875, 1569387, 1569912]","[1557643, 1557947, 1558536, 1559155, 1559754, 1560354, 1560919, 1561541, 1562149, 1562716, 1563257, 1563778, 1564331, 1564815, 1565379, 1565878, 1566412, 1566942, 1567478, 1567998, 1568465, 1568972, 1569501, 1570017]","[143, 140, 192, 167, 139, 139, 97, 67, 68, 15, 52, 250, 107, 25, 70, 67, 54, 196, 189, 185, 94, 129, 166, 189]","[1557606, 1557862, 1558482, 1559124, 1559719, 1560315, 1560872, 1561489, 1562100, 1562652, 1563201, 1563705, 1564280, 1564760, 1565321, 1565816, 1566357, 1566879, 1567424, 1567951, 1568414, 1568916, 1569444, 1569964]","[1557362, 1557962, 1558562, 1559162, 1559762, 1560363, 1560962, 1561562, 1562085, 1562639, 1563187, 1563695, 1564248, 1564747, 1565299, 1565796, 1566338, 1566824, 1567373, 1567866, 1568372, 1568896, 1569408, 1569932]",79,EM,L,R,ITMSR,1.1,
5,600,trial,0,84,84,84,trial,"['S', 'S', 'S', 'S', 'S', 'S', 'S', 'S', 'C', 'C', 'C', 'C', 'C', 'C', 'C', 'C', 'C', 'C', 'C', 'C', 'C', 'C', 'C', 'C']","[1575696, 1576052, 1576631, 1577251, 1577866, 1578466, 1578985, 1579630, 1580257, 1580825, 1581407, 1581900, 1582518, 1583130, 1583698, 1584240, 1584788, 1585349, 1585953, 1586533, 1587070, 1587580, 1588111, 1588653]","[1575780, 1576124, 1576723, 1577346, 1577950, 1578591, 1579114, 1579709, 1580348, 1580921, 1581483, 1582022, 1582609, 1583225, 1583808, 1584365, 1584893, 1585455, 1586053, 1586641, 1587178, 1587721, 1588213, 1588773]","[19, 51, 178, 235, 96, 175, 178, 40, 131, 81, 211, 189, 210, 81, 56, 9, 19, 18, 85, 22, 155, 72, 84, 209]","[1575734, 1576089, 1576677, 1577302, 1577900, 1578531, 1579055, 1579667, 1580295, 1580863, 1581444, 1581959, 1582555, 1583169, 1583759, 1584316, 1584841, 1585389, 1586004, 1586594, 1587123, 1587660, 1588163, 1588722]","[1575537, 1576137, 1576737, 1577337, 1577937, 1578537, 1579138, 1579738, 1580277, 1580845, 1581427, 1581920, 1582538, 1583150, 1583718, 1584260, 1584808, 1585369, 1585973, 1586553, 1587090, 1587600, 1588131, 1588673]",79,EM,L,R,ITMSR,1.1,
3,400,trial,0,85,85,85,trial,"['S', 'S', 'S', 'S', 'S', 'S', 'S', 'S', 'C', 'C', 'C', 'C', 'C', 'C', 'C', 'C', 'C', 'C', 'C', 'C', 'C', 'C', 'C', 'C']","[1594556, 1594913, 1595234, 1595510, 1595915, 1596328, 1596744, 1597126, 1597541, 1597929, 1598305, 1598688, 1599046, 1599432, 1599783, 1600171, 1600533, 1600918, 1601275, 1601639, 1602004, 1602390, 1602706, 1603086]","[1594641, 1594983, 1595309, 1595602, 1595980, 1596379, 1596804, 1597186, 1597600, 1598016, 1598380, 1598761, 1599126, 1599499, 1599870, 1600249, 1600614, 1601014, 1601377, 1601737, 1602097, 1602479, 1602822, 1603218]","[150, 105, 58, 100, 146, 59, 23, 18, 255, 3, 10, 28, 51, 51, 163, 58, 53, 120, 200, 253, 210, 187, 198, 79]","[1594595, 1594946, 1595273, 1595563, 1595922, 1596337, 1596752, 1597156, 1597550, 1597970, 1598321, 1598698, 1599083, 1599442, 1599828, 1600176, 1600538, 1600958, 1601321, 1601687, 1602052, 1602426, 1602757, 1603155]","[1594385, 1594785, 1595185, 1595585, 1595985, 1596385, 1596785, 1597186, 1597561, 1597949, 1598325, 1598708, 1599066, 1599452, 1599803, 1600191, 1600553, 1600939, 1601295, 1601659, 1602024, 1602410, 1602726, 1603106]",79,EM,L,R,ITMSR,1.1,
1,400,trial,0,86,86,86,trial,"['S', 'S', 'S', 'S', 'S', 'S', 'C', 'C', 'C', 'C', 'C', 'C', 'C', 'C', 'C', 'C', 'C', 'C', 'C', 'C', 'C', 'C']","[1609306, 1609677, 1610089, 1610451, 1610828, 1611215, 1611680, 1612029, 1612371, 1612730, 1613075, 1613405, 1613746, 1614097, 1614438, 1614769, 1615112, 1615440, 1615731, 1616070, 1616382, 1616698]","[1609364, 1609743, 1610157, 1610531, 1610904, 1611288, 1611742, 1612102, 1612425, 1612791, 1613160, 1613475, 1613820, 1614171, 1614529, 1614858, 1615192, 1615554, 1615845, 1616162, 1616499, 1616856]","[143, 81, 105, 120, 93, 83, 59, 54, 233, 24, 102, 37, 41, 45, 93, 65, 218, 112, 109, 59, 146, 73]","[1609314, 1609714, 1610096, 1610499, 1610872, 1611245, 1611686, 1612069, 1612381, 1612758, 1613115, 1613433, 1613771, 1614125, 1614498, 1614826, 1615169, 1615508, 1615798, 1616129, 1616450, 1616807]","[1608560, 1608961, 1609360, 1609760, 1610160, 1610560, 1610960, 1611360, 1611700, 1612049, 1612391, 1612750, 1613095, 1613425, 1613766, 1614117, 1614458, 1614789, 1615132, 1615460, 1615751, 1616090, 1616402, 1616718]",79,EM,L,R,ITMSR,1.1,
5,400,trial,0,87,87,87,trial,"['S', 'S', 'S', 'S', 'S', 'S', 'S', 'S', 'C', 'C', 'C', 'C', 'C', 'C', 'C', 'C', 'C', 'C', 'C', 'C', 'C', 'C', 'C', 'C']","[1622378, 1622649, 1622924, 1623310, 1623693, 1624052, 1624457, 1624878, 1625307, 1625675, 1626036, 1626425, 1626766, 1627141, 1627462, 1627815, 1628164, 1628523, 1628875, 1629239, 1629572, 1629934, 1630286, 1630620]","[1622451, 1622722, 1623010, 1623375, 1623772, 1624156, 1624548, 1624961, 1625392, 1625740, 1626124, 1626504, 1626857, 1627222, 1627541, 1627897, 1628247, 1628610, 1628954, 1629330, 1629663, 1630022, 1630372, 1630754]","[125, 153, 177, 145, 141, 224, 199, 183, 164, 57, 134, 92, 122, 111, 89, 67, 102, 93, 251, 103, 49, 108, 161, 71]","[1622406, 1622689, 1622961, 1623320, 1623740, 1624109, 1624503, 1624919, 1625345, 1625705, 1626092, 1626463, 1626814, 1627187, 1627488, 1627850, 1628220, 1628558, 1628919, 1629279, 1629611, 1629982, 1630331, 1630702]","[1622170, 1622571, 1622970, 1623370, 1623770, 1624170, 1624570, 1624970, 1625327, 1625695, 1626056, 1626445, 1626786, 1627161, 1627482, 1627835, 1628184, 1628544, 1628895, 1629259, 1629592, 1629954, 1630306, 1630640]",79,EM,L,R,ITMSR,1.1,
2,400,trial,0,88,88,88,trial,"['S', 'S', 'S', 'S', 'S', 'S', 'S', 'S', 'C', 'C', 'C', 'C', 'C', 'C', 'C', 'C', 'C', 'C', 'C', 'C', 'C', 'C', 'C', 'C']","[1636258, 1636520, 1636825, 1637203, 1637583, 1637983, 1638392, 1638800, 1639243, 1639593, 1639971, 1640336, 1640721, 1641098, 1641454, 1641841, 1642188, 1642576, 1642943, 1643286, 1643707, 1644062, 1644421, 1644795]","[1636316, 1636598, 1636892, 1637282, 1637658, 1638061, 1638462, 1638839, 1639308, 1639673, 1640032, 1640413, 1640785, 1641162, 1641535, 1641918, 1642269, 1642664, 1643025, 1643377, 1643787, 1644153, 1644512, 1644886]","[242, 124, 102, 227, 252, 217, 87, 62, 157, 140, 40, 130, 120, 157, 171, 158, 127, 125, 154, 221, 175, 197, 156, 213]","[1636290, 1636556, 1636857, 1637244, 1637620, 1638022, 1638401, 1638805, 1639251, 1639634, 1640004, 1640367, 1640754, 1641133, 1641494, 1641880, 1642223, 1642605, 1642984, 1643335, 1643745, 1644105, 1644470, 1644843]","[1636083, 1636482, 1636882, 1637282, 1637682, 1638082, 1638482, 1638882, 1639263, 1639613, 1639991, 1640356, 1640741, 1641118, 1641474, 1641861, 1642208, 1642596, 1642963, 1643307, 1643727, 1644082, 1644441, 1644815]",79,EM,L,R,ITMSR,1.1,
3,400,trial,0,89,89,89,trial,"['S', 'S', 'S', 'S', 'S', 'S', 'S', 'S', 'C', 'C', 'C', 'C', 'C', 'C', 'C', 'C', 'C', 'C', 'C', 'C', 'C', 'C', 'C', 'C']","[1650424, 1650675, 1650956, 1651335, 1651693, 1652099, 1652492, 1652909, 1653353, 1653688, 1654057, 1654402, 1654772, 1655160, 1655502, 1655871, 1656233, 1656571, 1656896, 1657214, 1657584, 1657889, 1658201, 1658542]","[1650469, 1650741, 1651043, 1651393, 1651789, 1652180, 1652573, 1652995, 1653432, 1653772, 1654127, 1654483, 1654853, 1655241, 1655592, 1655939, 1656303, 1656654, 1656975, 1657309, 1657662, 1658004, 1658327, 1658691]","[43, 226, 0, 222, 20, 227, 233, 202, 99, 117, 145, 120, 164, 118, 90, 128, 160, 110, 92, 158, 99, 248, 26, 110]","[1650434, 1650681, 1650998, 1651342, 1651751, 1652141, 1652534, 1652947, 1653387, 1653726, 1654090, 1654436, 1654810, 1655196, 1655555, 1655904, 1656267, 1656616, 1656935, 1657271, 1657617, 1657952, 1658263, 1658621]","[1650224, 1650623, 1651023, 1651423, 1651823, 1652224, 1652623, 1653023, 1653373, 1653708, 1654077, 1654422, 1654792, 1655180, 1655522, 1655891, 1656253, 1656591, 1656916, 1657234, 1657604, 1657909, 1658221, 1658562]",79,EM,L,R,ITMSR,1.1,
4,400,trial,0,90,90,90,trial,"['S', 'S', 'S', 'S', 'S', 'S', 'S', 'C', 'C', 'C', 'C', 'C', 'C', 'C', 'C', 'C', 'C', 'C', 'C', 'C', 'C', 'C', 'C']","[1664606, 1664973, 1665351, 1665774, 1666170, 1666546, 1666933, 1667350, 1667688, 1668052, 1668406, 1668695, 1669046, 1669400, 1669736, 1670097, 1670429, 1670765, 1671098, 1671449, 1671781, 1672091, 1672441]","[1664678, 1665037, 1665415, 1665855, 1666237, 1666620, 1667006, 1667435, 1667765, 1668108, 1668473, 1668803, 1669108, 1669460, 1669830, 1670164, 1670500, 1670838, 1671174, 1671531, 1671863, 1672182, 1672561]","[51, 93, 3, 93, 44, 41, 204, 111, 44, 0, 125, 219, 203, 19, 231, 66, 60, 113, 63, 230, 195, 153, 76]","[1664647, 1665010, 1665357, 1665815, 1666205, 1666582, 1666965, 1667390, 1667733, 1668082, 1668439, 1668757, 1669080, 1669428, 1669792, 1670130, 1670459, 1670803, 1671149, 1671504, 1671830, 1672147, 1672512]","[1664256, 1664655, 1665055, 1665455, 1665855, 1666255, 1666655, 1667055, 1667371, 1667708, 1668072, 1668426, 1668715, 1669066, 1669421, 1669756, 1670117, 1670449, 1670786, 1671118, 1671469, 1671801, 1672111, 1672461]",79,EM,L,R,ITMSR,1.1,
