pitch,ioi,event,.thisRepN,.thisTrialN,.thisN,.thisIndex,event,tap_types,tap_times,release_times,peak_pressures,peak_times,tone_times,subject,experimenter,register,handedness,experiment,version
,,SPR,0,-1,-1,0,SPR,"['P', 'P', 'P', 'P', 'P', 'P', 'P', 'P', 'P', 'P', 'P', 'P', 'P', 'P', 'P', 'P', 'P', 'P', 'P', 'P', 'P', 'P', 'P', 'P', 'P', 'P', 'P', 'P', 'P', 'P']","[56464, 56825, 57216, 57573, 57961, 58376, 58764, 59143, 59551, 59950, 60323, 60738, 61114, 61519, 61899, 62269, 62633, 62987, 63325, 63679, 64064, 64388, 64781, 65144, 65525, 65918, 66279, 66694, 67040, 67458]","[56573, 56949, 57242, 57681, 58053, 58458, 58849, 59245, 59653, 60057, 60414, 60828, 61211, 61658, 61970, 62358, 62735, 63090, 63429, 63768, 64155, 64412, 64864, 65218, 65602, 65943, 66364, 66714, 67133, 67522]","[187, 236, 43, 144, 160, 195, 210, 39, 62, 201, 132, 162, 84, 164, 226, 89, 91, 174, 103, 59, 223, 227, 158, 1, 127, 70, 132, 90, 213, 161]","[56468, 56829, 57222, 57578, 57967, 58381, 58769, 59149, 59556, 59954, 60328, 60742, 61119, 61569, 61906, 62273, 62639, 62992, 63330, 63684, 64068, 64394, 64785, 65150, 65530, 65924, 66283, 66697, 67044, 67462]",,61,OR,U,R,ITMSR,1.1
0,500,practice,0,0,0,0,practice,"['S', 'S', 'S', 'S', 'S', 'S', 'S', 'C', 'C', 'C', 'C', 'C', 'C', 'C', 'C', 'C', 'C', 'C', 'C', 'C', 'C', 'C', 'C']","[162744, 163284, 163776, 164291, 164783, 165265, 165805, 166334, 166792, 167252, 167706, 168132, 168600, 169174, 169649, 170117, 170616, 171173, 171651, 172113, 172617, 173131, 173630]","[162846, 163390, 163871, 164396, 164868, 165372, 165898, 166402, 166880, 167339, 167803, 168236, 168682, 169238, 169710, 170184, 170706, 171244, 171727, 172204, 172705, 173194, 173658]","[249, 222, 139, 197, 105, 62, 181, 122, 153, 171, 157, 139, 70, 84, 146, 60, 175, 26, 36, 161, 143, 171, 58]","[162800, 163290, 163827, 164296, 164789, 165272, 165810, 166340, 166798, 167260, 167711, 168138, 168606, 169179, 169654, 170122, 170621, 171179, 171656, 172121, 172622, 173136, 173634]","[162384, 162883, 163383, 163884, 164383, 164883, 165383, 165883, 166354, 166812, 167272, 167726, 168152, 168621, 169194, 169669, 170137, 170636, 171193, 171671, 172133, 172637, 173151, 173650]",61,OR,U,R,ITMSR,1.1
3,500,practice,0,1,1,1,practice,"['S', 'S', 'S', 'S', 'S', 'S', 'S', 'C', 'C', 'C', 'C', 'C', 'C', 'C', 'C', 'C', 'C', 'C', 'C', 'C', 'C', 'C', 'C']","[179452, 179946, 180457, 180968, 181479, 181995, 182475, 182974, 183418, 183961, 184473, 185022, 185552, 186058, 186590, 187090, 187623, 188085, 188593, 189143, 189626, 190110, 190592]","[179529, 180025, 180532, 181040, 181544, 182023, 182551, 182994, 183492, 183984, 184544, 185074, 185601, 186109, 186651, 187153, 187695, 188150, 188672, 189168, 189705, 190130, 190653]","[219, 235, 124, 60, 66, 163, 217, 214, 63, 192, 42, 188, 233, 209, 37, 103, 88, 22, 4, 170, 133, 41, 221]","[179458, 179952, 180463, 180975, 181484, 182000, 182481, 182978, 183422, 183966, 184478, 185029, 185559, 186065, 186596, 187097, 187631, 188091, 188600, 189150, 189634, 190116, 190601]","[179003, 179503, 180003, 180503, 181003, 181504, 182003, 182503, 182994, 183438, 183981, 184493, 185042, 185572, 186078, 186610, 187110, 187643, 188105, 188613, 189163, 189646, 190130, 190612]",61,OR,U,R,ITMSR,1.1
4,500,practice,0,2,2,2,practice,"['S', 'S', 'S', 'S', 'S', 'S', 'S', 'C', 'C', 'C', 'C', 'C', 'C', 'C', 'C', 'C', 'C', 'C', 'C', 'C', 'C', 'C', 'C']","[196834, 197296, 197809, 198339, 198815, 199304, 199813, 200296, 200819, 201313, 201818, 202340, 202822, 203321, 203820, 204329, 204813, 205324, 205804, 206316, 206844, 207547, 208051]","[196918, 197383, 197886, 198404, 198866, 199360, 199886, 200383, 200871, 201378, 201900, 202403, 202878, 203367, 203877, 204389, 204892, 205383, 205865, 206384, 206876, 207567, 208142]","[160, 148, 161, 126, 163, 119, 75, 157, 63, 179, 204, 163, 196, 66, 67, 4, 92, 247, 154, 178, 163, 132, 9]","[196881, 197336, 197814, 198346, 198822, 199312, 199818, 200302, 200824, 201318, 201825, 202345, 202827, 203327, 203828, 204337, 204818, 205330, 205811, 206320, 206851, 207555, 208058]","[196386, 196886, 197386, 197886, 198386, 198886, 199386, 199886, 200316, 200839, 201333, 201838, 202360, 202842, 203341, 203840, 204349, 204833, 205344, 205825, 206337, 206864, 207567, 208071]",61,OR,U,R,ITMSR,1.1
5,500,practice,0,3,3,3,practice,"['S', 'S', 'S', 'S', 'S', 'S', 'S', 'C', 'C', 'C', 'C', 'C', 'C', 'C', 'C', 'C', 'C', 'C', 'C', 'C', 'C', 'C', 'C']","[214158, 214648, 215100, 215641, 216121, 216637, 217142, 217681, 218127, 218620, 219146, 219632, 220129, 220619, 221114, 221656, 222162, 222638, 223142, 223642, 224086, 224600, 225087]","[214257, 214735, 215203, 215714, 216200, 216721, 217221, 217724, 218218, 218685, 219217, 219708, 220179, 220709, 221173, 221701, 222233, 222730, 223188, 223690, 224167, 224658, 225167]","[47, 107, 158, 198, 212, 138, 225, 123, 200, 116, 191, 244, 4, 113, 10, 178, 229, 197, 95, 150, 194, 136, 165]","[214164, 214653, 215106, 215644, 216125, 216641, 217146, 217687, 218133, 218628, 219151, 219639, 220135, 220624, 221120, 221661, 222169, 222644, 223151, 223649, 224091, 224606, 225092]","[213697, 214197, 214697, 215197, 215697, 216197, 216697, 217197, 217701, 218147, 218640, 219166, 219652, 220149, 220639, 221134, 221676, 222182, 222658, 223162, 223662, 224106, 224620, 225107]",61,OR,U,R,ITMSR,1.1
2,500,practice,0,4,4,4,practice,"['S', 'S', 'S', 'S', 'S', 'S', 'S', 'C', 'C', 'C', 'C', 'C', 'C', 'C', 'C', 'C', 'C', 'C', 'C', 'C', 'C', 'C', 'C']","[231200, 231763, 232268, 232778, 233291, 233762, 234261, 234803, 235293, 235788, 236263, 236786, 237274, 237741, 238265, 238731, 239223, 239715, 240227, 240735, 241216, 241678, 242174]","[231307, 231830, 232324, 232851, 233347, 233852, 234283, 234823, 235365, 235844, 236354, 236878, 237344, 237857, 238325, 238754, 239243, 239819, 240310, 240755, 241287, 241774, 242196]","[240, 9, 78, 155, 48, 236, 43, 65, 126, 164, 168, 247, 223, 248, 35, 5, 30, 229, 62, 20, 222, 231, 28]","[231242, 231766, 232273, 232782, 233302, 233769, 234267, 234808, 235298, 235792, 236267, 236792, 237277, 237798, 238271, 238738, 239227, 239723, 240231, 240739, 241224, 241683, 242177]","[230846, 231346, 231846, 232346, 232846, 233346, 233846, 234346, 234823, 235313, 235808, 236283, 236806, 237294, 237761, 238285, 238751, 239243, 239735, 240247, 240755, 241236, 241698, 242194]",61,OR,U,R,ITMSR,1.1
1,500,practice,0,5,5,5,practice,"['S', 'S', 'S', 'S', 'S', 'S', 'C', 'C', 'C', 'C', 'C', 'C', 'C', 'C', 'C', 'C', 'C', 'C', 'C', 'C', 'C', 'C']","[248612, 249142, 249651, 250178, 250598, 251095, 251593, 252091, 252635, 253104, 253595, 254086, 254587, 255067, 255553, 256056, 256553, 257028, 257527, 258068, 258524, 258944]","[248692, 249216, 249715, 250234, 250684, 251156, 251671, 252165, 252708, 253187, 253679, 254156, 254640, 255159, 255576, 256135, 256573, 257097, 257549, 258088, 258604, 258964]","[181, 198, 130, 127, 162, 179, 203, 125, 85, 140, 178, 11, 102, 144, 194, 212, 150, 158, 94, 130, 145, 171]","[248622, 249146, 249657, 250183, 250605, 251099, 251598, 252097, 252643, 253109, 253601, 254092, 254595, 255071, 255557, 256060, 256558, 257033, 257531, 258072, 258530, 258949]","[247663, 248163, 248664, 249164, 249664, 250164, 250664, 251164, 251613, 252111, 252655, 253124, 253615, 254106, 254607, 255087, 255574, 256076, 256573, 257048, 257547, 258088, 258544, 258964]",61,OR,U,R,ITMSR,1.1
5,400,trial,0,6,6,6,trial,"['S', 'S', 'S', 'S', 'S', 'S', 'S', 'C', 'C', 'C', 'C', 'C', 'C', 'C', 'C', 'C', 'C', 'C', 'C', 'C', 'C', 'C', 'C']","[310767, 311154, 311457, 311832, 312251, 312625, 313033, 313490, 313836, 314220, 314598, 314993, 315356, 315729, 316113, 316498, 316847, 317244, 317644, 318040, 318409, 318777, 319173]","[310845, 311244, 311558, 311927, 312316, 312702, 313105, 313510, 313896, 314283, 314663, 315060, 315410, 315821, 316192, 316552, 316923, 317315, 317728, 318131, 318499, 318874, 319280]","[239, 95, 99, 235, 180, 208, 145, 106, 42, 122, 168, 6, 87, 164, 205, 104, 52, 253, 210, 111, 13, 13, 200]","[310775, 311191, 311506, 311838, 312256, 312634, 313039, 313497, 313844, 314228, 314603, 314998, 315364, 315737, 316122, 316508, 316853, 317250, 317650, 318086, 318415, 318783, 319179]","[310332, 310731, 311131, 311531, 311931, 312331, 312731, 313132, 313510, 313857, 314241, 314618, 315013, 315376, 315749, 316133, 316518, 316867, 317264, 317664, 318060, 318429, 318797, 319193]",61,OR,U,R,ITMSR,1.1
5,600,trial,0,7,7,7,trial,"['S', 'S', 'S', 'S', 'S', 'S', 'S', 'C', 'C', 'C', 'C', 'C', 'C', 'C', 'C', 'C', 'C', 'C', 'C', 'C', 'C', 'C', 'C']","[325184, 326041, 326440, 327063, 327674, 328287, 328905, 329483, 330076, 330643, 331256, 331814, 332387, 333060, 333675, 334255, 334812, 335369, 335954, 336566, 337139, 337738, 338321]","[325279, 326062, 326530, 327147, 327755, 328385, 328981, 329536, 330163, 330699, 331328, 331905, 332476, 333117, 333696, 334332, 334868, 335444, 336045, 336588, 337208, 337792, 338342]","[60, 242, 104, 55, 90, 21, 81, 17, 42, 186, 67, 108, 127, 185, 153, 14, 246, 70, 156, 49, 75, 27, 153]","[325229, 326045, 326446, 327068, 327680, 328291, 328910, 329490, 330083, 330649, 331262, 331820, 332393, 333065, 333680, 334260, 334818, 335374, 335962, 336573, 337145, 337743, 338327]","[324711, 325310, 325910, 326510, 327110, 327710, 328310, 328910, 329503, 330096, 330663, 331276, 331834, 332407, 333080, 333696, 334275, 334832, 335389, 335974, 336586, 337159, 337758, 338341]",61,OR,U,R,ITMSR,1.1
5,600,trial,0,8,8,8,trial,"['S', 'S', 'S', 'S', 'S', 'S', 'C', 'C', 'C', 'C', 'C', 'C', 'C', 'C', 'C', 'C', 'C', 'C', 'C', 'C', 'C', 'C']","[344837, 345487, 346035, 346647, 347229, 347800, 348428, 348997, 349583, 350183, 350822, 351395, 351985, 352579, 353117, 353666, 354317, 354893, 355439, 356041, 356639, 357196]","[344936, 345542, 346106, 346722, 347298, 347823, 348448, 349017, 349640, 350203, 350887, 351474, 352065, 352649, 353156, 353686, 354337, 354946, 355503, 356061, 356699, 357216]","[46, 17, 207, 189, 222, 87, 182, 11, 11, 18, 213, 31, 81, 232, 114, 246, 212, 37, 135, 195, 96, 56]","[344883, 345493, 346040, 346653, 347233, 347806, 348429, 349001, 349589, 350192, 350828, 351444, 351990, 352587, 353125, 353672, 354322, 354898, 355443, 356045, 356647, 357202]","[343698, 344298, 344898, 345498, 346098, 346698, 347298, 347898, 348448, 349017, 349603, 350203, 350842, 351415, 352005, 352600, 353137, 353686, 354337, 354913, 355459, 356061, 356659, 357216]",61,OR,U,R,ITMSR,1.1
3,400,trial,0,9,9,9,trial,"['S', 'S', 'S', 'S', 'S', 'S', 'C', 'C', 'C', 'C', 'C', 'C', 'C', 'C', 'C', 'C', 'C', 'C', 'C', 'C', 'C', 'C']","[363817, 364292, 364694, 365076, 365460, 365867, 366290, 366638, 367020, 367379, 367761, 368118, 368517, 368876, 369268, 369639, 369988, 370359, 370760, 371138, 371590, 371926]","[363918, 364386, 364775, 365166, 365481, 365962, 366312, 366658, 367043, 367399, 367781, 368141, 368590, 368900, 369292, 369660, 370071, 370420, 370829, 371203, 371610, 371978]","[209, 198, 133, 147, 81, 150, 152, 142, 10, 195, 133, 168, 195, 183, 195, 125, 20, 193, 122, 165, 142, 208]","[363878, 364300, 364700, 365083, 365465, 365874, 366296, 366644, 367024, 367383, 367765, 368122, 368522, 368882, 369274, 369644, 369994, 370365, 370765, 371143, 371595, 371932]","[362820, 363220, 363620, 364020, 364420, 364820, 365220, 365620, 366310, 366658, 367040, 367399, 367781, 368138, 368537, 368897, 369288, 369659, 370008, 370379, 370780, 371159, 371610, 371946]",61,OR,U,R,ITMSR,1.1
1,400,trial,0,10,10,10,trial,"['S', 'S', 'S', 'S', 'S', 'C', 'C', 'C', 'C', 'C', 'C', 'C', 'C', 'C', 'C', 'C', 'C', 'C', 'C', 'C', 'C']","[378753, 379173, 379549, 379950, 380314, 380735, 381162, 381553, 381936, 382311, 382682, 383085, 383485, 383860, 384207, 384631, 385002, 385383, 385770, 386130, 386522]","[378825, 379243, 379569, 379975, 380392, 380758, 381182, 381617, 382014, 382381, 382742, 383162, 383546, 383936, 384230, 384687, 385094, 385441, 385844, 386197, 386606]","[221, 35, 4, 176, 45, 181, 50, 51, 157, 233, 151, 208, 142, 222, 246, 93, 4, 184, 218, 163, 231]","[378758, 379177, 379554, 379956, 380319, 380741, 381167, 381560, 381940, 382317, 382689, 383092, 383492, 383866, 384214, 384638, 385008, 385389, 385777, 386136, 386528]","[377634, 378033, 378433, 378833, 379233, 379633, 380034, 380434, 380755, 381182, 381573, 381956, 382331, 382702, 383106, 383505, 383880, 384227, 384651, 385022, 385403, 385790, 386150, 386542]",61,OR,U,R,ITMSR,1.1
2,600,trial,0,11,11,11,trial,"['S', 'S', 'S', 'S', 'S', 'S', 'C', 'C', 'C', 'C', 'C', 'C', 'C', 'C', 'C', 'C', 'C', 'C', 'C', 'C', 'C', 'C']","[392932, 393605, 394168, 394756, 395379, 395978, 396522, 397081, 397660, 398292, 398825, 399430, 400003, 400569, 401078, 401629, 402276, 402840, 403418, 404000, 404537, 405131]","[393026, 393677, 394237, 394836, 395400, 396075, 396599, 397167, 397685, 398357, 398916, 399501, 400086, 400652, 401162, 401698, 402349, 402863, 403440, 404022, 404630, 405153]","[207, 50, 228, 235, 252, 168, 193, 29, 114, 214, 66, 78, 166, 173, 177, 167, 73, 138, 225, 104, 112, 177]","[392936, 393610, 394174, 394761, 395384, 395983, 396529, 397088, 397664, 398298, 398832, 399435, 400009, 400574, 401084, 401634, 402284, 402845, 403424, 404005, 404542, 405137]","[391862, 392462, 393062, 393662, 394262, 394862, 395462, 396062, 396542, 397101, 397680, 398312, 398845, 399450, 400023, 400589, 401098, 401649, 402296, 402861, 403438, 404020, 404557, 405151]",61,OR,U,R,ITMSR,1.1
3,400,trial,0,12,12,12,trial,"['S', 'S', 'S', 'S', 'S', 'S', 'S', 'C', 'C', 'C', 'C', 'C', 'C', 'C', 'C', 'C', 'C', 'C', 'C', 'C', 'C', 'C', 'C']","[411312, 411660, 412064, 412437, 412853, 413263, 413655, 414046, 414411, 414845, 415220, 415592, 415987, 416399, 416785, 417187, 417589, 417954, 418731, 419084, 419571, 419935, 420357]","[411395, 411756, 412145, 412525, 412944, 413371, 413779, 414137, 414476, 414901, 415246, 415669, 416051, 416468, 416846, 417207, 417609, 417978, 418754, 419156, 419591, 419958, 420379]","[124, 197, 161, 220, 161, 224, 36, 149, 66, 211, 7, 53, 57, 216, 188, 158, 120, 199, 143, 24, 22, 164, 48]","[411353, 411666, 412070, 412441, 412859, 413268, 413660, 414051, 414417, 414851, 415226, 415599, 415997, 416406, 416789, 417190, 417594, 417960, 418736, 419090, 419572, 419941, 420364]","[410932, 411332, 411732, 412132, 412532, 412932, 413332, 413732, 414066, 414431, 414865, 415240, 415612, 416007, 416419, 416805, 417207, 417609, 417974, 418751, 419104, 419591, 419955, 420377]",61,OR,U,R,ITMSR,1.1
0,400,trial,0,13,13,13,trial,"['S', 'S', 'S', 'S', 'S', 'S', 'C', 'C', 'C', 'C', 'C', 'C', 'C', 'C', 'C', 'C', 'C', 'C', 'C', 'C', 'C', 'C']","[426606, 426978, 427378, 427759, 428121, 428507, 428931, 429327, 429729, 430127, 430522, 430941, 431368, 431758, 432123, 432515, 432912, 433331, 433724, 434082, 434467, 434888]","[426700, 427089, 427479, 427868, 428230, 428643, 429026, 429409, 429801, 430205, 430589, 431001, 431388, 431810, 432144, 432594, 433000, 433351, 433798, 434166, 434557, 434913]","[41, 11, 119, 204, 181, 251, 178, 205, 73, 78, 92, 73, 242, 80, 254, 69, 189, 17, 88, 102, 93, 52]","[426613, 426984, 427383, 427764, 428125, 428511, 428937, 429335, 429735, 430133, 430529, 430948, 431371, 431764, 432129, 432521, 432917, 433335, 433730, 434088, 434472, 434893]","[425828, 426227, 426627, 427027, 427427, 427827, 428227, 428627, 428951, 429347, 429749, 430147, 430542, 430961, 431388, 431778, 432143, 432535, 432932, 433351, 433744, 434102, 434487, 434908]",61,OR,U,R,ITMSR,1.1
4,600,trial,0,14,14,14,trial,"['S', 'S', 'S', 'S', 'S', 'S', 'C', 'C', 'C', 'C', 'C', 'C', 'C', 'C', 'C', 'C', 'C', 'C', 'C', 'C', 'C', 'C']","[441474, 442067, 442686, 443287, 443894, 444477, 445073, 445673, 446328, 446902, 447516, 448115, 448714, 449246, 449845, 450442, 451045, 451643, 452323, 452916, 453483, 454007]","[441558, 442173, 442707, 443310, 443980, 444551, 445152, 445744, 446425, 446979, 447602, 448196, 448814, 449328, 449867, 450526, 451117, 451664, 452379, 452989, 453574, 454089]","[222, 218, 124, 77, 118, 88, 86, 168, 58, 143, 230, 135, 75, 63, 143, 7, 89, 116, 108, 86, 76, 166]","[441478, 442074, 442690, 443292, 443900, 444483, 445080, 445679, 446337, 446908, 447521, 448121, 448720, 449252, 449851, 450449, 451052, 451650, 452329, 452923, 453489, 454013]","[440274, 440875, 441474, 442074, 442674, 443274, 443874, 444474, 445093, 445693, 446348, 446922, 447536, 448135, 448734, 449266, 449865, 450462, 451065, 451663, 452343, 452936, 453504, 454027]",61,OR,U,R,ITMSR,1.1
4,600,trial,0,15,15,15,trial,"['S', 'S', 'S', 'S', 'S', 'S', 'C', 'C', 'C', 'C', 'C', 'C', 'C', 'C', 'C', 'C', 'C', 'C', 'C', 'C', 'C', 'C']","[460558, 461194, 461796, 462402, 462955, 463538, 464164, 464794, 465373, 465913, 466511, 467125, 467694, 468314, 468909, 469511, 470165, 470786, 471351, 471928, 472509, 473126]","[460656, 461303, 461885, 462515, 463101, 463681, 464284, 464881, 465464, 466054, 466617, 467205, 467773, 468378, 468989, 469573, 470189, 470807, 471440, 471980, 472534, 473146]","[104, 99, 31, 163, 204, 203, 194, 129, 78, 128, 226, 117, 79, 32, 76, 53, 241, 178, 79, 12, 152, 107]","[460565, 461201, 461802, 462408, 462960, 463543, 464171, 464800, 465379, 465921, 466518, 467131, 467701, 468321, 468916, 469517, 470171, 470792, 471358, 471936, 472515, 473129]","[459437, 460037, 460637, 461237, 461837, 462437, 463037, 463637, 464184, 464814, 465393, 465933, 466531, 467145, 467714, 468334, 468929, 469531, 470185, 470806, 471371, 471948, 472529, 473146]",61,OR,U,R,ITMSR,1.1
1,400,trial,0,16,16,16,trial,"['S', 'S', 'S', 'S', 'S', 'C', 'C', 'C', 'C', 'C', 'C', 'C', 'C', 'C', 'C', 'C', 'C', 'C', 'C', 'C', 'C']","[479777, 480181, 480627, 480976, 481351, 481770, 482148, 482564, 483002, 483380, 483773, 484136, 484518, 484876, 485286, 485671, 486057, 486462, 486815, 487219, 487566]","[479882, 480295, 480705, 480996, 481456, 481795, 482235, 482628, 483023, 483467, 483793, 484157, 484538, 484896, 485365, 485755, 486152, 486547, 486942, 487291, 487676]","[179, 116, 195, 23, 112, 65, 94, 2, 177, 72, 190, 25, 30, 14, 231, 143, 92, 59, 81, 206, 50]","[479782, 480186, 480633, 480982, 481356, 481774, 482153, 482571, 483009, 483387, 483779, 484143, 484524, 484881, 485293, 485679, 486067, 486468, 486821, 487226, 487573]","[478641, 479040, 479440, 479840, 480240, 480641, 481040, 481440, 481790, 482168, 482584, 483022, 483400, 483793, 484156, 484538, 484896, 485306, 485691, 486077, 486482, 486835, 487239, 487586]",61,OR,U,R,ITMSR,1.1
3,600,trial,0,17,17,17,trial,"['S', 'S', 'S', 'S', 'S', 'S', 'S', 'S', 'C', 'C', 'C', 'C', 'C', 'C', 'C', 'C', 'C', 'C', 'C', 'C', 'C', 'C', 'C', 'C']","[494041, 494668, 494770, 495284, 495877, 495983, 496445, 497084, 497634, 498219, 498808, 499799, 500282, 500844, 501478, 502054, 502591, 503122, 503689, 504263, 504809, 505376, 505944, 506489]","[494140, 494690, 494790, 495305, 495902, 496003, 496557, 497161, 497696, 498239, 498867, 499898, 500366, 500946, 501528, 502074, 502670, 503222, 503768, 504349, 504889, 505396, 506031, 506535]","[97, 244, 56, 254, 5, 3, 7, 153, 204, 72, 109, 39, 246, 173, 214, 11, 165, 231, 105, 136, 222, 74, 131, 177]","[494046, 494674, 494770, 495290, 495882, 495983, 496451, 497090, 497637, 498221, 498841, 499851, 500288, 500848, 501484, 502060, 502597, 503128, 503695, 504268, 504817, 505381, 505951, 506494]","[492890, 493490, 494090, 494690, 495290, 495890, 496490, 497090, 497654, 498239, 498828, 499819, 500302, 500865, 501498, 502074, 502611, 503142, 503709, 504283, 504829, 505396, 505964, 506509]",61,OR,U,R,ITMSR,1.1
2,600,trial,0,18,18,18,trial,"['S', 'S', 'S', 'S', 'S', 'S', 'C', 'C', 'C', 'C', 'C', 'C', 'C', 'C', 'C', 'C', 'C', 'C', 'C', 'C', 'C', 'C']","[513746, 513846, 514354, 514961, 515569, 516132, 516720, 517281, 517841, 518423, 519050, 519604, 520135, 520668, 521248, 521799, 522382, 522932, 523458, 524020, 524594, 525207]","[513766, 513867, 514464, 515072, 515675, 516160, 516816, 517404, 517939, 518510, 519121, 519689, 520222, 520744, 521268, 521910, 522450, 522996, 523539, 524087, 524680, 525300]","[1, 157, 142, 243, 50, 103, 2, 158, 158, 182, 50, 76, 121, 241, 224, 170, 84, 146, 144, 157, 23, 100]","[513751, 513846, 514358, 514966, 515575, 516136, 516725, 517285, 517847, 518428, 519055, 519610, 520140, 520675, 521254, 521804, 522424, 522938, 523465, 524025, 524601, 525214]","[511997, 512598, 513197, 513797, 514397, 514997, 515597, 516197, 516740, 517301, 517861, 518444, 519070, 519624, 520155, 520688, 521268, 521819, 522402, 522952, 523479, 524040, 524614, 525228]",61,OR,U,R,ITMSR,1.1
2,400,trial,0,19,19,19,trial,"['S', 'S', 'S', 'S', 'S', 'S', 'S', 'C', 'C', 'C', 'C', 'C', 'C', 'C', 'C', 'C', 'C', 'C', 'C', 'C', 'C', 'C', 'C']","[531077, 531375, 531696, 532094, 532449, 532868, 533243, 533619, 534039, 534421, 534823, 535185, 535561, 535970, 536389, 536817, 537235, 537637, 538004, 538389, 538756, 539151, 539590]","[531133, 531459, 531828, 532187, 532550, 532957, 533346, 533738, 534125, 534528, 534918, 535272, 535630, 536095, 536483, 536841, 537319, 537715, 538095, 538482, 538869, 539268, 539663]","[205, 228, 138, 139, 90, 187, 123, 221, 172, 126, 162, 112, 142, 44, 7, 202, 6, 15, 79, 73, 80, 48, 179]","[531081, 531416, 531700, 532101, 532457, 532875, 533249, 533624, 534045, 534430, 534830, 535189, 535568, 535977, 536395, 536823, 537239, 537645, 538009, 538395, 538762, 539156, 539595]","[530556, 530956, 531356, 531757, 532157, 532557, 532957, 533357, 533639, 534060, 534441, 534843, 535205, 535581, 535990, 536409, 536837, 537255, 537657, 538024, 538409, 538776, 539171, 539610]",61,OR,U,R,ITMSR,1.1
0,600,trial,0,20,20,20,trial,"['S', 'S', 'S', 'S', 'S', 'S', 'C', 'C', 'C', 'C', 'C', 'C', 'C', 'C', 'C', 'C', 'C', 'C', 'C', 'C', 'C', 'C']","[546387, 547008, 547613, 548191, 548774, 549323, 549969, 550548, 551134, 551744, 552293, 552865, 553498, 554035, 554631, 555217, 555799, 556340, 556939, 557579, 558208, 558736]","[546481, 547143, 547746, 548329, 548868, 549455, 550071, 550619, 551154, 551803, 552389, 552957, 553579, 554164, 554740, 555297, 555905, 556444, 557015, 557638, 558290, 558758]","[52, 224, 12, 108, 56, 79, 6, 32, 219, 177, 173, 154, 210, 26, 229, 238, 251, 111, 145, 25, 4, 79]","[546395, 547012, 547695, 548197, 548782, 549329, 549975, 550553, 551140, 551751, 552339, 552871, 553504, 554041, 554637, 555225, 555806, 556407, 556945, 557584, 558214, 558742]","[545243, 545843, 546443, 547043, 547643, 548243, 548843, 549443, 549989, 550568, 551154, 551764, 552313, 552885, 553518, 554055, 554651, 555237, 555820, 556360, 556959, 557599, 558228, 558756]",61,OR,U,R,ITMSR,1.1
0,400,trial,0,21,21,21,trial,"['S', 'S', 'S', 'S', 'S', 'S', 'C', 'C', 'C', 'C', 'C', 'C', 'C', 'C', 'C', 'C', 'C', 'C', 'C', 'C', 'C', 'C']","[564886, 565230, 565606, 565985, 566402, 566761, 567231, 567605, 568005, 568380, 568771, 569149, 569511, 569907, 570272, 570637, 571021, 571409, 571777, 572175, 572583, 572963]","[564984, 565350, 565712, 566100, 566504, 566901, 567300, 567711, 568121, 568500, 568915, 569292, 569646, 570037, 570397, 570764, 571136, 571435, 571898, 572195, 572668, 572984]","[221, 8, 143, 137, 161, 206, 203, 4, 245, 41, 78, 169, 204, 137, 180, 137, 15, 137, 71, 150, 232, 44]","[564926, 565234, 565610, 565990, 566408, 566766, 567238, 567611, 568012, 568387, 568865, 569156, 569518, 569913, 570277, 570642, 571027, 571415, 571783, 572181, 572590, 572969]","[564121, 564521, 564921, 565321, 565721, 566121, 566521, 566921, 567251, 567625, 568025, 568400, 568792, 569169, 569531, 569927, 570292, 570657, 571041, 571429, 571797, 572195, 572603, 572983]",61,OR,U,R,ITMSR,1.1
4,400,trial,0,22,22,22,trial,"['S', 'S', 'S', 'S', 'S', 'S', 'C', 'C', 'C', 'C', 'C', 'C', 'C', 'C', 'C', 'C', 'C', 'C', 'C', 'C', 'C', 'C']","[579251, 579643, 580005, 580409, 580779, 581185, 581606, 582017, 582385, 582775, 583161, 583512, 583946, 584298, 584664, 585017, 585384, 585775, 586171, 586555, 586913, 587297]","[579349, 579761, 580092, 580520, 580862, 581289, 581706, 582100, 582473, 582883, 583182, 583597, 584031, 584322, 584740, 585105, 585410, 585889, 586194, 586577, 586937, 587317]","[231, 132, 247, 92, 70, 118, 161, 114, 38, 77, 173, 19, 17, 253, 217, 36, 98, 7, 131, 139, 60, 175]","[579256, 579648, 580013, 580415, 580785, 581190, 581611, 582021, 582391, 582780, 583165, 583518, 583953, 584303, 584670, 585024, 585390, 585781, 586175, 586561, 586918, 587301]","[578495, 578895, 579295, 579695, 580096, 580495, 580895, 581295, 581626, 582037, 582405, 582795, 583181, 583532, 583966, 584318, 584684, 585037, 585404, 585795, 586191, 586575, 586933, 587317]",61,OR,U,R,ITMSR,1.1
3,600,trial,0,23,23,23,trial,"['S', 'S', 'S', 'S', 'S', 'S', 'S', 'S', 'C', 'C', 'C', 'C', 'C', 'C', 'C', 'C', 'C', 'C', 'C', 'C', 'C', 'C', 'C', 'C', 'C']","[593409, 593905, 594539, 594642, 595093, 595686, 596311, 596958, 597524, 598069, 598680, 599300, 599864, 600470, 601053, 601688, 602289, 602899, 603484, 604094, 604664, 604769, 605272, 605891, 606460]","[593429, 594030, 594562, 594662, 595171, 595708, 596417, 596978, 597608, 598171, 598701, 599386, 599886, 600492, 601073, 601709, 602309, 602919, 603595, 604114, 604689, 604802, 605353, 605912, 606551]","[34, 73, 224, 181, 249, 90, 72, 50, 153, 176, 253, 108, 34, 135, 195, 110, 88, 101, 239, 231, 11, 244, 212, 54, 5]","[593410, 593910, 594543, 594642, 595099, 595690, 596316, 596961, 597531, 598074, 598687, 599304, 599869, 600476, 601058, 601692, 602294, 602903, 603490, 604099, 604669, 604769, 605277, 605897, 606466]","[592758, 593358, 593958, 594558, 595159, 595758, 596358, 596958, 597544, 598089, 598701, 599320, 599884, 600491, 601073, 601708, 602309, 602919, 603504, 604114, 604684, 605292, 605912, 606480]",61,OR,U,R,ITMSR,1.1
2,400,trial,0,24,24,24,trial,"['S', 'S', 'S', 'S', 'S', 'S', 'S', 'C', 'C', 'C', 'C', 'C', 'C', 'C', 'C', 'C', 'C', 'C', 'C', 'C', 'C', 'C', 'C']","[612469, 612825, 613227, 613587, 613967, 614367, 614830, 615228, 615638, 616022, 616401, 616813, 617219, 617615, 618003, 618391, 618805, 619164, 619618, 619997, 620375, 620742, 621155]","[612542, 612897, 613306, 613687, 614046, 614483, 614850, 615303, 615729, 616125, 616511, 616918, 617332, 617711, 618108, 618513, 618938, 619272, 619728, 620093, 620475, 620864, 621272]","[196, 138, 108, 152, 138, 80, 168, 191, 182, 179, 105, 4, 71, 181, 28, 159, 103, 99, 16, 22, 70, 99, 32]","[612474, 612831, 613233, 613593, 613974, 614373, 614835, 615232, 615643, 616026, 616408, 616820, 617226, 617621, 618008, 618397, 618809, 619170, 619624, 620003, 620380, 620748, 621161]","[612046, 612446, 612846, 613246, 613646, 614046, 614446, 614846, 615248, 615658, 616042, 616421, 616834, 617239, 617635, 618023, 618412, 618825, 619184, 619638, 620017, 620395, 620762, 621175]",61,OR,U,R,ITMSR,1.1
1,600,trial,0,25,25,25,trial,"['S', 'S', 'S', 'S', 'S', 'S', 'S', 'S', 'S', 'C', 'C', 'C', 'C', 'C', 'C', 'C', 'C', 'C', 'C', 'C', 'C', 'C', 'C', 'C', 'C']","[627215, 627315, 627820, 627922, 628426, 629035, 629551, 630153, 630764, 631361, 631948, 632592, 633174, 633790, 634355, 635000, 635531, 636082, 636648, 637255, 637832, 638407, 638945, 639508, 640091]","[627235, 627335, 627842, 627942, 628540, 629141, 629722, 630280, 630920, 631512, 632062, 632706, 633291, 633871, 634379, 635023, 635617, 636168, 636734, 637381, 637940, 638524, 639073, 639610, 640191]","[147, 75, 133, 148, 208, 128, 204, 143, 101, 87, 89, 140, 81, 211, 147, 219, 12, 230, 198, 189, 56, 60, 151, 19, 203]","[627220, 627321, 627824, 627922, 628432, 629042, 629555, 630159, 630769, 631368, 631954, 632596, 633180, 633797, 634362, 635006, 635536, 636087, 636653, 637262, 637836, 638412, 638953, 639513, 640097]","[626652, 627251, 627851, 628451, 629051, 629651, 630251, 630851, 631382, 631968, 632612, 633194, 633810, 634375, 635020, 635551, 636102, 636668, 637275, 637852, 638427, 638965, 639528, 640111]",61,OR,U,R,ITMSR,1.1
4,400,trial,0,26,26,26,trial,"['S', 'S', 'S', 'S', 'S', 'S', 'S', 'C', 'C', 'C', 'C', 'C', 'C', 'C', 'C', 'C', 'C', 'C', 'C', 'C', 'C', 'C', 'C']","[645840, 646248, 646623, 647022, 647418, 647781, 648195, 648600, 649071, 649448, 649851, 650238, 650617, 650984, 651426, 651771, 652224, 652658, 653032, 653417, 653830, 654204, 654581]","[645962, 646316, 646718, 647103, 647538, 647931, 648312, 648688, 649156, 649550, 649943, 650322, 650703, 651072, 651497, 651877, 652244, 652748, 653125, 653534, 653941, 654325, 654706]","[168, 56, 140, 154, 95, 124, 218, 81, 13, 128, 232, 70, 199, 252, 83, 52, 90, 198, 60, 84, 119, 117, 223]","[645924, 646255, 646629, 647028, 647425, 647785, 648199, 648607, 649078, 649453, 649859, 650245, 650622, 650990, 651433, 651779, 652232, 652662, 653037, 653424, 653895, 654211, 654587]","[645525, 645924, 646324, 646724, 647124, 647524, 647924, 648324, 648621, 649091, 649468, 649871, 650258, 650637, 651004, 651446, 651791, 652244, 652678, 653052, 653437, 653850, 654224, 654601]",61,OR,U,R,ITMSR,1.1
0,600,trial,0,27,27,27,trial,"['S', 'S', 'S', 'S', 'S', 'S', 'S', 'C', 'C', 'C', 'C', 'C', 'C', 'C', 'C', 'C', 'C', 'C', 'C', 'C', 'C', 'C', 'C']","[660490, 661100, 661693, 662304, 662923, 663527, 664082, 664691, 665263, 665899, 666464, 667035, 667627, 668243, 668852, 669435, 670029, 670583, 671215, 671775, 672388, 672977, 673530]","[660599, 661226, 661836, 662412, 663017, 663630, 664207, 664787, 665376, 665952, 666555, 667059, 667648, 668263, 668874, 669521, 670131, 670693, 671299, 671861, 672455, 673102, 673635]","[249, 169, 164, 50, 216, 85, 246, 141, 146, 69, 52, 137, 238, 77, 138, 28, 7, 57, 101, 78, 249, 107, 217]","[660497, 661104, 661774, 662310, 662931, 663531, 664087, 664697, 665268, 665905, 666469, 667041, 667632, 668251, 668861, 669440, 670091, 670589, 671222, 671783, 672397, 672983, 673538]","[660000, 660599, 661199, 661799, 662400, 663000, 663600, 664200, 664711, 665283, 665919, 666484, 667055, 667648, 668263, 668872, 669455, 670049, 670603, 671235, 671795, 672408, 672997, 673550]",61,OR,U,R,ITMSR,1.1
1,600,trial,0,28,28,28,trial,"['S', 'S', 'S', 'S', 'S', 'S', 'C', 'C', 'C', 'C', 'C', 'C', 'C', 'C', 'C', 'C', 'C', 'C', 'C', 'C', 'C', 'C', 'C']","[680067, 680700, 681282, 681927, 682509, 683091, 683717, 684312, 684962, 685556, 686144, 686751, 687328, 687926, 688464, 689053, 689649, 690232, 690332, 690791, 691375, 691947, 692564]","[680182, 680825, 681403, 681947, 682600, 683223, 683807, 684441, 684986, 685654, 686243, 686845, 687449, 688056, 688582, 689146, 689669, 690252, 690352, 690898, 691397, 692066, 692588]","[225, 111, 245, 53, 136, 193, 167, 154, 78, 104, 181, 159, 7, 58, 43, 50, 121, 64, 31, 59, 175, 18, 134]","[680131, 680708, 681287, 681931, 682514, 683169, 683723, 684318, 684969, 685603, 686152, 686759, 687335, 687932, 688472, 689057, 689656, 690240, 690332, 690800, 691382, 691952, 692573]","[678978, 679578, 680178, 680778, 681378, 681978, 682578, 683179, 683737, 684333, 684982, 685576, 686164, 686771, 687348, 687946, 688484, 689073, 689669, 690252, 690811, 691395, 691968, 692584]",61,OR,U,R,ITMSR,1.1
5,400,trial,0,29,29,29,trial,"['S', 'S', 'S', 'S', 'S', 'S', 'S', 'C', 'C', 'C', 'C', 'C', 'C', 'C', 'C', 'C', 'C', 'C', 'C', 'C', 'C', 'C', 'C']","[698416, 698802, 699193, 699606, 700007, 700434, 700828, 701218, 701615, 702032, 702411, 702806, 703174, 703562, 703942, 704331, 704714, 705108, 705515, 705898, 706289, 706689, 707062]","[698487, 698882, 699311, 699729, 700116, 700532, 700944, 701351, 701739, 702136, 702524, 702917, 703319, 703714, 704091, 704474, 704848, 705226, 705660, 706042, 706446, 706818, 707187]","[101, 139, 113, 132, 8, 117, 165, 205, 103, 10, 80, 249, 154, 28, 51, 151, 67, 0, 57, 82, 95, 136, 255]","[698455, 698808, 699198, 699611, 700013, 700438, 700833, 701223, 701620, 702039, 702416, 702811, 703179, 703569, 703948, 704337, 704720, 705115, 705521, 705904, 706294, 706695, 707069]","[698085, 698485, 698885, 699285, 699685, 700085, 700485, 700886, 701238, 701635, 702052, 702431, 702826, 703194, 703582, 703962, 704351, 704734, 705128, 705536, 705918, 706309, 706709, 707082]",61,OR,U,R,ITMSR,1.1
1,600,trial,0,30,30,30,trial,"['S', 'S', 'S', 'S', 'S', 'S', 'S', 'C', 'C', 'C', 'C', 'C', 'C', 'C', 'C', 'C', 'C', 'C', 'C', 'C', 'C', 'C', 'C']","[716374, 717095, 717735, 718339, 718919, 719520, 720183, 720807, 721404, 721967, 722606, 723177, 723749, 724364, 724957, 725567, 726163, 726756, 727362, 727963, 728511, 729127, 729736]","[716462, 717201, 717877, 718474, 719064, 719638, 720284, 720885, 721523, 722062, 722697, 723286, 723875, 724491, 725080, 725664, 726270, 726898, 727464, 728062, 728617, 729226, 729760]","[149, 210, 64, 120, 50, 20, 72, 11, 199, 103, 231, 31, 3, 123, 39, 115, 199, 176, 26, 121, 183, 34, 193]","[716417, 717102, 717742, 718345, 718991, 719526, 720190, 720815, 721460, 721973, 722612, 723183, 723757, 724369, 724964, 725571, 726168, 726761, 727369, 727969, 728516, 729134, 729743]","[716025, 716625, 717225, 717826, 718426, 719026, 719626, 720226, 720827, 721424, 721987, 722626, 723197, 723769, 724384, 724977, 725587, 726183, 726776, 727383, 727983, 728531, 729147, 729756]",61,OR,U,R,ITMSR,1.1
0,400,trial,0,31,31,31,trial,"['S', 'S', 'S', 'S', 'S', 'S', 'S', 'C', 'C', 'C', 'C', 'C', 'C', 'C', 'C', 'C', 'C', 'C', 'C', 'C', 'C', 'C', 'C']","[736154, 736598, 736985, 737374, 737741, 738161, 738264, 738554, 738993, 739371, 739761, 740165, 740534, 740943, 741322, 741750, 742094, 742524, 742903, 743289, 743738, 744113, 744511]","[736291, 736693, 737088, 737463, 737856, 738184, 738284, 738676, 739078, 739488, 739888, 740250, 740630, 741053, 741454, 741846, 742202, 742607, 743018, 743418, 743798, 744221, 744619]","[209, 184, 178, 205, 154, 135, 152, 146, 35, 71, 73, 20, 19, 54, 175, 69, 79, 214, 76, 109, 148, 54, 96]","[736233, 736604, 736989, 737379, 737746, 738166, 738264, 738560, 739000, 739377, 739767, 740170, 740540, 740950, 741327, 741756, 742100, 742532, 742909, 743294, 743744, 744118, 744517]","[735432, 735832, 736232, 736632, 737032, 737432, 737832, 738232, 738574, 739013, 739391, 739781, 740185, 740554, 740963, 741342, 741770, 742114, 742544, 742923, 743309, 743758, 744133, 744531]",61,OR,U,R,ITMSR,1.1
3,600,trial,0,32,32,32,trial,"['S', 'S', 'S', 'S', 'S', 'S', 'S', 'C', 'C', 'C', 'C', 'C', 'C', 'C', 'C', 'C', 'C', 'C', 'C', 'C', 'C', 'C', 'C']","[750564, 751218, 751820, 752398, 752989, 753638, 754246, 754831, 755409, 756015, 756619, 757209, 757824, 758404, 758984, 759514, 760115, 760726, 761283, 761871, 762504, 763148, 763637]","[750670, 751316, 751939, 752497, 753131, 753779, 754356, 754949, 755501, 756112, 756639, 757230, 757850, 758503, 759084, 759616, 760206, 760822, 761358, 761933, 762583, 763204, 763727]","[175, 213, 127, 168, 184, 161, 18, 250, 251, 216, 232, 4, 41, 23, 246, 10, 21, 179, 96, 154, 18, 109, 196]","[750569, 751223, 751825, 752402, 752993, 753646, 754252, 754837, 755416, 756022, 756624, 757215, 757829, 758409, 758991, 759521, 760120, 760731, 761294, 761879, 762512, 763154, 763644]","[750091, 750691, 751291, 751891, 752491, 753091, 753691, 754291, 754851, 755429, 756035, 756639, 757229, 757844, 758424, 759004, 759534, 760135, 760747, 761304, 761891, 762524, 763168, 763657]",61,OR,U,R,ITMSR,1.1
1,600,trial,0,33,33,33,trial,"['S', 'S', 'S', 'S', 'S', 'S', 'S', 'C', 'C', 'C', 'C', 'C', 'C', 'C', 'C', 'C', 'C', 'C', 'C', 'C', 'C', 'C', 'C']","[769309, 769996, 770662, 771262, 771876, 772494, 773038, 773601, 774189, 774813, 775419, 776022, 776611, 777188, 777750, 778351, 778950, 779580, 780156, 780763, 781348, 781922, 782547]","[769354, 770132, 770784, 771366, 771944, 772587, 773139, 773712, 774209, 774835, 775497, 776100, 776673, 777276, 777861, 778452, 779034, 779600, 780272, 780879, 781422, 781942, 782649]","[108, 67, 37, 245, 67, 15, 202, 153, 95, 253, 139, 93, 162, 88, 51, 23, 0, 86, 171, 187, 42, 6, 79]","[769327, 770003, 770667, 771268, 771884, 772504, 773044, 773607, 774194, 774819, 775425, 776028, 776619, 777194, 777756, 778359, 778954, 779586, 780162, 780768, 781356, 781928, 782553]","[768954, 769554, 770154, 770754, 771354, 771954, 772554, 773154, 773621, 774209, 774833, 775439, 776042, 776631, 777208, 777771, 778371, 778970, 779600, 780176, 780783, 781368, 781942, 782567]",61,OR,U,R,ITMSR,1.1
4,600,trial,0,34,34,34,trial,"['S', 'S', 'S', 'S', 'S', 'S', 'S', 'C', 'C', 'C', 'C', 'C', 'C', 'C', 'C', 'C', 'C', 'C', 'C', 'C', 'C', 'C', 'C']","[788251, 788978, 789574, 790225, 790857, 791439, 792018, 792668, 793203, 793781, 794317, 794884, 795478, 796077, 796640, 797212, 797795, 798369, 798979, 799593, 800125, 800723, 801340]","[788324, 789079, 789708, 790336, 790941, 791541, 792146, 792756, 793311, 793872, 794424, 795000, 795534, 796163, 796723, 797284, 797883, 798436, 799052, 799642, 800214, 800809, 801427]","[0, 30, 73, 49, 40, 131, 213, 217, 82, 98, 10, 125, 95, 239, 91, 30, 143, 70, 63, 9, 172, 215, 187]","[788298, 788984, 789580, 790231, 790864, 791444, 792027, 792675, 793209, 793792, 794324, 794894, 795484, 796084, 796647, 797220, 797804, 798376, 798989, 799601, 800182, 800766, 801348]","[787893, 788492, 789092, 789692, 790292, 790892, 791492, 792092, 792688, 793223, 793801, 794337, 794904, 795498, 796097, 796660, 797232, 797815, 798389, 798999, 799613, 800145, 800743, 801360]",61,OR,U,R,ITMSR,1.1
3,600,trial,0,35,35,35,trial,"['S', 'S', 'S', 'S', 'S', 'S', 'S', 'C', 'C', 'C', 'C', 'C', 'C', 'C', 'C', 'C', 'C', 'C', 'C', 'C', 'C', 'C', 'C']","[807506, 808086, 808740, 809390, 809980, 810550, 811123, 811705, 812384, 812962, 813488, 814074, 814616, 815182, 815752, 816359, 816921, 817534, 818131, 818679, 819244, 819833, 820400]","[807593, 808183, 808844, 809484, 810074, 810622, 811211, 811776, 812453, 812982, 813549, 814168, 814708, 815272, 815828, 816429, 816941, 817554, 818217, 818775, 819264, 819936, 820468]","[224, 149, 146, 55, 55, 127, 178, 115, 169, 53, 146, 248, 226, 238, 226, 200, 56, 56, 164, 195, 69, 221, 164]","[807552, 808092, 808774, 809398, 810016, 810555, 811164, 811709, 812426, 812963, 813520, 814084, 814660, 815225, 815762, 816369, 816921, 817542, 818139, 818736, 819248, 819893, 820445]","[806988, 807587, 808187, 808787, 809388, 809987, 810587, 811187, 811725, 812404, 812982, 813508, 814094, 814637, 815202, 815772, 816379, 816941, 817554, 818151, 818699, 819264, 819853, 820420]",61,OR,U,R,ITMSR,1.1
5,600,trial,0,36,36,36,trial,"['S', 'S', 'S', 'S', 'S', 'S', 'S', 'C', 'C', 'C', 'C', 'C', 'C', 'C', 'C', 'C', 'C', 'C', 'C', 'C', 'C', 'C', 'C', 'C', 'C', 'C', 'C', 'C', 'C']","[826567, 827115, 827706, 828305, 828921, 829500, 830076, 830710, 830810, 831329, 831915, 832486, 832586, 833093, 833195, 833670, 833770, 834291, 834872, 835514, 836085, 836185, 836656, 836756, 837196, 837843, 838408, 838941, 839549]","[826658, 827225, 827726, 828417, 829026, 829617, 830214, 830730, 830830, 831408, 832007, 832506, 832608, 833113, 833215, 833690, 833790, 834313, 834892, 835581, 836105, 836205, 836676, 836776, 837307, 837911, 838428, 839023, 839640]","[44, 16, 54, 104, 179, 202, 181, 141, 143, 142, 172, 110, 133, 26, 43, 147, 42, 173, 226, 235, 248, 53, 241, 144, 23, 83, 46, 58, 204]","[826573, 827122, 827711, 828311, 828926, 829507, 830083, 830718, 830810, 831337, 831921, 832493, 832586, 833099, 833195, 833679, 833770, 834297, 834878, 835520, 836093, 836185, 836662, 836756, 837202, 837890, 838414, 838947, 839557]","[825980, 826580, 827181, 827781, 828381, 828981, 829581, 830181, 830730, 831349, 831935, 832506, 833113, 833690, 834311, 834892, 835534, 836105, 836676, 837216, 837863, 838428, 838961, 839569]",61,OR,U,R,ITMSR,1.1
0,600,trial,0,37,37,37,trial,"['S', 'S', 'S', 'S', 'S', 'S', 'S', 'S', 'S', 'C', 'C', 'C', 'C', 'C', 'C', 'C', 'C', 'C', 'C', 'C', 'C', 'C', 'C', 'C', 'C', 'C']","[845795, 846365, 846921, 847024, 847607, 847707, 848157, 848815, 849432, 850002, 850102, 851184, 851773, 852424, 853016, 853585, 854188, 854742, 855315, 855946, 856592, 857165, 857739, 858289, 858849, 859443]","[845904, 846486, 846944, 847055, 847627, 847727, 848321, 848939, 849528, 850022, 850122, 851320, 851890, 852520, 853120, 853716, 854285, 854910, 855474, 856051, 856678, 857267, 857909, 858376, 858981, 859567]","[147, 128, 131, 138, 88, 195, 213, 125, 79, 133, 131, 16, 99, 23, 133, 111, 174, 223, 34, 154, 235, 238, 100, 31, 33, 79]","[845800, 846371, 846927, 847024, 847612, 847707, 848163, 848822, 849439, 850009, 850102, 851188, 851777, 852465, 853021, 853591, 854194, 854828, 855321, 855951, 856596, 857168, 857742, 858293, 858854, 859448]","[845279, 845879, 846479, 847079, 847679, 848279, 848879, 849479, 850022, 851204, 851793, 852444, 853037, 853605, 854208, 854762, 855335, 855966, 856612, 857185, 857759, 858309, 858869, 859463]",61,OR,U,R,ITMSR,1.1
5,600,trial,0,38,38,38,trial,"['S', 'S', 'S', 'S', 'S', 'S', 'S', 'C', 'C', 'C', 'C', 'C', 'C', 'C', 'C', 'C', 'C', 'C', 'C', 'C', 'C', 'C', 'C', 'C']","[865731, 866364, 866999, 867546, 868199, 868729, 869373, 869986, 870577, 871139, 871729, 872358, 872934, 873542, 874076, 874176, 874673, 875285, 875910, 876491, 877071, 877680, 878280, 878895]","[865850, 866497, 867136, 867667, 868313, 868868, 869515, 870100, 870699, 871277, 871749, 872463, 872954, 873563, 874096, 874198, 874694, 875415, 875930, 876511, 877091, 877783, 878367, 878915]","[255, 122, 189, 133, 230, 94, 17, 0, 32, 214, 179, 148, 138, 63, 168, 244, 97, 98, 187, 109, 167, 171, 47, 114]","[865793, 866370, 867004, 867552, 868204, 868734, 869381, 869994, 870583, 871146, 871735, 872365, 872939, 873547, 874081, 874176, 874677, 875289, 875914, 876495, 877077, 877687, 878286, 878899]","[865255, 865854, 866454, 867054, 867654, 868254, 868854, 869454, 870006, 870597, 871159, 871749, 872378, 872954, 873562, 874096, 874693, 875305, 875930, 876511, 877091, 877700, 878300, 878915]",61,OR,U,R,ITMSR,1.1
3,400,trial,0,39,39,39,trial,"['S', 'S', 'S', 'S', 'S', 'S', 'C', 'C', 'C', 'C', 'C', 'C', 'C', 'C', 'C', 'C', 'C', 'C', 'C', 'C', 'C', 'C', 'C']","[885107, 885437, 885814, 886248, 886600, 887045, 887397, 887813, 888195, 888593, 888996, 889365, 889782, 890174, 890572, 890672, 890936, 891359, 891723, 892104, 892492, 892874, 893263]","[885180, 885549, 885938, 886353, 886736, 887135, 887571, 887909, 888338, 888716, 889094, 889480, 889895, 890301, 890592, 890694, 891079, 891466, 891841, 892210, 892596, 893010, 893400]","[173, 228, 172, 232, 221, 60, 11, 237, 127, 230, 17, 85, 23, 73, 250, 254, 114, 244, 235, 160, 9, 125, 218]","[885113, 885441, 885819, 886254, 886604, 887051, 887401, 887819, 888201, 888599, 889001, 889371, 889788, 890179, 890578, 890672, 890941, 891366, 891730, 892112, 892498, 892879, 893271]","[884276, 884676, 885076, 885476, 885876, 886276, 886676, 887076, 887417, 887833, 888215, 888613, 889016, 889385, 889802, 890194, 890592, 890956, 891379, 891743, 892124, 892512, 892894, 893283]",61,OR,U,R,ITMSR,1.1
2,400,trial,0,40,40,40,trial,"['S', 'S', 'S', 'S', 'S', 'C', 'C', 'C', 'C', 'C', 'C', 'C', 'C', 'C', 'C', 'C', 'C', 'C', 'C', 'C', 'C']","[900134, 900535, 900953, 901351, 901746, 902111, 902535, 902897, 903282, 903695, 904093, 904498, 904865, 905260, 905668, 906078, 906498, 906871, 907267, 907622, 908029]","[900231, 900639, 901040, 901476, 901843, 902237, 902606, 902991, 903360, 903781, 904137, 904584, 904938, 905369, 905781, 906098, 906577, 906964, 907287, 907699, 908173]","[94, 46, 92, 151, 7, 140, 206, 20, 206, 209, 132, 189, 145, 51, 102, 31, 84, 230, 81, 93, 142]","[900141, 900538, 900958, 901356, 901752, 902117, 902540, 902902, 903288, 903701, 904097, 904504, 904872, 905266, 905675, 906083, 906503, 906877, 907273, 907628, 908114]","[898988, 899387, 899787, 900187, 900587, 900987, 901387, 901787, 902131, 902555, 902917, 903302, 903715, 904113, 904518, 904885, 905280, 905688, 906098, 906518, 906891, 907287, 907642, 908049]",61,OR,U,R,ITMSR,1.1
5,400,trial,0,41,41,41,trial,"['S', 'S', 'S', 'S', 'S', 'C', 'C', 'C', 'C', 'C', 'C', 'C', 'C', 'C', 'C', 'C', 'C', 'C', 'C', 'C', 'C']","[914958, 915383, 915770, 916151, 916524, 916917, 917306, 917704, 918112, 918498, 918850, 919261, 919651, 920043, 920451, 920830, 921234, 921662, 922067, 922460, 922802]","[915057, 915458, 915878, 916242, 916638, 917046, 917423, 917829, 918162, 918583, 918932, 919345, 919732, 920140, 920572, 920951, 921369, 921766, 922174, 922548, 922928]","[188, 249, 222, 210, 237, 184, 138, 62, 134, 186, 182, 26, 229, 133, 204, 199, 99, 108, 73, 255, 138]","[914962, 915390, 915775, 916156, 916529, 916922, 917311, 917710, 918118, 918505, 918856, 919267, 919657, 920051, 920458, 920839, 921241, 921668, 922131, 922467, 922812]","[913805, 914204, 914605, 915005, 915405, 915805, 916205, 916605, 916937, 917326, 917724, 918132, 918518, 918871, 919281, 919671, 920064, 920471, 920850, 921254, 921682, 922087, 922480, 922822]",61,OR,U,R,ITMSR,1.1
1,400,trial,0,42,42,42,trial,"['S', 'S', 'S', 'S', 'S', 'S', 'C', 'C', 'C', 'C', 'C', 'C', 'C', 'C', 'C', 'C', 'C', 'C', 'C', 'C', 'C', 'C']","[929313, 929707, 930112, 930537, 930913, 931335, 931742, 932150, 932542, 932922, 933320, 933666, 934057, 934454, 934856, 935254, 935605, 935991, 936360, 936759, 937169, 937582]","[929410, 929806, 930221, 930627, 931006, 931411, 931822, 932202, 932614, 933000, 933381, 933773, 934134, 934523, 934947, 935323, 935703, 936145, 936472, 936779, 937296, 937663]","[239, 48, 0, 118, 233, 255, 237, 59, 91, 39, 33, 38, 227, 33, 194, 2, 138, 119, 146, 251, 187, 22]","[929362, 929714, 930118, 930542, 930919, 931341, 931748, 932154, 932547, 932928, 933327, 933704, 934066, 934458, 934892, 935261, 935611, 935996, 936366, 936763, 937176, 937587]","[928606, 929006, 929406, 929806, 930206, 930606, 931006, 931406, 931762, 932170, 932562, 932942, 933340, 933686, 934077, 934474, 934876, 935274, 935625, 936011, 936380, 936779, 937189, 937602]",61,OR,U,R,ITMSR,1.1
4,400,trial,0,43,43,43,trial,"['S', 'S', 'S', 'S', 'S', 'S', 'S', 'C', 'C', 'C', 'C', 'C', 'C', 'C', 'C', 'C', 'C', 'C', 'C', 'C', 'C', 'C', 'C']","[943512, 943935, 944292, 944757, 945133, 945548, 945938, 946337, 946741, 947126, 947504, 947909, 948287, 948666, 949078, 949454, 949823, 950210, 950616, 951059, 951404, 951776, 952142]","[943626, 944019, 944424, 944844, 945290, 945660, 946083, 946433, 946855, 947205, 947656, 948029, 948403, 948773, 949203, 949592, 949939, 950355, 950784, 951132, 951508, 951878, 952292]","[238, 82, 107, 198, 115, 0, 158, 168, 183, 135, 212, 92, 220, 133, 107, 135, 151, 240, 152, 167, 244, 167, 2]","[943562, 943941, 944364, 944765, 945139, 945554, 945945, 946344, 946748, 947133, 947512, 947976, 948294, 948673, 949085, 949463, 949829, 950217, 950622, 951064, 951411, 951782, 952150]","[943212, 943612, 944012, 944412, 944813, 945213, 945613, 946013, 946357, 946761, 947146, 947524, 947929, 948307, 948686, 949098, 949474, 949843, 950231, 950636, 951079, 951425, 951796, 952162]",61,OR,U,R,ITMSR,1.1
0,400,trial,0,44,44,44,trial,"['S', 'S', 'S', 'S', 'S', 'S', 'S', 'C', 'C', 'C', 'C', 'C', 'C', 'C', 'C', 'C', 'C', 'C', 'C', 'C', 'C', 'C', 'C']","[958232, 958550, 958907, 959320, 959713, 960074, 960441, 960869, 961232, 961630, 962015, 962415, 962787, 963191, 963603, 963989, 964377, 964762, 965138, 965506, 965906, 966301, 966708]","[958294, 958651, 958996, 959398, 959807, 960190, 960575, 960960, 961342, 961769, 962149, 962532, 962908, 963311, 963678, 964119, 964491, 964895, 965260, 965611, 966020, 966426, 966839]","[71, 224, 190, 179, 3, 172, 226, 113, 166, 165, 56, 127, 110, 21, 194, 33, 24, 96, 76, 151, 94, 12, 46]","[958238, 958555, 958912, 959326, 959720, 960079, 960447, 960874, 961239, 961635, 962021, 962420, 962793, 963198, 963605, 963994, 964383, 964766, 965143, 965511, 965911, 966307, 966714]","[957761, 958160, 958560, 958960, 959361, 959760, 960160, 960560, 960889, 961252, 961650, 962035, 962435, 962807, 963211, 963623, 964009, 964397, 964782, 965158, 965526, 965926, 966321, 966728]",61,OR,U,R,ITMSR,1.1
4,600,trial,0,45,45,45,trial,"['S', 'S', 'S', 'S', 'S', 'S', 'S', 'C', 'C', 'C', 'C', 'C', 'C', 'C', 'C', 'C', 'C', 'C', 'C', 'C', 'C', 'C', 'C']","[972825, 973472, 974098, 974696, 975318, 975944, 976534, 977116, 977711, 978327, 978966, 979647, 980225, 980843, 981446, 982094, 982670, 983306, 983849, 984409, 985001, 985592, 986192]","[972935, 973552, 974244, 974809, 975415, 976020, 976612, 977218, 977798, 978424, 979049, 979708, 980248, 980922, 981529, 982142, 982761, 983376, 983954, 984509, 985049, 985669, 986248]","[95, 57, 119, 83, 34, 227, 4, 74, 162, 106, 134, 41, 114, 105, 53, 70, 137, 177, 42, 135, 112, 193, 53]","[972890, 973477, 974103, 974700, 975324, 975951, 976540, 977123, 977716, 978333, 978971, 979653, 980230, 980848, 981451, 982099, 982677, 983312, 983856, 984414, 985008, 985597, 986199]","[972379, 972979, 973579, 974179, 974779, 975379, 975979, 976579, 977136, 977731, 978348, 978987, 979667, 980245, 980864, 981466, 982114, 982690, 983326, 983869, 984429, 985021, 985612, 986212]",61,OR,U,R,ITMSR,1.1
4,400,trial,0,46,46,46,trial,"['S', 'S', 'S', 'S', 'S', 'S', 'C', 'C', 'C', 'C', 'C', 'C', 'C', 'C', 'C', 'C', 'C', 'C', 'C', 'C', 'C', 'C']","[992723, 993092, 993456, 993855, 994276, 994682, 995096, 995526, 995906, 996302, 996670, 997053, 997464, 997829, 998239, 998620, 999016, 999399, 999814, 1000180, 1000550, 1000919]","[992805, 993169, 993571, 993946, 994392, 994776, 995198, 995628, 996016, 996383, 996784, 997185, 997561, 997956, 998334, 998735, 999129, 999508, 999865, 1000270, 1000672, 1000939]","[2, 249, 179, 165, 72, 86, 74, 11, 68, 148, 175, 153, 24, 35, 43, 247, 201, 70, 20, 51, 31, 12]","[992730, 993095, 993461, 993861, 994282, 994688, 995102, 995533, 995910, 996308, 996678, 997097, 997470, 997833, 998243, 998624, 999023, 999403, 999817, 1000185, 1000557, 1000924]","[991966, 992366, 992766, 993166, 993566, 993966, 994366, 994766, 995117, 995546, 995927, 996322, 996690, 997073, 997484, 997849, 998259, 998640, 999036, 999419, 999834, 1000200, 1000570, 1000939]",61,OR,U,R,ITMSR,1.1
2,600,trial,0,47,47,47,trial,"['S', 'S', 'S', 'S', 'S', 'S', 'S', 'S', 'C', 'C', 'C', 'C', 'C', 'C', 'C', 'C', 'C', 'C', 'C', 'C', 'C', 'C', 'C', 'C']","[1007895, 1008421, 1009018, 1009550, 1009651, 1010179, 1010279, 1010757, 1011387, 1011941, 1012513, 1013099, 1013704, 1014299, 1014891, 1015429, 1016010, 1016514, 1017093, 1017680, 1018273, 1018798, 1019387, 1019993]","[1007997, 1008441, 1009160, 1009571, 1009697, 1010199, 1010332, 1010868, 1011494, 1011961, 1012628, 1013227, 1013794, 1014322, 1014967, 1015528, 1016113, 1016646, 1017210, 1017765, 1018293, 1018928, 1019437, 1020054]","[219, 108, 156, 178, 124, 4, 229, 62, 32, 188, 28, 176, 87, 156, 39, 230, 82, 115, 167, 190, 228, 155, 106, 244]","[1007902, 1008428, 1009108, 1009554, 1009651, 1010184, 1010299, 1010763, 1011393, 1011945, 1012519, 1013106, 1013709, 1014302, 1014894, 1015435, 1016018, 1016521, 1017098, 1017684, 1018278, 1018805, 1019394, 1019998]","[1006664, 1007264, 1007864, 1008464, 1009064, 1009665, 1010264, 1010864, 1011407, 1011961, 1012533, 1013120, 1013724, 1014319, 1014912, 1015449, 1016030, 1016535, 1017113, 1017700, 1018293, 1018818, 1019407, 1020013]",61,OR,U,R,ITMSR,1.1
0,600,trial,0,48,48,48,trial,"['S', 'S', 'S', 'S', 'S', 'S', 'S', 'C', 'C', 'C', 'C', 'C', 'C', 'C', 'C', 'C', 'C', 'C', 'C', 'C', 'C', 'C', 'C']","[1026038, 1026772, 1027406, 1028047, 1028687, 1029240, 1029878, 1030422, 1030994, 1031586, 1032158, 1032770, 1033315, 1033846, 1034422, 1035010, 1035602, 1036231, 1036804, 1037363, 1037892, 1038486, 1039071]","[1026157, 1026894, 1027542, 1028162, 1028804, 1029357, 1029990, 1030536, 1031129, 1031671, 1032281, 1032850, 1033392, 1033975, 1034551, 1035153, 1035727, 1036345, 1036919, 1037483, 1038023, 1038593, 1039170]","[131, 57, 86, 240, 15, 227, 207, 0, 244, 175, 96, 174, 211, 13, 221, 252, 164, 59, 66, 161, 185, 233, 224]","[1026117, 1026778, 1027410, 1028055, 1028692, 1029248, 1029885, 1030429, 1031001, 1031592, 1032164, 1032777, 1033321, 1033852, 1034431, 1035016, 1035608, 1036237, 1036811, 1037369, 1037899, 1038535, 1039078]","[1025703, 1026304, 1026904, 1027504, 1028104, 1028704, 1029304, 1029904, 1030443, 1031014, 1031606, 1032178, 1032791, 1033335, 1033866, 1034442, 1035030, 1035622, 1036251, 1036824, 1037383, 1037912, 1038507, 1039091]",61,OR,U,R,ITMSR,1.1
1,400,trial,0,49,49,49,trial,"['S', 'S', 'S', 'S', 'S', 'S', 'S', 'C', 'C', 'C', 'C', 'C', 'C', 'C', 'C', 'C', 'C', 'C', 'C', 'C', 'C', 'C', 'C']","[1044992, 1045360, 1045755, 1046194, 1046618, 1047000, 1047409, 1047791, 1048159, 1048571, 1048965, 1049357, 1049754, 1050156, 1050535, 1050924, 1051330, 1051716, 1052172, 1052513, 1052933, 1053358, 1053753]","[1045012, 1045431, 1045849, 1046252, 1046638, 1047097, 1047480, 1047896, 1048232, 1048665, 1049067, 1049460, 1049845, 1050176, 1050555, 1051016, 1051351, 1051836, 1052251, 1052644, 1053016, 1053451, 1053874]","[4, 76, 82, 42, 72, 24, 134, 252, 225, 90, 191, 203, 238, 47, 1, 232, 78, 13, 245, 54, 238, 118, 4]","[1044992, 1045366, 1045761, 1046199, 1046623, 1047006, 1047415, 1047796, 1048166, 1048579, 1048972, 1049398, 1049760, 1050163, 1050535, 1050932, 1051335, 1051776, 1052179, 1052593, 1052940, 1053365, 1053818]","[1044678, 1045079, 1045478, 1045878, 1046278, 1046678, 1047078, 1047478, 1047811, 1048179, 1048591, 1048985, 1049377, 1049774, 1050176, 1050555, 1050944, 1051351, 1051736, 1052192, 1052533, 1052953, 1053378, 1053773]",61,OR,U,R,ITMSR,1.1
2,600,trial,0,50,50,50,trial,"['S', 'S', 'S', 'S', 'S', 'S', 'S', 'S', 'C', 'C', 'C', 'C', 'C', 'C', 'C', 'C', 'C', 'C', 'C', 'C', 'C', 'C', 'C', 'C']","[1059522, 1060013, 1060396, 1061010, 1061610, 1062203, 1062812, 1063438, 1064042, 1064620, 1065196, 1065795, 1066380, 1066934, 1067510, 1068149, 1068723, 1069345, 1069861, 1070374, 1070951, 1071619, 1072228, 1072790]","[1059629, 1060182, 1060551, 1061131, 1061716, 1062316, 1062912, 1063519, 1064125, 1064714, 1065292, 1065893, 1066501, 1067009, 1067620, 1068231, 1068777, 1069416, 1069967, 1070435, 1071023, 1071693, 1072350, 1072907]","[191, 84, 235, 45, 76, 62, 74, 113, 97, 100, 39, 231, 66, 219, 93, 147, 175, 204, 126, 147, 216, 160, 211, 218]","[1059588, 1060017, 1060403, 1061015, 1061617, 1062211, 1062857, 1063443, 1064046, 1064626, 1065238, 1065800, 1066438, 1066942, 1067561, 1068171, 1068728, 1069386, 1069876, 1070412, 1070955, 1071662, 1072296, 1072825]","[1059272, 1059872, 1060472, 1061072, 1061672, 1062273, 1062872, 1063472, 1064062, 1064640, 1065217, 1065816, 1066400, 1066954, 1067530, 1068169, 1068743, 1069365, 1069881, 1070394, 1070971, 1071639, 1072248, 1072811]",61,OR,U,R,ITMSR,1.1
2,400,trial,0,51,51,51,trial,"['S', 'S', 'S', 'S', 'S', 'S', 'C', 'C', 'C', 'C', 'C', 'C', 'C', 'C', 'C', 'C', 'C', 'C', 'C', 'C', 'C', 'C']","[1078944, 1079472, 1079892, 1080301, 1080718, 1081112, 1081523, 1081907, 1082319, 1082733, 1083137, 1083486, 1083917, 1084314, 1084698, 1085125, 1085500, 1085904, 1086291, 1086663, 1087086, 1087485]","[1079033, 1079561, 1079995, 1080399, 1080814, 1081206, 1081602, 1082017, 1082383, 1082824, 1083207, 1083635, 1084015, 1084419, 1084829, 1085258, 1085629, 1086008, 1086382, 1086781, 1087218, 1087610]","[247, 131, 209, 40, 13, 89, 159, 236, 134, 7, 76, 178, 32, 80, 119, 157, 245, 37, 51, 118, 131, 218]","[1079002, 1079478, 1079898, 1080305, 1080723, 1081118, 1081530, 1081912, 1082327, 1082768, 1083145, 1083556, 1083924, 1084322, 1084703, 1085131, 1085577, 1085913, 1086338, 1086668, 1087093, 1087546]","[1078378, 1078778, 1079178, 1079578, 1079979, 1080378, 1080778, 1081178, 1081543, 1081927, 1082339, 1082754, 1083157, 1083506, 1083937, 1084334, 1084718, 1085145, 1085520, 1085924, 1086311, 1086683, 1087106, 1087505]",61,OR,U,R,ITMSR,1.1
3,400,trial,0,52,52,52,trial,"['S', 'S', 'S', 'S', 'S', 'S', 'C', 'C', 'C', 'C', 'C', 'C', 'C', 'C', 'C', 'C', 'C', 'C', 'C', 'C', 'C', 'C', 'C', 'C', 'C']","[1093466, 1094263, 1094668, 1095140, 1095495, 1095923, 1096304, 1096697, 1097085, 1097187, 1097492, 1097917, 1098307, 1098662, 1098762, 1099072, 1099448, 1099548, 1099842, 1100238, 1100622, 1101003, 1101375, 1101765, 1102160]","[1093486, 1094369, 1094764, 1095204, 1095609, 1096033, 1096411, 1096792, 1097106, 1097207, 1097594, 1097937, 1098384, 1098682, 1098782, 1099092, 1099468, 1099568, 1099863, 1100329, 1100760, 1101083, 1101501, 1101882, 1102282]","[2, 105, 59, 0, 177, 31, 214, 145, 124, 37, 226, 76, 232, 153, 192, 179, 103, 138, 140, 194, 94, 114, 153, 138, 36]","[1093466, 1094268, 1094674, 1095150, 1095501, 1095930, 1096311, 1096706, 1097092, 1097187, 1097500, 1097925, 1098314, 1098670, 1098762, 1099076, 1099455, 1099548, 1099848, 1100246, 1100628, 1101014, 1101383, 1101772, 1102167]","[1093156, 1093556, 1093956, 1094356, 1094756, 1095156, 1095556, 1095956, 1096324, 1096717, 1097105, 1097512, 1097937, 1098328, 1098682, 1099092, 1099468, 1099863, 1100258, 1100642, 1101023, 1101395, 1101785, 1102180]",61,OR,U,R,ITMSR,1.1
5,400,trial,0,53,53,53,trial,"['S', 'S', 'S', 'S', 'S', 'S', 'S', 'C', 'C', 'C', 'C', 'C', 'C', 'C', 'C', 'C', 'C', 'C', 'C', 'C', 'C', 'C', 'C']","[1107827, 1108276, 1108678, 1109056, 1109429, 1109820, 1110224, 1110620, 1111004, 1111413, 1111852, 1112214, 1112573, 1112991, 1113399, 1113764, 1114134, 1114525, 1114916, 1115301, 1115715, 1116114, 1116497]","[1107923, 1108379, 1108767, 1109182, 1109547, 1109954, 1110345, 1110758, 1111127, 1111543, 1111943, 1112327, 1112698, 1113112, 1113504, 1113890, 1114234, 1114655, 1115028, 1115383, 1115812, 1116197, 1116597]","[80, 238, 39, 119, 109, 126, 54, 251, 111, 112, 45, 92, 85, 186, 143, 105, 73, 117, 73, 164, 113, 224, 53]","[1107834, 1108281, 1108685, 1109062, 1109435, 1109825, 1110231, 1110625, 1111010, 1111419, 1111860, 1112221, 1112581, 1112996, 1113405, 1113771, 1114139, 1114531, 1114923, 1115309, 1115722, 1116121, 1116504]","[1107517, 1107917, 1108317, 1108717, 1109117, 1109517, 1109917, 1110317, 1110640, 1111024, 1111433, 1111872, 1112235, 1112593, 1113011, 1113419, 1113784, 1114155, 1114545, 1114936, 1115321, 1115736, 1116134, 1116517]",61,OR,U,R,ITMSR,1.1
3,400,trial,0,54,54,54,trial,"['S', 'S', 'S', 'S', 'S', 'S', 'C', 'C', 'C', 'C', 'C', 'C', 'C', 'C', 'C', 'C', 'C', 'C', 'C', 'C', 'C', 'C']","[1125504, 1125912, 1126310, 1126716, 1127155, 1127555, 1127948, 1128347, 1128722, 1129118, 1129510, 1129878, 1130284, 1130667, 1131052, 1131430, 1131847, 1132217, 1132608, 1132981, 1133412, 1133739]","[1125595, 1126023, 1126421, 1126827, 1127245, 1127673, 1128065, 1128458, 1128852, 1129231, 1129659, 1130029, 1130403, 1130801, 1131189, 1131603, 1132000, 1132386, 1132782, 1133171, 1133584, 1133896]","[220, 236, 142, 205, 184, 241, 141, 7, 109, 31, 5, 64, 27, 78, 131, 190, 88, 135, 84, 51, 104, 100]","[1125509, 1125917, 1126317, 1126721, 1127161, 1127560, 1127954, 1128353, 1128728, 1129126, 1129518, 1129885, 1130291, 1130673, 1131057, 1131436, 1131853, 1132222, 1132614, 1133081, 1133417, 1133744]","[1124796, 1125195, 1125595, 1125995, 1126395, 1126795, 1127195, 1127596, 1127968, 1128367, 1128742, 1129138, 1129530, 1129899, 1130304, 1130687, 1131072, 1131450, 1131867, 1132237, 1132628, 1133001, 1133432, 1133759]",61,OR,U,R,ITMSR,1.1
1,400,trial,0,55,55,55,trial,"['S', 'S', 'S', 'S', 'S', 'S', 'C', 'C', 'C', 'C', 'C', 'C', 'C', 'C', 'C', 'C', 'C', 'C', 'C', 'C', 'C', 'C', 'C', 'C', 'C']","[1140129, 1140621, 1141006, 1141436, 1141823, 1142234, 1142616, 1143012, 1143374, 1143762, 1143862, 1144125, 1144524, 1144908, 1145284, 1145672, 1146036, 1146419, 1146519, 1146790, 1147193, 1147566, 1147666, 1147986, 1148385]","[1140227, 1140715, 1141125, 1141560, 1141943, 1142344, 1142686, 1143103, 1143497, 1143782, 1143882, 1144145, 1144545, 1144999, 1145413, 1145692, 1146117, 1146439, 1146591, 1146939, 1147216, 1147586, 1147700, 1148096, 1148481]","[17, 150, 155, 82, 153, 73, 254, 46, 18, 231, 167, 83, 127, 242, 109, 111, 217, 6, 68, 67, 42, 61, 56, 216, 155]","[1140189, 1140625, 1141010, 1141442, 1141828, 1142239, 1142622, 1143018, 1143379, 1143768, 1143862, 1144130, 1144531, 1144914, 1145290, 1145679, 1146042, 1146425, 1146537, 1146796, 1147200, 1147572, 1147666, 1147995, 1148391]","[1139511, 1139911, 1140312, 1140712, 1141112, 1141512, 1141912, 1142312, 1142636, 1143032, 1143394, 1143782, 1144145, 1144544, 1144928, 1145304, 1145692, 1146056, 1146439, 1146810, 1147213, 1147586, 1148006, 1148405]",61,OR,U,R,ITMSR,1.1
2,600,trial,0,56,56,56,trial,"['S', 'S', 'S', 'S', 'S', 'S', 'S', 'C', 'C', 'C', 'C', 'C', 'C', 'C', 'C', 'C', 'C', 'C', 'C', 'C', 'C', 'C', 'C']","[1154460, 1154915, 1155567, 1156160, 1156742, 1157360, 1157970, 1158546, 1159120, 1159716, 1160286, 1160897, 1161451, 1162056, 1162650, 1163215, 1163769, 1164323, 1164918, 1165506, 1166099, 1166639, 1167144]","[1154539, 1155031, 1155679, 1156310, 1156848, 1157480, 1158068, 1158569, 1159207, 1159788, 1160385, 1160955, 1161549, 1162143, 1162733, 1163305, 1163847, 1164346, 1165014, 1165579, 1166119, 1166724, 1167235]","[18, 76, 228, 61, 185, 73, 194, 234, 237, 202, 12, 3, 128, 82, 137, 95, 19, 157, 82, 163, 102, 28, 88]","[1154465, 1154919, 1155572, 1156163, 1156746, 1157367, 1157976, 1158550, 1159128, 1159723, 1160290, 1160904, 1161457, 1162063, 1162656, 1163223, 1163777, 1164329, 1164924, 1165514, 1166104, 1166645, 1167151]","[1153795, 1154395, 1154995, 1155595, 1156195, 1156795, 1157395, 1157995, 1158566, 1159140, 1159736, 1160306, 1160918, 1161472, 1162076, 1162670, 1163235, 1163789, 1164343, 1164938, 1165527, 1166119, 1166659, 1167164]",61,OR,U,R,ITMSR,1.1
4,400,trial,0,57,57,57,trial,"['S', 'S', 'S', 'S', 'S', 'C', 'C', 'C', 'C', 'C', 'C', 'C', 'C', 'C', 'C', 'C', 'C', 'C', 'C', 'C', 'C', 'C', 'C']","[1173978, 1174385, 1174755, 1175162, 1175554, 1175936, 1176376, 1176790, 1177200, 1177624, 1178060, 1178493, 1178877, 1179242, 1179633, 1180012, 1180419, 1180813, 1180913, 1181245, 1181623, 1181976, 1182078]","[1174066, 1174500, 1174868, 1175254, 1175677, 1175957, 1176396, 1176810, 1177220, 1177645, 1178080, 1178513, 1178897, 1179262, 1179653, 1180033, 1180439, 1180833, 1180933, 1181265, 1181643, 1181997, 1182098]","[58, 148, 9, 134, 230, 111, 54, 9, 62, 124, 190, 10, 115, 119, 70, 128, 81, 213, 24, 123, 16, 13, 126]","[1173982, 1174390, 1174761, 1175168, 1175558, 1175939, 1176380, 1176794, 1177205, 1177628, 1178063, 1178499, 1178881, 1179246, 1179637, 1180016, 1180423, 1180818, 1180915, 1181249, 1181628, 1181980, 1182078]","[1172814, 1173214, 1173614, 1174014, 1174414, 1174814, 1175214, 1175614, 1175956, 1176396, 1176810, 1177220, 1177645, 1178080, 1178513, 1178897, 1179262, 1179653, 1180033, 1180439, 1180833, 1181265, 1181643, 1181997]",61,OR,U,R,ITMSR,1.1
3,600,trial,0,58,58,58,trial,"['S', 'S', 'S', 'S', 'S', 'S', 'S', 'C', 'C', 'C', 'C', 'C', 'C', 'C', 'C', 'C', 'C', 'C', 'C', 'C', 'C', 'C', 'C']","[1188581, 1189201, 1189831, 1190405, 1191029, 1191129, 1191572, 1192221, 1192813, 1193373, 1193928, 1194501, 1195087, 1195640, 1196225, 1196861, 1197401, 1197954, 1198559, 1199113, 1199677, 1200181, 1200764]","[1188695, 1189325, 1189945, 1190539, 1191049, 1191149, 1191698, 1192314, 1192897, 1193442, 1194006, 1194615, 1195194, 1195773, 1196325, 1196949, 1197507, 1198072, 1198653, 1199243, 1199791, 1200350, 1200890]","[118, 212, 222, 174, 209, 33, 151, 135, 164, 52, 70, 104, 150, 103, 120, 104, 129, 240, 70, 122, 142, 89, 133]","[1188588, 1189206, 1189835, 1190410, 1191033, 1191131, 1191578, 1192228, 1192819, 1193380, 1193933, 1194508, 1195094, 1195646, 1196231, 1196866, 1197407, 1197962, 1198565, 1199119, 1199682, 1200188, 1200770]","[1187446, 1188046, 1188646, 1189246, 1189847, 1190446, 1191046, 1191646, 1192241, 1192834, 1193393, 1193948, 1194521, 1195107, 1195660, 1196246, 1196881, 1197421, 1197974, 1198579, 1199133, 1199697, 1200201, 1200784]",61,OR,U,R,ITMSR,1.1
1,600,trial,0,59,59,59,trial,"['S', 'S', 'S', 'S', 'S', 'S', 'S', 'C', 'C', 'C', 'C', 'C', 'C', 'C', 'C', 'C', 'C', 'C', 'C', 'C', 'C', 'C', 'C']","[1206567, 1207387, 1208009, 1208612, 1209230, 1209876, 1210458, 1211036, 1211649, 1212258, 1212836, 1213421, 1213999, 1214602, 1215221, 1215848, 1216429, 1217010, 1217595, 1218152, 1218683, 1219288, 1219865]","[1206690, 1207528, 1208128, 1208761, 1209329, 1210017, 1210549, 1211115, 1211740, 1212341, 1212936, 1213536, 1214081, 1214699, 1215301, 1215953, 1216520, 1217116, 1217694, 1218267, 1218759, 1219415, 1219983]","[4, 71, 30, 92, 102, 33, 104, 213, 127, 24, 29, 12, 64, 231, 72, 195, 22, 16, 241, 241, 85, 229, 245]","[1206634, 1207392, 1208013, 1208619, 1209236, 1209944, 1210464, 1211042, 1211657, 1212263, 1212844, 1213428, 1214008, 1214609, 1215230, 1215907, 1216436, 1217017, 1217601, 1218159, 1218690, 1219295, 1219913]","[1206304, 1206904, 1207504, 1208104, 1208705, 1209304, 1209904, 1210504, 1211056, 1211669, 1212278, 1212856, 1213442, 1214019, 1214622, 1215241, 1215868, 1216449, 1217030, 1217615, 1218172, 1218703, 1219308, 1219885]",61,OR,U,R,ITMSR,1.1
4,600,trial,0,60,60,60,trial,"['S', 'S', 'S', 'S', 'S', 'S', 'S', 'C', 'C', 'C', 'C', 'C', 'C', 'C', 'C', 'C', 'C', 'C', 'C', 'C', 'C', 'C', 'C', 'C']","[1226146, 1226597, 1227180, 1227808, 1228450, 1229052, 1229656, 1230234, 1230811, 1231417, 1232005, 1232584, 1233158, 1233733, 1234276, 1234895, 1235502, 1236070, 1236624, 1237220, 1237944, 1238541, 1239014, 1239114]","[1226251, 1226732, 1227312, 1227964, 1228547, 1229190, 1229777, 1230254, 1230919, 1231533, 1232136, 1232688, 1233285, 1233812, 1234369, 1234985, 1235581, 1236090, 1236703, 1237313, 1238031, 1238620, 1239034, 1239134]","[27, 129, 155, 128, 106, 228, 166, 245, 193, 152, 128, 148, 152, 130, 214, 147, 125, 214, 145, 59, 144, 171, 189, 49]","[1226206, 1226603, 1227184, 1227814, 1228456, 1229058, 1229660, 1230239, 1230815, 1231422, 1232010, 1232589, 1233163, 1233738, 1234318, 1234900, 1235507, 1236076, 1236629, 1237281, 1237951, 1238547, 1239019, 1239114]","[1225477, 1226076, 1226676, 1227276, 1227876, 1228476, 1229076, 1229676, 1230254, 1230831, 1231437, 1232025, 1232604, 1233178, 1233753, 1234296, 1234915, 1235522, 1236090, 1236644, 1237240, 1237964, 1238561, 1239034]",61,OR,U,R,ITMSR,1.1
5,600,trial,0,61,61,61,trial,"['S', 'S', 'S', 'S', 'S', 'C', 'C', 'C', 'C', 'C', 'C', 'C', 'C', 'C', 'C', 'C', 'C', 'C', 'C', 'C', 'C', 'C']","[1246351, 1246980, 1247625, 1248205, 1248820, 1249415, 1250006, 1250540, 1251148, 1251764, 1252388, 1252971, 1253514, 1254042, 1254693, 1255281, 1255930, 1256513, 1257094, 1257661, 1257763, 1258249]","[1246465, 1247124, 1247732, 1248335, 1248985, 1249529, 1250120, 1250666, 1251247, 1251825, 1252488, 1253065, 1253567, 1254159, 1254757, 1255377, 1255986, 1256578, 1257217, 1257682, 1257783, 1258383]","[50, 73, 224, 89, 29, 57, 223, 247, 16, 245, 71, 200, 227, 119, 175, 46, 23, 76, 84, 103, 166, 220]","[1246355, 1246985, 1247631, 1248210, 1248826, 1249421, 1250013, 1250547, 1251154, 1251770, 1252395, 1252978, 1253520, 1254044, 1254700, 1255286, 1255937, 1256518, 1257099, 1257665, 1257771, 1258256]","[1244679, 1245279, 1245879, 1246479, 1247079, 1247679, 1248279, 1248879, 1249435, 1250026, 1250561, 1251168, 1251784, 1252408, 1252992, 1253534, 1254062, 1254713, 1255301, 1255950, 1256534, 1257114, 1257681, 1258269]",61,OR,U,R,ITMSR,1.1
0,400,trial,0,62,62,62,trial,"['S', 'S', 'S', 'S', 'S', 'S', 'S', 'C', 'C', 'C', 'C', 'C', 'C', 'C', 'C', 'C', 'C', 'C', 'C', 'C', 'C', 'C', 'C']","[1264332, 1264719, 1265051, 1265478, 1265892, 1266310, 1266712, 1267150, 1267574, 1267988, 1268387, 1268754, 1269170, 1269529, 1269928, 1270306, 1270686, 1271072, 1271430, 1271804, 1272215, 1272626, 1273072]","[1264452, 1264815, 1265192, 1265567, 1265914, 1266421, 1266839, 1267219, 1267676, 1268069, 1268483, 1268882, 1269269, 1269642, 1270028, 1270411, 1270753, 1271176, 1271537, 1271927, 1272331, 1272753, 1273092]","[96, 124, 37, 13, 9, 15, 240, 88, 92, 40, 238, 40, 251, 108, 64, 21, 239, 84, 236, 24, 194, 22, 43]","[1264415, 1264726, 1265051, 1265485, 1265896, 1266315, 1266718, 1267155, 1267580, 1267993, 1268393, 1268761, 1269177, 1269534, 1269934, 1270312, 1270691, 1271077, 1271436, 1271810, 1272222, 1272631, 1273074]","[1263996, 1264396, 1264796, 1265197, 1265597, 1265997, 1266397, 1266797, 1267170, 1267594, 1268008, 1268407, 1268774, 1269190, 1269549, 1269948, 1270326, 1270706, 1271092, 1271450, 1271824, 1272236, 1272646, 1273092]",61,OR,U,R,ITMSR,1.1
4,400,trial,0,63,63,63,trial,"['S', 'S', 'S', 'S', 'S', 'C', 'C', 'C', 'C', 'C', 'C', 'C', 'C', 'C', 'C', 'C', 'C', 'C', 'C', 'C', 'C']","[1279961, 1280360, 1280730, 1281136, 1281523, 1281910, 1282353, 1282752, 1283101, 1283490, 1283930, 1284284, 1284685, 1285024, 1285398, 1285777, 1286152, 1286550, 1286919, 1287301, 1287702]","[1280072, 1280467, 1280848, 1281257, 1281618, 1282032, 1282436, 1282840, 1283183, 1283582, 1284015, 1284310, 1284755, 1285136, 1285505, 1285876, 1286245, 1286642, 1287033, 1287392, 1287795]","[197, 16, 252, 141, 67, 74, 124, 156, 74, 182, 57, 116, 5, 94, 179, 228, 233, 29, 234, 34, 90]","[1279966, 1280368, 1280737, 1281143, 1281528, 1281916, 1282360, 1282758, 1283106, 1283496, 1283936, 1284290, 1284694, 1285032, 1285404, 1285784, 1286156, 1286556, 1286925, 1287307, 1287708]","[1278824, 1279223, 1279623, 1280023, 1280423, 1280823, 1281223, 1281624, 1281930, 1282373, 1282772, 1283121, 1283510, 1283950, 1284304, 1284705, 1285044, 1285419, 1285797, 1286172, 1286571, 1286939, 1287321, 1287723]",61,OR,U,R,ITMSR,1.1
0,600,trial,0,64,64,64,trial,"['S', 'S', 'S', 'S', 'S', 'S', 'C', 'C', 'C', 'C', 'C', 'C', 'C', 'C', 'C', 'C', 'C', 'C', 'C', 'C', 'C', 'C']","[1294231, 1294790, 1295399, 1295987, 1296569, 1297202, 1297786, 1298361, 1298942, 1299487, 1300060, 1300659, 1301179, 1301767, 1302373, 1302913, 1303472, 1304075, 1304652, 1305225, 1305842, 1306395]","[1294346, 1294966, 1295536, 1296093, 1296743, 1297298, 1297879, 1298445, 1299074, 1299613, 1300080, 1300761, 1301345, 1301880, 1302470, 1302993, 1303587, 1304163, 1304752, 1305340, 1305915, 1306473]","[134, 223, 158, 113, 213, 202, 115, 139, 80, 210, 113, 89, 121, 9, 211, 79, 70, 53, 99, 75, 132, 229]","[1294237, 1294795, 1295406, 1295993, 1296574, 1297211, 1297792, 1298367, 1298949, 1299492, 1300066, 1300665, 1301185, 1301771, 1302377, 1302919, 1303477, 1304081, 1304658, 1305231, 1305848, 1306403]","[1293041, 1293640, 1294240, 1294840, 1295440, 1296040, 1296641, 1297240, 1297806, 1298381, 1298962, 1299507, 1300080, 1300679, 1301199, 1301787, 1302393, 1302933, 1303492, 1304095, 1304672, 1305245, 1305862, 1306415]",61,OR,U,R,ITMSR,1.1
0,400,trial,0,65,65,65,trial,"['S', 'S', 'S', 'S', 'S', 'S', 'S', 'C', 'C', 'C', 'C', 'C', 'C', 'C', 'C', 'C', 'C', 'C', 'C', 'C', 'C', 'C', 'C', 'C']","[1312548, 1312884, 1313252, 1313656, 1314062, 1314495, 1314846, 1315255, 1315355, 1315680, 1316023, 1316380, 1316790, 1317173, 1317599, 1318017, 1318415, 1318795, 1319169, 1319559, 1319924, 1320322, 1320738, 1321094]","[1312635, 1312983, 1313347, 1313679, 1314084, 1314515, 1314867, 1315275, 1315375, 1315762, 1316136, 1316470, 1316866, 1317299, 1317620, 1318126, 1318532, 1318934, 1319291, 1319703, 1320061, 1320487, 1320852, 1321209]","[146, 112, 219, 149, 174, 185, 185, 169, 132, 59, 101, 43, 138, 77, 120, 157, 134, 179, 148, 127, 171, 214, 251, 2]","[1312609, 1312890, 1313257, 1313661, 1314066, 1314500, 1314850, 1315261, 1315355, 1315685, 1316029, 1316386, 1316795, 1317178, 1317605, 1318022, 1318420, 1318801, 1319175, 1319565, 1319929, 1320328, 1320742, 1321098]","[1312129, 1312527, 1312927, 1313327, 1313727, 1314127, 1314527, 1314927, 1315275, 1315700, 1316043, 1316400, 1316810, 1317193, 1317619, 1318037, 1318435, 1318815, 1319189, 1319579, 1319944, 1320342, 1320758, 1321114]",61,OR,U,R,ITMSR,1.1
2,600,trial,0,66,66,66,trial,"['S', 'S', 'S', 'S', 'S', 'S', 'S', 'C', 'C', 'C', 'C', 'C', 'C', 'C', 'C', 'C', 'C', 'C', 'C', 'C', 'C', 'C', 'C', 'C', 'C']","[1327114, 1327820, 1328531, 1329085, 1329692, 1330289, 1330867, 1331505, 1331926, 1332381, 1332481, 1333042, 1333655, 1334338, 1334937, 1335566, 1336186, 1336717, 1336817, 1337330, 1337940, 1338586, 1339170, 1339796, 1340399]","[1327208, 1327958, 1328626, 1329225, 1329803, 1330433, 1330991, 1331624, 1331946, 1332401, 1332501, 1333147, 1333753, 1334362, 1334958, 1335666, 1336206, 1336737, 1336837, 1337457, 1338048, 1338606, 1339283, 1339824, 1340489]","[213, 33, 121, 94, 194, 59, 253, 85, 206, 242, 34, 11, 244, 232, 7, 220, 98, 251, 230, 135, 124, 40, 67, 56, 75]","[1327163, 1327824, 1328538, 1329091, 1329697, 1330295, 1330874, 1331511, 1331930, 1332387, 1332481, 1333050, 1333661, 1334345, 1334944, 1335573, 1336194, 1336723, 1336817, 1337336, 1337947, 1338592, 1339176, 1339802, 1340406]","[1326727, 1327326, 1327926, 1328526, 1329126, 1329726, 1330326, 1330926, 1331525, 1331946, 1332401, 1333062, 1333676, 1334359, 1334957, 1335586, 1336206, 1336737, 1337350, 1337960, 1338606, 1339190, 1339816, 1340419]",61,OR,U,R,ITMSR,1.1
5,600,trial,0,67,67,67,trial,"['S', 'S', 'S', 'S', 'S', 'S', 'S', 'C', 'C', 'C', 'C', 'C', 'C', 'C', 'C', 'C', 'C', 'C', 'C', 'C', 'C', 'C', 'C', 'C']","[1346420, 1347179, 1347812, 1348412, 1348996, 1349632, 1350220, 1350855, 1351431, 1352102, 1352679, 1353260, 1353844, 1354414, 1355056, 1355755, 1356349, 1356922, 1357025, 1357511, 1358076, 1358644, 1359227, 1359754]","[1346528, 1347323, 1347957, 1348525, 1349067, 1349764, 1350339, 1350980, 1351519, 1352166, 1352758, 1353365, 1353866, 1354502, 1355076, 1355777, 1356428, 1356945, 1357045, 1357613, 1358176, 1358742, 1359305, 1359774]","[94, 15, 214, 118, 9, 24, 170, 91, 255, 104, 215, 167, 200, 126, 120, 159, 195, 168, 89, 66, 128, 59, 177, 155]","[1346428, 1347184, 1347817, 1348417, 1349002, 1349636, 1350226, 1350860, 1351437, 1352107, 1352685, 1353268, 1353850, 1354420, 1355060, 1355761, 1356355, 1356929, 1357025, 1357517, 1358082, 1358650, 1359234, 1359759]","[1346075, 1346675, 1347275, 1347875, 1348475, 1349075, 1349676, 1350275, 1350875, 1351451, 1352122, 1352699, 1353280, 1353864, 1354434, 1355076, 1355776, 1356369, 1356942, 1357531, 1358096, 1358664, 1359247, 1359774]",61,OR,U,R,ITMSR,1.1
2,400,trial,0,68,68,68,trial,"['S', 'S', 'S', 'S', 'S', 'S', 'S', 'C', 'C', 'C', 'C', 'C', 'C', 'C', 'C', 'C', 'C', 'C', 'C', 'C', 'C', 'C', 'C', 'C']","[1365989, 1366255, 1366622, 1367026, 1367472, 1367883, 1368300, 1368718, 1369104, 1369552, 1369926, 1370334, 1370727, 1371120, 1371526, 1371924, 1372298, 1372750, 1373105, 1373479, 1373862, 1373962, 1374333, 1374710]","[1366077, 1366337, 1366714, 1367149, 1367564, 1368010, 1368377, 1368838, 1369208, 1369572, 1370055, 1370447, 1370831, 1371238, 1371635, 1372057, 1372435, 1372844, 1373219, 1373584, 1373882, 1374000, 1374425, 1374829]","[95, 133, 172, 250, 143, 190, 87, 157, 206, 233, 183, 42, 217, 242, 221, 199, 52, 109, 164, 134, 28, 120, 68, 140]","[1365994, 1366261, 1366628, 1367031, 1367477, 1367888, 1368305, 1368724, 1369109, 1369558, 1369932, 1370341, 1370732, 1371126, 1371531, 1371929, 1372304, 1372756, 1373109, 1373485, 1373867, 1373962, 1374339, 1374716]","[1365509, 1365909, 1366309, 1366709, 1367109, 1367510, 1367909, 1368309, 1368738, 1369124, 1369572, 1369946, 1370354, 1370747, 1371140, 1371546, 1371944, 1372318, 1372770, 1373125, 1373499, 1373882, 1374353, 1374730]",61,OR,U,R,ITMSR,1.1
3,600,trial,0,69,69,69,trial,"['S', 'S', 'S', 'S', 'S', 'S', 'S', 'C', 'C', 'C', 'C', 'C', 'C', 'C', 'C', 'C', 'C', 'C', 'C', 'C', 'C', 'C', 'C']","[1380751, 1381554, 1382172, 1382794, 1383373, 1383981, 1384588, 1385168, 1385719, 1386301, 1386914, 1387506, 1388087, 1388650, 1389222, 1389765, 1390368, 1390934, 1391521, 1392102, 1392662, 1393271, 1393850]","[1380838, 1381718, 1382309, 1382921, 1383566, 1384125, 1384674, 1385289, 1385885, 1386450, 1386934, 1387598, 1388193, 1388780, 1389382, 1389785, 1390448, 1391046, 1391623, 1392174, 1392683, 1393342, 1393870]","[245, 100, 141, 173, 203, 182, 160, 127, 114, 117, 57, 169, 46, 255, 59, 158, 144, 77, 24, 200, 27, 88, 193]","[1380804, 1381560, 1382178, 1382799, 1383378, 1383986, 1384593, 1385175, 1385724, 1386307, 1386919, 1387512, 1388094, 1388655, 1389229, 1389768, 1390377, 1390939, 1391525, 1392108, 1392667, 1393278, 1393855]","[1380444, 1381043, 1381643, 1382243, 1382843, 1383443, 1384043, 1384643, 1385188, 1385739, 1386321, 1386934, 1387526, 1388107, 1388670, 1389242, 1389785, 1390388, 1390954, 1391541, 1392122, 1392683, 1393291, 1393870]",61,OR,U,R,ITMSR,1.1
0,600,trial,0,70,70,70,trial,"['S', 'S', 'S', 'S', 'S', 'S', 'S', 'S', 'C', 'C', 'C', 'C', 'C', 'C', 'C', 'C', 'C', 'C', 'C', 'C', 'C', 'C', 'C', 'C', 'C']","[1399982, 1400351, 1400882, 1401521, 1402161, 1402262, 1402706, 1403329, 1403940, 1404507, 1405075, 1405648, 1406262, 1406826, 1407483, 1408052, 1408588, 1409173, 1409811, 1410454, 1411068, 1411596, 1411698, 1412158, 1412754]","[1400126, 1400532, 1401108, 1401764, 1402182, 1402342, 1402850, 1403453, 1404149, 1404634, 1405217, 1405775, 1406339, 1406907, 1407551, 1408151, 1408695, 1409257, 1409911, 1410545, 1411176, 1411617, 1411733, 1412357, 1412986]","[107, 177, 109, 141, 166, 69, 121, 19, 206, 96, 68, 171, 99, 35, 121, 120, 10, 109, 81, 115, 187, 172, 19, 159, 175]","[1399988, 1400357, 1400888, 1401527, 1402165, 1402302, 1402713, 1403335, 1403945, 1404512, 1405081, 1405655, 1406268, 1406833, 1407490, 1408057, 1408594, 1409178, 1409817, 1410460, 1411073, 1411601, 1411698, 1412163, 1412759]","[1399174, 1399774, 1400374, 1400974, 1401574, 1402174, 1402774, 1403374, 1403960, 1404527, 1405095, 1405668, 1406282, 1406846, 1407503, 1408072, 1408608, 1409193, 1409831, 1410475, 1411088, 1411616, 1412178, 1412774]",61,OR,U,R,ITMSR,1.1
1,600,trial,0,71,71,71,trial,"['S', 'S', 'S', 'S', 'S', 'S', 'C', 'C', 'C', 'C', 'C', 'C', 'C', 'C', 'C', 'C', 'C', 'C', 'C', 'C', 'C', 'C', 'C']","[1419706, 1420264, 1420905, 1421515, 1422110, 1422701, 1423308, 1423893, 1424505, 1425076, 1425694, 1426240, 1426848, 1426953, 1427430, 1428007, 1428582, 1429144, 1429752, 1430354, 1430975, 1431496, 1432079]","[1419791, 1420339, 1421023, 1421637, 1422224, 1422850, 1423450, 1424035, 1424600, 1425217, 1425814, 1426348, 1426873, 1426973, 1427556, 1428101, 1428680, 1429274, 1429848, 1430374, 1431060, 1431598, 1432184]","[88, 253, 18, 23, 252, 35, 246, 213, 150, 97, 166, 186, 231, 67, 31, 38, 46, 190, 72, 140, 227, 190, 110]","[1419710, 1420269, 1420910, 1421519, 1422115, 1422705, 1423312, 1423898, 1424514, 1425084, 1425701, 1426247, 1426854, 1426953, 1427436, 1428014, 1428588, 1429151, 1429758, 1430360, 1431013, 1431503, 1432088]","[1418558, 1419158, 1419758, 1420358, 1420958, 1421558, 1422158, 1422758, 1423328, 1423913, 1424525, 1425096, 1425714, 1426260, 1426868, 1427450, 1428027, 1428602, 1429165, 1429772, 1430374, 1430995, 1431516, 1432099]",61,OR,U,R,ITMSR,1.1
3,400,trial,0,72,72,72,trial,"['S', 'S', 'S', 'S', 'S', 'S', 'C', 'C', 'C', 'C', 'C', 'C', 'C', 'C', 'C', 'C', 'C', 'C', 'C', 'C', 'C', 'C']","[1438175, 1438653, 1439070, 1439471, 1439876, 1440289, 1440688, 1441119, 1441496, 1441906, 1442277, 1442689, 1443072, 1443485, 1443879, 1444279, 1444697, 1445066, 1445473, 1445843, 1446289, 1446701]","[1438264, 1438738, 1439169, 1439577, 1439988, 1440412, 1440804, 1441215, 1441576, 1441963, 1442376, 1442782, 1443178, 1443592, 1443984, 1444389, 1444782, 1445153, 1445553, 1445962, 1446380, 1446785]","[42, 197, 97, 22, 213, 221, 94, 65, 35, 152, 130, 203, 127, 98, 158, 220, 228, 25, 192, 3, 218, 107]","[1438230, 1438659, 1439074, 1439476, 1439882, 1440294, 1440695, 1441125, 1441543, 1441932, 1442318, 1442711, 1443120, 1443535, 1443927, 1444322, 1444736, 1445110, 1445513, 1445900, 1446311, 1446773]","[1437527, 1437926, 1438326, 1438726, 1439126, 1439526, 1439926, 1440326, 1440708, 1441139, 1441516, 1441926, 1442297, 1442709, 1443092, 1443505, 1443899, 1444299, 1444717, 1445086, 1445493, 1445863, 1446309, 1446721]",61,OR,U,R,ITMSR,1.1
4,600,trial,0,73,73,73,trial,"['S', 'S', 'S', 'S', 'S', 'S', 'C', 'C', 'C', 'C', 'C', 'C', 'C', 'C', 'C', 'C', 'C', 'C', 'C', 'C', 'C', 'C']","[1453231, 1453828, 1454434, 1455080, 1455674, 1456328, 1456834, 1457458, 1458054, 1458644, 1459215, 1459828, 1460385, 1460945, 1461596, 1462130, 1462708, 1463259, 1463816, 1464364, 1464903, 1465485]","[1453347, 1453965, 1454547, 1455181, 1455752, 1456420, 1456921, 1457542, 1458136, 1458732, 1459325, 1459966, 1460498, 1461067, 1461679, 1462227, 1462823, 1463406, 1463908, 1464470, 1465056, 1465698]","[189, 30, 245, 110, 138, 142, 168, 203, 65, 48, 103, 143, 193, 185, 129, 136, 134, 192, 132, 104, 104, 149]","[1453236, 1453884, 1454440, 1455124, 1455680, 1456381, 1456877, 1457526, 1458074, 1458696, 1459272, 1459897, 1460431, 1461013, 1461599, 1462134, 1462711, 1463323, 1463819, 1464429, 1464974, 1465650]","[1452099, 1452699, 1453299, 1453899, 1454499, 1455099, 1455699, 1456300, 1456855, 1457478, 1458074, 1458664, 1459235, 1459848, 1460405, 1460965, 1461616, 1462150, 1462728, 1463279, 1463836, 1464384, 1464923, 1465505]",61,OR,U,R,ITMSR,1.1
1,400,trial,0,74,74,74,trial,"['S', 'S', 'S', 'S', 'S', 'S', 'S', 'C', 'C', 'C', 'C', 'C', 'C', 'C', 'C', 'C', 'C', 'C', 'C', 'C', 'C', 'C', 'C']","[1471346, 1471708, 1472111, 1472485, 1472846, 1473230, 1473654, 1474029, 1474441, 1474814, 1475291, 1475662, 1476003, 1476392, 1476765, 1477177, 1477527, 1477939, 1478376, 1478748, 1479119, 1479520, 1479905]","[1471429, 1471802, 1472209, 1472594, 1472966, 1473335, 1473767, 1474143, 1474524, 1474898, 1475366, 1475785, 1476145, 1476548, 1476881, 1477301, 1477641, 1478083, 1478516, 1478883, 1479246, 1479661, 1480046]","[210, 154, 71, 155, 155, 88, 125, 101, 252, 9, 16, 210, 242, 12, 183, 241, 196, 17, 3, 72, 175, 17, 23]","[1471406, 1471752, 1472116, 1472490, 1472897, 1473274, 1473708, 1474034, 1474487, 1474857, 1475330, 1475725, 1476091, 1476478, 1476818, 1477230, 1477580, 1478019, 1478432, 1478824, 1479209, 1479600, 1479985]","[1470943, 1471343, 1471744, 1472143, 1472543, 1472943, 1473343, 1473743, 1474050, 1474461, 1474834, 1475311, 1475682, 1476023, 1476412, 1476785, 1477197, 1477548, 1477959, 1478396, 1478768, 1479139, 1479540, 1479925]",61,OR,U,R,ITMSR,1.1
2,400,trial,0,75,75,75,trial,"['S', 'S', 'S', 'S', 'S', 'S', 'C', 'C', 'C', 'C', 'C', 'C', 'C', 'C', 'C', 'C', 'C', 'C', 'C', 'C', 'C', 'C']","[1486365, 1486786, 1487171, 1487566, 1487975, 1488430, 1488802, 1489215, 1489569, 1489973, 1490352, 1490801, 1491178, 1491544, 1491919, 1492310, 1492707, 1493073, 1493509, 1493859, 1494252, 1494599]","[1486457, 1486896, 1487284, 1487674, 1488133, 1488540, 1488909, 1489311, 1489711, 1490084, 1490490, 1490909, 1491302, 1491690, 1492059, 1492458, 1492827, 1493214, 1493613, 1494020, 1494396, 1494748]","[88, 229, 175, 83, 27, 168, 62, 241, 195, 20, 31, 175, 46, 152, 185, 131, 31, 20, 72, 241, 173, 92]","[1486410, 1486790, 1487222, 1487574, 1488057, 1488476, 1488852, 1489264, 1489645, 1490037, 1490426, 1490803, 1491228, 1491625, 1491979, 1492384, 1492759, 1493160, 1493552, 1493942, 1494335, 1494684]","[1485657, 1486057, 1486457, 1486857, 1487257, 1487657, 1488057, 1488457, 1488822, 1489235, 1489589, 1489993, 1490372, 1490821, 1491198, 1491564, 1491939, 1492330, 1492727, 1493093, 1493529, 1493879, 1494273, 1494619]",61,OR,U,R,ITMSR,1.1
5,400,trial,0,76,76,76,trial,"['S', 'S', 'S', 'S', 'S', 'C', 'C', 'C', 'C', 'C', 'C', 'C', 'C', 'C', 'C', 'C', 'C', 'C', 'C', 'C', 'C']","[1501491, 1501858, 1502209, 1502614, 1503012, 1503386, 1503821, 1504262, 1504665, 1505065, 1505420, 1505821, 1506235, 1506615, 1507012, 1507408, 1507802, 1508163, 1508551, 1508972, 1509385]","[1501618, 1501960, 1502372, 1502754, 1503126, 1503478, 1503841, 1504282, 1504750, 1505170, 1505572, 1505934, 1506359, 1506735, 1507153, 1507535, 1507905, 1508312, 1508684, 1509136, 1509553]","[51, 183, 45, 139, 252, 210, 184, 99, 209, 28, 188, 12, 235, 209, 232, 25, 173, 87, 19, 88, 67]","[1501562, 1501912, 1502289, 1502699, 1503065, 1503390, 1503827, 1504266, 1504715, 1505115, 1505500, 1505868, 1506312, 1506676, 1507090, 1507489, 1507804, 1508251, 1508633, 1509063, 1509462]","[1500310, 1500710, 1501110, 1501510, 1501911, 1502310, 1502710, 1503110, 1503406, 1503841, 1504282, 1504685, 1505085, 1505440, 1505841, 1506255, 1506635, 1507032, 1507428, 1507822, 1508184, 1508571, 1508993, 1509405]",61,OR,U,R,ITMSR,1.1
5,400,trial,0,77,77,77,trial,"['S', 'S', 'S', 'S', 'S', 'S', 'S', 'C', 'C', 'C', 'C', 'C', 'C', 'C', 'C', 'C', 'C', 'C', 'C', 'C', 'C', 'C', 'C', 'C']","[1515496, 1515852, 1516235, 1516698, 1517082, 1517462, 1517904, 1518283, 1518680, 1519097, 1519467, 1519857, 1520217, 1520626, 1521039, 1521476, 1521810, 1522214, 1522619, 1523017, 1523117, 1523440, 1523792, 1524184]","[1515585, 1515975, 1516355, 1516817, 1517145, 1517574, 1517967, 1518394, 1518782, 1519184, 1519582, 1520021, 1520352, 1520780, 1521187, 1521534, 1521964, 1522324, 1522722, 1523037, 1523167, 1523600, 1523933, 1524319]","[185, 224, 198, 125, 206, 249, 211, 245, 159, 154, 204, 98, 101, 76, 69, 187, 195, 225, 194, 176, 232, 217, 120, 216]","[1515551, 1515907, 1516291, 1516750, 1517086, 1517513, 1517943, 1518342, 1518701, 1519124, 1519517, 1519944, 1520267, 1520701, 1521120, 1521508, 1521895, 1522267, 1522673, 1523023, 1523117, 1523557, 1523872, 1524265]","[1515138, 1515538, 1515938, 1516338, 1516738, 1517138, 1517538, 1517938, 1518303, 1518700, 1519117, 1519488, 1519877, 1520237, 1520646, 1521059, 1521496, 1521830, 1522234, 1522639, 1523037, 1523460, 1523812, 1524204]",61,OR,U,R,ITMSR,1.1
5,400,trial,0,78,78,78,trial,"['S', 'S', 'S', 'S', 'S', 'S', 'S', 'C', 'C', 'C', 'C', 'C', 'C', 'C', 'C', 'C', 'C', 'C', 'C', 'C', 'C', 'C', 'C']","[1532955, 1533455, 1533875, 1534295, 1534718, 1535123, 1535548, 1535956, 1536353, 1536740, 1537132, 1537517, 1537943, 1538340, 1538735, 1539139, 1539473, 1539912, 1540290, 1540721, 1541131, 1541965, 1542353]","[1533047, 1533550, 1533971, 1534406, 1534821, 1535247, 1535620, 1536089, 1536461, 1536855, 1537285, 1537658, 1538089, 1538435, 1538875, 1539237, 1539647, 1540018, 1540436, 1540834, 1541790, 1542080, 1542475]","[4, 118, 132, 114, 193, 114, 14, 244, 9, 240, 30, 171, 254, 29, 220, 151, 12, 203, 83, 3, 61, 179, 221]","[1533014, 1533461, 1533881, 1534301, 1534729, 1535128, 1535553, 1535965, 1536360, 1536748, 1537139, 1537523, 1537952, 1538387, 1538742, 1539145, 1539573, 1539919, 1540296, 1540727, 1541137, 1541975, 1542361]","[1532764, 1533164, 1533564, 1533964, 1534364, 1534765, 1535165, 1535565, 1535976, 1536373, 1536760, 1537153, 1537538, 1537964, 1538360, 1538755, 1539160, 1539493, 1539932, 1540311, 1540741, 1541151, 1541985, 1542373]",61,OR,U,R,ITMSR,1.1
2,600,trial,0,79,79,79,trial,"['S', 'S', 'S', 'S', 'S', 'S', 'S', 'C', 'C', 'C', 'C', 'C', 'C', 'C', 'C', 'C', 'C', 'C', 'C', 'C', 'C', 'C', 'C']","[1548338, 1549062, 1549635, 1550311, 1550923, 1551527, 1552078, 1552677, 1553287, 1553883, 1554533, 1555147, 1555801, 1556426, 1557108, 1557689, 1558280, 1558904, 1559492, 1560047, 1560758, 1561344, 1561892]","[1548450, 1549160, 1549731, 1550404, 1551025, 1551634, 1552225, 1552814, 1553415, 1554069, 1554629, 1555247, 1555889, 1556545, 1557216, 1557780, 1558354, 1558985, 1559606, 1560153, 1560839, 1561470, 1562027]","[62, 116, 147, 22, 104, 185, 9, 0, 3, 45, 255, 111, 171, 17, 168, 171, 165, 90, 120, 215, 182, 251, 58]","[1548394, 1549110, 1549694, 1550319, 1550926, 1551579, 1552083, 1552686, 1553345, 1553940, 1554577, 1555198, 1555842, 1556480, 1557176, 1557733, 1558285, 1558938, 1559540, 1560099, 1560798, 1561402, 1561966]","[1547919, 1548519, 1549119, 1549719, 1550319, 1550919, 1551519, 1552119, 1552697, 1553307, 1553903, 1554553, 1555167, 1555821, 1556446, 1557128, 1557709, 1558300, 1558924, 1559512, 1560067, 1560778, 1561364, 1561912]",61,OR,U,R,ITMSR,1.1
4,400,trial,0,80,80,80,trial,"['S', 'S', 'S', 'S', 'S', 'S', 'S', 'C', 'C', 'C', 'C', 'C', 'C', 'C', 'C', 'C', 'C', 'C', 'C', 'C', 'C', 'C', 'C']","[1567960, 1568446, 1568841, 1569263, 1569631, 1570040, 1570458, 1570817, 1571241, 1571636, 1572016, 1572434, 1572833, 1573218, 1573586, 1573974, 1574403, 1574806, 1575203, 1575559, 1575951, 1576329, 1576749]","[1568051, 1568466, 1568958, 1569371, 1569781, 1570190, 1570590, 1570994, 1571376, 1571771, 1572168, 1572547, 1572971, 1573366, 1573739, 1574097, 1574520, 1574955, 1575325, 1575693, 1576077, 1576452, 1576891]","[161, 40, 82, 31, 53, 71, 110, 111, 63, 96, 150, 78, 128, 225, 250, 131, 52, 115, 6, 99, 195, 20, 32]","[1568006, 1568449, 1568846, 1569268, 1569704, 1570046, 1570464, 1570935, 1571323, 1571689, 1572091, 1572487, 1572890, 1573298, 1573660, 1574042, 1574454, 1574859, 1575256, 1575568, 1575958, 1576337, 1576834]","[1567696, 1568096, 1568496, 1568897, 1569296, 1569696, 1570096, 1570496, 1570837, 1571261, 1571656, 1572036, 1572454, 1572853, 1573238, 1573606, 1573994, 1574423, 1574827, 1575223, 1575579, 1575971, 1576349, 1576769]",61,OR,U,R,ITMSR,1.1
0,600,trial,0,81,81,81,trial,"['S', 'S', 'S', 'S', 'S', 'S', 'C', 'C', 'C', 'C', 'C', 'C', 'C', 'C', 'C', 'C', 'C', 'C', 'C', 'C', 'C', 'C']","[1583510, 1584131, 1584695, 1585323, 1585926, 1586479, 1587143, 1587752, 1588312, 1588844, 1589440, 1590070, 1590619, 1591170, 1591760, 1592422, 1592996, 1593528, 1594099, 1594696, 1595241, 1595825]","[1583663, 1584253, 1584812, 1585430, 1586038, 1586597, 1587239, 1587845, 1588414, 1588970, 1589560, 1590188, 1590739, 1591285, 1591894, 1592517, 1593098, 1593662, 1594212, 1594818, 1595371, 1595968]","[136, 99, 78, 48, 254, 252, 9, 192, 203, 202, 144, 206, 116, 118, 15, 160, 51, 169, 31, 160, 174, 113]","[1583585, 1584205, 1584699, 1585327, 1585930, 1586531, 1587148, 1587805, 1588359, 1588894, 1589443, 1590117, 1590668, 1591219, 1591834, 1592467, 1593039, 1593612, 1594147, 1594748, 1595304, 1595913]","[1582345, 1582945, 1583545, 1584145, 1584745, 1585345, 1585945, 1586545, 1587163, 1587772, 1588332, 1588865, 1589460, 1590090, 1590639, 1591190, 1591780, 1592442, 1593016, 1593548, 1594119, 1594716, 1595261, 1595845]",61,OR,U,R,ITMSR,1.1
1,600,trial,0,82,82,82,trial,"['S', 'S', 'S', 'S', 'S', 'S', 'S', 'C', 'C', 'C', 'C', 'C', 'C', 'C', 'C', 'C', 'C', 'C', 'C', 'C', 'C', 'C', 'C']","[1601743, 1602576, 1603181, 1603758, 1604326, 1604926, 1605528, 1606130, 1606702, 1607281, 1607845, 1608443, 1608942, 1609510, 1610236, 1610812, 1611400, 1611947, 1612568, 1613057, 1613667, 1614180, 1614833]","[1601859, 1602681, 1603272, 1603902, 1604427, 1605025, 1605642, 1606211, 1606791, 1607383, 1607958, 1608570, 1609062, 1609625, 1610298, 1610845, 1611522, 1612075, 1612672, 1613172, 1613752, 1614312, 1614923]","[174, 242, 49, 211, 182, 170, 68, 197, 153, 206, 177, 174, 201, 203, 105, 88, 236, 161, 122, 251, 102, 87, 148]","[1601790, 1602623, 1603187, 1603807, 1604373, 1604975, 1605591, 1606177, 1606750, 1607336, 1607854, 1608503, 1609000, 1609563, 1610244, 1610825, 1611450, 1612000, 1612621, 1613110, 1613716, 1614255, 1614837]","[1601413, 1602013, 1602613, 1603213, 1603813, 1604413, 1605013, 1605613, 1606150, 1606722, 1607301, 1607865, 1608463, 1608962, 1609530, 1610256, 1610832, 1611420, 1611967, 1612589, 1613077, 1613687, 1614200, 1614853]",61,OR,U,R,ITMSR,1.1
1,400,trial,0,83,83,83,trial,"['S', 'S', 'S', 'S', 'S', 'S', 'S', 'C', 'C', 'C', 'C', 'C', 'C', 'C', 'C', 'C', 'C', 'C', 'C', 'C', 'C', 'C', 'C']","[1620760, 1621125, 1621522, 1621928, 1622328, 1622731, 1623109, 1623552, 1623961, 1624343, 1624711, 1625094, 1625537, 1625949, 1626319, 1626705, 1627096, 1627547, 1627935, 1628307, 1628696, 1629082, 1629500]","[1620886, 1621216, 1621658, 1622040, 1622471, 1622879, 1623275, 1623677, 1624071, 1624451, 1624862, 1625254, 1625626, 1626029, 1626436, 1626809, 1627218, 1627645, 1628054, 1628438, 1628840, 1629195, 1629606]","[96, 156, 212, 247, 151, 112, 143, 86, 213, 242, 233, 20, 177, 16, 60, 243, 91, 228, 39, 118, 91, 52, 80]","[1620815, 1621171, 1621527, 1621978, 1622333, 1622784, 1623171, 1623558, 1623967, 1624349, 1624794, 1625178, 1625603, 1625994, 1626379, 1626750, 1627154, 1627584, 1627988, 1628386, 1628789, 1629145, 1629550]","[1620408, 1620807, 1621208, 1621608, 1622008, 1622408, 1622808, 1623208, 1623572, 1623981, 1624364, 1624731, 1625114, 1625558, 1625969, 1626339, 1626725, 1627116, 1627567, 1627955, 1628327, 1628717, 1629102, 1629520]",61,OR,U,R,ITMSR,1.1
0,600,trial,0,84,84,84,trial,"['S', 'S', 'S', 'S', 'S', 'S', 'S', 'C', 'C', 'C', 'C', 'C', 'C', 'C', 'C', 'C', 'C', 'C', 'C', 'C', 'C', 'C', 'C']","[1635870, 1636329, 1636974, 1637594, 1638185, 1638797, 1639344, 1640002, 1640608, 1641234, 1641821, 1642405, 1642981, 1643583, 1644154, 1644739, 1645296, 1645929, 1646517, 1646927, 1647434, 1648061, 1648684]","[1635988, 1636568, 1637104, 1637720, 1638323, 1638939, 1639498, 1640155, 1640736, 1641342, 1641950, 1642518, 1643125, 1643678, 1644279, 1644882, 1645412, 1646056, 1646639, 1646974, 1647531, 1648187, 1648773]","[44, 163, 153, 149, 125, 153, 114, 152, 89, 117, 27, 235, 157, 48, 141, 13, 45, 78, 54, 32, 12, 51, 241]","[1635940, 1636433, 1636978, 1637598, 1638191, 1638868, 1639422, 1640008, 1640614, 1641285, 1641826, 1642452, 1643058, 1643645, 1644160, 1644826, 1645347, 1645986, 1646578, 1646934, 1647491, 1648131, 1648690]","[1635196, 1635796, 1636397, 1636997, 1637597, 1638197, 1638797, 1639397, 1640023, 1640628, 1641254, 1641841, 1642425, 1643001, 1643603, 1644174, 1644760, 1645316, 1645949, 1646537, 1646947, 1647454, 1648081, 1648704]",61,OR,U,R,ITMSR,1.1
0,400,trial,0,85,85,85,trial,"['S', 'S', 'S', 'S', 'S', 'S', 'S', 'C', 'C', 'C', 'C', 'C', 'C', 'C', 'C', 'C', 'C', 'C', 'C', 'C', 'C', 'C', 'C']","[1654517, 1654976, 1655421, 1655832, 1656265, 1656785, 1657107, 1657496, 1657869, 1658279, 1658707, 1659095, 1659528, 1659880, 1660253, 1660632, 1661064, 1661528, 1661890, 1662256, 1662620, 1663046, 1663436]","[1654624, 1655084, 1655539, 1655914, 1656663, 1656885, 1657238, 1657635, 1658007, 1658427, 1658809, 1659197, 1659625, 1660029, 1660391, 1660788, 1661185, 1661630, 1662032, 1662380, 1662775, 1663148, 1663581]","[124, 48, 251, 180, 106, 205, 184, 155, 176, 171, 244, 105, 244, 175, 72, 192, 85, 59, 2, 147, 245, 135, 142]","[1654563, 1655031, 1655426, 1655837, 1656270, 1656836, 1657112, 1657501, 1657873, 1658285, 1658715, 1659100, 1659535, 1659884, 1660335, 1660637, 1661070, 1661535, 1661953, 1662262, 1662624, 1663052, 1663501]","[1654338, 1654738, 1655138, 1655538, 1655938, 1656338, 1656738, 1657138, 1657517, 1657889, 1658299, 1658727, 1659115, 1659548, 1659900, 1660273, 1660652, 1661084, 1661548, 1661911, 1662276, 1662640, 1663066, 1663456]",61,OR,U,R,ITMSR,1.1
2,400,trial,0,86,86,86,trial,"['S', 'S', 'S', 'S', 'S', 'S', 'S', 'C', 'C', 'C', 'C', 'C', 'C', 'C', 'C', 'C', 'C', 'C', 'C', 'C', 'C', 'C', 'C']","[1669349, 1669603, 1669981, 1670351, 1670781, 1671192, 1671571, 1671980, 1672385, 1672750, 1673108, 1673493, 1673905, 1674332, 1674701, 1675082, 1675441, 1675841, 1676224, 1676619, 1677018, 1677388, 1677736]","[1669460, 1669732, 1670110, 1670495, 1670924, 1671319, 1671724, 1672159, 1672534, 1672912, 1673242, 1673649, 1674019, 1674475, 1674859, 1675253, 1675613, 1675978, 1676370, 1676770, 1677144, 1677540, 1677888]","[95, 129, 252, 107, 153, 1, 171, 217, 109, 142, 70, 87, 225, 46, 109, 126, 131, 35, 52, 74, 11, 147, 124]","[1669422, 1669660, 1670032, 1670355, 1670787, 1671196, 1671576, 1671984, 1672391, 1672823, 1673158, 1673573, 1673954, 1674383, 1674780, 1675165, 1675521, 1675846, 1676292, 1676626, 1677074, 1677470, 1677742]","[1668849, 1669250, 1669650, 1670050, 1670450, 1670850, 1671250, 1671650, 1672000, 1672406, 1672770, 1673128, 1673513, 1673925, 1674352, 1674721, 1675102, 1675461, 1675862, 1676244, 1676639, 1677038, 1677408, 1677756]",61,OR,U,R,ITMSR,1.1
3,600,trial,0,87,87,87,trial,"['S', 'S', 'S', 'S', 'S', 'S', 'S', 'C', 'C', 'C', 'C', 'C', 'C', 'C', 'C', 'C', 'C', 'C', 'C', 'C', 'C', 'C', 'C']","[1683700, 1684340, 1684944, 1685554, 1686145, 1686766, 1687311, 1687948, 1688516, 1689149, 1689677, 1690315, 1690938, 1691510, 1692106, 1692656, 1693271, 1693899, 1694468, 1695067, 1695622, 1696242, 1696801]","[1683791, 1684438, 1685069, 1685681, 1686257, 1686920, 1687441, 1688079, 1688648, 1689246, 1689759, 1690376, 1691012, 1691567, 1692185, 1692720, 1693344, 1693995, 1694538, 1695148, 1695700, 1696278, 1696907]","[135, 145, 211, 187, 79, 182, 133, 84, 5, 215, 96, 238, 50, 63, 227, 182, 108, 229, 41, 111, 57, 143, 188]","[1683742, 1684382, 1684995, 1685610, 1686151, 1686829, 1687365, 1688015, 1688573, 1689190, 1689714, 1690360, 1690966, 1691535, 1692160, 1692695, 1693306, 1693938, 1694508, 1695104, 1695664, 1696262, 1696848]","[1683210, 1683810, 1684410, 1685010, 1685610, 1686210, 1686810, 1687410, 1687968, 1688536, 1689169, 1689697, 1690335, 1690958, 1691530, 1692126, 1692676, 1693291, 1693919, 1694488, 1695087, 1695642, 1696262, 1696821]",61,OR,U,R,ITMSR,1.1
2,600,trial,0,88,88,88,trial,"['S', 'S', 'S', 'S', 'S', 'S', 'S', 'C', 'C', 'C', 'C', 'C', 'C', 'C', 'C', 'C', 'C', 'C', 'C', 'C', 'C', 'C', 'C']","[1702479, 1703227, 1703901, 1704449, 1705054, 1705636, 1706285, 1706954, 1707509, 1708100, 1708625, 1709210, 1709844, 1710345, 1711059, 1711657, 1712234, 1712544, 1713326, 1713861, 1715427, 1715966, 1716567]","[1702578, 1703352, 1704017, 1704568, 1705135, 1705747, 1706416, 1707062, 1707620, 1708201, 1708708, 1709335, 1709936, 1710462, 1711137, 1711761, 1712334, 1712586, 1713386, 1713910, 1715531, 1716091, 1716743]","[198, 88, 68, 233, 201, 238, 190, 143, 112, 208, 73, 215, 131, 69, 6, 41, 104, 120, 115, 135, 211, 160, 183]","[1702514, 1703279, 1703953, 1704505, 1705061, 1705641, 1706334, 1707011, 1707565, 1708150, 1708666, 1709284, 1709893, 1710393, 1711098, 1711698, 1712282, 1712572, 1713371, 1713895, 1715432, 1716041, 1716651]","[1702128, 1702728, 1703328, 1703928, 1704528, 1705128, 1705729, 1706328, 1706974, 1707529, 1708120, 1708645, 1709230, 1709864, 1710365, 1711079, 1711677, 1712254, 1712564, 1713346, 1713881, 1715447, 1715986, 1716587]",61,OR,U,R,ITMSR,1.1
3,400,trial,0,89,89,89,trial,"['S', 'S', 'S', 'S', 'S', 'S', 'S', 'C', 'C', 'C', 'C', 'C', 'C', 'C', 'C', 'C', 'C', 'C', 'C', 'C', 'C', 'C', 'C']","[1722418, 1722849, 1723244, 1723620, 1724050, 1724490, 1724928, 1725267, 1725685, 1726066, 1726468, 1726892, 1727300, 1727685, 1728063, 1728459, 1728883, 1729266, 1729656, 1730059, 1730457, 1730823, 1731228]","[1722527, 1722962, 1723370, 1723773, 1724184, 1724606, 1725020, 1725401, 1725776, 1726194, 1726622, 1726987, 1727413, 1727805, 1728205, 1728574, 1729019, 1729394, 1729804, 1730191, 1730605, 1730975, 1731400]","[184, 223, 125, 99, 146, 128, 242, 63, 95, 242, 59, 239, 169, 100, 174, 108, 218, 169, 181, 146, 189, 189, 228]","[1722488, 1722898, 1723249, 1723625, 1724055, 1724496, 1724935, 1725318, 1725692, 1726115, 1726546, 1726896, 1727352, 1727730, 1728132, 1728523, 1728955, 1729325, 1729738, 1730119, 1730521, 1730896, 1731323]","[1722141, 1722541, 1722941, 1723341, 1723741, 1724141, 1724541, 1724941, 1725287, 1725705, 1726086, 1726488, 1726912, 1727320, 1727705, 1728083, 1728479, 1728903, 1729286, 1729676, 1730079, 1730477, 1730843, 1731248]",61,OR,U,R,ITMSR,1.1
5,600,trial,0,90,90,90,trial,"['S', 'S', 'S', 'S', 'S', 'S', 'C', 'C', 'C', 'C', 'C', 'C', 'C', 'C', 'C', 'C', 'C', 'C', 'C', 'C', 'C', 'C']","[1737900, 1738493, 1739108, 1739734, 1740295, 1740904, 1741497, 1742069, 1742667, 1743260, 1743843, 1744483, 1745111, 1745711, 1746296, 1746880, 1747428, 1747961, 1748548, 1749163, 1749804, 1750325]","[1738031, 1738593, 1739246, 1739843, 1740425, 1741020, 1741621, 1742206, 1742785, 1743373, 1743973, 1744585, 1745187, 1745817, 1746412, 1747041, 1747544, 1748142, 1748603, 1749303, 1749892, 1750489]","[200, 236, 51, 225, 18, 135, 49, 102, 131, 145, 55, 124, 196, 2, 173, 100, 143, 119, 254, 200, 0, 77]","[1737976, 1738500, 1739164, 1739740, 1740347, 1740909, 1741546, 1742119, 1742741, 1743312, 1743889, 1744532, 1745117, 1745715, 1746365, 1746974, 1747474, 1748044, 1748551, 1749246, 1749810, 1750411]","[1736745, 1737346, 1737946, 1738546, 1739146, 1739746, 1740346, 1740946, 1741517, 1742089, 1742687, 1743280, 1743863, 1744503, 1745131, 1745731, 1746316, 1746900, 1747448, 1747981, 1748568, 1749183, 1749824, 1750345]",61,OR,U,R,ITMSR,1.1
