pitch,ioi,event,.thisRepN,.thisTrialN,.thisN,.thisIndex,event,tap_types,tap_times,release_times,peak_pressures,peak_times,tone_times,subject,experimenter,register,handedness,experiment,version,
,,SPR,0,-1,-1,0,SPR,"['P', 'P', 'P', 'P', 'P', 'P', 'P', 'P', 'P', 'P', 'P', 'P', 'P', 'P', 'P', 'P', 'P', 'P', 'P', 'P', 'P', 'P', 'P', 'P', 'P', 'P', 'P', 'P', 'P', 'P']","[38544, 40188, 42029, 43772, 45579, 47431, 49341, 51063, 52731, 54491, 56243, 58062, 59769, 61356, 63025, 64670, 66323, 67987, 69528, 71083, 72674, 74180, 75564, 77059, 78407, 79907, 81452, 83073, 84649, 86197]","[39588, 41366, 43078, 44914, 46696, 48569, 50251, 51984, 53782, 55495, 57228, 58986, 60567, 62206, 63865, 65473, 67166, 68765, 70273, 71876, 73397, 74868, 76412, 77764, 79205, 80801, 82342, 83998, 85410, 86976]","[224, 225, 226, 227, 223, 227, 224, 224, 228, 228, 227, 227, 221, 221, 224, 222, 224, 223, 222, 222, 218, 218, 220, 226, 222, 226, 225, 217, 219, 220]","[38995, 41103, 42405, 44453, 45970, 48058, 50094, 51678, 53571, 55250, 56858, 58712, 60230, 61875, 63568, 65186, 66936, 68536, 70037, 71607, 73203, 74427, 76108, 77578, 78915, 80364, 81970, 83580, 85223, 86675]",,92,OR,L,R,ITMSR,1.1,
0,500,practice,0,0,0,0,practice,"['B', 'S', 'S', 'S', 'S', 'S', 'S', 'C', 'C', 'C', 'C', 'C', 'C', 'C', 'C', 'C', 'C', 'C', 'C', 'C', 'C', 'C', 'C', 'C']","[157135, 157925, 158500, 159013, 159535, 160082, 160619, 161094, 161543, 161942, 162280, 162581, 162846, 163249, 163670, 164067, 164462, 164891, 165292, 165670, 166100, 166501, 166930, 167341]","[157608, 158138, 158658, 159194, 159730, 160239, 160747, 161207, 161675, 162068, 162393, 162688, 162944, 163390, 163825, 164222, 164616, 165046, 165446, 165830, 166243, 166654, 167064, 167485]","[136, 133, 40, 59, 22, 231, 195, 140, 159, 222, 227, 226, 229, 34, 67, 40, 9, 15, 42, 36, 254, 22, 40, 250]","[157135, 158029, 158583, 159099, 159607, 160134, 160675, 161140, 161549, 161989, 162338, 162626, 162855, 163319, 163755, 164149, 164552, 164971, 165367, 165732, 166174, 166581, 166993, 167419]","[157147, 157646, 158146, 158646, 159147, 159646, 160146, 160646, 161114, 161563, 161963, 162300, 162601, 163269, 163690, 164087, 164482, 164911, 165312, 165690, 166120, 166521, 166950, 167361]",92,OR,L,R,ITMSR,1.1,
5,500,practice,0,1,1,1,practice,"['B', 'S', 'S', 'S', 'S', 'S', 'S', 'S', 'C', 'C', 'C', 'C', 'C', 'C', 'C', 'C', 'C', 'C', 'C', 'C', 'C', 'C', 'C', 'C']","[173134, 173743, 174109, 174576, 175055, 175526, 176018, 176498, 176972, 177369, 177825, 178265, 178706, 179151, 179589, 180031, 180480, 180914, 181372, 181810, 182267, 182709, 183140, 183584]","[173220, 173917, 174307, 174753, 175221, 175675, 176147, 176615, 177085, 177490, 177978, 178396, 178838, 179269, 179734, 180169, 180610, 181059, 181497, 181953, 182393, 182811, 183262, 183705]","[58, 54, 54, 32, 232, 12, 224, 240, 242, 255, 202, 144, 100, 123, 146, 94, 103, 160, 109, 104, 139, 251, 138, 81]","[173134, 173840, 174215, 174671, 175139, 175593, 176079, 176560, 177028, 177417, 177884, 178323, 178758, 179190, 179650, 180099, 180531, 180983, 181428, 181869, 182326, 182744, 183184, 183631]","[173148, 173647, 174147, 174647, 175148, 175647, 176147, 176647, 176992, 177389, 177845, 178285, 178726, 179171, 179609, 180051, 180500, 180934, 181392, 181830, 182287, 182729, 183160, 183604]",92,OR,L,R,ITMSR,1.1,
3,500,practice,0,2,2,2,practice,"['S', 'S', 'S', 'S', 'S', 'S', 'S', 'C', 'C', 'C', 'C', 'C', 'C', 'C', 'C', 'C', 'C', 'C', 'C', 'C', 'C', 'C', 'C']","[189744, 190231, 190738, 191248, 191760, 192277, 192781, 193272, 193785, 194273, 194738, 195222, 195693, 196157, 196638, 197128, 197612, 198129, 198579, 199096, 199557, 200035, 200512]","[189870, 190336, 190854, 191381, 191900, 192410, 192918, 193403, 193910, 194403, 194866, 195336, 195822, 196272, 196746, 197259, 197739, 198245, 198710, 199212, 199683, 200161, 200641]","[239, 155, 195, 144, 226, 182, 162, 141, 142, 86, 123, 110, 180, 101, 117, 158, 94, 148, 180, 119, 144, 170, 152]","[189793, 190266, 190788, 191308, 191823, 192318, 192843, 193323, 193828, 194329, 194801, 195261, 195753, 196205, 196685, 197188, 197675, 198174, 198647, 199143, 199617, 200083, 200569]","[189334, 189834, 190334, 190834, 191334, 191834, 192334, 192834, 193292, 193805, 194293, 194758, 195243, 195714, 196177, 196658, 197148, 197633, 198149, 198599, 199116, 199577, 200055, 200532]",92,OR,L,R,ITMSR,1.1,
1,500,practice,0,3,3,3,practice,"['S', 'S', 'S', 'S', 'S', 'S', 'S', 'C', 'C', 'C', 'C', 'C', 'C', 'C', 'C', 'C', 'C', 'C', 'C', 'C', 'C', 'C', 'C']","[206572, 207092, 207631, 208130, 208625, 209133, 209643, 210148, 210666, 211153, 211641, 212117, 212630, 213056, 213580, 214055, 214547, 215013, 215491, 215971, 216474, 216962, 217468]","[206706, 207264, 207771, 208301, 208785, 209309, 209805, 210333, 210835, 211291, 211802, 212275, 212768, 213219, 213767, 214221, 214704, 215202, 215676, 216190, 216662, 217146, 217620]","[52, 244, 30, 0, 201, 6, 14, 82, 254, 176, 220, 208, 185, 242, 249, 206, 202, 204, 236, 37, 229, 236, 228]","[206637, 207157, 207674, 208190, 208688, 209203, 209715, 210209, 210736, 211197, 211703, 212193, 212665, 213117, 213653, 214127, 214604, 215087, 215587, 216066, 216544, 217048, 217543]","[206277, 206777, 207277, 207777, 208277, 208777, 209277, 209777, 210168, 210686, 211173, 211661, 212137, 212651, 213076, 213600, 214075, 214567, 215033, 215512, 215991, 216494, 216982, 217488]",92,OR,L,R,ITMSR,1.1,
2,500,practice,0,4,4,4,practice,"['B', 'S', 'S', 'S', 'S', 'S', 'S', 'S', 'C', 'C', 'C', 'C', 'C', 'C', 'C', 'C', 'C', 'C', 'C', 'C', 'C', 'C', 'C', 'C']","[222853, 223363, 223831, 224305, 224799, 225258, 225767, 226258, 226778, 227303, 227744, 228202, 228644, 229085, 229555, 229985, 230491, 230967, 231424, 231847, 232272, 232689, 233150, 233594]","[223015, 223533, 223980, 224486, 224945, 225400, 225905, 226382, 226904, 227412, 227861, 228332, 228782, 229207, 229683, 230148, 230643, 231104, 231559, 231974, 232397, 232816, 233261, 233711]","[222, 162, 161, 187, 115, 126, 103, 33, 22, 249, 23, 77, 78, 33, 26, 97, 92, 62, 39, 28, 62, 66, 9, 69]","[222943, 223442, 223911, 224387, 224857, 225321, 225829, 226300, 226822, 227340, 227789, 228253, 228708, 229136, 229626, 230066, 230553, 231032, 231495, 231914, 232328, 232751, 233211, 233653]","[222864, 223363, 223863, 224363, 224863, 225363, 225863, 226363, 226798, 227323, 227764, 228222, 228664, 229105, 229575, 230005, 230511, 230987, 231444, 231867, 232292, 232709, 233170, 233614]",92,OR,L,R,ITMSR,1.1,
4,500,practice,0,5,5,5,practice,"['B', 'S', 'S', 'S', 'S', 'S', 'S', 'S', 'C', 'C', 'C', 'C', 'C', 'C', 'C', 'C', 'C', 'C', 'C', 'C', 'C', 'C', 'C', 'C']","[238998, 239514, 239955, 240405, 240872, 241323, 241838, 242328, 242820, 243289, 243748, 244192, 244643, 245099, 245508, 245952, 246392, 246818, 247279, 247713, 248111, 248531, 248927, 249349]","[239262, 239740, 240172, 240663, 241120, 241566, 242118, 242586, 243045, 243467, 243932, 244388, 244839, 245281, 245687, 246116, 246544, 246986, 247446, 247891, 248336, 248743, 249149, 249580]","[237, 158, 176, 70, 66, 65, 59, 73, 52, 236, 247, 22, 17, 6, 253, 224, 179, 238, 194, 200, 217, 203, 208, 222]","[239138, 239637, 240083, 240545, 241000, 241471, 241975, 242485, 242925, 243363, 243831, 244289, 244746, 245191, 245599, 246024, 246451, 246891, 247359, 247800, 248233, 248639, 249049, 249476]","[239009, 239508, 240008, 240508, 241008, 241508, 242008, 242508, 242840, 243309, 243768, 244212, 244663, 245120, 245528, 245972, 246412, 246838, 247299, 247733, 248131, 248551, 248947, 249369]",92,OR,L,R,ITMSR,1.1,
1,600,trial,0,6,6,6,trial,"['B', 'S', 'S', 'S', 'S', 'S', 'S', 'S', 'C', 'C', 'C', 'C', 'C', 'C', 'C', 'C', 'C', 'C', 'C', 'C', 'C', 'C', 'C', 'C']","[310853, 311274, 311908, 312633, 313198, 313752, 314345, 314967, 315585, 316193, 316826, 317411, 317996, 318567, 319172, 319775, 320356, 320946, 321543, 322139, 322714, 323273, 323908, 324514]","[311099, 311673, 312294, 312870, 313449, 314001, 314641, 315282, 315865, 316460, 317059, 317665, 318244, 318794, 319436, 320050, 320651, 321238, 321787, 322378, 322966, 323496, 324154]","[137, 117, 140, 138, 154, 149, 127, 134, 117, 87, 139, 136, 143, 123, 141, 139, 151, 130, 132, 137, 133, 131, 128]","[310853, 311397, 312108, 312749, 313316, 313875, 314502, 315125, 315720, 316331, 316960, 317538, 318131, 318675, 319315, 319906, 320513, 321078, 321653, 322271, 322841, 323387, 324016]","[310866, 311465, 312066, 312666, 313266, 313866, 314466, 315066, 315606, 316213, 316846, 317431, 318016, 318587, 319192, 319795, 320376, 320966, 321563, 322159, 322734, 323293, 323928, 324534]",92,OR,L,R,ITMSR,1.1,
4,400,trial,0,7,7,7,trial,"['B', 'S', 'S', 'S', 'S', 'S', 'S', 'S', 'C', 'C', 'C', 'C', 'C', 'C', 'C', 'C', 'C', 'C', 'C', 'C', 'C', 'C', 'C', 'C']","[330209, 330687, 331025, 331356, 331714, 332131, 332481, 332899, 333318, 333673, 334021, 334358, 334703, 335071, 335417, 335796, 336151, 336514, 336874, 337235, 337582, 337967, 338322, 338668]","[330478, 330911, 331189, 331506, 331865, 332284, 332668, 333075, 333466, 333801, 334170, 334512, 334828, 335208, 335575, 335916, 336285, 336622, 337000, 337353, 337722, 338089, 338439, 338811]","[187, 154, 141, 122, 131, 111, 116, 91, 94, 8, 71, 58, 41, 40, 84, 250, 42, 46, 16, 48, 43, 26, 6, 68]","[330322, 330815, 331091, 331417, 331790, 332198, 332569, 332969, 333385, 333721, 334072, 334423, 334753, 335123, 335488, 335840, 336201, 336565, 336930, 337280, 337643, 338012, 338367, 338726]","[330220, 330620, 331020, 331420, 331821, 332221, 332621, 333021, 333338, 333693, 334041, 334379, 334723, 335091, 335437, 335816, 336172, 336534, 336894, 337255, 337602, 337987, 338342, 338689]",92,OR,L,R,ITMSR,1.1,
3,400,trial,0,8,8,8,trial,"['S', 'S', 'S', 'S', 'S', 'S', 'S', 'C', 'C', 'C', 'C', 'C', 'C', 'C', 'C', 'C', 'C', 'C', 'C', 'C', 'C', 'C', 'C']","[344386, 344859, 345348, 345753, 346159, 346548, 346944, 347320, 347713, 348089, 348470, 348837, 349198, 349581, 349929, 350327, 350678, 351077, 351446, 351778, 352133, 352473, 352851]","[344598, 345054, 345505, 345897, 346279, 346674, 347058, 347443, 347833, 348206, 348572, 348953, 349317, 349696, 350050, 350437, 350801, 351159, 351525, 351889, 352226, 352588, 352945]","[81, 77, 215, 206, 172, 198, 203, 152, 162, 164, 58, 178, 228, 105, 228, 201, 174, 0, 36, 234, 165, 239, 156]","[344484, 344938, 345409, 345816, 346210, 346613, 346989, 347368, 347759, 348136, 348515, 348877, 349254, 349623, 349977, 350370, 350727, 351121, 351478, 351817, 352165, 352520, 352885]","[344195, 344595, 344995, 345395, 345795, 346195, 346595, 346995, 347340, 347734, 348109, 348490, 348857, 349218, 349601, 349949, 350347, 350698, 351097, 351466, 351798, 352153, 352493, 352871]",92,OR,L,R,ITMSR,1.1,
3,400,trial,0,9,9,9,trial,"['B', 'S', 'S', 'S', 'S', 'S', 'S', 'S', 'C', 'C', 'C', 'C', 'C', 'C', 'C', 'C', 'C', 'C', 'C', 'C', 'C', 'C', 'C', 'C']","[358453, 358788, 359190, 359553, 359920, 360364, 360790, 361169, 361592, 362005, 362360, 362744, 363118, 363476, 363842, 364191, 364557, 364941, 365287, 365638, 365998, 366362, 366709, 367054]","[358695, 359044, 359398, 359768, 360171, 360554, 360962, 361332, 361741, 362153, 362492, 362893, 363252, 363594, 363987, 364345, 364695, 365097, 365433, 365791, 366148, 366504, 366876, 367187]","[91, 85, 30, 79, 94, 40, 227, 244, 189, 199, 196, 217, 185, 177, 228, 230, 153, 245, 220, 234, 254, 30, 33, 243]","[358467, 358922, 359271, 359668, 360048, 360448, 360853, 361238, 361660, 362065, 362417, 362805, 363180, 363522, 363900, 364264, 364631, 365021, 365355, 365703, 366067, 366420, 366782, 367119]","[358465, 358865, 359265, 359665, 360066, 360466, 360866, 361266, 361612, 362025, 362380, 362764, 363138, 363496, 363863, 364211, 364577, 364961, 365307, 365658, 366018, 366382, 366729, 367074]",92,OR,L,R,ITMSR,1.1,
5,400,trial,0,10,10,10,trial,"['B', 'S', 'S', 'S', 'S', 'S', 'S', 'S', 'C', 'C', 'C', 'C', 'C', 'C', 'C', 'C', 'C', 'C', 'C', 'C', 'C', 'C', 'C', 'C']","[372468, 372845, 373143, 373548, 373935, 374344, 374726, 375135, 375546, 375895, 376262, 376616, 376977, 377346, 377684, 378019, 378366, 378719, 379099, 379409, 379785, 380118, 380460, 380781]","[372596, 373008, 373327, 373734, 374129, 374528, 374921, 375318, 375726, 376029, 376388, 376777, 377133, 377481, 377806, 378145, 378496, 378864, 379193, 379583, 379916, 380255, 380591, 380915]","[79, 86, 79, 88, 77, 83, 81, 88, 82, 35, 15, 48, 44, 28, 219, 239, 228, 30, 176, 35, 33, 25, 47, 57]","[372531, 372916, 373218, 373617, 374017, 374427, 374810, 375212, 375617, 375963, 376313, 376685, 377034, 377392, 377733, 378064, 378424, 378769, 379128, 379490, 379841, 380174, 380516, 380833]","[372481, 372880, 373280, 373680, 374080, 374480, 374880, 375280, 375566, 375915, 376282, 376636, 376997, 377366, 377704, 378039, 378386, 378739, 379119, 379429, 379805, 380138, 380480, 380802]",92,OR,L,R,ITMSR,1.1,
2,400,trial,0,11,11,11,trial,"['S', 'S', 'S', 'S', 'S', 'S', 'S', 'S', 'C', 'C', 'C', 'C', 'C', 'C', 'C', 'C', 'C', 'C', 'C', 'C', 'C', 'C', 'C', 'C']","[386565, 386902, 387284, 387651, 388022, 388415, 388805, 389199, 389614, 389982, 390360, 390756, 391127, 391500, 391854, 392213, 392570, 392953, 393307, 393628, 393993, 394315, 394694, 395060]","[386765, 387081, 387472, 387842, 388216, 388589, 388964, 389360, 389775, 390123, 390495, 390880, 391264, 391632, 391981, 392336, 392721, 393082, 393430, 393756, 394137, 394449, 394826, 395210]","[121, 116, 104, 91, 74, 67, 71, 59, 36, 6, 227, 13, 33, 35, 253, 15, 44, 202, 246, 11, 248, 15, 233, 58]","[386670, 386988, 387355, 387738, 388116, 388491, 388879, 389266, 389688, 390042, 390407, 390810, 391183, 391558, 391912, 392269, 392639, 392994, 393355, 393688, 394046, 394374, 394741, 395124]","[386523, 386923, 387323, 387723, 388123, 388524, 388923, 389323, 389634, 390002, 390380, 390776, 391147, 391520, 391874, 392233, 392590, 392973, 393327, 393648, 394013, 394335, 394714, 395080]",92,OR,L,R,ITMSR,1.1,
3,600,trial,0,12,12,12,trial,"['S', 'S', 'S', 'S', 'S', 'S', 'S', 'S', 'S', 'C', 'C', 'C', 'C', 'C', 'C', 'C', 'C', 'C', 'C', 'C', 'C', 'C', 'C', 'C', 'C']","[400839, 401139, 401436, 401798, 402382, 402962, 403554, 404146, 404715, 405337, 405915, 406462, 407034, 407572, 408093, 408671, 409248, 409787, 410397, 410964, 411541, 412088, 412623, 413172, 413693]","[400996, 401311, 401611, 402142, 402661, 403262, 403840, 404422, 405043, 405607, 406183, 406749, 407319, 407870, 408432, 408982, 409551, 410131, 410699, 411287, 411828, 412365, 412887, 413408, 413952]","[74, 71, 134, 171, 159, 151, 149, 145, 145, 113, 94, 136, 144, 148, 152, 151, 172, 171, 151, 148, 145, 149, 104, 124, 131]","[400909, 401236, 401526, 401968, 402522, 403116, 403690, 404278, 404889, 405469, 406034, 406607, 407187, 407736, 408278, 408834, 409405, 409957, 410570, 411152, 411729, 412241, 412775, 413282, 413843]","[400695, 401294, 401894, 402494, 403094, 403694, 404294, 404894, 405357, 405935, 406482, 407054, 407592, 408113, 408691, 409268, 409807, 410417, 410984, 411561, 412108, 412643, 413192, 413713]",92,OR,L,R,ITMSR,1.1,
5,600,trial,0,13,13,13,trial,"['B', 'S', 'S', 'S', 'S', 'S', 'S', 'C', 'C', 'C', 'C', 'C', 'C', 'C', 'C', 'C', 'C', 'C', 'C', 'C', 'C', 'C', 'C']","[419036, 419398, 419917, 420482, 421829, 422427, 423026, 423596, 424083, 424609, 425132, 425662, 426163, 426657, 427107, 427581, 428046, 428524, 428940, 429393, 429818, 430236, 430664]","[419205, 419702, 420402, 421572, 422073, 422643, 423262, 423865, 424351, 424891, 425379, 425889, 426399, 426863, 427315, 427807, 428276, 428747, 429145, 429592, 430026, 430444, 430906]","[142, 163, 209, 219, 190, 124, 175, 171, 167, 171, 146, 164, 157, 139, 139, 148, 133, 131, 119, 105, 107, 120, 126]","[419051, 419542, 420148, 420744, 421948, 422547, 423140, 423710, 424228, 424751, 425243, 425762, 426280, 426748, 427211, 427680, 428145, 428626, 429045, 429475, 429910, 430329, 430760]","[419049, 419649, 420249, 420849, 421449, 422049, 422649, 423249, 423616, 424103, 424629, 425152, 425682, 426183, 426677, 427127, 427601, 428066, 428545, 428960, 429413, 429838, 430256, 430684]",92,OR,L,R,ITMSR,1.1,
0,600,trial,0,14,14,14,trial,"['B', 'S', 'S', 'S', 'S', 'S', 'S', 'S', 'C', 'C', 'C', 'C', 'C', 'C', 'C', 'C', 'C', 'C', 'C', 'C', 'C', 'C', 'C', 'C']","[435991, 436434, 437125, 437727, 438288, 438907, 439517, 440092, 440716, 441383, 441957, 442503, 443096, 443709, 444258, 444833, 445446, 446023, 446592, 447128, 447645, 448167, 448724, 449261]","[436184, 436766, 437399, 437892, 438464, 439072, 439684, 440290, 440904, 441527, 442103, 442640, 443256, 443851, 444382, 444963, 445564, 446155, 446749, 447291, 447817, 448338, 448884, 449431]","[157, 122, 150, 96, 95, 71, 84, 93, 96, 53, 64, 64, 77, 59, 30, 21, 18, 52, 56, 71, 75, 87, 5, 29]","[435991, 436591, 437254, 437804, 438362, 438976, 439598, 440190, 440807, 441453, 442025, 442561, 443183, 443766, 444316, 444893, 445499, 446094, 446664, 447197, 447728, 448249, 448783, 449343]","[436001, 436601, 437201, 437801, 438402, 439002, 439602, 440202, 440736, 441403, 441977, 442523, 443116, 443729, 444278, 444853, 445466, 446043, 446612, 447149, 447665, 448187, 448744, 449282]",92,OR,L,R,ITMSR,1.1,
4,400,trial,0,15,15,15,trial,"['S', 'S', 'S', 'S', 'S', 'S', 'S', 'C', 'C', 'C', 'C', 'C', 'C', 'C', 'C', 'C', 'C', 'C', 'C', 'C', 'C', 'C', 'C']","[455106, 455471, 455913, 456275, 456717, 457193, 457595, 458035, 458372, 458723, 459145, 459491, 459863, 460215, 460574, 460938, 461298, 461679, 462043, 462419, 462725, 463080, 463431]","[455235, 455602, 456040, 456416, 456856, 457317, 457738, 458150, 458504, 458864, 459287, 459640, 460010, 460363, 460722, 461092, 461438, 461829, 462154, 462550, 462915, 463250, 463574]","[26, 221, 4, 50, 239, 229, 10, 32, 234, 244, 243, 13, 0, 0, 31, 32, 37, 40, 202, 196, 81, 41, 27]","[455164, 455522, 455977, 456340, 456763, 457250, 457668, 458097, 458407, 458764, 459203, 459536, 459928, 460292, 460635, 461012, 461355, 461749, 462083, 462479, 462809, 463164, 463495]","[454953, 455353, 455753, 456153, 456553, 456953, 457353, 457753, 458055, 458392, 458743, 459165, 459511, 459883, 460235, 460594, 460958, 461318, 461699, 462063, 462439, 462745, 463100, 463451]",92,OR,L,R,ITMSR,1.1,
4,600,trial,0,16,16,16,trial,"['S', 'S', 'S', 'S', 'S', 'S', 'S', 'S', 'C', 'C', 'C', 'C', 'C', 'C', 'C', 'C', 'C', 'C', 'C', 'C', 'C', 'C', 'C', 'C']","[469231, 469599, 470175, 470798, 471411, 472002, 472596, 473221, 473809, 474313, 474813, 475328, 475883, 476396, 476899, 477437, 477974, 478514, 479015, 479580, 480100, 480642, 481126, 481630]","[469371, 469909, 470499, 471117, 471729, 472324, 472905, 473500, 474040, 474504, 474982, 475537, 476086, 476615, 477122, 477697, 478269, 478795, 479307, 479831, 480399, 480940, 481402, 481887]","[2, 77, 71, 64, 60, 225, 44, 34, 31, 24, 2, 47, 25, 31, 35, 37, 64, 43, 232, 40, 39, 42, 249, 245]","[469296, 469686, 470372, 470943, 471596, 472126, 472697, 473316, 473936, 474412, 474888, 475432, 475986, 476499, 477012, 477568, 478102, 478668, 479133, 479713, 480290, 480770, 481275, 481775]","[469096, 469695, 470295, 470895, 471495, 472095, 472695, 473295, 473829, 474333, 474833, 475348, 475904, 476417, 476919, 477457, 477995, 478534, 479035, 479600, 480120, 480662, 481146, 481650]",92,OR,L,R,ITMSR,1.1,
2,400,trial,0,17,17,17,trial,"['B', 'S', 'S', 'S', 'S', 'S', 'S', 'S', 'C', 'C', 'C', 'C', 'C', 'C', 'C', 'C', 'C', 'C', 'C', 'C', 'C', 'C', 'C', 'C']","[487069, 487462, 487863, 488238, 488638, 489021, 489428, 489834, 490231, 490634, 491046, 491452, 491878, 492274, 492702, 493106, 493509, 493922, 494308, 494722, 495112, 495526, 495911, 496321]","[487145, 487692, 488052, 488397, 488757, 489155, 489545, 489953, 490351, 490752, 491154, 491570, 491992, 492397, 492839, 493248, 493639, 494061, 494419, 494822, 495238, 495630, 496030, 496456]","[252, 34, 17, 242, 112, 241, 207, 184, 205, 210, 206, 194, 154, 192, 173, 250, 201, 164, 109, 188, 176, 161, 232, 253]","[487069, 487599, 487960, 488307, 488681, 489085, 489469, 489876, 490288, 490681, 491052, 491457, 491919, 492318, 492762, 493175, 493553, 493967, 494314, 494764, 495160, 495567, 495916, 496325]","[487080, 487480, 487880, 488280, 488680, 489080, 489480, 489880, 490251, 490654, 491066, 491472, 491898, 492294, 492722, 493126, 493529, 493942, 494328, 494742, 495132, 495546, 495931, 496342]",92,OR,L,R,ITMSR,1.1,
1,600,trial,0,18,18,18,trial,"['S', 'S', 'S', 'S', 'S', 'S', 'S', 'C', 'C', 'C', 'C', 'C', 'C', 'C', 'C', 'C', 'C', 'C', 'C', 'C', 'C', 'C', 'C']","[502156, 502831, 503507, 504281, 504860, 505479, 506073, 506669, 507208, 507785, 508325, 508905, 509462, 510014, 510584, 511112, 511718, 512288, 512908, 513421, 514001, 514508, 515061]","[502479, 503165, 503797, 504398, 505059, 505663, 506285, 506842, 507404, 507971, 508525, 509107, 509724, 510260, 510839, 511427, 512019, 512672, 513221, 513743, 514270, 514794, 515314]","[74, 96, 88, 205, 65, 76, 127, 101, 90, 86, 117, 109, 130, 114, 113, 124, 119, 124, 99, 95, 111, 113, 140]","[502307, 503060, 503706, 504344, 504954, 505549, 506196, 506749, 507292, 507880, 508421, 509012, 509597, 510132, 510703, 511301, 511881, 512557, 513108, 513628, 514186, 514646, 515165]","[502004, 502604, 503204, 503804, 504404, 505005, 505605, 506205, 506689, 507228, 507805, 508345, 508925, 509483, 510034, 510604, 511132, 511738, 512308, 512928, 513441, 514021, 514528, 515081]",92,OR,L,R,ITMSR,1.1,
2,600,trial,0,19,19,19,trial,"['S', 'S', 'S', 'S', 'S', 'S', 'S', 'S', 'S', 'C', 'C', 'C', 'C', 'C', 'C', 'C', 'C', 'C', 'C', 'C', 'C', 'C', 'C', 'C', 'C']","[521009, 521306, 521867, 522455, 523041, 523555, 524150, 524705, 525281, 525932, 526446, 527009, 527661, 528281, 528915, 529580, 530225, 530833, 531410, 532025, 532622, 533245, 533868, 534493, 535158]","[521166, 521558, 522139, 522711, 523292, 523852, 524420, 524951, 525574, 526196, 526702, 527302, 528003, 528662, 529259, 529966, 530555, 531131, 531745, 532324, 532950, 533627, 534255, 534853]","[81, 131, 127, 103, 107, 109, 104, 62, 40, 127, 119, 119, 141, 186, 161, 161, 153, 153, 156, 144, 142, 153, 155, 120]","[521076, 521434, 521985, 522573, 523155, 523705, 524284, 524816, 525427, 526044, 526554, 527149, 527826, 528527, 529092, 529777, 530371, 530979, 531566, 532198, 532772, 533460, 534078, 534597]","[520852, 521452, 522052, 522652, 523252, 523852, 524452, 525052, 525953, 526466, 527029, 527681, 528301, 528935, 529600, 530245, 530853, 531430, 532045, 532642, 533265, 533889, 534513, 535178]",92,OR,L,R,ITMSR,1.1,
0,400,trial,0,20,20,20,trial,"['S', 'S', 'S', 'S', 'S', 'S', 'S', 'C', 'C', 'C', 'C', 'C', 'C', 'C', 'C', 'C', 'C', 'C', 'C', 'C', 'C', 'C', 'C']","[540880, 541260, 541733, 542175, 542594, 542997, 543421, 543830, 544197, 544562, 544946, 545320, 545699, 546048, 546411, 546769, 547132, 547490, 547811, 548178, 548546, 548925, 549270]","[541086, 541470, 541944, 542358, 542756, 543175, 543618, 544008, 544370, 544708, 545092, 545476, 545848, 546186, 546561, 546913, 547275, 547616, 547950, 548306, 548680, 549045, 549407]","[113, 132, 116, 106, 107, 118, 113, 106, 110, 39, 63, 51, 68, 49, 77, 62, 86, 78, 82, 82, 67, 60, 34]","[540980, 541345, 541830, 542258, 542685, 543084, 543510, 543911, 544287, 544635, 545026, 545399, 545732, 546125, 546491, 546809, 547209, 547523, 547841, 548208, 548579, 548950, 549298]","[540751, 541151, 541551, 541952, 542351, 542751, 543151, 543551, 543850, 544217, 544582, 544966, 545340, 545719, 546068, 546432, 546789, 547152, 547510, 547831, 548198, 548567, 548945, 549291]",92,OR,L,R,ITMSR,1.1,
4,600,trial,0,21,21,21,trial,"['B', 'S', 'S', 'S', 'S', 'S', 'S', 'S', 'S', 'C', 'C', 'C', 'C', 'C', 'C', 'C', 'C', 'C', 'C', 'C', 'C', 'C', 'C', 'C', 'C']","[554620, 554960, 555470, 556092, 556721, 557296, 557852, 558477, 559072, 559678, 560362, 561017, 561704, 562448, 563234, 563857, 564589, 565244, 565856, 566464, 567090, 567811, 568501, 569209, 569895]","[554779, 555301, 555878, 556461, 557056, 557618, 558203, 558796, 559420, 559940, 560608, 561240, 561935, 562710, 563530, 564255, 564939, 565558, 566150, 566785, 567446, 568158, 568830, 569506]","[77, 95, 125, 117, 110, 125, 117, 119, 108, 115, 113, 80, 100, 124, 142, 152, 193, 208, 207, 205, 211, 195, 215, 216]","[554633, 555112, 555720, 556295, 556952, 557499, 558080, 558670, 559289, 559799, 560480, 561121, 561814, 562600, 563399, 564091, 564765, 565408, 565996, 566610, 567267, 568024, 568687, 569348]","[554632, 555231, 555831, 556431, 557031, 557631, 558231, 558831, 559698, 560382, 561037, 561724, 562468, 563254, 563877, 564610, 565264, 565876, 566484, 567110, 567831, 568521, 569229, 569915]",92,OR,L,R,ITMSR,1.1,
0,400,trial,0,22,22,22,trial,"['B', 'S', 'S', 'S', 'S', 'S', 'S', 'S', 'S', 'C', 'C', 'C', 'C', 'C', 'C', 'C', 'C', 'C', 'C', 'C', 'C', 'C', 'C', 'C', 'C']","[575535, 575832, 576240, 576629, 576994, 577388, 577775, 578179, 578568, 578985, 579367, 579761, 580145, 580514, 580892, 581242, 581584, 581933, 582232, 582620, 582944, 583284, 583627, 583963, 584304]","[575681, 576160, 576525, 576897, 577302, 577668, 578029, 578440, 578835, 579255, 579625, 580015, 580403, 580782, 581156, 581475, 581799, 582132, 582435, 582807, 583165, 583503, 583809, 584129, 584488]","[172, 203, 198, 198, 207, 200, 199, 199, 201, 220, 220, 215, 213, 214, 212, 206, 192, 185, 183, 172, 193, 194, 186, 157, 148]","[575535, 576010, 576399, 576754, 577127, 577520, 577892, 578308, 578713, 579091, 579472, 579872, 580263, 580632, 581002, 581335, 581663, 582006, 582317, 582692, 583038, 583361, 583689, 584019, 584379]","[575545, 575945, 576345, 576745, 577145, 577545, 577945, 578345, 579005, 579387, 579781, 580165, 580534, 580912, 581262, 581604, 581953, 582252, 582640, 582964, 583304, 583647, 583983, 584324]",92,OR,L,R,ITMSR,1.1,
5,400,trial,0,23,23,23,trial,"['S', 'S', 'S', 'S', 'S', 'S', 'S', 'C', 'C', 'C', 'C', 'C', 'C', 'C', 'C', 'C', 'C', 'C', 'C', 'C', 'C', 'C', 'C']","[590150, 590589, 591010, 591455, 591858, 592302, 592655, 593126, 593423, 593837, 594216, 594556, 594923, 595270, 595624, 595951, 596307, 596668, 597025, 597392, 597747, 598099, 598436]","[590436, 590872, 591271, 591676, 592082, 592507, 592867, 593302, 593655, 594050, 594411, 594778, 595132, 595506, 595824, 596196, 596508, 596879, 597221, 597608, 597934, 598287, 598647]","[185, 195, 181, 173, 178, 174, 181, 162, 172, 172, 170, 173, 154, 167, 161, 170, 162, 163, 156, 136, 128, 127, 149]","[590312, 590726, 591137, 591548, 591961, 592398, 592752, 593210, 593531, 593935, 594309, 594672, 595014, 595390, 595715, 596062, 596398, 596765, 597115, 597489, 597827, 598179, 598533]","[589989, 590389, 590789, 591190, 591589, 591989, 592389, 592789, 593146, 593443, 593857, 594236, 594576, 594944, 595290, 595644, 595971, 596327, 596688, 597045, 597412, 597767, 598119, 598456]",92,OR,L,R,ITMSR,1.1,
2,600,trial,0,24,24,24,trial,"['S', 'S', 'S', 'S', 'S', 'S', 'S', 'S', 'C', 'C', 'C', 'C', 'C', 'C', 'C', 'C', 'C', 'C', 'C', 'C', 'C', 'C', 'C', 'C']","[604365, 604793, 605329, 605879, 606472, 607035, 607627, 608239, 608794, 609355, 609910, 610430, 610985, 611522, 612007, 612545, 613080, 613593, 614118, 614618, 615133, 615628, 616143, 616649]","[604603, 605081, 605595, 606201, 606740, 607292, 607873, 608479, 609008, 609633, 610153, 610722, 611232, 611843, 612334, 612852, 613399, 613942, 614459, 614957, 615465, 615967, 616487]","[152, 218, 163, 180, 179, 165, 132, 170, 156, 192, 177, 188, 179, 185, 188, 187, 177, 185, 177, 183, 183, 185, 159]","[604457, 604943, 605461, 606071, 606593, 607164, 607726, 608351, 608893, 609485, 610013, 610560, 611100, 611631, 612170, 612698, 613241, 613742, 614302, 614787, 615283, 615795, 616276]","[604234, 604834, 605434, 606034, 606635, 607234, 607834, 608434, 608814, 609375, 609930, 610450, 611005, 611543, 612027, 612566, 613100, 613613, 614138, 614638, 615153, 615648, 616163, 616669]",92,OR,L,R,ITMSR,1.1,
0,600,trial,0,25,25,25,trial,"['B', 'S', 'S', 'S', 'S', 'S', 'S', 'S', 'C', 'C', 'C', 'C', 'C', 'C', 'C', 'C', 'C', 'C', 'C', 'C', 'C', 'C', 'C', 'C']","[622103, 622453, 623094, 623652, 624212, 624830, 625451, 626063, 626683, 627456, 628255, 629020, 629785, 630490, 631174, 631911, 632717, 633480, 634245, 635006, 635841, 636653, 637491, 638341]","[622302, 622950, 623456, 624032, 624586, 625212, 625814, 626458, 627055, 627847, 628671, 629352, 630131, 630837, 631517, 632370, 633043, 633872, 634586, 635325, 636169, 636944, 637827]","[194, 184, 181, 159, 139, 143, 157, 151, 162, 184, 191, 168, 179, 187, 187, 190, 202, 214, 192, 185, 191, 188, 188]","[622115, 622636, 623278, 623831, 624463, 625029, 625648, 626298, 626920, 627595, 628474, 629169, 629975, 630699, 631332, 632156, 632924, 633701, 634455, 635204, 635987, 636781, 637688]","[622114, 622714, 623314, 623915, 624514, 625114, 625714, 626314, 626703, 627476, 628275, 629040, 629805, 630510, 631194, 631931, 632737, 633500, 634265, 635026, 635862, 636674, 637511, 638361]",92,OR,L,R,ITMSR,1.1,
1,400,trial,0,26,26,26,trial,"['S', 'S', 'S', 'S', 'S', 'S', 'S', 'C', 'C', 'C', 'C', 'C', 'C', 'C', 'C', 'C', 'C', 'C', 'C', 'C', 'C', 'C', 'C']","[644217, 644673, 645134, 645551, 645958, 646354, 646743, 647155, 647561, 647958, 648339, 648742, 649134, 649507, 649913, 650309, 650706, 651082, 651470, 651845, 652266, 652659, 653061]","[644482, 644919, 645327, 645747, 646116, 646520, 646879, 647327, 647718, 648095, 648482, 648885, 649286, 649657, 650065, 650441, 650856, 651232, 651624, 651978, 652389, 652797, 653191]","[188, 171, 141, 116, 84, 76, 17, 69, 67, 30, 31, 23, 40, 27, 50, 242, 51, 31, 58, 33, 205, 252, 232]","[644339, 644786, 645225, 645636, 646029, 646421, 646801, 647235, 647619, 648014, 648395, 648788, 649195, 649558, 649969, 650354, 650770, 651133, 651537, 651890, 652311, 652716, 653105]","[643977, 644376, 644776, 645176, 645576, 645976, 646376, 646776, 647175, 647581, 647979, 648359, 648762, 649154, 649527, 649933, 650329, 650726, 651102, 651490, 651865, 652286, 652679, 653081]",92,OR,L,R,ITMSR,1.1,
1,400,trial,0,27,27,27,trial,"['S', 'S', 'S', 'S', 'S', 'S', 'S', 'C', 'C', 'C', 'C', 'C', 'C', 'C', 'C', 'C', 'C', 'C', 'C', 'C', 'C', 'C', 'C']","[658751, 659182, 659617, 660062, 660504, 660964, 661376, 661745, 662203, 662589, 662981, 663359, 663741, 664128, 664483, 664903, 665275, 665690, 666061, 666450, 666834, 667215, 667581]","[658940, 659399, 659792, 660222, 660651, 661121, 661515, 661885, 662320, 662710, 663101, 663492, 663860, 664262, 664625, 665041, 665419, 665816, 666203, 666575, 666967, 667369, 667747]","[130, 99, 71, 63, 5, 17, 237, 239, 156, 171, 215, 249, 218, 9, 254, 225, 229, 158, 250, 172, 244, 9, 21]","[658834, 659275, 659681, 660120, 660566, 661030, 661434, 661812, 662253, 662641, 663033, 663424, 663793, 664189, 664557, 664966, 665335, 665736, 666117, 666497, 666883, 667285, 667651]","[658607, 659007, 659407, 659807, 660207, 660608, 661007, 661407, 661765, 662223, 662609, 663001, 663379, 663761, 664148, 664503, 664923, 665295, 665710, 666081, 666470, 666854, 667235, 667601]",92,OR,L,R,ITMSR,1.1,
3,600,trial,0,28,28,28,trial,"['B', 'S', 'S', 'S', 'S', 'S', 'S', 'S', 'C', 'C', 'C', 'C', 'C', 'C', 'C', 'C', 'C', 'C', 'C', 'C', 'C', 'C', 'C', 'C']","[673320, 673680, 674286, 674872, 675457, 676017, 676649, 677246, 677895, 678514, 679129, 679755, 680378, 680985, 681623, 682243, 682863, 683413, 684061, 684646, 685245, 685869, 686508, 687096]","[673526, 673928, 674570, 675178, 675723, 676282, 676873, 677555, 678125, 678810, 679490, 680098, 680714, 681318, 681950, 682569, 683169, 683729, 684390, 684963, 685566, 686190, 686747, 687349]","[148, 101, 151, 165, 141, 119, 83, 38, 76, 152, 171, 166, 172, 177, 174, 167, 174, 172, 179, 180, 181, 171, 175, 182]","[673416, 673806, 674448, 675039, 675613, 676151, 676771, 677464, 678016, 678669, 679317, 679947, 680579, 681164, 681796, 682416, 683026, 683588, 684252, 684831, 685411, 686082, 686616, 687210]","[673334, 673934, 674534, 675134, 675734, 676334, 676934, 677534, 677915, 678534, 679149, 679775, 680398, 681005, 681644, 682263, 682883, 683433, 684081, 684666, 685265, 685889, 686528, 687116]",92,OR,L,R,ITMSR,1.1,
5,600,trial,0,29,29,29,trial,"['B', 'S', 'S', 'S', 'S', 'S', 'S', 'S', 'C', 'C', 'C', 'C', 'C', 'C', 'C', 'C', 'C', 'C', 'C', 'C', 'C', 'C', 'C', 'C']","[692487, 692872, 693467, 694114, 694702, 695360, 695931, 696564, 697150, 697754, 698320, 698883, 699486, 700075, 700681, 701270, 701774, 702309, 702783, 703309, 703861, 704304, 704866, 705416]","[692611, 693112, 693696, 694279, 694880, 695518, 696155, 696734, 697359, 697991, 698570, 699094, 699724, 700283, 700897, 701500, 702016, 702543, 703017, 703763, 704174, 704619, 705119]","[170, 156, 175, 185, 173, 151, 190, 177, 183, 198, 186, 161, 179, 158, 154, 163, 164, 161, 172, 169, 189, 185, 174]","[692487, 692982, 693566, 694180, 694794, 695428, 696039, 696626, 697253, 697848, 698423, 698978, 699594, 700174, 700778, 701385, 701881, 702413, 702892, 703419, 704013, 704483, 704970]","[692500, 693100, 693700, 694300, 694900, 695500, 696100, 696700, 697170, 697774, 698340, 698903, 699506, 700095, 700701, 701290, 701794, 702329, 702803, 703329, 703881, 704324, 704886, 705436]",92,OR,L,R,ITMSR,1.1,
4,400,trial,0,30,30,30,trial,"['S', 'S', 'S', 'S', 'S', 'S', 'C', 'C', 'C', 'C', 'C', 'C', 'C', 'C', 'C', 'C', 'C', 'C', 'C', 'C', 'C', 'C']","[721371, 721745, 722044, 722391, 722767, 723196, 723581, 723921, 724323, 724701, 725076, 725453, 725793, 726164, 726516, 726902, 727282, 727640, 728000, 728355, 728720, 729086]","[721528, 721929, 722228, 722538, 722947, 723385, 723760, 724113, 724501, 724862, 725251, 725615, 725966, 726350, 726691, 727057, 727437, 727791, 728186, 728530, 728915, 729300]","[187, 183, 178, 152, 151, 166, 146, 140, 122, 108, 109, 109, 128, 123, 98, 97, 88, 111, 109, 93, 97, 83]","[721439, 721821, 722128, 722457, 722848, 723278, 723665, 724017, 724398, 724763, 725155, 725536, 725866, 726253, 726595, 726965, 727354, 727680, 728062, 728431, 728816, 729174]","[720440, 720840, 721240, 721640, 722040, 722440, 722840, 723240, 723601, 723941, 724343, 724721, 725096, 725473, 725813, 726184, 726536, 726922, 727302, 727660, 728020, 728375, 728740, 729106]",92,OR,L,R,ITMSR,1.1,
5,400,trial,0,31,31,31,trial,"['S', 'S', 'S', 'S', 'S', 'S', 'S', 'S', 'C', 'C', 'C', 'C', 'C', 'C', 'C', 'C', 'C', 'C', 'C', 'C', 'C', 'C', 'C', 'C']","[734676, 734979, 735321, 735714, 736070, 736490, 736894, 737316, 737710, 738074, 738501, 738876, 739301, 739691, 740101, 740486, 740850, 741266, 741635, 742052, 742421, 742850, 743226, 743616]","[734809, 735168, 735496, 735879, 736276, 736675, 737064, 737490, 737879, 738245, 738654, 739030, 739457, 739842, 740221, 740638, 740947, 741395, 741767, 742194, 742569, 742970, 743383, 743762]","[100, 147, 71, 17, 32, 23, 60, 19, 248, 248, 221, 231, 225, 197, 179, 212, 162, 227, 241, 3, 248, 23, 38, 206]","[734735, 735068, 735387, 735808, 736161, 736583, 736971, 737391, 737793, 738150, 738565, 738941, 739371, 739762, 740145, 740540, 740855, 741270, 741639, 742056, 742424, 742853, 743229, 743620]","[734543, 734943, 735343, 735744, 736143, 736543, 736943, 737343, 737730, 738094, 738521, 738896, 739321, 739712, 740121, 740506, 740870, 741286, 741655, 742072, 742441, 742871, 743246, 743636]",92,OR,L,R,ITMSR,1.1,
2,400,trial,0,32,32,32,trial,"['S', 'S', 'S', 'S', 'S', 'S', 'S', 'S', 'C', 'C', 'C', 'C', 'C', 'C', 'C', 'C', 'C', 'C', 'C', 'C', 'C', 'C', 'C', 'C']","[749556, 749893, 750217, 750537, 750919, 751303, 751714, 752150, 752546, 752978, 753359, 753742, 754135, 754519, 754870, 755258, 755636, 756062, 756438, 756824, 757202, 757564, 757934, 758233]","[749737, 750102, 750382, 750714, 751099, 751502, 751880, 752290, 752719, 753126, 753505, 753895, 754283, 754651, 755011, 755407, 755785, 756199, 756578, 756969, 757342, 757719, 758068, 758418]","[35, 99, 74, 71, 61, 77, 76, 76, 89, 69, 45, 11, 21, 16, 4, 13, 7, 22, 240, 50, 9, 241, 237, 244]","[749670, 749979, 750303, 750626, 751001, 751405, 751790, 752215, 752641, 753049, 753428, 753798, 754206, 754575, 754924, 755307, 755697, 756066, 756442, 756828, 757267, 757628, 757984, 758312]","[749426, 749826, 750226, 750626, 751026, 751426, 751826, 752226, 752566, 752998, 753379, 753762, 754155, 754539, 754890, 755278, 755656, 756082, 756458, 756844, 757222, 757584, 757954, 758253]",92,OR,L,R,ITMSR,1.1,
1,600,trial,0,33,33,33,trial,"['B', 'S', 'S', 'S', 'S', 'S', 'S', 'S', 'S', 'C', 'C', 'C', 'C', 'C', 'C', 'C', 'C', 'C', 'C', 'C', 'C', 'C', 'C', 'C', 'C']","[763617, 763940, 764573, 765123, 765689, 766286, 766893, 767466, 768062, 768717, 769339, 769949, 770667, 771377, 772110, 772849, 773528, 774195, 774891, 775561, 776223, 776903, 777649, 778364, 779047]","[763816, 764433, 764952, 765460, 766021, 766602, 767165, 767730, 768345, 769002, 769617, 770230, 770969, 771690, 772352, 773080, 773850, 774577, 775326, 775998, 776671, 777207, 777876, 778573, 779303]","[132, 121, 93, 121, 138, 139, 130, 85, 92, 195, 174, 163, 154, 202, 181, 102, 192, 222, 222, 233, 233, 221, 199, 190, 202]","[763617, 764068, 764817, 765334, 765898, 766455, 767027, 767616, 768219, 768828, 769478, 770075, 770817, 771538, 772221, 772964, 773704, 774333, 775135, 775773, 776456, 777055, 777743, 778461, 779167]","[763629, 764229, 764829, 765429, 766029, 766629, 767229, 767830, 768737, 769359, 769969, 770688, 771397, 772130, 772869, 773549, 774215, 774912, 775581, 776243, 776923, 777669, 778384, 779067]",92,OR,L,R,ITMSR,1.1,
2,600,trial,0,34,34,34,trial,"['S', 'S', 'S', 'S', 'S', 'S', 'S', 'S', 'C', 'C', 'C', 'C', 'C', 'C', 'C', 'C', 'C', 'C', 'C', 'C', 'C', 'C', 'C', 'C']","[784942, 785575, 786037, 786579, 787138, 787719, 788300, 788907, 789521, 790055, 790659, 791228, 791839, 792370, 792940, 793459, 793966, 794486, 795062, 795612, 796195, 796798, 797373, 797924]","[785288, 785879, 786357, 786889, 787453, 788027, 788602, 789184, 789778, 790340, 790947, 791546, 792147, 792678, 793250, 793744, 794323, 794825, 795350, 795927, 796495, 797075, 797660]","[127, 197, 213, 196, 213, 203, 197, 195, 171, 194, 205, 223, 222, 216, 224, 219, 228, 229, 225, 222, 221, 208, 194]","[785012, 785709, 786158, 786675, 787303, 787863, 788448, 789029, 789642, 790197, 790785, 791403, 791971, 792519, 793068, 793593, 794123, 794630, 795190, 795769, 796352, 796928, 797494]","[784823, 785423, 786023, 786623, 787223, 787823, 788423, 789023, 789541, 790075, 790679, 791248, 791859, 792390, 792961, 793479, 793986, 794506, 795082, 795632, 796215, 796818, 797393, 797944]",92,OR,L,R,ITMSR,1.1,
0,400,trial,0,35,35,35,trial,"['B', 'S', 'S', 'S', 'S', 'S', 'S', 'C', 'C', 'C', 'C', 'C', 'C', 'C', 'C', 'C', 'C', 'C', 'C', 'C', 'C', 'C', 'C']","[803604, 803913, 804384, 805165, 805529, 805975, 806384, 806787, 807147, 807553, 807944, 808372, 808740, 809143, 809505, 809892, 810294, 810658, 811033, 811405, 811779, 812135, 812505]","[803740, 804304, 805085, 805397, 805775, 806214, 806597, 807002, 807389, 807756, 808188, 808594, 808979, 809364, 809707, 810147, 810531, 810888, 811286, 811636, 812017, 812350, 812705]","[84, 212, 200, 203, 187, 180, 170, 176, 174, 161, 182, 185, 186, 177, 174, 186, 182, 179, 176, 180, 182, 176, 153]","[803604, 804096, 804512, 805239, 805630, 806082, 806480, 806884, 807279, 807641, 808055, 808476, 808848, 809254, 809592, 810001, 810397, 810749, 811144, 811509, 811883, 812226, 812589]","[803614, 804014, 804414, 804814, 805214, 805614, 806014, 806414, 806807, 807168, 807573, 807964, 808392, 808760, 809163, 809525, 809912, 810314, 810678, 811053, 811425, 811799, 812155, 812525]",92,OR,L,R,ITMSR,1.1,
3,600,trial,0,36,36,36,trial,"['B', 'S', 'S', 'S', 'S', 'S', 'S', 'S', 'S', 'C', 'C', 'C', 'C', 'C', 'C', 'C', 'C', 'C', 'C', 'C', 'C', 'C', 'C', 'C', 'C']","[818311, 818556, 819219, 819782, 820338, 820971, 821535, 822123, 822717, 823342, 824007, 824682, 825263, 825926, 826514, 827145, 827719, 828292, 828821, 829350, 829884, 830432, 830911, 831377, 831848]","[818453, 818894, 819570, 820127, 820707, 821239, 821824, 822405, 822980, 823676, 824328, 825026, 825609, 826235, 826845, 827494, 828021, 828579, 829165, 829678, 830205, 830784, 831251, 831685]","[186, 196, 204, 194, 197, 184, 184, 186, 187, 194, 207, 206, 209, 207, 211, 206, 207, 208, 205, 202, 200, 213, 216, 211]","[818311, 818709, 819395, 819946, 820524, 821097, 821654, 822246, 822843, 823492, 824136, 824811, 825398, 826052, 826648, 827275, 827846, 828389, 828943, 829488, 830051, 830600, 831089, 831519]","[818323, 818923, 819523, 820123, 820723, 821323, 821923, 822523, 823362, 824027, 824702, 825283, 825946, 826534, 827165, 827739, 828312, 828841, 829370, 829904, 830452, 830931, 831397, 831868]",92,OR,L,R,ITMSR,1.1,
3,400,trial,0,37,37,37,trial,"['S', 'S', 'S', 'S', 'S', 'S', 'S', 'S', 'C', 'C', 'C', 'C', 'C', 'C', 'C', 'C', 'C', 'C', 'C', 'C', 'C', 'C', 'C', 'C']","[837473, 837858, 838161, 838454, 838828, 839268, 839658, 840065, 840465, 840818, 841184, 841563, 841934, 842278, 842656, 843020, 843413, 843804, 844160, 844522, 844875, 845266, 845633, 845982]","[837734, 838081, 838330, 838652, 839028, 839446, 839802, 840221, 840615, 840965, 841326, 841717, 842089, 842438, 842819, 843174, 843575, 843931, 844276, 844659, 844993, 845395, 845759, 846097]","[198, 193, 187, 191, 196, 191, 156, 179, 175, 156, 148, 145, 135, 136, 123, 115, 112, 89, 86, 111, 100, 112, 109, 117]","[837593, 837951, 838227, 838540, 838923, 839337, 839724, 840129, 840529, 840887, 841240, 841628, 842005, 842346, 842729, 843085, 843488, 843855, 844211, 844584, 844922, 845318, 845690, 846029]","[837356, 837755, 838155, 838555, 838956, 839355, 839755, 840155, 840485, 840838, 841204, 841583, 841954, 842298, 842676, 843040, 843433, 843824, 844180, 844542, 844895, 845286, 845654, 846002]",92,OR,L,R,ITMSR,1.1,
4,600,trial,0,38,38,38,trial,"['B', 'S', 'S', 'S', 'S', 'S', 'S', 'S', 'C', 'C', 'C', 'C', 'C', 'C', 'C', 'C', 'C', 'C', 'C', 'C', 'C', 'C', 'C', 'C']","[851502, 851862, 852478, 853055, 853667, 854236, 854768, 855352, 855981, 856605, 857204, 857843, 858521, 859130, 859774, 860401, 861035, 861598, 862188, 862686, 863370, 863895, 864498, 864960]","[851724, 852165, 852838, 853450, 853998, 854552, 855097, 855713, 856335, 856983, 857677, 858275, 858868, 859487, 860059, 860596, 861185, 861758, 862386, 862936, 863578, 864111, 864681, 865146]","[201, 190, 178, 204, 205, 205, 202, 206, 204, 218, 220, 222, 226, 231, 216, 173, 162, 157, 172, 190, 161, 133, 148, 143]","[851586, 852004, 852651, 853259, 853829, 854407, 854934, 855532, 856142, 856766, 857407, 858056, 858688, 859316, 859900, 860491, 861091, 861679, 862279, 862778, 863444, 863975, 864585, 865037]","[851513, 852113, 852713, 853313, 853913, 854513, 855113, 855713, 856001, 856625, 857224, 857863, 858541, 859150, 859794, 860421, 861056, 861618, 862209, 862706, 863390, 863916, 864518, 864980]",92,OR,L,R,ITMSR,1.1,
0,600,trial,0,39,39,39,trial,"['S', 'S', 'S', 'S', 'S', 'S', 'S', 'S', 'C', 'C', 'C', 'C', 'C', 'C', 'C', 'C', 'C', 'C', 'C', 'C', 'C', 'C', 'C', 'C']","[870623, 871285, 871897, 872539, 873177, 873776, 874307, 874933, 875656, 876236, 876933, 877612, 878257, 878919, 879631, 880329, 880975, 881603, 882287, 882984, 883646, 884346, 885009, 885633]","[871036, 871699, 872219, 872804, 873458, 874041, 874645, 875200, 875930, 876534, 877189, 877858, 878498, 879213, 879869, 880576, 881253, 881861, 882488, 883179, 883863, 884534, 885211, 885837]","[187, 201, 189, 169, 169, 147, 161, 127, 207, 215, 210, 205, 204, 212, 197, 198, 212, 201, 190, 176, 183, 173, 188, 183]","[870801, 871471, 872085, 872659, 873316, 873912, 874509, 875066, 875766, 876361, 877054, 877718, 878372, 879082, 879749, 880458, 881091, 881703, 882372, 883063, 883744, 884429, 885102, 885715]","[870563, 871163, 871763, 872364, 872963, 873563, 874163, 874763, 875676, 876256, 876953, 877632, 878277, 878939, 879651, 880349, 880995, 881624, 882307, 883004, 883666, 884366, 885029, 885653]",92,OR,L,R,ITMSR,1.1,
3,600,trial,0,40,40,40,trial,"['S', 'S', 'S', 'S', 'S', 'S', 'S', 'C', 'C', 'C', 'C', 'C', 'C', 'C', 'C', 'C', 'C', 'C', 'C', 'C', 'C', 'C', 'C']","[891330, 892068, 892678, 893278, 893877, 894548, 895174, 895807, 896526, 897198, 897811, 898467, 899127, 899728, 900324, 900861, 901419, 902120, 902693, 903249, 903778, 904389, 904933]","[891659, 892311, 892890, 893513, 894117, 894737, 895385, 896008, 896811, 897430, 898064, 898642, 899418, 899950, 900519, 901062, 901621, 902246, 902833, 903391, 903948, 904539, 905202]","[175, 176, 161, 171, 153, 126, 104, 112, 185, 176, 168, 114, 164, 148, 151, 140, 149, 94, 49, 91, 111, 115, 146]","[891435, 892167, 892770, 893396, 893972, 894626, 895286, 895905, 896654, 897294, 897916, 898546, 899279, 899827, 900427, 900954, 901507, 902178, 902754, 903313, 903840, 904454, 905029]","[891309, 891909, 892509, 893109, 893709, 894309, 894909, 895509, 895827, 896546, 897218, 897831, 898487, 899147, 899748, 900344, 900881, 901439, 902140, 902713, 903269, 903798, 904409, 904953]",92,OR,L,R,ITMSR,1.1,
3,400,trial,0,41,41,41,trial,"['B', 'S', 'S', 'S', 'S', 'S', 'S', 'C', 'C', 'C', 'C', 'C', 'C', 'C', 'C', 'C', 'C', 'C', 'C', 'C', 'C', 'C', 'C']","[910395, 910733, 911263, 911765, 912150, 912580, 913011, 913475, 913831, 914194, 914549, 914934, 915309, 915677, 916042, 916424, 916805, 917194, 917575, 917945, 918309, 918674, 919036]","[910571, 911093, 911513, 911962, 912338, 912746, 913158, 913577, 913980, 914332, 914712, 915097, 915458, 915830, 916195, 916580, 916948, 917338, 917712, 918083, 918460, 918771, 919141]","[178, 164, 116, 125, 99, 88, 74, 69, 138, 115, 127, 122, 120, 115, 107, 95, 87, 83, 62, 63, 60, 255, 3]","[910424, 910926, 911408, 911848, 912241, 912652, 913079, 913520, 913899, 914250, 914617, 914999, 915377, 915733, 916110, 916488, 916866, 917256, 917621, 917992, 918371, 918680, 919041]","[910407, 910808, 911208, 911608, 912008, 912408, 912808, 913208, 913496, 913851, 914214, 914569, 914954, 915330, 915697, 916062, 916444, 916825, 917214, 917595, 917965, 918329, 918694, 919056]",92,OR,L,R,ITMSR,1.1,
5,400,trial,0,42,42,42,trial,"['S', 'S', 'S', 'S', 'S', 'S', 'S', 'S', 'C', 'C', 'C', 'C', 'C', 'C', 'C', 'C', 'C', 'C', 'C', 'C', 'C', 'C', 'C', 'C']","[924579, 924981, 925333, 925618, 925976, 926339, 926741, 927175, 927547, 927969, 928334, 928711, 929084, 929434, 929830, 930202, 930574, 930946, 931300, 931654, 931998, 932385, 932745, 933124]","[924860, 925203, 925519, 925795, 926175, 926555, 926957, 927366, 927760, 928149, 928523, 928882, 929263, 929597, 929997, 930426, 930808, 931160, 931504, 931837, 932194, 932570, 932944, 933357]","[182, 165, 158, 164, 173, 180, 184, 178, 180, 170, 167, 159, 163, 155, 161, 180, 180, 178, 173, 160, 154, 160, 167, 172]","[924702, 925075, 925417, 925690, 926065, 926437, 926840, 927264, 927654, 928037, 928403, 928784, 929153, 929499, 929899, 930305, 930672, 931032, 931384, 931724, 932077, 932466, 932826, 933234]","[924439, 924839, 925239, 925639, 926040, 926440, 926840, 927240, 927567, 927989, 928354, 928731, 929104, 929454, 929850, 930222, 930594, 930966, 931320, 931674, 932018, 932405, 932765, 933144]",92,OR,L,R,ITMSR,1.1,
5,600,trial,0,43,43,43,trial,"['B', 'S', 'S', 'S', 'S', 'S', 'S', 'S', 'S', 'C', 'C', 'C', 'C', 'C', 'C', 'C', 'C', 'C', 'C', 'C', 'C', 'C', 'C', 'C', 'C']","[938694, 939055, 939465, 940040, 940724, 941294, 941897, 942532, 943139, 943799, 944436, 945130, 945759, 946433, 947104, 947724, 948401, 949155, 949815, 950501, 951166, 951825, 952430, 953174, 953825]","[938885, 939282, 939824, 940404, 941020, 941662, 942278, 942886, 943533, 944217, 944874, 945481, 946139, 946797, 947473, 948001, 948758, 949532, 950185, 950822, 951480, 952102, 952753, 953430]","[154, 140, 206, 200, 187, 188, 196, 197, 178, 191, 197, 207, 213, 217, 215, 207, 212, 220, 221, 232, 230, 225, 218, 219]","[938717, 939156, 939650, 940210, 940857, 941450, 942108, 942710, 943407, 943927, 944662, 945253, 945932, 946614, 947305, 947852, 948602, 949339, 950025, 950670, 951317, 951954, 952586, 953277]","[938706, 939307, 939906, 940506, 941106, 941706, 942306, 942906, 943819, 944456, 945150, 945779, 946453, 947124, 947744, 948421, 949175, 949835, 950521, 951186, 951845, 952450, 953194, 953845]",92,OR,L,R,ITMSR,1.1,
1,600,trial,0,44,44,44,trial,"['B', 'S', 'S', 'S', 'S', 'S', 'S', 'S', 'C', 'C', 'C', 'C', 'C', 'C', 'C', 'C', 'C', 'C', 'C', 'C', 'C', 'C', 'C', 'C']","[959599, 960016, 960643, 961219, 961767, 962350, 962974, 963564, 964208, 964762, 965326, 965918, 966479, 967025, 967604, 968170, 968833, 969369, 969935, 970457, 971069, 971592, 972180, 972724]","[959803, 960412, 961008, 961606, 962166, 962736, 963381, 963947, 964496, 965004, 965547, 966152, 966721, 967268, 967865, 968475, 969115, 969650, 970199, 970744, 971333, 971859, 972437]","[138, 167, 114, 147, 77, 183, 17, 76, 246, 63, 8, 1, 85, 37, 64, 88, 113, 110, 77, 104, 30, 123, 114]","[959673, 960146, 960646, 961221, 961816, 962356, 963258, 963773, 964291, 964864, 965428, 966034, 966558, 967028, 967724, 968173, 968912, 969372, 969939, 970594, 971072, 971595, 972183]","[959612, 960212, 960813, 961413, 962013, 962613, 963213, 963813, 964228, 964782, 965346, 965938, 966499, 967045, 967624, 968190, 968853, 969389, 969955, 970477, 971089, 971612, 972200, 972744]",92,OR,L,R,ITMSR,1.1,
5,600,trial,0,45,45,45,trial,"['S', 'S', 'S', 'S', 'S', 'S', 'S', 'S', 'C', 'C', 'C', 'C', 'C', 'C', 'C', 'C', 'C', 'C', 'C', 'C', 'C', 'C', 'C', 'C']","[978435, 979082, 979639, 980295, 980907, 981520, 982072, 982672, 983369, 983928, 984551, 985055, 985645, 986118, 986620, 987086, 987529, 987927, 988522, 989034, 989494, 989921, 990478, 991015]","[978853, 979361, 979964, 980501, 981132, 981697, 982269, 982866, 983629, 984162, 984799, 985317, 985888, 986393, 986870, 987331, 987726, 988055, 988698, 989295, 989752, 990221, 990774]","[173, 175, 192, 163, 134, 85, 92, 121, 174, 146, 171, 171, 163, 164, 163, 144, 85, 28, 45, 142, 96, 163, 142]","[978569, 979201, 979777, 980401, 981004, 981600, 982152, 982759, 983489, 984015, 984655, 985147, 985729, 986221, 986707, 987165, 987600, 987930, 988571, 989139, 989601, 990060, 990623]","[978340, 978940, 979540, 980141, 980741, 981341, 981941, 982541, 983389, 983948, 984571, 985075, 985665, 986138, 986640, 987106, 987549, 987948, 988542, 989054, 989514, 989941, 990498, 991035]",92,OR,L,R,ITMSR,1.1,
2,600,trial,0,46,46,46,trial,"['B', 'S', 'S', 'S', 'S', 'S', 'S', 'S', 'C', 'C', 'C', 'C', 'C', 'C', 'C', 'C', 'C', 'C', 'C', 'C', 'C', 'C', 'C', 'C']","[996334, 996703, 997352, 997940, 998513, 999118, 999743, 1000383, 1001008, 1001676, 1002250, 1002882, 1003478, 1003986, 1004495, 1005077, 1005622, 1006174, 1006684, 1007252, 1007752, 1008236, 1008757, 1009275]","[996548, 997169, 997731, 998282, 998865, 999477, 1000104, 1000777, 1001390, 1002001, 1002524, 1003159, 1003742, 1004248, 1004802, 1005322, 1005861, 1006433, 1006985, 1007520, 1008079, 1008574, 1009031]","[164, 186, 162, 147, 161, 156, 172, 152, 141, 175, 152, 159, 156, 157, 141, 134, 131, 130, 131, 141, 117, 165, 127]","[996389, 996929, 997512, 998089, 998700, 999344, 999970, 1000641, 1001204, 1001806, 1002377, 1003010, 1003597, 1004102, 1004609, 1005192, 1005728, 1006320, 1006834, 1007410, 1007886, 1008433, 1008844]","[996345, 996944, 997544, 998145, 998744, 999344, 999944, 1000544, 1001028, 1001696, 1002270, 1002902, 1003498, 1004006, 1004515, 1005097, 1005642, 1006194, 1006704, 1007272, 1007772, 1008257, 1008777, 1009295]",92,OR,L,R,ITMSR,1.1,
1,400,trial,0,47,47,47,trial,"['B', 'S', 'S', 'S', 'S', 'S', 'S', 'S', 'C', 'C', 'C', 'C', 'C', 'C', 'C', 'C', 'C', 'C', 'C', 'C', 'C', 'C', 'C', 'C']","[1014646, 1014982, 1015443, 1015799, 1016201, 1016565, 1016997, 1017365, 1017810, 1018224, 1018646, 1019038, 1019437, 1019826, 1020229, 1020620, 1021018, 1021375, 1021763, 1022142, 1022500, 1022880, 1023234, 1023597]","[1014850, 1015321, 1015665, 1015977, 1016389, 1016725, 1017124, 1017509, 1017965, 1018363, 1018758, 1019154, 1019570, 1019952, 1020359, 1020752, 1021155, 1021520, 1021900, 1022253, 1022621, 1022982, 1023337, 1023724]","[226, 157, 116, 75, 104, 0, 7, 21, 23, 10, 244, 11, 64, 15, 41, 37, 56, 60, 36, 227, 40, 247, 237, 252]","[1014775, 1015160, 1015556, 1015878, 1016281, 1016641, 1017061, 1017424, 1017867, 1018228, 1018650, 1019042, 1019490, 1019876, 1020281, 1020678, 1021074, 1021440, 1021813, 1022147, 1022552, 1022926, 1023238, 1023650]","[1014659, 1015059, 1015459, 1015859, 1016259, 1016659, 1017059, 1017459, 1017830, 1018244, 1018667, 1019058, 1019457, 1019846, 1020249, 1020640, 1021038, 1021395, 1021784, 1022162, 1022520, 1022900, 1023254, 1023618]",92,OR,L,R,ITMSR,1.1,
0,400,trial,0,48,48,48,trial,"['S', 'S', 'S', 'S', 'S', 'S', 'S', 'C', 'C', 'C', 'C', 'C', 'C', 'C', 'C', 'C', 'C', 'C', 'C', 'C', 'C', 'C', 'C']","[1029417, 1029994, 1030430, 1030825, 1031260, 1031670, 1032054, 1032485, 1032885, 1033282, 1033696, 1034106, 1034468, 1034913, 1035300, 1035743, 1036142, 1036554, 1036948, 1037350, 1037763, 1038160, 1038579]","[1029858, 1030270, 1030628, 1031014, 1031393, 1031806, 1032216, 1032616, 1033028, 1033417, 1033829, 1034245, 1034619, 1035034, 1035425, 1035848, 1036260, 1036668, 1037067, 1037441, 1037870, 1038277, 1038696]","[117, 138, 97, 67, 21, 45, 84, 28, 48, 47, 28, 40, 37, 246, 22, 230, 29, 21, 2, 18, 191, 214, 15]","[1029491, 1030124, 1030515, 1030878, 1031262, 1031724, 1032105, 1032488, 1032953, 1033286, 1033742, 1034110, 1034545, 1034918, 1035303, 1035793, 1036146, 1036558, 1036952, 1037355, 1037767, 1038209, 1038624]","[1029299, 1029699, 1030099, 1030499, 1030899, 1031299, 1031699, 1032099, 1032505, 1032905, 1033303, 1033716, 1034126, 1034488, 1034933, 1035320, 1035763, 1036162, 1036574, 1036968, 1037370, 1037784, 1038180, 1038599]",92,OR,L,R,ITMSR,1.1,
1,400,trial,0,49,49,49,trial,"['S', 'S', 'S', 'S', 'S', 'S', 'S', 'C', 'C', 'C', 'C', 'C', 'C', 'C', 'C', 'C', 'C', 'C', 'C', 'C', 'C', 'C', 'C']","[1044536, 1044952, 1045365, 1045779, 1046199, 1046612, 1047054, 1047473, 1047853, 1048271, 1048636, 1049046, 1049423, 1049791, 1050212, 1050582, 1050997, 1051415, 1051822, 1052199, 1052579, 1052930, 1053296]","[1044678, 1045094, 1045511, 1045961, 1046367, 1046767, 1047212, 1047622, 1048011, 1048396, 1048759, 1049161, 1049554, 1049931, 1050318, 1050717, 1051136, 1051532, 1051936, 1052324, 1052695, 1053047, 1053475]","[92, 69, 72, 82, 82, 86, 83, 73, 48, 4, 239, 6, 26, 26, 19, 33, 52, 55, 33, 37, 20, 53, 45]","[1044587, 1045015, 1045431, 1045848, 1046267, 1046685, 1047130, 1047530, 1047932, 1048322, 1048686, 1049099, 1049479, 1049850, 1050258, 1050586, 1051000, 1051419, 1051825, 1052203, 1052582, 1052934, 1053300]","[1044376, 1044776, 1045176, 1045576, 1045976, 1046376, 1046776, 1047176, 1047493, 1047873, 1048291, 1048656, 1049066, 1049443, 1049811, 1050232, 1050602, 1051017, 1051436, 1051842, 1052219, 1052599, 1052950, 1053316]",92,OR,L,R,ITMSR,1.1,
4,400,trial,0,50,50,50,trial,"['B', 'S', 'S', 'S', 'S', 'S', 'S', 'S', 'C', 'C', 'C', 'C', 'C', 'C', 'C', 'C', 'C', 'C', 'C', 'C', 'C', 'C', 'C', 'C']","[1058886, 1059160, 1059615, 1060050, 1060452, 1060846, 1061228, 1061650, 1062049, 1062492, 1062898, 1063291, 1063714, 1064074, 1064529, 1064933, 1065306, 1065699, 1066017, 1066422, 1066800, 1067145, 1067502, 1067847]","[1058906, 1059366, 1059791, 1060229, 1060620, 1060967, 1061370, 1061786, 1062167, 1062610, 1063016, 1063413, 1063828, 1064208, 1064655, 1065024, 1065432, 1065838, 1066207, 1066524, 1066870, 1067234, 1067603, 1067951]","[27, 96, 48, 35, 29, 17, 49, 10, 31, 251, 2, 5, 11, 41, 36, 57, 38, 74, 50, 105, 211, 147, 122, 194]","[1058886, 1059218, 1059671, 1060103, 1060520, 1060850, 1061288, 1061704, 1062102, 1062539, 1062901, 1063296, 1063718, 1064077, 1064534, 1064936, 1065309, 1065702, 1066090, 1066427, 1066804, 1067151, 1067508, 1067851]","[1058897, 1059296, 1059696, 1060097, 1060496, 1060896, 1061296, 1061696, 1062069, 1062512, 1062918, 1063311, 1063734, 1064094, 1064549, 1064953, 1065326, 1065719, 1066037, 1066442, 1066820, 1067165, 1067522, 1067867]",92,OR,L,R,ITMSR,1.1,
2,400,trial,0,51,51,51,trial,"['S', 'S', 'S', 'S', 'S', 'S', 'S', 'C', 'C', 'C', 'C', 'C', 'C', 'C', 'C', 'C', 'C', 'C', 'C', 'C', 'C', 'C', 'C']","[1073374, 1073932, 1074382, 1074834, 1075316, 1075714, 1076114, 1076525, 1076927, 1077320, 1077716, 1078113, 1078509, 1078879, 1079316, 1079693, 1080061, 1080471, 1080876, 1081277, 1081660, 1082051, 1082448]","[1073598, 1074119, 1074635, 1075045, 1075521, 1075912, 1076306, 1076720, 1077108, 1077508, 1077909, 1078277, 1078676, 1079045, 1079504, 1079871, 1080227, 1080695, 1081074, 1081473, 1081843, 1082250, 1082641]","[155, 152, 173, 156, 162, 159, 162, 165, 139, 144, 140, 136, 116, 133, 143, 152, 157, 147, 138, 152, 145, 149, 143]","[1073435, 1074014, 1074476, 1074927, 1075396, 1075791, 1076191, 1076597, 1077002, 1077394, 1077801, 1078187, 1078577, 1078944, 1079396, 1079767, 1080131, 1080574, 1080963, 1081365, 1081737, 1082145, 1082520]","[1073360, 1073760, 1074160, 1074561, 1074960, 1075360, 1075760, 1076160, 1076545, 1076947, 1077340, 1077736, 1078133, 1078530, 1078899, 1079336, 1079713, 1080081, 1080492, 1080896, 1081297, 1081680, 1082072, 1082468]",92,OR,L,R,ITMSR,1.1,
0,600,trial,0,52,52,52,trial,"['B', 'S', 'S', 'S', 'S', 'S', 'S', 'S', 'C', 'C', 'C', 'C', 'C', 'C', 'C', 'C', 'C', 'C', 'C', 'C', 'C', 'C', 'C', 'C']","[1088025, 1088369, 1088940, 1089539, 1090151, 1090744, 1091406, 1092025, 1092678, 1093233, 1093918, 1094585, 1095351, 1096023, 1096699, 1097383, 1098018, 1098662, 1099298, 1099925, 1100570, 1101150, 1101743, 1102419]","[1088159, 1088598, 1089248, 1089846, 1090437, 1091010, 1091708, 1092317, 1092930, 1093516, 1094231, 1094957, 1095740, 1096350, 1097042, 1097795, 1098394, 1098987, 1099619, 1100309, 1100922, 1101498, 1102133]","[192, 183, 206, 210, 185, 180, 181, 176, 184, 184, 200, 190, 205, 208, 204, 209, 209, 205, 202, 208, 201, 203, 217]","[1088036, 1088475, 1089095, 1089693, 1090311, 1090886, 1091543, 1092146, 1092798, 1093350, 1094057, 1094795, 1095550, 1096184, 1096862, 1097532, 1098190, 1098826, 1099440, 1100141, 1100722, 1101317, 1101922]","[1088035, 1088635, 1089235, 1089836, 1090435, 1091035, 1091635, 1092235, 1092698, 1093253, 1093938, 1094605, 1095371, 1096043, 1096719, 1097403, 1098038, 1098682, 1099318, 1099945, 1100590, 1101170, 1101763, 1102439]",92,OR,L,R,ITMSR,1.1,
4,600,trial,0,53,53,53,trial,"['B', 'S', 'S', 'S', 'S', 'S', 'S', 'S', 'S', 'C', 'C', 'C', 'C', 'C', 'C', 'C', 'C', 'C', 'C', 'C', 'C', 'C', 'C', 'C', 'C']","[1108193, 1108495, 1109169, 1109701, 1110240, 1110828, 1111401, 1111957, 1112593, 1113305, 1113915, 1114412, 1115057, 1115688, 1116199, 1116819, 1117430, 1118017, 1118587, 1119164, 1119737, 1120272, 1120782, 1121269, 1121820]","[1108313, 1108679, 1109407, 1109979, 1110487, 1111008, 1111627, 1112206, 1112797, 1113592, 1114218, 1114702, 1115345, 1115957, 1116424, 1117070, 1117636, 1118229, 1118777, 1119360, 1119933, 1120483, 1121009, 1121510, 1122051]","[165, 167, 190, 187, 139, 127, 155, 157, 150, 199, 197, 183, 200, 212, 194, 191, 168, 119, 126, 65, 84, 225, 62, 29, 66]","[1108226, 1108560, 1109253, 1109836, 1110346, 1110906, 1111484, 1112058, 1112670, 1113400, 1114036, 1114526, 1115191, 1115810, 1116295, 1116907, 1117498, 1118105, 1118670, 1119244, 1119808, 1120275, 1120885, 1121383, 1121823]","[1108203, 1108803, 1109403, 1110003, 1110603, 1111203, 1111803, 1112403, 1113325, 1113935, 1114432, 1115077, 1115708, 1116219, 1116839, 1117450, 1118038, 1118607, 1119184, 1119757, 1120292, 1120802, 1121289, 1121840]",92,OR,L,R,ITMSR,1.1,
3,400,trial,0,54,54,54,trial,"['S', 'S', 'S', 'S', 'S', 'S', 'S', 'C', 'C', 'C', 'C', 'C', 'C', 'C', 'C', 'C', 'C', 'C', 'C', 'C', 'C', 'C', 'C']","[1131260, 1131759, 1132336, 1132736, 1133157, 1133584, 1133973, 1134348, 1134644, 1134974, 1135343, 1135687, 1136034, 1136370, 1136703, 1137057, 1137408, 1137732, 1138095, 1138412, 1138783, 1139116, 1139463]","[1131502, 1131950, 1132556, 1132917, 1133334, 1133745, 1134145, 1134497, 1134834, 1135175, 1135540, 1135910, 1136229, 1136578, 1136919, 1137264, 1137592, 1137918, 1138225, 1138568, 1138928, 1139254, 1139605]","[195, 169, 196, 175, 173, 158, 150, 160, 199, 183, 190, 198, 203, 204, 201, 177, 168, 150, 111, 128, 145, 123, 143]","[1131385, 1131841, 1132430, 1132826, 1133237, 1133646, 1134042, 1134416, 1134724, 1135054, 1135427, 1135791, 1136115, 1136440, 1136788, 1137136, 1137476, 1137795, 1138138, 1138480, 1138839, 1139163, 1139521]","[1130926, 1131326, 1131726, 1132126, 1132526, 1132926, 1133326, 1133726, 1134368, 1134664, 1134994, 1135363, 1135707, 1136054, 1136390, 1136723, 1137077, 1137428, 1137752, 1138115, 1138433, 1138803, 1139136, 1139483]",92,OR,L,R,ITMSR,1.1,
1,600,trial,0,55,55,55,trial,"['B', 'S', 'S', 'S', 'S', 'S', 'S', 'S', 'C', 'C', 'C', 'C', 'C', 'C', 'C', 'C', 'C', 'C', 'C', 'C', 'C', 'C', 'C', 'C']","[1145115, 1145503, 1146123, 1146772, 1147338, 1147900, 1148497, 1149090, 1149724, 1150254, 1150776, 1151259, 1151735, 1152232, 1152670, 1153127, 1153633, 1154088, 1154593, 1155002, 1155559, 1156099, 1156632, 1157124]","[1145340, 1145952, 1146490, 1147079, 1147662, 1148239, 1148779, 1149415, 1149988, 1150511, 1151021, 1151506, 1151991, 1152457, 1152880, 1153328, 1153838, 1154329, 1154784, 1155213, 1155720, 1156274, 1156754, 1157267]","[155, 169, 62, 72, 72, 43, 37, 61, 89, 82, 89, 102, 83, 75, 64, 71, 80, 39, 38, 37, 194, 0, 249, 68]","[1145206, 1145607, 1146234, 1146868, 1147420, 1148013, 1148571, 1149220, 1149807, 1150352, 1150861, 1151362, 1151826, 1152314, 1152743, 1153198, 1153698, 1154163, 1154665, 1155085, 1155563, 1156188, 1156636, 1157127]","[1145127, 1145728, 1146328, 1146928, 1147528, 1148128, 1148728, 1149328, 1149744, 1150274, 1150796, 1151279, 1151755, 1152252, 1152690, 1153147, 1153653, 1154108, 1154613, 1155022, 1155579, 1156119, 1156653, 1157144]",92,OR,L,R,ITMSR,1.1,
1,400,trial,0,56,56,56,trial,"['B', 'S', 'S', 'S', 'S', 'S', 'S', 'S', 'C', 'C', 'C', 'C', 'C', 'C', 'C', 'C', 'C', 'C', 'C', 'C', 'C', 'C', 'C', 'C']","[1162668, 1163080, 1163466, 1163881, 1164249, 1164639, 1165003, 1165404, 1165837, 1166215, 1166613, 1166982, 1167389, 1167738, 1168137, 1168507, 1168894, 1169253, 1169627, 1170028, 1170387, 1170765, 1171101, 1171499]","[1162884, 1163301, 1163667, 1164047, 1164386, 1164769, 1165140, 1165549, 1165978, 1166349, 1166733, 1167097, 1167510, 1167852, 1168251, 1168607, 1169005, 1169360, 1169753, 1170128, 1170486, 1170850, 1171197, 1171594]","[75, 43, 41, 242, 230, 18, 244, 252, 27, 2, 206, 208, 4, 213, 224, 229, 10, 10, 47, 224, 232, 230, 249, 234]","[1162733, 1163202, 1163564, 1163955, 1164306, 1164697, 1165061, 1165475, 1165896, 1166267, 1166660, 1167032, 1167439, 1167791, 1168183, 1168513, 1168899, 1169302, 1169686, 1170077, 1170392, 1170770, 1171105, 1171504]","[1162680, 1163080, 1163480, 1163880, 1164280, 1164680, 1165080, 1165480, 1165857, 1166235, 1166633, 1167002, 1167409, 1167758, 1168157, 1168527, 1168914, 1169273, 1169647, 1170049, 1170407, 1170785, 1171121, 1171519]",92,OR,L,R,ITMSR,1.1,
2,400,trial,0,57,57,57,trial,"['B', 'S', 'S', 'S', 'S', 'S', 'S', 'S', 'C', 'C', 'C', 'C', 'C', 'C', 'C', 'C', 'C', 'C', 'C', 'C', 'C', 'C', 'C', 'C']","[1177172, 1177379, 1177830, 1178264, 1178647, 1179037, 1179426, 1179827, 1180244, 1180662, 1181035, 1181401, 1181783, 1182153, 1182523, 1182870, 1183255, 1183634, 1183978, 1184342, 1184684, 1185064, 1185417, 1185774]","[1177212, 1177673, 1178049, 1178412, 1178793, 1179171, 1179579, 1179979, 1180408, 1180800, 1181164, 1181524, 1181908, 1182271, 1182660, 1183023, 1183400, 1183777, 1184124, 1184494, 1184840, 1185184, 1185529, 1185873]","[5, 121, 106, 67, 42, 53, 45, 64, 63, 28, 18, 22, 250, 11, 31, 16, 13, 250, 1, 40, 30, 239, 230, 243]","[1177172, 1177505, 1177926, 1178320, 1178705, 1179095, 1179486, 1179878, 1180304, 1180721, 1181086, 1181449, 1181835, 1182201, 1182579, 1182928, 1183308, 1183687, 1184030, 1184416, 1184754, 1185116, 1185421, 1185779]","[1177184, 1177583, 1177984, 1178383, 1178783, 1179183, 1179583, 1179983, 1180264, 1180682, 1181056, 1181421, 1181803, 1182173, 1182543, 1182891, 1183276, 1183654, 1183998, 1184362, 1184704, 1185084, 1185437, 1185794]",92,OR,L,R,ITMSR,1.1,
5,400,trial,0,58,58,58,trial,"['B', 'S', 'S', 'S', 'S', 'S', 'S', 'S', 'C', 'C', 'C', 'C', 'C', 'C', 'C', 'C', 'C', 'C', 'C', 'C', 'C', 'C', 'C', 'C']","[1191415, 1191703, 1192093, 1192511, 1192902, 1193283, 1193661, 1194068, 1194486, 1194881, 1195244, 1195639, 1196076, 1196445, 1196831, 1197202, 1197596, 1198025, 1198404, 1198806, 1199190, 1199590, 1199988, 1200354]","[1191572, 1191933, 1192282, 1192621, 1193005, 1193380, 1193794, 1194199, 1194616, 1195023, 1195373, 1195772, 1196190, 1196605, 1196978, 1197352, 1197770, 1198174, 1198550, 1198955, 1199353, 1199746, 1200142, 1200502]","[245, 9, 255, 153, 166, 193, 218, 249, 247, 231, 231, 242, 226, 11, 22, 253, 247, 203, 229, 216, 3, 255, 255, 13]","[1191513, 1191795, 1192175, 1192555, 1192943, 1193337, 1193720, 1194135, 1194543, 1194934, 1195302, 1195699, 1196122, 1196516, 1196895, 1197263, 1197678, 1198090, 1198472, 1198868, 1199259, 1199659, 1200057, 1200419]","[1191428, 1191828, 1192228, 1192628, 1193028, 1193428, 1193828, 1194228, 1194506, 1194901, 1195265, 1195659, 1196096, 1196465, 1196851, 1197222, 1197616, 1198045, 1198424, 1198826, 1199210, 1199610, 1200008, 1200374]",92,OR,L,R,ITMSR,1.1,
4,400,trial,0,59,59,59,trial,"['S', 'S', 'S', 'S', 'S', 'S', 'S', 'S', 'C', 'C', 'C', 'C', 'C', 'C', 'C', 'C', 'C', 'C', 'C', 'C', 'C', 'C', 'C', 'C']","[1206347, 1206723, 1207099, 1207512, 1207902, 1208296, 1208707, 1209118, 1209548, 1209934, 1210312, 1210682, 1211064, 1211442, 1211833, 1212208, 1212620, 1213033, 1213419, 1213825, 1214227, 1214590, 1215010, 1215412]","[1206503, 1206862, 1207233, 1207658, 1208053, 1208436, 1208859, 1209307, 1209731, 1210118, 1210469, 1210857, 1211236, 1211614, 1211999, 1212376, 1212807, 1213195, 1213588, 1213974, 1214408, 1214822, 1215255, 1215676]","[72, 29, 39, 70, 77, 34, 59, 39, 77, 107, 75, 81, 71, 65, 73, 55, 65, 14, 24, 28, 38, 27, 36, 11]","[1206401, 1206797, 1207175, 1207576, 1207972, 1208376, 1208768, 1209197, 1209624, 1210022, 1210383, 1210762, 1211131, 1211524, 1211909, 1212283, 1212711, 1213091, 1213494, 1213881, 1214292, 1214663, 1215116, 1215576]","[1206102, 1206501, 1206901, 1207301, 1207701, 1208101, 1208501, 1208901, 1209568, 1209954, 1210332, 1210702, 1211084, 1211462, 1211853, 1212228, 1212640, 1213053, 1213440, 1213845, 1214247, 1214610, 1215030, 1215432]",92,OR,L,R,ITMSR,1.1,
5,600,trial,0,60,60,60,trial,"['B', 'S', 'S', 'S', 'S', 'S', 'S', 'S', 'S', 'C', 'C', 'C', 'C', 'C', 'C', 'C', 'C', 'C', 'C', 'C', 'C', 'C', 'C', 'C', 'C']","[1221076, 1221306, 1221814, 1222368, 1223001, 1223615, 1224209, 1224795, 1225332, 1225987, 1226626, 1227318, 1228011, 1228754, 1229422, 1230117, 1230833, 1231581, 1232250, 1233046, 1233721, 1234372, 1235041, 1235753, 1236387]","[1221148, 1221512, 1222147, 1222737, 1223305, 1223880, 1224426, 1225026, 1225669, 1226303, 1226925, 1227609, 1228351, 1229110, 1229829, 1230536, 1231235, 1231916, 1232713, 1233380, 1234039, 1234691, 1235441, 1236105]","[124, 101, 158, 160, 134, 132, 127, 119, 122, 157, 160, 161, 175, 170, 164, 73, 147, 171, 151, 150, 161, 168, 197, 156]","[1221076, 1221393, 1221911, 1222576, 1223121, 1223718, 1224308, 1224901, 1225449, 1226107, 1226761, 1227452, 1228161, 1228903, 1229591, 1230263, 1231033, 1231759, 1232458, 1233198, 1233849, 1234532, 1235214, 1235949]","[1221089, 1221689, 1222289, 1222889, 1223489, 1224089, 1224689, 1225289, 1226007, 1226646, 1227338, 1228032, 1228774, 1229442, 1230137, 1230853, 1231601, 1232270, 1233067, 1233741, 1234392, 1235061, 1235773, 1236407]",92,OR,L,R,ITMSR,1.1,
3,600,trial,0,61,61,61,trial,"['B', 'S', 'S', 'S', 'S', 'S', 'S', 'S', 'S', 'C', 'C', 'C', 'C', 'C', 'C', 'C', 'C', 'C', 'C', 'C', 'C', 'C', 'C', 'C', 'C']","[1241869, 1242192, 1242749, 1243312, 1243915, 1244509, 1245123, 1245689, 1246161, 1246671, 1247205, 1247717, 1248294, 1248860, 1249393, 1249974, 1250502, 1251059, 1251600, 1252132, 1252621, 1253258, 1253723, 1254304, 1254769]","[1242049, 1242613, 1243175, 1243744, 1244264, 1244850, 1245418, 1245960, 1246455, 1246959, 1247496, 1248001, 1248572, 1249152, 1249754, 1250260, 1250814, 1251365, 1251881, 1252344, 1252917, 1253481, 1253956, 1254517]","[187, 1, 108, 247, 149, 78, 245, 162, 84, 131, 121, 66, 149, 61, 89, 127, 117, 243, 39, 24, 32, 153, 226, 160]","[1241869, 1242360, 1242868, 1243407, 1244152, 1244515, 1245235, 1245693, 1246167, 1246676, 1247210, 1247723, 1248300, 1249035, 1249399, 1249979, 1250507, 1251260, 1251787, 1252262, 1252786, 1253335, 1253728, 1254309]","[1241881, 1242481, 1243081, 1243681, 1244281, 1244881, 1245481, 1246082, 1246691, 1247225, 1247737, 1248314, 1248880, 1249413, 1249994, 1250522, 1251079, 1251620, 1252152, 1252641, 1253278, 1253743, 1254324, 1254789]",92,OR,L,R,ITMSR,1.1,
4,600,trial,0,62,62,62,trial,"['S', 'S', 'S', 'S', 'S', 'S', 'S', 'S', 'C', 'C', 'C', 'C', 'C', 'C', 'C', 'C', 'C', 'C', 'C', 'C', 'C', 'C', 'C', 'C']","[1260312, 1260595, 1261085, 1261701, 1262323, 1262959, 1263548, 1264138, 1264765, 1265410, 1266019, 1266563, 1267113, 1267685, 1268274, 1268803, 1269352, 1269901, 1270426, 1270993, 1271561, 1272104, 1272682, 1273243]","[1260435, 1260822, 1261326, 1261980, 1262520, 1263263, 1263893, 1264509, 1265167, 1265860, 1266306, 1266851, 1267416, 1268028, 1268608, 1269112, 1269666, 1270247, 1270802, 1271308, 1271903, 1272450, 1272985]","[8, 83, 125, 176, 141, 147, 115, 92, 67, 138, 104, 104, 111, 122, 132, 123, 127, 118, 105, 71, 77, 52, 43]","[1260374, 1260665, 1261185, 1261800, 1262397, 1263045, 1263669, 1264307, 1264936, 1265596, 1266198, 1266719, 1267264, 1267899, 1268484, 1268984, 1269562, 1270124, 1270661, 1271224, 1271798, 1272318, 1272915]","[1260129, 1260729, 1261329, 1261929, 1262529, 1263129, 1263729, 1264329, 1264785, 1265430, 1266039, 1266583, 1267133, 1267705, 1268294, 1268824, 1269372, 1269921, 1270446, 1271013, 1271581, 1272124, 1272702, 1273263]",92,OR,L,R,ITMSR,1.1,
3,600,trial,0,63,63,63,trial,"['S', 'S', 'S', 'S', 'S', 'S', 'S', 'S', 'C', 'C', 'C', 'C', 'C', 'C', 'C', 'C', 'C', 'C', 'C', 'C', 'C', 'C', 'C', 'C']","[1278897, 1279513, 1280032, 1280550, 1281107, 1281683, 1282259, 1282887, 1283488, 1284124, 1284727, 1285407, 1286069, 1286719, 1287429, 1288170, 1288945, 1289606, 1290351, 1291049, 1291789, 1292450, 1293143, 1293764]","[1279399, 1279911, 1280442, 1280973, 1281538, 1282096, 1282676, 1283284, 1283948, 1284556, 1285120, 1285682, 1286432, 1286978, 1287673, 1288448, 1289236, 1289896, 1290629, 1291364, 1292088, 1292825, 1293476, 1294005]","[74, 113, 106, 100, 80, 72, 73, 78, 78, 102, 106, 120, 121, 129, 125, 165, 130, 127, 148, 194, 170, 178, 120, 69]","[1279067, 1279763, 1280209, 1280766, 1281400, 1281965, 1282608, 1283190, 1283745, 1284345, 1284923, 1285537, 1286184, 1286868, 1287541, 1288262, 1289073, 1289726, 1290478, 1291194, 1291910, 1292603, 1293246, 1293871]","[1278866, 1279465, 1280065, 1280665, 1281265, 1281865, 1282465, 1283065, 1283508, 1284144, 1284747, 1285427, 1286089, 1286739, 1287449, 1288190, 1288965, 1289626, 1290371, 1291069, 1291809, 1292470, 1293163, 1293784]",92,OR,L,R,ITMSR,1.1,
2,400,trial,0,64,64,64,trial,"['B', 'S', 'S', 'S', 'S', 'S', 'S', 'S', 'C', 'C', 'C', 'C', 'C', 'C', 'C', 'C', 'C', 'C', 'C', 'C', 'C', 'C', 'C', 'C', 'C']","[1299351, 1299914, 1300311, 1300681, 1301040, 1301377, 1301664, 1302035, 1302462, 1302764, 1303122, 1303496, 1303857, 1304213, 1304507, 1304866, 1305224, 1305630, 1306013, 1306274, 1306651, 1306931, 1307256, 1307586, 1307915]","[1299776, 1300088, 1300452, 1300829, 1301147, 1301463, 1301762, 1302147, 1302556, 1302895, 1303222, 1303603, 1303959, 1304334, 1304637, 1304991, 1305347, 1305751, 1306072, 1306389, 1306791, 1307065, 1307367, 1307700, 1308041]","[148, 95, 39, 57, 30, 4, 25, 48, 9, 60, 23, 246, 248, 248, 9, 54, 24, 38, 57, 10, 101, 143, 80, 87, 98]","[1299694, 1299985, 1300372, 1300742, 1301091, 1301417, 1301710, 1302086, 1302514, 1302833, 1303168, 1303545, 1303904, 1304264, 1304577, 1304924, 1305271, 1305686, 1306020, 1306328, 1306723, 1306980, 1307303, 1307637, 1307971]","[1299361, 1299761, 1300161, 1300561, 1300961, 1301361, 1301762, 1302162, 1302482, 1302785, 1303142, 1303516, 1303877, 1304233, 1304527, 1304886, 1305244, 1305650, 1306033, 1306671, 1306951, 1307276, 1307607, 1307935]",92,OR,L,R,ITMSR,1.1,
1,400,trial,0,65,65,65,trial,"['B', 'S', 'S', 'S', 'S', 'S', 'S', 'S', 'C', 'C', 'C', 'C', 'C', 'C', 'C', 'C', 'C', 'C', 'C', 'C', 'C', 'C', 'C', 'C']","[1313644, 1314057, 1314412, 1314784, 1315158, 1315552, 1315943, 1316323, 1316762, 1317178, 1317593, 1317983, 1318372, 1318780, 1319166, 1319547, 1319990, 1320399, 1320792, 1321210, 1321617, 1322017, 1322396, 1322813]","[1313886, 1314312, 1314664, 1315025, 1315425, 1315817, 1316188, 1316587, 1316987, 1317392, 1317799, 1318199, 1318576, 1318971, 1319396, 1319788, 1320202, 1320590, 1320973, 1321408, 1321789, 1322147, 1322565, 1323037]","[191, 195, 176, 144, 150, 147, 140, 147, 140, 127, 129, 136, 129, 113, 122, 127, 112, 82, 99, 106, 80, 59, 85, 85]","[1313718, 1314181, 1314533, 1314902, 1315270, 1315659, 1316074, 1316471, 1316880, 1317284, 1317689, 1318088, 1318463, 1318860, 1319286, 1319662, 1320089, 1320493, 1320880, 1321295, 1321694, 1322074, 1322460, 1322901]","[1313657, 1314057, 1314457, 1314857, 1315257, 1315657, 1316057, 1316457, 1316782, 1317198, 1317613, 1318003, 1318392, 1318800, 1319186, 1319567, 1320010, 1320419, 1320812, 1321230, 1321637, 1322037, 1322416, 1322833]",92,OR,L,R,ITMSR,1.1,
0,600,trial,0,66,66,66,trial,"['S', 'S', 'S', 'S', 'S', 'S', 'S', 'S', 'S', 'S', 'C', 'C', 'C', 'C', 'C', 'C', 'C', 'C', 'C', 'C', 'C', 'C', 'C', 'C', 'C', 'C']","[1328547, 1328819, 1329359, 1329853, 1330411, 1330512, 1331024, 1331638, 1332132, 1332669, 1333276, 1333850, 1334412, 1334949, 1335521, 1336130, 1336709, 1337282, 1337747, 1338261, 1338700, 1339182, 1339668, 1340124, 1340558, 1341035]","[1328689, 1329068, 1329660, 1330292, 1330432, 1330750, 1331323, 1331860, 1332439, 1333032, 1333599, 1334131, 1334707, 1335224, 1335788, 1336315, 1336950, 1337425, 1337894, 1338436, 1338852, 1339331, 1339858, 1340280, 1340691, 1341172]","[86, 149, 154, 155, 3, 158, 153, 118, 155, 162, 180, 173, 156, 154, 135, 137, 153, 97, 147, 155, 127, 145, 137, 127, 107, 105]","[1328615, 1328890, 1329469, 1330057, 1330411, 1330608, 1331191, 1331735, 1332300, 1332834, 1333416, 1333964, 1334550, 1335093, 1335641, 1336217, 1336801, 1337331, 1337807, 1338338, 1338770, 1339246, 1339754, 1340184, 1340609, 1341081]","[1328397, 1328997, 1329597, 1330197, 1330797, 1331397, 1331997, 1332597, 1333296, 1333870, 1334432, 1334969, 1335541, 1336151, 1336729, 1337303, 1337767, 1338281, 1338720, 1339202, 1339688, 1340144, 1340578, 1341056]",92,OR,L,R,ITMSR,1.1,
2,600,trial,0,67,67,67,trial,"['S', 'S', 'S', 'S', 'S', 'S', 'S', 'S', 'S', 'C', 'C', 'C', 'C', 'C', 'C', 'C', 'C', 'C', 'C', 'C', 'C', 'C', 'C', 'C', 'C']","[1346830, 1347232, 1347613, 1348166, 1348835, 1349436, 1349983, 1350530, 1351098, 1351665, 1352154, 1352769, 1353304, 1353835, 1354302, 1354798, 1355345, 1355823, 1356285, 1356812, 1357266, 1357747, 1358221, 1358664, 1359117]","[1346932, 1347386, 1347814, 1348404, 1348972, 1349536, 1350136, 1350653, 1351237, 1351856, 1352324, 1352942, 1353491, 1354004, 1354460, 1354951, 1355489, 1356004, 1356468, 1356931, 1357418, 1357891, 1358375, 1358831, 1359309]","[240, 27, 99, 134, 55, 204, 225, 115, 197, 115, 0, 97, 70, 53, 48, 31, 237, 51, 38, 240, 252, 7, 33, 65, 84]","[1346874, 1347281, 1347720, 1348298, 1348907, 1349470, 1350069, 1350563, 1351138, 1351752, 1352199, 1352853, 1353395, 1353903, 1354353, 1354844, 1355405, 1355902, 1356350, 1356841, 1357322, 1357784, 1358270, 1358707, 1359176]","[1346677, 1347277, 1347877, 1348477, 1349078, 1349677, 1350277, 1350877, 1351685, 1352174, 1352790, 1353324, 1353856, 1354322, 1354818, 1355365, 1355843, 1356305, 1356832, 1357286, 1357767, 1358241, 1358684, 1359137]",92,OR,L,R,ITMSR,1.1,
0,600,trial,0,68,68,68,trial,"['S', 'S', 'S', 'S', 'S', 'S', 'S', 'S', 'C', 'C', 'C', 'C', 'C', 'C', 'C', 'C', 'C', 'C', 'C', 'C', 'C', 'C', 'C', 'C']","[1364731, 1365098, 1365706, 1366296, 1366916, 1367537, 1368152, 1368771, 1369421, 1369986, 1370610, 1371210, 1371783, 1372372, 1372938, 1373517, 1374053, 1374660, 1375196, 1375748, 1376310, 1376833, 1377416, 1377983]","[1364915, 1365537, 1366094, 1366672, 1367282, 1367922, 1368502, 1369088, 1369729, 1370363, 1370983, 1371571, 1372132, 1372697, 1373240, 1373835, 1374438, 1374982, 1375543, 1376045, 1376584, 1377138, 1377734]","[67, 141, 120, 42, 14, 65, 68, 20, 46, 48, 75, 62, 65, 48, 63, 34, 35, 32, 63, 46, 65, 68, 61]","[1364826, 1365187, 1365800, 1366420, 1366919, 1367541, 1368155, 1368775, 1369536, 1370217, 1370813, 1371430, 1372052, 1372377, 1372941, 1373761, 1374057, 1374664, 1375199, 1375752, 1376313, 1376836, 1377419]","[1364669, 1365269, 1365869, 1366469, 1367069, 1367669, 1368269, 1368869, 1369441, 1370006, 1370630, 1371230, 1371803, 1372392, 1372958, 1373537, 1374073, 1374680, 1375216, 1375768, 1376330, 1376854, 1377436, 1378003]",92,OR,L,R,ITMSR,1.1,
5,600,trial,0,69,69,69,trial,"['B', 'S', 'S', 'S', 'S', 'S', 'S', 'S', 'S', 'C', 'C', 'C', 'C', 'C', 'C', 'C', 'C', 'C', 'C', 'C', 'C', 'C', 'C', 'C', 'C']","[1383425, 1383813, 1384402, 1384905, 1385436, 1386016, 1386597, 1387224, 1387812, 1388361, 1388986, 1389510, 1390153, 1390702, 1391277, 1391777, 1392425, 1392943, 1393527, 1394074, 1394641, 1395123, 1395672, 1396150, 1396661]","[1383629, 1384092, 1384653, 1385211, 1385688, 1386295, 1386875, 1387396, 1388034, 1388616, 1389225, 1389717, 1390313, 1390868, 1391467, 1391978, 1392583, 1393160, 1393714, 1394288, 1394843, 1395368, 1395878, 1396375, 1396873]","[142, 28, 63, 84, 60, 105, 139, 137, 141, 140, 154, 103, 71, 255, 67, 13, 225, 54, 68, 35, 49, 74, 52, 46, 55]","[1383567, 1383950, 1384530, 1385046, 1385590, 1386163, 1386715, 1387297, 1387898, 1388472, 1389104, 1389613, 1390243, 1390796, 1391364, 1391873, 1392512, 1393032, 1393619, 1394178, 1394739, 1395227, 1395763, 1396235, 1396730]","[1383437, 1384037, 1384637, 1385237, 1385837, 1386437, 1387037, 1387637, 1388381, 1389006, 1389530, 1390173, 1390722, 1391297, 1391797, 1392445, 1392963, 1393547, 1394094, 1394661, 1395143, 1395692, 1396170, 1396681]",92,OR,L,R,ITMSR,1.1,
2,600,trial,0,70,70,70,trial,"['B', 'S', 'S', 'S', 'S', 'S', 'S', 'S', 'S', 'C', 'C', 'C', 'C', 'C', 'C', 'C', 'C', 'C', 'C', 'C', 'C', 'C', 'C', 'C', 'C']","[1402177, 1402594, 1403163, 1403719, 1404264, 1404804, 1405412, 1406016, 1406569, 1407124, 1407586, 1408190, 1408749, 1409391, 1409931, 1410534, 1411064, 1411638, 1412148, 1412647, 1413144, 1413702, 1414180, 1414715, 1415208]","[1402455, 1402829, 1403325, 1403900, 1404455, 1404969, 1405560, 1406145, 1406717, 1407292, 1407774, 1408464, 1409019, 1409620, 1410158, 1410742, 1411322, 1411920, 1412422, 1412905, 1413386, 1413924, 1414434, 1414948]","[197, 162, 106, 148, 161, 150, 145, 146, 139, 155, 166, 195, 181, 146, 123, 73, 86, 79, 251, 37, 28, 24, 26, 73]","[1402300, 1402702, 1403229, 1403797, 1404357, 1404875, 1405480, 1406072, 1406637, 1407193, 1407666, 1408305, 1408868, 1409475, 1410031, 1410537, 1411067, 1411642, 1412152, 1412652, 1413148, 1413705, 1414183, 1414718]","[1402187, 1402787, 1403387, 1403987, 1404588, 1405187, 1405787, 1406387, 1407144, 1407606, 1408210, 1408770, 1409411, 1409951, 1410554, 1411084, 1411658, 1412168, 1412667, 1413165, 1413722, 1414200, 1414735, 1415228]",92,OR,L,R,ITMSR,1.1,
4,600,trial,0,71,71,71,trial,"['B', 'S', 'S', 'S', 'S', 'S', 'S', 'S', 'C', 'C', 'C', 'C', 'C', 'C', 'C', 'C', 'C', 'C', 'C', 'C', 'C', 'C', 'C', 'C']","[1420746, 1421246, 1421770, 1422359, 1422979, 1423576, 1424184, 1424824, 1425465, 1426040, 1426656, 1427239, 1427811, 1428388, 1428965, 1429571, 1430161, 1430765, 1431359, 1431919, 1432511, 1433061, 1433659, 1434230]","[1420958, 1421587, 1422126, 1422720, 1423385, 1423967, 1424619, 1425204, 1425745, 1426390, 1426957, 1427549, 1428148, 1428708, 1429324, 1429878, 1430536, 1431181, 1431749, 1432304, 1432849, 1433419, 1434014]","[137, 78, 81, 16, 37, 190, 188, 32, 110, 84, 116, 106, 96, 91, 31, 63, 53, 79, 47, 35, 81, 26, 44]","[1420746, 1421345, 1421773, 1422362, 1422982, 1423581, 1424188, 1424827, 1425605, 1426201, 1426786, 1427361, 1427916, 1428515, 1429184, 1429709, 1430264, 1430884, 1431513, 1432045, 1432514, 1433064, 1433662]","[1420758, 1421357, 1421957, 1422557, 1423157, 1423757, 1424357, 1424957, 1425485, 1426060, 1426676, 1427259, 1427831, 1428408, 1428985, 1429592, 1430181, 1430786, 1431379, 1431939, 1432531, 1433081, 1433679, 1434250]",92,OR,L,R,ITMSR,1.1,
4,400,trial,0,72,72,72,trial,"['B', 'S', 'S', 'S', 'S', 'S', 'S', 'S', 'C', 'C', 'C', 'C', 'C', 'C', 'C', 'C', 'C', 'C', 'C', 'C', 'C', 'C', 'C', 'C']","[1439983, 1440221, 1440746, 1441112, 1441509, 1441868, 1442281, 1442685, 1443125, 1443493, 1443872, 1444249, 1444629, 1445023, 1445419, 1445836, 1446226, 1446657, 1447053, 1447441, 1447814, 1448218, 1448620, 1449030]","[1440100, 1440594, 1440965, 1441286, 1441705, 1442053, 1442432, 1442838, 1443288, 1443664, 1444064, 1444427, 1444801, 1445172, 1445593, 1445986, 1446408, 1446809, 1447206, 1447582, 1447974, 1448361, 1448772, 1449192]","[112, 121, 80, 64, 62, 70, 39, 62, 73, 61, 59, 54, 12, 208, 232, 236, 7, 246, 253, 204, 216, 222, 244, 24]","[1439983, 1440343, 1440865, 1441195, 1441599, 1441961, 1442353, 1442760, 1443202, 1443564, 1443954, 1444331, 1444700, 1445086, 1445423, 1445841, 1446317, 1446736, 1447133, 1447491, 1447900, 1448222, 1448624, 1449033]","[1439994, 1440394, 1440794, 1441195, 1441594, 1441994, 1442394, 1442794, 1443145, 1443513, 1443892, 1444269, 1444649, 1445043, 1445439, 1445856, 1446246, 1446677, 1447073, 1447461, 1447834, 1448238, 1448640, 1449050]",92,OR,L,R,ITMSR,1.1,
3,400,trial,0,73,73,73,trial,"['B', 'S', 'S', 'S', 'S', 'S', 'S', 'S', 'C', 'C', 'C', 'C', 'C', 'C', 'C', 'C', 'C', 'C', 'C', 'C', 'C', 'C', 'C', 'C']","[1454586, 1455023, 1455527, 1455952, 1456402, 1456811, 1457234, 1457623, 1458035, 1458375, 1458764, 1459126, 1459534, 1459910, 1460316, 1460682, 1461071, 1461447, 1461806, 1462192, 1462543, 1462939, 1463296, 1463662]","[1454860, 1455336, 1455783, 1456182, 1456606, 1457000, 1457413, 1457803, 1458241, 1458576, 1458959, 1459307, 1459719, 1460106, 1460486, 1460849, 1461250, 1461597, 1461976, 1462365, 1462719, 1463089, 1463450, 1463824]","[163, 146, 131, 92, 83, 48, 51, 66, 131, 136, 132, 113, 103, 112, 100, 95, 90, 79, 89, 97, 101, 93, 100, 110]","[1454643, 1455136, 1455643, 1456065, 1456490, 1456884, 1457317, 1457698, 1458125, 1458466, 1458838, 1459212, 1459613, 1460005, 1460386, 1460755, 1461147, 1461509, 1461873, 1462264, 1462626, 1462998, 1463353, 1463727]","[1454599, 1454999, 1455399, 1455799, 1456199, 1456600, 1457000, 1457400, 1458055, 1458395, 1458784, 1459146, 1459554, 1459930, 1460336, 1460702, 1461091, 1461467, 1461826, 1462212, 1462563, 1462959, 1463316, 1463682]",92,OR,L,R,ITMSR,1.1,
1,600,trial,0,74,74,74,trial,"['S', 'S', 'S', 'S', 'S', 'S', 'S', 'S', 'S', 'C', 'C', 'C', 'C', 'C', 'C', 'C', 'C', 'C', 'C', 'C', 'C', 'C', 'C', 'C', 'C', 'C', 'C']","[1469537, 1469851, 1470390, 1470966, 1471504, 1472116, 1472652, 1473180, 1473775, 1474356, 1474825, 1475319, 1475769, 1476238, 1476683, 1477105, 1477475, 1477912, 1478359, 1478774, 1479103, 1479446, 1479673, 1479839, 1480041, 1480221, 1480592]","[1469740, 1470217, 1470674, 1471262, 1471873, 1472397, 1472936, 1473532, 1474045, 1474644, 1475106, 1475556, 1476008, 1476468, 1476869, 1477262, 1477606, 1478034, 1478448, 1478894, 1479237, 1479525, 1479749, 1479929, 1480117, 1480305, 1480734]","[207, 226, 193, 196, 189, 175, 150, 197, 173, 184, 196, 177, 175, 172, 162, 104, 15, 57, 105, 229, 198, 229, 196, 167, 127, 167, 55]","[1469632, 1469988, 1470497, 1471086, 1471670, 1472242, 1472777, 1473308, 1473869, 1474470, 1474948, 1475416, 1475884, 1476341, 1476774, 1477107, 1477477, 1477914, 1478362, 1478777, 1479183, 1479449, 1479677, 1479882, 1480078, 1480259, 1480649]","[1469407, 1470007, 1470607, 1471207, 1471807, 1472407, 1473007, 1473607, 1474376, 1474845, 1475339, 1475789, 1476258, 1476703, 1477125, 1477495, 1477933, 1478379, 1478794, 1479123, 1479467, 1479859, 1480241, 1480612]",92,OR,L,R,ITMSR,1.1,
0,400,trial,0,75,75,75,trial,"['B', 'S', 'S', 'S', 'S', 'S', 'S', 'S', 'C', 'C', 'C', 'C', 'C', 'C', 'C', 'C', 'C', 'C', 'C', 'C', 'C', 'C', 'C', 'C']","[1486020, 1486425, 1486843, 1487209, 1487593, 1487937, 1488379, 1488803, 1489180, 1489561, 1489945, 1490323, 1490682, 1491079, 1491464, 1491864, 1492253, 1492626, 1493012, 1493357, 1493704, 1494071, 1494411, 1494742]","[1486253, 1486702, 1487089, 1487409, 1487799, 1488177, 1488580, 1488941, 1489384, 1489772, 1490121, 1490519, 1490892, 1491277, 1491654, 1492043, 1492434, 1492790, 1493173, 1493519, 1493876, 1494212, 1494575, 1494944]","[212, 197, 198, 185, 171, 190, 181, 155, 170, 171, 145, 165, 161, 143, 136, 135, 134, 140, 135, 117, 124, 101, 105, 110]","[1486031, 1486555, 1486960, 1487297, 1487683, 1488051, 1488462, 1488859, 1489259, 1489651, 1490035, 1490414, 1490775, 1491159, 1491536, 1491945, 1492343, 1492697, 1493098, 1493428, 1493776, 1494135, 1494484, 1494842]","[1486031, 1486431, 1486831, 1487232, 1487631, 1488031, 1488431, 1488831, 1489200, 1489581, 1489965, 1490343, 1490702, 1491099, 1491484, 1491885, 1492273, 1492646, 1493032, 1493378, 1493724, 1494091, 1494431, 1494762]",92,OR,L,R,ITMSR,1.1,
5,400,trial,0,76,76,76,trial,"['B', 'S', 'S', 'S', 'S', 'S', 'S', 'S', 'C', 'C', 'C', 'C', 'C', 'C', 'C', 'C', 'C', 'C', 'C', 'C', 'C', 'C', 'C', 'C']","[1500521, 1500912, 1501285, 1501659, 1502081, 1502475, 1502878, 1503329, 1503737, 1504115, 1504513, 1504917, 1505330, 1505729, 1506131, 1506529, 1506932, 1507336, 1507790, 1508192, 1508606, 1509008, 1509430, 1509852]","[1500754, 1501163, 1501537, 1501943, 1502309, 1502721, 1503117, 1503509, 1503894, 1504278, 1504696, 1505072, 1505503, 1505905, 1506333, 1506728, 1507127, 1507533, 1507952, 1508334, 1508740, 1509127, 1509553, 1509985]","[168, 172, 168, 165, 153, 149, 107, 64, 89, 101, 112, 53, 54, 108, 119, 137, 118, 140, 125, 116, 121, 92, 120, 115]","[1500606, 1501051, 1501377, 1501776, 1502148, 1502547, 1502965, 1503333, 1503740, 1504175, 1504592, 1504920, 1505410, 1505797, 1506210, 1506610, 1507014, 1507417, 1507868, 1508242, 1508610, 1509011, 1509432, 1509854]","[1500533, 1500933, 1501333, 1501733, 1502133, 1502533, 1502934, 1503333, 1503757, 1504135, 1504533, 1504937, 1505350, 1505750, 1506151, 1506549, 1506952, 1507356, 1507810, 1508212, 1508626, 1509028, 1509450, 1509872]",92,OR,L,R,ITMSR,1.1,
0,400,trial,0,77,77,77,trial,"['B', 'S', 'S', 'S', 'S', 'S', 'S', 'S', 'C', 'C', 'C', 'C', 'C', 'C', 'C', 'C', 'C', 'C', 'C', 'C', 'C', 'C', 'C', 'C']","[1515566, 1515938, 1516323, 1516718, 1517137, 1517584, 1517963, 1518326, 1518738, 1519133, 1519534, 1519959, 1520354, 1520772, 1521162, 1521602, 1522026, 1522450, 1522878, 1523325, 1523705, 1524149, 1524564, 1524994]","[1515809, 1516151, 1516516, 1516881, 1517320, 1517741, 1518125, 1518508, 1518907, 1519313, 1519738, 1520132, 1520552, 1520944, 1521334, 1521766, 1522217, 1522616, 1522983, 1523442, 1523836, 1524282, 1524675, 1525174]","[202, 195, 170, 118, 67, 101, 104, 126, 90, 102, 114, 88, 76, 54, 79, 62, 70, 72, 11, 63, 77, 98, 111, 111]","[1515694, 1516024, 1516401, 1516768, 1517142, 1517651, 1517965, 1518401, 1518798, 1519218, 1519623, 1519961, 1520357, 1520775, 1521166, 1521605, 1522029, 1522454, 1522883, 1523330, 1523709, 1524152, 1524567, 1524997]","[1515576, 1515976, 1516376, 1516776, 1517176, 1517576, 1517976, 1518376, 1518758, 1519153, 1519554, 1519979, 1520374, 1520792, 1521182, 1521623, 1522046, 1522470, 1522898, 1523345, 1523725, 1524169, 1524584, 1525014]",92,OR,L,R,ITMSR,1.1,
0,400,trial,0,78,78,78,trial,"['S', 'S', 'S', 'S', 'S', 'S', 'S', 'S', 'C', 'C', 'C', 'C', 'C', 'C', 'C', 'C', 'C', 'C', 'C', 'C', 'C', 'C', 'C', 'C']","[1532502, 1532764, 1533073, 1533430, 1533838, 1534260, 1534660, 1535074, 1535493, 1535902, 1536314, 1536731, 1537162, 1537571, 1537988, 1538395, 1538813, 1539247, 1539646, 1540061, 1540480, 1540885, 1541309, 1541758]","[1532634, 1532930, 1533244, 1533588, 1534009, 1534389, 1534841, 1535247, 1535662, 1536055, 1536463, 1536887, 1537300, 1537711, 1538127, 1538545, 1538924, 1539373, 1539766, 1540183, 1540618, 1541041, 1541473, 1541875]","[173, 144, 160, 59, 126, 91, 116, 137, 120, 106, 108, 95, 91, 97, 125, 125, 77, 80, 72, 67, 106, 120, 112, 58]","[1532552, 1532827, 1533129, 1533434, 1533904, 1534309, 1534722, 1535129, 1535556, 1535959, 1536367, 1536784, 1537216, 1537575, 1538048, 1538446, 1538818, 1539292, 1539694, 1540107, 1540531, 1540941, 1541365, 1541764]","[1532292, 1532692, 1533092, 1533492, 1533892, 1534292, 1534692, 1535092, 1535513, 1535922, 1536334, 1536751, 1537182, 1537591, 1538008, 1538415, 1538833, 1539267, 1539666, 1540081, 1540500, 1540905, 1541329, 1541778]",92,OR,L,R,ITMSR,1.1,
1,600,trial,0,79,79,79,trial,"['B', 'S', 'S', 'S', 'S', 'S', 'S', 'S', 'S', 'C', 'C', 'C', 'C', 'C', 'C', 'C', 'C', 'C', 'C', 'C', 'C', 'C', 'C', 'C', 'C']","[1547080, 1547351, 1547787, 1548282, 1548851, 1549430, 1549992, 1550566, 1551150, 1551779, 1552330, 1552980, 1553569, 1554107, 1554672, 1555214, 1555812, 1556447, 1557031, 1557581, 1558158, 1558732, 1559246, 1559833, 1560385]","[1547216, 1547623, 1548170, 1548634, 1549189, 1549757, 1550349, 1550978, 1551562, 1552134, 1552869, 1553443, 1553971, 1554515, 1555065, 1555636, 1556299, 1556862, 1557413, 1557947, 1558513, 1559065, 1559670, 1560200]","[154, 155, 150, 151, 177, 179, 172, 175, 178, 174, 191, 193, 192, 201, 201, 199, 211, 205, 204, 204, 186, 193, 193, 196]","[1547080, 1547448, 1547939, 1548378, 1549051, 1549640, 1550238, 1550823, 1551401, 1551975, 1552528, 1553167, 1553765, 1554315, 1554864, 1555415, 1556055, 1556679, 1557195, 1557777, 1558286, 1558900, 1559403, 1560032]","[1547094, 1547693, 1548293, 1548893, 1549493, 1550093, 1550693, 1551293, 1551799, 1552350, 1553000, 1553589, 1554127, 1554692, 1555234, 1555832, 1556467, 1557051, 1557601, 1558178, 1558752, 1559266, 1559853, 1560406]",92,OR,L,R,ITMSR,1.1,
4,400,trial,0,80,80,80,trial,"['B', 'S', 'S', 'S', 'S', 'S', 'S', 'S', 'C', 'C', 'C', 'C', 'C', 'C', 'C', 'C', 'C', 'C', 'C', 'C', 'C', 'C', 'C', 'C']","[1566102, 1566460, 1566853, 1567220, 1567613, 1568015, 1568452, 1568872, 1569294, 1569709, 1570107, 1570507, 1570908, 1571307, 1571727, 1572127, 1572518, 1572924, 1573312, 1573701, 1574071, 1574541, 1574928, 1575311]","[1566299, 1566708, 1567034, 1567399, 1567796, 1568220, 1568626, 1569061, 1569479, 1569883, 1570266, 1570672, 1571074, 1571482, 1571897, 1572277, 1572684, 1573068, 1573455, 1573852, 1574226, 1574681, 1575089, 1575465]","[126, 137, 111, 85, 113, 144, 133, 117, 88, 90, 79, 62, 41, 87, 86, 39, 49, 26, 60, 56, 71, 46, 87, 86]","[1566102, 1566599, 1566925, 1567299, 1567698, 1568101, 1568526, 1568955, 1569377, 1569780, 1570166, 1570577, 1570982, 1571390, 1571804, 1572184, 1572597, 1572987, 1573376, 1573773, 1574152, 1574602, 1574996, 1575392]","[1566113, 1566513, 1566913, 1567313, 1567713, 1568113, 1568514, 1568914, 1569314, 1569729, 1570127, 1570527, 1570928, 1571328, 1571747, 1572147, 1572538, 1572944, 1573332, 1573721, 1574091, 1574561, 1574948, 1575331]",92,OR,L,R,ITMSR,1.1,
1,400,trial,0,81,81,81,trial,"['B', 'S', 'S', 'S', 'S', 'S', 'S', 'S', 'C', 'C', 'C', 'C', 'C', 'C', 'C', 'C', 'C', 'C', 'C', 'C', 'C', 'C', 'C', 'C']","[1581039, 1581418, 1581767, 1582195, 1582582, 1582961, 1583351, 1583765, 1584155, 1584530, 1584934, 1585308, 1585728, 1586216, 1586604, 1586998, 1587323, 1587741, 1588121, 1588481, 1588880, 1589239, 1589582, 1589936]","[1581253, 1581621, 1582011, 1582416, 1582784, 1583148, 1583546, 1583916, 1584297, 1584665, 1585041, 1585436, 1585835, 1586332, 1586710, 1587122, 1587445, 1587796, 1588248, 1588595, 1588999, 1589362, 1589696, 1590042]","[99, 114, 113, 113, 52, 84, 90, 227, 70, 68, 32, 123, 82, 113, 71, 105, 97, 169, 104, 90, 71, 87, 83, 76]","[1581129, 1581488, 1581854, 1582300, 1582665, 1583019, 1583446, 1583770, 1584215, 1584587, 1584984, 1585363, 1585773, 1586264, 1586643, 1587056, 1587376, 1587747, 1588169, 1588526, 1588932, 1589286, 1589628, 1589987]","[1581052, 1581451, 1581851, 1582252, 1582651, 1583051, 1583451, 1583851, 1584175, 1584550, 1584954, 1585328, 1585748, 1586236, 1586624, 1587018, 1587343, 1587761, 1588141, 1588501, 1588900, 1589259, 1589602, 1589956]",92,OR,L,R,ITMSR,1.1,
4,400,trial,0,82,82,82,trial,"['B', 'S', 'S', 'S', 'S', 'S', 'S', 'S', 'C', 'C', 'C', 'C', 'C', 'C', 'C', 'C', 'C', 'C', 'C', 'C', 'C', 'C', 'C', 'C']","[1595657, 1595957, 1596343, 1596748, 1597162, 1597542, 1597995, 1598417, 1598824, 1599227, 1599609, 1600002, 1600376, 1600769, 1601142, 1601475, 1601910, 1602283, 1602694, 1603062, 1603483, 1603867, 1604256, 1604589]","[1595808, 1596213, 1596581, 1596986, 1597352, 1597789, 1598205, 1598596, 1598993, 1599390, 1599762, 1600152, 1600526, 1600899, 1601274, 1601609, 1602025, 1602403, 1602833, 1603192, 1603613, 1603999, 1604376, 1604770]","[105, 132, 108, 110, 98, 83, 97, 70, 53, 26, 53, 47, 44, 45, 18, 49, 217, 11, 11, 19, 60, 37, 91, 106]","[1595657, 1596048, 1596429, 1596834, 1597241, 1597627, 1598093, 1598503, 1598908, 1599300, 1599686, 1600081, 1600457, 1600826, 1601202, 1601533, 1601968, 1602287, 1602698, 1603066, 1603487, 1603871, 1604259, 1604592]","[1595668, 1596068, 1596468, 1596868, 1597268, 1597668, 1598068, 1598468, 1598844, 1599247, 1599629, 1600022, 1600396, 1600789, 1601162, 1601496, 1601930, 1602304, 1602714, 1603082, 1603503, 1603887, 1604276, 1604610]",92,OR,L,R,ITMSR,1.1,
2,600,trial,0,83,83,83,trial,"['S', 'S', 'S', 'S', 'S', 'S', 'S', 'S', 'C', 'C', 'C', 'C', 'C', 'C', 'C', 'C', 'C', 'C', 'C', 'C', 'C', 'C', 'C', 'C']","[1610396, 1610933, 1611405, 1611973, 1612532, 1613186, 1613857, 1614484, 1615068, 1615671, 1616379, 1617056, 1617721, 1618341, 1619017, 1619656, 1620288, 1620899, 1621537, 1622197, 1622824, 1623414, 1623945, 1624592]","[1610644, 1611222, 1611753, 1612341, 1612884, 1613466, 1614114, 1614771, 1615331, 1616044, 1616690, 1617312, 1617989, 1618694, 1619375, 1619995, 1620583, 1621231, 1621939, 1622567, 1623156, 1623725, 1624252]","[131, 187, 165, 223, 186, 147, 101, 143, 136, 167, 160, 131, 179, 168, 183, 106, 154, 154, 165, 147, 184, 157, 139]","[1610490, 1611068, 1611541, 1612170, 1612720, 1613323, 1613986, 1614630, 1615222, 1615913, 1616552, 1617202, 1617849, 1618514, 1619169, 1619750, 1620416, 1621068, 1621773, 1622370, 1622985, 1623554, 1624091]","[1610346, 1610946, 1611546, 1612146, 1612746, 1613346, 1613946, 1614546, 1615088, 1615691, 1616399, 1617076, 1617741, 1618361, 1619037, 1619676, 1620308, 1620919, 1621557, 1622217, 1622844, 1623434, 1623965, 1624612]",92,OR,L,R,ITMSR,1.1,
0,400,trial,0,84,84,84,trial,"['B', 'S', 'S', 'S', 'S', 'S', 'S', 'S', 'C', 'C', 'C', 'C', 'C', 'C', 'C', 'C', 'C', 'C', 'C', 'C', 'C', 'C', 'C', 'C']","[1629957, 1630330, 1630707, 1631059, 1631420, 1631836, 1632223, 1632646, 1633060, 1633434, 1633830, 1634180, 1634569, 1634909, 1635317, 1635701, 1636079, 1636444, 1636797, 1637239, 1637603, 1637988, 1638342, 1638735]","[1630166, 1630622, 1630949, 1631265, 1631646, 1632061, 1632440, 1632868, 1633263, 1633631, 1634033, 1634387, 1634750, 1635090, 1635496, 1635863, 1636252, 1636600, 1636971, 1637385, 1637749, 1638119, 1638497, 1639000]","[203, 168, 152, 144, 124, 134, 130, 139, 137, 127, 109, 98, 81, 78, 49, 97, 75, 60, 50, 63, 75, 57, 66, 75]","[1629957, 1630453, 1630804, 1631141, 1631517, 1631935, 1632322, 1632731, 1633150, 1633521, 1633909, 1634255, 1634650, 1634982, 1635387, 1635764, 1636147, 1636508, 1636861, 1637299, 1637659, 1637991, 1638345, 1638738]","[1629967, 1630367, 1630767, 1631167, 1631567, 1631967, 1632367, 1632768, 1633080, 1633454, 1633850, 1634200, 1634589, 1634929, 1635337, 1635721, 1636099, 1636464, 1636817, 1637259, 1637623, 1638008, 1638362, 1638755]",92,OR,L,R,ITMSR,1.1,
0,600,trial,0,85,85,85,trial,"['B', 'S', 'S', 'S', 'S', 'S', 'S', 'S', 'S', 'C', 'C', 'C', 'C', 'C', 'C', 'C', 'C', 'C', 'C', 'C', 'C', 'C', 'C', 'C', 'C']","[1644149, 1644333, 1644917, 1645408, 1645898, 1646467, 1647050, 1647688, 1648303, 1648912, 1649413, 1649977, 1650532, 1651120, 1651667, 1652278, 1652784, 1653330, 1653875, 1654457, 1655025, 1655517, 1656013, 1656526, 1657050]","[1644237, 1644641, 1645259, 1645751, 1646220, 1646814, 1647438, 1648038, 1648648, 1649217, 1649699, 1650268, 1650821, 1651420, 1651969, 1652535, 1653098, 1653645, 1654178, 1654742, 1655304, 1655777, 1656252, 1656705]","[138, 152, 153, 150, 111, 131, 135, 92, 99, 238, 92, 107, 71, 56, 47, 119, 114, 100, 72, 124, 70, 99, 97, 94]","[1644149, 1644413, 1645027, 1645549, 1645973, 1646563, 1647138, 1647691, 1648306, 1649137, 1649516, 1650065, 1650534, 1651234, 1651805, 1652348, 1652864, 1653422, 1653945, 1654562, 1655027, 1655623, 1656103, 1656595]","[1644160, 1644760, 1645360, 1645960, 1646560, 1647160, 1647760, 1648360, 1648932, 1649433, 1649997, 1650552, 1651140, 1651687, 1652298, 1652804, 1653350, 1653895, 1654477, 1655045, 1655537, 1656033, 1656546, 1657070]",92,OR,L,R,ITMSR,1.1,
2,400,trial,0,86,86,86,trial,"['B', 'S', 'S', 'S', 'S', 'S', 'S', 'S', 'C', 'C', 'C', 'C', 'C', 'C', 'C', 'C', 'C', 'C', 'C', 'C', 'C', 'C', 'C', 'C']","[1662665, 1663077, 1663399, 1663807, 1664167, 1664562, 1664959, 1665370, 1665794, 1666193, 1666593, 1666978, 1667363, 1667736, 1668137, 1668516, 1668883, 1669280, 1669643, 1670027, 1670422, 1670814, 1671206, 1671580]","[1662873, 1663284, 1663587, 1663954, 1664326, 1664714, 1665097, 1665521, 1665934, 1666308, 1666734, 1667142, 1667515, 1667876, 1668282, 1668642, 1669009, 1669394, 1669800, 1670162, 1670555, 1670931, 1671321, 1671695]","[128, 137, 141, 85, 67, 89, 116, 116, 75, 218, 83, 120, 114, 61, 46, 28, 50, 48, 115, 60, 96, 73, 110, 98]","[1662665, 1663165, 1663476, 1663865, 1664229, 1664629, 1665027, 1665438, 1665850, 1666229, 1666642, 1667045, 1667420, 1667804, 1668194, 1668566, 1668887, 1669283, 1669699, 1670030, 1670425, 1670817, 1671208, 1671583]","[1662676, 1663076, 1663476, 1663876, 1664276, 1664676, 1665076, 1665476, 1665814, 1666213, 1666613, 1666998, 1667383, 1667757, 1668157, 1668536, 1668903, 1669300, 1669663, 1670047, 1670443, 1670834, 1671226, 1671600]",92,OR,L,R,ITMSR,1.1,
0,600,trial,0,87,87,87,trial,"['B', 'S', 'S', 'S', 'S', 'S', 'S', 'S', 'S', 'C', 'C', 'C', 'C', 'C', 'C', 'C', 'C', 'C', 'C', 'C', 'C', 'C', 'C', 'C', 'C']","[1677185, 1677510, 1677902, 1678377, 1678973, 1679579, 1680089, 1680692, 1681241, 1681806, 1682395, 1682934, 1683508, 1684089, 1684624, 1685238, 1685748, 1686295, 1686776, 1687346, 1687811, 1688328, 1688844, 1689361, 1689849]","[1677380, 1677729, 1678273, 1678693, 1679243, 1679882, 1680480, 1681050, 1681583, 1682112, 1682686, 1683186, 1683758, 1684307, 1684848, 1685444, 1685956, 1686461, 1686983, 1687541, 1687998, 1688480, 1689003, 1689517, 1690038]","[124, 126, 168, 181, 104, 133, 89, 80, 57, 20, 127, 134, 91, 101, 93, 105, 95, 86, 69, 123, 90, 92, 113, 68, 92]","[1677203, 1677600, 1678167, 1678452, 1679028, 1679582, 1680092, 1680695, 1681400, 1681811, 1682518, 1683033, 1683628, 1684165, 1684731, 1685331, 1685839, 1686344, 1686857, 1687426, 1687813, 1688331, 1688846, 1689364, 1689852]","[1677196, 1677796, 1678396, 1678996, 1679596, 1680196, 1680796, 1681396, 1681826, 1682415, 1682954, 1683528, 1684109, 1684644, 1685258, 1685768, 1686316, 1686796, 1687366, 1687831, 1688348, 1688864, 1689381, 1689869]",92,OR,L,R,ITMSR,1.1,
2,400,trial,0,88,88,88,trial,"['S', 'S', 'S', 'S', 'S', 'S', 'S', 'S', 'C', 'C', 'C', 'C', 'C', 'C', 'C', 'C', 'C', 'C', 'C', 'C', 'C', 'C', 'C', 'C']","[1695794, 1696068, 1696372, 1696704, 1697123, 1697582, 1697943, 1698338, 1698707, 1699078, 1699433, 1699805, 1700192, 1700576, 1700947, 1701352, 1701752, 1702126, 1702524, 1702881, 1703303, 1703661, 1704056, 1704436]","[1695895, 1696199, 1696503, 1696842, 1697258, 1697724, 1698069, 1698478, 1698863, 1699193, 1699551, 1699924, 1700335, 1700713, 1701072, 1701494, 1701889, 1702251, 1702652, 1703015, 1703437, 1703789, 1704196, 1704591]","[6, 128, 130, 119, 105, 105, 78, 94, 110, 86, 108, 98, 100, 104, 96, 112, 93, 105, 108, 116, 119, 109, 113, 104]","[1695828, 1696098, 1696401, 1696734, 1697157, 1697634, 1697979, 1698380, 1698758, 1699110, 1699462, 1699833, 1700234, 1700610, 1700981, 1701389, 1701791, 1702162, 1702571, 1702884, 1703350, 1703664, 1704059, 1704480]","[1695605, 1696005, 1696405, 1696805, 1697205, 1697605, 1698006, 1698405, 1698727, 1699098, 1699453, 1699825, 1700212, 1700596, 1700967, 1701372, 1701772, 1702146, 1702544, 1702901, 1703323, 1703682, 1704076, 1704456]",92,OR,L,R,ITMSR,1.1,
