pitch,ioi,event,.thisRepN,.thisTrialN,.thisN,.thisIndex,event,tap_types,tap_times,release_times,peak_pressures,peak_times,tone_times,subject,experimenter,register,handedness,experiment,version
,,SPR,0,-1,-1,0,SPR,"['P', 'P', 'P', 'P', 'P', 'P', 'P', 'P', 'P', 'P', 'P', 'P', 'P', 'P', 'P', 'P', 'P', 'P', 'P', 'P', 'P', 'P', 'P', 'P', 'P', 'P', 'P', 'P', 'P', 'P']","[16575, 17289, 17982, 18696, 19379, 20067, 20771, 21455, 22117, 22797, 23472, 24122, 24763, 25427, 26081, 26771, 27428, 28106, 28737, 29386, 30044, 30734, 31389, 32047, 32687, 33335, 33969, 34634, 35305, 35955]","[16688, 17374, 18059, 18790, 19484, 20171, 20871, 21549, 22206, 22896, 23572, 24218, 24853, 25516, 26180, 26873, 27540, 28205, 28839, 29483, 30153, 30837, 31486, 32146, 32779, 33448, 34095, 34763, 35425, 36070]","[88, 41, 11, 17, 27, 4, 49, 5, 17, 53, 50, 63, 68, 35, 36, 63, 110, 56, 65, 60, 69, 65, 101, 78, 29, 78, 78, 123, 119, 81]","[16617, 17294, 17987, 18701, 19384, 20108, 20776, 21460, 22121, 22802, 23477, 24126, 24768, 25432, 26086, 26775, 27432, 28110, 28742, 29391, 30082, 30738, 31393, 32051, 32692, 33340, 34033, 34698, 35366, 35959]",,66,EM,L,R,ITMSR,1.1
4,500,practice,0,0,0,0,practice,"['C', 'C', 'C', 'C', 'C', 'C', 'C', 'C', 'C', 'C', 'C', 'C', 'C', 'C', 'C', 'C']","[114982, 115525, 116027, 116543, 117046, 117540, 118066, 118525, 119063, 119573, 120064, 120534, 121016, 121470, 121964, 122411]","[115127, 115665, 116178, 116663, 117173, 117669, 118174, 118632, 119180, 119673, 120153, 120668, 121113, 121573, 122055, 122520]","[134, 113, 129, 150, 154, 100, 151, 131, 116, 100, 120, 130, 140, 142, 126, 109]","[114985, 115528, 116030, 116546, 117049, 117609, 118069, 118529, 119066, 119577, 120068, 120537, 121018, 121474, 121967, 122414]","[109835, 110336, 110835, 111335, 111835, 112335, 112835, 113335, 115002, 115545, 116047, 116563, 117066, 117560, 118086, 118545, 119084, 119593, 120084, 120554, 121036, 121490, 121985, 122431]",66,EM,L,R,ITMSR,1.1
0,500,practice,0,1,1,1,practice,"['S', 'S', 'S', 'S', 'S', 'S', 'S', 'C', 'C', 'C', 'C', 'C', 'C', 'C', 'C', 'C', 'C', 'C', 'C', 'C', 'C', 'C', 'C']","[128534, 129009, 129546, 130039, 130544, 131042, 131548, 132085, 132573, 133055, 133564, 134035, 134525, 135012, 135484, 135992, 136487, 136972, 137468, 137929, 138417, 138873, 139373]","[128613, 129092, 129646, 130150, 130640, 131109, 131629, 132158, 132633, 133123, 133632, 134114, 134618, 135075, 135552, 136070, 136572, 137065, 137570, 138038, 138512, 138999, 139482]","[29, 93, 85, 150, 94, 86, 95, 91, 105, 103, 26, 78, 98, 56, 133, 53, 54, 67, 66, 77, 37, 82, 71]","[128539, 129013, 129549, 130042, 130547, 131046, 131552, 132089, 132577, 133059, 133568, 134039, 134530, 135016, 135487, 135996, 136492, 136976, 137473, 137933, 138422, 138876, 139377]","[128114, 128613, 129113, 129613, 130113, 130613, 131113, 131613, 132105, 132593, 133075, 133584, 134055, 134545, 135032, 135504, 136012, 136507, 136992, 137488, 137949, 138437, 138893, 139394]",66,EM,L,R,ITMSR,1.1
3,500,practice,0,2,2,2,practice,"['S', 'S', 'S', 'S', 'S', 'S', 'S', 'S', 'C', 'C', 'C', 'C', 'C', 'C', 'C', 'C', 'C', 'C', 'C', 'C', 'C', 'C', 'C', 'C', 'C']","[144913, 145306, 145680, 146097, 146594, 147108, 147604, 148091, 148587, 149060, 149493, 149906, 150260, 150594, 150917, 151229, 151497, 171639, 172078, 172463, 172862, 173234, 173730, 174126, 174516]","[145007, 145377, 145746, 146159, 146665, 147173, 147665, 148154, 148651, 149132, 149580, 149993, 150362, 150696, 151017, 151308, 151570, 171724, 172146, 172537, 172955, 173320, 173803, 174195, 174598]","[232, 70, 28, 57, 76, 25, 2, 234, 190, 255, 234, 2, 10, 11, 5, 234, 202, 61, 25, 48, 191, 3, 28, 24, 242]","[144954, 145310, 145685, 146103, 146598, 147113, 147609, 148099, 148594, 149065, 149499, 149912, 150307, 150599, 150923, 151236, 151504, 171644, 172082, 172467, 172914, 173239, 173735, 174131, 174522]","[144698, 145198, 145698, 146198, 146698, 147198, 147698, 148198, 148608, 149080, 149513, 149926, 150280, 150615, 150937, 151249, 171659, 172098, 172483, 172882, 173254, 173750, 174146, 174536]",66,EM,L,R,ITMSR,1.1
5,500,practice,0,3,3,3,practice,"['S', 'S', 'S', 'S', 'S', 'S', 'S', 'S', 'C', 'C', 'C', 'C', 'C', 'C', 'C', 'C', 'C', 'C', 'C', 'C', 'C', 'C', 'C', 'C']","[180511, 180877, 181278, 181722, 182228, 182717, 183239, 183721, 184206, 184699, 185149, 185618, 186081, 186511, 186943, 187401, 187855, 188288, 188750, 189178, 189630, 190084, 190528, 190982]","[180580, 180936, 181346, 181797, 182306, 182808, 183330, 183822, 184303, 184793, 185261, 185720, 186196, 186645, 187086, 187536, 187994, 188433, 188870, 189312, 189765, 190210, 190651, 191105]","[4, 41, 52, 48, 57, 32, 12, 3, 13, 4, 23, 26, 41, 68, 46, 32, 26, 35, 35, 48, 50, 26, 1, 248]","[180515, 180882, 181284, 181727, 182234, 182722, 183245, 183775, 184212, 184739, 185209, 185624, 186139, 186580, 187025, 187468, 187923, 188371, 188802, 189248, 189698, 190144, 190590, 191032]","[180318, 180818, 181318, 181818, 182318, 182818, 183318, 183818, 184226, 184719, 185169, 185638, 186101, 186531, 186963, 187421, 187875, 188308, 188770, 189198, 189650, 190104, 190548, 191002]",66,EM,L,R,ITMSR,1.1
2,500,practice,0,4,4,4,practice,"['S', 'S', 'S', 'S', 'S', 'S', 'S', 'C', 'C', 'C', 'C', 'C', 'C', 'C', 'C', 'C', 'C', 'C', 'C', 'C', 'C', 'C', 'C']","[197093, 197588, 198082, 198554, 199060, 199585, 200088, 200603, 201109, 201590, 202079, 202529, 202952, 203484, 204010, 204462, 204947, 205418, 205860, 206375, 206802, 207320, 207776]","[197180, 197670, 198156, 198635, 199149, 199675, 200182, 200707, 201213, 201693, 202198, 202619, 203088, 203586, 204104, 204568, 205052, 205538, 205962, 206474, 206929, 207446, 207922]","[237, 174, 162, 246, 235, 203, 216, 193, 219, 199, 207, 73, 181, 173, 136, 203, 187, 39, 209, 194, 36, 238, 23]","[197129, 197624, 198090, 198590, 199099, 199620, 200125, 200658, 201162, 201638, 202128, 202568, 203022, 203525, 204039, 204518, 204992, 205489, 205900, 206417, 206883, 207385, 207859]","[196663, 197164, 197663, 198163, 198663, 199163, 199663, 200163, 200623, 201129, 201610, 202099, 202549, 202972, 203504, 204030, 204482, 204967, 205438, 205880, 206395, 206822, 207340, 207796]",66,EM,L,R,ITMSR,1.1
1,500,practice,0,5,5,5,practice,"['S', 'S', 'S', 'S', 'S', 'S', 'S', 'S', 'C', 'C', 'C', 'C', 'C', 'C', 'C', 'C', 'C', 'C', 'C', 'C', 'C', 'C', 'C', 'C']","[213653, 214008, 214436, 214916, 215394, 215891, 216381, 216908, 217406, 217931, 218433, 218923, 219371, 219823, 220347, 220837, 221305, 221790, 222264, 222753, 223197, 223708, 224189, 224601]","[213751, 214087, 214500, 214967, 215467, 215961, 216475, 217001, 217499, 218021, 218524, 219012, 219467, 219950, 220474, 220967, 221448, 221928, 222405, 222886, 223345, 223834, 224315, 224746]","[175, 216, 208, 144, 229, 248, 143, 179, 193, 147, 144, 137, 149, 203, 163, 225, 241, 199, 208, 237, 20, 212, 208, 239]","[213720, 214016, 214443, 214923, 215399, 215897, 216419, 216913, 217412, 217969, 218438, 218929, 219377, 219902, 220406, 220897, 221385, 221870, 222339, 222826, 223277, 223713, 224253, 224677]","[213487, 213987, 214488, 214988, 215488, 215988, 216488, 216988, 217426, 217951, 218454, 218943, 219392, 219843, 220367, 220857, 221325, 221810, 222284, 222773, 223217, 223728, 224209, 224621]",66,EM,L,R,ITMSR,1.1
2,400,trial,0,6,6,6,trial,"['S', 'S', 'S', 'S', 'S', 'S', 'S', 'C', 'C', 'C', 'C', 'C', 'C', 'C', 'C', 'C', 'C', 'C', 'C', 'C', 'C', 'C', 'C']","[306228, 306596, 306999, 307412, 307792, 308188, 308591, 308996, 309371, 309758, 310176, 310557, 310928, 311325, 311699, 312086, 312466, 312860, 313246, 313638, 314042, 314442, 314843]","[306309, 306667, 307069, 307482, 307881, 308284, 308688, 309083, 309456, 309842, 310252, 310649, 311025, 311382, 311792, 312196, 312565, 312943, 313337, 313732, 314133, 314547, 314926]","[23, 255, 222, 221, 166, 206, 198, 245, 160, 251, 152, 142, 58, 46, 211, 135, 125, 95, 99, 238, 139, 166, 54]","[306274, 306600, 307037, 307447, 307838, 308238, 308634, 309044, 309378, 309765, 310209, 310563, 310974, 311331, 311758, 312092, 312515, 312866, 313252, 313676, 314086, 314509, 314850]","[305796, 306196, 306596, 306996, 307396, 307796, 308196, 308596, 309016, 309391, 309778, 310196, 310577, 310948, 311345, 311719, 312107, 312486, 312880, 313266, 313658, 314062, 314462, 314863]",66,EM,L,R,ITMSR,1.1
5,400,trial,0,7,7,7,trial,"['S', 'S', 'S', 'S', 'S', 'S', 'C', 'C', 'C', 'C', 'C', 'C', 'C', 'C', 'C', 'C', 'C', 'C', 'C', 'C', 'C', 'C']","[321346, 321787, 322159, 322549, 322927, 323371, 323750, 324129, 324533, 324909, 325297, 325675, 326063, 326447, 326854, 327211, 327611, 327995, 328370, 328761, 329142, 329552]","[321425, 321844, 322205, 322601, 323007, 323449, 323850, 324204, 324597, 324965, 325358, 325754, 326155, 326533, 326937, 327299, 327713, 328081, 328461, 328854, 329242, 329636]","[175, 160, 115, 54, 48, 184, 20, 213, 118, 208, 183, 89, 73, 41, 255, 25, 71, 51, 100, 106, 55, 90]","[321384, 321794, 322166, 322556, 322969, 323411, 323814, 324161, 324537, 324918, 325306, 325713, 326115, 326480, 326891, 327260, 327660, 328002, 328376, 328811, 329181, 329559]","[320644, 321044, 321444, 321844, 322244, 322644, 323044, 323444, 323770, 324149, 324553, 324929, 325317, 325695, 326083, 326467, 326874, 327231, 327631, 328015, 328390, 328781, 329162, 329572]",66,EM,L,R,ITMSR,1.1
1,600,trial,0,8,8,8,trial,"['S', 'S', 'S', 'S', 'S', 'S', 'C', 'C', 'C', 'C', 'C', 'C', 'C', 'C', 'C', 'C', 'C', 'C', 'C', 'C', 'C', 'C']","[336411, 337028, 337647, 338289, 338872, 339465, 340026, 340611, 341167, 341745, 342322, 342912, 343455, 344040, 344621, 345211, 345744, 346312, 346862, 347419, 347965, 348527]","[336491, 337104, 337725, 338368, 338956, 339536, 340110, 340707, 341258, 341829, 342410, 343000, 343545, 344124, 344713, 345298, 345843, 346414, 346966, 347532, 348064, 348625]","[11, 118, 44, 36, 0, 241, 12, 218, 2, 31, 86, 104, 62, 96, 76, 103, 128, 155, 133, 199, 79, 151]","[336447, 337067, 337679, 338296, 338904, 339472, 340061, 340660, 341174, 341752, 342329, 342918, 343497, 344046, 344655, 345219, 345749, 346358, 346910, 347475, 348001, 348533]","[335299, 335899, 336499, 337099, 337699, 338299, 338899, 339500, 340046, 340631, 341187, 341765, 342342, 342932, 343475, 344060, 344641, 345231, 345764, 346332, 346882, 347439, 347985, 348547]",66,EM,L,R,ITMSR,1.1
4,600,trial,0,9,9,9,trial,"['S', 'S', 'S', 'S', 'S', 'S', 'C', 'C', 'C', 'C', 'C', 'C', 'C', 'C', 'C', 'C', 'C', 'C', 'C', 'C', 'C', 'C']","[355039, 355637, 356257, 356873, 357452, 358095, 358694, 359292, 359838, 360518, 361104, 361674, 362298, 362885, 363446, 364052, 364631, 365182, 365746, 366316, 366900, 367443]","[355130, 355728, 356354, 356960, 357535, 358188, 358785, 359388, 359938, 360643, 361244, 361861, 362447, 363025, 363595, 364217, 364762, 365302, 365848, 366403, 367035, 367606]","[38, 159, 149, 91, 144, 162, 121, 148, 71, 188, 246, 2, 232, 226, 226, 227, 36, 5, 0, 125, 79, 207]","[355094, 355683, 356305, 356880, 357458, 358128, 358701, 359343, 359900, 360580, 361178, 361776, 362383, 362956, 363526, 364137, 364684, 365190, 365802, 366346, 366962, 367526]","[353949, 354549, 355149, 355749, 356349, 356950, 357549, 358149, 358714, 359312, 359858, 360538, 361124, 361694, 362318, 362905, 363466, 364072, 364651, 365202, 365766, 366337, 366920, 367463]",66,EM,L,R,ITMSR,1.1
2,600,trial,0,10,10,10,trial,"['S', 'S', 'S', 'S', 'S', 'S', 'S', 'C', 'C', 'C', 'C', 'C', 'C', 'C', 'C', 'C', 'C', 'C', 'C', 'C', 'C', 'C', 'C']","[373693, 374295, 374860, 375444, 376060, 376640, 377286, 377862, 378450, 379052, 379610, 380256, 380806, 381367, 381959, 382525, 383091, 383681, 384251, 384866, 385461, 386012, 386618]","[373791, 374383, 374957, 375546, 376170, 376745, 377397, 377977, 378585, 379197, 379773, 380401, 380938, 381491, 382087, 382648, 383214, 383832, 384392, 385015, 385622, 386178, 386798]","[186, 97, 197, 179, 178, 108, 132, 186, 226, 251, 247, 214, 98, 152, 162, 106, 166, 201, 224, 200, 197, 245, 247]","[373747, 374302, 374905, 375496, 376109, 376686, 377322, 377918, 378515, 379128, 379701, 380315, 380863, 381420, 382011, 382577, 383156, 383757, 384327, 384945, 385523, 386109, 386709]","[373133, 373733, 374333, 374933, 375533, 376133, 376733, 377333, 377882, 378470, 379072, 379630, 380276, 380826, 381387, 381979, 382545, 383111, 383702, 384271, 384886, 385481, 386032, 386638]",66,EM,L,R,ITMSR,1.1
0,400,trial,0,11,11,11,trial,"['S', 'S', 'S', 'S', 'S', 'S', 'S', 'C', 'C', 'C', 'C', 'C', 'C', 'C', 'C', 'C', 'C', 'C', 'C', 'C', 'C', 'C', 'C']","[392768, 393131, 393479, 393912, 394280, 394670, 395035, 395435, 395829, 396256, 396618, 397001, 397418, 397784, 398209, 398604, 398963, 399358, 399790, 400187, 400561, 400948, 401348]","[392848, 393217, 393555, 393984, 394355, 394741, 395134, 395526, 395912, 396319, 396723, 397104, 397532, 397910, 398324, 398730, 399093, 399498, 399899, 400303, 400684, 401077, 401470]","[87, 213, 46, 24, 33, 204, 203, 215, 180, 112, 45, 221, 230, 29, 114, 118, 52, 104, 127, 84, 189, 125, 134]","[392811, 393181, 393506, 393919, 394310, 394700, 395092, 395480, 395869, 396283, 396678, 397063, 397474, 397863, 398272, 398673, 399037, 399441, 399846, 400245, 400631, 401027, 401416]","[392318, 392718, 393118, 393518, 393918, 394318, 394718, 395118, 395455, 395849, 396276, 396638, 397021, 397438, 397804, 398229, 398624, 398983, 399378, 399810, 400207, 400581, 400968, 401368]",66,EM,L,R,ITMSR,1.1
0,600,trial,0,12,12,12,trial,"['S', 'S', 'S', 'S', 'S', 'S', 'C', 'C', 'C', 'C', 'C', 'C', 'C', 'C', 'C', 'C', 'C', 'C', 'C', 'C', 'C', 'C']","[408181, 408798, 409396, 410035, 410592, 411193, 411814, 412420, 412997, 413616, 414172, 414741, 415354, 415942, 416549, 417130, 417713, 418289, 418883, 419470, 420036, 420603]","[408266, 408878, 409477, 410116, 410673, 411284, 411905, 412508, 413100, 413714, 414279, 414872, 415475, 416092, 416670, 417291, 417854, 418417, 419020, 419608, 420186, 420752]","[85, 48, 27, 207, 219, 255, 10, 42, 240, 243, 93, 156, 79, 168, 138, 212, 168, 172, 162, 166, 178, 239]","[408187, 408805, 409403, 410066, 410600, 411226, 411849, 412461, 413059, 413646, 414221, 414809, 415398, 416013, 416601, 417199, 417784, 418356, 418942, 419544, 420116, 420682]","[407078, 407677, 408278, 408877, 409477, 410077, 410677, 411277, 411834, 412440, 413017, 413636, 414192, 414761, 415374, 415962, 416569, 417150, 417733, 418309, 418904, 419490, 420056, 420623]",66,EM,L,R,ITMSR,1.1
4,400,trial,0,13,13,13,trial,"['S', 'S', 'S', 'S', 'S', 'S', 'C', 'C', 'C', 'C', 'C', 'C', 'C', 'C', 'C', 'C', 'C', 'C', 'C', 'C', 'C', 'C']","[427088, 427462, 427854, 428262, 428660, 429057, 429446, 429844, 430285, 430654, 431070, 431436, 431828, 432177, 432573, 432947, 433388, 433769, 434154, 434501, 434893, 435241]","[427177, 427541, 427935, 428344, 428746, 429151, 429545, 429952, 430376, 430778, 431182, 431553, 431930, 432277, 432678, 433053, 433504, 433875, 434259, 434628, 435008, 435379]","[11, 201, 229, 46, 82, 252, 47, 97, 0, 67, 32, 19, 205, 229, 227, 244, 4, 232, 182, 250, 152, 30]","[427125, 427492, 427885, 428301, 428691, 429097, 429494, 429896, 430317, 430712, 431132, 431489, 431875, 432228, 432618, 433003, 433446, 433821, 434216, 434576, 434951, 435319]","[426365, 426765, 427165, 427565, 427965, 428365, 428765, 429165, 429466, 429864, 430305, 430674, 431090, 431456, 431848, 432197, 432593, 432967, 433409, 433789, 434174, 434521, 434913, 435261]",66,EM,L,R,ITMSR,1.1
2,600,trial,0,14,14,14,trial,"['S', 'S', 'S', 'S', 'S', 'S', 'C', 'C', 'C', 'C', 'C', 'C', 'C', 'C', 'C', 'C', 'C', 'C', 'C', 'C', 'C', 'C']","[441889, 442544, 443082, 443729, 444322, 444849, 445478, 446067, 446621, 447198, 447771, 448356, 448901, 449495, 450098, 450670, 451182, 451808, 452382, 452976, 453510, 454069]","[441984, 442607, 443166, 443812, 444383, 444942, 445552, 446158, 446718, 447289, 447852, 448430, 449018, 449604, 450173, 450791, 451320, 451948, 452532, 453102, 453621, 454158]","[134, 157, 104, 129, 54, 15, 167, 16, 10, 160, 26, 75, 96, 105, 107, 116, 185, 112, 198, 133, 149, 108]","[441932, 442550, 443118, 443736, 444328, 444897, 445512, 446103, 446658, 447226, 447808, 448362, 448961, 449501, 450103, 450726, 451264, 451875, 452467, 453014, 453566, 454105]","[440790, 441389, 441989, 442589, 443189, 443789, 444389, 444989, 445498, 446087, 446641, 447218, 447791, 448376, 448921, 449515, 450118, 450690, 451202, 451828, 452402, 452996, 453530, 454089]",66,EM,L,R,ITMSR,1.1
5,600,trial,0,15,15,15,trial,"['S', 'S', 'S', 'S', 'S', 'S', 'C', 'C', 'C', 'C', 'C', 'C', 'C', 'C', 'C', 'C', 'C', 'C', 'C', 'C', 'C', 'C']","[460630, 461227, 461837, 462465, 463062, 463661, 464267, 464856, 465458, 466052, 466636, 467234, 467820, 468436, 469060, 469698, 470298, 470899, 471508, 472087, 472721, 473266]","[460698, 461309, 461932, 462564, 463170, 463760, 464370, 464982, 465571, 466168, 466741, 467371, 467957, 468584, 469190, 469836, 470447, 471035, 471642, 472215, 472860, 473392]","[158, 54, 163, 67, 101, 245, 81, 131, 6, 13, 85, 38, 87, 83, 79, 42, 88, 75, 182, 228, 17, 40]","[460635, 461264, 461843, 462471, 463068, 463668, 464272, 464925, 465464, 466105, 466641, 467290, 467901, 468515, 469112, 469781, 470377, 470905, 471564, 472166, 472780, 473333]","[459520, 460120, 460720, 461320, 461920, 462520, 463120, 463720, 464287, 464876, 465478, 466072, 466656, 467254, 467841, 468456, 469080, 469719, 470318, 470919, 471528, 472108, 472741, 473286]",66,EM,L,R,ITMSR,1.1
0,400,trial,0,16,16,16,trial,"['S', 'S', 'S', 'S', 'S', 'S', 'C', 'C', 'C', 'C', 'C', 'C', 'C', 'C', 'C', 'C', 'C', 'C', 'C', 'C', 'C', 'C']","[479666, 480034, 480427, 480833, 481238, 481632, 482023, 482383, 482785, 483158, 483561, 483928, 484326, 484746, 485153, 485507, 485922, 486345, 486727, 487124, 487510, 487921]","[479724, 480097, 480496, 480896, 481299, 481711, 482096, 482477, 482877, 483241, 483625, 484019, 484420, 484840, 485233, 485602, 486024, 486445, 486843, 487226, 487630, 488028]","[61, 87, 146, 171, 242, 40, 102, 88, 61, 78, 251, 211, 225, 217, 188, 148, 193, 231, 199, 219, 67, 63]","[479673, 480040, 480433, 480838, 481245, 481676, 482029, 482390, 482791, 483165, 483567, 483981, 484384, 484796, 485190, 485559, 485984, 486385, 486795, 487181, 487572, 487980]","[478863, 479263, 479663, 480063, 480463, 480863, 481263, 481664, 482043, 482403, 482805, 483178, 483581, 483948, 484346, 484766, 485173, 485527, 485942, 486365, 486747, 487144, 487530, 487941]",66,EM,L,R,ITMSR,1.1
3,600,trial,0,17,17,17,trial,"['S', 'S', 'S', 'S', 'S', 'S', 'S', 'S', 'C', 'C', 'C', 'C', 'C', 'C', 'C', 'C', 'C', 'C', 'C', 'C', 'C', 'C', 'C', 'C']","[493746, 494080, 494624, 495257, 495826, 496442, 497034, 497616, 498219, 498768, 499310, 499918, 500485, 501044, 501609, 502204, 502853, 503480, 504075, 504645, 505206, 505769, 506377, 506949]","[493834, 494179, 494712, 495323, 495888, 496492, 497086, 497666, 498284, 498833, 499378, 499995, 500569, 501139, 501727, 502322, 502982, 503586, 504166, 504758, 505361, 505932, 506514, 507068]","[45, 97, 140, 175, 190, 202, 107, 64, 104, 85, 153, 188, 166, 83, 89, 48, 88, 151, 35, 14, 124, 160, 147, 173]","[493788, 494126, 494662, 495263, 495832, 496447, 497039, 497622, 498225, 498775, 499316, 499923, 500491, 501050, 501614, 502269, 502858, 503484, 504120, 504712, 505211, 505848, 506457, 507004]","[493532, 494132, 494732, 495332, 495932, 496532, 497132, 497732, 498239, 498788, 499330, 499938, 500505, 501064, 501629, 502224, 502873, 503500, 504095, 504665, 505226, 505789, 506397, 506969]",66,EM,L,R,ITMSR,1.1
3,400,trial,0,18,18,18,trial,"['S', 'S', 'S', 'S', 'C', 'C', 'C', 'C', 'C', 'C', 'C', 'C', 'C', 'C', 'C', 'C', 'C', 'C', 'C', 'C']","[514228, 514639, 515065, 515471, 515856, 516255, 516652, 517017, 517354, 517730, 518173, 518575, 518958, 519336, 519721, 520079, 520456, 520824, 521207, 521590]","[514304, 514724, 515143, 515548, 515958, 516364, 516756, 517121, 517481, 517856, 518296, 518704, 519096, 519439, 519823, 520162, 520594, 520922, 521317, 521675]","[135, 177, 73, 83, 144, 99, 31, 59, 236, 97, 112, 122, 241, 35, 41, 232, 156, 65, 87, 13]","[514268, 514644, 515105, 515508, 515907, 516313, 516712, 517068, 517414, 517806, 518237, 518651, 519026, 519380, 519771, 520118, 520517, 520870, 521261, 521630]","[512731, 513131, 513531, 513931, 514331, 514732, 515131, 515531, 515876, 516275, 516672, 517037, 517374, 517750, 518193, 518595, 518978, 519356, 519741, 520099, 520476, 520844, 521227, 521610]",66,EM,L,R,ITMSR,1.1
1,400,trial,0,19,19,19,trial,"['S', 'S', 'S', 'S', 'C', 'C', 'C', 'C', 'C', 'C', 'C', 'C', 'C', 'C', 'C', 'C', 'C', 'C', 'C', 'C']","[528679, 529092, 529445, 529864, 530250, 530658, 531079, 531464, 531835, 532236, 532608, 533003, 533385, 533740, 534137, 534504, 534843, 535260, 535618, 536025]","[528792, 529168, 529547, 529934, 530375, 530747, 531181, 531549, 531955, 532333, 532712, 533101, 533498, 533848, 534234, 534607, 534949, 535353, 535733, 536107]","[243, 123, 203, 190, 156, 244, 57, 114, 69, 10, 236, 38, 177, 116, 215, 243, 24, 221, 47, 248]","[528684, 529097, 529512, 529870, 530313, 530705, 531133, 531469, 531893, 532289, 532648, 533048, 533390, 533796, 534176, 534554, 534899, 535299, 535670, 536077]","[527130, 527531, 527930, 528330, 528730, 529130, 529530, 529930, 530270, 530678, 531099, 531484, 531855, 532256, 532628, 533023, 533405, 533761, 534157, 534524, 534863, 535280, 535639, 536045]",66,EM,L,R,ITMSR,1.1
2,400,trial,0,20,20,20,trial,"['S', 'S', 'S', 'S', 'C', 'C', 'C', 'C', 'C', 'C', 'C', 'C', 'C', 'C', 'C', 'C', 'C', 'C', 'C', 'C']","[543035, 543429, 543837, 544232, 544646, 545001, 545423, 545799, 546232, 546587, 546992, 547335, 547756, 548140, 548495, 548911, 549298, 549699, 550122, 550542]","[543115, 543511, 543924, 544322, 544740, 545088, 545521, 545913, 546331, 546709, 547101, 547479, 547881, 548275, 548641, 549037, 549425, 549817, 550213, 550652]","[122, 95, 8, 250, 244, 199, 249, 17, 245, 250, 22, 58, 87, 33, 15, 213, 29, 64, 250, 36]","[543068, 543469, 543842, 544239, 544679, 545042, 545479, 545858, 546281, 546635, 547043, 547422, 547823, 548221, 548592, 548993, 549370, 549758, 550166, 550603]","[541510, 541911, 542310, 542710, 543110, 543510, 543910, 544310, 544666, 545021, 545443, 545819, 546252, 546607, 547012, 547355, 547776, 548160, 548515, 548931, 549318, 549720, 550142, 550562]",66,EM,L,R,ITMSR,1.1
1,400,trial,0,21,21,21,trial,"['S', 'S', 'S', 'S', 'C', 'C', 'C', 'C', 'C', 'C', 'C', 'C', 'C', 'C', 'C', 'C', 'C', 'C', 'C', 'C']","[557471, 557894, 558294, 558690, 559113, 559482, 559867, 560262, 560669, 561049, 561440, 561797, 562221, 562610, 562967, 563358, 563746, 564129, 564486, 564872]","[557553, 557968, 558369, 558775, 559202, 559578, 559953, 560345, 560782, 561134, 561543, 561899, 562305, 562706, 563059, 563451, 563843, 564209, 564567, 564955]","[26, 172, 204, 13, 185, 221, 211, 248, 233, 106, 1, 74, 215, 234, 31, 25, 101, 222, 209, 228]","[557513, 557902, 558320, 558726, 559140, 559516, 559904, 560302, 560736, 561083, 561492, 561851, 562267, 562662, 563012, 563405, 563802, 564165, 564527, 564912]","[555949, 556349, 556749, 557149, 557549, 557949, 558349, 558749, 559133, 559502, 559887, 560282, 560689, 561069, 561460, 561817, 562241, 562630, 562988, 563378, 563766, 564149, 564506, 564892]",66,EM,L,R,ITMSR,1.1
3,600,trial,0,22,22,22,trial,"['S', 'S', 'S', 'S', 'S', 'S', 'C', 'C', 'C', 'C', 'C', 'C', 'C', 'C', 'C', 'C', 'C', 'C', 'C', 'C', 'C', 'C']","[571420, 572008, 572603, 573235, 573825, 574432, 575053, 575607, 576226, 576803, 577368, 577952, 578528, 579100, 579670, 580278, 580879, 581518, 582073, 582629, 583203, 583770]","[571489, 572079, 572669, 573310, 573911, 574526, 575143, 575717, 576325, 576889, 577462, 578063, 578624, 579204, 579770, 580397, 580994, 581626, 582200, 582750, 583331, 583874]","[229, 111, 39, 249, 241, 38, 138, 123, 111, 38, 96, 22, 117, 93, 100, 174, 239, 13, 230, 145, 174, 154]","[571457, 572038, 572630, 573267, 573867, 574467, 575090, 575656, 576265, 576839, 577416, 577987, 578565, 579149, 579717, 580342, 580935, 581570, 582149, 582685, 583274, 583824]","[570275, 570875, 571475, 572076, 572675, 573275, 573875, 574475, 575073, 575627, 576246, 576823, 577388, 577972, 578548, 579120, 579690, 580298, 580899, 581538, 582093, 582649, 583223, 583790]",66,EM,L,R,ITMSR,1.1
4,600,trial,0,23,23,23,trial,"['S', 'S', 'S', 'S', 'S', 'S', 'S', 'S', 'C', 'C', 'C', 'C', 'C', 'C', 'C', 'C', 'C', 'C', 'C', 'C', 'C', 'C', 'C', 'C']","[589622, 590017, 590465, 591062, 591619, 592187, 592782, 593400, 594007, 594593, 595169, 595763, 596322, 596880, 597473, 598035, 598634, 599232, 599775, 600346, 600897, 601465, 602029, 602649]","[589721, 590090, 590517, 591108, 591665, 592241, 592832, 593452, 594060, 594671, 595226, 595819, 596384, 596960, 597554, 598099, 598704, 599308, 599842, 600411, 600970, 601544, 602118, 602752]","[47, 87, 171, 57, 66, 226, 43, 5, 48, 137, 29, 1, 251, 229, 232, 221, 223, 219, 205, 94, 37, 161, 68, 106]","[589691, 590023, 590470, 591065, 591622, 592191, 592785, 593403, 594010, 594640, 595172, 595767, 596325, 596884, 597477, 598039, 598637, 599236, 599779, 600350, 600902, 601469, 602032, 602653]","[589326, 589926, 590526, 591126, 591726, 592326, 592926, 593526, 594027, 594613, 595189, 595783, 596342, 596900, 597493, 598055, 598654, 599252, 599795, 600366, 600918, 601485, 602049, 602669]",66,EM,L,R,ITMSR,1.1
0,600,trial,0,24,24,24,trial,"['S', 'S', 'S', 'S', 'C', 'C', 'C', 'C', 'C', 'C', 'C', 'C', 'C', 'C', 'C', 'C', 'C', 'C', 'C', 'C']","[610397, 611034, 611638, 612209, 612800, 613419, 613983, 614546, 615166, 615725, 616329, 616894, 617483, 618075, 618662, 619259, 619816, 620405, 621012, 621596]","[610481, 611112, 611722, 612291, 612879, 613522, 614100, 614663, 615246, 615840, 616427, 617022, 617603, 618198, 618765, 619350, 619914, 620514, 621105, 621705]","[207, 236, 249, 243, 133, 9, 208, 230, 100, 52, 181, 53, 247, 255, 169, 155, 130, 199, 159, 34]","[610437, 611067, 611668, 612247, 612835, 613472, 614035, 614611, 615200, 615782, 616379, 616970, 617536, 618150, 618711, 619267, 619825, 620461, 621056, 621652]","[608086, 608685, 609285, 609885, 610485, 611085, 611685, 612285, 612820, 613439, 614003, 614566, 615186, 615745, 616349, 616914, 617503, 618095, 618682, 619279, 619836, 620425, 621032, 621616]",66,EM,L,R,ITMSR,1.1
5,600,trial,0,25,25,25,trial,"['S', 'S', 'S', 'S', 'C', 'C', 'C', 'C', 'C', 'C', 'C', 'C', 'C', 'C', 'C', 'C', 'C', 'C', 'C', 'C']","[629684, 630328, 630893, 631479, 632085, 632675, 633186, 633748, 634341, 634873, 635370, 635941, 636493, 637024, 637542, 638045, 638626, 639114, 639636, 640182]","[629757, 630385, 630970, 631572, 632164, 632769, 633295, 633835, 634464, 635002, 635489, 636044, 636615, 637127, 637703, 638173, 638717, 639257, 639791, 640372]","[209, 250, 16, 68, 158, 181, 132, 105, 229, 212, 211, 15, 248, 14, 2, 222, 217, 230, 13, 32]","[629688, 630335, 630900, 631485, 632090, 632681, 633192, 633754, 634345, 634877, 635375, 635945, 636498, 637029, 637547, 638050, 638631, 639118, 639641, 640187]","[627371, 627970, 628570, 629170, 629770, 630370, 630970, 631570, 632105, 632695, 633206, 633768, 634361, 634893, 635390, 635961, 636513, 637044, 637562, 638065, 638646, 639134, 639656, 640202]",66,EM,L,R,ITMSR,1.1
4,400,trial,0,26,26,26,trial,"['S', 'S', 'S', 'S', 'C', 'C', 'C', 'C', 'C', 'C', 'C', 'C', 'C', 'C', 'C', 'C', 'C', 'C', 'C', 'C']","[647335, 647766, 648170, 648572, 649007, 649421, 649795, 650227, 650616, 651021, 651427, 651796, 652199, 652582, 652985, 653346, 653731, 654159, 654528, 654911]","[647427, 647867, 648273, 648681, 649105, 649511, 649899, 650324, 650727, 651127, 651525, 651913, 652308, 652674, 653083, 653433, 653845, 654238, 654643, 655013]","[216, 104, 193, 27, 120, 240, 118, 106, 73, 185, 64, 45, 202, 197, 28, 143, 134, 2, 123, 104]","[647376, 647804, 648222, 648617, 649060, 649467, 649859, 650279, 650679, 651061, 651472, 651878, 652268, 652631, 653039, 653404, 653798, 654199, 654589, 654967]","[645836, 646236, 646636, 647036, 647436, 647836, 648237, 648637, 649027, 649441, 649816, 650247, 650636, 651041, 651447, 651816, 652219, 652602, 653005, 653366, 653751, 654179, 654548, 654931]",66,EM,L,R,ITMSR,1.1
3,400,trial,0,27,27,27,trial,"['S', 'S', 'S', 'S', 'C', 'C', 'C', 'C', 'C', 'C', 'C', 'C', 'C', 'C', 'C', 'C', 'C', 'C', 'C', 'C']","[661949, 662392, 662785, 663187, 663576, 663987, 664345, 664733, 665131, 665525, 665900, 666291, 666676, 667067, 667443, 667838, 668255, 668620, 668999, 669390]","[662033, 662501, 662892, 663291, 663686, 664091, 664464, 664826, 665233, 665640, 666003, 666406, 666804, 667177, 667557, 667938, 668359, 668729, 669107, 669492]","[237, 238, 238, 251, 241, 226, 228, 122, 136, 183, 83, 230, 221, 189, 143, 78, 175, 166, 141, 71]","[661980, 662433, 662830, 663236, 663626, 664034, 664400, 664770, 665170, 665584, 665956, 666341, 666750, 667134, 667513, 667875, 668294, 668673, 669056, 669449]","[660421, 660822, 661221, 661621, 662021, 662421, 662821, 663221, 663597, 664007, 664365, 664753, 665151, 665545, 665920, 666311, 666696, 667087, 667463, 667858, 668275, 668640, 669019, 669410]",66,EM,L,R,ITMSR,1.1
5,400,trial,0,28,28,28,trial,"['S', 'S', 'S', 'S', 'C', 'C', 'C', 'C', 'C', 'C', 'C', 'C', 'C', 'C', 'C', 'C', 'C', 'C', 'C', 'C']","[676262, 676734, 677142, 677539, 677924, 678334, 678731, 679114, 679527, 679917, 680288, 680705, 681089, 681475, 681895, 682254, 682663, 683062, 683435, 683800]","[676363, 676823, 677241, 677632, 678029, 678430, 678828, 679232, 679638, 680031, 680412, 680813, 681194, 681577, 681971, 682357, 682756, 683153, 683533, 683897]","[24, 85, 61, 20, 37, 220, 18, 56, 53, 29, 40, 21, 249, 6, 231, 254, 243, 5, 250, 245]","[676321, 676770, 677189, 677591, 677986, 678379, 678769, 679165, 679592, 679946, 680313, 680755, 681105, 681495, 681916, 682276, 682716, 683083, 683456, 683814]","[674758, 675159, 675558, 675958, 676358, 676758, 677158, 677558, 677944, 678354, 678751, 679134, 679547, 679938, 680308, 680725, 681109, 681495, 681915, 682274, 682683, 683082, 683455, 683821]",66,EM,L,R,ITMSR,1.1
1,600,trial,0,29,29,29,trial,"['S', 'S', 'S', 'S', 'S', 'S', 'C', 'C', 'C', 'C', 'C', 'C', 'C', 'C', 'C', 'C', 'C', 'C', 'C', 'C', 'C', 'C']","[690481, 691089, 691690, 692272, 692883, 693469, 694070, 694656, 695220, 695824, 696397, 696961, 697497, 698077, 698679, 699258, 699821, 700371, 700966, 701541, 702133, 702697]","[690566, 691177, 691791, 692374, 692990, 693580, 694193, 694793, 695373, 695966, 696526, 697101, 697633, 698210, 698789, 699407, 699964, 700517, 701080, 701685, 702276, 702842]","[195, 255, 38, 253, 95, 88, 78, 79, 229, 185, 193, 122, 162, 127, 117, 22, 179, 156, 64, 155, 135, 145]","[690529, 691132, 691729, 692311, 692928, 693516, 694122, 694719, 695302, 695885, 696436, 697018, 697562, 698152, 698738, 699325, 699877, 700432, 701003, 701608, 702222, 702763]","[689351, 689950, 690550, 691150, 691750, 692350, 692951, 693550, 694090, 694676, 695240, 695844, 696417, 696981, 697517, 698097, 698699, 699278, 699841, 700391, 700986, 701561, 702153, 702717]",66,EM,L,R,ITMSR,1.1
2,600,trial,0,30,30,30,trial,"['S', 'S', 'S', 'S', 'S', 'S', 'S', 'C', 'C', 'C', 'C', 'C', 'C', 'C', 'C', 'C', 'C', 'C', 'C', 'C', 'C', 'C', 'C']","[711667, 712107, 712613, 713217, 713837, 714464, 715022, 715617, 716178, 716749, 717322, 717924, 718487, 719052, 719644, 720217, 720791, 721335, 721903, 722466, 723057, 723622, 724219]","[711775, 712206, 712694, 713297, 713933, 714555, 715138, 715719, 716301, 716870, 717442, 718055, 718621, 719173, 719782, 720343, 720926, 721463, 722036, 722604, 723193, 723751, 724319]","[69, 179, 181, 127, 180, 251, 156, 74, 140, 139, 149, 128, 124, 95, 193, 174, 114, 135, 146, 123, 238, 135, 141]","[711741, 712151, 712646, 713242, 713879, 714503, 715077, 715670, 716242, 716806, 717367, 717981, 718538, 719109, 719707, 720262, 720843, 721393, 721947, 722530, 723124, 723672, 724275]","[710950, 711550, 712151, 712750, 713350, 713950, 714550, 715150, 715637, 716198, 716769, 717342, 717944, 718508, 719072, 719664, 720237, 720812, 721355, 721923, 722486, 723077, 723642, 724239]",66,EM,L,R,ITMSR,1.1
1,400,trial,0,31,31,31,trial,"['S', 'S', 'S', 'S', 'C', 'C', 'C', 'C', 'C', 'C', 'C', 'C', 'C', 'C', 'C', 'C', 'C', 'C', 'C', 'C']","[731138, 731585, 732001, 732386, 732771, 733172, 733548, 733928, 734259, 734648, 735033, 735391, 735757, 736143, 736506, 736875, 737254, 737577, 737991, 738405]","[731208, 731649, 732084, 732474, 732874, 733274, 733644, 734012, 734393, 734763, 735147, 735518, 735892, 736254, 736621, 736973, 737348, 737696, 738096, 738519]","[206, 250, 6, 25, 47, 229, 74, 80, 179, 78, 29, 229, 225, 119, 6, 173, 160, 197, 40, 101]","[731158, 731615, 732030, 732423, 732819, 733228, 733600, 733978, 734303, 734721, 735090, 735444, 735832, 736203, 736580, 736909, 737294, 737640, 738035, 738466]","[729658, 730058, 730458, 730858, 731258, 731658, 732058, 732459, 732791, 733192, 733569, 733948, 734279, 734668, 735053, 735411, 735777, 736163, 736526, 736896, 737274, 737597, 738011, 738425]",66,EM,L,R,ITMSR,1.1
2,400,trial,0,32,32,32,trial,"['S', 'S', 'S', 'S', 'S', 'S', 'S', 'C', 'C', 'C', 'C', 'C', 'C', 'C', 'C', 'C', 'C', 'C', 'C', 'C', 'C', 'C', 'C']","[744363, 744709, 745069, 745450, 745826, 746257, 746632, 746997, 747385, 747751, 748142, 748507, 748876, 749230, 749650, 750019, 750382, 750746, 751106, 751479, 751845, 752169, 752556]","[744470, 744796, 745157, 745548, 745918, 746349, 746730, 747139, 747497, 747874, 748251, 748621, 748971, 749344, 749752, 750123, 750468, 750854, 751208, 751604, 751932, 752277, 752654]","[15, 0, 85, 142, 138, 21, 6, 107, 31, 68, 38, 5, 220, 19, 34, 176, 69, 12, 8, 133, 208, 35, 241]","[744403, 744742, 745103, 745483, 745864, 746292, 746669, 747051, 747429, 747821, 748187, 748553, 748908, 749274, 749690, 750064, 750412, 750809, 751138, 751533, 751854, 752230, 752592]","[743875, 744275, 744675, 745075, 745475, 745875, 746275, 746675, 747017, 747405, 747771, 748162, 748527, 748896, 749250, 749670, 750040, 750402, 750766, 751126, 751499, 751865, 752189, 752576]",66,EM,L,R,ITMSR,1.1
0,400,trial,0,33,33,33,trial,"['S', 'S', 'S', 'S', 'C', 'C', 'C', 'C', 'C', 'C', 'C', 'C', 'C', 'C', 'C', 'C', 'C', 'C', 'C', 'C']","[759627, 760092, 760484, 760872, 761262, 761671, 762073, 762477, 762871, 763316, 763673, 764065, 764455, 764833, 765210, 765580, 765982, 766371, 766701, 767119]","[759702, 760163, 760562, 760939, 761335, 761747, 762140, 762557, 762951, 763378, 763767, 764146, 764559, 764923, 765304, 765660, 766066, 766438, 766797, 767201]","[25, 102, 89, 121, 106, 40, 72, 78, 214, 176, 254, 52, 37, 130, 98, 34, 95, 86, 80, 101]","[759632, 760097, 760487, 760878, 761267, 761677, 762077, 762484, 762904, 763342, 763708, 764098, 764515, 764863, 765215, 765613, 766014, 766377, 766708, 767127]","[758084, 758484, 758884, 759284, 759684, 760084, 760484, 760884, 761282, 761691, 762093, 762498, 762891, 763336, 763693, 764085, 764475, 764853, 765230, 765600, 766002, 766391, 766722, 767139]",66,EM,L,R,ITMSR,1.1
4,600,trial,0,34,34,34,trial,"['S', 'S', 'S', 'S', 'C', 'C', 'C', 'C', 'C', 'C', 'C', 'C', 'C', 'C', 'C', 'C', 'C', 'C', 'C', 'C']","[775165, 775842, 776446, 777040, 777591, 778200, 778801, 779355, 779901, 780465, 781028, 781580, 782147, 782733, 783280, 783847, 784419, 784951, 785532, 786109]","[775246, 775938, 776550, 777136, 777704, 778330, 778898, 779504, 780023, 780585, 781147, 781703, 782263, 782842, 783449, 783985, 784553, 785104, 785683, 786258]","[62, 79, 224, 218, 107, 203, 91, 45, 59, 216, 169, 191, 27, 249, 28, 103, 97, 19, 53, 88]","[775199, 775878, 776496, 777081, 777640, 778273, 778839, 779431, 779968, 780524, 781061, 781628, 782210, 782766, 783363, 783887, 784494, 785028, 785577, 786185]","[772897, 773496, 774096, 774696, 775297, 775896, 776496, 777096, 777611, 778220, 778821, 779375, 779921, 780485, 781048, 781600, 782168, 782753, 783300, 783867, 784439, 784971, 785552, 786129]",66,EM,L,R,ITMSR,1.1
3,600,trial,0,35,35,35,trial,"['S', 'S', 'S', 'S', 'C', 'C', 'C', 'C', 'C', 'C', 'C', 'C', 'C', 'C', 'C', 'C', 'C', 'C', 'C', 'C']","[794027, 794645, 795196, 795807, 796426, 797078, 797602, 798225, 798797, 799344, 799869, 800440, 801012, 801562, 802096, 802655, 803213, 803808, 804400, 804971]","[794103, 794735, 795283, 795891, 796526, 797157, 797711, 798346, 798897, 799459, 800001, 800583, 801143, 801672, 802200, 802757, 803310, 803900, 804491, 805051]","[47, 183, 221, 215, 31, 252, 38, 41, 139, 124, 49, 45, 28, 40, 163, 207, 81, 123, 237, 170]","[794057, 794683, 795251, 795854, 796461, 797111, 797669, 798306, 798844, 799395, 799932, 800520, 801061, 801608, 802124, 802704, 803288, 803864, 804436, 804982]","[791703, 792303, 792903, 793503, 794103, 794703, 795303, 795904, 796446, 797099, 797622, 798245, 798817, 799364, 799889, 800460, 801032, 801582, 802116, 802675, 803233, 803828, 804420, 804992]",66,EM,L,R,ITMSR,1.1
5,400,trial,0,36,36,36,trial,"['S', 'S', 'S', 'S', 'C', 'C', 'C', 'C', 'C', 'C', 'C', 'C', 'C', 'C', 'C', 'C', 'C', 'C', 'C', 'C']","[811827, 812263, 812679, 813081, 813491, 813870, 814277, 814679, 815077, 815458, 815870, 816276, 816680, 817041, 817480, 817875, 818278, 818642, 819047, 819436]","[811909, 812335, 812745, 813169, 813562, 813937, 814359, 814735, 815151, 815533, 815940, 816340, 816759, 817130, 817559, 817934, 818351, 818726, 819111, 819483]","[200, 41, 253, 234, 70, 6, 43, 73, 46, 38, 194, 125, 128, 20, 187, 212, 133, 104, 22, 231]","[811832, 812269, 812685, 813086, 813496, 813875, 814280, 814685, 815081, 815463, 815874, 816281, 816687, 817045, 817519, 817880, 818285, 818649, 819051, 819442]","[810333, 810732, 811132, 811532, 811932, 812333, 812733, 813133, 813511, 813890, 814297, 814699, 815097, 815478, 815890, 816296, 816700, 817061, 817500, 817895, 818298, 818662, 819067, 819457]",66,EM,L,R,ITMSR,1.1
1,600,trial,0,37,37,37,trial,"['S', 'S', 'S', 'S', 'C', 'C', 'C', 'C', 'C', 'C', 'C', 'C', 'C', 'C', 'C', 'C', 'C', 'C', 'C', 'C', 'C', 'C', 'C', 'C']","[827436, 828095, 828683, 829255, 829868, 830430, 830981, 831562, 832125, 832680, 833203, 833754, 834280, 834380, 834847, 834947, 835333, 835433, 835886, 836382, 836975, 837504, 837604, 838041]","[827560, 828163, 828729, 829275, 829933, 830494, 831072, 831668, 832145, 832700, 833223, 833774, 834300, 834422, 834867, 834967, 835353, 835494, 836033, 836579, 837136, 837524, 837635, 838150]","[110, 43, 226, 216, 44, 26, 152, 80, 185, 186, 7, 67, 214, 9, 223, 197, 62, 201, 102, 66, 67, 214, 34, 108]","[827441, 828100, 828689, 829260, 829874, 830435, 830988, 831627, 832132, 832687, 833208, 833759, 834286, 834380, 834853, 834947, 835338, 835433, 835891, 836388, 836980, 837509, 837604, 838047]","[825172, 825772, 826371, 826971, 827571, 828171, 828771, 829371, 829888, 830450, 831001, 831582, 832145, 832700, 833223, 833774, 834300, 834867, 835353, 835906, 836402, 836995, 837524, 838061]",66,EM,L,R,ITMSR,1.1
5,600,trial,0,38,38,38,trial,"['S', 'S', 'S', 'S', 'C', 'C', 'C', 'C', 'C', 'C', 'C', 'C', 'C', 'C', 'C', 'C', 'C', 'C', 'C', 'C']","[845911, 846561, 847145, 847698, 848307, 848890, 849488, 850069, 850644, 851196, 851769, 852324, 852894, 853453, 854012, 854569, 855139, 855707, 856286, 856820]","[845969, 846617, 847204, 847752, 848364, 848959, 849508, 850119, 850665, 851252, 851818, 852344, 852968, 853473, 854069, 854589, 855159, 855727, 856306, 856840]","[184, 93, 220, 53, 32, 34, 141, 94, 207, 242, 224, 123, 163, 144, 186, 248, 60, 111, 227, 35]","[845917, 846566, 847152, 847705, 848312, 848896, 849495, 850077, 850650, 851202, 851774, 852330, 852900, 853459, 854019, 854575, 855143, 855712, 856291, 856825]","[843597, 844197, 844797, 845398, 845997, 846597, 847197, 847797, 848327, 848910, 849508, 850089, 850664, 851216, 851789, 852344, 852914, 853473, 854032, 854589, 855159, 855727, 856306, 856840]",66,EM,L,R,ITMSR,1.1
3,400,trial,0,39,39,39,trial,"['S', 'S', 'S', 'S', 'C', 'C', 'C', 'C', 'C', 'C', 'C', 'C', 'C', 'C', 'C', 'C', 'C', 'C', 'C', 'C']","[864098, 864505, 864920, 865320, 865743, 866140, 866533, 866918, 867305, 867714, 868119, 868503, 868917, 869272, 869765, 870173, 870584, 870943, 871327, 871740]","[864139, 864543, 864964, 865340, 865763, 866160, 866582, 866974, 867361, 867763, 868140, 868576, 868938, 869323, 869785, 870242, 870604, 870963, 871347, 871760]","[150, 31, 61, 184, 177, 36, 79, 102, 131, 106, 202, 138, 63, 50, 210, 150, 94, 41, 55, 108]","[864104, 864508, 864924, 865325, 865748, 866144, 866537, 866922, 867310, 867719, 868119, 868507, 868922, 869277, 869769, 870175, 870588, 870948, 871332, 871745]","[862562, 862962, 863362, 863762, 864162, 864562, 864962, 865362, 865763, 866160, 866553, 866938, 867325, 867734, 868140, 868524, 868937, 869293, 869785, 870193, 870604, 870963, 871347, 871760]",66,EM,L,R,ITMSR,1.1
4,400,trial,0,40,40,40,trial,"['S', 'S', 'S', 'S', 'C', 'C', 'C', 'C', 'C', 'C', 'C', 'C', 'C', 'C', 'C', 'C', 'C', 'C', 'C', 'C']","[879016, 879393, 879798, 880199, 880617, 881006, 881400, 881787, 882269, 882633, 883022, 883419, 883791, 884192, 884558, 884986, 885378, 885768, 886184, 886537]","[879069, 879446, 879847, 880244, 880657, 881058, 881467, 881839, 882301, 882711, 883090, 883469, 883856, 884252, 884642, 885064, 885447, 885820, 886204, 886557]","[93, 81, 25, 15, 233, 173, 21, 188, 163, 134, 12, 100, 39, 22, 247, 236, 10, 178, 92, 91]","[879023, 879400, 879804, 880205, 880622, 881014, 881408, 881793, 882274, 882638, 883030, 883424, 883798, 884198, 884566, 885031, 885383, 885774, 886188, 886541]","[877442, 877842, 878242, 878642, 879042, 879442, 879842, 880242, 880637, 881026, 881420, 881807, 882289, 882653, 883042, 883439, 883811, 884212, 884578, 885006, 885398, 885788, 886204, 886557]",66,EM,L,R,ITMSR,1.1
4,400,trial,0,41,41,41,trial,"['S', 'S', 'S', 'S', 'C', 'C', 'C', 'C', 'C', 'C', 'C', 'C', 'C', 'C', 'C', 'C', 'C', 'C', 'C', 'C']","[893413, 893831, 894188, 894627, 895005, 895427, 895794, 896174, 896550, 896950, 897345, 897725, 898116, 898487, 898853, 899270, 899621, 901344, 901732, 902106]","[893483, 893884, 894271, 894683, 895060, 895470, 895845, 896243, 896609, 897007, 897389, 897748, 898166, 898528, 898907, 899315, 899693, 901388, 901770, 902157]","[177, 100, 154, 40, 116, 140, 217, 103, 207, 241, 124, 142, 196, 147, 141, 60, 249, 129, 66, 203]","[893418, 893837, 894192, 894635, 895010, 895432, 895800, 896178, 896558, 896956, 897349, 897731, 898122, 898493, 898860, 899273, 899627, 901350, 901740, 902112]","[891859, 892259, 892659, 893059, 893459, 893859, 894259, 894659, 895025, 895448, 895814, 896194, 896570, 896970, 897366, 897745, 898136, 898507, 898873, 899290, 899641, 901364, 901752, 902126]",66,EM,L,R,ITMSR,1.1
1,600,trial,0,42,42,42,trial,"['S', 'S', 'S', 'S', 'C', 'C', 'C', 'C', 'C', 'C', 'C', 'C', 'C', 'C', 'C', 'C', 'C', 'C', 'C', 'C']","[910011, 910632, 911203, 911782, 912396, 912930, 913474, 914048, 914591, 915146, 915681, 916236, 916777, 917294, 917837, 918384, 918940, 919490, 920067, 920579]","[910082, 910693, 911266, 911839, 912427, 912989, 913539, 914096, 914651, 915207, 915731, 916292, 916844, 917353, 917904, 918456, 919019, 919544, 920096, 920653]","[222, 83, 121, 59, 12, 193, 84, 87, 142, 97, 117, 99, 94, 132, 125, 113, 112, 58, 220, 155]","[910015, 910639, 911208, 911789, 912402, 912937, 913480, 914054, 914596, 915152, 915687, 916242, 916785, 917300, 917843, 918390, 918945, 919496, 920073, 920585]","[907706, 908306, 908906, 909506, 910106, 910706, 911306, 911906, 912416, 912950, 913495, 914068, 914611, 915166, 915701, 916256, 916797, 917314, 917857, 918404, 918960, 919511, 920087, 920599]",66,EM,L,R,ITMSR,1.1
0,600,trial,0,43,43,43,trial,"['S', 'S', 'S', 'S', 'C', 'C', 'C', 'C', 'C', 'C', 'C', 'C', 'C', 'C', 'C', 'C', 'C', 'C', 'C', 'C']","[928618, 929252, 929830, 930418, 931020, 931570, 932139, 932741, 933319, 933918, 934473, 935077, 935655, 936231, 936812, 937407, 937980, 938554, 939088, 939670]","[928680, 929301, 929870, 930473, 931078, 931648, 932214, 932814, 933384, 933987, 934556, 935147, 935714, 936306, 936883, 937487, 938051, 938633, 939167, 939743]","[202, 30, 145, 32, 217, 156, 224, 245, 234, 244, 18, 190, 156, 191, 170, 113, 255, 237, 181, 137]","[928622, 929258, 929836, 930425, 931026, 931575, 932144, 932747, 933326, 933924, 934479, 935084, 935658, 936236, 936817, 937413, 937987, 938560, 939094, 939673]","[926312, 926912, 927512, 928112, 928712, 929312, 929912, 930512, 931040, 931590, 932159, 932761, 933339, 933938, 934493, 935097, 935675, 936251, 936833, 937427, 938000, 938574, 939108, 939691]",66,EM,L,R,ITMSR,1.1
3,600,trial,0,44,44,44,trial,"['S', 'S', 'S', 'S', 'C', 'C', 'C', 'C', 'C', 'C', 'C', 'C', 'C', 'C', 'C', 'C', 'C', 'C', 'C', 'C']","[947516, 948169, 948764, 949387, 950000, 950560, 951122, 951703, 952237, 952814, 953355, 953953, 954512, 955068, 955615, 956222, 956772, 957351, 957882, 958440]","[947591, 948239, 948840, 949447, 950032, 950647, 951224, 951801, 952351, 952953, 953511, 954109, 954633, 955205, 955741, 956320, 956861, 957455, 958008, 958555]","[178, 12, 51, 106, 225, 25, 3, 81, 152, 180, 175, 130, 81, 115, 152, 51, 149, 163, 200, 136]","[947522, 948178, 948804, 949396, 950006, 950566, 951189, 951709, 952243, 952821, 953446, 953961, 954517, 955140, 955619, 956227, 956778, 957359, 957887, 958448]","[945247, 945847, 946447, 947047, 947647, 948247, 948847, 949447, 950020, 950580, 951142, 951724, 952257, 952834, 953375, 953973, 954532, 955088, 955635, 956242, 956792, 957371, 957902, 958460]",66,EM,L,R,ITMSR,1.1
5,600,trial,0,45,45,45,trial,"['S', 'S', 'S', 'S', 'C', 'C', 'C', 'C', 'C', 'C', 'C', 'C', 'C', 'C', 'C', 'C', 'C', 'C', 'C', 'C']","[966465, 967073, 967655, 968239, 968867, 969454, 969972, 970506, 971121, 971678, 972195, 972750, 973321, 973878, 974396, 974904, 975478, 976009, 976526, 977039]","[966560, 967163, 967776, 968315, 968953, 969569, 970062, 970619, 971246, 971810, 972326, 972879, 973463, 974012, 974512, 975019, 975606, 976153, 976690, 977184]","[134, 194, 108, 25, 212, 216, 22, 154, 245, 233, 172, 102, 210, 214, 127, 165, 132, 201, 251, 243]","[966498, 967107, 967706, 968272, 968902, 969512, 970005, 970551, 971177, 971740, 972239, 972795, 973385, 973922, 974441, 974957, 975534, 976066, 976612, 977088]","[964176, 964776, 965377, 965976, 966576, 967176, 967776, 968376, 968887, 969474, 969992, 970526, 971141, 971698, 972215, 972770, 973341, 973898, 974416, 974924, 975498, 976029, 976546, 977059]",66,EM,L,R,ITMSR,1.1
2,400,trial,0,46,46,46,trial,"['S', 'S', 'S', 'S', 'C', 'C', 'C', 'C', 'C', 'C', 'C', 'C', 'C', 'C', 'C', 'C', 'C', 'C', 'C', 'C']","[984322, 984744, 985157, 985538, 985933, 986339, 986760, 987150, 987507, 987916, 988270, 988663, 989037, 989406, 989795, 990191, 990566, 990948, 991339, 991713]","[984393, 984805, 985232, 985616, 986009, 986408, 986839, 987233, 987598, 987995, 988363, 988753, 989130, 989497, 989888, 990268, 990657, 991034, 991425, 991794]","[254, 255, 189, 183, 205, 139, 195, 61, 120, 85, 96, 135, 185, 77, 39, 180, 39, 29, 177, 59]","[984327, 984750, 985162, 985571, 985938, 986346, 986795, 987179, 987556, 987940, 988300, 988698, 989086, 989438, 989826, 990197, 990633, 990988, 991392, 991749]","[982831, 983230, 983630, 984030, 984430, 984830, 985230, 985630, 985953, 986359, 986780, 987170, 987527, 987936, 988290, 988683, 989058, 989426, 989815, 990211, 990586, 990968, 991360, 991733]",66,EM,L,R,ITMSR,1.1
2,600,trial,0,47,47,47,trial,"['S', 'S', 'S', 'S', 'C', 'C', 'C', 'C', 'C', 'C', 'C', 'C', 'C', 'C', 'C', 'C', 'C', 'C', 'C', 'C']","[999686, 1000308, 1000878, 1001475, 1002096, 1002661, 1003206, 1003764, 1004362, 1004920, 1005478, 1006065, 1006629, 1007203, 1007729, 1008291, 1008838, 1009379, 1009920, 1010459]","[999796, 1000418, 1000974, 1001567, 1002195, 1002783, 1003362, 1003921, 1004499, 1005088, 1005651, 1006243, 1006819, 1007357, 1007911, 1008480, 1009051, 1009572, 1010101, 1010654]","[40, 214, 244, 125, 123, 72, 95, 192, 191, 8, 5, 11, 251, 225, 240, 30, 24, 41, 17, 38]","[999693, 1000358, 1000916, 1001511, 1002140, 1002722, 1003243, 1003849, 1004436, 1005005, 1005570, 1006168, 1006728, 1007277, 1007827, 1008390, 1008940, 1009474, 1010026, 1010554]","[997385, 997984, 998584, 999184, 999784, 1000384, 1000984, 1001584, 1002116, 1002681, 1003226, 1003784, 1004382, 1004940, 1005498, 1006085, 1006649, 1007223, 1007749, 1008311, 1008858, 1009399, 1009940, 1010479]",66,EM,L,R,ITMSR,1.1
0,600,trial,0,48,48,48,trial,"['S', 'S', 'S', 'S', 'C', 'C', 'C', 'C', 'C', 'C', 'C', 'C', 'C', 'C', 'C', 'C', 'C', 'C', 'C', 'C']","[1018525, 1019150, 1019735, 1020350, 1020956, 1021542, 1022111, 1022658, 1023251, 1023844, 1024396, 1024959, 1025536, 1026108, 1026678, 1027260, 1027817, 1028427, 1028939, 1029514]","[1018621, 1019236, 1019836, 1020416, 1021037, 1021642, 1022237, 1022799, 1023373, 1023967, 1024542, 1025088, 1025657, 1026222, 1026805, 1027386, 1027934, 1028536, 1029082, 1029622]","[168, 172, 101, 113, 133, 143, 193, 170, 178, 158, 139, 238, 200, 150, 193, 108, 128, 46, 124, 72]","[1018572, 1019157, 1019743, 1020357, 1020963, 1021598, 1022181, 1022729, 1023314, 1023903, 1024478, 1025022, 1025596, 1026161, 1026747, 1027325, 1027880, 1028483, 1029018, 1029576]","[1016261, 1016861, 1017461, 1018061, 1018661, 1019261, 1019862, 1020461, 1020976, 1021562, 1022131, 1022679, 1023271, 1023864, 1024416, 1024979, 1025556, 1026128, 1026698, 1027280, 1027837, 1028447, 1028959, 1029534]",66,EM,L,R,ITMSR,1.1
5,400,trial,0,49,49,49,trial,"['S', 'S', 'S', 'S', 'C', 'C', 'C', 'C', 'C', 'C', 'C', 'C', 'C', 'C', 'C', 'C', 'C', 'C', 'C', 'C']","[1036626, 1037032, 1037438, 1037840, 1038279, 1038670, 1039055, 1039414, 1039815, 1040187, 1040613, 1040973, 1041350, 1041735, 1042127, 1042486, 1042935, 1043312, 1043681, 1044079]","[1036694, 1037106, 1037534, 1037938, 1038360, 1038752, 1039148, 1039507, 1039910, 1040285, 1040686, 1041061, 1041452, 1041819, 1042212, 1042595, 1043040, 1043422, 1043811, 1044180]","[221, 69, 59, 119, 104, 186, 113, 80, 168, 85, 120, 175, 134, 181, 94, 168, 131, 124, 100, 127]","[1036633, 1037038, 1037499, 1037899, 1038285, 1038676, 1039096, 1039464, 1039821, 1040229, 1040620, 1040979, 1041409, 1041776, 1042135, 1042550, 1042991, 1043318, 1043770, 1044130]","[1035119, 1035520, 1035919, 1036319, 1036719, 1037119, 1037519, 1037919, 1038299, 1038690, 1039075, 1039434, 1039835, 1040207, 1040633, 1040993, 1041370, 1041755, 1042147, 1042506, 1042955, 1043332, 1043701, 1044099]",66,EM,L,R,ITMSR,1.1
0,400,trial,0,50,50,50,trial,"['S', 'S', 'S', 'S', 'C', 'C', 'C', 'C', 'C', 'C', 'C', 'C', 'C', 'C', 'C', 'C', 'C', 'C', 'C', 'C']","[1051297, 1051737, 1052101, 1052526, 1052937, 1053313, 1053698, 1054078, 1054466, 1054856, 1055186, 1055587, 1055939, 1056292, 1056683, 1057073, 1057461, 1057785, 1058144, 1058497]","[1051367, 1051798, 1052193, 1052622, 1053031, 1053406, 1053798, 1054180, 1054550, 1054928, 1055285, 1055676, 1056065, 1056410, 1056790, 1057170, 1057559, 1057882, 1058235, 1058580]","[38, 205, 107, 110, 230, 91, 102, 105, 185, 252, 133, 12, 231, 125, 70, 68, 89, 131, 116, 87]","[1051301, 1051742, 1052142, 1052579, 1052942, 1053321, 1053749, 1054114, 1054473, 1054888, 1055222, 1055620, 1056008, 1056359, 1056747, 1057131, 1057497, 1057826, 1058151, 1058531]","[1049783, 1050183, 1050584, 1050984, 1051384, 1051784, 1052184, 1052584, 1052957, 1053333, 1053718, 1054098, 1054486, 1054876, 1055206, 1055607, 1055960, 1056312, 1056703, 1057093, 1057481, 1057805, 1058164, 1058518]",66,EM,L,R,ITMSR,1.1
1,400,trial,0,51,51,51,trial,"['S', 'S', 'S', 'S', 'C', 'C', 'C', 'C', 'C', 'C', 'C', 'C', 'C', 'C', 'C', 'C', 'C', 'C', 'C', 'C']","[1065502, 1065930, 1066344, 1066732, 1067131, 1067521, 1067881, 1068248, 1068622, 1069009, 1069378, 1069770, 1070169, 1070517, 1070922, 1071284, 1071665, 1072023, 1072425, 1072795]","[1065580, 1066021, 1066430, 1066807, 1067211, 1067612, 1067980, 1068327, 1068722, 1069109, 1069486, 1069872, 1070253, 1070619, 1071007, 1071399, 1071764, 1072118, 1072517, 1072899]","[228, 187, 52, 255, 69, 74, 38, 245, 23, 238, 99, 250, 66, 138, 67, 159, 81, 108, 126, 185]","[1065508, 1065936, 1066379, 1066770, 1067171, 1067566, 1067920, 1068283, 1068662, 1069047, 1069436, 1069829, 1070210, 1070573, 1070969, 1071348, 1071723, 1072056, 1072478, 1072850]","[1063997, 1064397, 1064797, 1065197, 1065597, 1065997, 1066397, 1066797, 1067151, 1067541, 1067901, 1068268, 1068642, 1069029, 1069399, 1069790, 1070189, 1070537, 1070942, 1071304, 1071685, 1072044, 1072445, 1072815]",66,EM,L,R,ITMSR,1.1
3,400,trial,0,52,52,52,trial,"['S', 'S', 'S', 'S', 'C', 'C', 'C', 'C', 'C', 'C', 'C', 'C', 'C', 'C', 'C', 'C', 'C', 'C', 'C', 'C']","[1079721, 1080112, 1080521, 1080946, 1081311, 1081705, 1082086, 1082445, 1082839, 1083237, 1083610, 1083992, 1084366, 1084760, 1085122, 1085530, 1085898, 1086265, 1086637, 1087024]","[1079787, 1080161, 1080584, 1081006, 1081393, 1081788, 1082172, 1082530, 1082941, 1083328, 1083712, 1084103, 1084463, 1084848, 1085246, 1085632, 1086007, 1086358, 1086734, 1087115]","[148, 3, 18, 151, 160, 155, 110, 163, 141, 97, 133, 225, 175, 122, 51, 142, 118, 147, 137, 121]","[1079728, 1080119, 1080528, 1080954, 1081316, 1081710, 1082092, 1082455, 1082903, 1083288, 1083670, 1084059, 1084418, 1084808, 1085191, 1085586, 1085971, 1086271, 1086699, 1087066]","[1078195, 1078595, 1078995, 1079395, 1079795, 1080195, 1080595, 1080995, 1081331, 1081725, 1082106, 1082465, 1082859, 1083257, 1083630, 1084012, 1084386, 1084780, 1085143, 1085550, 1085918, 1086285, 1086657, 1087044]",66,EM,L,R,ITMSR,1.1
4,600,trial,0,53,53,53,trial,"['S', 'S', 'S', 'S', 'C', 'C', 'C', 'C', 'C', 'C', 'C', 'C', 'C', 'C', 'C', 'C', 'C', 'C', 'C', 'C']","[1094797, 1095440, 1096034, 1096633, 1097278, 1097857, 1098435, 1099085, 1099661, 1100246, 1100827, 1101425, 1102006, 1102575, 1103203, 1103758, 1104307, 1104908, 1105489, 1106065]","[1094876, 1095517, 1096105, 1096706, 1097353, 1097933, 1098535, 1099171, 1099759, 1100359, 1100954, 1101545, 1102139, 1102705, 1103325, 1103921, 1104497, 1105113, 1105657, 1106234]","[202, 134, 99, 153, 81, 80, 12, 86, 109, 70, 239, 241, 75, 98, 18, 156, 108, 148, 147, 147]","[1094802, 1095445, 1096040, 1096638, 1097284, 1097863, 1098442, 1099089, 1099667, 1100253, 1100892, 1101475, 1102069, 1102646, 1103209, 1103855, 1104416, 1105011, 1105576, 1106161]","[1092511, 1093111, 1093711, 1094311, 1094912, 1095512, 1096112, 1096712, 1097298, 1097877, 1098456, 1099105, 1099681, 1100266, 1100847, 1101445, 1102026, 1102595, 1103223, 1103778, 1104327, 1104928, 1105509, 1106085]",66,EM,L,R,ITMSR,1.1
1,400,trial,0,54,54,54,trial,"['S', 'S', 'S', 'S', 'C', 'C', 'C', 'C', 'C', 'C', 'C', 'C', 'C', 'C', 'C', 'C', 'C', 'C', 'C', 'C']","[1154927, 1155345, 1155732, 1156127, 1156559, 1156941, 1157341, 1157763, 1158150, 1158535, 1158925, 1159318, 1159704, 1160083, 1160494, 1160919, 1161298, 1161715, 1162096, 1162499]","[1154969, 1155400, 1155792, 1156192, 1156619, 1157027, 1157435, 1157836, 1158215, 1158593, 1158992, 1159403, 1159785, 1160153, 1160547, 1160967, 1161345, 1161765, 1162157, 1162539]","[171, 208, 203, 179, 136, 192, 108, 170, 132, 62, 213, 159, 6, 138, 107, 98, 92, 120, 215, 212]","[1154933, 1155351, 1155737, 1156134, 1156569, 1156979, 1157347, 1157769, 1158158, 1158544, 1158934, 1159346, 1159733, 1160110, 1160502, 1160924, 1161305, 1161738, 1162104, 1162507]","[1153392, 1153793, 1154192, 1154592, 1154992, 1155392, 1155792, 1156192, 1156579, 1156961, 1157361, 1157783, 1158170, 1158555, 1158945, 1159339, 1159725, 1160103, 1160514, 1160939, 1161318, 1161735, 1162116, 1162519]",66,EM,L,R,ITMSR,1.1
4,400,trial,0,55,55,55,trial,"['S', 'S', 'S', 'S', 'C', 'C', 'C', 'C', 'C', 'C', 'C', 'C', 'C', 'C', 'C', 'C', 'C', 'C', 'C', 'C']","[1169801, 1170235, 1170618, 1171019, 1171468, 1171859, 1172242, 1172673, 1173088, 1173483, 1173856, 1174244, 1174642, 1175035, 1175396, 1175789, 1176190, 1176565, 1176969, 1177355]","[1169842, 1170270, 1170681, 1171101, 1171528, 1171919, 1172333, 1172739, 1173153, 1173539, 1173936, 1174332, 1174722, 1175112, 1175484, 1175842, 1176268, 1176621, 1177038, 1177446]","[25, 160, 61, 221, 83, 71, 217, 248, 9, 136, 41, 83, 129, 120, 194, 32, 154, 22, 15, 37]","[1169806, 1170245, 1170644, 1171025, 1171475, 1171866, 1172288, 1172680, 1173096, 1173492, 1173892, 1174278, 1174648, 1175042, 1175404, 1175796, 1176199, 1176572, 1176976, 1177362]","[1168275, 1168674, 1169074, 1169474, 1169874, 1170274, 1170674, 1171074, 1171488, 1171879, 1172262, 1172694, 1173108, 1173504, 1173876, 1174264, 1174662, 1175055, 1175416, 1175810, 1176210, 1176585, 1176989, 1177375]",66,EM,L,R,ITMSR,1.1
3,400,trial,0,56,56,56,trial,"['S', 'S', 'S', 'S', 'C', 'C', 'C', 'C', 'C', 'C', 'C', 'C', 'C', 'C', 'C', 'C', 'C', 'C', 'C', 'C']","[1184481, 1184896, 1185311, 1185705, 1186150, 1186515, 1186937, 1187307, 1187670, 1188078, 1188457, 1188894, 1189262, 1189650, 1190024, 1190411, 1190809, 1191192, 1191607, 1191957]","[1184532, 1184967, 1185356, 1185772, 1186200, 1186597, 1187030, 1187398, 1187749, 1188145, 1188533, 1188950, 1189355, 1189739, 1190106, 1190492, 1190883, 1191266, 1191652, 1192039]","[33, 221, 187, 114, 37, 242, 75, 144, 211, 127, 52, 206, 235, 185, 86, 10, 229, 0, 122, 112]","[1184488, 1184903, 1185318, 1185738, 1186156, 1186522, 1186997, 1187348, 1187703, 1188084, 1188492, 1188901, 1189304, 1189686, 1190062, 1190418, 1190815, 1191197, 1191614, 1191963]","[1182960, 1183361, 1183760, 1184160, 1184560, 1184960, 1185360, 1185760, 1186170, 1186535, 1186957, 1187328, 1187690, 1188098, 1188477, 1188914, 1189282, 1189670, 1190044, 1190431, 1190829, 1191213, 1191627, 1191977]",66,EM,L,R,ITMSR,1.1
0,600,trial,0,57,57,57,trial,"['S', 'S', 'S', 'S', 'C', 'C', 'C', 'C', 'C', 'C', 'C', 'C', 'C', 'C', 'C', 'C', 'C', 'C', 'C', 'C']","[1199885, 1200528, 1201121, 1201737, 1202337, 1202834, 1203378, 1203941, 1204506, 1205073, 1205647, 1206196, 1206759, 1207332, 1207895, 1208453, 1209022, 1209577, 1210096, 1210678]","[1199962, 1200583, 1201183, 1201813, 1202400, 1202913, 1203452, 1204017, 1204580, 1205158, 1205726, 1206281, 1206836, 1207405, 1207968, 1208553, 1209093, 1209659, 1210205, 1210767]","[236, 171, 193, 220, 159, 81, 13, 180, 226, 240, 241, 184, 219, 208, 20, 16, 231, 190, 246, 161]","[1199890, 1200533, 1201126, 1201742, 1202343, 1202841, 1203386, 1203949, 1204515, 1205110, 1205654, 1206233, 1206768, 1207359, 1207903, 1208499, 1209029, 1209605, 1210151, 1210717]","[1197625, 1198225, 1198825, 1199425, 1200025, 1200625, 1201225, 1201825, 1202357, 1202854, 1203398, 1203961, 1204526, 1205093, 1205667, 1206216, 1206779, 1207352, 1207915, 1208473, 1209042, 1209597, 1210116, 1210698]",66,EM,L,R,ITMSR,1.1
4,400,trial,0,58,58,58,trial,"['S', 'S', 'S', 'S', 'C', 'C', 'C', 'C', 'C', 'C', 'C', 'C', 'C', 'C', 'C', 'C', 'C', 'C', 'C', 'C']","[1217710, 1218071, 1218497, 1218868, 1219288, 1219635, 1220037, 1220373, 1220787, 1221159, 1221533, 1221910, 1222293, 1222666, 1223048, 1223424, 1223785, 1224150, 1224536, 1224906]","[1217777, 1218143, 1218552, 1218959, 1219379, 1219728, 1220111, 1220482, 1220873, 1221252, 1221635, 1222030, 1222409, 1222770, 1223163, 1223520, 1223878, 1224256, 1224636, 1225042]","[183, 10, 105, 1, 121, 231, 247, 72, 199, 54, 78, 91, 106, 64, 161, 106, 122, 214, 160, 181]","[1217714, 1218077, 1218505, 1218873, 1219329, 1219682, 1220075, 1220443, 1220791, 1221198, 1221600, 1221976, 1222363, 1222725, 1223116, 1223484, 1223841, 1224210, 1224599, 1224978]","[1216182, 1216582, 1216983, 1217382, 1217782, 1218182, 1218582, 1218982, 1219308, 1219655, 1220057, 1220393, 1220807, 1221179, 1221553, 1221931, 1222313, 1222686, 1223068, 1223444, 1223805, 1224170, 1224556, 1224926]",66,EM,L,R,ITMSR,1.1
3,600,trial,0,59,59,59,trial,"['S', 'S', 'S', 'S', 'C', 'C', 'C', 'C', 'C', 'C', 'C', 'C', 'C', 'C', 'C', 'C', 'C', 'C', 'C', 'C']","[1232869, 1233528, 1234128, 1234735, 1235311, 1235904, 1236436, 1237025, 1237594, 1238140, 1238715, 1239256, 1239827, 1240385, 1240929, 1241520, 1242088, 1242616, 1243179, 1243761]","[1232986, 1233628, 1234230, 1234850, 1235421, 1236031, 1236578, 1237163, 1237755, 1238309, 1238865, 1239416, 1239999, 1240562, 1241108, 1241684, 1242253, 1242809, 1243363, 1243927]","[64, 171, 142, 152, 35, 145, 187, 188, 213, 213, 242, 214, 217, 224, 222, 146, 134, 132, 169, 179]","[1232915, 1233565, 1234163, 1234769, 1235351, 1235950, 1236477, 1237068, 1237639, 1238187, 1238761, 1239294, 1239866, 1240433, 1241024, 1241547, 1242127, 1242726, 1243218, 1243805]","[1230611, 1231210, 1231810, 1232410, 1233010, 1233610, 1234210, 1234810, 1235331, 1235924, 1236456, 1237045, 1237614, 1238160, 1238735, 1239276, 1239847, 1240406, 1240949, 1241540, 1242108, 1242636, 1243199, 1243781]",66,EM,L,R,ITMSR,1.1
2,600,trial,0,60,60,60,trial,"['S', 'S', 'S', 'S', 'C', 'C', 'C', 'C', 'C', 'C', 'C', 'C', 'C', 'C', 'C', 'C', 'C', 'C', 'C', 'C']","[1251656, 1252331, 1252897, 1253488, 1254086, 1254694, 1255275, 1255870, 1256480, 1257060, 1257654, 1258253, 1259403, 1259970, 1260524, 1261130, 1261709, 1262266, 1262865, 1263475]","[1251748, 1252411, 1253006, 1253583, 1254213, 1254810, 1255412, 1256026, 1256608, 1257209, 1257803, 1258398, 1259552, 1260092, 1260652, 1261263, 1261827, 1262399, 1262993, 1263606]","[247, 10, 138, 119, 141, 117, 148, 152, 131, 170, 64, 113, 226, 106, 49, 102, 151, 130, 135, 38]","[1251689, 1252363, 1252940, 1253528, 1254125, 1254734, 1255324, 1255912, 1256517, 1257104, 1257693, 1258293, 1259449, 1260011, 1260562, 1261167, 1261744, 1262306, 1262902, 1263515]","[1249347, 1249947, 1250547, 1251147, 1251747, 1252347, 1252947, 1253548, 1254106, 1254714, 1255296, 1255890, 1256500, 1257080, 1257674, 1258273, 1259423, 1259991, 1260545, 1261150, 1261729, 1262286, 1262885, 1263495]",66,EM,L,R,ITMSR,1.1
2,400,trial,0,61,61,61,trial,"['S', 'S', 'S', 'S', 'C', 'C', 'C', 'C', 'C', 'C', 'C', 'C', 'C', 'C', 'C', 'C', 'C', 'C', 'C', 'C']","[1270362, 1270756, 1271150, 1271568, 1271976, 1272346, 1272729, 1273138, 1273565, 1273969, 1274321, 1274711, 1275091, 1275474, 1275857, 1276254, 1276649, 1277040, 1277435, 1277799]","[1270427, 1270817, 1271215, 1271628, 1272041, 1272417, 1272808, 1273207, 1273644, 1274043, 1274401, 1274786, 1275182, 1275550, 1275935, 1276335, 1276721, 1277113, 1277493, 1277888]","[252, 194, 109, 93, 95, 20, 254, 21, 24, 87, 95, 245, 99, 250, 63, 56, 79, 2, 13, 53]","[1270367, 1270762, 1271156, 1271575, 1271983, 1272352, 1272763, 1273146, 1273571, 1273975, 1274329, 1274720, 1275098, 1275482, 1275866, 1276262, 1276655, 1277047, 1277442, 1277807]","[1268846, 1269245, 1269645, 1270045, 1270445, 1270845, 1271245, 1271645, 1271996, 1272366, 1272749, 1273158, 1273585, 1273989, 1274341, 1274731, 1275111, 1275494, 1275877, 1276274, 1276669, 1277060, 1277455, 1277819]",66,EM,L,R,ITMSR,1.1
4,600,trial,0,62,62,62,trial,"['S', 'S', 'S', 'S', 'C', 'C', 'C', 'C', 'C', 'C', 'C', 'C', 'C', 'C', 'C', 'C', 'C', 'C', 'C', 'C']","[1285653, 1286318, 1286938, 1287548, 1288137, 1288727, 1289302, 1289869, 1290464, 1291036, 1291601, 1292162, 1292748, 1293340, 1293955, 1294544, 1295120, 1295713, 1296249, 1296838]","[1285715, 1286376, 1287000, 1287609, 1288201, 1288811, 1289369, 1289955, 1290545, 1291132, 1291669, 1292264, 1292840, 1293407, 1294026, 1294622, 1295212, 1295794, 1296347, 1296941]","[25, 191, 206, 200, 165, 129, 134, 196, 181, 142, 219, 223, 217, 233, 208, 222, 235, 162, 252, 175]","[1285658, 1286325, 1286945, 1287556, 1288144, 1288734, 1289308, 1289875, 1290470, 1291042, 1291608, 1292168, 1292755, 1293346, 1293961, 1294551, 1295126, 1295719, 1296256, 1296845]","[1283397, 1283997, 1284597, 1285197, 1285797, 1286397, 1286998, 1287597, 1288157, 1288748, 1289322, 1289889, 1290484, 1291056, 1291621, 1292182, 1292768, 1293360, 1293975, 1294564, 1295140, 1295733, 1296269, 1296858]",66,EM,L,R,ITMSR,1.1
0,600,trial,0,63,63,63,trial,"['S', 'S', 'S', 'S', 'C', 'C', 'C', 'C', 'C', 'C', 'C', 'C', 'C', 'C', 'C', 'C', 'C', 'C', 'C', 'C']","[1304633, 1305283, 1305857, 1306472, 1307082, 1307673, 1308224, 1308771, 1309349, 1309954, 1310571, 1311142, 1311730, 1312338, 1312953, 1313539, 1314093, 1314662, 1315283, 1315835]","[1304690, 1305317, 1305900, 1306508, 1307115, 1307720, 1308292, 1308874, 1309435, 1310001, 1310635, 1311222, 1311812, 1312416, 1313010, 1313624, 1314172, 1314761, 1315342, 1315947]","[214, 177, 89, 134, 17, 7, 60, 27, 184, 185, 187, 63, 151, 122, 24, 139, 151, 93, 218, 250]","[1304641, 1305289, 1305864, 1306479, 1307088, 1307680, 1308231, 1308778, 1309382, 1309961, 1310578, 1311150, 1311736, 1312345, 1312961, 1313546, 1314099, 1314670, 1315291, 1315863]","[1302336, 1302935, 1303535, 1304135, 1304735, 1305335, 1305935, 1306535, 1307102, 1307693, 1308244, 1308791, 1309369, 1309974, 1310592, 1311162, 1311750, 1312358, 1312973, 1313559, 1314113, 1314682, 1315303, 1315855]",66,EM,L,R,ITMSR,1.1
1,600,trial,0,64,64,64,trial,"['S', 'S', 'S', 'S', 'C', 'C', 'C', 'C', 'C', 'C', 'C', 'C', 'C', 'C', 'C', 'C', 'C', 'C', 'C', 'C']","[1323677, 1324285, 1324890, 1325472, 1326053, 1326655, 1327239, 1327823, 1328396, 1328943, 1329511, 1330076, 1330675, 1331212, 1331766, 1332325, 1332936, 1333539, 1334098, 1334672]","[1323770, 1324386, 1324982, 1325573, 1326167, 1326765, 1327371, 1327972, 1328537, 1329085, 1329669, 1330240, 1330813, 1331334, 1331896, 1332454, 1333053, 1333653, 1334243, 1334820]","[91, 124, 51, 107, 86, 48, 98, 63, 116, 98, 105, 202, 110, 111, 84, 97, 69, 121, 138, 144]","[1323707, 1324322, 1324918, 1325511, 1326084, 1326694, 1327280, 1327895, 1328433, 1329022, 1329548, 1330125, 1330714, 1331253, 1331801, 1332365, 1332970, 1333574, 1334142, 1334753]","[1321373, 1321973, 1322573, 1323173, 1323773, 1324374, 1324973, 1325573, 1326073, 1326675, 1327259, 1327843, 1328416, 1328963, 1329531, 1330096, 1330695, 1331232, 1331786, 1332345, 1332956, 1333559, 1334118, 1334692]",66,EM,L,R,ITMSR,1.1
0,400,trial,0,65,65,65,trial,"['S', 'S', 'S', 'S', 'C', 'C', 'C', 'C', 'C', 'C', 'C', 'C', 'C', 'C', 'C', 'C', 'C', 'C', 'C', 'C']","[1341704, 1342155, 1342565, 1342949, 1343389, 1343778, 1344143, 1344528, 1344943, 1345328, 1345720, 1346083, 1346498, 1346888, 1347254, 1347679, 1348081, 1348449, 1348840, 1349218]","[1341784, 1342220, 1342642, 1343036, 1343447, 1343840, 1344224, 1344616, 1345014, 1345390, 1345787, 1346164, 1346579, 1346982, 1347349, 1347761, 1348148, 1348534, 1348916, 1349318]","[32, 218, 153, 171, 55, 213, 136, 71, 37, 98, 19, 174, 35, 50, 118, 102, 160, 47, 22, 227]","[1341708, 1342159, 1342572, 1342955, 1343396, 1343783, 1344150, 1344535, 1344951, 1345334, 1345730, 1346089, 1346506, 1346895, 1347262, 1347686, 1348087, 1348456, 1348848, 1349226]","[1340199, 1340599, 1340999, 1341400, 1341800, 1342200, 1342600, 1343000, 1343409, 1343798, 1344163, 1344548, 1344963, 1345348, 1345740, 1346103, 1346519, 1346908, 1347274, 1347699, 1348101, 1348469, 1348860, 1349238]",66,EM,L,R,ITMSR,1.1
2,600,trial,0,66,66,66,trial,"['S', 'S', 'S', 'S', 'S', 'S', 'C', 'C', 'C', 'C', 'C', 'C', 'C', 'C', 'C', 'C', 'C', 'C', 'C', 'C', 'C', 'C']","[1355899, 1356479, 1357101, 1357723, 1358274, 1358848, 1359426, 1359996, 1360530, 1361108, 1361661, 1362204, 1362763, 1363288, 1363851, 1364407, 1364956, 1366041, 1366618, 1367150, 1367692, 1368272]","[1355970, 1356567, 1357191, 1357821, 1358395, 1358952, 1359535, 1360152, 1360665, 1361257, 1361832, 1362353, 1362899, 1363431, 1364009, 1364591, 1365116, 1366174, 1366775, 1367313, 1367841, 1368409]","[159, 233, 234, 233, 218, 228, 5, 65, 52, 132, 76, 100, 123, 156, 136, 152, 136, 74, 143, 117, 66, 103]","[1355927, 1356523, 1357143, 1357764, 1358325, 1358899, 1359433, 1360091, 1360578, 1361183, 1361764, 1362283, 1362833, 1363366, 1363945, 1364503, 1365045, 1366086, 1366696, 1367252, 1367784, 1368332]","[1354767, 1355367, 1355967, 1356567, 1357167, 1357767, 1358367, 1358967, 1359447, 1360016, 1360550, 1361128, 1361681, 1362224, 1362783, 1363308, 1363871, 1364427, 1364976, 1366061, 1366638, 1367170, 1367712, 1368292]",66,EM,L,R,ITMSR,1.1
1,400,trial,0,67,67,67,trial,"['S', 'S', 'S', 'S', 'C', 'C', 'C', 'C', 'C', 'C', 'C', 'C', 'C', 'C', 'C', 'C', 'C', 'C', 'C', 'C']","[1375316, 1375745, 1376112, 1376522, 1376913, 1377325, 1377684, 1378088, 1378449, 1378818, 1379219, 1379592, 1379973, 1380357, 1380695, 1381117, 1381488, 1381843, 1382209, 1382597]","[1375414, 1375816, 1376206, 1376606, 1376991, 1377389, 1377797, 1378180, 1378536, 1378904, 1379319, 1379690, 1380067, 1380455, 1380820, 1381199, 1381591, 1381931, 1382311, 1382673]","[233, 117, 85, 89, 106, 242, 43, 34, 252, 65, 80, 195, 85, 77, 35, 78, 88, 55, 230, 8]","[1375322, 1375753, 1376154, 1376550, 1376919, 1377334, 1377757, 1378134, 1378458, 1378826, 1379227, 1379637, 1380013, 1380404, 1380703, 1381125, 1381534, 1381851, 1382266, 1382605]","[1373806, 1374206, 1374606, 1375006, 1375406, 1375806, 1376206, 1376606, 1376933, 1377345, 1377704, 1378108, 1378469, 1378838, 1379239, 1379612, 1379993, 1380377, 1380715, 1381137, 1381508, 1381863, 1382230, 1382617]",66,EM,L,R,ITMSR,1.1
1,600,trial,0,68,68,68,trial,"['S', 'S', 'S', 'S', 'C', 'C', 'C', 'C', 'C', 'C', 'C', 'C', 'C', 'C', 'C', 'C', 'C', 'C', 'C', 'C']","[1390434, 1391084, 1391653, 1392260, 1392844, 1393410, 1393953, 1394499, 1395044, 1395562, 1396122, 1396638, 1397183, 1397740, 1398298, 1398857, 1399359, 1399889, 1400382, 1400964]","[1390520, 1391171, 1391739, 1392349, 1392954, 1393530, 1394038, 1394603, 1395140, 1395678, 1396248, 1396776, 1397331, 1397882, 1398425, 1398955, 1399472, 1400020, 1400496, 1401102]","[239, 246, 204, 240, 189, 188, 145, 218, 176, 208, 215, 162, 210, 192, 220, 183, 96, 82, 65, 148]","[1390440, 1391089, 1391661, 1392266, 1392851, 1393417, 1393960, 1394505, 1395051, 1395567, 1396127, 1396722, 1397188, 1397745, 1398303, 1398863, 1399366, 1399896, 1400450, 1400970]","[1388175, 1388774, 1389374, 1389974, 1390574, 1391174, 1391774, 1392374, 1392864, 1393430, 1393973, 1394520, 1395064, 1395582, 1396142, 1396658, 1397203, 1397761, 1398318, 1398877, 1399379, 1399909, 1400402, 1400984]",66,EM,L,R,ITMSR,1.1
5,400,trial,0,69,69,69,trial,"['S', 'S', 'S', 'S', 'C', 'C', 'C', 'C', 'C', 'C', 'C', 'C', 'C', 'C', 'C', 'C', 'C', 'C', 'C', 'C']","[1408007, 1408423, 1408801, 1409212, 1409609, 1409993, 1410388, 1410774, 1411160, 1411523, 1411928, 1412281, 1412685, 1413054, 1413434, 1413792, 1414191, 1414569, 1414912, 1415268]","[1408084, 1408485, 1408882, 1409309, 1409711, 1410107, 1410503, 1410887, 1411262, 1411628, 1412030, 1412403, 1412797, 1413142, 1413548, 1413883, 1414284, 1414643, 1415011, 1415378]","[158, 180, 105, 37, 131, 116, 101, 123, 135, 84, 21, 70, 99, 150, 113, 110, 150, 26, 97, 108]","[1408035, 1408452, 1408830, 1409252, 1409646, 1410036, 1410434, 1410819, 1411198, 1411568, 1411963, 1412350, 1412725, 1413093, 1413468, 1413835, 1414220, 1414598, 1414950, 1415304]","[1406488, 1406888, 1407288, 1407688, 1408088, 1408488, 1408888, 1409288, 1409629, 1410013, 1410408, 1410794, 1411180, 1411544, 1411948, 1412301, 1412705, 1413074, 1413454, 1413812, 1414211, 1414589, 1414932, 1415288]",66,EM,L,R,ITMSR,1.1
5,600,trial,0,70,70,70,trial,"['S', 'S', 'S', 'S', 'C', 'C', 'C', 'C', 'C', 'C', 'C', 'C', 'C', 'C', 'C', 'C', 'C', 'C', 'C', 'C']","[1423149, 1423785, 1424356, 1425002, 1425635, 1426198, 1426719, 1427286, 1427845, 1428398, 1428935, 1429521, 1430084, 1430620, 1431120, 1431693, 1432224, 1432972, 1433549, 1434062]","[1423222, 1423865, 1424446, 1425097, 1425709, 1426280, 1426803, 1427377, 1427936, 1428496, 1429071, 1429613, 1430225, 1430742, 1431268, 1431828, 1432372, 1433091, 1433672, 1434187]","[228, 3, 191, 50, 39, 255, 200, 156, 183, 150, 157, 206, 184, 187, 220, 224, 190, 176, 172, 173]","[1423154, 1423790, 1424362, 1425006, 1425639, 1426202, 1426725, 1427293, 1427850, 1428404, 1428942, 1429527, 1430091, 1430626, 1431127, 1431699, 1432230, 1433029, 1433593, 1434129]","[1420879, 1421479, 1422080, 1422680, 1423280, 1423880, 1424480, 1425080, 1425655, 1426219, 1426739, 1427306, 1427865, 1428418, 1428955, 1429541, 1430104, 1430640, 1431140, 1431713, 1432244, 1432992, 1433569, 1434082]",66,EM,L,R,ITMSR,1.1
5,600,trial,0,71,71,71,trial,"['S', 'S', 'S', 'S', 'C', 'C', 'C', 'C', 'C', 'C', 'C', 'C', 'C', 'C', 'C', 'C', 'C', 'C', 'C', 'C']","[1442051, 1442706, 1443258, 1443846, 1444429, 1445028, 1445570, 1446106, 1446672, 1447188, 1447743, 1448295, 1448811, 1449325, 1449889, 1450408, 1450943, 1451505, 1452058, 1452607]","[1442134, 1442781, 1443345, 1443951, 1444536, 1445157, 1445708, 1446239, 1446813, 1447355, 1447915, 1448468, 1448985, 1449523, 1450070, 1450582, 1451127, 1451665, 1452229, 1452760]","[238, 127, 140, 139, 180, 210, 212, 151, 207, 165, 167, 210, 215, 213, 116, 108, 166, 46, 170, 134]","[1442087, 1442735, 1443299, 1443888, 1444474, 1445073, 1445621, 1446150, 1446718, 1447256, 1447795, 1448342, 1448869, 1449401, 1449953, 1450452, 1450991, 1451549, 1452107, 1452652]","[1439817, 1440417, 1441017, 1441617, 1442217, 1442818, 1443418, 1444018, 1444449, 1445048, 1445591, 1446126, 1446692, 1447208, 1447763, 1448315, 1448832, 1449346, 1449909, 1450428, 1450963, 1451525, 1452078, 1452627]",66,EM,L,R,ITMSR,1.1
2,400,trial,0,72,72,72,trial,"['S', 'S', 'S', 'S', 'C', 'C', 'C', 'C', 'C', 'C', 'C', 'C', 'C', 'C', 'C', 'C', 'C', 'C', 'C', 'C']","[1459727, 1460111, 1460539, 1460942, 1461362, 1461774, 1462191, 1462575, 1462974, 1463370, 1463790, 1464162, 1464560, 1464939, 1465323, 1465725, 1466126, 1466471, 1466877, 1467253]","[1459803, 1460210, 1460620, 1461036, 1461453, 1461865, 1462276, 1462646, 1463066, 1463468, 1463870, 1464236, 1464650, 1465036, 1465431, 1465818, 1466229, 1466583, 1466974, 1467355]","[211, 132, 50, 112, 72, 31, 56, 63, 223, 144, 104, 62, 110, 117, 74, 237, 50, 155, 17, 71]","[1459732, 1460168, 1460567, 1460978, 1461400, 1461780, 1462224, 1462580, 1462979, 1463408, 1463797, 1464193, 1464566, 1464974, 1465365, 1465758, 1466166, 1466534, 1466911, 1467293]","[1458223, 1458623, 1459023, 1459423, 1459823, 1460224, 1460623, 1461023, 1461382, 1461794, 1462211, 1462595, 1462994, 1463390, 1463810, 1464182, 1464580, 1464960, 1465344, 1465745, 1466146, 1466491, 1466897, 1467273]",66,EM,L,R,ITMSR,1.1
0,400,trial,0,73,73,73,trial,"['S', 'S', 'S', 'S', 'C', 'C', 'C', 'C', 'C', 'C', 'C', 'C', 'C', 'C', 'C', 'C', 'C', 'C', 'C', 'C']","[1474084, 1474472, 1474898, 1475294, 1475700, 1476089, 1476461, 1476872, 1477241, 1477616, 1478035, 1478443, 1478832, 1479241, 1479638, 1480028, 1480409, 1480772, 1481184, 1481568]","[1474158, 1474537, 1474936, 1475345, 1475741, 1476136, 1476534, 1476918, 1477303, 1477710, 1478094, 1478518, 1478918, 1479289, 1479719, 1480086, 1480503, 1480848, 1481264, 1481660]","[250, 219, 11, 33, 30, 248, 7, 35, 78, 252, 189, 8, 27, 188, 202, 164, 180, 65, 151, 197]","[1474104, 1474490, 1474914, 1475310, 1475717, 1476105, 1476478, 1476888, 1477258, 1477633, 1478052, 1478463, 1478852, 1479256, 1479656, 1480045, 1480427, 1480788, 1481205, 1481588]","[1472596, 1472996, 1473396, 1473796, 1474196, 1474596, 1474996, 1475396, 1475720, 1476109, 1476482, 1476892, 1477261, 1477636, 1478055, 1478463, 1478852, 1479261, 1479658, 1480048, 1480429, 1480792, 1481204, 1481588]",66,EM,L,R,ITMSR,1.1
3,600,trial,0,74,74,74,trial,"['S', 'S', 'S', 'S', 'C', 'C', 'C', 'C', 'C', 'C', 'C', 'C', 'C', 'C', 'C', 'C', 'C', 'C', 'C', 'C']","[1489303, 1489908, 1490489, 1491081, 1491634, 1492188, 1492717, 1493300, 1493827, 1494362, 1494885, 1495445, 1496001, 1496556, 1497078, 1497658, 1498208, 1498792, 1499288, 1499837]","[1489387, 1489989, 1490553, 1491144, 1491675, 1492263, 1492783, 1493395, 1493934, 1494490, 1495016, 1495554, 1496105, 1496676, 1497207, 1497761, 1498322, 1498894, 1499415, 1499936]","[214, 34, 46, 35, 248, 3, 31, 46, 55, 47, 60, 246, 250, 29, 42, 55, 75, 43, 83, 52]","[1489318, 1489926, 1490507, 1491097, 1491649, 1492205, 1492734, 1493317, 1493844, 1494379, 1494902, 1495460, 1496015, 1496572, 1497095, 1497674, 1498225, 1498809, 1499305, 1499854]","[1487023, 1487623, 1488223, 1488823, 1489423, 1490023, 1490623, 1491223, 1491654, 1492208, 1492738, 1493320, 1493848, 1494382, 1494905, 1495465, 1496022, 1496577, 1497098, 1497678, 1498228, 1498812, 1499309, 1499857]",66,EM,L,R,ITMSR,1.1
4,600,trial,0,75,75,75,trial,"['S', 'S', 'S', 'S', 'C', 'C', 'C', 'C', 'C', 'C', 'C', 'C', 'C', 'C', 'C', 'C', 'C', 'C', 'C', 'C']","[1507762, 1508346, 1508921, 1509510, 1510073, 1510621, 1511173, 1511714, 1512242, 1512786, 1513338, 1513873, 1514419, 1514943, 1515529, 1516060, 1516633, 1517185, 1517735, 1518307]","[1507823, 1508390, 1508967, 1509553, 1510151, 1510692, 1511234, 1511771, 1512303, 1512834, 1513382, 1513937, 1514480, 1515020, 1515652, 1516182, 1516756, 1517332, 1517849, 1518406]","[144, 156, 119, 88, 83, 205, 174, 98, 189, 182, 135, 122, 197, 127, 117, 182, 220, 61, 6, 233]","[1507768, 1508353, 1508927, 1509517, 1510080, 1510628, 1511182, 1511719, 1512247, 1512792, 1513344, 1513878, 1514423, 1514948, 1515534, 1516065, 1516638, 1517189, 1517740, 1518311]","[1505478, 1506078, 1506678, 1507278, 1507878, 1508478, 1509079, 1509678, 1510093, 1510641, 1511193, 1511734, 1512262, 1512806, 1513358, 1513893, 1514439, 1514963, 1515549, 1516080, 1516653, 1517205, 1517755, 1518327]",66,EM,L,R,ITMSR,1.1
5,400,trial,0,76,76,76,trial,"['S', 'S', 'S', 'S', 'C', 'C', 'C', 'C', 'C', 'C', 'C', 'C', 'C', 'C', 'C', 'C', 'C', 'C', 'C', 'C']","[1525424, 1525870, 1526276, 1526666, 1527071, 1527467, 1527896, 1528270, 1528665, 1529056, 1529445, 1529827, 1530223, 1530612, 1530948, 1531368, 1531747, 1532139, 1532558, 1532954]","[1525495, 1525935, 1526350, 1526731, 1527141, 1527543, 1527958, 1528331, 1528745, 1529132, 1529517, 1529901, 1530313, 1530675, 1531038, 1531438, 1531857, 1532217, 1532604, 1533021]","[186, 197, 216, 181, 24, 252, 54, 38, 22, 4, 253, 1, 41, 247, 208, 192, 2, 237, 207, 142]","[1525429, 1525875, 1526281, 1526672, 1527075, 1527472, 1527900, 1528274, 1528670, 1529060, 1529451, 1529832, 1530227, 1530616, 1530953, 1531374, 1531751, 1532143, 1532566, 1532960]","[1523957, 1524357, 1524757, 1525157, 1525557, 1525957, 1526358, 1526757, 1527091, 1527487, 1527916, 1528290, 1528685, 1529076, 1529465, 1529847, 1530243, 1530632, 1530968, 1531388, 1531767, 1532160, 1532578, 1532974]",66,EM,L,R,ITMSR,1.1
3,400,trial,0,77,77,77,trial,"['S', 'S', 'S', 'S', 'C', 'C', 'C', 'C', 'C', 'C', 'C', 'C', 'C', 'C', 'C', 'C', 'C', 'C', 'C', 'C']","[1539821, 1540244, 1540668, 1541075, 1541472, 1541849, 1542230, 1542640, 1543022, 1543395, 1543782, 1544156, 1544519, 1544889, 1545280, 1545647, 1546049, 1546430, 1546819, 1547167]","[1539900, 1540313, 1540745, 1541150, 1541556, 1541934, 1542332, 1542733, 1543123, 1543510, 1543875, 1544229, 1544637, 1545001, 1545382, 1545746, 1546159, 1546522, 1546906, 1547276]","[214, 217, 78, 88, 147, 87, 56, 116, 194, 147, 177, 64, 237, 110, 171, 147, 237, 191, 12, 224]","[1539862, 1540249, 1540699, 1541083, 1541479, 1541856, 1542278, 1542646, 1543028, 1543400, 1543787, 1544163, 1544525, 1544943, 1545285, 1545653, 1546054, 1546435, 1546824, 1547171]","[1538361, 1538761, 1539161, 1539561, 1539961, 1540361, 1540761, 1541161, 1541492, 1541869, 1542250, 1542660, 1543042, 1543415, 1543802, 1544176, 1544539, 1544909, 1545300, 1545667, 1546070, 1546450, 1546840, 1547187]",66,EM,L,R,ITMSR,1.1
3,600,trial,0,78,78,78,trial,"['S', 'S', 'S', 'S', 'C', 'C', 'C', 'C', 'C', 'C', 'C', 'C', 'C', 'C', 'C', 'C', 'C', 'C', 'C', 'C']","[1558496, 1559099, 1559728, 1560293, 1560890, 1561459, 1561981, 1562484, 1563048, 1563576, 1564109, 1564641, 1565103, 1565586, 1566131, 1566668, 1567180, 1567660, 1568167, 1568701]","[1558567, 1559163, 1559805, 1560359, 1560952, 1561529, 1562055, 1562575, 1563142, 1563679, 1564184, 1564720, 1565208, 1565699, 1566218, 1566772, 1567276, 1567769, 1568271, 1568816]","[78, 46, 98, 68, 216, 184, 252, 248, 62, 116, 70, 90, 198, 146, 75, 64, 60, 137, 87, 111]","[1558535, 1559104, 1559734, 1560299, 1560896, 1561496, 1561989, 1562529, 1563055, 1563583, 1564113, 1564645, 1565108, 1565591, 1566137, 1566718, 1567185, 1567716, 1568175, 1568763]","[1556248, 1556848, 1557448, 1558048, 1558648, 1559248, 1559848, 1560449, 1560910, 1561479, 1562001, 1562504, 1563068, 1563596, 1564129, 1564661, 1565123, 1565606, 1566151, 1566688, 1567200, 1567680, 1568187, 1568721]",66,EM,L,R,ITMSR,1.1
1,400,trial,0,79,79,79,trial,"['S', 'S', 'S', 'S', 'C', 'C', 'C', 'C', 'C', 'C', 'C', 'C', 'C', 'C', 'C', 'C', 'C', 'C', 'C', 'C']","[1575867, 1576278, 1576711, 1577098, 1577530, 1577918, 1578335, 1578726, 1579144, 1579548, 1579958, 1580325, 1580741, 1581093, 1581510, 1581901, 1582311, 1582663, 1583063, 1583466]","[1575946, 1576363, 1576786, 1577180, 1577616, 1577995, 1578402, 1578793, 1579235, 1579621, 1580010, 1580406, 1580806, 1581153, 1581584, 1581993, 1582394, 1582747, 1583159, 1583548]","[150, 145, 195, 249, 248, 211, 149, 206, 200, 9, 96, 191, 205, 86, 155, 234, 110, 207, 47, 254]","[1575873, 1576320, 1576718, 1577140, 1577539, 1577926, 1578344, 1578735, 1579182, 1579580, 1579967, 1580335, 1580776, 1581103, 1581550, 1581908, 1582349, 1582670, 1583120, 1583472]","[1574371, 1574771, 1575171, 1575571, 1575971, 1576371, 1576771, 1577171, 1577550, 1577938, 1578355, 1578746, 1579164, 1579568, 1579978, 1580345, 1580761, 1581113, 1581530, 1581921, 1582331, 1582683, 1583083, 1583486]",66,EM,L,R,ITMSR,1.1
4,600,trial,0,80,80,80,trial,"['S', 'S', 'S', 'S', 'C', 'C', 'C', 'C', 'C', 'C', 'C', 'C', 'C', 'C', 'C', 'C', 'C', 'C', 'C', 'C']","[1591157, 1591806, 1592435, 1593011, 1593562, 1594102, 1594617, 1595192, 1595781, 1596366, 1596881, 1597431, 1597939, 1598430, 1598927, 1599414, 1599951, 1600482, 1600992, 1601477]","[1591246, 1591903, 1592541, 1593111, 1593659, 1594204, 1594724, 1595294, 1595874, 1596488, 1596994, 1597568, 1598047, 1598553, 1599044, 1599565, 1600070, 1600602, 1601105, 1601594]","[153, 153, 116, 144, 142, 110, 121, 107, 126, 23, 14, 84, 233, 3, 246, 83, 32, 71, 23, 127]","[1591163, 1591813, 1592441, 1593016, 1593568, 1594109, 1594624, 1595198, 1595786, 1596374, 1596889, 1597492, 1597997, 1598498, 1598989, 1599511, 1600014, 1600489, 1601045, 1601484]","[1588917, 1589517, 1590117, 1590717, 1591317, 1591917, 1592517, 1593117, 1593582, 1594122, 1594637, 1595212, 1595801, 1596386, 1596901, 1597451, 1597959, 1598450, 1598947, 1599434, 1599971, 1600502, 1601012, 1601497]",66,EM,L,R,ITMSR,1.1
4,600,trial,0,81,81,81,trial,"['S', 'S', 'S', 'S', 'C', 'C', 'C', 'C', 'C', 'C', 'C', 'C', 'C', 'C', 'C', 'C', 'C', 'C', 'C', 'C']","[1609315, 1609957, 1610554, 1611129, 1611708, 1612289, 1612824, 1613417, 1613967, 1614547, 1615064, 1615592, 1616091, 1616633, 1617154, 1617689, 1618227, 1618763, 1619310, 1619853]","[1609393, 1610030, 1610607, 1611206, 1611831, 1612408, 1612938, 1613480, 1614060, 1614614, 1615145, 1615640, 1616174, 1616735, 1617250, 1617780, 1618287, 1618861, 1619425, 1619968]","[6, 4, 202, 239, 214, 250, 220, 93, 160, 220, 130, 197, 168, 179, 152, 29, 163, 196, 211, 175]","[1609339, 1609972, 1610576, 1611146, 1611736, 1612314, 1612841, 1613435, 1613987, 1614569, 1615084, 1615607, 1616108, 1616653, 1617175, 1617711, 1618247, 1618785, 1619326, 1619873]","[1607088, 1607688, 1608288, 1608888, 1609488, 1610088, 1610688, 1611288, 1611728, 1612309, 1612845, 1613437, 1613987, 1614567, 1615084, 1615612, 1616111, 1616653, 1617174, 1617709, 1618247, 1618783, 1619330, 1619873]",66,EM,L,R,ITMSR,1.1
2,400,trial,0,82,82,82,trial,"['S', 'S', 'S', 'S', 'C', 'C', 'C', 'C', 'C', 'C', 'C', 'C', 'C', 'C', 'C', 'C', 'C', 'C', 'C', 'C']","[1627114, 1627532, 1627913, 1628325, 1628763, 1629138, 1629511, 1629923, 1630277, 1630654, 1631039, 1631412, 1631794, 1632153, 1632575, 1632969, 1633336, 1633711, 1634062, 1634466]","[1627185, 1627590, 1627972, 1628390, 1628803, 1629175, 1629575, 1629967, 1630373, 1630692, 1631091, 1631476, 1631880, 1632225, 1632634, 1633036, 1633427, 1633759, 1634114, 1634511]","[211, 216, 219, 133, 225, 165, 213, 210, 205, 113, 122, 220, 188, 179, 202, 222, 12, 89, 67, 161]","[1627139, 1627550, 1627930, 1628343, 1628779, 1629151, 1629531, 1629941, 1630297, 1630669, 1631056, 1631432, 1631814, 1632173, 1632599, 1632989, 1633356, 1633729, 1634079, 1634486]","[1625631, 1626031, 1626431, 1626831, 1627231, 1627631, 1628032, 1628431, 1628783, 1629158, 1629531, 1629943, 1630297, 1630674, 1631059, 1631432, 1631814, 1632173, 1632595, 1632989, 1633356, 1633731, 1634082, 1634486]",66,EM,L,R,ITMSR,1.1
5,400,trial,0,83,83,83,trial,"['S', 'S', 'S', 'S', 'C', 'C', 'C', 'C', 'C', 'C', 'C', 'C', 'C', 'C', 'C', 'C', 'C', 'C', 'C', 'C']","[1641668, 1642085, 1642470, 1642888, 1643281, 1643700, 1644050, 1644430, 1644831, 1645197, 1645582, 1645943, 1646341, 1646705, 1647082, 1647452, 1647835, 1648193, 1648602, 1648975]","[1641742, 1642139, 1642541, 1642942, 1643348, 1643760, 1644113, 1644502, 1644881, 1645270, 1645657, 1646025, 1646391, 1646764, 1647155, 1647543, 1647933, 1648293, 1648690, 1649088]","[39, 225, 61, 7, 42, 252, 201, 221, 249, 243, 236, 18, 234, 229, 204, 119, 220, 188, 133, 220]","[1641686, 1642103, 1642488, 1642907, 1643301, 1643720, 1644070, 1644450, 1644851, 1645218, 1645602, 1645965, 1646357, 1646720, 1647102, 1647472, 1647860, 1648214, 1648622, 1648997]","[1640204, 1640604, 1641005, 1641405, 1641805, 1642205, 1642605, 1643005, 1643301, 1643720, 1644070, 1644450, 1644851, 1645217, 1645602, 1645963, 1646361, 1646725, 1647102, 1647472, 1647855, 1648214, 1648622, 1648995]",66,EM,L,R,ITMSR,1.1
5,400,trial,0,84,84,84,trial,"['S', 'S', 'S', 'S', 'C', 'C', 'C', 'C', 'C', 'C', 'C', 'C', 'C', 'C', 'C', 'C', 'C', 'C', 'C', 'C']","[1656255, 1656672, 1657039, 1657457, 1657880, 1658259, 1658656, 1659052, 1659439, 1659824, 1660183, 1660592, 1660973, 1661358, 1661701, 1662107, 1662496, 1662878, 1663260, 1663653]","[1656322, 1656720, 1657110, 1657525, 1657961, 1658338, 1658720, 1659102, 1659530, 1659918, 1660272, 1660680, 1661087, 1661432, 1661786, 1662181, 1662587, 1662962, 1663351, 1663735]","[81, 70, 137, 132, 128, 92, 48, 248, 70, 249, 233, 193, 63, 214, 14, 207, 228, 50, 180, 142]","[1656261, 1656677, 1657044, 1657462, 1657885, 1658296, 1658664, 1659059, 1659475, 1659871, 1660190, 1660632, 1660979, 1661395, 1661706, 1662112, 1662503, 1662884, 1663292, 1663660]","[1654736, 1655136, 1655536, 1655937, 1656336, 1656736, 1657136, 1657536, 1657901, 1658279, 1658676, 1659072, 1659459, 1659844, 1660204, 1660612, 1660993, 1661378, 1661721, 1662127, 1662516, 1662898, 1663280, 1663673]",66,EM,L,R,ITMSR,1.1
5,600,trial,0,85,85,85,trial,"['S', 'S', 'S', 'S', 'C', 'C', 'C', 'C', 'C', 'C', 'C', 'C', 'C', 'C', 'C', 'C', 'C', 'C', 'C', 'C']","[1671733, 1672373, 1672968, 1673516, 1674084, 1674678, 1675278, 1675799, 1676344, 1676906, 1677437, 1677978, 1678553, 1679138, 1679680, 1680210, 1680726, 1681294, 1681807, 1682327]","[1671812, 1672441, 1673036, 1673614, 1674186, 1674772, 1675373, 1675919, 1676446, 1677011, 1677522, 1678066, 1678631, 1679230, 1679761, 1680315, 1680809, 1681436, 1681921, 1682434]","[208, 212, 102, 66, 109, 228, 190, 224, 220, 148, 151, 213, 173, 188, 193, 26, 65, 176, 120, 249]","[1671737, 1672377, 1672975, 1673551, 1674090, 1674683, 1675284, 1675804, 1676350, 1676911, 1677443, 1677983, 1678558, 1679142, 1679685, 1680256, 1680731, 1681303, 1681855, 1682333]","[1669464, 1670064, 1670664, 1671264, 1671864, 1672464, 1673064, 1673664, 1674104, 1674698, 1675298, 1675820, 1676364, 1676926, 1677457, 1677998, 1678573, 1679158, 1679700, 1680230, 1680746, 1681314, 1681827, 1682348]",66,EM,L,R,ITMSR,1.1
2,600,trial,0,86,86,86,trial,"['S', 'S', 'S', 'S', 'C', 'C', 'C', 'C', 'C', 'C', 'C', 'C', 'C', 'C', 'C', 'C', 'C', 'C', 'C', 'C']","[1690248, 1690849, 1691448, 1692068, 1692639, 1693241, 1693792, 1694319, 1694855, 1695376, 1695869, 1696375, 1696909, 1697408, 1697925, 1698412, 1698963, 1699444, 1699957, 1700441]","[1690310, 1690926, 1691532, 1692165, 1692738, 1693330, 1693912, 1694442, 1694950, 1695460, 1695954, 1696471, 1697003, 1697496, 1698010, 1698495, 1699057, 1699542, 1700033, 1700560]","[9, 22, 20, 217, 9, 26, 255, 46, 253, 227, 244, 251, 201, 10, 198, 172, 153, 184, 161, 240]","[1690273, 1690870, 1691469, 1692091, 1692662, 1693263, 1693815, 1694341, 1694860, 1695383, 1695875, 1696395, 1696916, 1697412, 1697931, 1698429, 1698981, 1699466, 1699964, 1700463]","[1687990, 1688590, 1689190, 1689790, 1690390, 1690990, 1691590, 1692190, 1692659, 1693261, 1693812, 1694339, 1694875, 1695396, 1695889, 1696395, 1696929, 1697428, 1697945, 1698433, 1698983, 1699464, 1699977, 1700461]",66,EM,L,R,ITMSR,1.1
0,600,trial,0,87,87,87,trial,"['S', 'S', 'S', 'S', 'C', 'C', 'C', 'C', 'C', 'C', 'C', 'C', 'C', 'C', 'C', 'C', 'C', 'C', 'C', 'C']","[1708309, 1708936, 1709520, 1710093, 1710692, 1711239, 1711788, 1712305, 1712840, 1713383, 1713912, 1714464, 1715005, 1715534, 1716084, 1716622, 1717178, 1717721, 1718253, 1718790]","[1708403, 1709018, 1709603, 1710192, 1710765, 1711335, 1711886, 1712389, 1712931, 1713478, 1714003, 1714567, 1715105, 1715654, 1716200, 1716738, 1717278, 1717831, 1718379, 1718923]","[240, 19, 128, 217, 190, 164, 48, 188, 238, 186, 130, 156, 154, 215, 4, 197, 240, 175, 121, 138]","[1708356, 1708977, 1709524, 1710099, 1710725, 1711244, 1711840, 1712310, 1712844, 1713387, 1713918, 1714470, 1715010, 1715538, 1716088, 1716627, 1717182, 1717726, 1718258, 1718842]","[1706089, 1706689, 1707289, 1707889, 1708489, 1709089, 1709689, 1710289, 1710712, 1711259, 1711808, 1712325, 1712860, 1713403, 1713932, 1714484, 1715025, 1715554, 1716104, 1716642, 1717198, 1717741, 1718274, 1718810]",66,EM,L,R,ITMSR,1.1
1,400,trial,0,88,88,88,trial,"['S', 'S', 'S', 'S', 'C', 'C', 'C', 'C', 'C', 'C', 'C', 'C', 'C', 'C', 'C', 'C', 'C', 'C', 'C', 'C']","[1725813, 1726229, 1726644, 1727032, 1727406, 1727832, 1728218, 1728618, 1729010, 1729428, 1729818, 1730219, 1730580, 1730998, 1731412, 1731801, 1732227, 1732604, 1733045, 1733432]","[1725900, 1726322, 1726744, 1727126, 1727532, 1727939, 1728335, 1728751, 1729140, 1729557, 1729943, 1730324, 1730683, 1731129, 1731551, 1731944, 1732332, 1732745, 1733168, 1733581]","[16, 208, 118, 40, 35, 29, 186, 27, 47, 217, 238, 140, 205, 209, 242, 231, 46, 150, 211, 123]","[1725852, 1726236, 1726701, 1727038, 1727413, 1727881, 1728281, 1728686, 1729055, 1729434, 1729881, 1730267, 1730586, 1731004, 1731470, 1731862, 1732280, 1732686, 1733110, 1733524]","[1724281, 1724681, 1725081, 1725481, 1725881, 1726281, 1726681, 1727081, 1727426, 1727852, 1728238, 1728638, 1729030, 1729448, 1729838, 1730239, 1730600, 1731018, 1731432, 1731821, 1732247, 1732624, 1733065, 1733452]",66,EM,L,R,ITMSR,1.1
1,600,trial,0,89,89,89,trial,"['S', 'S', 'S', 'S', 'S', 'S', 'C', 'C', 'C', 'C', 'C', 'C', 'C', 'C', 'C', 'C', 'C', 'C', 'C', 'C', 'C', 'C']","[1740230, 1740820, 1741393, 1741976, 1742602, 1743235, 1743837, 1744440, 1744973, 1745549, 1746160, 1746786, 1747333, 1747907, 1748404, 1748938, 1749411, 1749991, 1750535, 1751046, 1751533, 1752066]","[1740339, 1740918, 1741506, 1742095, 1742709, 1743361, 1743966, 1744578, 1745121, 1745695, 1746327, 1746888, 1747511, 1748064, 1748515, 1749074, 1749530, 1750122, 1750665, 1751187, 1751671, 1752229]","[69, 135, 169, 210, 236, 36, 83, 205, 200, 123, 219, 238, 114, 32, 233, 242, 194, 81, 164, 250, 3, 16]","[1740285, 1740871, 1741453, 1742045, 1742651, 1743281, 1743870, 1744508, 1745044, 1745606, 1746166, 1746837, 1747422, 1747991, 1748456, 1749002, 1749476, 1750051, 1750586, 1751110, 1751601, 1752134]","[1739125, 1739724, 1740324, 1740924, 1741524, 1742125, 1742725, 1743325, 1743857, 1744460, 1744993, 1745569, 1746180, 1746806, 1747353, 1747928, 1748424, 1748958, 1749431, 1750011, 1750555, 1751066, 1751554, 1752086]",66,EM,L,R,ITMSR,1.1
2,600,trial,0,90,90,90,trial,"['S', 'S', 'S', 'S', 'C', 'C', 'C', 'C', 'C', 'C', 'C', 'C', 'C', 'C', 'C', 'C', 'C', 'C', 'C', 'C']","[1759943, 1760538, 1761138, 1761683, 1762275, 1762820, 1763363, 1763915, 1764432, 1764929, 1765508, 1766033, 1766614, 1767156, 1767661, 1768218, 1768755, 1769274, 1769844, 1770381]","[1760000, 1760600, 1761213, 1761767, 1762354, 1762904, 1763443, 1763978, 1764497, 1765015, 1765583, 1766121, 1766676, 1767255, 1767754, 1768292, 1768854, 1769396, 1769946, 1770474]","[59, 246, 17, 0, 238, 228, 21, 213, 213, 251, 245, 134, 146, 252, 119, 51, 157, 143, 127, 135]","[1759946, 1760542, 1761143, 1761687, 1762279, 1762825, 1763368, 1763919, 1764435, 1764932, 1765512, 1766037, 1766620, 1767200, 1767666, 1768223, 1768760, 1769279, 1769849, 1770386]","[1757676, 1758276, 1758876, 1759476, 1760076, 1760676, 1761276, 1761876, 1762295, 1762840, 1763383, 1763935, 1764452, 1764950, 1765528, 1766053, 1766634, 1767176, 1767682, 1768238, 1768775, 1769294, 1769864, 1770401]",66,EM,L,R,ITMSR,1.1
2,400,trial,0,91,91,91,trial,"['S', 'S', 'S', 'S', 'C', 'C', 'C', 'C', 'C', 'C', 'C', 'C', 'C', 'C', 'C', 'C', 'C', 'C', 'C', 'C']","[1777230, 1777624, 1778013, 1778428, 1778797, 1779191, 1779569, 1779966, 1780358, 1780739, 1781092, 1781466, 1781836, 1782222, 1782591, 1782972, 1783330, 1783735, 1784136, 1784525]","[1777284, 1777684, 1778068, 1778479, 1778865, 1779248, 1779647, 1780026, 1780436, 1780820, 1781178, 1781552, 1781928, 1782310, 1782647, 1783035, 1783413, 1783811, 1784207, 1784589]","[50, 221, 95, 133, 78, 85, 86, 54, 131, 206, 199, 100, 232, 214, 144, 190, 198, 203, 120, 149]","[1777234, 1777628, 1778019, 1778436, 1778803, 1779198, 1779576, 1779973, 1780364, 1780748, 1781098, 1781473, 1781841, 1782228, 1782597, 1782978, 1783335, 1783740, 1784143, 1784531]","[1775740, 1776140, 1776540, 1776941, 1777341, 1777741, 1778141, 1778541, 1778818, 1779211, 1779589, 1779986, 1780378, 1780759, 1781112, 1781486, 1781856, 1782242, 1782611, 1782992, 1783350, 1783755, 1784156, 1784545]",66,EM,L,R,ITMSR,1.1
4,400,trial,0,92,92,92,trial,"['S', 'S', 'S', 'S', 'C', 'C', 'C', 'C', 'C', 'C', 'C', 'C', 'C', 'C', 'C', 'C', 'C', 'C', 'C', 'C']","[1791779, 1792215, 1792591, 1792983, 1793441, 1793844, 1794226, 1794596, 1794967, 1795367, 1795752, 1796117, 1796495, 1796899, 1797266, 1797658, 1798043, 1798429, 1798827, 1799214]","[1791845, 1792272, 1792667, 1793075, 1793515, 1793918, 1794308, 1794673, 1795042, 1795437, 1795835, 1796186, 1796573, 1796964, 1797355, 1797754, 1798142, 1798535, 1798920, 1799305]","[55, 147, 200, 145, 194, 234, 117, 218, 166, 16, 211, 40, 193, 195, 155, 244, 210, 148, 159, 183]","[1791783, 1792221, 1792598, 1792989, 1793446, 1793850, 1794232, 1794601, 1794973, 1795374, 1795758, 1796124, 1796500, 1796904, 1797271, 1797663, 1798048, 1798435, 1798832, 1799219]","[1790309, 1790709, 1791109, 1791509, 1791909, 1792309, 1792709, 1793110, 1793461, 1793864, 1794246, 1794616, 1794988, 1795387, 1795772, 1796137, 1796515, 1796919, 1797286, 1797678, 1798063, 1798449, 1798847, 1799234]",66,EM,L,R,ITMSR,1.1
1,600,trial,0,93,93,93,trial,"['S', 'S', 'S', 'S', 'C', 'C', 'C', 'C', 'C', 'C', 'C', 'C', 'C', 'C', 'C', 'C', 'C', 'C', 'C', 'C']","[1807131, 1807704, 1808290, 1808883, 1809495, 1810074, 1810591, 1811118, 1811661, 1812224, 1812728, 1813222, 1813765, 1814291, 1814784, 1815704, 1816201, 1816739, 1817226, 1817752]","[1807204, 1807765, 1808353, 1808973, 1809583, 1810164, 1810683, 1811213, 1811775, 1812326, 1812850, 1813322, 1813895, 1814425, 1815526, 1815870, 1816307, 1816818, 1817334, 1817844]","[57, 249, 228, 208, 180, 154, 89, 42, 127, 142, 105, 33, 44, 78, 173, 67, 227, 86, 165, 111]","[1807152, 1807711, 1808299, 1808907, 1809520, 1810097, 1810616, 1811144, 1811685, 1812256, 1812754, 1813243, 1813790, 1814322, 1815384, 1815809, 1816228, 1816763, 1817251, 1817760]","[1804847, 1805447, 1806047, 1806647, 1807247, 1807847, 1808447, 1809047, 1809515, 1810094, 1810611, 1811138, 1811681, 1812244, 1812748, 1813242, 1813785, 1814311, 1814804, 1815725, 1816221, 1816759, 1817246, 1817773]",66,EM,L,R,ITMSR,1.1
0,600,trial,0,94,94,94,trial,"['S', 'S', 'S', 'S', 'C', 'C', 'C', 'C', 'C', 'C', 'C', 'C', 'C', 'C', 'C', 'C', 'C', 'C', 'C', 'C']","[1825545, 1826154, 1826774, 1827372, 1827981, 1828544, 1829084, 1829655, 1830210, 1830758, 1831271, 1831832, 1832386, 1832963, 1833497, 1834031, 1834563, 1835140, 1835669, 1836243]","[1825627, 1826236, 1826836, 1827447, 1828065, 1828635, 1829177, 1829761, 1830313, 1830875, 1831384, 1831977, 1832517, 1833084, 1833631, 1834152, 1834698, 1835259, 1835769, 1836368]","[65, 85, 61, 6, 18, 12, 42, 68, 73, 50, 246, 82, 22, 62, 49, 255, 54, 214, 142, 44]","[1825562, 1826170, 1826788, 1827391, 1827995, 1828561, 1829100, 1829671, 1830226, 1830774, 1831287, 1831848, 1832400, 1832980, 1833517, 1834094, 1834577, 1835201, 1835683, 1836263]","[1823321, 1823921, 1824521, 1825121, 1825721, 1826321, 1826921, 1827521, 1828001, 1828564, 1829104, 1829676, 1830231, 1830778, 1831291, 1831853, 1832407, 1832983, 1833517, 1834051, 1834584, 1835160, 1835689, 1836263]",66,EM,L,R,ITMSR,1.1
0,400,trial,0,95,95,95,trial,"['S', 'S', 'S', 'S', 'C', 'C', 'C', 'C', 'C', 'C', 'C', 'C', 'C', 'C', 'C', 'C', 'C', 'C', 'C', 'C']","[1843162, 1843560, 1843966, 1844362, 1844797, 1845188, 1845579, 1845983, 1846378, 1846773, 1847153, 1847556, 1847941, 1848323, 1848736, 1849123, 1849530, 1849926, 1850287, 1850704]","[1843220, 1843628, 1844021, 1844421, 1844860, 1845267, 1845663, 1846068, 1846480, 1846858, 1847240, 1847647, 1848005, 1848371, 1848785, 1849213, 1849580, 1849964, 1850328, 1850779]","[99, 76, 38, 76, 78, 70, 57, 33, 79, 58, 52, 10, 69, 14, 16, 190, 254, 197, 5, 220]","[1843179, 1843576, 1843983, 1844377, 1844814, 1845204, 1845596, 1846003, 1846394, 1846790, 1847173, 1847572, 1847955, 1848335, 1848752, 1849139, 1849543, 1849942, 1850301, 1850721]","[1841658, 1842057, 1842457, 1842857, 1843257, 1843657, 1844057, 1844457, 1844817, 1845208, 1845599, 1846003, 1846398, 1846793, 1847173, 1847576, 1847961, 1848343, 1848756, 1849143, 1849550, 1849946, 1850307, 1850724]",66,EM,L,R,ITMSR,1.1
3,400,trial,0,96,96,96,trial,"['S', 'S', 'S', 'S', 'C', 'C', 'C', 'C', 'C', 'C', 'C', 'C', 'C', 'C', 'C', 'C', 'C', 'C', 'C', 'C']","[1857918, 1858338, 1858723, 1859171, 1859542, 1859938, 1860307, 1860715, 1861099, 1861488, 1861862, 1862252, 1862654, 1863072, 1863468, 1863864, 1864231, 1864632, 1865023, 1865403]","[1857980, 1858386, 1858767, 1859216, 1859609, 1860005, 1860380, 1860771, 1861174, 1861580, 1861950, 1862333, 1862722, 1863115, 1863531, 1863943, 1864306, 1864717, 1865111, 1865478]","[84, 83, 56, 62, 66, 80, 68, 92, 93, 90, 81, 46, 47, 254, 0, 53, 243, 38, 36, 72]","[1857931, 1858355, 1858739, 1859186, 1859559, 1859947, 1860323, 1860731, 1861115, 1861505, 1861877, 1862273, 1862674, 1863079, 1863483, 1863871, 1864238, 1864637, 1865037, 1865409]","[1856428, 1856827, 1857227, 1857627, 1858027, 1858427, 1858827, 1859227, 1859562, 1859958, 1860327, 1860736, 1861120, 1861508, 1861882, 1862273, 1862674, 1863092, 1863488, 1863884, 1864251, 1864652, 1865043, 1865423]",66,EM,L,R,ITMSR,1.1
3,400,trial,0,97,97,97,trial,"['S', 'S', 'S', 'S', 'C', 'C', 'C', 'C', 'C', 'C', 'C', 'C', 'C', 'C', 'C', 'C', 'C', 'C', 'C', 'C']","[1872646, 1873115, 1873557, 1873984, 1874394, 1874759, 1875152, 1875558, 1875933, 1876340, 1876719, 1877081, 1877518, 1877915, 1878282, 1878701, 1879044, 1879411, 1879867, 1880261]","[1872754, 1873206, 1873637, 1874051, 1874451, 1874844, 1875232, 1875618, 1876014, 1876415, 1876818, 1877189, 1877609, 1877974, 1878366, 1878777, 1879140, 1879530, 1879914, 1880311]","[89, 172, 181, 218, 241, 226, 10, 14, 136, 205, 196, 186, 180, 179, 162, 39, 223, 3, 194, 51]","[1872683, 1873134, 1873572, 1874001, 1874410, 1874776, 1875169, 1875578, 1875953, 1876357, 1876740, 1877105, 1877535, 1877935, 1878296, 1878721, 1879066, 1879433, 1879883, 1880278]","[1871184, 1871584, 1871984, 1872385, 1872784, 1873184, 1873584, 1873984, 1874414, 1874779, 1875172, 1875578, 1875953, 1876360, 1876739, 1877101, 1877538, 1877935, 1878302, 1878721, 1879064, 1879431, 1879887, 1880281]",66,EM,L,R,ITMSR,1.1
0,400,trial,0,98,98,98,trial,"['S', 'S', 'S', 'S', 'C', 'C', 'C', 'C', 'C', 'C', 'C', 'C', 'C', 'C', 'C', 'C', 'C', 'C', 'C', 'C']","[1887282, 1887694, 1888070, 1888465, 1888852, 1889244, 1889633, 1890011, 1890380, 1890800, 1891196, 1891573, 1891935, 1892320, 1892709, 1893053, 1893475, 1893848, 1894202, 1894596]","[1887338, 1887749, 1888117, 1888519, 1888912, 1889323, 1889704, 1890084, 1890467, 1890876, 1891290, 1891653, 1892012, 1892417, 1892788, 1893153, 1893572, 1893940, 1894299, 1894688]","[69, 37, 56, 64, 32, 43, 21, 239, 30, 240, 181, 173, 248, 249, 183, 233, 248, 229, 204, 225]","[1887287, 1887717, 1888075, 1888471, 1888859, 1889271, 1889637, 1890017, 1890413, 1890829, 1891228, 1891602, 1891960, 1892353, 1892715, 1893081, 1893509, 1893875, 1894241, 1894623]","[1885709, 1886108, 1886509, 1886909, 1887309, 1887709, 1888109, 1888509, 1888872, 1889264, 1889653, 1890031, 1890400, 1890820, 1891216, 1891593, 1891955, 1892340, 1892729, 1893073, 1893495, 1893868, 1894222, 1894616]",66,EM,L,R,ITMSR,1.1
