pitch,ioi,event,.thisRepN,.thisTrialN,.thisN,.thisIndex,event,tap_types,tap_times,release_times,peak_pressures,peak_times,tone_times,subject,experimenter,register,handedness,experiment,version
,,SPR,0,-1,-1,0,SPR,"['P', 'P', 'P', 'P', 'P', 'P', 'P', 'P', 'P', 'P', 'P', 'P', 'P', 'P', 'P', 'P', 'P', 'P', 'P', 'P', 'P', 'P', 'P', 'P', 'P', 'P', 'P', 'P', 'P', 'P']","[42970, 43500, 44035, 44548, 45093, 45605, 46118, 46630, 47161, 47709, 48211, 48799, 49272, 49801, 50311, 50844, 51355, 51872, 52421, 52894, 53403, 53989, 54486, 55047, 55562, 56097, 56647, 57145, 57660, 58214]","[43199, 43704, 44233, 44776, 45296, 45799, 46325, 46827, 47326, 47866, 48358, 48918, 49471, 49963, 50465, 50999, 51530, 52029, 52618, 53147, 53585, 54193, 54711, 55229, 55789, 56275, 56823, 57356, 57888, 58351]","[160, 104, 100, 116, 81, 90, 98, 73, 62, 106, 127, 120, 77, 97, 101, 75, 102, 117, 93, 119, 25, 117, 67, 95, 98, 88, 90, 92, 57, 93]","[43085, 43608, 44124, 44651, 45199, 45686, 46228, 46635, 47165, 47712, 48215, 48803, 49276, 49875, 50315, 50848, 51359, 51875, 52425, 52898, 53482, 53993, 54614, 55150, 55566, 56177, 56651, 57149, 57664, 58218]",,75,SB,U,R,ITMSR,1.1
5,500,practice,0,0,0,0,practice,"['S', 'S', 'S', 'S', 'S', 'S', 'S', 'C', 'C', 'C', 'C', 'C', 'C', 'C', 'C', 'C', 'C', 'C', 'C', 'C', 'C', 'C', 'C']","[116849, 117394, 117952, 118462, 118960, 119447, 119944, 120440, 120934, 121397, 121927, 122377, 122872, 123352, 123865, 124348, 124831, 125263, 125797, 126284, 126745, 127265, 127766]","[117030, 117609, 118119, 118623, 119083, 119577, 120071, 120566, 121013, 121517, 122035, 122511, 122986, 123475, 123969, 124453, 124931, 125388, 125888, 126360, 126855, 127375, 127854]","[79, 138, 98, 94, 80, 75, 81, 77, 27, 51, 32, 16, 6, 14, 8, 5, 236, 205, 209, 178, 150, 151, 145]","[116944, 117484, 118035, 118553, 118965, 119518, 119948, 120509, 120939, 121402, 121931, 122451, 122877, 123420, 123869, 124395, 124876, 125332, 125841, 126289, 126818, 127324, 127808]","[116511, 117010, 117510, 118010, 118510, 119010, 119511, 120010, 120460, 120954, 121417, 121947, 122397, 122892, 123372, 123885, 124368, 124851, 125283, 125817, 126304, 126765, 127285, 127787]",75,SB,U,R,ITMSR,1.1
0,500,practice,0,1,1,1,practice,"['S', 'S', 'S', 'S', 'S', 'S', 'S', 'C', 'C', 'C', 'C', 'C', 'C', 'C', 'C', 'C', 'C', 'C', 'C', 'C', 'C', 'C', 'C']","[133573, 134130, 134664, 135204, 135727, 136217, 136708, 137212, 137714, 138209, 138708, 139173, 139692, 140194, 140692, 141220, 141718, 142217, 142745, 143222, 143722, 144236, 144737]","[133704, 134275, 134792, 135325, 135825, 136320, 136810, 137321, 137806, 138319, 138813, 139269, 139803, 140303, 140823, 141339, 141833, 142336, 142846, 143342, 143841, 144338, 144829]","[202, 218, 240, 216, 198, 11, 239, 213, 105, 218, 204, 168, 173, 198, 128, 225, 204, 216, 203, 212, 215, 186, 139]","[133655, 134226, 134738, 135278, 135733, 136274, 136762, 137277, 137751, 138281, 138758, 139233, 139760, 140257, 140778, 141293, 141782, 142289, 142804, 143294, 143791, 144284, 144745]","[133223, 133723, 134223, 134723, 135223, 135724, 136223, 136723, 137232, 137734, 138229, 138728, 139193, 139712, 140214, 140712, 141240, 141739, 142237, 142765, 143242, 143742, 144257, 144757]",75,SB,U,R,ITMSR,1.1
2,500,practice,0,2,2,2,practice,"['S', 'S', 'S', 'S', 'S', 'S', 'S', 'C', 'C', 'C', 'C', 'C', 'C', 'C', 'C', 'C', 'C', 'C', 'C', 'C', 'C', 'C', 'C']","[150365, 150961, 151523, 152071, 152549, 153044, 153530, 154059, 154586, 155108, 155575, 156130, 156622, 157124, 157603, 158105, 158660, 159163, 159627, 160119, 160690, 161166, 161671]","[150498, 151089, 151636, 152193, 152684, 153163, 153656, 154159, 154695, 155196, 155689, 156233, 156729, 157222, 157717, 158211, 158773, 159295, 159764, 160249, 160816, 161306, 161794]","[154, 10, 216, 215, 245, 195, 177, 1, 136, 147, 156, 122, 133, 132, 139, 86, 75, 80, 119, 116, 119, 118, 99]","[150437, 150966, 151588, 152144, 152631, 153118, 153604, 154064, 154593, 155154, 155646, 156174, 156630, 157131, 157656, 158157, 158720, 159212, 159698, 160184, 160754, 161241, 161735]","[150099, 150599, 151099, 151599, 152099, 152599, 153099, 153600, 154079, 154606, 155128, 155595, 156150, 156642, 157144, 157623, 158125, 158680, 159183, 159647, 160139, 160710, 161186, 161691]",75,SB,U,R,ITMSR,1.1
4,500,practice,0,3,3,3,practice,"['S', 'S', 'S', 'S', 'S', 'S', 'S', 'C', 'C', 'C', 'C', 'C', 'C', 'C', 'C', 'C', 'C', 'C', 'C', 'C', 'C', 'C', 'C']","[167585, 168005, 168505, 168991, 169501, 169985, 170542, 171011, 171491, 172041, 172524, 173016, 173488, 174031, 174476, 174971, 175457, 175962, 176460, 176954, 177419, 177914, 178386]","[167657, 168127, 168624, 169113, 169613, 170089, 170632, 171122, 171613, 172147, 172630, 173134, 173614, 174140, 174606, 175089, 175581, 176099, 176588, 177078, 177532, 178021, 178511]","[116, 247, 244, 232, 196, 126, 192, 166, 202, 103, 150, 151, 144, 135, 131, 162, 150, 174, 186, 170, 74, 79, 88]","[167626, 168010, 168510, 169063, 169567, 169991, 170547, 171078, 171496, 172083, 172590, 173090, 173549, 174091, 174545, 174977, 175463, 176024, 176529, 177024, 177426, 177922, 178394]","[167042, 167542, 168042, 168542, 169042, 169542, 170042, 170542, 171031, 171511, 172061, 172545, 173036, 173508, 174051, 174496, 174991, 175477, 175982, 176480, 176974, 177439, 177934, 178406]",75,SB,U,R,ITMSR,1.1
1,500,practice,0,4,4,4,practice,"['S', 'S', 'S', 'S', 'S', 'S', 'S', 'C', 'C', 'C', 'C', 'C', 'C', 'C', 'C', 'C', 'C', 'C', 'C', 'C', 'C', 'C', 'C']","[184590, 185049, 185611, 186070, 186589, 187103, 187611, 188118, 188644, 189148, 189618, 190144, 190688, 191135, 191673, 192159, 192675, 193133, 193647, 194134, 194579, 195113, 195649]","[184693, 185188, 185714, 186189, 186712, 187216, 187741, 188227, 188762, 189266, 189744, 190255, 190773, 191283, 191792, 192279, 192782, 193284, 193768, 194227, 194696, 195216, 195725]","[84, 212, 208, 221, 157, 154, 220, 178, 167, 161, 146, 169, 140, 185, 181, 162, 195, 175, 101, 184, 168, 147, 235]","[184597, 185055, 185617, 186076, 186665, 187110, 187617, 188125, 188650, 189156, 189624, 190151, 190738, 191219, 191679, 192237, 192680, 193140, 193727, 194141, 194586, 195120, 195655]","[184164, 184664, 185164, 185664, 186164, 186664, 187164, 187664, 188138, 188664, 189168, 189638, 190164, 190708, 191155, 191693, 192179, 192695, 193154, 193667, 194154, 194599, 195133, 195670]",75,SB,U,R,ITMSR,1.1
3,500,practice,0,5,5,5,practice,"['S', 'S', 'S', 'S', 'S', 'S', 'S', 'C', 'C', 'C', 'C', 'C', 'C', 'C', 'C', 'C', 'C', 'C', 'C', 'C', 'C', 'C', 'C']","[201450, 201932, 202455, 202946, 203439, 203962, 204445, 204955, 205476, 205972, 206452, 207003, 207476, 207994, 208514, 209029, 209543, 210061, 210534, 211020, 211533, 212007, 212546]","[201549, 202046, 202577, 203076, 203580, 204097, 204585, 205093, 205575, 206065, 206597, 207106, 207625, 208125, 208644, 209126, 209650, 210171, 210684, 211147, 211665, 212174, 212679]","[170, 203, 217, 243, 209, 252, 227, 198, 165, 191, 221, 164, 148, 163, 174, 140, 154, 157, 150, 161, 212, 220, 201]","[201455, 201937, 202460, 202951, 203445, 203968, 204451, 204961, 205483, 205977, 206554, 207010, 207570, 208002, 208521, 209035, 209549, 210067, 210541, 211027, 211539, 212104, 212551]","[201026, 201526, 202027, 202526, 203026, 203526, 204026, 204526, 204975, 205496, 205992, 206472, 207023, 207496, 208014, 208534, 209049, 209563, 210081, 210554, 211040, 211553, 212027, 212567]",75,SB,U,R,ITMSR,1.1
4,400,trial,0,6,6,6,trial,"['S', 'S', 'S', 'S', 'S', 'S', 'S', 'C', 'C', 'C', 'C', 'C', 'C', 'C', 'C', 'C', 'C', 'C', 'C', 'C', 'C', 'C', 'C']","[249989, 250382, 250730, 251090, 251476, 251918, 252297, 252694, 253096, 253461, 253841, 254248, 254644, 255004, 255360, 255759, 256145, 256475, 256845, 257227, 257598, 257993, 258369]","[250088, 250471, 250804, 251180, 251566, 252002, 252405, 252794, 253179, 253553, 253947, 254345, 254711, 255097, 255442, 255855, 256231, 256579, 256942, 257320, 257698, 258095, 258466]","[241, 218, 14, 1, 250, 226, 14, 1, 245, 7, 244, 222, 34, 33, 249, 5, 17, 8, 18, 1, 11, 253, 32]","[250038, 250388, 250735, 251096, 251483, 251924, 252348, 252748, 253102, 253466, 253898, 254285, 254649, 255051, 255366, 255765, 256150, 256527, 256851, 257233, 257603, 258044, 258374]","[249560, 249960, 250360, 250760, 251160, 251560, 251960, 252360, 252715, 253116, 253481, 253861, 254268, 254664, 255024, 255380, 255779, 256165, 256495, 256865, 257247, 257618, 258013, 258390]",75,SB,U,R,ITMSR,1.1
3,400,trial,0,7,7,7,trial,"['S', 'S', 'S', 'S', 'S', 'S', 'S', 'C', 'C', 'C', 'C', 'C', 'C', 'C', 'C', 'C', 'C', 'C', 'C', 'C', 'C', 'C', 'C']","[264361, 264682, 265075, 265479, 265865, 266270, 266683, 267079, 267480, 267860, 268242, 268640, 269026, 269417, 269836, 270233, 270624, 271026, 271401, 271792, 272206, 272586, 272905]","[264439, 264776, 265163, 265568, 265953, 266365, 266771, 267184, 267582, 267968, 268338, 268746, 269109, 269498, 269915, 270313, 270720, 271120, 271493, 271881, 272305, 272680, 273002]","[89, 252, 61, 45, 49, 27, 22, 36, 14, 31, 231, 0, 7, 231, 221, 180, 207, 201, 204, 236, 242, 226, 184]","[264398, 264733, 265080, 265484, 265870, 266275, 266689, 267084, 267485, 267865, 268249, 268645, 269031, 269422, 269843, 270239, 270629, 271074, 271408, 271797, 272211, 272635, 272911]","[263916, 264316, 264716, 265116, 265517, 265917, 266317, 266717, 267099, 267500, 267880, 268262, 268660, 269046, 269437, 269856, 270253, 270644, 271046, 271421, 271812, 272226, 272606, 272925]",75,SB,U,R,ITMSR,1.1
4,600,trial,0,8,8,8,trial,"['S', 'S', 'S', 'S', 'S', 'S', 'S', 'C', 'C', 'C', 'C', 'C', 'C', 'C', 'C', 'C', 'C', 'C', 'C', 'C', 'C', 'C', 'C']","[278970, 279788, 280383, 281004, 281621, 282230, 282800, 283425, 284006, 284532, 285186, 285794, 286432, 286962, 287590, 288157, 288764, 289305, 289867, 290549, 291111, 291663, 292298]","[279069, 279938, 280502, 281132, 281745, 282376, 282920, 283557, 284121, 284703, 285300, 285920, 286551, 287101, 287720, 288322, 288917, 289438, 290056, 290706, 291271, 291866, 292424]","[227, 233, 56, 50, 47, 13, 7, 31, 245, 6, 3, 38, 210, 136, 4, 7, 9, 16, 1, 198, 253, 37, 24]","[279029, 279793, 280439, 281068, 281626, 282235, 282805, 283430, 284011, 284537, 285191, 285798, 286438, 287056, 287595, 288162, 288770, 289309, 289872, 290590, 291117, 291667, 292303]","[278673, 279273, 279873, 280473, 281073, 281673, 282273, 282873, 283445, 284026, 284552, 285206, 285814, 286452, 286982, 287610, 288177, 288784, 289325, 289887, 290569, 291131, 291683, 292318]",75,SB,U,R,ITMSR,1.1
0,400,trial,0,9,9,9,trial,"['S', 'S', 'S', 'S', 'C', 'C', 'C', 'C', 'C', 'C', 'C', 'C', 'C', 'C', 'C', 'C', 'C', 'C', 'C', 'C']","[299460, 299849, 300247, 300642, 301073, 301466, 301838, 302220, 302621, 302970, 303381, 303765, 304137, 304536, 304931, 305320, 305687, 306061, 306454, 306828]","[299568, 299947, 300345, 300758, 301155, 301554, 301930, 302333, 302711, 303089, 303474, 303865, 304233, 304638, 305022, 305429, 305770, 306150, 306540, 306930]","[90, 152, 130, 144, 146, 202, 162, 202, 199, 199, 192, 220, 238, 253, 220, 238, 215, 207, 213, 4]","[299526, 299854, 300253, 300648, 301080, 301472, 301844, 302291, 302626, 302977, 303386, 303771, 304142, 304541, 304937, 305327, 305692, 306067, 306460, 306834]","[297932, 298332, 298732, 299132, 299532, 299932, 300333, 300733, 301093, 301486, 301858, 302240, 302641, 302990, 303401, 303785, 304157, 304557, 304951, 305340, 305708, 306081, 306475, 306848]",75,SB,U,R,ITMSR,1.1
5,600,trial,0,10,10,10,trial,"['S', 'S', 'S', 'S', 'S', 'S', 'C', 'C', 'C', 'C', 'C', 'C', 'C', 'C', 'C', 'C', 'C', 'C', 'C', 'C', 'C', 'C']","[313841, 314374, 314997, 315616, 316183, 316826, 317441, 318085, 318687, 319305, 319916, 320549, 321131, 321812, 322401, 323004, 323627, 324173, 324791, 325337, 325998, 326589]","[313950, 314493, 315109, 315736, 316314, 316949, 317550, 318187, 318827, 319465, 320059, 320672, 321309, 321977, 322604, 323203, 323765, 324323, 324935, 325536, 326178, 326825]","[179, 162, 193, 211, 78, 166, 126, 178, 200, 198, 223, 206, 211, 250, 252, 254, 24, 250, 133, 147, 214, 160]","[313902, 314440, 315002, 315691, 316189, 316897, 317504, 318148, 318772, 319372, 319921, 320634, 321251, 321899, 322405, 323008, 323632, 324263, 324876, 325433, 326003, 326747]","[312652, 313252, 313852, 314452, 315053, 315653, 316253, 316853, 317461, 318105, 318707, 319325, 319936, 320569, 321152, 321832, 322421, 323024, 323647, 324193, 324811, 325357, 326018, 326609]",75,SB,U,R,ITMSR,1.1
2,600,trial,0,11,11,11,trial,"['S', 'S', 'S', 'S', 'S', 'S', 'S', 'C', 'C', 'C', 'C', 'C', 'C', 'C', 'C', 'C', 'C', 'C', 'C', 'C', 'C', 'C', 'C']","[332558, 333241, 333885, 334455, 335066, 335626, 336256, 336873, 337492, 338116, 338700, 339310, 339881, 340472, 341050, 341696, 342279, 342830, 343449, 344044, 344660, 345219, 345811]","[332672, 333456, 334066, 334614, 335221, 335760, 336440, 336987, 337648, 338269, 338850, 339439, 340013, 340623, 341216, 341842, 342448, 343014, 343621, 344260, 344839, 345394, 345992]","[39, 206, 203, 191, 183, 173, 124, 103, 128, 220, 213, 227, 237, 43, 184, 174, 193, 204, 206, 240, 200, 208, 228]","[332620, 333372, 333999, 334551, 335164, 335631, 336349, 336880, 337499, 338121, 338705, 339315, 339886, 340571, 341054, 341702, 342283, 342835, 343453, 344047, 344665, 345223, 345816]","[332161, 332760, 333360, 333960, 334560, 335160, 335760, 336360, 336893, 337512, 338136, 338720, 339330, 339901, 340492, 341070, 341716, 342299, 342850, 343469, 344065, 344680, 345239, 345831]",75,SB,U,R,ITMSR,1.1
1,600,trial,0,12,12,12,trial,"['S', 'S', 'S', 'S', 'S', 'S', 'S', 'C', 'C', 'C', 'C', 'C', 'C', 'C', 'C', 'C', 'C', 'C', 'C', 'C', 'C', 'C', 'C']","[351936, 352528, 353089, 353719, 354387, 354952, 355564, 356177, 356798, 357451, 357982, 358625, 359201, 359832, 360450, 361049, 361635, 362269, 362880, 363457, 364116, 364761, 365390]","[352082, 352675, 353250, 353859, 354504, 355088, 355690, 356325, 356924, 357600, 358146, 358763, 359363, 360000, 360597, 361248, 361838, 362433, 363091, 363773, 364408, 365021, 365608]","[23, 144, 161, 175, 210, 154, 119, 130, 172, 126, 151, 162, 189, 164, 104, 162, 136, 176, 220, 180, 171, 210, 167]","[351944, 352534, 353095, 353726, 354393, 354957, 355569, 356184, 356804, 357458, 357989, 358631, 359208, 359838, 360456, 361054, 361749, 362275, 362885, 363462, 364122, 364766, 365395]","[351427, 352026, 352626, 353226, 353826, 354426, 355026, 355627, 356197, 356818, 357471, 358002, 358645, 359221, 359853, 360470, 361069, 361655, 362289, 362900, 363478, 364136, 364781, 365410]",75,SB,U,R,ITMSR,1.1
4,400,trial,0,13,13,13,trial,"['S', 'S', 'S', 'S', 'S', 'S', 'S', 'C', 'C', 'C', 'C', 'C', 'C', 'C', 'C', 'C', 'C', 'C', 'C', 'C', 'C', 'C', 'C']","[371592, 371963, 372335, 372734, 373129, 373562, 373940, 374320, 374705, 375069, 375465, 375848, 376249, 376647, 377015, 377369, 377736, 378125, 378451, 378880, 379314, 379705, 380109]","[371694, 372074, 372428, 372828, 373228, 373644, 374036, 374407, 374798, 375187, 375575, 375956, 376355, 376734, 377118, 377473, 377821, 378214, 378557, 378984, 379407, 379807, 380201]","[123, 240, 199, 2, 244, 165, 167, 29, 3, 172, 6, 219, 212, 130, 137, 141, 64, 51, 90, 123, 207, 227, 41]","[371653, 372028, 372339, 372740, 373134, 373568, 373945, 374324, 374709, 375073, 375470, 375853, 376253, 376652, 377020, 377374, 377741, 378129, 378455, 378882, 379318, 379708, 380112]","[371168, 371568, 371969, 372368, 372768, 373168, 373568, 373968, 374340, 374725, 375089, 375485, 375868, 376269, 376667, 377035, 377389, 377756, 378145, 378471, 378900, 379334, 379725, 380129]",75,SB,U,R,ITMSR,1.1
0,400,trial,0,14,14,14,trial,"['S', 'S', 'S', 'S', 'S', 'S', 'S', 'C', 'C', 'C', 'C', 'C', 'C', 'C', 'C', 'C', 'C', 'C', 'C', 'C', 'C', 'C', 'C']","[385916, 386313, 386739, 387138, 387550, 387904, 388304, 388695, 389049, 389448, 389797, 390238, 390622, 390993, 391394, 391801, 392201, 392556, 392965, 393330, 393736, 394116, 394472]","[386035, 386415, 386838, 387258, 387665, 388021, 388415, 388803, 389154, 389540, 389914, 390331, 390719, 391095, 391496, 391887, 392295, 392619, 393062, 393415, 393838, 394202, 394580]","[104, 247, 5, 14, 20, 41, 6, 37, 224, 198, 197, 174, 231, 211, 189, 73, 204, 154, 101, 50, 79, 218, 195]","[385989, 386318, 386743, 387144, 387555, 387909, 388311, 388700, 389054, 389454, 389867, 390244, 390626, 390999, 391399, 391809, 392206, 392562, 392971, 393338, 393799, 394120, 394478]","[385564, 385965, 386365, 386765, 387165, 387565, 387965, 388365, 388715, 389069, 389468, 389817, 390258, 390642, 391013, 391414, 391821, 392221, 392577, 392985, 393350, 393756, 394136, 394492]",75,SB,U,R,ITMSR,1.1
3,600,trial,0,15,15,15,trial,"['S', 'S', 'S', 'S', 'S', 'S', 'S', 'C', 'C', 'C', 'C', 'C', 'C', 'C', 'C', 'C', 'C', 'C', 'C', 'C', 'C', 'C', 'C']","[400846, 401203, 401828, 402452, 403061, 403712, 404328, 404930, 405526, 406150, 406765, 407400, 407992, 408594, 409162, 409779, 410372, 410951, 411551, 412146, 412749, 413412, 413938]","[400933, 401356, 401973, 402608, 403260, 403908, 404473, 405116, 405724, 406337, 406966, 407559, 408190, 408751, 409373, 409972, 410565, 411155, 411738, 412358, 412949, 413561]","[21, 41, 59, 49, 31, 54, 62, 77, 67, 57, 49, 66, 59, 63, 229, 253, 1, 247, 6, 14, 231, 0]","[400851, 401208, 401832, 402457, 403066, 403716, 404333, 404934, 405633, 406249, 406769, 407497, 408134, 408598, 409306, 409784, 410492, 411047, 411556, 412261, 412890, 413500]","[400106, 400706, 401306, 401906, 402506, 403106, 403706, 404306, 404951, 405547, 406170, 406786, 407420, 408012, 408614, 409182, 409799, 410392, 410971, 411571, 412166, 412769, 413432, 413958]",75,SB,U,R,ITMSR,1.1
3,600,trial,0,16,16,16,trial,"['S', 'S', 'S', 'S', 'S', 'S', 'S', 'C', 'C', 'C', 'C', 'C', 'C', 'C', 'C', 'C', 'C', 'C', 'C', 'C', 'C', 'C', 'C']","[420135, 420757, 421398, 422000, 422605, 423251, 423823, 424413, 425044, 425710, 426371, 426982, 427570, 428188, 428793, 429365, 429960, 430604, 431151, 431792, 432399, 432979, 433587]","[420284, 420972, 421605, 422225, 422854, 423491, 424041, 424644, 425329, 425953, 426559, 427201, 427777, 428424, 428972, 429617, 430234, 430823, 431386, 432051, 432620, 433231, 433804]","[24, 60, 54, 47, 26, 60, 196, 5, 215, 237, 15, 16, 32, 47, 31, 241, 251, 19, 31, 1, 15, 64, 58]","[420226, 420761, 421402, 422004, 422608, 423255, 423828, 424417, 425050, 425715, 426375, 426987, 427574, 428191, 428797, 429370, 429964, 430713, 431156, 431797, 432516, 433101, 433591]","[419672, 420272, 420872, 421472, 422072, 422672, 423272, 423872, 424433, 425064, 425730, 426391, 427002, 427590, 428208, 428813, 429385, 429980, 430624, 431171, 431812, 432419, 432999, 433607]",75,SB,U,R,ITMSR,1.1
1,400,trial,0,17,17,17,trial,"['S', 'S', 'S', 'S', 'S', 'S', 'S', 'C', 'C', 'C', 'C', 'C', 'C', 'C', 'C', 'C', 'C', 'C', 'C', 'C', 'C', 'C', 'C']","[439575, 439899, 440233, 440603, 440970, 441388, 441780, 442199, 442617, 443065, 443495, 443874, 444232, 444638, 445028, 445404, 445777, 446175, 446573, 446945, 447323, 447708, 448097]","[439678, 439986, 440328, 440722, 441077, 441485, 441878, 442297, 442730, 443174, 443598, 443991, 444334, 444745, 445126, 445508, 445898, 446292, 446701, 447073, 447432, 447827, 448218]","[245, 244, 88, 21, 184, 11, 23, 43, 35, 1, 232, 37, 72, 20, 4, 18, 208, 231, 22, 204, 79, 36, 1]","[439611, 439934, 440284, 440658, 440975, 441394, 441786, 442204, 442622, 443121, 443547, 443930, 444237, 444695, 445033, 445457, 445850, 446233, 446642, 447001, 447328, 447765, 448177]","[439057, 439457, 439857, 440257, 440657, 441057, 441457, 441858, 442219, 442637, 443085, 443515, 443894, 444252, 444658, 445048, 445424, 445797, 446195, 446594, 446965, 447343, 447728, 448117]",75,SB,U,R,ITMSR,1.1
2,400,trial,0,18,18,18,trial,"['S', 'S', 'S', 'S', 'S', 'S', 'S', 'C', 'C', 'C', 'C', 'C', 'C', 'C', 'C', 'C', 'C', 'C', 'C', 'C', 'C', 'C', 'C']","[453983, 454305, 454712, 455132, 455571, 455945, 456307, 456708, 457134, 457517, 457915, 458264, 458690, 459079, 459478, 459862, 460267, 460652, 461068, 461453, 461858, 462212, 462600]","[454072, 454407, 454819, 455226, 455658, 456049, 456393, 456800, 457221, 457608, 458019, 458382, 458808, 459188, 459591, 459966, 460369, 460756, 461161, 461542, 461956, 462307, 462693]","[205, 41, 186, 0, 169, 2, 9, 18, 6, 226, 240, 251, 252, 233, 237, 129, 8, 216, 181, 197, 165, 246, 224]","[454027, 454310, 454716, 455137, 455577, 455949, 456312, 456713, 457139, 457564, 457969, 458326, 458763, 459142, 459535, 459921, 460272, 460658, 461074, 461458, 461864, 462217, 462652]","[453566, 453965, 454365, 454765, 455165, 455565, 455965, 456365, 456728, 457154, 457537, 457935, 458285, 458711, 459099, 459498, 459882, 460288, 460673, 461088, 461473, 461878, 462232, 462620]",75,SB,U,R,ITMSR,1.1
5,400,trial,0,19,19,19,trial,"['S', 'S', 'S', 'S', 'S', 'S', 'S', 'C', 'C', 'C', 'C', 'C', 'C', 'C', 'C', 'C', 'C', 'C', 'C', 'C', 'C', 'C', 'C']","[468508, 468858, 469227, 469670, 470050, 470453, 470822, 471212, 471645, 472040, 472420, 472792, 473154, 473544, 473954, 474343, 474732, 475101, 475469, 475875, 476264, 476635, 476978]","[468598, 468956, 469342, 469761, 470158, 470542, 470915, 471325, 471747, 472152, 472531, 472903, 473269, 473639, 474050, 474450, 474825, 475211, 475583, 475972, 476367, 476731, 477056]","[19, 47, 52, 46, 76, 12, 45, 46, 64, 40, 24, 29, 245, 251, 234, 21, 218, 3, 170, 232, 12, 214, 252]","[468549, 468864, 469233, 469677, 470055, 470460, 470829, 471270, 471650, 472076, 472426, 472798, 473212, 473552, 473995, 474389, 474771, 475161, 475529, 475926, 476299, 476674, 476985]","[468100, 468499, 468899, 469299, 469699, 470099, 470499, 470899, 471232, 471665, 472060, 472440, 472812, 473175, 473564, 473974, 474363, 474753, 475121, 475489, 475895, 476284, 476655, 476998]",75,SB,U,R,ITMSR,1.1
0,600,trial,0,20,20,20,trial,"['S', 'S', 'S', 'S', 'S', 'S', 'S', 'C', 'C', 'C', 'C', 'C', 'C', 'C', 'C', 'C', 'C', 'C', 'C', 'C', 'C', 'C', 'C']","[482980, 483730, 484372, 485009, 485615, 486278, 486822, 487403, 487992, 488586, 489165, 489758, 490352, 490886, 491518, 492056, 492683, 493233, 493838, 494441, 495025, 495611, 496245]","[483070, 483853, 484505, 485127, 485758, 486380, 486983, 487553, 488223, 488710, 489279, 489875, 490474, 491026, 491638, 492196, 492816, 493441, 493983, 494559, 495170, 495810, 496448]","[211, 41, 30, 35, 53, 233, 28, 5, 53, 39, 57, 33, 23, 60, 26, 41, 247, 18, 47, 207, 169, 2, 187]","[482985, 483786, 484445, 485070, 485700, 486332, 486898, 487473, 487997, 488646, 489170, 489823, 490416, 490954, 491581, 492128, 492747, 493338, 493843, 494446, 495090, 495686, 496251]","[482661, 483261, 483861, 484461, 485061, 485661, 486261, 486861, 487424, 488012, 488606, 489185, 489778, 490372, 490906, 491538, 492077, 492703, 493253, 493858, 494461, 495045, 495631, 496265]",75,SB,U,R,ITMSR,1.1
5,600,trial,0,21,21,21,trial,"['S', 'S', 'S', 'S', 'S', 'S', 'S', 'C', 'C', 'C', 'C', 'C', 'C', 'C', 'C', 'C', 'C', 'C', 'C', 'C', 'C', 'C', 'C']","[502315, 503001, 503642, 504226, 504783, 505382, 506013, 506584, 507204, 507793, 508374, 508936, 509548, 510196, 510770, 511367, 511922, 512480, 513085, 513681, 514265, 514850, 515403]","[502396, 503105, 503747, 504312, 504880, 505478, 506099, 506686, 507300, 507893, 508484, 509059, 509675, 510311, 510884, 511477, 512037, 512598, 513204, 513811, 514382, 514968, 515539]","[4, 221, 51, 80, 13, 255, 55, 211, 238, 203, 163, 120, 148, 76, 199, 175, 155, 198, 163, 176, 82, 132, 115]","[502321, 503008, 503647, 504231, 504791, 505390, 506019, 506640, 507211, 507853, 508442, 509007, 509616, 510255, 510838, 511439, 511987, 512487, 513093, 513688, 514332, 514921, 515409]","[501893, 502493, 503093, 503693, 504293, 504893, 505493, 506093, 506604, 507224, 507813, 508394, 508956, 509569, 510216, 510790, 511387, 511942, 512500, 513105, 513701, 514285, 514870, 515423]",75,SB,U,R,ITMSR,1.1
2,600,trial,0,22,22,22,trial,"['S', 'S', 'S', 'S', 'S', 'S', 'S', 'C', 'C', 'C', 'C', 'C', 'C', 'C', 'C', 'C', 'C', 'C', 'C', 'C', 'C', 'C', 'C']","[521306, 521890, 522563, 523122, 523748, 524326, 524936, 525534, 526146, 526777, 527357, 527954, 528573, 529150, 529799, 530364, 530981, 531578, 532167, 532783, 533403, 533991, 534610]","[521428, 522016, 522679, 523272, 523848, 524456, 525070, 525668, 526286, 526896, 527495, 528135, 528714, 529307, 529956, 530580, 531211, 531876, 532468, 533071, 533641, 534228]","[245, 2, 247, 243, 186, 181, 252, 208, 172, 196, 223, 208, 239, 175, 228, 227, 208, 216, 187, 208, 219, 0]","[521373, 521897, 522569, 523127, 523756, 524400, 524942, 525540, 526154, 526851, 527366, 528050, 528661, 529238, 529888, 530452, 530987, 531587, 532174, 532790, 533410, 533996]","[520848, 521448, 522048, 522648, 523248, 523848, 524448, 525048, 525554, 526167, 526797, 527377, 527974, 528593, 529170, 529819, 530384, 531001, 531598, 532187, 532803, 533423, 534011, 534630]",75,SB,U,R,ITMSR,1.1
4,600,trial,0,23,23,23,trial,"['B', 'S', 'S', 'S', 'S', 'S', 'S', 'S', 'C', 'C', 'C', 'C', 'C', 'C', 'C', 'C', 'C', 'C', 'C', 'C', 'C', 'C', 'C', 'C']","[540219, 540723, 541280, 541972, 542619, 543242, 543812, 544366, 544932, 545585, 546226, 546827, 547429, 548004, 548661, 549276, 549825, 550500, 551068, 551634, 552190, 552787, 553342, 553971]","[540442, 540940, 541585, 542204, 542828, 543392, 543974, 544542, 545086, 545794, 546418, 547034, 547607, 548231, 548868, 549441, 550070, 550627, 551214, 551766, 552374, 552930, 553566, 554092]","[58, 0, 88, 57, 32, 81, 37, 227, 31, 217, 9, 9, 25, 36, 16, 5, 208, 178, 242, 175, 215, 240, 227, 198]","[540408, 540728, 541285, 541977, 542625, 543247, 543817, 544374, 544937, 545592, 546231, 546832, 547436, 548008, 548664, 549281, 549831, 550508, 551076, 551640, 552196, 552795, 553350, 554041]","[540232, 540832, 541432, 542032, 542632, 543233, 543832, 544432, 544952, 545605, 546246, 546847, 547449, 548024, 548681, 549296, 549846, 550520, 551088, 551654, 552210, 552807, 553362, 553991]",75,SB,U,R,ITMSR,1.1
1,600,trial,0,24,24,24,trial,"['S', 'S', 'S', 'S', 'S', 'S', 'S', 'C', 'C', 'C', 'C', 'C', 'C', 'C', 'C', 'C', 'C', 'C', 'C', 'C', 'C', 'C', 'C']","[560200, 560812, 561445, 562038, 562638, 563234, 563856, 564461, 565107, 565690, 566310, 566893, 567518, 568104, 568733, 569298, 569879, 570529, 571110, 571648, 572262, 572890, 573470]","[560343, 560993, 561592, 562197, 562774, 563437, 564061, 564609, 565232, 565897, 566423, 567093, 567694, 568312, 568911, 569558, 570126, 570690, 571280, 571833, 572469, 573074, 573728]","[135, 31, 25, 225, 206, 232, 136, 101, 99, 253, 249, 240, 249, 18, 23, 250, 37, 9, 8, 53, 23, 31, 25]","[560207, 560817, 561451, 562043, 562644, 563239, 563862, 564469, 565188, 565697, 566318, 566900, 567524, 568111, 568736, 569306, 569884, 570534, 571115, 571654, 572268, 572893, 573475]","[559706, 560306, 560906, 561506, 562106, 562706, 563306, 563906, 564482, 565127, 565710, 566330, 566914, 567538, 568124, 568753, 569318, 569900, 570549, 571130, 571668, 572282, 572910, 573490]",75,SB,U,R,ITMSR,1.1
2,400,trial,0,25,25,25,trial,"['S', 'S', 'S', 'S', 'S', 'S', 'S', 'C', 'C', 'C', 'C', 'C', 'C', 'C', 'C', 'C', 'C', 'C', 'C', 'C', 'C', 'C', 'C']","[579527, 579809, 580144, 580537, 580933, 581340, 581721, 582132, 582543, 582949, 583352, 583727, 584121, 584500, 584882, 585289, 585694, 586104, 586501, 586897, 587296, 587666, 588020]","[579624, 579897, 580232, 580645, 581043, 581445, 581824, 582240, 582634, 583053, 583454, 583837, 584223, 584614, 584989, 585403, 585828, 586233, 586619, 587017, 587403, 587768, 588131]","[29, 17, 131, 51, 210, 37, 46, 66, 227, 233, 12, 4, 209, 246, 164, 230, 246, 214, 216, 34, 200, 149, 192]","[579532, 579814, 580151, 580541, 580939, 581368, 581726, 582137, 582548, 582979, 583358, 583771, 584129, 584539, 584890, 585296, 585776, 586110, 586577, 586903, 587331, 587673, 588026]","[578996, 579396, 579796, 580196, 580596, 580996, 581396, 581796, 582152, 582563, 582969, 583372, 583747, 584141, 584520, 584902, 585309, 585714, 586124, 586521, 586917, 587316, 587686, 588040]",75,SB,U,R,ITMSR,1.1
0,600,trial,0,26,26,26,trial,"['S', 'S', 'S', 'S', 'S', 'S', 'S', 'C', 'C', 'C', 'C', 'C', 'C', 'C', 'C', 'C', 'C', 'C', 'C', 'C', 'C', 'C', 'C']","[593977, 594669, 595265, 595896, 596512, 597085, 597706, 598307, 598937, 599535, 600102, 600741, 601350, 601940, 602523, 603097, 603663, 604252, 604832, 605440, 606036, 606604, 607134]","[594037, 594810, 595444, 596042, 596636, 597236, 597895, 598465, 599073, 599660, 600304, 600943, 601524, 602098, 602651, 603282, 603854, 604419, 604996, 605619, 606179, 606793, 607341]","[72, 38, 46, 82, 29, 37, 238, 10, 254, 232, 57, 29, 17, 27, 241, 52, 16, 27, 31, 36, 38, 15, 233]","[593986, 594674, 595356, 595901, 596571, 597091, 597799, 598385, 598942, 599602, 600193, 600837, 601439, 601947, 602529, 603102, 603759, 604343, 604837, 605445, 606044, 606610, 607248]","[593620, 594221, 594821, 595421, 596021, 596621, 597221, 597821, 598327, 598957, 599555, 600122, 600761, 601370, 601960, 602543, 603117, 603683, 604272, 604852, 605460, 606056, 606624, 607154]",75,SB,U,R,ITMSR,1.1
5,400,trial,0,27,27,27,trial,"['S', 'S', 'S', 'S', 'S', 'S', 'S', 'C', 'C', 'C', 'C', 'C', 'C', 'C', 'C', 'C', 'C', 'C', 'C', 'C', 'C', 'C', 'C']","[613210, 613636, 614052, 614443, 614854, 615224, 615638, 616044, 616473, 616857, 617255, 617640, 618054, 618437, 618846, 619237, 619668, 620054, 620451, 620873, 621243, 621656, 622066]","[613323, 613747, 614155, 614536, 614964, 615335, 615741, 616150, 616580, 616958, 617361, 617763, 618161, 618541, 618944, 619346, 619761, 620166, 620560, 620977, 621347, 621764, 622177]","[15, 76, 86, 79, 20, 82, 20, 36, 55, 246, 204, 49, 244, 212, 221, 240, 182, 195, 202, 222, 32, 210, 72]","[613216, 613640, 614057, 614448, 614860, 615229, 615643, 616049, 616478, 616863, 617262, 617647, 618060, 618444, 618852, 619244, 619674, 620116, 620459, 620879, 621248, 621662, 622071]","[612877, 613276, 613677, 614077, 614477, 614877, 615277, 615677, 616065, 616493, 616877, 617275, 617660, 618074, 618457, 618866, 619257, 619688, 620075, 620471, 620893, 621263, 621676, 622086]",75,SB,U,R,ITMSR,1.1
3,400,trial,0,28,28,28,trial,"['S', 'S', 'S', 'S', 'S', 'S', 'S', 'C', 'C', 'C', 'C', 'C', 'C', 'C', 'C', 'C', 'C', 'C', 'C', 'C', 'C', 'C', 'C']","[628019, 628369, 628772, 629186, 629596, 629943, 630355, 630777, 631195, 631591, 631990, 632370, 632775, 633168, 633551, 633948, 634349, 634740, 635139, 635512, 635943, 636347, 636754]","[628124, 628468, 628887, 629286, 629695, 630062, 630467, 630886, 631298, 631708, 632097, 632474, 632877, 633279, 633665, 634056, 634463, 634832, 635237, 635630, 636034, 636446, 636837]","[255, 99, 127, 59, 44, 49, 57, 97, 56, 69, 60, 74, 40, 14, 184, 39, 38, 49, 3, 216, 213, 48, 102]","[628025, 628373, 628776, 629191, 629601, 629948, 630361, 630781, 631199, 631595, 631994, 632374, 632779, 633174, 633559, 633953, 634354, 634745, 635145, 635584, 635949, 636352, 636759]","[627619, 628019, 628419, 628819, 629219, 629619, 630019, 630419, 630797, 631215, 631611, 632010, 632390, 632795, 633188, 633571, 633968, 634370, 634760, 635159, 635532, 635963, 636367, 636774]",75,SB,U,R,ITMSR,1.1
1,400,trial,0,29,29,29,trial,"['S', 'S', 'S', 'S', 'S', 'S', 'S', 'C', 'C', 'C', 'C', 'C', 'C', 'C', 'C', 'C', 'C', 'C', 'C', 'C', 'C', 'C', 'C']","[642467, 642836, 643253, 643643, 644030, 644435, 644826, 645216, 645644, 646046, 646453, 646860, 647267, 647640, 648059, 648434, 648872, 649290, 649674, 650090, 650477, 650878, 651284]","[642569, 642942, 643363, 643742, 644132, 644546, 644929, 645316, 645738, 646137, 646566, 646973, 647384, 647766, 648169, 648570, 648982, 649404, 649802, 650201, 650582, 650980, 651393]","[15, 76, 77, 55, 79, 75, 71, 32, 26, 247, 41, 66, 78, 65, 17, 82, 54, 23, 33, 41, 29, 16, 56]","[642472, 642840, 643257, 643647, 644035, 644441, 644831, 645221, 645649, 646052, 646458, 646865, 647272, 647645, 648065, 648438, 648878, 649295, 649679, 650095, 650482, 650885, 651289]","[642087, 642487, 642887, 643288, 643688, 644088, 644488, 644888, 645236, 645664, 646066, 646473, 646880, 647287, 647660, 648079, 648454, 648892, 649310, 649694, 650110, 650498, 650898, 651304]",75,SB,U,R,ITMSR,1.1
4,400,trial,0,30,30,30,trial,"['S', 'S', 'S', 'S', 'S', 'S', 'S', 'C', 'C', 'C', 'C', 'C', 'C', 'C', 'C', 'C', 'C', 'C', 'C', 'C', 'C', 'C', 'C']","[662276, 662702, 663115, 663506, 663880, 664265, 664678, 665101, 665494, 665914, 666302, 666729, 667098, 667503, 667914, 668274, 668700, 669092, 669490, 669874, 670278, 670632, 671035]","[662398, 662815, 663216, 663619, 663980, 664375, 664760, 665196, 665586, 666016, 666407, 666831, 667194, 667585, 667999, 668380, 668797, 669177, 669582, 669969, 670371, 670749, 671150]","[194, 69, 86, 110, 92, 86, 35, 61, 41, 239, 15, 31, 210, 218, 243, 208, 157, 162, 190, 245, 211, 206, 11]","[662284, 662706, 663119, 663511, 663884, 664269, 664682, 665105, 665499, 665920, 666307, 666734, 667104, 667509, 667920, 668279, 668706, 669099, 669496, 669880, 670283, 670639, 671041]","[661955, 662355, 662755, 663155, 663555, 663955, 664355, 664755, 665121, 665515, 665934, 666322, 666749, 667118, 667523, 667934, 668294, 668720, 669112, 669510, 669894, 670298, 670652, 671055]",75,SB,U,R,ITMSR,1.1
3,400,trial,0,31,31,31,trial,"['S', 'S', 'S', 'S', 'S', 'S', 'S', 'C', 'C', 'C', 'C', 'C', 'C', 'C', 'C', 'C', 'C', 'C', 'C', 'C', 'C', 'C', 'C']","[676935, 677328, 677736, 678124, 678530, 678926, 679336, 679704, 680145, 680539, 680937, 681333, 681749, 682119, 682537, 682942, 683350, 683756, 684134, 684535, 684895, 685288, 685702]","[677010, 677419, 677823, 678213, 678615, 679023, 679424, 679806, 680245, 680648, 681049, 681450, 681847, 682214, 682626, 683044, 683439, 683854, 684232, 684633, 685003, 685394, 685806]","[187, 88, 69, 70, 15, 17, 237, 15, 28, 216, 251, 244, 220, 204, 250, 149, 161, 197, 112, 182, 181, 115, 146]","[676941, 677334, 677742, 678129, 678535, 678932, 679343, 679709, 680151, 680544, 680942, 681339, 681755, 682126, 682544, 682949, 683356, 683762, 684186, 684542, 684901, 685341, 685710]","[676579, 676979, 677379, 677779, 678179, 678579, 678979, 679379, 679725, 680165, 680559, 680957, 681353, 681769, 682139, 682557, 682962, 683370, 683777, 684154, 684555, 684915, 685308, 685722]",75,SB,U,R,ITMSR,1.1
1,400,trial,0,32,32,32,trial,"['S', 'S', 'S', 'S', 'S', 'S', 'S', 'C', 'C', 'C', 'C', 'C', 'C', 'C', 'C', 'C', 'C', 'C', 'C', 'C', 'C', 'C', 'C']","[691695, 692112, 692583, 692993, 693344, 693789, 694195, 694578, 694961, 695386, 695770, 696143, 696528, 696922, 697294, 697706, 698116, 698471, 698890, 699257, 699627, 700037, 700436]","[691791, 692233, 692674, 693079, 693447, 693877, 694285, 694674, 695061, 695481, 695872, 696247, 696642, 697024, 697407, 697803, 698209, 698575, 698983, 699369, 699745, 700129, 700539]","[237, 77, 69, 46, 30, 117, 76, 62, 103, 44, 56, 35, 6, 249, 226, 158, 243, 157, 235, 217, 231, 215, 231]","[691705, 692117, 692589, 692998, 693351, 693793, 694200, 694583, 694965, 695391, 695774, 696148, 696534, 696928, 697302, 697713, 698122, 698479, 698897, 699316, 699633, 700044, 700442]","[691411, 691811, 692211, 692611, 693011, 693411, 693811, 694211, 694598, 694981, 695406, 695790, 696163, 696548, 696942, 697314, 697726, 698136, 698491, 698910, 699277, 699648, 700057, 700456]",75,SB,U,R,ITMSR,1.1
1,600,trial,0,33,33,33,trial,"['S', 'S', 'S', 'S', 'S', 'S', 'S', 'C', 'C', 'C', 'C', 'C', 'C', 'C', 'C', 'C', 'C', 'C', 'C', 'C', 'C', 'C', 'C']","[706417, 706976, 707586, 708288, 708956, 709496, 710144, 710709, 711264, 711975, 712582, 713169, 713747, 714336, 714860, 715467, 716021, 716578, 717173, 717752, 718372, 718900, 719460]","[706505, 707083, 707725, 708398, 709056, 709642, 710298, 710874, 711539, 712128, 712722, 713346, 713924, 714473, 715028, 715596, 716164, 716728, 717333, 717933, 718523, 719132, 719710]","[29, 59, 208, 246, 15, 223, 4, 54, 1, 63, 49, 67, 72, 82, 19, 51, 254, 52, 34, 21, 27, 8, 21]","[706422, 706981, 707592, 708295, 708962, 709504, 710150, 710714, 711271, 711980, 712587, 713174, 713752, 714341, 714865, 715471, 716026, 716583, 717178, 717758, 718377, 718905, 719465]","[706064, 706664, 707264, 707864, 708464, 709064, 709664, 710264, 710729, 711284, 711995, 712602, 713189, 713767, 714356, 714881, 715487, 716041, 716598, 717193, 717772, 718392, 718920, 719480]",75,SB,U,R,ITMSR,1.1
3,600,trial,0,34,34,34,trial,"['S', 'S', 'S', 'S', 'S', 'S', 'S', 'C', 'C', 'C', 'C', 'C', 'C', 'C', 'C', 'C', 'C', 'C', 'C', 'C', 'C', 'C', 'C']","[725422, 726187, 726860, 727476, 728146, 728648, 729252, 729883, 730497, 731125, 731768, 732376, 732966, 733585, 734194, 734850, 735433, 736088, 736717, 737324, 737943, 738514, 739183]","[725531, 726354, 727009, 727671, 728286, 728840, 729467, 730076, 730758, 731403, 732044, 732659, 733161, 733816, 734404, 735030, 735683, 736256, 736924, 737508, 738150, 738771, 739351]","[22, 86, 137, 132, 111, 121, 129, 96, 108, 113, 115, 110, 62, 105, 110, 52, 66, 63, 122, 60, 33, 4, 64]","[725427, 726192, 726862, 727479, 728150, 728652, 729255, 729887, 730500, 731128, 731771, 732379, 732971, 733588, 734197, 734854, 735436, 736091, 736720, 737328, 737946, 738519, 739186]","[725100, 725699, 726299, 726899, 727499, 728099, 728699, 729299, 729903, 730517, 731145, 731788, 732396, 732986, 733605, 734214, 734870, 735453, 736108, 736737, 737344, 737964, 738534, 739203]",75,SB,U,R,ITMSR,1.1
0,400,trial,0,35,35,35,trial,"['S', 'S', 'S', 'S', 'S', 'S', 'S', 'C', 'C', 'C', 'C', 'C', 'C', 'C', 'C', 'C', 'C', 'C', 'C', 'C', 'C', 'C', 'C']","[745092, 745649, 746029, 746436, 746822, 747223, 747620, 748018, 748439, 748806, 749197, 749599, 750004, 750391, 750777, 751139, 751568, 751960, 752369, 752741, 753097, 753499, 753911]","[745403, 745754, 746117, 746543, 746925, 747330, 747725, 748128, 748548, 748930, 749316, 749707, 750126, 750519, 750901, 751264, 751672, 752063, 752476, 752856, 753206, 753605, 754006]","[31, 108, 75, 37, 226, 38, 95, 72, 246, 255, 70, 58, 32, 69, 38, 20, 196, 14, 2, 200, 14, 233, 62]","[745096, 745652, 746033, 746441, 746826, 747227, 747624, 748022, 748444, 748812, 749201, 749604, 750009, 750394, 750781, 751142, 751572, 751964, 752373, 752746, 753100, 753503, 753915]","[744872, 745272, 745672, 746072, 746472, 746872, 747272, 747672, 748038, 748460, 748826, 749217, 749619, 750024, 750411, 750797, 751159, 751588, 751980, 752389, 752761, 753117, 753519, 753931]",75,SB,U,R,ITMSR,1.1
5,400,trial,0,36,36,36,trial,"['S', 'S', 'S', 'S', 'S', 'S', 'S', 'C', 'C', 'C', 'C', 'C', 'C', 'C', 'C', 'C', 'C', 'C', 'C', 'C', 'C', 'C', 'C']","[759695, 760134, 760571, 760987, 761389, 761798, 762235, 762676, 763069, 763491, 763880, 764279, 764715, 765086, 765474, 765863, 766274, 766674, 767068, 767499, 767905, 768254, 768652]","[759796, 760249, 760691, 761098, 761498, 761910, 762350, 762767, 763179, 763604, 764017, 764388, 764790, 765190, 765592, 765966, 766381, 766780, 767170, 767572, 768012, 768357, 768738]","[183, 225, 251, 224, 54, 18, 20, 1, 240, 213, 20, 12, 185, 233, 220, 36, 31, 160, 255, 230, 223, 21, 18]","[759700, 760139, 760576, 760991, 761393, 761803, 762240, 762681, 763074, 763497, 763885, 764283, 764720, 765091, 765479, 765869, 766279, 766682, 767073, 767505, 767910, 768261, 768657]","[759474, 759873, 760273, 760673, 761073, 761474, 761874, 762274, 762696, 763089, 763511, 763900, 764299, 764735, 765106, 765494, 765883, 766295, 766694, 767088, 767519, 767925, 768274, 768672]",75,SB,U,R,ITMSR,1.1
0,600,trial,0,37,37,37,trial,"['S', 'S', 'S', 'S', 'S', 'S', 'S', 'C', 'C', 'C', 'C', 'C', 'C', 'C', 'C', 'C', 'C', 'C', 'C', 'C', 'C', 'C', 'C']","[774766, 775544, 776059, 776630, 777222, 777805, 778464, 779075, 779704, 780304, 780909, 781465, 782062, 782604, 783215, 783805, 784360, 784963, 785593, 786151, 786819, 787376, 788017]","[774866, 775636, 776160, 776778, 777372, 777993, 778647, 779233, 779888, 780455, 781070, 781675, 782251, 782799, 783365, 783973, 784635, 785190, 785768, 786394, 786945, 787630, 788172]","[0, 8, 67, 71, 49, 23, 40, 54, 228, 31, 236, 34, 13, 238, 250, 15, 19, 216, 217, 22, 1, 49, 148]","[774819, 775550, 776065, 776634, 777227, 777809, 778468, 779079, 779710, 780308, 780913, 781469, 782066, 782608, 783219, 783809, 784364, 784968, 785597, 786155, 786824, 787380, 788022]","[774373, 774972, 775572, 776172, 776772, 777372, 777972, 778572, 779096, 779724, 780324, 780930, 781485, 782082, 782624, 783235, 783825, 784380, 784984, 785613, 786171, 786839, 787396, 788037]",75,SB,U,R,ITMSR,1.1
3,600,trial,0,38,38,38,trial,"['S', 'S', 'S', 'S', 'S', 'S', 'S', 'C', 'C', 'C', 'C', 'C', 'C', 'C', 'C', 'C', 'C', 'C', 'C', 'C', 'C', 'C', 'C']","[793724, 794448, 795162, 795779, 796378, 796958, 797553, 798197, 798828, 799459, 800093, 800776, 801327, 801971, 802575, 803208, 803811, 804445, 805062, 805608, 806255, 806781, 807498]","[793849, 794633, 795267, 795901, 796493, 797097, 797729, 798333, 798991, 799645, 800269, 800913, 801559, 802169, 802798, 803378, 804025, 804595, 805199, 805811, 806397, 807002, 807726]","[71, 93, 75, 42, 53, 60, 30, 254, 59, 56, 5, 190, 120, 237, 6, 237, 11, 202, 213, 216, 43, 66, 186]","[793811, 794454, 795165, 795783, 796382, 796962, 797558, 798202, 798832, 799462, 800098, 800781, 801333, 801976, 802580, 803212, 803815, 804450, 805066, 805613, 806260, 806786, 807503]","[793395, 793995, 794595, 795195, 795795, 796395, 796995, 797595, 798217, 798849, 799479, 800113, 800796, 801347, 801991, 802595, 803228, 803831, 804465, 805082, 805628, 806275, 806801, 807518]",75,SB,U,R,ITMSR,1.1
1,400,trial,0,39,39,39,trial,"['S', 'S', 'S', 'S', 'S', 'S', 'S', 'S', 'C', 'C', 'C', 'C', 'C', 'C', 'C', 'C', 'C', 'C', 'C', 'C', 'C', 'C', 'C', 'C']","[813124, 813487, 813886, 814261, 814647, 815031, 815467, 815804, 816177, 816601, 817011, 817419, 817846, 818240, 818656, 819045, 819486, 819917, 820323, 820766, 821202, 821625, 822019, 822412]","[813144, 813614, 813979, 814372, 814752, 815137, 815568, 815907, 816292, 816686, 817101, 817519, 817957, 818342, 818769, 819154, 819593, 820020, 820434, 820870, 821321, 821745, 822123, 822542]","[47, 137, 77, 97, 119, 115, 21, 38, 1, 198, 221, 211, 185, 240, 203, 220, 248, 232, 242, 154, 180, 238, 254, 4]","[813125, 813490, 813890, 814265, 814650, 815034, 815471, 815808, 816182, 816608, 817016, 817424, 817852, 818245, 818662, 819050, 819491, 819922, 820329, 820771, 821208, 821632, 822023, 822418]","[813087, 813486, 813886, 814286, 814686, 815086, 815486, 815886, 816197, 816621, 817031, 817439, 817866, 818260, 818676, 819065, 819506, 819937, 820343, 820786, 821222, 821645, 822039, 822432]",75,SB,U,R,ITMSR,1.1
5,400,trial,0,40,40,40,trial,"['S', 'S', 'S', 'S', 'S', 'S', 'S', 'C', 'C', 'C', 'C', 'C', 'C', 'C', 'C', 'C', 'C', 'C', 'C', 'C', 'C', 'C', 'C']","[828383, 828880, 829314, 829741, 830129, 830536, 830948, 831355, 831762, 832190, 832573, 832990, 833391, 833826, 834212, 834625, 835003, 835492, 835898, 836366, 836777, 837143, 837627]","[828512, 829014, 829412, 829853, 830231, 830622, 831042, 831450, 831862, 832304, 832670, 833087, 833505, 833928, 834317, 834735, 835115, 835577, 836015, 836447, 836858, 837242, 837714]","[247, 67, 109, 65, 80, 51, 21, 59, 202, 50, 253, 15, 30, 254, 40, 80, 19, 230, 255, 211, 7, 15, 44]","[828386, 828884, 829317, 829745, 830133, 830539, 830952, 831360, 831767, 832194, 832577, 832994, 833395, 833831, 834217, 834629, 835008, 835496, 835902, 836371, 836783, 837147, 837632]","[828161, 828560, 828960, 829360, 829760, 830160, 830560, 830960, 831375, 831782, 832210, 832593, 833010, 833411, 833846, 834232, 834646, 835023, 835512, 835918, 836386, 836797, 837164, 837647]",75,SB,U,R,ITMSR,1.1
2,400,trial,0,41,41,41,trial,"['S', 'S', 'S', 'S', 'S', 'S', 'S', 'C', 'C', 'C', 'C', 'C', 'C', 'C', 'C', 'C', 'C', 'C', 'C', 'C', 'C', 'C', 'C']","[843614, 844029, 844426, 844866, 845260, 845638, 846047, 846478, 846876, 847264, 847695, 848099, 848485, 848914, 849287, 849712, 850106, 850528, 850931, 851330, 851770, 852191, 852592]","[843723, 844128, 844536, 844955, 845347, 845727, 846142, 846563, 846964, 847351, 847773, 848198, 848579, 849014, 849393, 849806, 850188, 850637, 851057, 851443, 851872, 852294, 852699]","[223, 20, 80, 55, 73, 38, 78, 16, 247, 19, 255, 244, 55, 86, 35, 73, 61, 30, 57, 58, 57, 65, 60]","[843621, 844034, 844429, 844870, 845264, 845642, 846051, 846483, 846881, 847269, 847702, 848104, 848490, 848918, 849292, 849716, 850111, 850533, 850936, 851335, 851774, 852195, 852596]","[843300, 843700, 844100, 844500, 844900, 845300, 845700, 846100, 846498, 846896, 847284, 847715, 848119, 848505, 848934, 849307, 849732, 850126, 850548, 850951, 851350, 851790, 852211, 852612]",75,SB,U,R,ITMSR,1.1
4,400,trial,0,42,42,42,trial,"['S', 'S', 'S', 'S', 'S', 'S', 'S', 'C', 'C', 'C', 'C', 'C', 'C', 'C', 'C', 'C', 'C', 'C', 'C', 'C', 'C', 'C', 'C']","[858586, 858977, 859378, 859806, 860220, 860583, 861007, 861416, 861805, 862267, 862630, 863051, 863460, 863831, 864242, 864634, 865060, 865422, 865841, 866205, 866607, 867014, 867415]","[858683, 859076, 859475, 859915, 860319, 860682, 861101, 861499, 861900, 862355, 862757, 863157, 863563, 863933, 864327, 864737, 865158, 865546, 865939, 866331, 866713, 867127, 867491]","[126, 41, 50, 100, 99, 95, 25, 55, 50, 26, 62, 84, 108, 98, 45, 42, 57, 63, 52, 63, 65, 92, 106]","[858594, 858981, 859383, 859810, 860224, 860588, 861014, 861421, 861809, 862271, 862635, 863055, 863464, 863835, 864246, 864640, 865064, 865427, 865846, 866209, 866611, 867018, 867419]","[858235, 858635, 859035, 859436, 859835, 860235, 860635, 861035, 861436, 861826, 862287, 862650, 863071, 863480, 863851, 864262, 864654, 865080, 865442, 865861, 866225, 866627, 867034, 867435]",75,SB,U,R,ITMSR,1.1
5,600,trial,0,43,43,43,trial,"['S', 'S', 'S', 'S', 'S', 'S', 'S', 'C', 'C', 'C', 'C', 'C', 'C', 'C', 'C', 'C', 'C', 'C', 'C', 'C', 'C', 'C', 'C']","[873249, 873968, 874547, 875150, 875794, 876434, 877015, 877616, 878252, 878851, 879529, 880175, 880779, 881410, 882026, 882658, 883304, 883917, 884558, 885181, 885846, 886505, 887074]","[873339, 874094, 874654, 875273, 875896, 876580, 877166, 877772, 878409, 879068, 879726, 880408, 881038, 881620, 882256, 882895, 883514, 884167, 884790, 885403, 886094, 886708]","[183, 13, 92, 5, 190, 18, 10, 255, 57, 238, 56, 210, 245, 145, 17, 236, 75, 219, 203, 170, 32, 28]","[873254, 873972, 874551, 875155, 875798, 876438, 877020, 877621, 878256, 878856, 879535, 880279, 880784, 881415, 882031, 882663, 883430, 883922, 884564, 885187, 885851, 886509]","[872855, 873454, 874054, 874654, 875254, 875854, 876454, 877054, 877636, 878272, 878871, 879549, 880195, 880799, 881430, 882046, 882678, 883324, 883937, 884578, 885201, 885866, 886525, 887094]",75,SB,U,R,ITMSR,1.1
2,600,trial,0,44,44,44,trial,"['S', 'S', 'S', 'S', 'S', 'S', 'S', 'C', 'C', 'C', 'C', 'C', 'C', 'C', 'C', 'C', 'C', 'C', 'C', 'C', 'C', 'C', 'C']","[893262, 893897, 894578, 895194, 895812, 896396, 897050, 897642, 898274, 898854, 899486, 900105, 900699, 901307, 901904, 902479, 903106, 903715, 904305, 904835, 905462, 906035, 906580]","[893368, 894021, 894698, 895330, 895926, 896549, 897202, 897790, 898406, 898999, 899639, 900250, 900874, 901477, 902036, 902701, 903272, 903911, 904472, 905030, 905633, 906215, 906737]","[166, 54, 90, 73, 41, 86, 38, 59, 23, 242, 25, 252, 200, 119, 180, 169, 54, 15, 55, 166, 202, 156, 191]","[893268, 893902, 894582, 895198, 895815, 896400, 897053, 897646, 898278, 898857, 899490, 900109, 900704, 901311, 901907, 902483, 903110, 903719, 904308, 904839, 905465, 906038, 906586]","[892866, 893466, 894066, 894666, 895266, 895866, 896466, 897067, 897662, 898294, 898874, 899506, 900125, 900719, 901327, 901924, 902499, 903127, 903735, 904325, 904855, 905482, 906055, 906600]",75,SB,U,R,ITMSR,1.1
4,600,trial,0,45,45,45,trial,"['S', 'S', 'S', 'S', 'S', 'S', 'S', 'C', 'C', 'C', 'C', 'C', 'C', 'C', 'C', 'C', 'C', 'C', 'C', 'C', 'C', 'C', 'C']","[912541, 913246, 913882, 914528, 915139, 915728, 916305, 916933, 917510, 918106, 918673, 919256, 919828, 920404, 920985, 921523, 922152, 922700, 923266, 923831, 924389, 924984, 925524]","[912653, 913399, 914060, 914685, 915305, 915887, 916492, 917060, 917696, 918306, 918882, 919462, 920006, 920603, 921157, 921743, 922303, 922976, 923473, 923990, 924541, 925126, 925659]","[44, 57, 69, 194, 11, 34, 26, 22, 35, 0, 25, 242, 7, 36, 192, 223, 252, 231, 180, 228, 219, 224, 223]","[912546, 913250, 913886, 914532, 915143, 915731, 916310, 916937, 917515, 918111, 918677, 919261, 919833, 920409, 920991, 921528, 922158, 922705, 923272, 923836, 924393, 924989, 925529]","[912126, 912727, 913326, 913926, 914526, 915126, 915726, 916326, 916953, 917530, 918126, 918693, 919276, 919848, 920424, 921005, 921543, 922172, 922720, 923286, 923851, 924409, 925004, 925544]",75,SB,U,R,ITMSR,1.1
1,600,trial,0,46,46,46,trial,"['S', 'S', 'S', 'S', 'S', 'S', 'S', 'C', 'C', 'C', 'C', 'C', 'C', 'C', 'C', 'C', 'C', 'C', 'C', 'C', 'C', 'C', 'C', 'C', 'C', 'C', 'C', 'C']","[931250, 932026, 932679, 933308, 933908, 934529, 935136, 935736, 936379, 936962, 937562, 938170, 938270, 938697, 938797, 939323, 939423, 939949, 940521, 940621, 941119, 941702, 942316, 942904, 943490, 944056, 944711, 944811]","[931368, 932178, 932809, 933445, 934060, 934671, 935262, 935874, 936529, 937148, 937711, 938190, 938347, 938717, 938927, 939343, 939503, 940138, 940541, 940673, 941263, 941883, 942459, 943067, 943636, 944280, 944731, 944860]","[159, 34, 22, 199, 10, 202, 11, 212, 136, 99, 171, 157, 114, 98, 191, 150, 155, 185, 154, 114, 163, 186, 186, 189, 170, 191, 176, 177]","[931255, 932030, 932683, 933312, 933912, 934534, 935139, 935739, 936383, 936965, 937567, 938174, 938297, 938701, 938797, 939327, 939423, 939953, 940526, 940627, 941122, 941705, 942320, 942908, 943494, 944060, 944714, 944811]","[930989, 931589, 932189, 932789, 933389, 933989, 934589, 935189, 935756, 936399, 936982, 937582, 938190, 938717, 939343, 939969, 940541, 941139, 941722, 942337, 942924, 943510, 944076, 944731]",75,SB,U,R,ITMSR,1.1
5,600,trial,0,47,47,47,trial,"['S', 'S', 'S', 'S', 'S', 'S', 'S', 'C', 'C', 'C', 'C', 'C', 'C', 'C', 'C', 'C', 'C', 'C', 'C', 'C', 'C', 'C', 'C']","[950552, 951274, 951957, 952510, 953152, 953699, 954338, 954918, 955524, 956090, 956690, 957282, 957836, 958434, 959013, 959623, 960205, 960786, 961375, 962008, 962570, 963123, 963702]","[950682, 951399, 952060, 952658, 953279, 953858, 954463, 955056, 955644, 956228, 956834, 957415, 957981, 958592, 959184, 959771, 960354, 960928, 961510, 962147, 962723, 963312, 963868]","[235, 110, 234, 11, 232, 246, 232, 251, 69, 220, 252, 219, 22, 206, 97, 13, 232, 142, 81, 102, 174, 48, 55]","[950557, 951279, 951962, 952514, 953156, 953703, 954417, 954924, 955594, 956170, 956775, 957361, 957842, 958518, 959118, 959627, 960281, 960792, 961380, 962012, 962576, 963129, 963708]","[950180, 950780, 951380, 951981, 952581, 953181, 953781, 954381, 954938, 955544, 956110, 956710, 957302, 957856, 958454, 959033, 959643, 960225, 960806, 961395, 962028, 962590, 963143, 963722]",75,SB,U,R,ITMSR,1.1
0,600,trial,0,48,48,48,trial,"['S', 'S', 'S', 'S', 'S', 'S', 'S', 'C', 'C', 'C', 'C', 'C', 'C', 'C', 'C', 'C', 'C', 'C', 'C', 'C', 'C', 'C', 'C']","[969928, 970524, 971153, 971724, 972328, 972930, 973551, 974132, 974777, 975377, 975987, 976576, 977210, 977817, 978441, 979024, 979591, 980204, 980768, 981349, 981880, 982528, 983095]","[970047, 970685, 971292, 971853, 972470, 973088, 973675, 974277, 974903, 975526, 976123, 976760, 977358, 977995, 978576, 979179, 979770, 980335, 980914, 981536, 982056, 982676, 983275]","[14, 79, 59, 32, 190, 6, 175, 36, 153, 88, 170, 33, 145, 122, 148, 78, 100, 101, 196, 83, 18, 191, 46]","[969933, 970529, 971158, 971728, 972334, 972935, 973556, 974139, 974782, 975458, 975991, 976583, 977216, 977823, 978447, 979103, 979597, 980210, 980774, 981356, 981994, 982534, 983102]","[969414, 970014, 970614, 971214, 971814, 972414, 973015, 973614, 974152, 974797, 975397, 976007, 976596, 977230, 977837, 978461, 979044, 979611, 980225, 980788, 981369, 981900, 982548, 983115]",75,SB,U,R,ITMSR,1.1
0,400,trial,0,49,49,49,trial,"['S', 'S', 'S', 'S', 'S', 'S', 'S', 'C', 'C', 'C', 'C', 'C', 'C', 'C', 'C', 'C', 'C', 'C', 'C', 'C', 'C', 'C', 'C']","[989175, 989497, 989852, 990238, 990641, 991029, 991425, 991820, 992205, 992610, 992979, 993387, 993777, 994158, 994556, 994941, 995332, 995699, 996103, 996484, 996871, 997268, 997702]","[989288, 989584, 989950, 990342, 990755, 991131, 991521, 991934, 992326, 992721, 993086, 993502, 993881, 994266, 994653, 995052, 995440, 995798, 996203, 996593, 996985, 997376, 997776]","[31, 37, 79, 109, 65, 24, 54, 6, 6, 254, 191, 36, 16, 244, 14, 255, 2, 5, 243, 222, 226, 32, 249]","[989179, 989502, 989857, 990242, 990645, 991035, 991430, 991825, 992210, 992615, 992986, 993392, 993782, 994163, 994562, 994947, 995337, 995704, 996109, 996489, 996875, 997272, 997706]","[988682, 989082, 989483, 989882, 990282, 990682, 991082, 991482, 991840, 992225, 992630, 992999, 993408, 993797, 994178, 994576, 994961, 995352, 995719, 996123, 996504, 996891, 997288, 997722]",75,SB,U,R,ITMSR,1.1
3,400,trial,0,50,50,50,trial,"['S', 'S', 'S', 'S', 'S', 'S', 'S', 'C', 'C', 'C', 'C', 'C', 'C', 'C', 'C', 'C', 'C', 'C', 'C', 'C', 'C', 'C', 'C']","[1003734, 1004105, 1004530, 1004943, 1005326, 1005753, 1006119, 1006498, 1006917, 1007264, 1007700, 1008091, 1008481, 1008886, 1009259, 1009643, 1010070, 1010460, 1010835, 1011256, 1011604, 1011997, 1012404]","[1003827, 1004188, 1004627, 1005035, 1005416, 1005830, 1006211, 1006601, 1007001, 1007379, 1007808, 1008214, 1008609, 1009006, 1009362, 1009754, 1010165, 1010564, 1010935, 1011352, 1011704, 1012091, 1012506]","[16, 75, 38, 94, 101, 105, 84, 33, 60, 5, 3, 254, 19, 4, 54, 54, 49, 34, 30, 5, 38, 233, 227]","[1003740, 1004109, 1004535, 1004947, 1005330, 1005756, 1006124, 1006502, 1006922, 1007268, 1007706, 1008096, 1008485, 1008891, 1009263, 1009648, 1010074, 1010465, 1010839, 1011261, 1011609, 1012002, 1012409]","[1003396, 1003796, 1004196, 1004596, 1004996, 1005396, 1005796, 1006196, 1006518, 1006937, 1007284, 1007720, 1008111, 1008501, 1008906, 1009280, 1009664, 1010091, 1010480, 1010855, 1011276, 1011624, 1012017, 1012424]",75,SB,U,R,ITMSR,1.1
4,600,trial,0,51,51,51,trial,"['S', 'S', 'S', 'S', 'S', 'S', 'S', 'C', 'C', 'C', 'C', 'C', 'C', 'C', 'C', 'C', 'C', 'C', 'C', 'C', 'C', 'C', 'C']","[1018433, 1019176, 1019819, 1020419, 1021087, 1021603, 1022156, 1022801, 1023429, 1023971, 1024562, 1025108, 1025675, 1026180, 1026721, 1027341, 1027895, 1028504, 1029104, 1029644, 1030270, 1030864, 1031445]","[1018532, 1019339, 1019949, 1020545, 1021200, 1021725, 1022346, 1022950, 1023569, 1024154, 1024715, 1025317, 1025825, 1026456, 1026863, 1027490, 1028090, 1028657, 1029314, 1029920, 1030416, 1031035, 1031632]","[229, 81, 82, 93, 248, 41, 57, 13, 252, 31, 5, 59, 186, 253, 44, 221, 16, 147, 224, 176, 179, 252, 197]","[1018439, 1019182, 1019822, 1020422, 1021142, 1021607, 1022160, 1022804, 1023434, 1023975, 1024567, 1025113, 1025681, 1026185, 1026725, 1027345, 1027899, 1028510, 1029109, 1029650, 1030276, 1030868, 1031449]","[1018092, 1018692, 1019292, 1019892, 1020492, 1021092, 1021692, 1022292, 1022821, 1023449, 1023991, 1024582, 1025128, 1025695, 1026200, 1026741, 1027361, 1027915, 1028525, 1029124, 1029664, 1030290, 1030884, 1031465]",75,SB,U,R,ITMSR,1.1
2,600,trial,0,52,52,52,trial,"['S', 'S', 'S', 'S', 'S', 'S', 'S', 'C', 'C', 'C', 'C', 'C', 'C', 'C', 'C', 'C', 'C', 'C', 'C', 'C', 'C', 'C', 'C', 'C', 'C']","[1037333, 1037970, 1038613, 1039197, 1039831, 1040379, 1041022, 1041683, 1042258, 1042862, 1043484, 1044058, 1044688, 1044788, 1045262, 1045911, 1046498, 1046600, 1047085, 1047676, 1048278, 1048832, 1049506, 1050139, 1050728]","[1037467, 1038130, 1038730, 1039315, 1039980, 1040577, 1041173, 1041824, 1042422, 1043046, 1043658, 1044257, 1044708, 1044808, 1045485, 1046079, 1046519, 1046663, 1047266, 1047854, 1048451, 1049071, 1049655, 1050299, 1050917]","[218, 3, 26, 65, 253, 17, 199, 197, 8, 17, 145, 203, 163, 226, 168, 190, 117, 172, 199, 56, 156, 114, 39, 147, 170]","[1037415, 1037974, 1038618, 1039200, 1039836, 1040384, 1041028, 1041688, 1042263, 1042866, 1043490, 1044063, 1044692, 1044788, 1045266, 1045915, 1046503, 1046600, 1047090, 1047683, 1048283, 1048836, 1049512, 1050143, 1050733]","[1036899, 1037498, 1038098, 1038698, 1039298, 1039898, 1040498, 1041098, 1041703, 1042278, 1042882, 1043504, 1044078, 1044708, 1045282, 1045932, 1046518, 1047105, 1047696, 1048298, 1048852, 1049526, 1050159, 1050748]",75,SB,U,R,ITMSR,1.1
2,400,trial,0,53,53,53,trial,"['S', 'S', 'S', 'S', 'S', 'S', 'S', 'C', 'C', 'C', 'C', 'C', 'C', 'C', 'C', 'C', 'C', 'C', 'C', 'C', 'C', 'C', 'C']","[1056934, 1057254, 1057597, 1057978, 1058384, 1058788, 1059175, 1059574, 1059994, 1060363, 1060782, 1061192, 1061603, 1061955, 1062372, 1062776, 1063174, 1063584, 1064019, 1064404, 1064796, 1065187, 1065605]","[1057014, 1057328, 1057672, 1058084, 1058475, 1058870, 1059260, 1059677, 1060101, 1060470, 1060880, 1061284, 1061683, 1062069, 1062474, 1062882, 1063270, 1063690, 1064113, 1064526, 1064899, 1065274, 1065720]","[42, 76, 100, 27, 33, 44, 72, 13, 33, 221, 210, 30, 245, 226, 240, 221, 250, 227, 196, 16, 245, 175, 162]","[1056940, 1057258, 1057600, 1057983, 1058388, 1058792, 1059178, 1059579, 1059998, 1060369, 1060788, 1061197, 1061609, 1061961, 1062377, 1062784, 1063179, 1063590, 1064027, 1064410, 1064801, 1065193, 1065611]","[1056422, 1056822, 1057222, 1057623, 1058022, 1058422, 1058822, 1059222, 1059594, 1060014, 1060383, 1060802, 1061212, 1061623, 1061976, 1062392, 1062796, 1063194, 1063604, 1064039, 1064424, 1064816, 1065207, 1065625]",75,SB,U,R,ITMSR,1.1
3,600,trial,0,54,54,54,trial,"['S', 'S', 'S', 'S', 'S', 'S', 'S', 'C', 'C', 'C', 'C', 'C', 'C', 'C', 'C', 'C', 'C', 'C', 'C', 'C', 'C', 'C', 'C']","[1076951, 1077358, 1077879, 1078509, 1079074, 1079649, 1080304, 1080909, 1081515, 1082115, 1082688, 1083300, 1083885, 1084448, 1085004, 1085613, 1086198, 1086750, 1087326, 1087884, 1088468, 1089012, 1089652]","[1077037, 1077487, 1078025, 1078640, 1079245, 1079838, 1080465, 1081085, 1081696, 1082299, 1082898, 1083465, 1084071, 1084648, 1085218, 1085790, 1086367, 1086934, 1087519, 1088081, 1088676, 1089221, 1089796]","[32, 128, 133, 25, 27, 39, 11, 75, 253, 253, 41, 246, 54, 28, 43, 45, 59, 41, 49, 22, 35, 34, 43]","[1076957, 1077360, 1077882, 1078514, 1079079, 1079653, 1080308, 1080912, 1081519, 1082119, 1082692, 1083304, 1083889, 1084452, 1085008, 1085617, 1086202, 1086754, 1087329, 1087888, 1088473, 1089016, 1089656]","[1076158, 1076758, 1077358, 1077958, 1078558, 1079158, 1079758, 1080358, 1080929, 1081535, 1082135, 1082708, 1083320, 1083906, 1084468, 1085024, 1085633, 1086218, 1086770, 1087346, 1087904, 1088488, 1089032, 1089672]",75,SB,U,R,ITMSR,1.1
5,400,trial,0,55,55,55,trial,"['S', 'S', 'S', 'S', 'S', 'S', 'S', 'C', 'C', 'C', 'C', 'C', 'C', 'C', 'C', 'C', 'C', 'C', 'C', 'C', 'C', 'C', 'C']","[1095383, 1095729, 1096155, 1096561, 1096965, 1097382, 1097749, 1098129, 1098555, 1098946, 1099317, 1099714, 1100104, 1100506, 1100900, 1101250, 1101696, 1102063, 1102454, 1102868, 1103247, 1103624, 1104025]","[1095496, 1095810, 1096256, 1096663, 1097053, 1097457, 1097800, 1098213, 1098641, 1099048, 1099403, 1099816, 1100191, 1100589, 1101006, 1101355, 1101792, 1102170, 1102565, 1102964, 1103356, 1103738, 1104132]","[239, 58, 101, 84, 93, 67, 87, 48, 62, 33, 75, 83, 61, 28, 27, 14, 243, 29, 16, 6, 234, 58, 18]","[1095389, 1095733, 1096159, 1096565, 1096969, 1097385, 1097753, 1098134, 1098558, 1098951, 1099321, 1099717, 1100108, 1100511, 1100904, 1101254, 1101700, 1102067, 1102458, 1102872, 1103252, 1103628, 1104029]","[1094979, 1095379, 1095779, 1096179, 1096579, 1096979, 1097379, 1097779, 1098149, 1098575, 1098967, 1099337, 1099735, 1100124, 1100526, 1100920, 1101271, 1101716, 1102083, 1102474, 1102888, 1103267, 1103644, 1104045]",75,SB,U,R,ITMSR,1.1
3,400,trial,0,56,56,56,trial,"['S', 'S', 'S', 'S', 'S', 'S', 'S', 'C', 'C', 'C', 'C', 'C', 'C', 'C', 'C', 'C', 'C', 'C', 'C', 'C', 'C', 'C', 'C']","[1109844, 1110291, 1110715, 1111145, 1111544, 1111942, 1112323, 1112739, 1113126, 1113559, 1113987, 1114322, 1114725, 1115142, 1115544, 1115926, 1116351, 1116734, 1117116, 1117509, 1117845, 1118262, 1118656]","[1109979, 1110402, 1110813, 1111243, 1111654, 1112026, 1112433, 1112852, 1113223, 1113667, 1114096, 1114475, 1114844, 1115244, 1115643, 1116037, 1116449, 1116832, 1117227, 1117621, 1117968, 1118358, 1118760]","[214, 66, 84, 60, 91, 87, 85, 47, 24, 38, 236, 17, 255, 13, 242, 62, 52, 69, 4, 15, 60, 35, 3]","[1109852, 1110295, 1110719, 1111148, 1111548, 1111946, 1112327, 1112744, 1113131, 1113564, 1113993, 1114329, 1114792, 1115147, 1115549, 1115931, 1116355, 1116738, 1117120, 1117513, 1117848, 1118266, 1118660]","[1109560, 1109959, 1110360, 1110760, 1111160, 1111560, 1111960, 1112360, 1112759, 1113146, 1113579, 1114007, 1114342, 1114745, 1115162, 1115565, 1115947, 1116371, 1116754, 1117136, 1117529, 1117865, 1118282, 1118676]",75,SB,U,R,ITMSR,1.1
4,600,trial,0,57,57,57,trial,"['S', 'S', 'S', 'S', 'S', 'S', 'S', 'S', 'C', 'C', 'C', 'C', 'C', 'C', 'C', 'C', 'C', 'C', 'C', 'C', 'C', 'C', 'C', 'C', 'C']","[1124260, 1124595, 1125222, 1125828, 1126434, 1127019, 1127643, 1128250, 1128820, 1129470, 1130059, 1130648, 1131222, 1131806, 1132405, 1133007, 1133111, 1133562, 1134160, 1134813, 1135419, 1135965, 1136467, 1137116, 1137675]","[1124342, 1124692, 1125394, 1125979, 1126620, 1127188, 1127830, 1128399, 1129047, 1129657, 1130231, 1130867, 1131417, 1132051, 1132666, 1133031, 1133268, 1133858, 1134412, 1135033, 1135588, 1136228, 1136765, 1137291, 1137924]","[88, 52, 16, 231, 57, 63, 251, 59, 216, 206, 164, 252, 32, 230, 2, 245, 71, 191, 29, 219, 81, 80, 98, 43, 46]","[1124263, 1124599, 1125227, 1125832, 1126438, 1127023, 1127648, 1128254, 1128824, 1129476, 1130064, 1130652, 1131227, 1131811, 1132409, 1133011, 1133150, 1133569, 1134164, 1134818, 1135423, 1135969, 1136472, 1137120, 1137679]","[1124111, 1124711, 1125311, 1125911, 1126511, 1127111, 1127711, 1128311, 1128840, 1129490, 1130079, 1130669, 1131242, 1131826, 1132425, 1133027, 1133582, 1134180, 1134833, 1135439, 1135985, 1136487, 1137136, 1137695]",75,SB,U,R,ITMSR,1.1
2,400,trial,0,58,58,58,trial,"['S', 'S', 'S', 'S', 'S', 'S', 'S', 'S', 'C', 'C', 'C', 'C', 'C', 'C', 'C', 'C', 'C', 'C', 'C', 'C', 'C', 'C', 'C', 'C']","[1143590, 1143943, 1144224, 1144582, 1144949, 1145355, 1145748, 1146123, 1146567, 1146970, 1147398, 1147786, 1148192, 1148601, 1148990, 1149424, 1149829, 1150275, 1150690, 1151100, 1151509, 1151935, 1152227, 1152671]","[1143671, 1144027, 1144275, 1144662, 1145044, 1145469, 1145862, 1146222, 1146673, 1147085, 1147495, 1147897, 1148303, 1148707, 1149114, 1149526, 1149926, 1150382, 1150788, 1151207, 1151606, 1152038, 1152385, 1152768]","[37, 228, 23, 233, 24, 70, 9, 32, 228, 95, 175, 228, 194, 247, 6, 223, 238, 244, 225, 205, 1, 30, 218, 199]","[1143598, 1143947, 1144229, 1144587, 1144954, 1145360, 1145753, 1146127, 1146572, 1147044, 1147404, 1147792, 1148198, 1148606, 1148995, 1149430, 1149834, 1150280, 1150695, 1151107, 1151514, 1151940, 1152233, 1152677]","[1143391, 1143791, 1144192, 1144591, 1144991, 1145391, 1145791, 1146191, 1146587, 1146990, 1147418, 1147806, 1148212, 1148621, 1149010, 1149444, 1149849, 1150296, 1150710, 1151120, 1151529, 1151955, 1152247, 1152691]",75,SB,U,R,ITMSR,1.1
0,400,trial,0,59,59,59,trial,"['S', 'S', 'S', 'S', 'S', 'S', 'S', 'C', 'C', 'C', 'C', 'C', 'C', 'C', 'C', 'C', 'C', 'C', 'C', 'C', 'C', 'C', 'C']","[1158452, 1158859, 1159307, 1159706, 1160104, 1160514, 1160886, 1161314, 1161698, 1162107, 1162527, 1162912, 1163287, 1163697, 1164071, 1164486, 1164876, 1165265, 1165679, 1166065, 1166449, 1166841, 1167177]","[1158534, 1158965, 1159407, 1159804, 1160200, 1160597, 1160976, 1161406, 1161809, 1162215, 1162624, 1163023, 1163384, 1163810, 1164171, 1164590, 1164992, 1165369, 1165785, 1166160, 1166548, 1166927, 1167262]","[218, 85, 80, 6, 250, 226, 8, 153, 154, 166, 121, 199, 148, 183, 120, 163, 177, 219, 197, 123, 166, 156, 250]","[1158458, 1158863, 1159311, 1159711, 1160109, 1160518, 1160891, 1161320, 1161705, 1162113, 1162533, 1162917, 1163293, 1163702, 1164079, 1164492, 1164882, 1165271, 1165684, 1166071, 1166455, 1166848, 1167182]","[1158155, 1158555, 1158956, 1159355, 1159755, 1160155, 1160555, 1160955, 1161334, 1161718, 1162127, 1162547, 1162932, 1163308, 1163717, 1164091, 1164506, 1164896, 1165285, 1165699, 1166085, 1166469, 1166861, 1167197]",75,SB,U,R,ITMSR,1.1
4,600,trial,0,60,60,60,trial,"['S', 'S', 'S', 'S', 'S', 'S', 'S', 'C', 'C', 'C', 'C', 'C', 'C', 'C', 'C', 'C', 'C', 'C', 'C', 'C', 'C', 'C', 'C']","[1173092, 1173809, 1174434, 1175001, 1175682, 1176268, 1176871, 1177499, 1178117, 1178740, 1179328, 1179883, 1180518, 1181088, 1181629, 1182215, 1182755, 1183322, 1183925, 1184496, 1185106, 1185712, 1186366]","[1173206, 1174032, 1174625, 1175260, 1175888, 1176504, 1177112, 1177705, 1178309, 1178888, 1179528, 1180075, 1180717, 1181292, 1181825, 1182390, 1182931, 1183510, 1184057, 1184764, 1185373, 1185960, 1186596]","[108, 169, 234, 249, 225, 116, 97, 195, 212, 119, 171, 7, 253, 253, 212, 81, 171, 145, 190, 191, 168, 77, 208]","[1173099, 1173814, 1174438, 1175005, 1175687, 1176272, 1176878, 1177505, 1178121, 1178745, 1179333, 1179888, 1180522, 1181093, 1181635, 1182222, 1182760, 1183328, 1183930, 1184501, 1185113, 1185718, 1186371]","[1172767, 1173366, 1173966, 1174566, 1175166, 1175767, 1176366, 1176966, 1177519, 1178137, 1178760, 1179348, 1179904, 1180538, 1181108, 1181649, 1182235, 1182775, 1183342, 1183945, 1184516, 1185126, 1185732, 1186386]",75,SB,U,R,ITMSR,1.1
4,400,trial,0,61,61,61,trial,"['S', 'S', 'S', 'S', 'S', 'S', 'S', 'S', 'C', 'C', 'C', 'C', 'C', 'C', 'C', 'C', 'C', 'C', 'C', 'C', 'C', 'C', 'C', 'C']","[1192164, 1192562, 1192864, 1193152, 1193546, 1193926, 1194363, 1194770, 1195157, 1195564, 1195942, 1196344, 1196717, 1197079, 1197480, 1197860, 1198273, 1198687, 1199071, 1199479, 1199878, 1200249, 1200640, 1201028]","[1192264, 1192643, 1192935, 1193253, 1193648, 1194023, 1194481, 1194881, 1195264, 1195666, 1196046, 1196455, 1196827, 1197189, 1197588, 1197959, 1198379, 1198800, 1199187, 1199595, 1200006, 1200378, 1200749, 1201141]","[223, 2, 175, 53, 55, 53, 235, 244, 20, 237, 235, 11, 213, 177, 160, 171, 210, 231, 218, 204, 19, 10, 254, 14]","[1192169, 1192566, 1192869, 1193155, 1193550, 1193931, 1194369, 1194774, 1195161, 1195569, 1195948, 1196349, 1196722, 1197086, 1197488, 1197869, 1198279, 1198694, 1199078, 1199485, 1199883, 1200256, 1200647, 1201033]","[1192005, 1192406, 1192805, 1193205, 1193605, 1194005, 1194405, 1194805, 1195177, 1195584, 1195962, 1196364, 1196737, 1197100, 1197500, 1197880, 1198294, 1198707, 1199091, 1199499, 1199898, 1200269, 1200660, 1201048]",75,SB,U,R,ITMSR,1.1
0,600,trial,0,62,62,62,trial,"['S', 'S', 'S', 'S', 'S', 'S', 'S', 'S', 'C', 'C', 'C', 'C', 'C', 'C', 'C', 'C', 'C', 'C', 'C', 'C', 'C', 'C', 'C', 'C']","[1206834, 1207128, 1207877, 1208499, 1209077, 1209635, 1210202, 1210821, 1211389, 1211937, 1212583, 1213177, 1213790, 1214394, 1215014, 1215628, 1216224, 1216884, 1217437, 1218037, 1218661, 1219219, 1219889, 1220488]","[1206903, 1207413, 1208026, 1208725, 1209257, 1209816, 1210365, 1210969, 1211516, 1212104, 1212763, 1213400, 1213974, 1214566, 1215151, 1215784, 1216411, 1217010, 1217643, 1218199, 1218822, 1219396, 1220037, 1220668]","[240, 230, 245, 35, 33, 35, 4, 14, 180, 224, 192, 214, 210, 153, 39, 109, 183, 194, 190, 251, 20, 14, 253, 15]","[1206839, 1207133, 1207955, 1208504, 1209080, 1209639, 1210206, 1210825, 1211396, 1211942, 1212590, 1213182, 1213795, 1214400, 1215021, 1215712, 1216230, 1216890, 1217541, 1218042, 1218666, 1219224, 1219894, 1220492]","[1206671, 1207270, 1207870, 1208470, 1209070, 1209670, 1210270, 1210870, 1211409, 1211957, 1212603, 1213197, 1213810, 1214414, 1215034, 1215648, 1216244, 1216904, 1217457, 1218057, 1218681, 1219239, 1219909, 1220508]",75,SB,U,R,ITMSR,1.1
2,600,trial,0,63,63,63,trial,"['S', 'S', 'S', 'S', 'S', 'S', 'S', 'S', 'C', 'C', 'C', 'C', 'C', 'C', 'C', 'C', 'C', 'C', 'C', 'C', 'C', 'C', 'C', 'C', 'C']","[1226076, 1226368, 1226887, 1227570, 1228167, 1228793, 1229376, 1230026, 1230650, 1231271, 1231840, 1232447, 1233061, 1233590, 1234232, 1234813, 1235418, 1235520, 1235949, 1236615, 1237150, 1237745, 1238389, 1238991, 1239547]","[1226169, 1226482, 1227095, 1227750, 1228351, 1228938, 1229515, 1230142, 1230746, 1231385, 1231955, 1232578, 1233200, 1233771, 1234404, 1235032, 1235439, 1235582, 1236161, 1236794, 1237415, 1238013, 1238584, 1239194, 1239766]","[221, 34, 32, 242, 49, 22, 188, 210, 1, 231, 237, 242, 210, 237, 174, 208, 110, 120, 219, 8, 78, 104, 251, 253, 212]","[1226078, 1226372, 1226892, 1227575, 1228171, 1228798, 1229382, 1230030, 1230654, 1231276, 1231845, 1232452, 1233067, 1233594, 1234237, 1234820, 1235423, 1235520, 1235953, 1236620, 1237156, 1237751, 1238394, 1238998, 1239553]","[1225820, 1226420, 1227020, 1227620, 1228220, 1228820, 1229420, 1230020, 1230670, 1231291, 1231860, 1232467, 1233081, 1233610, 1234252, 1234833, 1235438, 1235970, 1236635, 1237170, 1237765, 1238409, 1239011, 1239567]",75,SB,U,R,ITMSR,1.1
0,600,trial,0,64,64,64,trial,"['S', 'S', 'S', 'S', 'S', 'S', 'S', 'C', 'C', 'C', 'C', 'C', 'C', 'C', 'C', 'C', 'C', 'C', 'C', 'C', 'C', 'C', 'C']","[1245723, 1246325, 1246951, 1247550, 1248147, 1248718, 1249363, 1249960, 1250552, 1251129, 1251744, 1252314, 1252897, 1253471, 1254065, 1254664, 1255282, 1255847, 1256482, 1257070, 1257624, 1258248, 1258776]","[1245837, 1246441, 1247096, 1247678, 1248276, 1248852, 1249503, 1250088, 1250707, 1251296, 1251898, 1252474, 1253046, 1253643, 1254200, 1254792, 1255420, 1255995, 1256624, 1257230, 1257801, 1258381, 1258983]","[122, 49, 49, 83, 35, 90, 31, 20, 247, 35, 33, 230, 14, 2, 181, 199, 220, 19, 34, 210, 243, 0, 47]","[1245729, 1246330, 1246955, 1247554, 1248151, 1248721, 1249369, 1249966, 1250558, 1251134, 1251748, 1252319, 1252902, 1253476, 1254071, 1254670, 1255288, 1255853, 1256487, 1257076, 1257629, 1258253, 1258780]","[1245237, 1245837, 1246437, 1247037, 1247637, 1248237, 1248837, 1249437, 1249980, 1250572, 1251149, 1251764, 1252334, 1252917, 1253491, 1254085, 1254684, 1255302, 1255867, 1256502, 1257090, 1257645, 1258268, 1258797]",75,SB,U,R,ITMSR,1.1
2,400,trial,0,65,65,65,trial,"['S', 'S', 'S', 'S', 'S', 'S', 'S', 'C', 'C', 'C', 'C', 'C', 'C', 'C', 'C', 'C', 'C', 'C', 'C', 'C', 'C', 'C', 'C']","[1264801, 1265120, 1265520, 1265937, 1266333, 1266719, 1267111, 1267536, 1267900, 1268327, 1268713, 1269152, 1269540, 1269938, 1270342, 1270766, 1271176, 1271621, 1272022, 1272458, 1272852, 1273245, 1273621]","[1264894, 1265202, 1265605, 1266023, 1266421, 1266832, 1267221, 1267644, 1268020, 1268431, 1268820, 1269251, 1269659, 1270036, 1270426, 1270851, 1271303, 1271727, 1272135, 1272556, 1272947, 1273367, 1273726]","[55, 57, 54, 34, 32, 49, 68, 222, 41, 12, 36, 221, 1, 244, 150, 144, 244, 131, 194, 180, 235, 18, 243]","[1264806, 1265124, 1265524, 1265941, 1266338, 1266723, 1267116, 1267542, 1267905, 1268332, 1268718, 1269158, 1269547, 1269943, 1270348, 1270772, 1271181, 1271626, 1272027, 1272464, 1272856, 1273250, 1273626]","[1264357, 1264757, 1265157, 1265557, 1265957, 1266357, 1266757, 1267158, 1267556, 1267920, 1268347, 1268733, 1269172, 1269560, 1269958, 1270362, 1270786, 1271196, 1271641, 1272042, 1272478, 1272872, 1273265, 1273641]",75,SB,U,R,ITMSR,1.1
0,400,trial,0,66,66,66,trial,"['S', 'S', 'S', 'S', 'S', 'S', 'S', 'C', 'C', 'C', 'C', 'C', 'C', 'C', 'C', 'C', 'C', 'C', 'C', 'C', 'C', 'C', 'C']","[1279417, 1279751, 1280132, 1280551, 1280962, 1281347, 1281742, 1282183, 1282604, 1282998, 1283396, 1283829, 1284192, 1284567, 1284978, 1285335, 1285756, 1286127, 1286529, 1286936, 1287289, 1287728, 1288109]","[1279513, 1279845, 1280223, 1280659, 1281073, 1281454, 1281847, 1282282, 1282704, 1283109, 1283503, 1283920, 1284287, 1284671, 1285083, 1285472, 1285870, 1286264, 1286642, 1287043, 1287393, 1287824, 1288220]","[95, 218, 35, 249, 0, 192, 236, 55, 51, 207, 176, 216, 170, 15, 13, 129, 144, 157, 154, 71, 219, 34, 7]","[1279467, 1279757, 1280138, 1280558, 1280968, 1281352, 1281787, 1282228, 1282648, 1283042, 1283440, 1283862, 1284229, 1284609, 1285017, 1285404, 1285807, 1286180, 1286561, 1286944, 1287333, 1287762, 1288142]","[1279017, 1279417, 1279817, 1280217, 1280617, 1281017, 1281417, 1281817, 1282203, 1282624, 1283018, 1283416, 1283849, 1284212, 1284587, 1284998, 1285355, 1285776, 1286147, 1286549, 1286957, 1287309, 1287748, 1288129]",75,SB,U,R,ITMSR,1.1
1,600,trial,0,67,67,67,trial,"['S', 'S', 'S', 'S', 'S', 'S', 'S', 'C', 'C', 'C', 'C', 'C', 'C', 'C', 'C', 'C', 'C', 'C', 'C', 'C', 'C', 'C', 'C', 'C', 'C', 'C', 'C', 'C']","[1294188, 1294885, 1295533, 1296150, 1296716, 1297309, 1297901, 1298417, 1299038, 1299642, 1300236, 1300860, 1301420, 1302078, 1302675, 1303240, 1303340, 1303814, 1303914, 1304457, 1304557, 1305037, 1305623, 1305725, 1306210, 1306767, 1307319, 1307419]","[1294297, 1295020, 1295651, 1296229, 1296821, 1297417, 1298013, 1298586, 1299173, 1299781, 1300386, 1301021, 1301615, 1302239, 1302821, 1303260, 1303363, 1303834, 1303934, 1304477, 1304579, 1305183, 1305644, 1305792, 1306385, 1306924, 1307339, 1307505]","[252, 241, 250, 241, 15, 103, 185, 76, 200, 234, 130, 161, 160, 222, 97, 101, 120, 117, 59, 27, 207, 54, 121, 180, 15, 39, 128, 95]","[1294193, 1294891, 1295538, 1296155, 1296721, 1297315, 1297969, 1298523, 1299124, 1299721, 1300316, 1300933, 1301424, 1302164, 1302770, 1303245, 1303343, 1303819, 1303914, 1304462, 1304557, 1305042, 1305625, 1305725, 1306316, 1306772, 1307321, 1307421]","[1293784, 1294384, 1294984, 1295584, 1296184, 1296784, 1297384, 1297984, 1298437, 1299058, 1299662, 1300256, 1300880, 1301440, 1302098, 1302695, 1303260, 1303834, 1304477, 1305057, 1305644, 1306230, 1306787, 1307339]",75,SB,U,R,ITMSR,1.1
2,600,trial,0,68,68,68,trial,"['S', 'S', 'S', 'S', 'S', 'S', 'S', 'C', 'C', 'C', 'C', 'C', 'C', 'C', 'C', 'C', 'C', 'C', 'C', 'C', 'C', 'C', 'C', 'C', 'C']","[1313315, 1314039, 1314694, 1315299, 1315868, 1316469, 1317046, 1317660, 1318313, 1318890, 1319482, 1319584, 1320000, 1320616, 1321254, 1321875, 1322476, 1323073, 1323713, 1324343, 1324901, 1325001, 1325537, 1326162, 1326753]","[1313430, 1314140, 1314790, 1315422, 1315987, 1316578, 1317190, 1317786, 1318438, 1319051, 1319504, 1319604, 1320203, 1320779, 1321407, 1322004, 1322672, 1323283, 1323893, 1324505, 1324921, 1325080, 1325770, 1326379, 1326948]","[60, 200, 246, 237, 90, 3, 222, 101, 63, 174, 175, 131, 128, 2, 115, 189, 113, 187, 75, 226, 128, 77, 90, 69, 62]","[1313376, 1314044, 1314698, 1315303, 1315873, 1316474, 1317050, 1317665, 1318319, 1318974, 1319486, 1319584, 1320004, 1320622, 1321260, 1321880, 1322482, 1323077, 1323717, 1324430, 1324904, 1325001, 1325542, 1326166, 1326757]","[1312960, 1313560, 1314160, 1314760, 1315360, 1315960, 1316560, 1317160, 1317680, 1318333, 1318910, 1319502, 1320020, 1320636, 1321274, 1321895, 1322497, 1323094, 1323734, 1324363, 1324921, 1325557, 1326182, 1326773]",75,SB,U,R,ITMSR,1.1
1,600,trial,0,69,69,69,trial,"['S', 'S', 'S', 'S', 'S', 'S', 'S', 'C', 'C', 'C', 'C', 'C', 'C', 'C', 'C', 'C', 'C', 'C', 'C', 'C', 'C', 'C', 'C']","[1332597, 1333362, 1334057, 1334669, 1335283, 1335911, 1336539, 1337145, 1337725, 1338345, 1338911, 1339548, 1340179, 1340771, 1341317, 1341884, 1342529, 1343149, 1343732, 1344320, 1344909, 1345455, 1346017]","[1332680, 1333498, 1334189, 1334810, 1335411, 1336031, 1336645, 1337290, 1337885, 1338511, 1339091, 1339727, 1340327, 1340928, 1341501, 1342114, 1342681, 1343305, 1343892, 1344495, 1345055, 1345670, 1346251]","[107, 116, 247, 57, 18, 236, 1, 215, 162, 60, 68, 93, 155, 48, 193, 39, 81, 70, 30, 28, 131, 169, 222]","[1332600, 1333366, 1334062, 1334673, 1335286, 1335915, 1336543, 1337150, 1337822, 1338352, 1339001, 1339553, 1340184, 1340859, 1341322, 1341999, 1342534, 1343154, 1343823, 1344415, 1345000, 1345461, 1346022]","[1332378, 1332978, 1333578, 1334178, 1334778, 1335378, 1335979, 1336578, 1337165, 1337745, 1338365, 1338931, 1339568, 1340199, 1340791, 1341337, 1341904, 1342550, 1343169, 1343752, 1344340, 1344929, 1345475, 1346037]",75,SB,U,R,ITMSR,1.1
5,600,trial,0,70,70,70,trial,"['S', 'S', 'S', 'S', 'S', 'S', 'S', 'C', 'C', 'C', 'C', 'C', 'C', 'C', 'C', 'C', 'C', 'C', 'C', 'C', 'C', 'C', 'C']","[1351858, 1352722, 1353384, 1354005, 1354595, 1355168, 1355771, 1356376, 1356971, 1357589, 1358229, 1358824, 1359398, 1359986, 1360562, 1361123, 1361699, 1362316, 1362837, 1363435, 1364059, 1364588, 1365200]","[1351955, 1352872, 1353517, 1354132, 1354748, 1355348, 1355931, 1356536, 1357124, 1357769, 1358362, 1358970, 1359562, 1360146, 1360711, 1361274, 1361886, 1362449, 1363042, 1363651, 1364240, 1364780, 1365356]","[159, 60, 56, 49, 246, 238, 222, 226, 167, 255, 230, 168, 196, 202, 166, 98, 83, 131, 179, 233, 135, 100, 91]","[1351864, 1352727, 1353390, 1354010, 1354599, 1355172, 1355776, 1356451, 1356975, 1357675, 1358233, 1358829, 1359404, 1359990, 1360567, 1361128, 1361704, 1362321, 1362842, 1363440, 1364064, 1364593, 1365284]","[1351614, 1352214, 1352814, 1353414, 1354014, 1354614, 1355214, 1355814, 1356396, 1356991, 1357609, 1358249, 1358844, 1359418, 1360006, 1360582, 1361143, 1361719, 1362336, 1362857, 1363456, 1364079, 1364609, 1365220]",75,SB,U,R,ITMSR,1.1
3,600,trial,0,71,71,71,trial,"['S', 'S', 'S', 'S', 'S', 'S', 'S', 'C', 'C', 'C', 'C', 'C', 'C', 'C', 'C', 'C', 'C', 'C', 'C', 'C', 'C', 'C', 'C']","[1371032, 1371728, 1372482, 1373106, 1373689, 1374274, 1374895, 1375501, 1376125, 1376726, 1377340, 1377983, 1378581, 1379231, 1379830, 1380418, 1381009, 1381543, 1382207, 1382810, 1383383, 1383956, 1384518]","[1371179, 1371921, 1372621, 1373274, 1373828, 1374419, 1375032, 1375628, 1376262, 1376906, 1377551, 1378162, 1378806, 1379382, 1379983, 1380571, 1381170, 1381720, 1382340, 1382961, 1383538, 1384093, 1384686]","[162, 252, 72, 97, 42, 4, 5, 241, 201, 12, 11, 153, 104, 246, 21, 39, 5, 19, 166, 176, 96, 157, 56]","[1371040, 1371734, 1372486, 1373110, 1373693, 1374278, 1374900, 1375506, 1376131, 1376730, 1377345, 1377989, 1378586, 1379236, 1379835, 1380422, 1381014, 1381549, 1382211, 1382814, 1383388, 1383960, 1384640]","[1370724, 1371324, 1371924, 1372524, 1373124, 1373724, 1374324, 1374924, 1375521, 1376145, 1376746, 1377360, 1378003, 1378601, 1379251, 1379850, 1380439, 1381029, 1381563, 1382227, 1382830, 1383403, 1383976, 1384538]",75,SB,U,R,ITMSR,1.1
4,400,trial,0,72,72,72,trial,"['S', 'S', 'S', 'S', 'S', 'S', 'S', 'C', 'C', 'C', 'C', 'C', 'C', 'C', 'C', 'C', 'C', 'C', 'C', 'C', 'C', 'C', 'C']","[1390571, 1390993, 1391396, 1391807, 1392215, 1392621, 1392992, 1393383, 1393759, 1394166, 1394571, 1394962, 1395291, 1395687, 1396075, 1396500, 1396854, 1397287, 1397698, 1398131, 1398504, 1398907, 1399297]","[1390720, 1391075, 1391479, 1391892, 1392286, 1392726, 1393075, 1393478, 1393848, 1394259, 1394659, 1395060, 1395410, 1395784, 1396174, 1396596, 1396966, 1397374, 1397803, 1398221, 1398621, 1399020, 1399393]","[199, 47, 103, 88, 53, 23, 86, 93, 73, 14, 7, 16, 58, 42, 37, 254, 32, 218, 0, 190, 125, 201, 213]","[1390654, 1390997, 1391400, 1391811, 1392220, 1392625, 1392997, 1393387, 1393763, 1394171, 1394576, 1394967, 1395295, 1395691, 1396081, 1396506, 1396858, 1397293, 1397702, 1398138, 1398573, 1398913, 1399302]","[1390249, 1390649, 1391049, 1391449, 1391849, 1392249, 1392649, 1393049, 1393403, 1393779, 1394186, 1394591, 1394982, 1395311, 1395707, 1396096, 1396520, 1396874, 1397307, 1397719, 1398151, 1398524, 1398927, 1399317]",75,SB,U,R,ITMSR,1.1
1,400,trial,0,73,73,73,trial,"['S', 'S', 'S', 'S', 'S', 'S', 'S', 'C', 'C', 'C', 'C', 'C', 'C', 'C', 'C', 'C', 'C', 'C', 'C', 'C', 'C', 'C', 'C']","[1405343, 1405765, 1406167, 1406629, 1407030, 1407464, 1407858, 1408272, 1408693, 1409136, 1409524, 1409943, 1410343, 1410683, 1411080, 1411489, 1411898, 1412317, 1412717, 1413118, 1413542, 1413929, 1414322]","[1405462, 1405863, 1406291, 1406727, 1407132, 1407554, 1407932, 1408363, 1408798, 1409235, 1409618, 1410029, 1410430, 1410820, 1411171, 1411569, 1411987, 1412419, 1412805, 1413218, 1413635, 1414034, 1414425]","[124, 27, 53, 50, 82, 216, 255, 12, 249, 96, 215, 20, 210, 216, 242, 118, 233, 171, 196, 26, 45, 56, 3]","[1405418, 1405769, 1406171, 1406632, 1407034, 1407469, 1407862, 1408276, 1408698, 1409142, 1409530, 1409947, 1410350, 1410689, 1411085, 1411494, 1411903, 1412322, 1412721, 1413125, 1413550, 1413937, 1414327]","[1405095, 1405495, 1405895, 1406296, 1406696, 1407096, 1407496, 1407896, 1408292, 1408713, 1409156, 1409544, 1409964, 1410363, 1410703, 1411100, 1411509, 1411918, 1412337, 1412738, 1413138, 1413562, 1413949, 1414342]",75,SB,U,R,ITMSR,1.1
1,400,trial,0,74,74,74,trial,"['S', 'S', 'S', 'S', 'S', 'S', 'S', 'C', 'C', 'C', 'C', 'C', 'C', 'C', 'C', 'C', 'C', 'C', 'C', 'C', 'C', 'C', 'C']","[1420345, 1420666, 1421071, 1421476, 1421900, 1422300, 1422695, 1423149, 1423575, 1423993, 1424399, 1424792, 1425187, 1425609, 1426008, 1426435, 1426823, 1427245, 1427666, 1428092, 1428486, 1428902, 1429321]","[1420429, 1420750, 1421134, 1421569, 1421973, 1422397, 1422791, 1423243, 1423673, 1424093, 1424507, 1424883, 1425293, 1425724, 1426101, 1426534, 1426949, 1427380, 1427776, 1428214, 1428618, 1429028, 1429452]","[188, 101, 89, 102, 48, 68, 72, 24, 39, 69, 50, 14, 66, 70, 62, 14, 44, 10, 17, 11, 10, 35, 16]","[1420350, 1420670, 1421074, 1421481, 1421905, 1422305, 1422698, 1423154, 1423579, 1423997, 1424404, 1424798, 1425191, 1425614, 1426013, 1426439, 1426827, 1427249, 1427671, 1428098, 1428490, 1428907, 1429326]","[1419962, 1420361, 1420761, 1421161, 1421561, 1421961, 1422361, 1422761, 1423169, 1423595, 1424013, 1424419, 1424813, 1425207, 1425629, 1426028, 1426455, 1426843, 1427265, 1427686, 1428112, 1428506, 1428922, 1429341]",75,SB,U,R,ITMSR,1.1
5,600,trial,0,75,75,75,trial,"['S', 'S', 'S', 'S', 'S', 'S', 'S', 'C', 'C', 'C', 'C', 'C', 'C', 'C', 'C', 'C', 'C', 'C', 'C', 'C', 'C', 'C', 'C', 'C']","[1435222, 1436032, 1436700, 1437285, 1437932, 1438497, 1439101, 1439630, 1440214, 1440796, 1441362, 1441927, 1442555, 1443093, 1443660, 1444261, 1444878, 1445444, 1446004, 1446546, 1447104, 1447617, 1448175, 1448278]","[1435316, 1436180, 1436844, 1437470, 1438040, 1438693, 1439257, 1439791, 1440402, 1440986, 1441569, 1442193, 1442715, 1443303, 1443907, 1444451, 1445043, 1445604, 1446141, 1446672, 1447262, 1447876, 1448198, 1448443]","[218, 187, 229, 249, 35, 248, 251, 231, 218, 226, 206, 255, 4, 200, 225, 240, 201, 237, 245, 219, 214, 173, 117, 142]","[1435227, 1436037, 1436704, 1437289, 1437936, 1438501, 1439106, 1439634, 1440219, 1440801, 1441366, 1441930, 1442558, 1443097, 1443663, 1444264, 1444881, 1445447, 1446007, 1446549, 1447107, 1447620, 1448179, 1448279]","[1434940, 1435540, 1436140, 1436740, 1437340, 1437940, 1438540, 1439140, 1439650, 1440234, 1440816, 1441382, 1441947, 1442575, 1443113, 1443680, 1444281, 1444898, 1445464, 1446024, 1446566, 1447124, 1447638, 1448195]",75,SB,U,R,ITMSR,1.1
3,400,trial,0,76,76,76,trial,"['S', 'S', 'S', 'S', 'S', 'S', 'S', 'C', 'C', 'C', 'C', 'C', 'C', 'C', 'C', 'C', 'C', 'C', 'C', 'C', 'C', 'C', 'C']","[1453832, 1454232, 1454645, 1455050, 1455458, 1455930, 1456309, 1456689, 1457131, 1457513, 1457917, 1458339, 1458720, 1459129, 1459504, 1459920, 1460326, 1460731, 1461132, 1461517, 1461917, 1462319, 1462689]","[1453949, 1454319, 1454741, 1455130, 1455546, 1456008, 1456392, 1456799, 1457229, 1457615, 1457937, 1458424, 1458837, 1459220, 1459576, 1459940, 1460346, 1460751, 1461152, 1461537, 1461937, 1462411, 1462709]","[9, 62, 102, 64, 83, 74, 25, 39, 209, 81, 170, 96, 21, 191, 165, 170, 38, 51, 173, 54, 13, 254, 123]","[1453837, 1454236, 1454648, 1455053, 1455462, 1455934, 1456313, 1456692, 1457135, 1457516, 1457921, 1458341, 1458723, 1459132, 1459507, 1459922, 1460328, 1460734, 1461134, 1461519, 1461920, 1462322, 1462691]","[1453527, 1453926, 1454326, 1454726, 1455126, 1455526, 1455926, 1456326, 1456709, 1457152, 1457533, 1457937, 1458359, 1458740, 1459149, 1459524, 1459940, 1460346, 1460751, 1461152, 1461537, 1461937, 1462339, 1462709]",75,SB,U,R,ITMSR,1.1
5,400,trial,0,77,77,77,trial,"['S', 'S', 'S', 'S', 'S', 'S', 'S', 'C', 'C', 'C', 'C', 'C', 'C', 'C', 'C', 'C', 'C', 'C', 'C', 'C', 'C', 'C', 'C']","[1468615, 1468944, 1469368, 1469799, 1470224, 1470594, 1470983, 1471357, 1471761, 1472141, 1472548, 1472929, 1473292, 1473711, 1474102, 1474498, 1474919, 1475294, 1475713, 1476037, 1476444, 1476827, 1477226]","[1468702, 1469020, 1469441, 1469878, 1470300, 1470682, 1471067, 1471455, 1471859, 1472234, 1472660, 1473032, 1473406, 1473794, 1474199, 1474590, 1475014, 1475390, 1475804, 1476167, 1476528, 1476922, 1477319]","[147, 5, 77, 102, 71, 39, 69, 79, 51, 55, 66, 66, 60, 71, 68, 90, 62, 108, 72, 32, 45, 46, 56]","[1468620, 1468948, 1469372, 1469802, 1470227, 1470598, 1470986, 1471362, 1471766, 1472145, 1472552, 1472934, 1473296, 1473715, 1474107, 1474502, 1474924, 1475297, 1475716, 1476041, 1476449, 1476832, 1477230]","[1468223, 1468623, 1469023, 1469423, 1469824, 1470223, 1470623, 1471023, 1471377, 1471781, 1472161, 1472568, 1472949, 1473312, 1473731, 1474122, 1474519, 1474939, 1475314, 1475733, 1476057, 1476464, 1476847, 1477246]",75,SB,U,R,ITMSR,1.1
0,600,trial,0,78,78,78,trial,"['S', 'S', 'S', 'S', 'S', 'S', 'S', 'C', 'C', 'C', 'C', 'C', 'C', 'C', 'C', 'C', 'C', 'C', 'C', 'C', 'C', 'C', 'C', 'C', 'C']","[1504306, 1505003, 1505638, 1506316, 1506886, 1507452, 1508100, 1508684, 1509344, 1509901, 1510520, 1511095, 1511643, 1512309, 1512411, 1512834, 1512934, 1513494, 1514159, 1514740, 1515369, 1515930, 1516544, 1517097, 1517685]","[1504418, 1505128, 1505779, 1506416, 1507041, 1507628, 1508248, 1508832, 1509467, 1510073, 1510657, 1511279, 1511810, 1512331, 1512431, 1512854, 1513025, 1513582, 1514285, 1514890, 1515502, 1516114, 1516677, 1517316, 1517862]","[1, 53, 87, 33, 44, 33, 42, 8, 157, 196, 216, 248, 231, 184, 171, 133, 237, 234, 79, 85, 224, 250, 127, 228, 236]","[1504312, 1505007, 1505642, 1506320, 1506890, 1507457, 1508104, 1508689, 1509350, 1509906, 1510524, 1511100, 1511647, 1512314, 1512412, 1512840, 1512984, 1513499, 1514164, 1514745, 1515374, 1515934, 1516549, 1517103, 1517690]","[1503969, 1504569, 1505169, 1505769, 1506369, 1506969, 1507569, 1508169, 1508704, 1509364, 1509921, 1510540, 1511115, 1511663, 1512329, 1512854, 1513515, 1514179, 1514760, 1515389, 1515950, 1516564, 1517117, 1517705]",75,SB,U,R,ITMSR,1.1
2,600,trial,0,79,79,79,trial,"['S', 'S', 'S', 'S', 'S', 'S', 'S', 'C', 'C', 'C', 'C', 'C', 'C', 'C', 'C', 'C', 'C', 'C', 'C', 'C', 'C', 'C', 'C']","[1523608, 1524324, 1525072, 1525729, 1526322, 1526902, 1527498, 1528140, 1528755, 1529367, 1529990, 1530590, 1531150, 1531737, 1532329, 1532935, 1533563, 1534163, 1534778, 1535339, 1535976, 1536518, 1537166]","[1523692, 1524518, 1525250, 1525885, 1526528, 1527100, 1527723, 1528349, 1528939, 1529601, 1530178, 1530753, 1531438, 1532045, 1532571, 1533132, 1533719, 1534323, 1534946, 1535565, 1536162, 1536780, 1537371]","[183, 9, 24, 76, 123, 134, 85, 91, 39, 56, 86, 68, 94, 91, 84, 78, 104, 66, 82, 82, 79, 85, 15]","[1523614, 1524330, 1525078, 1525733, 1526325, 1526906, 1527502, 1528144, 1528760, 1529372, 1529994, 1530594, 1531154, 1531741, 1532334, 1532940, 1533569, 1534169, 1534783, 1535344, 1535981, 1536522, 1537261]","[1523387, 1523986, 1524586, 1525186, 1525786, 1526386, 1526986, 1527586, 1528160, 1528775, 1529388, 1530010, 1530610, 1531170, 1531757, 1532349, 1532955, 1533583, 1534183, 1534798, 1535360, 1535996, 1536538, 1537186]",75,SB,U,R,ITMSR,1.1
4,600,trial,0,80,80,80,trial,"['S', 'S', 'S', 'S', 'S', 'S', 'S', 'C', 'C', 'C', 'C', 'C', 'C', 'C', 'C', 'C', 'C', 'C', 'C', 'C', 'C', 'C', 'C']","[1543385, 1544091, 1544727, 1545371, 1545992, 1546556, 1547181, 1547740, 1548297, 1548937, 1549542, 1550132, 1550750, 1551385, 1551973, 1552501, 1553127, 1553740, 1554356, 1554960, 1555539, 1556079, 1556655]","[1543554, 1544291, 1544988, 1545601, 1546211, 1546777, 1547319, 1547923, 1548613, 1549277, 1549838, 1550392, 1550945, 1551560, 1552232, 1552820, 1553387, 1554020, 1554569, 1555175, 1555819, 1556380]","[36, 63, 74, 112, 109, 100, 103, 90, 96, 95, 116, 113, 118, 101, 96, 93, 112, 72, 6, 52, 70, 103]","[1543390, 1544095, 1544731, 1545375, 1545996, 1546560, 1547185, 1547745, 1548301, 1548941, 1549547, 1550136, 1550754, 1551389, 1551977, 1552505, 1553131, 1553743, 1554475, 1554965, 1555545, 1556082]","[1542978, 1543578, 1544178, 1544778, 1545378, 1545978, 1546578, 1547179, 1547760, 1548317, 1548957, 1549562, 1550152, 1550770, 1551405, 1551993, 1552521, 1553147, 1553760, 1554376, 1554980, 1555559, 1556099, 1556675]",75,SB,U,R,ITMSR,1.1
5,400,trial,0,81,81,81,trial,"['S', 'S', 'S', 'S', 'S', 'S', 'S', 'C', 'C', 'C', 'C', 'C', 'C', 'C', 'C', 'C', 'C', 'C', 'C', 'C', 'C', 'C', 'C']","[1562699, 1563036, 1563356, 1563759, 1564154, 1564547, 1564983, 1565368, 1565765, 1566166, 1566573, 1566959, 1567376, 1567806, 1568174, 1568537, 1568908, 1569327, 1569733, 1570082, 1570500, 1570885, 1571254]","[1562823, 1563131, 1563476, 1563889, 1564261, 1564681, 1565114, 1565512, 1565902, 1566303, 1566699, 1567085, 1567493, 1567902, 1568306, 1568665, 1569038, 1569453, 1569873, 1570234, 1570622, 1570987, 1571392]","[56, 73, 96, 119, 93, 90, 79, 92, 81, 84, 82, 85, 87, 244, 226, 74, 45, 67, 69, 60, 69, 55, 64]","[1562703, 1563040, 1563360, 1563763, 1564157, 1564550, 1564987, 1565372, 1565769, 1566170, 1566578, 1566963, 1567379, 1567812, 1568248, 1568541, 1568913, 1569331, 1569737, 1570087, 1570504, 1570890, 1571259]","[1562220, 1562620, 1563020, 1563420, 1563821, 1564221, 1564621, 1565021, 1565388, 1565785, 1566186, 1566594, 1566979, 1567396, 1567826, 1568194, 1568557, 1568928, 1569347, 1569753, 1570102, 1570520, 1570905, 1571274]",75,SB,U,R,ITMSR,1.1
1,600,trial,0,82,82,82,trial,"['S', 'S', 'S', 'S', 'S', 'S', 'S', 'C', 'C', 'C', 'C', 'C', 'C', 'C', 'C', 'C', 'C', 'C', 'C', 'C', 'C', 'C', 'C']","[1577014, 1577686, 1578327, 1578934, 1579537, 1580192, 1580770, 1581399, 1582014, 1582685, 1583269, 1583886, 1584419, 1585025, 1585603, 1586211, 1586811, 1587382, 1587961, 1588544, 1589132, 1589695, 1590343]","[1577104, 1577826, 1578500, 1579115, 1579767, 1580366, 1580994, 1581629, 1582226, 1582849, 1583420, 1584074, 1584666, 1585284, 1585864, 1586473, 1587035, 1587606, 1588241, 1588787, 1589370, 1589987]","[225, 44, 241, 43, 68, 247, 64, 8, 25, 254, 69, 152, 244, 25, 35, 56, 13, 44, 61, 83, 94, 19]","[1577020, 1577690, 1578331, 1578938, 1579541, 1580196, 1580774, 1581403, 1582019, 1582690, 1583272, 1583891, 1584424, 1585030, 1585607, 1586214, 1586903, 1587385, 1587965, 1588548, 1589137, 1589699]","[1576621, 1577221, 1577821, 1578421, 1579021, 1579621, 1580221, 1580821, 1581419, 1582034, 1582705, 1583289, 1583906, 1584439, 1585045, 1585624, 1586231, 1586831, 1587402, 1587981, 1588564, 1589152, 1589715, 1590363]",75,SB,U,R,ITMSR,1.1
0,400,trial,0,83,83,83,trial,"['S', 'S', 'S', 'S', 'S', 'S', 'S', 'C', 'C', 'C', 'C', 'C', 'C', 'C', 'C', 'C', 'C', 'C', 'C', 'C', 'C', 'C', 'C']","[1596402, 1596753, 1597082, 1597473, 1597879, 1598288, 1598662, 1599066, 1599462, 1599874, 1600262, 1600637, 1601031, 1601436, 1601816, 1602227, 1602596, 1602991, 1603373, 1603751, 1604128, 1604529, 1604911]","[1596524, 1596830, 1597193, 1597605, 1597979, 1598400, 1598796, 1599190, 1599589, 1600016, 1600358, 1600762, 1601157, 1601551, 1601958, 1602361, 1602712, 1603117, 1603501, 1603854, 1604235, 1604632, 1605061]","[35, 49, 91, 99, 93, 69, 89, 64, 42, 5, 27, 74, 59, 87, 39, 57, 71, 75, 69, 74, 50, 57, 86]","[1596475, 1596759, 1597086, 1597477, 1597884, 1598292, 1598666, 1599070, 1599465, 1599879, 1600267, 1600642, 1601035, 1601440, 1601820, 1602231, 1602600, 1602995, 1603376, 1603756, 1604132, 1604533, 1604914]","[1595929, 1596329, 1596729, 1597129, 1597529, 1597929, 1598329, 1598729, 1599086, 1599482, 1599894, 1600282, 1600657, 1601051, 1601456, 1601837, 1602247, 1602616, 1603011, 1603393, 1603771, 1604148, 1604549, 1604931]",75,SB,U,R,ITMSR,1.1
1,600,trial,0,84,84,84,trial,"['S', 'S', 'S', 'S', 'S', 'S', 'S', 'C', 'C', 'C', 'C', 'C', 'C', 'C', 'C', 'C', 'C', 'C', 'C', 'C', 'C', 'C', 'C']","[1610817, 1611596, 1612282, 1612884, 1613554, 1614082, 1614680, 1615268, 1615888, 1616474, 1617053, 1617616, 1618186, 1618776, 1619352, 1619939, 1620474, 1621088, 1621655, 1622246, 1622761, 1623312, 1623908]","[1610940, 1611809, 1612504, 1613119, 1613699, 1614262, 1614886, 1615469, 1616109, 1616650, 1617319, 1617908, 1618460, 1619010, 1619568, 1620213, 1620830, 1621309, 1621874, 1622427, 1623062, 1623568, 1624170]","[255, 56, 93, 85, 116, 107, 77, 21, 75, 223, 95, 85, 63, 60, 51, 38, 94, 73, 73, 67, 80, 65, 57]","[1610823, 1611601, 1612286, 1612888, 1613558, 1614086, 1614684, 1615272, 1615891, 1616478, 1617057, 1617620, 1618190, 1618781, 1619357, 1619944, 1620480, 1621091, 1621659, 1622250, 1622765, 1623315, 1623911]","[1610537, 1611138, 1611738, 1612338, 1612938, 1613538, 1614138, 1614738, 1615288, 1615908, 1616494, 1617073, 1617636, 1618206, 1618796, 1619373, 1619959, 1620494, 1621108, 1621676, 1622266, 1622781, 1623332, 1623928]",75,SB,U,R,ITMSR,1.1
1,400,trial,0,85,85,85,trial,"['S', 'S', 'S', 'S', 'S', 'S', 'S', 'C', 'C', 'C', 'C', 'C', 'C', 'C', 'C', 'C', 'C', 'C', 'C', 'C', 'C', 'C', 'C']","[1630149, 1630482, 1630806, 1631221, 1631639, 1632018, 1632390, 1632799, 1633224, 1633596, 1633984, 1634387, 1634787, 1635150, 1635524, 1635954, 1636350, 1636738, 1637177, 1637509, 1637884, 1638270, 1638623]","[1630279, 1630574, 1630910, 1631346, 1631727, 1632120, 1632521, 1632924, 1633317, 1633720, 1634097, 1634507, 1634893, 1635272, 1635662, 1636069, 1636477, 1636842, 1637279, 1637626, 1637998, 1638359, 1638705]","[213, 55, 66, 68, 54, 71, 74, 23, 35, 64, 69, 72, 59, 96, 77, 37, 66, 35, 57, 27, 31, 51, 48]","[1630155, 1630487, 1630810, 1631225, 1631643, 1632022, 1632394, 1632804, 1633229, 1633600, 1633988, 1634392, 1634792, 1635154, 1635528, 1635959, 1636355, 1636743, 1637181, 1637514, 1637889, 1638275, 1638627]","[1629667, 1630066, 1630466, 1630866, 1631266, 1631666, 1632066, 1632466, 1632819, 1633244, 1633616, 1634004, 1634407, 1634807, 1635170, 1635544, 1635974, 1636370, 1636758, 1637197, 1637529, 1637904, 1638290, 1638643]",75,SB,U,R,ITMSR,1.1
4,600,trial,0,86,86,86,trial,"['S', 'S', 'S', 'S', 'S', 'S', 'S', 'C', 'C', 'C', 'C', 'C', 'C', 'C', 'C', 'C', 'C', 'C', 'C', 'C', 'C', 'C', 'C']","[1644570, 1645255, 1645864, 1646460, 1647128, 1647667, 1648316, 1648907, 1649537, 1650143, 1650779, 1651365, 1651947, 1652459, 1653112, 1653719, 1654280, 1654839, 1655408, 1655944, 1656593, 1657160, 1657722]","[1644681, 1645424, 1646044, 1646656, 1647262, 1647833, 1648470, 1649103, 1649695, 1650316, 1650946, 1651566, 1652189, 1652663, 1653276, 1653889, 1654491, 1655069, 1655651, 1656251, 1656788, 1657366, 1657900]","[255, 118, 86, 122, 66, 45, 43, 209, 21, 208, 70, 53, 33, 29, 49, 40, 21, 44, 37, 95, 57, 64, 76]","[1644640, 1645338, 1645869, 1646465, 1647132, 1647672, 1648320, 1648912, 1649542, 1650148, 1650783, 1651368, 1651951, 1652465, 1653116, 1653723, 1654284, 1654843, 1655411, 1655947, 1656597, 1657163, 1657726]","[1644148, 1644748, 1645348, 1645948, 1646548, 1647149, 1647749, 1648349, 1648927, 1649557, 1650163, 1650799, 1651385, 1651968, 1652480, 1653132, 1653739, 1654300, 1654859, 1655428, 1655964, 1656613, 1657180, 1657742]",75,SB,U,R,ITMSR,1.1
2,600,trial,0,87,87,87,trial,"['S', 'S', 'S', 'S', 'S', 'S', 'S', 'C', 'C', 'C', 'C', 'C', 'C', 'C', 'C', 'C', 'C', 'C', 'C', 'C', 'C', 'C', 'C', 'C', 'C']","[1663801, 1664546, 1665236, 1665882, 1666430, 1666995, 1667651, 1668218, 1668843, 1669457, 1670043, 1670689, 1671198, 1671855, 1672508, 1672608, 1673157, 1673259, 1673751, 1674324, 1674948, 1675553, 1676178, 1676747, 1677388]","[1663987, 1664746, 1665403, 1666040, 1666606, 1667215, 1667815, 1668428, 1669011, 1669668, 1670254, 1670864, 1671495, 1672120, 1672528, 1672721, 1673177, 1673378, 1673945, 1674568, 1675201, 1675749, 1676382, 1676958, 1677408]","[14, 48, 44, 156, 246, 12, 19, 232, 217, 21, 29, 13, 170, 234, 142, 58, 53, 38, 106, 96, 106, 157, 68, 119, 55]","[1663805, 1664550, 1665240, 1665885, 1666435, 1666999, 1667655, 1668222, 1668847, 1669460, 1670047, 1670693, 1671202, 1671859, 1672511, 1672610, 1673160, 1673259, 1673754, 1674328, 1674951, 1675556, 1676182, 1676750, 1677389]","[1663486, 1664086, 1664685, 1665285, 1665885, 1666485, 1667085, 1667685, 1668238, 1668864, 1669477, 1670063, 1670709, 1671218, 1671875, 1672528, 1673177, 1673772, 1674344, 1674968, 1675573, 1676198, 1676767, 1677408]",75,SB,U,R,ITMSR,1.1
1,400,trial,0,88,88,88,trial,"['S', 'S', 'S', 'S', 'S', 'S', 'S', 'C', 'C', 'C', 'C', 'C', 'C', 'C', 'C', 'C', 'C', 'C', 'C', 'C', 'C', 'C', 'C']","[1683473, 1683867, 1684315, 1684706, 1685140, 1685572, 1685965, 1686367, 1686740, 1687151, 1687552, 1687949, 1688363, 1688763, 1689127, 1689518, 1689938, 1690327, 1690728, 1691143, 1691538, 1691937, 1692265]","[1683574, 1683958, 1684385, 1684818, 1685225, 1685675, 1686082, 1686480, 1686857, 1687262, 1687662, 1688068, 1688470, 1688879, 1689252, 1689632, 1690035, 1690449, 1690844, 1691237, 1691638, 1692046, 1692354]","[169, 0, 18, 78, 82, 68, 85, 55, 30, 82, 86, 92, 101, 88, 78, 64, 76, 73, 89, 100, 66, 72, 99]","[1683477, 1683872, 1684319, 1684710, 1685143, 1685576, 1685969, 1686371, 1686744, 1687154, 1687555, 1687952, 1688366, 1688766, 1689132, 1689522, 1689943, 1690331, 1690733, 1691147, 1691542, 1691940, 1692270]","[1683193, 1683593, 1683993, 1684393, 1684793, 1685193, 1685593, 1685993, 1686387, 1686760, 1687171, 1687572, 1687969, 1688383, 1688783, 1689147, 1689538, 1689958, 1690347, 1690748, 1691163, 1691558, 1691957, 1692285]",75,SB,U,R,ITMSR,1.1
3,400,trial,0,89,89,89,trial,"['S', 'S', 'S', 'S', 'S', 'S', 'S', 'C', 'C', 'C', 'C', 'C', 'C', 'C', 'C', 'C', 'C', 'C', 'C', 'C', 'C', 'C', 'C']","[1698374, 1698707, 1699133, 1699540, 1699951, 1700331, 1700714, 1701134, 1701547, 1701943, 1702351, 1702734, 1703092, 1703429, 1703821, 1704236, 1704639, 1705047, 1705442, 1705811, 1706202, 1706582, 1706979]","[1698469, 1698809, 1699232, 1699659, 1700068, 1700445, 1700822, 1701230, 1701652, 1702061, 1702506, 1702862, 1703209, 1703546, 1703932, 1704331, 1704751, 1705104, 1705534, 1705920, 1706296, 1706679, 1707075]","[222, 99, 81, 112, 40, 95, 116, 99, 90, 115, 99, 75, 78, 44, 6, 238, 10, 28, 53, 53, 45, 53, 66]","[1698380, 1698711, 1699138, 1699545, 1699956, 1700335, 1700717, 1701138, 1701550, 1701947, 1702355, 1702738, 1703096, 1703434, 1703826, 1704241, 1704644, 1705052, 1705446, 1705816, 1706206, 1706586, 1706983]","[1697996, 1698396, 1698796, 1699196, 1699596, 1699996, 1700397, 1700797, 1701154, 1701567, 1701963, 1702371, 1702754, 1703112, 1703449, 1703841, 1704256, 1704659, 1705067, 1705462, 1705831, 1706222, 1706602, 1706999]",75,SB,U,R,ITMSR,1.1
5,600,trial,0,90,90,90,trial,"['S', 'S', 'S', 'S', 'S', 'S', 'S', 'C', 'C', 'C', 'C', 'C', 'C', 'C', 'C', 'C', 'C', 'C', 'C', 'C', 'C', 'C', 'C']","[1712780, 1713454, 1714051, 1714661, 1715295, 1715885, 1716491, 1717114, 1717692, 1718315, 1718938, 1719546, 1720139, 1720727, 1721309, 1721856, 1722461, 1723056, 1723664, 1724217, 1724765, 1725308, 1725936]","[1712865, 1713647, 1714269, 1714886, 1715506, 1716092, 1716725, 1717255, 1717968, 1718547, 1719101, 1719742, 1720335, 1720859, 1721521, 1722109, 1722706, 1723276, 1723816, 1724522, 1725039, 1725716, 1726111]","[229, 20, 68, 95, 68, 86, 45, 32, 60, 55, 19, 63, 69, 58, 47, 56, 3, 45, 25, 43, 56, 61, 88]","[1712786, 1713458, 1714055, 1714664, 1715298, 1715889, 1716494, 1717118, 1717696, 1718319, 1718942, 1719550, 1720143, 1720731, 1721314, 1721860, 1722465, 1723060, 1723668, 1724221, 1724769, 1725313, 1725940]","[1712355, 1712954, 1713554, 1714154, 1714754, 1715354, 1715954, 1716554, 1717134, 1717712, 1718335, 1718958, 1719566, 1720159, 1720748, 1721329, 1721876, 1722481, 1723076, 1723684, 1724237, 1724785, 1725328, 1725956]",75,SB,U,R,ITMSR,1.1
