pitch,ioi,event,.thisRepN,.thisTrialN,.thisN,.thisIndex,event,tap_types,tap_times,release_times,peak_pressures,peak_times,tone_times,subject,experimenter,register,handedness,experiment,version,
,,SPR,0,-1,-1,0,SPR,"['P', 'P', 'P', 'P', 'P', 'P', 'P', 'P', 'P', 'P', 'P', 'P', 'P', 'P', 'P', 'P', 'P', 'P', 'P', 'P', 'P', 'P', 'P', 'P', 'P', 'P', 'P', 'P', 'P', 'P']","[10971, 11376, 11848, 12258, 12731, 13154, 13588, 14024, 14450, 14895, 15336, 15780, 16218, 16672, 17112, 17557, 17976, 18412, 18834, 19272, 19685, 20137, 20560, 21018, 21454, 21902, 22350, 22799, 23248, 23685]","[11074, 11492, 11947, 12408, 12854, 13310, 13714, 14138, 14603, 15031, 15461, 15893, 16361, 16796, 17250, 17680, 18106, 18540, 18964, 19397, 19806, 20245, 20699, 21150, 21605, 22031, 22487, 22912, 23388, 23834]","[17, 247, 5, 103, 101, 131, 77, 89, 116, 74, 33, 0, 47, 74, 74, 77, 65, 63, 25, 46, 57, 22, 54, 69, 84, 73, 113, 75, 99, 125]","[10980, 11381, 11855, 12329, 12786, 13229, 13645, 14077, 14522, 14956, 15342, 15785, 16294, 16735, 17118, 17613, 17983, 18479, 18909, 19278, 19691, 20145, 20567, 21079, 21532, 21969, 22423, 22853, 23322, 23756]",,86,EM,U,R,ITMSR,1.1,
0,500,practice,0,0,0,0,practice,"['S', 'S', 'S', 'S', 'S', 'S', 'S', 'C', 'C', 'C', 'C', 'C', 'C', 'C', 'C', 'C', 'C', 'C', 'C', 'C', 'C', 'C', 'C']","[116995, 117497, 118005, 118521, 118976, 119477, 119987, 120485, 120999, 121530, 122042, 122541, 123045, 123550, 124057, 124540, 125002, 125504, 126008, 126476, 126979, 127452, 127968]","[117106, 117604, 118107, 118616, 119074, 119616, 120116, 120612, 121095, 121626, 122149, 122667, 123136, 123663, 124149, 124646, 125116, 125602, 126105, 126576, 127067, 127541, 128043]","[121, 123, 113, 100, 118, 135, 109, 139, 96, 79, 114, 87, 104, 103, 127, 51, 119, 107, 104, 49, 79, 42, 87]","[116999, 117501, 118010, 118526, 118980, 119482, 119993, 120489, 121005, 121536, 122047, 122600, 123051, 123555, 124061, 124547, 125008, 125510, 126013, 126516, 126986, 127458, 127973]","[116486, 116985, 117485, 117985, 118486, 118985, 119485, 119985, 120505, 121019, 121550, 122062, 122561, 123065, 123570, 124077, 124560, 125022, 125524, 126028, 126496, 126999, 127472, 127988]",86,EM,U,R,ITMSR,1.1,
1,500,practice,0,1,1,1,practice,"['S', 'S', 'S', 'S', 'S', 'S', 'S', 'C', 'C', 'C', 'C', 'C', 'C', 'C', 'C', 'C', 'C', 'C', 'C', 'C', 'C', 'C', 'C']","[133979, 134509, 134995, 135500, 135989, 136527, 137038, 137489, 137995, 138505, 138985, 139483, 139962, 140486, 140937, 141429, 141928, 142375, 142878, 143390, 143859, 144346, 144846]","[134091, 134595, 135115, 135612, 136104, 136616, 137141, 137608, 138081, 138569, 139072, 139568, 140061, 140576, 141077, 141566, 142070, 142550, 143033, 143522, 144008, 144464, 144957]","[15, 92, 21, 64, 64, 84, 46, 98, 87, 79, 240, 73, 94, 111, 93, 113, 95, 57, 78, 100, 85, 91, 44]","[134034, 134514, 135002, 135505, 135995, 136532, 137044, 137494, 137999, 138511, 138990, 139488, 139967, 140490, 140941, 141433, 141982, 142442, 142950, 143394, 143864, 144351, 144902]","[133561, 134061, 134561, 135061, 135561, 136061, 136561, 137061, 137509, 138015, 138525, 139005, 139503, 139982, 140506, 140957, 141449, 141948, 142395, 142898, 143410, 143879, 144366, 144866]",86,EM,U,R,ITMSR,1.1,
2,500,practice,0,2,2,2,practice,"['S', 'S', 'S', 'S', 'S', 'S', 'S', 'S', 'C', 'C', 'C', 'C', 'C', 'C', 'C', 'C', 'C', 'C', 'C', 'C', 'C', 'C', 'C', 'C']","[150525, 150842, 151245, 151695, 152188, 152683, 153192, 153682, 154185, 154690, 155141, 155640, 156097, 156636, 157142, 157616, 158101, 158568, 159065, 159560, 160030, 160479, 161014, 161468]","[150612, 150909, 151348, 151795, 152292, 152796, 153304, 153808, 154287, 154773, 155271, 155726, 156216, 156732, 157260, 157742, 158196, 158682, 159188, 159657, 160147, 160647, 161128, 161622]","[136, 58, 191, 231, 56, 32, 38, 20, 235, 242, 0, 0, 241, 82, 21, 0, 4, 63, 210, 56, 47, 48, 34, 15]","[150578, 150848, 151251, 151700, 152194, 152688, 153197, 153688, 154192, 154696, 155203, 155646, 156103, 156641, 157147, 157621, 158105, 158573, 159070, 159565, 160035, 160484, 161019, 161543]","[150212, 150712, 151213, 151713, 152213, 152713, 153213, 153713, 154205, 154711, 155161, 155660, 156118, 156656, 157162, 157636, 158121, 158588, 159085, 159580, 160050, 160499, 161034, 161488]",86,EM,U,R,ITMSR,1.1,
3,500,practice,0,3,3,3,practice,"['S', 'S', 'S', 'S', 'S', 'S', 'S', 'C', 'C', 'C', 'C', 'C', 'C', 'C', 'C', 'C', 'C', 'C', 'C', 'C', 'C', 'C', 'C']","[167336, 167869, 168356, 168860, 169344, 169877, 170381, 170883, 171399, 171916, 172401, 172903, 173390, 173872, 174376, 174873, 175356, 175877, 176369, 176858, 177336, 177817, 178310]","[167435, 167944, 168440, 168936, 169452, 169981, 170498, 170981, 171484, 172011, 172485, 173005, 173509, 173999, 174499, 174960, 175463, 175963, 176482, 176975, 177451, 177944, 178440]","[127, 152, 169, 172, 121, 166, 184, 105, 235, 127, 140, 223, 152, 168, 178, 216, 123, 95, 178, 219, 203, 247, 248]","[167388, 167876, 168363, 168868, 169403, 169922, 170432, 170930, 171405, 171958, 172445, 172954, 173463, 173879, 174383, 174879, 175397, 175913, 176377, 176912, 177380, 177862, 178315]","[166919, 167419, 167919, 168419, 168920, 169420, 169920, 170420, 170903, 171419, 171936, 172421, 172923, 173410, 173892, 174396, 174893, 175376, 175897, 176389, 176878, 177356, 177837, 178330]",86,EM,U,R,ITMSR,1.1,
4,500,practice,0,4,4,4,practice,"['S', 'S', 'S', 'S', 'S', 'S', 'S', 'C', 'C', 'C', 'C', 'C', 'C', 'C', 'C', 'C', 'C', 'C', 'C', 'C', 'C', 'C', 'C']","[184066, 184551, 185032, 185526, 186034, 186536, 187029, 187518, 188027, 188509, 188994, 189504, 189971, 190455, 190921, 191418, 191902, 192384, 192861, 193358, 193852, 194323, 194802]","[184132, 184637, 185143, 185601, 186113, 186609, 187123, 187632, 188107, 188602, 189088, 189575, 190089, 190585, 191059, 191544, 192024, 192514, 192992, 193485, 193989, 194452, 194954]","[108, 160, 116, 200, 187, 248, 7, 42, 216, 133, 216, 245, 149, 230, 18, 39, 21, 234, 227, 232, 253, 232, 22]","[184074, 184558, 185041, 185532, 186041, 186542, 187035, 187524, 188033, 188560, 189000, 189510, 190030, 190461, 190926, 191423, 191908, 192390, 192867, 193364, 193857, 194379, 194878]","[183625, 184125, 184625, 185125, 185625, 186125, 186626, 187126, 187538, 188047, 188529, 189015, 189524, 189991, 190475, 190941, 191438, 191922, 192404, 192881, 193378, 193872, 194343, 194822]",86,EM,U,R,ITMSR,1.1,
5,500,practice,0,5,5,5,practice,"['S', 'S', 'S', 'S', 'S', 'S', 'S', 'C', 'C', 'C', 'C', 'C', 'C', 'C', 'C', 'C', 'C', 'C', 'C', 'C', 'C', 'C', 'C']","[200787, 201300, 201788, 202258, 202782, 203287, 203764, 204276, 204788, 205295, 205797, 206304, 206768, 207266, 207761, 208274, 208737, 209236, 209727, 210238, 210734, 211214, 211699]","[200884, 201389, 201883, 202372, 202886, 203394, 203900, 204410, 204884, 205408, 205927, 206398, 206903, 207405, 207903, 208402, 208850, 209392, 209843, 210383, 210920, 211421, 211891]","[189, 192, 202, 143, 164, 204, 209, 250, 214, 6, 54, 187, 242, 173, 24, 208, 76, 143, 57, 11, 1, 17, 249]","[200793, 201308, 201795, 202309, 202789, 203294, 203770, 204282, 204795, 205301, 205802, 206310, 206831, 207271, 207767, 208339, 208743, 209304, 209792, 210308, 210739, 211219, 211786]","[200334, 200834, 201334, 201834, 202334, 202834, 203334, 203834, 204296, 204808, 205315, 205817, 206324, 206788, 207286, 207781, 208294, 208757, 209256, 209747, 210258, 210754, 211234, 211719]",86,EM,U,R,ITMSR,1.1,
0,600,trial,0,6,6,6,trial,"['S', 'S', 'S', 'S', 'S', 'S', 'S', 'C', 'C', 'C', 'C', 'C', 'C', 'C', 'C', 'C', 'C', 'C', 'C', 'C', 'C', 'C', 'C']","[288978, 289579, 290182, 290851, 291473, 292093, 292691, 293260, 293876, 294493, 295107, 295746, 296384, 297014, 297611, 298225, 298842, 299484, 300111, 300697, 301310, 301900, 302525]","[289044, 289686, 290297, 290953, 291584, 292211, 292811, 293382, 293972, 294607, 295242, 295853, 296516, 297124, 297748, 298374, 298968, 299593, 300237, 300829, 301424, 302038, 302640]","[239, 55, 67, 97, 93, 82, 96, 84, 228, 0, 35, 18, 25, 52, 33, 111, 105, 23, 56, 43, 33, 57, 233]","[288985, 289585, 290188, 290857, 291478, 292101, 292698, 293266, 293916, 294558, 295171, 295753, 296391, 297020, 297692, 298230, 298848, 299531, 300174, 300702, 301316, 301968, 302596]","[288478, 289077, 289677, 290277, 290877, 291477, 292077, 292677, 293280, 293896, 294513, 295128, 295767, 296404, 297034, 297631, 298245, 298862, 299504, 300131, 300717, 301330, 301920, 302545]",86,EM,U,R,ITMSR,1.1,
3,400,trial,0,7,7,7,trial,"['S', 'S', 'S', 'S', 'S', 'S', 'S', 'C', 'C', 'C', 'C', 'C', 'C', 'C', 'C', 'C', 'C', 'C', 'C', 'C', 'C', 'C', 'C']","[308373, 308699, 309072, 309469, 309891, 310305, 310688, 311068, 311463, 311858, 312245, 312633, 313014, 313425, 313791, 314179, 314561, 314949, 315326, 315701, 316058, 316455, 316882]","[308467, 308802, 309191, 309578, 309967, 310361, 310792, 311176, 311544, 311937, 312336, 312717, 313107, 313504, 313886, 314278, 314678, 315071, 315417, 315782, 316144, 316507, 316940]","[44, 217, 55, 86, 43, 46, 187, 48, 35, 186, 9, 211, 231, 232, 13, 211, 219, 237, 248, 13, 191, 0, 213]","[308380, 308750, 309079, 309475, 309898, 310311, 310747, 311075, 311470, 311866, 312253, 312641, 313022, 313433, 313798, 314186, 314569, 314957, 315334, 315706, 316064, 316462, 316891]","[307920, 308320, 308720, 309121, 309520, 309920, 310320, 310720, 311088, 311483, 311878, 312265, 312653, 313034, 313445, 313811, 314200, 314582, 314969, 315346, 315721, 316078, 316475, 316902]",86,EM,U,R,ITMSR,1.1,
0,400,trial,0,8,8,8,trial,"['S', 'S', 'S', 'S', 'S', 'S', 'S', 'C', 'C', 'C', 'C', 'C', 'C', 'C', 'C', 'C', 'C', 'C', 'C', 'C', 'C', 'C', 'C']","[323044, 323401, 323741, 324113, 324516, 324893, 325326, 325713, 326105, 326494, 326895, 327265, 327642, 328045, 328454, 328822, 329228, 329653, 330020, 330431, 330802, 331191, 331617]","[323110, 323472, 323821, 324202, 324585, 324989, 325414, 325742, 326162, 326565, 326945, 327339, 327704, 328132, 328512, 328878, 329278, 329701, 330110, 330519, 330881, 331258, 331696]","[34, 64, 11, 3, 101, 145, 5, 45, 49, 8, 180, 173, 204, 158, 253, 25, 7, 121, 138, 134, 210, 199, 243]","[323054, 323409, 323749, 324121, 324524, 324901, 325335, 325722, 326112, 326543, 326902, 327273, 327650, 328053, 328461, 328829, 329235, 329661, 330076, 330485, 330810, 331197, 331624]","[322561, 322959, 323359, 323759, 324159, 324559, 324959, 325359, 325733, 326125, 326514, 326915, 327285, 327662, 328066, 328474, 328842, 329248, 329673, 330040, 330451, 330822, 331211, 331637]",86,EM,U,R,ITMSR,1.1,
4,600,trial,0,9,9,9,trial,"['S', 'S', 'S', 'S', 'S', 'S', 'S', 'S', 'C', 'C', 'C', 'C', 'C', 'C', 'C', 'C', 'C', 'C', 'C', 'C', 'C', 'C', 'C', 'C']","[337661, 338061, 338502, 339082, 339686, 340313, 340898, 341494, 342069, 342666, 343304, 343944, 344571, 345220, 345811, 346427, 347014, 347627, 348237, 348874, 349479, 350083, 350710, 351347]","[337776, 338138, 338630, 339213, 339816, 340423, 341010, 341584, 342212, 342829, 343436, 344092, 344705, 345354, 345988, 346545, 347186, 347843, 348456, 349029, 349670, 350292, 350978, 351609]","[80, 151, 106, 156, 125, 164, 136, 202, 157, 210, 169, 188, 208, 199, 216, 204, 181, 195, 249, 209, 219, 9, 245, 194]","[337669, 338072, 338510, 339088, 339694, 340321, 340907, 341499, 342076, 342673, 343311, 343950, 344579, 345226, 345818, 346433, 347021, 347633, 348243, 348881, 349486, 350182, 350717, 351453]","[337282, 337882, 338482, 339082, 339682, 340282, 340882, 341482, 342089, 342686, 343324, 343964, 344591, 345240, 345831, 346447, 347034, 347648, 348257, 348894, 349499, 350103, 350730, 351367]",86,EM,U,R,ITMSR,1.1,
1,400,trial,0,10,10,10,trial,"['S', 'S', 'S', 'S', 'S', 'S', 'C', 'C', 'C', 'C', 'C', 'C', 'C', 'C', 'C', 'C', 'C', 'C', 'C', 'C', 'C', 'C']","[357481, 357871, 358240, 358666, 359060, 359479, 359898, 360301, 360705, 361104, 361485, 361901, 362308, 362698, 363085, 363456, 363907, 364293, 364719, 365162, 365555, 365962]","[357570, 357952, 358331, 358763, 359173, 359615, 360017, 360427, 360820, 361203, 361614, 362020, 362458, 362820, 363187, 363559, 363979, 364436, 364845, 365262, 365662, 366077]","[146, 252, 42, 67, 153, 9, 57, 32, 28, 22, 36, 236, 129, 39, 86, 142, 252, 27, 50, 215, 173, 206]","[357488, 357880, 358248, 358674, 359069, 359488, 359907, 360308, 360712, 361112, 361493, 361910, 362315, 362706, 363094, 363467, 363916, 364374, 364777, 365204, 365614, 366007]","[356749, 357149, 357549, 357949, 358349, 358749, 359149, 359549, 359918, 360322, 360725, 361124, 361505, 361921, 362328, 362718, 363105, 363476, 363927, 364313, 364739, 365182, 365575, 365982]",86,EM,U,R,ITMSR,1.1,
3,600,trial,0,11,11,11,trial,"['S', 'S', 'S', 'S', 'S', 'S', 'S', 'C', 'C', 'C', 'C', 'C', 'C', 'C', 'C', 'C', 'C', 'C', 'C', 'C', 'C', 'C', 'C']","[371871, 372673, 373265, 373831, 374463, 375073, 375687, 376274, 376897, 377532, 378157, 378779, 379384, 379999, 380649, 381259, 381872, 382494, 383116, 383728, 384338, 384933, 385544]","[371941, 372757, 373327, 373967, 374557, 375189, 375841, 376436, 377053, 377714, 378332, 378934, 379568, 380195, 380835, 381459, 382076, 382724, 383343, 383913, 384604, 385225]","[28, 163, 214, 150, 131, 175, 184, 195, 178, 188, 130, 85, 180, 142, 170, 178, 211, 184, 215, 215, 234, 255]","[371879, 372681, 373271, 373837, 374470, 375080, 375693, 376282, 376905, 377540, 378248, 378787, 379478, 380102, 380728, 381358, 381968, 382590, 383218, 383823, 384466, 385068]","[371489, 372089, 372689, 373289, 373890, 374490, 375090, 375690, 376294, 376918, 377552, 378177, 378799, 379404, 380019, 380669, 381279, 381892, 382514, 383136, 383748, 384358, 384953, 385564]",86,EM,U,R,ITMSR,1.1,
4,400,trial,0,12,12,12,trial,"['S', 'S', 'S', 'S', 'S', 'S', 'S', 'C', 'C', 'C', 'C', 'C', 'C', 'C', 'C', 'C', 'C', 'C', 'C', 'C', 'C', 'C', 'C']","[391294, 391698, 392090, 392497, 392912, 393298, 393690, 394117, 394511, 394892, 395292, 395693, 396059, 396441, 396897, 397258, 397642, 398104, 398495, 398906, 399322, 399737, 400178]","[391412, 391786, 392224, 392635, 393035, 393445, 393846, 394251, 394613, 394994, 395375, 395765, 396157, 396592, 396995, 397389, 397795, 398204, 398592, 398993, 399409, 399833, 400271]","[90, 233, 116, 142, 94, 123, 78, 47, 15, 17, 173, 148, 37, 65, 46, 23, 58, 225, 82, 120, 31, 234, 53]","[391303, 391709, 392098, 392505, 392921, 393388, 393773, 394125, 394520, 394900, 395302, 395704, 396067, 396523, 396906, 397330, 397750, 398144, 398503, 398916, 399330, 399781, 400236]","[390983, 391384, 391784, 392184, 392584, 392984, 393384, 393784, 394137, 394531, 394912, 395312, 395713, 396079, 396461, 396917, 397278, 397662, 398125, 398515, 398926, 399342, 399757, 400198]",86,EM,U,R,ITMSR,1.1,
2,400,trial,0,13,13,13,trial,"['S', 'S', 'S', 'S', 'S', 'S', 'S', 'C', 'C', 'C', 'C', 'C', 'C', 'C', 'C', 'C', 'C', 'C', 'C', 'C', 'C', 'C', 'C']","[406044, 406468, 406795, 407172, 407574, 407957, 408354, 408765, 409171, 409558, 409990, 410354, 410771, 411157, 411547, 411953, 412349, 412765, 413157, 413599, 413918, 414319, 414740]","[406161, 406566, 406880, 407267, 407690, 408092, 408505, 408881, 409294, 409690, 410096, 410511, 410899, 411296, 411670, 412082, 412492, 412847, 413248, 413712, 414057, 414425, 414851]","[184, 54, 156, 255, 190, 28, 35, 240, 220, 46, 51, 52, 137, 223, 85, 130, 246, 211, 151, 48, 216, 80, 203]","[406051, 406505, 406806, 407180, 407616, 407965, 408432, 408774, 409181, 409567, 410034, 410426, 410782, 411238, 411555, 411964, 412409, 412775, 413211, 413663, 413985, 414370, 414789]","[405606, 406006, 406406, 406806, 407206, 407606, 408006, 408407, 408785, 409191, 409578, 410010, 410374, 410791, 411177, 411567, 411973, 412369, 412785, 413177, 413619, 413938, 414339, 414760]",86,EM,U,R,ITMSR,1.1,
0,600,trial,0,14,14,14,trial,"['S', 'S', 'S', 'S', 'S', 'S', 'S', 'C', 'C', 'C', 'C', 'C', 'C', 'C', 'C', 'C', 'C', 'C', 'C', 'C', 'C', 'C', 'C']","[421163, 421667, 422278, 422875, 423488, 424121, 424724, 425347, 425963, 426585, 427228, 427835, 428483, 429133, 429774, 430427, 431063, 431665, 432271, 432906, 433500, 434112, 434736]","[421278, 421771, 422415, 423004, 423674, 424302, 424945, 425573, 426171, 426816, 427435, 428048, 428745, 429408, 430075, 430693, 431322, 431926, 432521, 433136, 433680, 434328, 434944]","[54, 163, 147, 214, 197, 139, 182, 192, 157, 190, 160, 199, 185, 191, 172, 198, 203, 233, 227, 228, 192, 208, 184]","[421225, 421675, 422287, 422881, 423494, 424128, 424730, 425354, 426079, 426592, 427235, 427958, 428490, 429236, 429996, 430565, 431192, 431806, 432382, 432987, 433591, 434221, 434842]","[420527, 421127, 421727, 422327, 422927, 423527, 424127, 424727, 425367, 425984, 426605, 427248, 427855, 428504, 429153, 429794, 430447, 431083, 431685, 432291, 432926, 433520, 434132, 434756]",86,EM,U,R,ITMSR,1.1,
1,400,trial,0,15,15,15,trial,"['S', 'S', 'S', 'S', 'S', 'S', 'C', 'C', 'C', 'C', 'C', 'C', 'C', 'C', 'C', 'C', 'C', 'C', 'C', 'C', 'C', 'C']","[441167, 441522, 441912, 442335, 442728, 443156, 443535, 443933, 444336, 444697, 445091, 445523, 445893, 446269, 446618, 447044, 447427, 447800, 448181, 448550, 448925, 449318]","[441252, 441612, 442054, 442458, 442863, 443271, 443673, 444048, 444431, 444835, 445230, 445622, 446008, 446437, 446815, 447194, 447564, 447935, 448345, 448710, 449057, 449433]","[133, 196, 93, 117, 116, 167, 47, 60, 22, 82, 72, 13, 102, 148, 191, 123, 110, 147, 139, 142, 130, 107]","[441174, 441532, 441919, 442381, 442782, 443209, 443614, 443980, 444386, 444766, 445153, 445566, 445952, 446361, 446724, 447116, 447481, 447808, 448268, 448643, 448997, 449374]","[440427, 440827, 441227, 441627, 442028, 442427, 442827, 443227, 443555, 443953, 444356, 444717, 445111, 445543, 445913, 446289, 446638, 447064, 447448, 447820, 448201, 448570, 448945, 449338]",86,EM,U,R,ITMSR,1.1,
1,600,trial,0,16,16,16,trial,"['S', 'S', 'S', 'S', 'S', 'S', 'S', 'S', 'C', 'C', 'C', 'C', 'C', 'C', 'C', 'C', 'C', 'C', 'C', 'C', 'C', 'C', 'C', 'C', 'C']","[455128, 455489, 455951, 456542, 457159, 457744, 458312, 458945, 459536, 460129, 460733, 461326, 461926, 462513, 463135, 463740, 464339, 464950, 465547, 466130, 466721, 467277, 467377, 467866, 468509]","[455241, 455589, 456104, 456710, 457284, 457897, 458479, 459116, 459743, 460327, 460990, 461584, 462208, 462813, 463391, 463939, 464567, 465188, 465771, 466404, 466978, 467297, 467484, 468174, 468750]","[143, 39, 240, 89, 219, 63, 3, 232, 118, 112, 169, 195, 176, 159, 128, 167, 140, 134, 106, 137, 87, 135, 89, 151, 128]","[455136, 455542, 455958, 456550, 457166, 457752, 458411, 458952, 459627, 460137, 460740, 461494, 461933, 462628, 463296, 463843, 464482, 465078, 465652, 466138, 466728, 467284, 467393, 467873, 468674]","[454791, 455391, 455991, 456591, 457191, 457791, 458391, 458991, 459556, 460149, 460753, 461346, 461946, 462533, 463155, 463760, 464359, 464970, 465567, 466150, 466741, 467297, 467886, 468529]",86,EM,U,R,ITMSR,1.1,
2,600,trial,0,17,17,17,trial,"['S', 'S', 'S', 'S', 'S', 'S', 'S', 'C', 'C', 'C', 'C', 'C', 'C', 'C', 'C', 'C', 'C', 'C', 'C', 'C', 'C', 'C', 'C']","[474660, 475207, 475798, 476410, 476983, 477575, 478227, 478801, 479379, 480005, 480606, 481247, 481916, 482488, 483121, 483671, 484275, 484915, 485505, 486102, 486638, 487259, 487845]","[474761, 475319, 475922, 476430, 477102, 477734, 478353, 478921, 479512, 480126, 480766, 481377, 482056, 482700, 483281, 483878, 484494, 485095, 485667, 486279, 486822, 487506, 488109]","[114, 46, 119, 194, 157, 164, 119, 249, 23, 140, 126, 193, 83, 153, 86, 243, 207, 195, 127, 39, 167, 183, 173]","[474669, 475214, 475802, 476416, 476989, 477582, 478288, 478857, 479466, 480064, 480614, 481254, 481995, 482583, 483185, 483790, 484361, 485001, 485512, 486110, 486645, 487266, 487977]","[474047, 474647, 475247, 475847, 476447, 477047, 477647, 478247, 478821, 479399, 480025, 480626, 481267, 481936, 482508, 483141, 483691, 484295, 484935, 485525, 486122, 486658, 487279, 487865]",86,EM,U,R,ITMSR,1.1,
4,400,trial,0,18,18,18,trial,"['S', 'S', 'S', 'S', 'S', 'S', 'S', 'C', 'C', 'C', 'C', 'C', 'C', 'C', 'C', 'C', 'C', 'C', 'C', 'C', 'C', 'C', 'C']","[493744, 494160, 494530, 494958, 495368, 495752, 496144, 496540, 496941, 497349, 497731, 498131, 498555, 498893, 499302, 499670, 500082, 500470, 500859, 501256, 501644, 502009, 502411]","[493816, 494237, 494648, 495038, 495469, 495883, 496265, 496628, 497032, 497453, 497845, 498253, 498678, 499018, 499431, 499787, 500187, 500556, 500951, 501335, 501737, 502107, 502511]","[162, 232, 110, 55, 34, 105, 35, 81, 33, 63, 108, 84, 98, 113, 99, 61, 96, 39, 44, 129, 39, 40, 76]","[493755, 494195, 494596, 494998, 495415, 495804, 496195, 496548, 496983, 497389, 497739, 498176, 498563, 498964, 499344, 499703, 500122, 500480, 500900, 501294, 501652, 502050, 502458]","[493401, 493801, 494201, 494601, 495001, 495401, 495801, 496201, 496560, 496961, 497369, 497752, 498151, 498575, 498913, 499322, 499690, 500102, 500490, 500879, 501276, 501664, 502029, 502431]",86,EM,U,R,ITMSR,1.1,
5,600,trial,0,19,19,19,trial,"['S', 'S', 'S', 'S', 'S', 'S', 'S', 'C', 'C', 'C', 'C', 'C', 'C', 'C', 'C', 'C', 'C', 'C', 'C', 'C', 'C', 'C', 'C']","[508748, 509278, 509932, 510489, 511083, 511704, 512305, 512851, 513458, 514094, 514696, 515297, 515894, 516500, 517046, 517665, 518214, 518818, 519392, 519953, 520520, 521141, 521754]","[508823, 509385, 509976, 510562, 511160, 511798, 512395, 512990, 513574, 514207, 514809, 515399, 516005, 516580, 517154, 517747, 518327, 518934, 519538, 520102, 520689, 521264, 521872]","[51, 57, 196, 92, 168, 102, 127, 154, 155, 125, 126, 151, 161, 175, 198, 200, 76, 189, 190, 171, 185, 189, 188]","[508756, 509285, 509942, 510496, 511090, 511712, 512313, 512859, 513465, 514100, 514703, 515303, 515902, 516508, 517053, 517672, 518288, 518825, 519398, 519958, 520526, 521148, 521760]","[508103, 508703, 509303, 509903, 510503, 511104, 511704, 512304, 512871, 513478, 514114, 514716, 515317, 515914, 516520, 517066, 517685, 518234, 518838, 519412, 519973, 520540, 521161, 521774]",86,EM,U,R,ITMSR,1.1,
5,600,trial,0,20,20,20,trial,"['S', 'S', 'S', 'S', 'S', 'S', 'S', 'S', 'C', 'C', 'C', 'C', 'C', 'C', 'C', 'C', 'C', 'C', 'C', 'C', 'C', 'C', 'C', 'C']","[527746, 528129, 528540, 529133, 529728, 530285, 530917, 531517, 532131, 532645, 533223, 533765, 534353, 534895, 535439, 536015, 536613, 537151, 537679, 538272, 538841, 539383, 539923, 540456]","[527803, 528182, 528647, 529252, 529831, 530427, 531002, 531640, 532244, 532765, 533326, 533897, 534452, 535001, 535542, 536146, 536726, 537277, 537820, 538393, 538944, 539505, 540060, 540589]","[137, 141, 123, 152, 232, 232, 147, 10, 224, 98, 162, 198, 183, 63, 76, 230, 113, 86, 198, 21, 32, 138, 112, 115]","[527756, 528139, 528547, 529140, 529737, 530353, 530928, 531590, 532176, 532654, 533232, 533773, 534361, 534901, 535445, 536020, 536653, 537200, 537735, 538335, 538880, 539390, 539929, 540464]","[527428, 528027, 528627, 529227, 529827, 530427, 531027, 531628, 532151, 532665, 533243, 533785, 534373, 534915, 535459, 536035, 536633, 537171, 537699, 538292, 538861, 539403, 539943, 540476]",86,EM,U,R,ITMSR,1.1,
0,400,trial,0,21,21,21,trial,"['S', 'S', 'S', 'S', 'S', 'S', 'S', 'C', 'C', 'C', 'C', 'C', 'C', 'C', 'C', 'C', 'C', 'C', 'C', 'C', 'C', 'C', 'C']","[546563, 546959, 547310, 547729, 548100, 548485, 548882, 549299, 549685, 550097, 550463, 550880, 551279, 551667, 552050, 552448, 552850, 553225, 553602, 554012, 554402, 554836, 555192]","[546676, 547038, 547421, 547822, 548204, 548586, 548984, 549392, 549780, 550177, 550562, 550980, 551362, 551753, 552157, 552526, 552912, 553321, 553680, 554081, 554473, 554912, 555265]","[70, 166, 60, 83, 79, 42, 232, 12, 99, 40, 0, 64, 149, 110, 120, 114, 86, 113, 176, 149, 184, 37, 115]","[546571, 546967, 547317, 547737, 548108, 548492, 548888, 549305, 549692, 550105, 550471, 550889, 551286, 551674, 552058, 552457, 552858, 553233, 553608, 554019, 554411, 554845, 555200]","[546183, 546583, 546983, 547383, 547783, 548184, 548584, 548984, 549319, 549705, 550117, 550483, 550900, 551299, 551687, 552070, 552468, 552870, 553245, 553622, 554032, 554422, 554856, 555212]",86,EM,U,R,ITMSR,1.1,
1,600,trial,0,22,22,22,trial,"['S', 'S', 'S', 'S', 'S', 'S', 'S', 'S', 'C', 'C', 'C', 'C', 'C', 'C', 'C', 'C', 'C', 'C', 'C', 'C', 'C', 'C', 'C', 'C']","[561126, 561529, 561968, 562518, 563138, 563693, 564295, 564894, 565499, 566088, 566681, 567260, 567813, 568398, 568944, 569515, 570114, 570693, 571273, 571865, 572429, 573015, 573596, 574117]","[561220, 561609, 562067, 562621, 563248, 563837, 564398, 565010, 565621, 566201, 566788, 567360, 567905, 568476, 569054, 569602, 570207, 570772, 571352, 571949, 572542, 573102, 573667, 574272]","[62, 215, 60, 212, 188, 125, 176, 178, 97, 211, 167, 198, 179, 180, 154, 217, 224, 160, 126, 170, 230, 214, 162, 185]","[561183, 561565, 561978, 562525, 563145, 563700, 564300, 564901, 565551, 566094, 566687, 567265, 567819, 568403, 568951, 569520, 570119, 570699, 571280, 571870, 572436, 573020, 573602, 574123]","[560784, 561384, 561984, 562584, 563184, 563784, 564384, 564984, 565519, 566108, 566701, 567280, 567833, 568418, 568964, 569535, 570134, 570713, 571293, 571885, 572449, 573035, 573616, 574137]",86,EM,U,R,ITMSR,1.1,
2,600,trial,0,23,23,23,trial,"['S', 'S', 'S', 'S', 'S', 'S', 'S', 'S', 'S', 'C', 'C', 'C', 'C', 'C', 'C', 'C', 'C', 'C', 'C', 'C', 'C', 'C', 'C', 'C', 'C', 'C']","[579810, 580192, 580677, 581219, 581791, 581891, 582393, 582992, 583601, 584190, 584770, 585331, 585944, 586522, 587118, 587716, 588264, 588882, 589473, 590072, 590692, 591238, 591873, 592451, 593056, 593282]","[579878, 580262, 580745, 581311, 581811, 581911, 582499, 583073, 583693, 584315, 584889, 585446, 586042, 586647, 587259, 587845, 588454, 589014, 589655, 590275, 590861, 591444, 591975, 592656, 593202, 593302]","[96, 219, 124, 184, 161, 191, 141, 168, 222, 239, 185, 108, 211, 221, 236, 219, 206, 217, 210, 222, 163, 227, 226, 193, 150, 75]","[579817, 580201, 580683, 581225, 581797, 581891, 582400, 582999, 583607, 584196, 584776, 585387, 585950, 586528, 587124, 587723, 588270, 588889, 589479, 590078, 590774, 591364, 591880, 592457, 593063, 593282]","[579486, 580086, 580686, 581286, 581886, 582487, 583086, 583686, 584210, 584791, 585351, 585964, 586542, 587138, 587736, 588284, 588902, 589493, 590092, 590712, 591258, 591893, 592472, 593076]",86,EM,U,R,ITMSR,1.1,
3,600,trial,0,24,24,24,trial,"['S', 'S', 'S', 'S', 'S', 'S', 'S', 'S', 'C', 'C', 'C', 'C', 'C', 'C', 'C', 'C', 'C', 'C', 'C', 'C', 'C', 'C', 'C', 'C']","[599013, 599366, 599861, 600460, 601072, 601653, 602231, 602847, 603462, 604033, 604600, 605187, 605758, 606336, 606927, 607465, 608018, 608562, 609149, 609725, 610321, 610926, 611482, 612039]","[599071, 599417, 599918, 600516, 601116, 601673, 602285, 602892, 603508, 604081, 604657, 605227, 605793, 606383, 606954, 607521, 608045, 608618, 609212, 609769, 610341, 610955, 611502, 612059]","[169, 114, 189, 138, 179, 188, 157, 223, 238, 197, 195, 153, 176, 186, 207, 12, 226, 227, 123, 114, 136, 48, 102, 134]","[599019, 599373, 599867, 600467, 601078, 601659, 602237, 602853, 603468, 604039, 604606, 605192, 605764, 606342, 606934, 607470, 608024, 608567, 609189, 609730, 610326, 610930, 611487, 612043]","[598712, 599312, 599912, 600512, 601112, 601712, 602312, 602912, 603482, 604053, 604620, 605207, 605778, 606356, 606947, 607485, 608038, 608582, 609169, 609745, 610341, 610946, 611502, 612059]",86,EM,U,R,ITMSR,1.1,
3,400,trial,0,25,25,25,trial,"['S', 'S', 'S', 'S', 'S', 'S', 'S', 'C', 'C', 'C', 'C', 'C', 'C', 'C', 'C', 'C', 'C', 'C', 'C', 'C', 'C', 'C', 'C']","[617803, 618247, 618668, 619095, 619505, 619909, 620350, 620749, 621171, 621562, 621959, 622332, 622750, 623550, 623946, 624300, 624668, 625085, 625497, 625898, 626314, 626721, 627116]","[617851, 618267, 618702, 619125, 619539, 619929, 620370, 620769, 621191, 621582, 622003, 622376, 622770, 623603, 623984, 624365, 624731, 625138, 625553, 625967, 626398, 626784, 627186]","[121, 100, 22, 225, 240, 145, 5, 239, 149, 71, 46, 41, 77, 72, 155, 7, 4, 222, 167, 47, 55, 37, 100]","[617810, 618251, 618676, 619102, 619512, 619912, 620356, 620756, 621177, 621568, 621967, 622341, 622756, 623558, 623953, 624340, 624675, 625093, 625530, 625906, 626366, 626728, 627123]","[617581, 617981, 618381, 618781, 619181, 619581, 619981, 620381, 620769, 621191, 621582, 621979, 622352, 622770, 623570, 623966, 624320, 624688, 625105, 625517, 625918, 626334, 626741, 627136]",86,EM,U,R,ITMSR,1.1,
5,400,trial,0,26,26,26,trial,"['S', 'S', 'S', 'S', 'S', 'S', 'S', 'C', 'C', 'C', 'C', 'C', 'C', 'C', 'C', 'C', 'C', 'C', 'C', 'C', 'C', 'C', 'C']","[632964, 633417, 633858, 634270, 634674, 635067, 635482, 635870, 636253, 636672, 637062, 637483, 637886, 638272, 638687, 639085, 639485, 639869, 640245, 640670, 641044, 641448, 641840]","[633062, 633494, 633930, 634331, 634694, 635143, 635503, 635942, 636336, 636717, 637115, 637535, 637936, 638346, 638739, 639154, 639536, 639927, 640315, 640731, 641124, 641518, 641910]","[82, 153, 99, 90, 77, 133, 7, 62, 125, 186, 99, 180, 253, 226, 226, 193, 238, 238, 243, 1, 191, 13, 212]","[633014, 633423, 633865, 634277, 634678, 635075, 635488, 635877, 636261, 636678, 637069, 637489, 637891, 638278, 638693, 639092, 639492, 639876, 640251, 640675, 641051, 641455, 641847]","[632683, 633082, 633482, 633882, 634283, 634682, 635082, 635482, 635890, 636273, 636692, 637082, 637503, 637906, 638292, 638707, 639106, 639505, 639889, 640265, 640690, 641064, 641468, 641860]",86,EM,U,R,ITMSR,1.1,
4,600,trial,0,27,27,27,trial,"['S', 'S', 'S', 'S', 'S', 'S', 'S', 'S', 'C', 'C', 'C', 'C', 'C', 'C', 'C', 'C', 'C', 'C', 'C', 'C', 'C', 'C', 'C', 'C']","[647949, 648350, 648810, 649419, 649997, 650609, 651201, 651829, 652448, 653117, 653720, 654322, 654994, 655586, 656151, 656702, 657247, 657859, 658358, 658893, 659433, 660000, 660553, 661106]","[648010, 648398, 648885, 649469, 650044, 650651, 651281, 651906, 652504, 653180, 653782, 654396, 655062, 655677, 656220, 656772, 657327, 657903, 658450, 658968, 659517, 660046, 660598, 661173]","[213, 127, 221, 137, 19, 144, 212, 176, 119, 244, 242, 208, 195, 142, 156, 252, 241, 193, 87, 251, 233, 188, 168, 99]","[647955, 648357, 648815, 649426, 650002, 650613, 651205, 651833, 652452, 653123, 653726, 654327, 655000, 655592, 656156, 656706, 657251, 657864, 658365, 658897, 659438, 660005, 660558, 661112]","[647656, 648255, 648855, 649455, 650055, 650655, 651255, 651855, 652468, 653137, 653741, 654342, 655014, 655606, 656172, 656722, 657267, 657880, 658378, 658913, 659453, 660020, 660573, 661126]",86,EM,U,R,ITMSR,1.1,
5,400,trial,0,28,28,28,trial,"['S', 'S', 'S', 'S', 'S', 'S', 'S', 'C', 'C', 'C', 'C', 'C', 'C', 'C', 'C', 'C', 'C', 'C', 'C', 'C', 'C', 'C', 'C']","[666986, 667331, 667822, 668223, 668648, 669057, 669475, 669828, 670232, 670613, 671022, 671414, 671838, 672256, 672636, 673090, 673519, 673923, 674365, 674776, 675159, 675553, 675969]","[667047, 667411, 667895, 668280, 668723, 669123, 669530, 669926, 670288, 670667, 671082, 671470, 671912, 672315, 672701, 673148, 673565, 673992, 674405, 674835, 675211, 675573, 676021]","[10, 211, 28, 246, 23, 248, 233, 210, 101, 59, 94, 96, 112, 70, 90, 121, 49, 115, 3, 249, 30, 227, 135]","[666992, 667337, 667826, 668228, 668653, 669062, 669480, 669833, 670239, 670620, 671029, 671421, 671844, 672262, 672644, 673095, 673525, 673928, 674372, 674782, 675167, 675560, 675976]","[666747, 667147, 667547, 667948, 668347, 668747, 669147, 669547, 669848, 670253, 670633, 671042, 671434, 671858, 672276, 672656, 673111, 673539, 673943, 674385, 674796, 675179, 675573, 675989]",86,EM,U,R,ITMSR,1.1,
2,400,trial,0,29,29,29,trial,"['S', 'S', 'S', 'S', 'S', 'S', 'S', 'C', 'C', 'C', 'C', 'C', 'C', 'C', 'C', 'C', 'C', 'C', 'C', 'C', 'C', 'C', 'C']","[681636, 682118, 682511, 682912, 683315, 683691, 684098, 684534, 684924, 685324, 685723, 686141, 686510, 686947, 687338, 687752, 688144, 688514, 688937, 689281, 689698, 690106, 690480]","[681696, 682175, 682580, 682981, 683386, 683765, 684158, 684597, 684996, 685391, 685779, 686194, 686598, 687000, 687408, 687793, 688193, 688566, 688971, 689345, 689740, 690158, 690536]","[145, 193, 111, 169, 211, 213, 232, 1, 235, 205, 10, 54, 213, 153, 39, 51, 217, 188, 203, 22, 215, 27, 225]","[681648, 682123, 682518, 682918, 683323, 683699, 684105, 684542, 684934, 685333, 685730, 686148, 686563, 686953, 687346, 687759, 688151, 688521, 688945, 689288, 689707, 690112, 690508]","[681368, 681767, 682167, 682567, 682968, 683368, 683768, 684168, 684554, 684944, 685344, 685743, 686161, 686530, 686967, 687358, 687772, 688164, 688534, 688957, 689301, 689718, 690126, 690500]",86,EM,U,R,ITMSR,1.1,
3,600,trial,0,30,30,30,trial,"['S', 'S', 'S', 'S', 'S', 'S', 'S', 'S', 'C', 'C', 'C', 'C', 'C', 'C', 'C', 'C', 'C', 'C', 'C', 'C', 'C', 'C', 'C', 'C']","[736744, 737142, 737508, 738102, 738726, 739289, 739902, 740548, 741172, 741771, 742333, 742882, 743445, 744007, 744567, 745111, 745703, 746236, 746790, 747339, 747901, 748400, 748934, 749487]","[736765, 737187, 737570, 738164, 738768, 739371, 739954, 740615, 741246, 741838, 742428, 742941, 743515, 744078, 744615, 745187, 745773, 746327, 746864, 747414, 747972, 748513, 749007, 749558]","[192, 210, 237, 214, 167, 30, 246, 254, 51, 250, 206, 231, 223, 221, 204, 252, 201, 194, 176, 233, 157, 157, 199, 223]","[736751, 737150, 737515, 738109, 738734, 739295, 739908, 740558, 741181, 741777, 742340, 742889, 743452, 744013, 744574, 745118, 745709, 746243, 746797, 747345, 747909, 748406, 748942, 749493]","[736344, 736944, 737544, 738144, 738744, 739344, 739944, 740544, 741192, 741791, 742353, 742902, 743465, 744027, 744587, 745132, 745723, 746256, 746810, 747359, 747921, 748420, 748954, 749507]",86,EM,U,R,ITMSR,1.1,
0,600,trial,0,31,31,31,trial,"['S', 'S', 'S', 'S', 'S', 'S', 'S', 'C', 'C', 'C', 'C', 'C', 'C', 'C', 'C', 'C', 'C', 'C', 'C', 'C', 'C', 'C', 'C']","[755380, 756051, 756591, 757230, 757831, 758455, 759079, 759643, 760238, 760804, 761403, 762052, 762649, 763278, 763900, 764473, 765066, 765678, 766227, 766752, 767313, 767843, 768407]","[755419, 756107, 756652, 757284, 757900, 758504, 759116, 759692, 760263, 760883, 761426, 762125, 762729, 763305, 763926, 764515, 765099, 765739, 766290, 766775, 767340, 767891, 768433]","[54, 114, 164, 111, 48, 132, 197, 168, 151, 180, 178, 142, 227, 249, 177, 18, 197, 177, 243, 189, 215, 237, 10]","[755389, 756061, 756597, 757237, 757838, 758462, 759088, 759650, 760245, 760811, 761408, 762059, 762655, 763283, 763908, 764478, 765071, 765684, 766233, 766757, 767320, 767849, 768412]","[754871, 755471, 756071, 756671, 757271, 757871, 758471, 759071, 759663, 760258, 760824, 761423, 762072, 762669, 763298, 763920, 764493, 765086, 765698, 766247, 766772, 767333, 767863, 768428]",86,EM,U,R,ITMSR,1.1,
2,400,trial,0,32,32,32,trial,"['S', 'S', 'S', 'S', 'S', 'S', 'S', 'C', 'C', 'C', 'C', 'C', 'C', 'C', 'C', 'C', 'C', 'C', 'C', 'C', 'C', 'C', 'C']","[774187, 774607, 774993, 775451, 775828, 776227, 776624, 777030, 777420, 777850, 778224, 778628, 779034, 779406, 779821, 780222, 780607, 780989, 781418, 781810, 782216, 782627, 783045]","[774246, 774692, 775078, 775505, 775891, 776280, 776690, 777103, 777467, 777913, 778286, 778720, 779121, 779474, 779901, 780243, 780690, 781074, 781500, 781883, 782311, 782742, 783153]","[247, 81, 55, 35, 49, 193, 177, 28, 72, 23, 68, 67, 40, 163, 112, 28, 197, 191, 129, 95, 180, 57, 79]","[774198, 774615, 775002, 775458, 775834, 776236, 776635, 777040, 777425, 777859, 778230, 778634, 779075, 779412, 779826, 780229, 780614, 780997, 781424, 781816, 782266, 782632, 783050]","[773863, 774263, 774663, 775063, 775463, 775863, 776263, 776664, 777050, 777440, 777870, 778244, 778648, 779054, 779426, 779841, 780242, 780627, 781009, 781438, 781830, 782236, 782647, 783065]",86,EM,U,R,ITMSR,1.1,
1,400,trial,0,33,33,33,trial,"['S', 'S', 'S', 'S', 'S', 'S', 'S', 'C', 'C', 'C', 'C', 'C', 'C', 'C', 'C', 'C', 'C', 'C', 'C', 'C', 'C', 'C', 'C']","[789038, 789394, 789769, 790140, 790559, 790936, 791379, 791746, 792158, 792541, 792945, 793366, 793753, 794153, 794539, 794967, 795352, 795730, 796134, 796539, 796913, 797334, 797734]","[789148, 789452, 789832, 790207, 790610, 791021, 791467, 791812, 792226, 792636, 793024, 793422, 793839, 794232, 794600, 795017, 795430, 795812, 796190, 796601, 796973, 797415, 797790]","[212, 77, 51, 37, 209, 76, 61, 6, 123, 191, 112, 188, 17, 66, 78, 137, 176, 249, 101, 15, 156, 0, 145]","[789046, 789403, 789776, 790148, 790566, 790941, 791386, 791754, 792165, 792587, 792954, 793373, 793760, 794160, 794545, 794974, 795359, 795737, 796140, 796547, 796920, 797340, 797742]","[788589, 788989, 789389, 789789, 790189, 790589, 790989, 791389, 791767, 792178, 792561, 792965, 793387, 793773, 794173, 794559, 794987, 795372, 795750, 796154, 796559, 796933, 797355, 797754]",86,EM,U,R,ITMSR,1.1,
5,400,trial,0,34,34,34,trial,"['S', 'S', 'S', 'S', 'S', 'S', 'S', 'C', 'C', 'C', 'C', 'C', 'C', 'C', 'C', 'C', 'C', 'C', 'C', 'C', 'C', 'C', 'C']","[803760, 804067, 804486, 804882, 805281, 805687, 806074, 806478, 806874, 807284, 807702, 808114, 808497, 808907, 809316, 809684, 810098, 810491, 810891, 811283, 811659, 812064, 812492]","[803818, 804124, 804553, 804954, 805349, 805743, 806132, 806554, 806965, 807352, 807767, 808172, 808564, 808960, 809380, 809757, 810147, 810561, 810966, 811333, 811729, 812124, 812520]","[114, 116, 249, 231, 15, 255, 30, 249, 159, 210, 120, 139, 158, 119, 155, 195, 122, 131, 153, 44, 164, 203, 137]","[803768, 804076, 804493, 804890, 805288, 805694, 806080, 806484, 806919, 807291, 807709, 808121, 808505, 808916, 809322, 809691, 810106, 810499, 810898, 811291, 811664, 812069, 812498]","[803306, 803706, 804106, 804506, 804907, 805306, 805706, 806106, 806498, 806894, 807304, 807723, 808134, 808517, 808927, 809336, 809704, 810118, 810511, 810911, 811303, 811679, 812084, 812512]",86,EM,U,R,ITMSR,1.1,
5,400,trial,0,35,35,35,trial,"['S', 'S', 'S', 'S', 'S', 'S', 'S', 'C', 'C', 'C', 'C', 'C', 'C', 'C', 'C', 'C', 'C', 'C', 'C', 'C', 'C', 'C', 'C']","[818558, 818891, 819386, 819773, 820169, 820589, 820990, 821398, 821791, 822180, 822584, 822963, 823349, 823738, 824164, 824558, 824964, 825364, 825734, 826139, 826526, 826919, 827325]","[818649, 818967, 819423, 819838, 820241, 820681, 821038, 821467, 821828, 822217, 822633, 823040, 823416, 823821, 824226, 824636, 825009, 825444, 825810, 826206, 826584, 826987, 827381]","[22, 38, 74, 67, 132, 112, 105, 89, 234, 206, 72, 13, 98, 122, 67, 42, 113, 79, 110, 167, 79, 204, 99]","[818598, 818898, 819393, 819779, 820174, 820596, 820997, 821406, 821798, 822190, 822590, 822973, 823355, 823745, 824171, 824566, 824970, 825372, 825740, 826146, 826533, 826952, 827332]","[818222, 818622, 819022, 819422, 819822, 820222, 820622, 821022, 821419, 821811, 822200, 822604, 822983, 823369, 823758, 824184, 824578, 824984, 825384, 825754, 826159, 826546, 826939, 827345]",86,EM,U,R,ITMSR,1.1,
3,400,trial,0,36,36,36,trial,"['S', 'S', 'S', 'S', 'S', 'S', 'S', 'C', 'C', 'C', 'C', 'C', 'C', 'C', 'C', 'C', 'C', 'C', 'C', 'C', 'C', 'C', 'C']","[833288, 833703, 834112, 834503, 834936, 835361, 835753, 836131, 836503, 836890, 837309, 837678, 838067, 838457, 838879, 839274, 839688, 840057, 840450, 840852, 841247, 841634, 842057]","[833362, 833769, 834161, 834583, 834991, 835425, 835810, 836187, 836547, 836952, 837357, 837762, 838120, 838524, 838977, 839334, 839752, 840126, 840518, 840905, 841310, 841696, 842077]","[176, 50, 220, 140, 150, 248, 99, 87, 141, 27, 13, 44, 94, 150, 82, 156, 75, 111, 66, 43, 181, 11, 142]","[833298, 833710, 834119, 834510, 834944, 835371, 835760, 836137, 836509, 836897, 837316, 837719, 838073, 838463, 838924, 839280, 839696, 840064, 840457, 840859, 841255, 841640, 842064]","[832947, 833347, 833747, 834147, 834547, 834947, 835347, 835747, 836151, 836524, 836910, 837329, 837698, 838087, 838477, 838899, 839294, 839708, 840077, 840470, 840872, 841267, 841654, 842077]",86,EM,U,R,ITMSR,1.1,
3,400,trial,0,37,37,37,trial,"['S', 'S', 'S', 'S', 'S', 'S', 'S', 'C', 'C', 'C', 'C', 'C', 'C', 'C', 'C', 'C', 'C', 'C', 'C', 'C', 'C', 'C', 'C']","[848205, 848547, 848978, 849351, 849754, 850155, 850541, 850924, 851299, 851680, 852083, 852491, 852874, 853228, 853638, 854028, 854425, 854833, 855193, 855581, 855984, 856375, 856743]","[848247, 848605, 849026, 849419, 849804, 850209, 850594, 850996, 851344, 851730, 852112, 852533, 852930, 853294, 853683, 854108, 854462, 854875, 855254, 855640, 856043, 856435, 856777]","[186, 76, 32, 37, 84, 229, 27, 7, 6, 204, 105, 152, 198, 52, 138, 255, 145, 210, 192, 46, 156, 51, 226]","[848211, 848555, 848986, 849358, 849761, 850164, 850548, 850932, 851306, 851688, 852090, 852501, 852881, 853234, 853645, 854069, 854432, 854842, 855201, 855589, 855991, 856381, 856749]","[847837, 848237, 848637, 849037, 849437, 849837, 850237, 850637, 850945, 851319, 851700, 852103, 852511, 852894, 853249, 853658, 854048, 854445, 854853, 855213, 855601, 856004, 856395, 856763]",86,EM,U,R,ITMSR,1.1,
2,400,trial,0,38,38,38,trial,"['S', 'S', 'S', 'S', 'S', 'S', 'S', 'C', 'C', 'C', 'C', 'C', 'C', 'C', 'C', 'C', 'C', 'C', 'C', 'C', 'C', 'C', 'C']","[862709, 863191, 863591, 863985, 864381, 864823, 865229, 865660, 866057, 866488, 866876, 867270, 867635, 868073, 868458, 868825, 869223, 869617, 869985, 870396, 870779, 871164, 871562]","[862788, 863240, 863646, 864061, 864446, 864893, 865290, 865719, 866101, 866538, 866934, 867337, 867726, 868093, 868498, 868869, 869282, 869672, 870060, 870453, 870836, 871233, 871616]","[247, 212, 182, 175, 170, 143, 175, 165, 167, 150, 89, 85, 16, 152, 80, 11, 67, 165, 120, 35, 209, 246, 204]","[862714, 863197, 863598, 863991, 864388, 864829, 865235, 865666, 866063, 866494, 866883, 867277, 867684, 868080, 868465, 868831, 869231, 869624, 870026, 870404, 870787, 871172, 871569]","[862447, 862846, 863246, 863646, 864046, 864446, 864846, 865246, 865680, 866077, 866508, 866896, 867290, 867655, 868093, 868478, 868845, 869243, 869637, 870005, 870416, 870799, 871184, 871582]",86,EM,U,R,ITMSR,1.1,
4,600,trial,0,39,39,39,trial,"['S', 'S', 'S', 'S', 'S', 'S', 'S', 'S', 'C', 'C', 'C', 'C', 'C', 'C', 'C', 'C', 'C', 'C', 'C', 'C', 'C', 'C', 'C', 'C']","[877412, 877820, 878243, 878799, 879392, 880009, 880582, 881247, 881881, 882446, 883051, 883650, 884267, 884878, 885465, 886078, 886712, 887328, 887834, 888366, 888929, 889530, 890130, 890661]","[877474, 877852, 878291, 878855, 879436, 880081, 880637, 881299, 881930, 882486, 883102, 883696, 884331, 884938, 885521, 886113, 886732, 887377, 887918, 888416, 888985, 889583, 890191, 890741]","[23, 68, 146, 137, 135, 185, 8, 186, 102, 129, 71, 105, 251, 72, 188, 60, 29, 176, 209, 192, 171, 185, 161, 173]","[877419, 877828, 878249, 878806, 879398, 880015, 880586, 881253, 881888, 882453, 883058, 883657, 884272, 884885, 885470, 886085, 886716, 887334, 887889, 888371, 888935, 889536, 890135, 890667]","[877091, 877691, 878291, 878892, 879491, 880091, 880691, 881291, 881901, 882466, 883072, 883671, 884287, 884898, 885485, 886098, 886732, 887348, 887854, 888386, 888949, 889550, 890150, 890681]",86,EM,U,R,ITMSR,1.1,
1,400,trial,0,40,40,40,trial,"['S', 'S', 'S', 'S', 'S', 'S', 'S', 'C', 'C', 'C', 'C', 'C', 'C', 'C', 'C', 'C', 'C', 'C', 'C', 'C', 'C', 'C', 'C']","[896595, 896923, 897299, 897684, 898121, 898541, 898922, 899337, 899758, 900149, 900601, 901024, 901453, 901855, 902270, 902674, 903089, 903501, 903879, 904301, 904736, 905167, 905550]","[896625, 896943, 897348, 897735, 898169, 898561, 898969, 899395, 899810, 900191, 900672, 901060, 901487, 901899, 902308, 902719, 903139, 903559, 903937, 904349, 904782, 905206, 905600]","[237, 241, 126, 209, 175, 63, 21, 62, 253, 233, 141, 229, 154, 63, 109, 252, 249, 62, 103, 225, 85, 126, 33]","[896604, 896931, 897305, 897691, 898126, 898546, 898928, 899346, 899766, 900156, 900637, 901029, 901459, 901860, 902279, 902679, 903094, 903506, 903885, 904307, 904745, 905179, 905558]","[896120, 896519, 896919, 897319, 897719, 898119, 898520, 898920, 899357, 899778, 900169, 900621, 901044, 901473, 901875, 902290, 902694, 903109, 903521, 903899, 904322, 904756, 905187, 905570]",86,EM,U,R,ITMSR,1.1,
0,400,trial,0,41,41,41,trial,"['S', 'S', 'S', 'S', 'S', 'S', 'S', 'C', 'C', 'C', 'C', 'C', 'C', 'C', 'C', 'C', 'C', 'C', 'C', 'C', 'C', 'C', 'C']","[911337, 911766, 912189, 912612, 913055, 913433, 913864, 914267, 914682, 915138, 915496, 915915, 916340, 916749, 917154, 917590, 917974, 918369, 918776, 919181, 919620, 919997, 920397]","[911403, 911861, 912232, 912640, 913077, 913510, 913912, 914312, 914738, 915192, 915571, 915966, 916383, 916805, 917211, 917637, 918030, 918433, 918828, 919243, 919640, 920067, 920456]","[249, 246, 38, 36, 42, 171, 87, 89, 21, 63, 22, 54, 56, 73, 107, 3, 134, 113, 10, 249, 12, 140, 79]","[911345, 911794, 912196, 912618, 913062, 913440, 913870, 914275, 914689, 915147, 915506, 915922, 916347, 916757, 917183, 917597, 917978, 918375, 918781, 919186, 919623, 920031, 920431]","[911062, 911461, 911861, 912261, 912661, 913061, 913461, 913861, 914287, 914702, 915159, 915516, 915935, 916360, 916769, 917174, 917610, 917994, 918389, 918796, 919201, 919640, 920017, 920417]",86,EM,U,R,ITMSR,1.1,
3,600,trial,0,42,42,42,trial,"['S', 'S', 'S', 'S', 'S', 'S', 'S', 'S', 'C', 'C', 'C', 'C', 'C', 'C', 'C', 'C', 'C', 'C', 'C', 'C', 'C', 'C', 'C', 'C']","[926001, 926391, 926856, 927470, 928081, 928673, 929323, 929895, 930502, 931119, 931728, 932353, 932980, 933579, 934197, 934779, 935357, 935956, 936601, 937178, 937716, 938262, 938809, 939347]","[926092, 926465, 926897, 927521, 928101, 928700, 929367, 929935, 930522, 931159, 931788, 932388, 933009, 933630, 934244, 934827, 935388, 935994, 936646, 937228, 937736, 938293, 938848, 939399]","[185, 253, 247, 28, 149, 191, 124, 100, 188, 171, 50, 192, 188, 51, 40, 66, 237, 92, 127, 201, 141, 56, 251, 209]","[926055, 926438, 926863, 927476, 928089, 928679, 929330, 929900, 930508, 931125, 931732, 932358, 932985, 933584, 934201, 934784, 935362, 935962, 936606, 937182, 937720, 938266, 938813, 939352]","[925730, 926330, 926930, 927531, 928130, 928730, 929330, 929930, 930522, 931139, 931748, 932373, 933000, 933599, 934217, 934799, 935377, 935976, 936621, 937198, 937736, 938283, 938829, 939367]",86,EM,U,R,ITMSR,1.1,
0,600,trial,0,43,43,43,trial,"['S', 'S', 'S', 'S', 'S', 'S', 'C', 'C', 'C', 'C', 'C', 'C', 'C', 'C', 'C', 'C', 'C', 'C', 'C', 'C', 'C', 'C']","[946031, 946659, 947316, 947956, 948544, 949131, 949730, 950344, 950888, 951458, 952024, 952594, 953183, 953748, 954327, 954895, 955463, 956067, 956638, 957195, 957759, 958389]","[946085, 946705, 947360, 948028, 948564, 949183, 949793, 950397, 950969, 951519, 952045, 952639, 953229, 953804, 954376, 954964, 955514, 956106, 956683, 957236, 957809, 958409]","[168, 9, 57, 146, 247, 2, 58, 36, 35, 38, 3, 91, 243, 38, 223, 64, 244, 13, 45, 2, 239, 198]","[946038, 946665, 947321, 947960, 948550, 949136, 949735, 950349, 950893, 951464, 952030, 952600, 953189, 953754, 954333, 954900, 955469, 956072, 956644, 957201, 957765, 958395]","[944989, 945589, 946189, 946789, 947389, 947989, 948589, 949189, 949750, 950364, 950908, 951478, 952044, 952614, 953203, 953768, 954347, 954915, 955483, 956087, 956658, 957215, 957779, 958409]",86,EM,U,R,ITMSR,1.1,
1,600,trial,0,44,44,44,trial,"['S', 'S', 'S', 'S', 'C', 'C', 'C', 'C', 'C', 'C', 'C', 'C', 'C', 'C', 'C', 'C', 'C', 'C', 'C', 'C']","[966486, 967057, 967673, 968328, 968942, 969575, 970142, 970697, 971290, 971875, 972513, 973081, 973645, 974189, 974729, 975298, 975890, 976462, 977053, 977536]","[966506, 967077, 967728, 968369, 968990, 969595, 970162, 970743, 971330, 971922, 972533, 973126, 973705, 974236, 974792, 975354, 975910, 976505, 977073, 977605]","[117, 163, 15, 42, 131, 164, 137, 233, 179, 73, 159, 247, 237, 217, 252, 189, 193, 176, 57, 117]","[966492, 967061, 967677, 968333, 968948, 969581, 970148, 970703, 971297, 971880, 972518, 973087, 973650, 974195, 974735, 975304, 975895, 976468, 977060, 977543]","[964174, 964774, 965374, 965975, 966574, 967174, 967774, 968374, 968962, 969595, 970162, 970717, 971310, 971895, 972533, 973101, 973665, 974210, 974749, 975319, 975910, 976482, 977073, 977556]",86,EM,U,R,ITMSR,1.1,
2,600,trial,0,45,45,45,trial,"['S', 'S', 'S', 'S', 'S', 'S', 'S', 'C', 'C', 'C', 'C', 'C', 'C', 'C', 'C', 'C', 'C', 'C', 'C', 'C', 'C', 'C', 'C']","[983330, 984004, 984619, 985225, 985811, 986480, 987088, 987671, 988260, 988778, 989357, 989929, 990504, 991012, 991529, 992065, 992623, 993187, 993768, 995483, 996007, 996575, 997149]","[983415, 984074, 984690, 985284, 985889, 986500, 987130, 987722, 988280, 988850, 989377, 989967, 990560, 991066, 991569, 992091, 992678, 993232, 993788, 995536, 996061, 996661, 997206]","[118, 9, 97, 211, 225, 223, 127, 125, 84, 49, 177, 72, 67, 35, 60, 112, 85, 65, 9, 253, 142, 182, 222]","[983339, 984011, 984624, 985230, 985817, 986485, 987095, 987678, 988267, 988784, 989362, 989935, 990512, 991020, 991535, 992070, 992628, 993192, 993774, 995487, 996012, 996580, 997154]","[982961, 983560, 984160, 984760, 985360, 985960, 986560, 987160, 987692, 988280, 988798, 989377, 989949, 990524, 991032, 991549, 992086, 992643, 993207, 993788, 995503, 996027, 996595, 997169]",86,EM,U,R,ITMSR,1.1,
5,600,trial,0,46,46,46,trial,"['S', 'S', 'S', 'S', 'S', 'S', 'S', 'C', 'C', 'C', 'C', 'C', 'C', 'C', 'C', 'C', 'C', 'C', 'C', 'C', 'C', 'C', 'C']","[1003125, 1003725, 1004322, 1004919, 1005510, 1006090, 1006729, 1007316, 1007879, 1008458, 1009030, 1009615, 1010160, 1010732, 1011310, 1011909, 1012492, 1013040, 1013661, 1014277, 1014827, 1015364, 1015924]","[1003206, 1003785, 1004400, 1005002, 1005589, 1006174, 1006798, 1007408, 1007919, 1008516, 1009072, 1009659, 1010213, 1010770, 1011339, 1011972, 1012512, 1013108, 1013711, 1014329, 1014881, 1015411, 1015974]","[182, 2, 74, 75, 72, 85, 223, 155, 180, 122, 143, 220, 195, 92, 22, 56, 4, 103, 140, 155, 224, 214, 250]","[1003131, 1003735, 1004328, 1004956, 1005516, 1006096, 1006734, 1007363, 1007885, 1008464, 1009036, 1009624, 1010166, 1010737, 1011314, 1011950, 1012496, 1013046, 1013669, 1014281, 1014832, 1015369, 1015929]","[1002597, 1003197, 1003797, 1004397, 1004997, 1005597, 1006197, 1006797, 1007336, 1007899, 1008478, 1009050, 1009635, 1010180, 1010752, 1011330, 1011929, 1012512, 1013060, 1013681, 1014297, 1014847, 1015384, 1015944]",86,EM,U,R,ITMSR,1.1,
4,400,trial,0,47,47,47,trial,"['S', 'S', 'S', 'S', 'S', 'S', 'S', 'C', 'C', 'C', 'C', 'C', 'C', 'C', 'C', 'C', 'C', 'C', 'C', 'C', 'C', 'C', 'C']","[1021754, 1022163, 1022562, 1022991, 1023387, 1023779, 1024216, 1024592, 1025021, 1025415, 1025794, 1026206, 1026601, 1027008, 1027423, 1027837, 1028246, 1028661, 1029041, 1029451, 1029895, 1030272, 1030654]","[1021836, 1022274, 1022604, 1023029, 1023423, 1023819, 1024236, 1024649, 1025064, 1025449, 1025846, 1026240, 1026663, 1027072, 1027457, 1027878, 1028292, 1028724, 1029110, 1029483, 1029925, 1030322, 1030702]","[146, 94, 73, 244, 30, 52, 23, 141, 188, 97, 50, 34, 143, 86, 222, 176, 237, 84, 123, 182, 169, 54, 217]","[1021801, 1022228, 1022569, 1022996, 1023392, 1023785, 1024218, 1024599, 1025028, 1025422, 1025801, 1026211, 1026635, 1027045, 1027429, 1027866, 1028276, 1028688, 1029074, 1029475, 1029916, 1030304, 1030660]","[1021416, 1021816, 1022216, 1022616, 1023016, 1023416, 1023816, 1024216, 1024612, 1025041, 1025435, 1025814, 1026226, 1026621, 1027028, 1027443, 1027857, 1028267, 1028681, 1029061, 1029471, 1029915, 1030292, 1030674]",86,EM,U,R,ITMSR,1.1,
4,600,trial,0,48,48,48,trial,"['S', 'S', 'S', 'S', 'S', 'S', 'S', 'C', 'C', 'C', 'C', 'C', 'C', 'C', 'C', 'C', 'C', 'C', 'C', 'C', 'C', 'C', 'C']","[1036437, 1037109, 1037702, 1038337, 1038931, 1039481, 1040101, 1040744, 1041584, 1042155, 1042796, 1043368, 1043907, 1044462, 1045027, 1045603, 1046193, 1046772, 1047315, 1047916, 1048483, 1049128, 1049664]","[1036529, 1037165, 1037754, 1038406, 1038971, 1039560, 1040158, 1040800, 1041605, 1042229, 1042875, 1043445, 1044031, 1044529, 1045088, 1045684, 1046261, 1046837, 1047375, 1047968, 1048553, 1049181, 1049755]","[140, 104, 186, 95, 110, 59, 114, 166, 45, 246, 68, 180, 19, 213, 22, 20, 250, 253, 213, 238, 17, 244, 221]","[1036443, 1037115, 1037707, 1038343, 1038938, 1039490, 1040106, 1040749, 1041593, 1042159, 1042802, 1043374, 1043911, 1044467, 1045031, 1045607, 1046197, 1046776, 1047320, 1047920, 1048487, 1049133, 1049669]","[1035998, 1036598, 1037198, 1037798, 1038398, 1038998, 1039598, 1040198, 1040764, 1041604, 1042176, 1042817, 1043388, 1043928, 1044482, 1045047, 1045623, 1046213, 1046792, 1047335, 1047937, 1048503, 1049148, 1049684]",86,EM,U,R,ITMSR,1.1,
5,600,trial,0,49,49,49,trial,"['S', 'S', 'S', 'S', 'S', 'S', 'S', 'S', 'C', 'C', 'C', 'C', 'C', 'C', 'C', 'C', 'C', 'C', 'C', 'C', 'C', 'C', 'C', 'C']","[1055777, 1056140, 1056599, 1057210, 1057779, 1058381, 1058995, 1059647, 1060211, 1060780, 1061332, 1061886, 1062465, 1063027, 1063577, 1064178, 1064691, 1065211, 1065711, 1066253, 1066733, 1067247, 1067763, 1068269]","[1055846, 1056204, 1056658, 1057271, 1057856, 1058444, 1059039, 1059695, 1060272, 1060828, 1061392, 1061938, 1062531, 1063090, 1063632, 1064248, 1064762, 1065268, 1065778, 1066309, 1066802, 1067302, 1067816, 1068340]","[37, 130, 87, 19, 228, 48, 92, 42, 208, 122, 121, 28, 100, 108, 211, 36, 32, 2, 159, 90, 185, 101, 168, 153]","[1055817, 1056176, 1056606, 1057217, 1057786, 1058387, 1059000, 1059653, 1060217, 1060787, 1061339, 1061894, 1062472, 1063034, 1063582, 1064185, 1064698, 1065219, 1065717, 1066259, 1066738, 1067254, 1067769, 1068274]","[1055465, 1056064, 1056664, 1057264, 1057864, 1058464, 1059064, 1059664, 1060231, 1060800, 1061352, 1061906, 1062486, 1063047, 1063597, 1064198, 1064711, 1065231, 1065731, 1066273, 1066754, 1067267, 1067783, 1068290]",86,EM,U,R,ITMSR,1.1,
4,400,trial,0,50,50,50,trial,"['S', 'S', 'S', 'S', 'S', 'S', 'C', 'C', 'C', 'C', 'C', 'C', 'C', 'C', 'C', 'C', 'C', 'C', 'C', 'C', 'C', 'C']","[1074625, 1074966, 1075359, 1075760, 1076136, 1076568, 1076964, 1077383, 1077794, 1078168, 1078601, 1079400, 1079802, 1080184, 1080572, 1080987, 1081402, 1081776, 1082168, 1082603, 1082978, 1083358]","[1074646, 1075036, 1075451, 1075833, 1076229, 1076652, 1077024, 1077435, 1077859, 1078247, 1078659, 1079468, 1079878, 1080254, 1080619, 1081043, 1081435, 1081843, 1082240, 1082638, 1083048, 1083426]","[112, 113, 66, 231, 251, 254, 87, 244, 65, 54, 233, 153, 250, 198, 43, 255, 125, 12, 25, 93, 242, 178]","[1074626, 1074983, 1075403, 1075792, 1076177, 1076602, 1076986, 1077411, 1077820, 1078208, 1078618, 1079422, 1079838, 1080218, 1080595, 1081016, 1081415, 1081803, 1082201, 1082620, 1083013, 1083384]","[1073826, 1074225, 1074625, 1075025, 1075425, 1075825, 1076226, 1076626, 1076984, 1077403, 1077814, 1078189, 1078621, 1079420, 1079822, 1080204, 1080592, 1081007, 1081422, 1081796, 1082188, 1082624, 1082998, 1083378]",86,EM,U,R,ITMSR,1.1,
2,600,trial,0,51,51,51,trial,"['S', 'S', 'S', 'S', 'S', 'S', 'S', 'C', 'C', 'C', 'C', 'C', 'C', 'C', 'C', 'C', 'C', 'C', 'C', 'C', 'C', 'C', 'C']","[1089490, 1090040, 1090625, 1091228, 1091834, 1092452, 1093013, 1093576, 1094077, 1094637, 1095197, 1095787, 1096309, 1096824, 1097338, 1097884, 1098409, 1098899, 1099442, 1099957, 1100466, 1100995, 1101514]","[1089556, 1090117, 1090715, 1091337, 1091961, 1092562, 1093109, 1093686, 1094185, 1094728, 1095293, 1095878, 1096426, 1096904, 1097418, 1097966, 1098502, 1098993, 1099531, 1100050, 1100557, 1101088, 1101587]","[92, 174, 31, 39, 237, 219, 211, 233, 213, 161, 198, 208, 18, 173, 200, 165, 209, 221, 192, 187, 200, 227, 87]","[1089518, 1090073, 1090665, 1091290, 1091885, 1092493, 1093052, 1093617, 1094123, 1094675, 1095252, 1095827, 1096368, 1096858, 1097382, 1097919, 1098450, 1098938, 1099485, 1099998, 1100506, 1101032, 1101543]","[1088957, 1089556, 1090156, 1090756, 1091356, 1091956, 1092556, 1093156, 1093596, 1094097, 1094658, 1095217, 1095808, 1096329, 1096844, 1097358, 1097904, 1098429, 1098919, 1099462, 1099977, 1100486, 1101016, 1101534]",86,EM,U,R,ITMSR,1.1,
0,400,trial,0,52,52,52,trial,"['S', 'S', 'S', 'S', 'S', 'S', 'C', 'C', 'C', 'C', 'C', 'C', 'C', 'C', 'C', 'C', 'C', 'C', 'C', 'C', 'C', 'C']","[1107953, 1108344, 1108749, 1109173, 1109577, 1109966, 1110345, 1110754, 1111122, 1111533, 1111908, 1112318, 1112693, 1113059, 1113472, 1113859, 1114235, 1114630, 1114979, 1115405, 1115780, 1116172]","[1108022, 1108425, 1108832, 1109255, 1109643, 1110049, 1110437, 1110839, 1111202, 1111612, 1111987, 1112397, 1112775, 1113138, 1113551, 1113934, 1114322, 1114706, 1115060, 1115463, 1115866, 1116266]","[6, 71, 223, 244, 154, 235, 247, 196, 204, 204, 193, 140, 237, 143, 202, 134, 204, 147, 151, 219, 211, 134]","[1107982, 1108379, 1108797, 1109213, 1109615, 1110004, 1110396, 1110803, 1111161, 1111577, 1111953, 1112358, 1112726, 1113094, 1113505, 1113901, 1114279, 1114671, 1115013, 1115440, 1115821, 1116228]","[1107213, 1107613, 1108013, 1108413, 1108813, 1109213, 1109613, 1110013, 1110365, 1110774, 1111142, 1111554, 1111928, 1112338, 1112713, 1113079, 1113492, 1113879, 1114255, 1114650, 1114999, 1115425, 1115800, 1116192]",86,EM,U,R,ITMSR,1.1,
1,600,trial,0,53,53,53,trial,"['S', 'S', 'S', 'S', 'S', 'S', 'S', 'C', 'C', 'C', 'C', 'C', 'C', 'C', 'C', 'C', 'C', 'C', 'C', 'C', 'C', 'C', 'C']","[1122363, 1122996, 1123616, 1124233, 1124846, 1125457, 1126007, 1126609, 1127144, 1127698, 1128282, 1128816, 1129369, 1129902, 1130423, 1130981, 1131505, 1132068, 1132603, 1133152, 1133660, 1134224, 1134740]","[1122447, 1123062, 1123691, 1124323, 1124914, 1125521, 1126093, 1126691, 1127230, 1127783, 1128357, 1128903, 1129466, 1129993, 1130525, 1131074, 1131624, 1132177, 1132711, 1133257, 1133776, 1134304, 1134894]","[230, 159, 247, 20, 239, 129, 39, 23, 252, 22, 4, 35, 59, 24, 81, 22, 102, 235, 30, 30, 81, 234, 123]","[1122393, 1123022, 1123653, 1124284, 1124874, 1125491, 1126051, 1126646, 1127183, 1127736, 1128329, 1128861, 1129415, 1129943, 1130464, 1131014, 1131572, 1132112, 1132663, 1133196, 1133712, 1134255, 1134834]","[1121943, 1122542, 1123142, 1123742, 1124342, 1124942, 1125542, 1126142, 1126629, 1127164, 1127718, 1128302, 1128836, 1129389, 1129922, 1130443, 1131001, 1131525, 1132088, 1132623, 1133172, 1133680, 1134244, 1134760]",86,EM,U,R,ITMSR,1.1,
0,400,trial,0,54,54,54,trial,"['S', 'S', 'S', 'S', 'S', 'S', 'S', 'C', 'C', 'C', 'C', 'C', 'C', 'C', 'C', 'C', 'C', 'C', 'C', 'C', 'C', 'C', 'C']","[1149306, 1149606, 1149982, 1150329, 1150731, 1151128, 1151534, 1151931, 1152346, 1152713, 1153116, 1153487, 1153901, 1154294, 1154704, 1155078, 1155481, 1155876, 1156239, 1156623, 1157041, 1157435, 1157833]","[1149382, 1149678, 1150035, 1150415, 1150802, 1151175, 1151589, 1151987, 1152388, 1152761, 1153166, 1153536, 1153957, 1154338, 1154781, 1155134, 1155525, 1155920, 1156307, 1156673, 1157069, 1157470, 1157886]","[46, 139, 218, 252, 11, 142, 203, 200, 23, 115, 222, 138, 173, 126, 8, 88, 148, 4, 15, 68, 204, 119, 75]","[1149332, 1149639, 1150008, 1150359, 1150753, 1151148, 1151556, 1151958, 1152368, 1152735, 1153145, 1153512, 1153928, 1154315, 1154732, 1155100, 1155501, 1155896, 1156276, 1156645, 1157057, 1157448, 1157855]","[1148831, 1149231, 1149631, 1150031, 1150431, 1150831, 1151232, 1151631, 1151951, 1152366, 1152733, 1153136, 1153507, 1153922, 1154314, 1154724, 1155098, 1155501, 1155896, 1156259, 1156643, 1157061, 1157455, 1157853]",86,EM,U,R,ITMSR,1.1,
1,400,trial,0,55,55,55,trial,"['S', 'S', 'S', 'S', 'S', 'C', 'C', 'C', 'C', 'C', 'C', 'C', 'C', 'C', 'C', 'C', 'C', 'C', 'C', 'C', 'C']","[1164660, 1165140, 1165526, 1165927, 1166325, 1166703, 1167120, 1167485, 1167910, 1168316, 1168696, 1169135, 1169508, 1169894, 1170308, 1170672, 1171069, 1171461, 1171858, 1172228, 1172634]","[1164710, 1165172, 1165578, 1165991, 1166387, 1166760, 1167165, 1167537, 1167955, 1168354, 1168744, 1169172, 1169587, 1169973, 1170343, 1170729, 1171131, 1171524, 1171896, 1172296, 1172670]","[235, 90, 8, 217, 141, 166, 202, 113, 182, 168, 22, 151, 224, 246, 246, 215, 126, 58, 178, 163, 217]","[1164683, 1165142, 1165554, 1165953, 1166352, 1166731, 1167145, 1167511, 1167933, 1168332, 1168714, 1169155, 1169553, 1169925, 1170317, 1170704, 1171103, 1171491, 1171865, 1172268, 1172654]","[1163586, 1163986, 1164386, 1164786, 1165186, 1165586, 1165986, 1166386, 1166723, 1167140, 1167505, 1167930, 1168336, 1168716, 1169155, 1169528, 1169914, 1170328, 1170692, 1171089, 1171481, 1171878, 1172248, 1172654]",86,EM,U,R,ITMSR,1.1,
4,600,trial,0,56,56,56,trial,"['S', 'S', 'S', 'S', 'S', 'S', 'S', 'S', 'C', 'C', 'C', 'C', 'C', 'C', 'C', 'C', 'C', 'C', 'C', 'C', 'C', 'C', 'C', 'C']","[1178274, 1178678, 1179208, 1179846, 1180422, 1181014, 1181618, 1182230, 1182849, 1183488, 1184064, 1184624, 1185233, 1185789, 1186424, 1186987, 1187622, 1188170, 1188705, 1189318, 1189871, 1190426, 1190971, 1191526]","[1178378, 1178752, 1179294, 1179889, 1180459, 1181048, 1181675, 1182288, 1182895, 1183528, 1184125, 1184679, 1185272, 1185862, 1186465, 1187048, 1187667, 1188231, 1188770, 1189380, 1189914, 1190493, 1191027, 1191600]","[165, 158, 200, 36, 162, 225, 31, 26, 218, 210, 60, 211, 170, 47, 102, 132, 123, 191, 143, 251, 180, 89, 104, 184]","[1178296, 1178707, 1179233, 1179866, 1180441, 1181031, 1181641, 1182257, 1182870, 1183494, 1184087, 1184650, 1185253, 1185821, 1186444, 1187007, 1187645, 1188195, 1188730, 1189341, 1189891, 1190448, 1190994, 1191552]","[1178046, 1178646, 1179246, 1179846, 1180446, 1181046, 1181646, 1182246, 1182869, 1183508, 1184084, 1184644, 1185253, 1185809, 1186444, 1187007, 1187642, 1188190, 1188725, 1189338, 1189891, 1190446, 1190991, 1191546]",86,EM,U,R,ITMSR,1.1,
2,600,trial,0,57,57,57,trial,"['S', 'S', 'S', 'S', 'S', 'S', 'S', 'C', 'C', 'C', 'C', 'C', 'C', 'C', 'C', 'C', 'C', 'C', 'C', 'C', 'C', 'C', 'C']","[1197972, 1198394, 1199034, 1199571, 1200134, 1200771, 1201412, 1201987, 1202544, 1203156, 1203726, 1204328, 1204962, 1205492, 1206065, 1206646, 1207161, 1207710, 1208275, 1208912, 1209468, 1210054, 1210611]","[1198007, 1198450, 1199084, 1199653, 1200244, 1200841, 1201462, 1202069, 1202601, 1203208, 1203789, 1204399, 1205004, 1205554, 1206112, 1206696, 1207217, 1207813, 1208363, 1208982, 1209528, 1210139, 1210676]","[50, 245, 98, 244, 15, 3, 227, 31, 207, 207, 27, 123, 108, 56, 95, 94, 252, 212, 26, 27, 51, 33, 17]","[1197986, 1198415, 1199058, 1199601, 1200164, 1200795, 1201437, 1202014, 1202569, 1203181, 1203752, 1204356, 1204986, 1205518, 1206086, 1206673, 1207187, 1207737, 1208302, 1208940, 1209494, 1210076, 1210638]","[1197278, 1197878, 1198478, 1199078, 1199678, 1200278, 1200878, 1201478, 1202008, 1202564, 1203176, 1203746, 1204348, 1204982, 1205512, 1206085, 1206666, 1207181, 1207730, 1208295, 1208932, 1209488, 1210074, 1210631]",86,EM,U,R,ITMSR,1.1,
5,400,trial,0,58,58,58,trial,"['S', 'S', 'S', 'S', 'S', 'S', 'S', 'C', 'C', 'C', 'C', 'C', 'C', 'C', 'C', 'C', 'C', 'C', 'C', 'C', 'C', 'C', 'C']","[1216864, 1217162, 1217557, 1217968, 1218370, 1218755, 1219137, 1219543, 1219936, 1220325, 1220730, 1221140, 1221520, 1221920, 1222323, 1222720, 1223157, 1223556, 1223944, 1224351, 1224770, 1225152, 1225554]","[1216950, 1217246, 1217650, 1218031, 1218450, 1218835, 1219221, 1219616, 1220015, 1220404, 1220832, 1221220, 1221592, 1222004, 1222402, 1222801, 1223220, 1223641, 1224046, 1224433, 1224856, 1225249, 1225650]","[148, 103, 90, 8, 188, 43, 27, 47, 239, 200, 253, 209, 214, 203, 193, 149, 112, 171, 22, 187, 161, 250, 169]","[1216892, 1217191, 1217594, 1217997, 1218403, 1218788, 1219167, 1219567, 1219965, 1220355, 1220763, 1221177, 1221547, 1221950, 1222356, 1222754, 1223185, 1223595, 1223982, 1224386, 1224805, 1225189, 1225595]","[1216414, 1216814, 1217214, 1217614, 1218014, 1218414, 1218814, 1219214, 1219563, 1219956, 1220345, 1220750, 1221160, 1221540, 1221940, 1222343, 1222740, 1223177, 1223576, 1223964, 1224371, 1224791, 1225172, 1225574]",86,EM,U,R,ITMSR,1.1,
3,600,trial,0,59,59,59,trial,"['S', 'S', 'S', 'S', 'S', 'S', 'S', 'C', 'C', 'C', 'C', 'C', 'C', 'C', 'C', 'C', 'C', 'C', 'C', 'C', 'C', 'C', 'C']","[1231650, 1232172, 1232856, 1233488, 1234146, 1234790, 1235372, 1235965, 1236510, 1237118, 1237645, 1238204, 1238759, 1239334, 1239855, 1240391, 1240952, 1241496, 1242050, 1242565, 1243078, 1243603, 1244176]","[1231731, 1232251, 1232930, 1233585, 1234214, 1234869, 1235460, 1236069, 1236613, 1237209, 1237761, 1238309, 1238892, 1239438, 1239968, 1240481, 1241035, 1241629, 1242156, 1242673, 1243182, 1243752, 1244262]","[188, 169, 197, 14, 94, 1, 188, 16, 214, 181, 211, 239, 234, 180, 178, 162, 219, 38, 112, 143, 175, 239, 155]","[1231689, 1232208, 1232879, 1233533, 1234183, 1234820, 1235412, 1235997, 1236548, 1237147, 1237713, 1238249, 1238834, 1239374, 1239906, 1240431, 1240973, 1241568, 1242101, 1242609, 1243137, 1243678, 1244206]","[1231251, 1231851, 1232451, 1233051, 1233651, 1234251, 1234851, 1235451, 1235985, 1236530, 1237138, 1237665, 1238224, 1238779, 1239354, 1239875, 1240411, 1240972, 1241517, 1242071, 1242585, 1243098, 1243623, 1244196]",86,EM,U,R,ITMSR,1.1,
4,400,trial,0,60,60,60,trial,"['S', 'S', 'S', 'S', 'S', 'S', 'C', 'C', 'C', 'C', 'C', 'C', 'C', 'C', 'C', 'C', 'C', 'C', 'C', 'C', 'C', 'C']","[1250514, 1250811, 1251301, 1251705, 1252074, 1252480, 1252886, 1253318, 1253696, 1254117, 1254545, 1255357, 1255717, 1256118, 1256555, 1256957, 1257369, 1257762, 1258190, 1258631, 1259036, 1259464]","[1250555, 1250888, 1251355, 1251745, 1252154, 1252545, 1252958, 1253374, 1253781, 1254161, 1254565, 1255387, 1255793, 1256175, 1256630, 1257015, 1257467, 1257826, 1258266, 1258704, 1259123, 1259539]","[211, 250, 61, 179, 58, 139, 47, 18, 0, 9, 84, 208, 115, 31, 231, 241, 21, 82, 112, 62, 65, 249]","[1250528, 1250838, 1251318, 1251722, 1252108, 1252510, 1252913, 1253343, 1253723, 1254142, 1254551, 1255373, 1255759, 1256146, 1256586, 1256985, 1257396, 1257785, 1258216, 1258654, 1259066, 1259494]","[1249732, 1250132, 1250532, 1250932, 1251332, 1251732, 1252132, 1252532, 1252907, 1253338, 1253716, 1254137, 1254565, 1255377, 1255737, 1256138, 1256576, 1256977, 1257389, 1257782, 1258210, 1258651, 1259056, 1259484]",86,EM,U,R,ITMSR,1.1,
0,600,trial,0,61,61,61,trial,"['S', 'S', 'S', 'S', 'S', 'S', 'S', 'C', 'C', 'C', 'C', 'C', 'C', 'C', 'C', 'C', 'C', 'C', 'C', 'C', 'C', 'C', 'C']","[1265681, 1266064, 1266659, 1267228, 1267803, 1268407, 1268963, 1269573, 1270139, 1270675, 1271238, 1271816, 1272373, 1272885, 1273447, 1273969, 1274500, 1275015, 1275539, 1276057, 1276567, 1277101, 1277603]","[1265714, 1266145, 1266717, 1267289, 1267858, 1268483, 1269061, 1269659, 1270202, 1270760, 1271316, 1271888, 1272486, 1272958, 1273506, 1274040, 1274550, 1275106, 1275590, 1276142, 1276649, 1277189, 1277717]","[99, 176, 112, 149, 17, 69, 91, 224, 59, 42, 22, 54, 72, 229, 2, 114, 224, 41, 137, 56, 65, 159, 143]","[1265694, 1266088, 1266682, 1267255, 1267820, 1268438, 1268998, 1269600, 1270167, 1270702, 1271270, 1271848, 1272408, 1272910, 1273472, 1273996, 1274527, 1275048, 1275559, 1276092, 1276598, 1277130, 1277633]","[1264987, 1265586, 1266186, 1266786, 1267386, 1267986, 1268586, 1269186, 1269593, 1270159, 1270695, 1271258, 1271836, 1272393, 1272905, 1273467, 1273989, 1274520, 1275035, 1275559, 1276077, 1276588, 1277121, 1277623]",86,EM,U,R,ITMSR,1.1,
5,600,trial,0,62,62,62,trial,"['S', 'S', 'S', 'S', 'S', 'S', 'S', 'S', 'C', 'C', 'C', 'C', 'C', 'C', 'C', 'C', 'C', 'C', 'C', 'C', 'C', 'C', 'C', 'C']","[1283684, 1284029, 1284527, 1285123, 1285735, 1286370, 1286988, 1287562, 1288141, 1288698, 1289294, 1289886, 1290481, 1291045, 1291656, 1292214, 1292825, 1293403, 1294016, 1294619, 1295209, 1295796, 1296378, 1296951]","[1283796, 1284128, 1284599, 1285183, 1285784, 1286430, 1287045, 1287667, 1288235, 1288786, 1289381, 1289989, 1290589, 1291191, 1291749, 1292347, 1292935, 1293532, 1294173, 1294747, 1295336, 1295977, 1296485, 1297065]","[9, 95, 234, 211, 203, 184, 58, 42, 68, 148, 209, 183, 247, 29, 159, 2, 175, 63, 91, 5, 199, 98, 26, 67]","[1283716, 1284065, 1284553, 1285152, 1285755, 1286398, 1287018, 1287592, 1288173, 1288725, 1289321, 1289909, 1290511, 1291068, 1291680, 1292242, 1292863, 1293429, 1294040, 1294645, 1295285, 1295882, 1296408, 1296980]","[1283418, 1284017, 1284617, 1285217, 1285817, 1286417, 1287017, 1287617, 1288161, 1288718, 1289314, 1289906, 1290501, 1291065, 1291676, 1292234, 1292845, 1293423, 1294036, 1294639, 1295229, 1295816, 1296398, 1296971]",86,EM,U,R,ITMSR,1.1,
0,400,trial,0,63,63,63,trial,"['S', 'S', 'S', 'S', 'S', 'S', 'C', 'C', 'C', 'C', 'C', 'C', 'C', 'C', 'C', 'C', 'C', 'C', 'C', 'C', 'C', 'C']","[1302973, 1303349, 1303758, 1304563, 1304946, 1305387, 1305756, 1306120, 1306513, 1306914, 1307299, 1307722, 1308122, 1308546, 1309392, 1309792, 1310215, 1310598, 1311057, 1311452, 1311901, 1312305]","[1303038, 1303429, 1303822, 1304601, 1304966, 1305407, 1305776, 1306183, 1306569, 1306934, 1307319, 1307742, 1308142, 1308566, 1309445, 1309864, 1310255, 1310681, 1311101, 1311516, 1311924, 1312347]","[88, 42, 39, 95, 49, 16, 15, 205, 17, 38, 250, 95, 191, 60, 100, 220, 151, 3, 223, 8, 153, 160]","[1303000, 1303391, 1303766, 1304588, 1304948, 1305387, 1305758, 1306155, 1306519, 1306917, 1307304, 1307726, 1308128, 1308549, 1309395, 1309831, 1310222, 1310603, 1311063, 1311460, 1311906, 1312309]","[1302573, 1302973, 1303373, 1303773, 1304173, 1304573, 1304973, 1305373, 1305776, 1306140, 1306533, 1306934, 1307319, 1307742, 1308142, 1308566, 1309412, 1309812, 1310235, 1310618, 1311077, 1311472, 1311921, 1312325]",86,EM,U,R,ITMSR,1.1,
3,400,trial,0,64,64,64,trial,"['S', 'S', 'S', 'S', 'S', 'S', 'S', 'C', 'C', 'C', 'C', 'C', 'C', 'C', 'C', 'C', 'C', 'C', 'C', 'C', 'C', 'C', 'C']","[1318506, 1318839, 1319213, 1319593, 1319986, 1320384, 1320770, 1321221, 1321598, 1322018, 1322408, 1322834, 1323237, 1323633, 1324045, 1324407, 1324813, 1325189, 1325555, 1325956, 1326351, 1326763, 1327173]","[1318553, 1318914, 1319281, 1319658, 1320053, 1320463, 1320856, 1321291, 1321689, 1322081, 1322472, 1322904, 1323301, 1323716, 1324105, 1324485, 1324870, 1325265, 1325636, 1326023, 1326420, 1326836, 1327251]","[203, 202, 206, 248, 199, 229, 244, 204, 202, 253, 183, 216, 144, 159, 160, 12, 191, 198, 213, 233, 225, 149, 186]","[1318516, 1318847, 1319220, 1319600, 1319992, 1320391, 1320776, 1321227, 1321606, 1322025, 1322416, 1322842, 1323244, 1323641, 1324052, 1324412, 1324820, 1325195, 1325562, 1325963, 1326357, 1326770, 1327218]","[1318055, 1318455, 1318855, 1319256, 1319656, 1320056, 1320456, 1320856, 1321241, 1321618, 1322038, 1322428, 1322854, 1323257, 1323653, 1324065, 1324427, 1324833, 1325209, 1325575, 1325976, 1326371, 1326783, 1327193]",86,EM,U,R,ITMSR,1.1,
3,400,trial,0,65,65,65,trial,"['S', 'S', 'S', 'S', 'S', 'S', 'S', 'C', 'C', 'C', 'C', 'C', 'C', 'C', 'C', 'C', 'C', 'C', 'C', 'C', 'C', 'C', 'C']","[1333020, 1333396, 1333798, 1334193, 1334595, 1334996, 1335386, 1335787, 1336214, 1336614, 1336973, 1337382, 1337800, 1338229, 1338648, 1339058, 1339481, 1339858, 1340242, 1340631, 1341047, 1341436, 1341852]","[1333103, 1333458, 1333863, 1334272, 1334658, 1335079, 1335454, 1335884, 1336286, 1336672, 1337058, 1337454, 1337863, 1338285, 1338727, 1339149, 1339565, 1339960, 1340323, 1340728, 1341128, 1341550, 1341962]","[177, 86, 138, 205, 185, 156, 184, 192, 201, 10, 170, 106, 106, 153, 149, 127, 173, 56, 139, 17, 188, 57, 79]","[1333065, 1333404, 1333806, 1334200, 1334601, 1335004, 1335393, 1335792, 1336221, 1336624, 1336980, 1337391, 1337808, 1338236, 1338692, 1339065, 1339489, 1339902, 1340251, 1340640, 1341058, 1341446, 1341860]","[1332627, 1333027, 1333427, 1333827, 1334227, 1334627, 1335027, 1335427, 1335808, 1336235, 1336634, 1336993, 1337402, 1337820, 1338249, 1338669, 1339078, 1339501, 1339878, 1340262, 1340651, 1341067, 1341456, 1341872]",86,EM,U,R,ITMSR,1.1,
2,400,trial,0,66,66,66,trial,"['S', 'S', 'S', 'S', 'S', 'S', 'S', 'C', 'C', 'C', 'C', 'C', 'C', 'C', 'C', 'C', 'C', 'C', 'C', 'C', 'C', 'C', 'C']","[1347943, 1348336, 1348715, 1349144, 1349567, 1349977, 1350386, 1350778, 1351179, 1351578, 1352005, 1352426, 1352805, 1353223, 1353627, 1354027, 1354421, 1354871, 1355212, 1355631, 1356069, 1356437, 1356834]","[1348024, 1348414, 1348785, 1349194, 1349625, 1350039, 1350458, 1350856, 1351266, 1351674, 1352072, 1352446, 1352904, 1353293, 1353699, 1354047, 1354491, 1354891, 1355317, 1355712, 1356139, 1356523, 1356938]","[108, 27, 159, 72, 70, 56, 79, 91, 106, 132, 27, 108, 24, 222, 155, 233, 204, 119, 219, 220, 143, 140, 144]","[1347951, 1348345, 1348722, 1349153, 1349572, 1349984, 1350393, 1350786, 1351187, 1351585, 1352012, 1352432, 1352813, 1353230, 1353634, 1354034, 1354428, 1354872, 1355222, 1355638, 1356079, 1356445, 1356844]","[1347567, 1347968, 1348367, 1348767, 1349167, 1349567, 1349967, 1350367, 1350798, 1351199, 1351598, 1352025, 1352446, 1352825, 1353243, 1353647, 1354047, 1354441, 1354891, 1355232, 1355651, 1356089, 1356457, 1356854]",86,EM,U,R,ITMSR,1.1,
4,600,trial,0,67,67,67,trial,"['S', 'S', 'S', 'S', 'S', 'S', 'S', 'S', 'C', 'C', 'C', 'C', 'C', 'C', 'C', 'C', 'C', 'C', 'C', 'C', 'C', 'C', 'C', 'C', 'C']","[1362457, 1362863, 1363377, 1363915, 1364550, 1365129, 1365797, 1366377, 1366929, 1367474, 1368052, 1368613, 1369211, 1369764, 1369864, 1370368, 1370954, 1371476, 1372057, 1372605, 1373163, 1373712, 1374277, 1374829, 1375429]","[1362477, 1362937, 1363436, 1363997, 1364609, 1365214, 1365874, 1366397, 1367004, 1367576, 1368126, 1368710, 1369303, 1369784, 1369884, 1370427, 1371051, 1371591, 1372156, 1372760, 1373267, 1373849, 1374393, 1374973, 1375551]","[37, 228, 233, 244, 179, 28, 161, 155, 247, 226, 162, 125, 68, 49, 79, 216, 212, 29, 58, 176, 174, 105, 28, 83, 80]","[1362465, 1362869, 1363382, 1363921, 1364556, 1365134, 1365803, 1366385, 1366936, 1367481, 1368059, 1368621, 1369219, 1369772, 1369864, 1370376, 1371006, 1371549, 1372066, 1372612, 1373171, 1373719, 1374284, 1374836, 1375501]","[1362186, 1362785, 1363385, 1363985, 1364585, 1365185, 1365785, 1366385, 1366949, 1367494, 1368072, 1368633, 1369231, 1369784, 1370388, 1370974, 1371496, 1372077, 1372625, 1373184, 1373732, 1374297, 1374850, 1375449]",86,EM,U,R,ITMSR,1.1,
5,400,trial,0,68,68,68,trial,"['S', 'S', 'S', 'S', 'S', 'S', 'C', 'C', 'C', 'C', 'C', 'C', 'C', 'C', 'C', 'C', 'C', 'C', 'C', 'C', 'C', 'C']","[1381686, 1382103, 1382495, 1382914, 1383308, 1383712, 1384123, 1384526, 1384950, 1385330, 1385749, 1386129, 1386546, 1386957, 1387363, 1387784, 1388193, 1388588, 1388959, 1389329, 1389734, 1390132]","[1381771, 1382129, 1382564, 1382965, 1383370, 1383781, 1384184, 1384573, 1384987, 1385385, 1385805, 1386201, 1386607, 1387027, 1387430, 1387854, 1388256, 1388646, 1389032, 1389398, 1389786, 1390209]","[211, 200, 112, 97, 176, 145, 63, 98, 217, 6, 12, 63, 135, 148, 69, 64, 230, 13, 183, 152, 50, 43]","[1381694, 1382112, 1382505, 1382922, 1383315, 1383720, 1384130, 1384534, 1384957, 1385338, 1385755, 1386138, 1386554, 1386964, 1387372, 1387790, 1388204, 1388597, 1388966, 1389337, 1389742, 1390142]","[1380951, 1381350, 1381750, 1382150, 1382550, 1382950, 1383350, 1383750, 1384143, 1384546, 1384970, 1385350, 1385769, 1386149, 1386566, 1386977, 1387383, 1387804, 1388213, 1388608, 1388979, 1389349, 1389754, 1390152]",86,EM,U,R,ITMSR,1.1,
4,400,trial,0,69,69,69,trial,"['S', 'S', 'S', 'S', 'S', 'S', 'S', 'C', 'C', 'C', 'C', 'C', 'C', 'C', 'C', 'C', 'C', 'C', 'C', 'C', 'C', 'C', 'C']","[1396060, 1396461, 1396884, 1397281, 1397685, 1398080, 1398499, 1398905, 1399290, 1399718, 1400108, 1400509, 1400924, 1401325, 1401713, 1402115, 1402539, 1402919, 1403323, 1403707, 1404102, 1404522, 1404890]","[1396135, 1396516, 1396934, 1397346, 1397733, 1398148, 1398546, 1398972, 1399375, 1399782, 1400182, 1400598, 1401016, 1401398, 1401827, 1402190, 1402600, 1403001, 1403400, 1403798, 1404178, 1404582, 1404971]","[185, 144, 41, 224, 153, 237, 92, 126, 104, 176, 232, 190, 171, 194, 193, 211, 215, 198, 254, 23, 230, 172, 16]","[1396100, 1396471, 1396895, 1397292, 1397692, 1398090, 1398510, 1398914, 1399313, 1399727, 1400116, 1400559, 1400970, 1401334, 1401721, 1402123, 1402545, 1402955, 1403331, 1403714, 1404110, 1404530, 1404898]","[1395703, 1396103, 1396503, 1396903, 1397303, 1397703, 1398104, 1398504, 1398925, 1399310, 1399738, 1400128, 1400529, 1400944, 1401346, 1401733, 1402135, 1402559, 1402939, 1403343, 1403727, 1404122, 1404542, 1404910]",86,EM,U,R,ITMSR,1.1,
1,600,trial,0,70,70,70,trial,"['S', 'S', 'S', 'S', 'S', 'S', 'S', 'S', 'C', 'C', 'C', 'C', 'C', 'C', 'C', 'C', 'C', 'C', 'C', 'C', 'C', 'C', 'C', 'C']","[1411031, 1411376, 1411844, 1412360, 1412958, 1413576, 1414212, 1414781, 1415361, 1415898, 1416438, 1416988, 1417549, 1418117, 1418696, 1419254, 1419800, 1420349, 1420947, 1421530, 1422052, 1422691, 1423209, 1423768]","[1411115, 1411488, 1411937, 1412461, 1413066, 1413703, 1414323, 1414891, 1415481, 1415987, 1416489, 1417069, 1417622, 1418230, 1418770, 1419354, 1419897, 1420447, 1421044, 1421644, 1422129, 1422770, 1423300, 1423789]","[52, 29, 216, 19, 3, 246, 250, 251, 240, 171, 153, 52, 152, 90, 137, 49, 12, 158, 190, 166, 213, 254, 157, 197]","[1411040, 1411430, 1411853, 1412369, 1412964, 1413584, 1414221, 1414790, 1415369, 1415906, 1416442, 1417021, 1417556, 1418178, 1418701, 1419259, 1419874, 1420356, 1420953, 1421534, 1422059, 1422699, 1423217, 1423775]","[1410651, 1411251, 1411851, 1412451, 1413051, 1413651, 1414251, 1414851, 1415382, 1415918, 1416458, 1417008, 1417569, 1418137, 1418716, 1419274, 1419821, 1420369, 1420967, 1421550, 1422072, 1422711, 1423229, 1423789]",86,EM,U,R,ITMSR,1.1,
2,400,trial,0,71,71,71,trial,"['S', 'S', 'S', 'S', 'S', 'S', 'S', 'C', 'C', 'C', 'C', 'C', 'C', 'C', 'C', 'C', 'C', 'C', 'C', 'C', 'C', 'C', 'C']","[1429995, 1430297, 1430679, 1431063, 1431453, 1431860, 1432286, 1432666, 1433083, 1433465, 1433859, 1434251, 1434671, 1435051, 1435478, 1435851, 1436249, 1436640, 1437030, 1437438, 1437841, 1438230, 1438611]","[1430079, 1430390, 1430763, 1431153, 1431564, 1431957, 1432346, 1432754, 1433160, 1433541, 1433918, 1434314, 1434721, 1435102, 1435522, 1435930, 1436317, 1436708, 1437101, 1437505, 1437908, 1438321, 1438690]","[232, 97, 73, 180, 140, 119, 252, 23, 106, 51, 60, 77, 212, 139, 95, 183, 208, 110, 27, 209, 13, 15, 246]","[1430002, 1430305, 1430687, 1431069, 1431462, 1431868, 1432294, 1432672, 1433089, 1433473, 1433867, 1434257, 1434678, 1435059, 1435485, 1435858, 1436256, 1436646, 1437036, 1437446, 1437849, 1438275, 1438618]","[1429527, 1429927, 1430327, 1430727, 1431128, 1431528, 1431928, 1432328, 1432686, 1433103, 1433485, 1433879, 1434271, 1434691, 1435071, 1435498, 1435871, 1436269, 1436660, 1437050, 1437458, 1437861, 1438251, 1438631]",86,EM,U,R,ITMSR,1.1,
2,600,trial,0,72,72,72,trial,"['S', 'S', 'S', 'S', 'S', 'S', 'S', 'C', 'C', 'C', 'C', 'C', 'C', 'C', 'C', 'C', 'C', 'C', 'C', 'C', 'C', 'C', 'C']","[1445030, 1445505, 1446039, 1446633, 1447139, 1447742, 1448321, 1448960, 1449490, 1450055, 1450650, 1451249, 1451828, 1452368, 1452891, 1453464, 1454000, 1454569, 1455098, 1455645, 1456184, 1456773, 1457291]","[1445092, 1445578, 1446089, 1446653, 1447198, 1447796, 1448394, 1449013, 1449558, 1450130, 1450702, 1451319, 1451905, 1452393, 1452972, 1453520, 1454080, 1454654, 1455172, 1455739, 1456287, 1456841, 1457393]","[9, 20, 244, 189, 96, 101, 209, 202, 192, 144, 188, 67, 135, 78, 90, 118, 81, 141, 109, 218, 152, 184, 177]","[1445037, 1445511, 1446044, 1446641, 1447146, 1447748, 1448327, 1448966, 1449496, 1450063, 1450657, 1451257, 1451835, 1452376, 1452899, 1453470, 1454007, 1454575, 1455107, 1455651, 1456191, 1456780, 1457297]","[1444265, 1444866, 1445466, 1446066, 1446666, 1447266, 1447866, 1448466, 1448980, 1449510, 1450075, 1450670, 1451269, 1451848, 1452388, 1452911, 1453485, 1454020, 1454589, 1455118, 1455665, 1456204, 1456793, 1457311]",86,EM,U,R,ITMSR,1.1,
0,600,trial,0,73,73,73,trial,"['S', 'S', 'S', 'S', 'S', 'S', 'S', 'S', 'C', 'C', 'C', 'C', 'C', 'C', 'C', 'C', 'C', 'C', 'C', 'C', 'C', 'C', 'C', 'C']","[1463107, 1463472, 1463934, 1464486, 1465052, 1465662, 1466290, 1466865, 1467466, 1468047, 1468592, 1469150, 1469693, 1470277, 1470888, 1471408, 1471924, 1472472, 1473008, 1473601, 1474145, 1474683, 1475226, 1475746]","[1463191, 1463530, 1464015, 1464549, 1465124, 1465715, 1466356, 1466946, 1467526, 1468098, 1468663, 1469220, 1469773, 1470328, 1470949, 1471502, 1472033, 1472535, 1473083, 1473661, 1474227, 1474756, 1475314, 1475772]","[198, 208, 77, 173, 152, 100, 91, 136, 143, 73, 135, 231, 57, 67, 18, 36, 93, 249, 222, 154, 138, 138, 133, 136]","[1463145, 1463482, 1463942, 1464493, 1465059, 1465670, 1466297, 1466872, 1467472, 1468053, 1468599, 1469158, 1469701, 1470285, 1470897, 1471416, 1471965, 1472481, 1473017, 1473608, 1474151, 1474691, 1475231, 1475751]","[1462721, 1463320, 1463920, 1464520, 1465120, 1465720, 1466320, 1466920, 1467486, 1468067, 1468612, 1469170, 1469713, 1470297, 1470908, 1471428, 1471944, 1472492, 1473028, 1473622, 1474165, 1474703, 1475246, 1475766]",86,EM,U,R,ITMSR,1.1,
5,600,trial,0,74,74,74,trial,"['S', 'S', 'S', 'S', 'S', 'S', 'S', 'C', 'C', 'C', 'C', 'C', 'C', 'C', 'C', 'C', 'C', 'C', 'C', 'C', 'C', 'C', 'C']","[1481860, 1482480, 1483056, 1483609, 1484219, 1484813, 1485410, 1486021, 1486561, 1487120, 1487642, 1488150, 1488728, 1489218, 1489743, 1490255, 1490766, 1491267, 1491782, 1492285, 1492822, 1493350, 1493829]","[1481962, 1482546, 1483151, 1483714, 1484341, 1484930, 1485516, 1486132, 1486661, 1487222, 1487740, 1488253, 1488807, 1489306, 1489810, 1490360, 1490870, 1491344, 1491874, 1492399, 1492907, 1493445, 1493928]","[76, 145, 251, 38, 58, 27, 218, 243, 195, 215, 247, 239, 113, 196, 157, 193, 213, 32, 214, 66, 133, 190, 124]","[1481865, 1482490, 1483100, 1483661, 1484270, 1484874, 1485457, 1486072, 1486605, 1487168, 1487686, 1488203, 1488763, 1489260, 1489775, 1490299, 1490823, 1491305, 1491825, 1492341, 1492866, 1493398, 1493877]","[1481337, 1481936, 1482536, 1483137, 1483736, 1484336, 1484936, 1485536, 1486041, 1486581, 1487140, 1487662, 1488171, 1488748, 1489239, 1489763, 1490275, 1490786, 1491288, 1491802, 1492305, 1492842, 1493370, 1493849]",86,EM,U,R,ITMSR,1.1,
3,600,trial,0,75,75,75,trial,"['B', 'S', 'S', 'S', 'S', 'S', 'S', 'S', 'C', 'C', 'C', 'C', 'C', 'C', 'C', 'C', 'C', 'C', 'C', 'C', 'C', 'C', 'C', 'C']","[1499326, 1499808, 1500366, 1501042, 1501597, 1502232, 1502872, 1503459, 1504088, 1504630, 1505177, 1505772, 1506336, 1506862, 1507401, 1507966, 1508505, 1509029, 1509545, 1510078, 1510587, 1511092, 1511600, 1512103]","[1499452, 1499905, 1500487, 1501140, 1501691, 1502317, 1502958, 1503559, 1504180, 1504728, 1505267, 1505856, 1506438, 1506968, 1507519, 1508061, 1508608, 1509122, 1509670, 1510166, 1510691, 1511183, 1511693, 1512202]","[7, 195, 221, 177, 151, 234, 177, 198, 159, 161, 79, 81, 182, 201, 220, 194, 203, 243, 243, 206, 240, 213, 227, 189]","[1499397, 1499848, 1500434, 1501104, 1501636, 1502263, 1502910, 1503511, 1504128, 1504667, 1505216, 1505811, 1506370, 1506898, 1507425, 1508004, 1508541, 1509059, 1509615, 1510114, 1510635, 1511120, 1511640, 1512147]","[1499337, 1499937, 1500537, 1501137, 1501737, 1502338, 1502938, 1503538, 1504108, 1504650, 1505197, 1505793, 1506356, 1506882, 1507421, 1507986, 1508525, 1509049, 1509565, 1510098, 1510607, 1511112, 1511620, 1512123]",86,EM,U,R,ITMSR,1.1,
1,400,trial,0,76,76,76,trial,"['S', 'S', 'S', 'S', 'S', 'S', 'S', 'S', 'C', 'C', 'C', 'C', 'C', 'C', 'C', 'C', 'C', 'C', 'C', 'C', 'C', 'C', 'C', 'C']","[1517677, 1518024, 1518374, 1518666, 1519052, 1519367, 1519779, 1520146, 1520595, 1520970, 1521363, 1521770, 1522156, 1522549, 1522988, 1523350, 1523781, 1524174, 1524579, 1524968, 1525397, 1525808, 1526217, 1526602]","[1517775, 1518134, 1518441, 1518747, 1519104, 1519444, 1519846, 1520220, 1520642, 1521028, 1521438, 1521835, 1522210, 1522594, 1523033, 1523426, 1523841, 1524238, 1524654, 1525038, 1525465, 1525896, 1526292, 1526680]","[42, 63, 48, 89, 254, 102, 96, 68, 57, 69, 78, 67, 17, 237, 217, 92, 63, 45, 26, 53, 20, 40, 28, 24]","[1517700, 1518049, 1518396, 1518688, 1519074, 1519386, 1519800, 1520169, 1520612, 1520990, 1521385, 1521790, 1522177, 1522566, 1523005, 1523372, 1523802, 1524194, 1524600, 1524985, 1525417, 1525831, 1526239, 1526624]","[1517419, 1517819, 1518219, 1518619, 1519020, 1519419, 1519819, 1520219, 1520615, 1520990, 1521383, 1521790, 1522177, 1522569, 1523008, 1523371, 1523801, 1524194, 1524599, 1524988, 1525417, 1525828, 1526237, 1526622]",86,EM,U,R,ITMSR,1.1,
1,600,trial,0,77,77,77,trial,"['S', 'S', 'S', 'S', 'S', 'S', 'S', 'C', 'C', 'C', 'C', 'C', 'C', 'C', 'C', 'C', 'C', 'C', 'C', 'C', 'C', 'C', 'C']","[1532633, 1533161, 1533737, 1534345, 1534894, 1535506, 1536120, 1536758, 1537293, 1537842, 1538397, 1538956, 1539529, 1540107, 1540677, 1541223, 1541767, 1542303, 1542832, 1543358, 1543891, 1544425, 1544935]","[1532672, 1533225, 1533787, 1534389, 1534950, 1535555, 1536198, 1536827, 1537366, 1537890, 1538438, 1539000, 1539572, 1540147, 1540732, 1541281, 1541819, 1542353, 1542876, 1543400, 1543937, 1544472, 1544992]","[118, 109, 69, 92, 93, 91, 99, 88, 87, 68, 200, 33, 13, 196, 6, 54, 18, 230, 218, 159, 60, 33, 32]","[1532646, 1533182, 1533758, 1534363, 1534914, 1535522, 1536140, 1536780, 1537313, 1537858, 1538417, 1538973, 1539545, 1540127, 1540698, 1541245, 1541787, 1542323, 1542852, 1543374, 1543911, 1544446, 1544956]","[1532024, 1532624, 1533224, 1533825, 1534424, 1535024, 1535624, 1536224, 1536778, 1537313, 1537862, 1538417, 1538976, 1539549, 1540127, 1540697, 1541243, 1541787, 1542323, 1542852, 1543378, 1543911, 1544445, 1544955]",86,EM,U,R,ITMSR,1.1,
3,600,trial,0,78,78,78,trial,"['S', 'S', 'S', 'S', 'S', 'S', 'S', 'S', 'C', 'C', 'C', 'C', 'C', 'C', 'C', 'C', 'C', 'C', 'C', 'C', 'C', 'C', 'C', 'C']","[1616018, 1616362, 1616808, 1617395, 1617985, 1618540, 1619153, 1619792, 1620406, 1621008, 1621569, 1622155, 1622715, 1623303, 1623916, 1624497, 1625107, 1625700, 1626256, 1626873, 1627456, 1627985, 1628532, 1629121]","[1616087, 1616435, 1616904, 1617480, 1618065, 1618629, 1619244, 1619863, 1620490, 1621081, 1621664, 1622250, 1622823, 1623405, 1623995, 1624607, 1625168, 1625803, 1626358, 1626964, 1627582, 1628100, 1628662, 1629231]","[67, 241, 63, 36, 29, 40, 32, 11, 50, 251, 196, 245, 188, 202, 161, 153, 99, 175, 197, 250, 206, 162, 130, 126]","[1616024, 1616370, 1616815, 1617402, 1617993, 1618546, 1619159, 1619799, 1620412, 1621015, 1621576, 1622161, 1622723, 1623310, 1623923, 1624547, 1625115, 1625709, 1626263, 1626880, 1627526, 1628045, 1628542, 1629129]","[1615641, 1616241, 1616841, 1617441, 1618041, 1618641, 1619241, 1619842, 1620426, 1621028, 1621590, 1622175, 1622735, 1623323, 1623937, 1624517, 1625127, 1625720, 1626276, 1626893, 1627476, 1628005, 1628552, 1629142]",86,EM,U,R,ITMSR,1.1,
2,400,trial,0,79,79,79,trial,"['S', 'S', 'S', 'S', 'S', 'S', 'S', 'C', 'C', 'C', 'C', 'C', 'C', 'C', 'C', 'C', 'C', 'C', 'C', 'C', 'C', 'C', 'C']","[1634882, 1635345, 1635756, 1636192, 1636582, 1636996, 1637371, 1637769, 1638165, 1638543, 1638964, 1639348, 1639734, 1640156, 1640529, 1640907, 1641341, 1641736, 1642137, 1642542, 1642923, 1643330, 1643707]","[1634973, 1635400, 1635837, 1636282, 1636668, 1637070, 1637452, 1637849, 1638221, 1638626, 1639008, 1639368, 1639754, 1640216, 1640589, 1640927, 1641361, 1641756, 1642157, 1642562, 1642943, 1643351, 1643727]","[143, 168, 190, 170, 199, 161, 150, 32, 143, 66, 89, 79, 210, 41, 162, 214, 182, 224, 40, 71, 126, 216, 111]","[1634931, 1635353, 1635764, 1636201, 1636590, 1637004, 1637380, 1637779, 1638172, 1638551, 1638971, 1639355, 1639739, 1640161, 1640536, 1640912, 1641347, 1641740, 1642141, 1642547, 1642927, 1643335, 1643712]","[1634623, 1635023, 1635423, 1635823, 1636224, 1636623, 1637023, 1637423, 1637789, 1638185, 1638563, 1638984, 1639368, 1639754, 1640176, 1640549, 1640927, 1641361, 1641756, 1642157, 1642562, 1642943, 1643351, 1643727]",86,EM,U,R,ITMSR,1.1,
4,600,trial,0,80,80,80,trial,"['S', 'S', 'S', 'S', 'S', 'S', 'S', 'S', 'C', 'C', 'C', 'C', 'C', 'C', 'C', 'C', 'C', 'C', 'C', 'C', 'C', 'C', 'C', 'C']","[1649484, 1649882, 1650355, 1650883, 1651519, 1652075, 1652694, 1653300, 1653903, 1655186, 1655769, 1656354, 1656945, 1657553, 1658116, 1658692, 1659288, 1659879, 1660441, 1661025, 1661572, 1662132, 1662672, 1663212]","[1649552, 1649954, 1650422, 1650934, 1651558, 1652096, 1652715, 1653320, 1653923, 1655272, 1655869, 1656440, 1657026, 1657652, 1658215, 1658787, 1659363, 1659981, 1660555, 1661116, 1661669, 1662216, 1662749, 1663262]","[235, 132, 71, 154, 99, 32, 238, 136, 117, 254, 61, 44, 15, 57, 232, 6, 222, 181, 185, 213, 151, 79, 141, 88]","[1649490, 1649890, 1650362, 1650888, 1651524, 1652082, 1652700, 1653304, 1653907, 1655193, 1655774, 1656360, 1656951, 1657609, 1658123, 1658698, 1659293, 1659885, 1660447, 1661030, 1661579, 1662138, 1662679, 1663218]","[1649091, 1649691, 1650291, 1650891, 1651491, 1652091, 1652691, 1653292, 1653923, 1655206, 1655789, 1656374, 1656965, 1657573, 1658136, 1658712, 1659309, 1659899, 1660461, 1661045, 1661592, 1662152, 1662692, 1663233]",86,EM,U,R,ITMSR,1.1,
1,600,trial,0,81,81,81,trial,"['S', 'S', 'S', 'S', 'S', 'S', 'S', 'C', 'C', 'C', 'C', 'C', 'C', 'C', 'C', 'C', 'C', 'C', 'C', 'C', 'C', 'C', 'C']","[1669307, 1669967, 1670578, 1671148, 1671791, 1672390, 1672962, 1673581, 1674135, 1674681, 1675276, 1675842, 1676409, 1676993, 1677528, 1678100, 1678635, 1679192, 1679767, 1680327, 1680943, 1681520, 1682082]","[1669368, 1670033, 1670659, 1671206, 1671870, 1672484, 1673035, 1673645, 1674191, 1674779, 1675343, 1675931, 1676462, 1677068, 1677595, 1678166, 1678656, 1679257, 1679852, 1680411, 1680966, 1681603, 1682167]","[222, 17, 147, 236, 96, 190, 50, 159, 77, 197, 138, 140, 106, 192, 141, 208, 70, 208, 142, 137, 58, 11, 156]","[1669315, 1669975, 1670584, 1671156, 1671797, 1672396, 1672969, 1673587, 1674141, 1674686, 1675283, 1675850, 1676417, 1676999, 1677534, 1678106, 1678642, 1679198, 1679775, 1680334, 1680951, 1681528, 1682089]","[1668842, 1669442, 1670042, 1670642, 1671242, 1671842, 1672442, 1673042, 1673602, 1674156, 1674701, 1675296, 1675863, 1676429, 1677014, 1677548, 1678120, 1678655, 1679212, 1679788, 1680347, 1680963, 1681540, 1682102]",86,EM,U,R,ITMSR,1.1,
2,400,trial,0,82,82,82,trial,"['S', 'S', 'S', 'S', 'S', 'S', 'S', 'C', 'C', 'C', 'C', 'C', 'C', 'C', 'C', 'C', 'C', 'C', 'C', 'C', 'C', 'C', 'C']","[1687756, 1688204, 1688647, 1689068, 1689490, 1689897, 1690269, 1690692, 1691073, 1691483, 1691878, 1692297, 1692730, 1693100, 1693514, 1693952, 1694337, 1694775, 1695186, 1695570, 1695980, 1696353, 1696772]","[1687776, 1688275, 1688716, 1689139, 1689541, 1689973, 1690350, 1690752, 1691168, 1691581, 1691966, 1692388, 1692814, 1693191, 1693614, 1694047, 1694428, 1694859, 1695260, 1695634, 1696061, 1696455, 1696868]","[22, 202, 180, 24, 254, 19, 229, 195, 87, 103, 67, 108, 78, 41, 170, 200, 175, 99, 127, 218, 208, 154, 110]","[1687767, 1688213, 1688654, 1689075, 1689498, 1689906, 1690276, 1690700, 1691079, 1691489, 1691883, 1692347, 1692776, 1693106, 1693523, 1693961, 1694394, 1694783, 1695194, 1695578, 1695988, 1696412, 1696779]","[1687497, 1687897, 1688297, 1688697, 1689097, 1689497, 1689897, 1690297, 1690712, 1691094, 1691503, 1691898, 1692317, 1692750, 1693120, 1693534, 1693972, 1694357, 1694795, 1695206, 1695590, 1696001, 1696373, 1696792]",86,EM,U,R,ITMSR,1.1,
5,600,trial,0,83,83,83,trial,"['S', 'S', 'S', 'S', 'S', 'S', 'S', 'S', 'C', 'C', 'C', 'C', 'C', 'C', 'C', 'C', 'C', 'C', 'C', 'C', 'C', 'C', 'C', 'C']","[1702779, 1703079, 1703584, 1704151, 1704733, 1705338, 1705965, 1706539, 1707119, 1707655, 1708214, 1708798, 1709325, 1709860, 1710398, 1710947, 1711495, 1712052, 1712565, 1713072, 1713582, 1714103, 1714614, 1715135]","[1702879, 1703195, 1703688, 1704249, 1704836, 1705438, 1706062, 1706607, 1707210, 1707743, 1708306, 1708869, 1709420, 1709959, 1710477, 1711034, 1711583, 1712134, 1712650, 1713146, 1713675, 1714191, 1714695, 1715226]","[255, 235, 51, 213, 185, 167, 151, 251, 82, 45, 121, 226, 150, 135, 120, 140, 99, 122, 196, 135, 188, 133, 68, 93]","[1702842, 1703138, 1703640, 1704204, 1704783, 1705387, 1706013, 1706573, 1707171, 1707695, 1708265, 1708827, 1709373, 1709912, 1710433, 1710991, 1711532, 1712097, 1712605, 1713108, 1713626, 1714142, 1714644, 1715184]","[1702404, 1703004, 1703604, 1704204, 1704804, 1705404, 1706004, 1706604, 1707139, 1707675, 1708234, 1708818, 1709345, 1709880, 1710418, 1710967, 1711515, 1712072, 1712585, 1713092, 1713602, 1714123, 1714634, 1715155]",86,EM,U,R,ITMSR,1.1,
5,600,trial,0,84,84,84,trial,"['S', 'S', 'S', 'S', 'S', 'S', 'S', 'S', 'C', 'C', 'C', 'C', 'C', 'C', 'C', 'C', 'C', 'C', 'C', 'C', 'C', 'C', 'C', 'C']","[1721220, 1721505, 1721986, 1722610, 1723205, 1723816, 1724410, 1725054, 1725652, 1726208, 1726812, 1727370, 1727956, 1728506, 1729051, 1729634, 1730190, 1730749, 1731324, 1731878, 1732484, 1733069, 1733604, 1734174]","[1721323, 1721617, 1722076, 1722695, 1723298, 1723910, 1724497, 1725126, 1725729, 1726279, 1726887, 1727470, 1728036, 1728601, 1729150, 1729715, 1730285, 1730851, 1731415, 1731958, 1732561, 1733176, 1733706, 1734255]","[168, 17, 240, 152, 105, 134, 36, 67, 10, 62, 80, 41, 112, 175, 134, 40, 129, 162, 63, 98, 65, 102, 140, 226]","[1721274, 1721562, 1722035, 1722643, 1723247, 1723853, 1724456, 1725085, 1725688, 1726248, 1726844, 1727426, 1727990, 1728543, 1729110, 1729672, 1730229, 1730796, 1731377, 1731910, 1732529, 1733131, 1733654, 1734212]","[1720908, 1721508, 1722108, 1722708, 1723309, 1723909, 1724509, 1725109, 1725672, 1726228, 1726832, 1727390, 1727976, 1728526, 1729071, 1729654, 1730210, 1730769, 1731344, 1731898, 1732504, 1733089, 1733624, 1734194]",86,EM,U,R,ITMSR,1.1,
3,600,trial,0,85,85,85,trial,"['S', 'S', 'S', 'S', 'S', 'S', 'S', 'S', 'S', 'C', 'C', 'C', 'C', 'C', 'C', 'C', 'C', 'C', 'C', 'C', 'C', 'C', 'C', 'C', 'C']","[1740008, 1740254, 1740689, 1741058, 1741452, 1742086, 1742666, 1743254, 1743834, 1744417, 1744967, 1745530, 1746111, 1746671, 1747218, 1747804, 1748379, 1748924, 1749495, 1750044, 1750616, 1751142, 1751703, 1752313, 1752871]","[1740098, 1740378, 1740807, 1741178, 1741577, 1742159, 1742778, 1743364, 1743943, 1744539, 1745078, 1745630, 1746214, 1746780, 1747317, 1747923, 1748508, 1749020, 1749570, 1750151, 1750738, 1751268, 1751805, 1752403, 1752969]","[57, 173, 165, 5, 4, 183, 19, 236, 205, 240, 203, 112, 196, 138, 145, 171, 207, 129, 62, 134, 184, 213, 124, 229, 84]","[1740066, 1740322, 1740755, 1741120, 1741515, 1742112, 1742714, 1743303, 1743887, 1744475, 1745017, 1745570, 1746156, 1746721, 1747257, 1747846, 1748441, 1748966, 1749524, 1750095, 1750677, 1751207, 1751759, 1752336, 1752912]","[1739735, 1740333, 1740933, 1741533, 1742133, 1742733, 1743333, 1743933, 1744437, 1744987, 1745550, 1746131, 1746691, 1747238, 1747824, 1748399, 1748944, 1749515, 1750064, 1750636, 1751162, 1751724, 1752333, 1752891]",86,EM,U,R,ITMSR,1.1,
1,600,trial,0,86,86,86,trial,"['S', 'S', 'S', 'S', 'S', 'S', 'S', 'S', 'C', 'C', 'C', 'C', 'C', 'C', 'C', 'C', 'C', 'C', 'C', 'C', 'C', 'C', 'C', 'C']","[1758715, 1758969, 1759476, 1760100, 1760709, 1761314, 1761886, 1762539, 1763161, 1763743, 1764343, 1764927, 1765539, 1766145, 1766743, 1767343, 1767932, 1768543, 1769185, 1769738, 1770288, 1770890, 1771440, 1772017]","[1758837, 1759083, 1759563, 1760176, 1760771, 1761412, 1761983, 1762634, 1763263, 1763845, 1764439, 1765014, 1765618, 1766208, 1766811, 1767410, 1768003, 1768632, 1769268, 1769818, 1770360, 1770920, 1771556, 1772099]","[141, 11, 151, 11, 159, 69, 94, 57, 59, 23, 53, 139, 72, 141, 151, 41, 28, 95, 222, 38, 241, 180, 55, 164]","[1758786, 1759032, 1759505, 1760132, 1760738, 1761370, 1761931, 1762581, 1763193, 1763786, 1764389, 1764976, 1765592, 1766165, 1766765, 1767363, 1767949, 1768588, 1769230, 1769775, 1770315, 1770900, 1771496, 1772065]","[1758376, 1758977, 1759576, 1760176, 1760776, 1761376, 1761976, 1762576, 1763181, 1763763, 1764363, 1764947, 1765559, 1766165, 1766763, 1767363, 1767952, 1768563, 1769205, 1769758, 1770308, 1770910, 1771460, 1772037]",86,EM,U,R,ITMSR,1.1,
1,400,trial,0,87,87,87,trial,"['S', 'S', 'S', 'S', 'S', 'S', 'S', 'C', 'C', 'C', 'C', 'C', 'C', 'C', 'C', 'C', 'C', 'C', 'C', 'C', 'C', 'C', 'C']","[1778029, 1778334, 1778701, 1779092, 1779546, 1779941, 1780336, 1780759, 1781169, 1781553, 1781971, 1782366, 1782781, 1783154, 1783596, 1784002, 1784384, 1784808, 1785187, 1785598, 1786018, 1786390, 1786762]","[1778119, 1778414, 1778780, 1779171, 1779605, 1780020, 1780412, 1780828, 1781225, 1781634, 1782059, 1782445, 1782857, 1783251, 1783683, 1784093, 1784475, 1784868, 1785284, 1785687, 1786108, 1786488, 1786859]","[219, 246, 120, 152, 157, 186, 139, 240, 64, 136, 151, 137, 95, 158, 158, 60, 171, 3, 132, 121, 110, 123, 88]","[1778085, 1778360, 1778734, 1779133, 1779572, 1779974, 1780367, 1780797, 1781197, 1781601, 1782005, 1782403, 1782814, 1783204, 1783635, 1784046, 1784415, 1784838, 1785214, 1785644, 1786053, 1786441, 1786802]","[1777588, 1777988, 1778388, 1778788, 1779188, 1779588, 1779988, 1780388, 1780780, 1781189, 1781573, 1781991, 1782386, 1782801, 1783174, 1783616, 1784023, 1784404, 1784828, 1785207, 1785618, 1786038, 1786411, 1786782]",86,EM,U,R,ITMSR,1.1,
0,600,trial,0,88,88,88,trial,"['S', 'S', 'S', 'S', 'S', 'S', 'S', 'S', 'S', 'C', 'C', 'C', 'C', 'C', 'C', 'C', 'C', 'C', 'C', 'C', 'C', 'C', 'C', 'C', 'C']","[1792679, 1792903, 1793287, 1793592, 1793995, 1794551, 1795121, 1795738, 1796336, 1796959, 1797519, 1798084, 1798675, 1799283, 1799878, 1800412, 1800965, 1801502, 1802099, 1802661, 1803211, 1803765, 1804301, 1804828, 1805406]","[1792772, 1792995, 1793345, 1793643, 1794067, 1794605, 1795186, 1795792, 1796405, 1797026, 1797586, 1798154, 1798744, 1799355, 1799948, 1800508, 1801044, 1801583, 1802155, 1802756, 1803287, 1803840, 1804377, 1804897, 1805462]","[118, 59, 140, 194, 174, 198, 226, 141, 169, 121, 147, 183, 124, 47, 193, 126, 5, 12, 178, 150, 40, 213, 102, 108, 253]","[1792735, 1792930, 1793315, 1793616, 1794020, 1794571, 1795145, 1795758, 1796362, 1796985, 1797542, 1798110, 1798704, 1799317, 1799911, 1800465, 1801000, 1801545, 1802131, 1802717, 1803251, 1803802, 1804327, 1804851, 1805427]","[1792204, 1792804, 1793404, 1794004, 1794605, 1795205, 1795805, 1796405, 1796979, 1797539, 1798104, 1798695, 1799303, 1799898, 1800432, 1800985, 1801522, 1802119, 1802681, 1803231, 1803785, 1804321, 1804848, 1805426]",86,EM,U,R,ITMSR,1.1,
2,600,trial,0,89,89,89,trial,"['S', 'S', 'S', 'S', 'S', 'S', 'S', 'S', 'C', 'C', 'C', 'C', 'C', 'C', 'C', 'C', 'C', 'C', 'C', 'C', 'C', 'C', 'C', 'C']","[1811580, 1811788, 1812257, 1812936, 1813530, 1814136, 1814752, 1815373, 1815995, 1816588, 1817174, 1817741, 1818348, 1818936, 1819554, 1820122, 1820682, 1821241, 1821875, 1822411, 1822979, 1823527, 1824089, 1824621]","[1811658, 1811857, 1812319, 1813036, 1813594, 1814190, 1814810, 1815436, 1816064, 1816662, 1817254, 1817818, 1818427, 1819014, 1819632, 1820222, 1820777, 1821328, 1821938, 1822475, 1823039, 1823610, 1824157, 1824716]","[244, 53, 20, 6, 191, 217, 235, 185, 223, 180, 229, 217, 133, 156, 158, 212, 213, 190, 105, 165, 166, 222, 122, 209]","[1811605, 1811810, 1812276, 1812959, 1813556, 1814159, 1814778, 1815399, 1816020, 1816613, 1817203, 1817771, 1818377, 1818963, 1819582, 1820149, 1820711, 1821270, 1821904, 1822436, 1823005, 1823556, 1824115, 1824648]","[1811219, 1811819, 1812419, 1813019, 1813619, 1814219, 1814819, 1815419, 1816015, 1816608, 1817194, 1817761, 1818369, 1818956, 1819574, 1820142, 1820702, 1821261, 1821895, 1822431, 1822999, 1823547, 1824109, 1824642]",86,EM,U,R,ITMSR,1.1,
