pitch,ioi,event,.thisRepN,.thisTrialN,.thisN,.thisIndex,event,tap_types,tap_times,release_times,peak_pressures,peak_times,tone_times,subject,experimenter,register,handedness,experiment,version
,,SPR,0,-1,-1,0,SPR,"['P', 'P', 'P', 'P', 'P', 'P', 'P', 'P', 'P', 'P', 'P', 'P', 'P', 'P', 'P', 'P', 'P', 'P', 'P', 'P', 'P', 'P', 'P', 'P', 'P', 'P', 'P', 'P', 'P', 'P']","[74634, 75324, 75967, 76633, 77265, 77929, 78611, 79270, 79977, 80628, 81303, 81927, 82582, 83219, 83927, 84598, 85253, 85917, 86569, 87243, 87920, 88554, 89235, 89877, 90555, 91280, 91912, 92481, 93138, 93753]","[74895, 75592, 76258, 76935, 77594, 78271, 78960, 79638, 80295, 80930, 81668, 82313, 82931, 83638, 84301, 84954, 85634, 86285, 86918, 87533, 88233, 88903, 89544, 90244, 90847, 91538, 92219, 92809, 93433, 94075]","[37, 45, 249, 232, 36, 11, 229, 16, 9, 3, 255, 22, 251, 42, 250, 208, 209, 171, 186, 186, 251, 215, 185, 232, 16, 0, 245, 0, 227, 248]","[74738, 75502, 76118, 76809, 77476, 78146, 78794, 79473, 79980, 80804, 81308, 82153, 82832, 83471, 83932, 84756, 85257, 85921, 86832, 87452, 87924, 88768, 89422, 89881, 90559, 91284, 92143, 92486, 93322, 93756]",,62,OR,U,R,ITMSR,1.1
3,500,practice,0,0,0,0,practice,"['S', 'S', 'S', 'S', 'S', 'S', 'S', 'C', 'C', 'C', 'C', 'C', 'C', 'C', 'C', 'C', 'C', 'C', 'C', 'C', 'C', 'C', 'C', 'C', 'C', 'C', 'C', 'C']","[202189, 202742, 203246, 203771, 204298, 204821, 205336, 205818, 206363, 206879, 206981, 207388, 207901, 208418, 208931, 209033, 209456, 209975, 210472, 210989, 211091, 211484, 211586, 212003, 212105, 212530, 213035, 213561]","[202387, 202968, 203471, 203973, 204461, 204988, 205488, 206006, 206499, 206901, 207042, 207539, 208073, 208559, 208952, 209057, 209477, 209998, 210597, 211011, 211120, 211505, 211641, 212025, 212133, 212664, 213160, 213714]","[108, 39, 193, 224, 199, 158, 146, 178, 138, 38, 67, 138, 135, 110, 51, 118, 112, 234, 59, 211, 119, 41, 123, 59, 167, 164, 120, 172]","[202302, 202868, 203364, 203882, 204384, 204825, 205340, 205822, 206369, 206884, 206981, 207392, 207906, 208423, 208936, 209033, 209461, 209980, 210477, 210995, 211092, 211489, 211604, 212008, 212105, 212535, 213040, 213566]","[201810, 202309, 202809, 203309, 203809, 204309, 204809, 205309, 205838, 206383, 206899, 207408, 207921, 208438, 208951, 209476, 209995, 210492, 211009, 211504, 212023, 212550, 213055, 213581]",62,OR,U,R,ITMSR,1.1
5,500,practice,0,1,1,1,practice,"['S', 'S', 'S', 'S', 'S', 'S', 'S', 'C', 'C', 'C', 'C', 'C', 'C', 'C', 'C', 'C', 'C', 'C', 'C', 'C', 'C', 'C', 'C']","[219550, 220111, 220651, 221187, 221741, 222231, 222682, 223257, 223738, 224212, 224713, 225242, 225721, 226241, 226765, 227233, 227751, 228259, 228787, 229296, 229828, 230318, 230860]","[219752, 220286, 220827, 221348, 221915, 222466, 222891, 223440, 223970, 224442, 224903, 225400, 225920, 226443, 226922, 227444, 227944, 228446, 228953, 229464, 229971, 230509, 231029]","[214, 210, 219, 118, 44, 153, 175, 176, 212, 88, 133, 174, 143, 133, 182, 189, 79, 32, 46, 121, 51, 203, 199]","[219554, 220116, 220655, 221192, 221745, 222235, 222686, 223262, 223742, 224351, 224719, 225247, 225726, 226247, 226770, 227237, 227893, 228264, 228792, 229301, 229834, 230323, 230864]","[219216, 219716, 220216, 220717, 221217, 221717, 222217, 222717, 223277, 223758, 224232, 224733, 225262, 225741, 226262, 226785, 227253, 227771, 228279, 228807, 229316, 229848, 230338, 230880]",62,OR,U,R,ITMSR,1.1
2,500,practice,0,2,2,2,practice,"['S', 'S', 'S', 'S', 'S', 'S', 'S', 'C', 'C', 'C', 'C', 'C', 'C', 'C', 'C', 'C', 'C', 'C', 'C', 'C', 'C', 'C', 'C', 'C', 'C', 'C', 'C', 'C', 'C', 'C']","[236961, 237310, 237759, 238247, 238763, 239288, 239828, 240261, 240785, 241268, 241764, 242332, 242835, 243315, 243417, 243788, 243888, 244310, 244410, 244847, 244948, 245365, 245849, 245949, 246361, 246882, 246982, 247394, 247902, 248002]","[237075, 237501, 237935, 238461, 239005, 239482, 239991, 240493, 240969, 241439, 241920, 242464, 242967, 243337, 243453, 243808, 243926, 244330, 244452, 244868, 244970, 245481, 245869, 245984, 246521, 246902, 247043, 247531, 247922, 248062]","[118, 168, 143, 103, 51, 17, 51, 115, 87, 57, 116, 34, 42, 248, 131, 156, 42, 213, 104, 14, 130, 53, 144, 209, 46, 216, 254, 13, 7, 183]","[237030, 237427, 237863, 238339, 238893, 239430, 239835, 240266, 240867, 241374, 241769, 242338, 242915, 243320, 243425, 243791, 243888, 244314, 244413, 244853, 244948, 245370, 245853, 245949, 246366, 246887, 246982, 247400, 247907, 248002]","[236275, 236775, 237275, 237775, 238275, 238775, 239276, 239775, 240281, 240805, 241288, 241784, 242352, 242855, 243335, 243808, 244330, 244867, 245385, 245869, 246381, 246902, 247414, 247922]",62,OR,U,R,ITMSR,1.1
4,500,practice,0,3,3,3,practice,"['S', 'S', 'S', 'S', 'C', 'C', 'C', 'C', 'C', 'C', 'C', 'C', 'C', 'C', 'C', 'C', 'C', 'C', 'C', 'C', 'C', 'C']","[255540, 255981, 256492, 257037, 257525, 258007, 258524, 258998, 259529, 260029, 260500, 261000, 261525, 262035, 262528, 263027, 263520, 264020, 264122, 264566, 264666, 265105]","[255726, 256224, 256711, 257233, 257741, 258223, 258724, 259202, 259714, 260219, 260713, 261189, 261703, 262237, 262720, 263222, 263786, 264042, 264301, 264586, 264811, 265281]","[85, 135, 181, 103, 143, 53, 104, 131, 105, 70, 251, 40, 151, 120, 100, 74, 190, 16, 22, 31, 12, 106]","[255656, 256156, 256637, 257043, 257529, 258146, 258631, 259003, 259649, 260034, 260506, 261130, 261530, 262161, 262532, 263033, 263525, 264027, 264242, 264571, 264728, 265109]","[253559, 254058, 254558, 255058, 255558, 256058, 256558, 257058, 257545, 258027, 258544, 259018, 259549, 260049, 260520, 261020, 261545, 262055, 262548, 263047, 263540, 264040, 264586, 265125]",62,OR,U,R,ITMSR,1.1
0,500,practice,0,4,4,4,practice,"['S', 'S', 'S', 'S', 'S', 'S', 'C', 'C', 'C', 'C', 'C', 'C', 'C', 'C', 'C', 'C', 'C', 'C', 'C', 'C', 'C', 'C']","[271604, 272078, 272559, 273065, 273573, 274094, 274618, 275067, 275622, 276134, 276652, 277177, 277698, 278208, 278726, 279260, 279754, 280268, 280756, 281270, 281839, 282369]","[271750, 272254, 272774, 273285, 273813, 274317, 274851, 275333, 275808, 276317, 276826, 277361, 277899, 278409, 278935, 279435, 279962, 280467, 280976, 281468, 282022, 282567]","[77, 38, 93, 43, 90, 177, 104, 93, 53, 78, 88, 98, 118, 122, 131, 89, 16, 134, 178, 174, 151, 144]","[271689, 272187, 272683, 273071, 273579, 274098, 274624, 275073, 275627, 276140, 276658, 277182, 277703, 278214, 278730, 279377, 279845, 280273, 280867, 281411, 281954, 282484]","[270599, 271098, 271598, 272098, 272599, 273098, 273598, 274098, 274638, 275087, 275642, 276154, 276672, 277197, 277719, 278228, 278746, 279280, 279774, 280288, 280776, 281290, 281859, 282389]",62,OR,U,R,ITMSR,1.1
1,500,practice,0,5,5,5,practice,"['S', 'S', 'S', 'S', 'C', 'C', 'C', 'C', 'C', 'C', 'C', 'C', 'C', 'C', 'C', 'C', 'C', 'C', 'C', 'C', 'C', 'C', 'C', 'C', 'C']","[289723, 290244, 290744, 291261, 291774, 292310, 292814, 293293, 293784, 294316, 294828, 294928, 295315, 295833, 296269, 296371, 296772, 296873, 297246, 297765, 297865, 298270, 298760, 298860, 299269]","[289901, 290449, 290992, 291475, 291964, 292516, 293011, 293482, 293991, 294500, 294848, 294992, 295491, 296012, 296290, 296488, 296792, 296991, 297449, 297785, 297962, 298448, 298780, 298967, 299450]","[195, 166, 124, 62, 68, 103, 99, 5, 62, 83, 242, 188, 85, 3, 34, 175, 179, 184, 67, 62, 21, 15, 236, 200, 195]","[289820, 290351, 290907, 291389, 291884, 292426, 292943, 293411, 293788, 294320, 294832, 294935, 295320, 295915, 296274, 296388, 296776, 296936, 297251, 297769, 297871, 298395, 298763, 298889, 299388]","[287824, 288324, 288824, 289325, 289825, 290325, 290825, 291325, 291794, 292330, 292834, 293313, 293805, 294336, 294848, 295335, 295853, 296289, 296792, 297266, 297785, 298290, 298780, 299289]",62,OR,U,R,ITMSR,1.1
4,600,trial,0,6,6,6,trial,"['S', 'S', 'S', 'S', 'S', 'S', 'S', 'S', 'C', 'C', 'C', 'C', 'C', 'C', 'C', 'C', 'C', 'C', 'C', 'C', 'C', 'C', 'C', 'C']","[418387, 418739, 419237, 419866, 420509, 421101, 421726, 422345, 422936, 423563, 424158, 424757, 425373, 425972, 426606, 427281, 427911, 428523, 429174, 429813, 430442, 431073, 431748, 432369]","[418512, 418908, 419432, 420088, 420689, 421298, 421904, 422483, 423120, 423741, 424360, 424979, 425591, 426217, 426861, 427483, 428125, 428800, 429421, 430029, 430692, 431391, 432009, 432633]","[164, 218, 146, 240, 140, 119, 129, 226, 163, 112, 145, 91, 134, 183, 159, 36, 97, 141, 161, 178, 150, 163, 87, 148]","[418457, 418862, 419350, 420031, 420592, 421200, 421835, 422417, 423044, 423568, 424260, 424930, 425534, 426149, 426789, 427437, 428046, 428732, 429371, 429940, 430612, 431297, 431877, 432569]","[418117, 418717, 419317, 419917, 420517, 421117, 421718, 422317, 422957, 423583, 424178, 424777, 425393, 425992, 426626, 427301, 427931, 428544, 429194, 429833, 430462, 431093, 431768, 432389]",62,OR,U,R,ITMSR,1.1
3,400,trial,0,7,7,7,trial,"['S', 'S', 'S', 'S', 'C', 'C', 'C', 'C', 'C', 'C', 'C', 'C', 'C', 'C', 'C', 'C', 'C', 'C', 'C', 'C']","[439386, 439768, 440212, 440608, 441042, 441465, 441864, 442245, 442682, 443114, 443503, 443927, 444360, 444744, 445140, 445601, 445972, 446401, 446826, 447234]","[439511, 439922, 440350, 440764, 441208, 441616, 442033, 442433, 442867, 443277, 443676, 444081, 444502, 444913, 445337, 445753, 446173, 446565, 446981, 447387]","[46, 233, 24, 215, 200, 174, 37, 53, 35, 58, 63, 252, 56, 53, 9, 52, 56, 234, 20, 130]","[439451, 439875, 440298, 440714, 441159, 441555, 441959, 442341, 442687, 443223, 443626, 444033, 444443, 444858, 445281, 445714, 446100, 446517, 446922, 447239]","[437873, 438274, 438674, 439074, 439474, 439874, 440274, 440674, 441062, 441485, 441884, 442265, 442702, 443134, 443523, 443948, 444380, 444764, 445160, 445621, 445992, 446422, 446846, 447254]",62,OR,U,R,ITMSR,1.1
1,400,trial,0,8,8,8,trial,"['S', 'S', 'S', 'S', 'C', 'C', 'C', 'C', 'C', 'C', 'C', 'C', 'C', 'C', 'C', 'C', 'C', 'C', 'C', 'C', 'C', 'C', 'C', 'C', 'C', 'C', 'C', 'C', 'C', 'C', 'C', 'C', 'C', 'C']","[454146, 454526, 454917, 455340, 455799, 456192, 456292, 456593, 456693, 456979, 457079, 457378, 457478, 457779, 457879, 458183, 458283, 458596, 458696, 459015, 459388, 459488, 459792, 459892, 460168, 460268, 460578, 460678, 460995, 461097, 461410, 461510, 461780, 461883]","[454272, 454683, 455069, 455490, 455948, 456212, 456352, 456613, 456728, 456999, 457116, 457398, 457534, 457799, 457918, 458203, 458319, 458616, 458739, 459152, 459408, 459571, 459812, 459966, 460188, 460377, 460598, 460785, 461016, 461158, 461430, 461576, 461803, 461946]","[111, 129, 71, 53, 70, 106, 215, 157, 155, 140, 134, 6, 119, 254, 111, 212, 165, 226, 25, 252, 128, 126, 160, 187, 140, 246, 38, 240, 124, 188, 199, 203, 118, 191]","[454227, 454621, 455025, 455427, 455805, 456198, 456294, 456597, 456693, 456984, 457079, 457385, 457478, 457782, 457879, 458185, 458283, 458602, 458700, 459021, 459392, 459494, 459798, 459908, 460174, 460310, 460581, 460705, 460998, 461101, 461412, 461513, 461783, 461894]","[452622, 453021, 453421, 453821, 454221, 454621, 455021, 455421, 455819, 456212, 456613, 456999, 457398, 457799, 458203, 458616, 459035, 459408, 459812, 460188, 460598, 461016, 461430, 461800]",62,OR,U,R,ITMSR,1.1
2,400,trial,0,9,9,9,trial,"['S', 'S', 'S', 'S', 'S', 'S', 'S', 'S', 'S', 'C', 'C', 'C', 'C', 'C', 'C', 'C', 'C', 'C', 'C', 'C', 'C', 'C', 'C', 'C', 'C', 'C', 'C', 'C', 'C', 'C']","[467574, 467865, 468187, 468572, 468943, 469326, 469736, 470152, 470253, 470539, 470942, 471342, 471737, 472122, 472527, 472900, 473294, 473394, 473682, 473782, 474095, 474514, 474614, 474900, 475000, 475314, 475414, 475666, 476108, 476515]","[467691, 468003, 468332, 468707, 469121, 469491, 469892, 470172, 470292, 470676, 471081, 471506, 471906, 472290, 472667, 473030, 473314, 473439, 473702, 473853, 474245, 474534, 474683, 474920, 475078, 475334, 475475, 475887, 476305, 476702]","[108, 64, 64, 59, 64, 119, 132, 149, 114, 231, 211, 231, 110, 177, 35, 123, 86, 96, 76, 150, 138, 225, 177, 116, 194, 146, 215, 167, 180, 206]","[467637, 467869, 468280, 468643, 469069, 469434, 469836, 470156, 470253, 470622, 470948, 471438, 471743, 472128, 472602, 472904, 473298, 473394, 473682, 473782, 474180, 474517, 474625, 474904, 475015, 475317, 475414, 475815, 476201, 476641]","[467348, 467748, 468148, 468548, 468948, 469348, 469748, 470148, 470559, 470962, 471362, 471757, 472142, 472547, 472920, 473314, 473702, 474115, 474534, 474920, 475334, 475686, 476128, 476535]",62,OR,U,R,ITMSR,1.1
1,600,trial,0,10,10,10,trial,"['S', 'S', 'S', 'S', 'S', 'S', 'S', 'S', 'S', 'S', 'C', 'C', 'C', 'C', 'C', 'C', 'C', 'C', 'C', 'C', 'C', 'C', 'C', 'C', 'C', 'C']","[482615, 482715, 483161, 483632, 484116, 484216, 484711, 485334, 485918, 486504, 487100, 487715, 488298, 488910, 489513, 490113, 490727, 491327, 491936, 492532, 493126, 493792, 494393, 495025, 495674, 496268]","[482635, 482759, 483355, 483853, 484136, 484370, 484994, 485581, 486197, 486811, 487404, 487976, 488628, 489246, 489854, 490413, 491041, 491628, 492269, 492847, 493466, 494111, 494699, 495308, 495904]","[37, 164, 241, 45, 113, 50, 52, 183, 253, 212, 168, 194, 216, 240, 10, 198, 177, 164, 198, 228, 9, 8, 210, 231, 10]","[482618, 482715, 483300, 483793, 484121, 484284, 484892, 485510, 486115, 486738, 487330, 487919, 488564, 489114, 489716, 490321, 490954, 491494, 492186, 492787, 493378, 494008, 494585, 495223, 495838]","[482315, 482915, 483515, 484115, 484715, 485315, 485915, 486515, 487120, 487735, 488318, 488930, 489533, 490133, 490747, 491347, 491956, 492552, 493146, 493812, 494413, 495045, 495694, 496288]",62,OR,U,R,ITMSR,1.1
0,400,trial,0,11,11,11,trial,"['S', 'S', 'S', 'S', 'S', 'S', 'S', 'S', 'C', 'C', 'C', 'C', 'C', 'C', 'C', 'C', 'C', 'C', 'C', 'C', 'C', 'C', 'C', 'C']","[502247, 502589, 502836, 503174, 503559, 503983, 504411, 504819, 505213, 505609, 506029, 506380, 506775, 507181, 507610, 508009, 508358, 508740, 509150, 509559, 509942, 510341, 510737, 511124]","[502377, 502696, 502974, 503345, 503752, 504178, 504581, 504965, 505365, 505762, 506173, 506589, 506957, 507336, 507730, 508166, 508535, 508953, 509310, 509708, 510123, 510492, 510874, 511266]","[193, 106, 156, 87, 124, 222, 244, 247, 170, 230, 141, 230, 10, 218, 170, 211, 10, 251, 27, 247, 32, 198, 242, 178]","[502320, 502595, 502840, 503292, 503687, 504122, 504531, 504825, 505219, 505616, 506125, 506494, 506781, 507281, 507616, 508114, 508363, 508746, 509156, 509662, 509948, 510433, 510742, 511226]","[502059, 502457, 502857, 503257, 503657, 504057, 504457, 504857, 505233, 505629, 506049, 506400, 506796, 507201, 507630, 508029, 508378, 508760, 509170, 509579, 509962, 510361, 510757, 511144]",62,OR,U,R,ITMSR,1.1
0,600,trial,0,12,12,12,trial,"['S', 'S', 'S', 'S', 'S', 'S', 'S', 'S', 'C', 'C', 'C', 'C', 'C', 'C', 'C', 'C', 'C', 'C', 'C', 'C', 'C', 'C', 'C', 'C', 'C']","[517016, 517289, 517896, 518548, 519133, 519732, 520356, 520955, 521539, 522146, 522699, 523279, 523871, 524419, 524967, 525626, 526229, 526768, 526868, 527458, 528078, 528620, 529215, 529818, 530414]","[517126, 517590, 518190, 518801, 519435, 520029, 520603, 521200, 521836, 522416, 522977, 523577, 524154, 524747, 525338, 525862, 526560, 526788, 527124, 527733, 528301, 528966, 529541, 530095, 530627]","[44, 92, 96, 37, 139, 105, 97, 47, 75, 125, 113, 120, 114, 120, 147, 79, 101, 6, 85, 91, 70, 55, 81, 86, 33]","[517062, 517521, 518132, 518712, 519339, 519925, 520530, 521114, 521731, 522343, 522895, 523506, 524055, 524675, 525264, 525802, 526432, 526768, 527044, 527655, 528222, 528825, 529443, 530022, 530558]","[516814, 517414, 518014, 518615, 519214, 519814, 520414, 521014, 521560, 522166, 522719, 523299, 523891, 524439, 524987, 525646, 526249, 526788, 527478, 528098, 528641, 529235, 529838, 530434]",62,OR,U,R,ITMSR,1.1
1,600,trial,0,13,13,13,trial,"['S', 'S', 'S', 'S', 'S', 'S', 'S', 'C', 'C', 'C', 'C', 'C', 'C', 'C', 'C', 'C', 'C', 'C', 'C', 'C', 'C', 'C', 'C']","[536559, 537210, 537817, 538419, 539074, 539679, 540198, 540768, 541375, 541982, 542560, 543162, 543712, 544374, 545012, 545623, 546215, 546847, 547500, 548094, 548704, 549299, 549885]","[536819, 537486, 538099, 538718, 539373, 539939, 540467, 541115, 541724, 542280, 542851, 543491, 544092, 544686, 545286, 545887, 546490, 547155, 547830, 548385, 549005, 549580]","[90, 78, 220, 64, 236, 158, 217, 216, 82, 237, 208, 0, 76, 242, 251, 225, 126, 217, 9, 206, 79, 3]","[536698, 537382, 538006, 538653, 539279, 539792, 540393, 541011, 541624, 542170, 542779, 543385, 544032, 544594, 545208, 545801, 546402, 547059, 547707, 548289, 548930, 549489]","[536085, 536685, 537285, 537885, 538485, 539085, 539685, 540285, 540788, 541395, 542002, 542580, 543182, 543732, 544394, 545032, 545643, 546235, 546867, 547520, 548114, 548724, 549319, 549905]",62,OR,U,R,ITMSR,1.1
3,600,trial,0,14,14,14,trial,"['S', 'S', 'S', 'S', 'S', 'S', 'S', 'S', 'C', 'C', 'C', 'C', 'C', 'C', 'C', 'C', 'C', 'C', 'C', 'C', 'C', 'C', 'C', 'C', 'C']","[556143, 556645, 557223, 557764, 558388, 558488, 559057, 559657, 560283, 560933, 561537, 562130, 562720, 563315, 563929, 564573, 565192, 565810, 566431, 566998, 567584, 567684, 568227, 568778, 569411]","[556316, 556884, 557451, 558063, 558408, 558681, 559313, 559931, 560503, 561191, 561801, 562404, 563030, 563625, 564236, 564828, 565383, 566100, 566684, 567233, 567604, 567820, 568457, 569052, 569659]","[79, 66, 10, 208, 187, 233, 180, 172, 8, 12, 170, 244, 6, 54, 174, 166, 233, 60, 69, 51, 92, 99, 149, 77, 79]","[556268, 556800, 557394, 558004, 558394, 558608, 559268, 559868, 560419, 561112, 561724, 562333, 562979, 563558, 564173, 564775, 565318, 566006, 566619, 567160, 567587, 567762, 568367, 568965, 569579]","[555533, 556133, 556733, 557333, 557933, 558533, 559133, 559733, 560303, 560953, 561557, 562150, 562740, 563335, 563949, 564593, 565212, 565830, 566451, 567018, 567604, 568247, 568798, 569432]",62,OR,U,R,ITMSR,1.1
0,600,trial,0,15,15,15,trial,"['S', 'S', 'S', 'S', 'S', 'S', 'S', 'C', 'C', 'C', 'C', 'C', 'C', 'C', 'C', 'C', 'C', 'C', 'C', 'C', 'C', 'C', 'C']","[575808, 576272, 576813, 577431, 578119, 578743, 579320, 579911, 580498, 581111, 581673, 582285, 582864, 583427, 583992, 584555, 585183, 585776, 586332, 586933, 587515, 588072, 588669]","[575969, 576507, 577088, 577740, 578376, 578944, 579603, 580201, 580806, 581369, 581928, 582537, 583116, 583693, 584238, 584837, 585414, 585988, 586591, 587193, 587802, 588353, 588914]","[137, 158, 114, 84, 195, 125, 8, 2, 249, 246, 49, 229, 249, 206, 239, 255, 39, 233, 6, 16, 39, 24, 65]","[575907, 576439, 577017, 577654, 578290, 578872, 579518, 580110, 580695, 581297, 581838, 582451, 583042, 583592, 584164, 584736, 585298, 585902, 586507, 587078, 587711, 588256, 588811]","[575120, 575719, 576319, 576919, 577519, 578119, 578719, 579319, 579931, 580518, 581131, 581693, 582305, 582884, 583447, 584012, 584576, 585203, 585796, 586352, 586953, 587535, 588092, 588689]",62,OR,U,R,ITMSR,1.1
5,400,trial,0,16,16,16,trial,"['S', 'S', 'S', 'S', 'S', 'S', 'S', 'C', 'C', 'C', 'C', 'C', 'C', 'C', 'C', 'C', 'C', 'C', 'C', 'C', 'C', 'C', 'C']","[594794, 595091, 595488, 595898, 596312, 596702, 597081, 597483, 597902, 598294, 598706, 599123, 599540, 599925, 600329, 600719, 601125, 601522, 601932, 602342, 602736, 603159, 603560]","[594953, 595262, 595660, 596078, 596465, 596878, 597265, 597663, 598088, 598529, 598917, 599358, 599767, 600159, 600537, 600958, 601353, 601782, 602164, 602570, 602995, 603417, 603794]","[45, 221, 205, 205, 218, 244, 241, 237, 231, 17, 3, 19, 30, 35, 24, 63, 38, 34, 41, 45, 43, 248, 25]","[594876, 595184, 595582, 596007, 596401, 596795, 597176, 597590, 597907, 598432, 598810, 599275, 599656, 600053, 600458, 600872, 601273, 601683, 602081, 602492, 602909, 603340, 603671]","[594322, 594722, 595122, 595522, 595922, 596322, 596722, 597122, 597504, 597922, 598315, 598726, 599143, 599560, 599945, 600349, 600739, 601145, 601542, 601952, 602362, 602756, 603180, 603580]",62,OR,U,R,ITMSR,1.1
2,600,trial,0,17,17,17,trial,"['S', 'S', 'S', 'S', 'S', 'S', 'S', 'S', 'C', 'C', 'C', 'C', 'C', 'C', 'C', 'C', 'C', 'C', 'C', 'C', 'C', 'C', 'C', 'C']","[609545, 609910, 610427, 611027, 611638, 612264, 612882, 613453, 614043, 614635, 615232, 615770, 616388, 616984, 617570, 618166, 618788, 619409, 619980, 620584, 621161, 621779, 622334, 622903]","[609704, 610109, 610722, 611284, 611893, 612549, 613131, 613721, 614394, 614938, 615446, 616097, 616782, 617309, 617890, 618491, 619116, 619723, 620277, 620830, 621523, 622010, 622583, 623129]","[244, 18, 203, 218, 245, 203, 205, 246, 237, 251, 233, 246, 27, 9, 198, 236, 248, 255, 6, 251, 20, 233, 233, 234]","[609628, 610044, 610648, 611219, 611783, 612438, 613043, 613616, 614251, 614816, 615355, 616009, 616608, 617230, 617808, 618396, 618972, 619548, 620171, 620741, 621414, 621924, 622451, 623040]","[609318, 609918, 610519, 611118, 611718, 612318, 612918, 613518, 614063, 614656, 615252, 615790, 616408, 617005, 617590, 618186, 618808, 619429, 620000, 620604, 621181, 621799, 622354, 622923]",62,OR,U,R,ITMSR,1.1
5,600,trial,0,18,18,18,trial,"['S', 'S', 'S', 'S', 'S', 'S', 'S', 'S', 'C', 'C', 'C', 'C', 'C', 'C', 'C', 'C', 'C', 'C', 'C', 'C', 'C', 'C', 'C', 'C']","[628875, 629225, 629739, 630327, 630998, 631599, 632193, 632739, 633341, 633985, 634589, 635161, 635743, 636370, 636989, 637620, 638201, 638817, 639392, 640009, 640619, 641202, 641804, 642404]","[629033, 629431, 630029, 630626, 631276, 631932, 632448, 633000, 633722, 634321, 634920, 635464, 636127, 636731, 637350, 637914, 638588, 639149, 639772, 640374, 640972, 641601, 642187]","[162, 197, 250, 241, 251, 16, 3, 251, 31, 34, 12, 21, 45, 225, 223, 233, 2, 208, 235, 249, 241, 253, 247]","[628966, 629357, 629918, 630532, 631156, 631820, 632365, 632905, 633519, 634208, 634797, 635339, 635970, 636547, 637253, 637809, 638443, 639038, 639629, 640253, 640806, 641445, 642080]","[628621, 629221, 629821, 630421, 631021, 631621, 632221, 632821, 633361, 634005, 634609, 635181, 635763, 636390, 637009, 637640, 638221, 638837, 639412, 640029, 640640, 641222, 641824, 642424]",62,OR,U,R,ITMSR,1.1
4,400,trial,0,19,19,19,trial,"['S', 'S', 'S', 'S', 'S', 'S', 'S', 'C', 'C', 'C', 'C', 'C', 'C', 'C', 'C', 'C', 'C', 'C', 'C', 'C', 'C', 'C', 'C']","[648255, 648576, 648974, 649387, 649801, 650167, 650557, 650991, 651394, 651868, 652283, 652710, 653119, 653526, 653926, 654319, 654745, 655177, 655588, 656023, 656447, 656861, 657299]","[648390, 648739, 649148, 649522, 649937, 650359, 650714, 651133, 651589, 652010, 652467, 652903, 653293, 653712, 654107, 654548, 654965, 655389, 655809, 656227, 656671, 657092, 657463]","[153, 161, 199, 145, 151, 156, 181, 138, 141, 147, 171, 211, 201, 181, 242, 221, 212, 227, 3, 30, 242, 4, 244]","[648332, 648676, 648979, 649393, 649807, 650172, 650641, 650998, 651520, 651938, 652397, 652803, 653225, 653622, 654041, 654428, 654885, 655310, 655737, 656156, 656596, 657011, 657392]","[647814, 648214, 648614, 649014, 649414, 649815, 650214, 650614, 651011, 651414, 651888, 652303, 652730, 653139, 653546, 653946, 654339, 654765, 655197, 655608, 656044, 656467, 656881, 657319]",62,OR,U,R,ITMSR,1.1
4,600,trial,0,20,20,20,trial,"['S', 'S', 'S', 'S', 'S', 'S', 'S', 'S', 'C', 'C', 'C', 'C', 'C', 'C', 'C', 'C', 'C', 'C', 'C', 'C', 'C', 'C', 'C', 'C']","[663268, 663741, 664242, 664811, 665421, 666013, 666620, 667256, 667869, 668493, 669081, 669697, 670272, 670909, 671537, 672122, 672715, 673372, 673980, 674597, 675153, 675788, 676331, 676968]","[663425, 663898, 664520, 665089, 665771, 666368, 666987, 667563, 668250, 668875, 669487, 670024, 670710, 671376, 671938, 672505, 673192, 673781, 674343, 674917, 675560, 676117, 676755]","[233, 231, 2, 228, 213, 246, 246, 245, 9, 11, 30, 12, 10, 32, 56, 48, 27, 54, 47, 23, 54, 65, 65]","[663343, 663822, 664431, 664979, 665630, 666232, 666850, 667459, 668106, 668785, 669382, 669934, 670571, 671247, 671818, 672411, 673051, 673682, 674195, 674823, 675430, 675987, 676588]","[663051, 663651, 664251, 664851, 665451, 666051, 666651, 667251, 667889, 668513, 669101, 669717, 670292, 670929, 671557, 672142, 672735, 673392, 674000, 674617, 675173, 675808, 676352, 676988]",62,OR,U,R,ITMSR,1.1
3,400,trial,0,21,21,21,trial,"['S', 'S', 'S', 'S', 'S', 'S', 'S', 'S', 'C', 'C', 'C', 'C', 'C', 'C', 'C', 'C', 'C', 'C', 'C', 'C', 'C', 'C', 'C', 'C']","[683010, 683326, 683554, 683908, 684336, 684766, 685174, 685579, 685969, 686373, 686800, 687188, 687629, 688095, 688507, 688950, 689351, 689728, 690191, 690610, 691018, 691439, 691898, 692359]","[683166, 683441, 683712, 684124, 684574, 684946, 685376, 685744, 686178, 686627, 687019, 687426, 687934, 688342, 688776, 689182, 689557, 689980, 690403, 690811, 691281, 691739, 692184, 692629]","[118, 160, 233, 151, 151, 162, 179, 122, 143, 166, 183, 219, 187, 185, 196, 199, 210, 201, 176, 221, 231, 234, 242, 234]","[683107, 683389, 683629, 684013, 684341, 684770, 685179, 685669, 685974, 686571, 686937, 687361, 687867, 688279, 688707, 689128, 689488, 689901, 690294, 690737, 691198, 691665, 692097, 692543]","[682766, 683166, 683566, 683966, 684366, 684766, 685166, 685566, 685989, 686393, 686820, 687208, 687649, 688115, 688527, 688970, 689371, 689748, 690211, 690630, 691038, 691459, 691918, 692379]",62,OR,U,R,ITMSR,1.1
4,400,trial,0,22,22,22,trial,"['S', 'S', 'S', 'S', 'S', 'S', 'S', 'S', 'C', 'C', 'C', 'C', 'C', 'C', 'C', 'C', 'C', 'C', 'C', 'C', 'C', 'C', 'C', 'C']","[698317, 698571, 698866, 699215, 699640, 700029, 700452, 700854, 701290, 701670, 702090, 702520, 702935, 703334, 703756, 704172, 704595, 705067, 705473, 705935, 706297, 706716, 707151, 707574]","[698443, 698704, 698994, 699409, 699837, 700264, 700668, 701102, 701518, 701912, 702329, 702728, 703160, 703564, 703960, 704358, 704797, 705245, 705672, 706093, 706496, 706923, 707373, 707761]","[53, 132, 145, 196, 200, 214, 249, 222, 222, 207, 222, 195, 1, 3, 235, 4, 23, 4, 227, 239, 44, 26, 12, 10]","[698392, 698641, 698872, 699219, 699645, 700180, 700599, 701005, 701410, 701805, 702221, 702643, 703081, 703479, 703865, 704297, 704715, 705169, 705590, 706027, 706416, 706847, 707288, 707678]","[698070, 698469, 698869, 699269, 699669, 700069, 700469, 700869, 701310, 701690, 702110, 702540, 702955, 703354, 703776, 704192, 704615, 705087, 705494, 705955, 706317, 706736, 707171, 707594]",62,OR,U,R,ITMSR,1.1
5,600,trial,0,23,23,23,trial,"['S', 'S', 'S', 'S', 'S', 'S', 'S', 'C', 'C', 'C', 'C', 'C', 'C', 'C', 'C', 'C', 'C', 'C', 'C', 'C', 'C', 'C', 'C']","[713359, 714055, 714744, 715334, 715937, 716547, 717145, 717734, 718330, 718958, 719577, 720197, 720822, 721433, 722070, 722685, 723290, 723951, 724558, 725082, 725726, 726379, 726995]","[713638, 714379, 715001, 715621, 716211, 716807, 717489, 718090, 718736, 719364, 719916, 720530, 721156, 721787, 722368, 723063, 723689, 724258, 724792, 725449, 726087, 726687]","[228, 5, 220, 166, 170, 187, 246, 200, 239, 20, 0, 254, 12, 17, 12, 27, 22, 36, 19, 19, 53, 39]","[713560, 714251, 714900, 715339, 716144, 716732, 717378, 717923, 718617, 719243, 719790, 720405, 721017, 721635, 722252, 722959, 723556, 724149, 724686, 725286, 725963, 726587]","[712951, 713551, 714151, 714752, 715352, 715952, 716552, 717152, 717754, 718350, 718978, 719597, 720217, 720842, 721453, 722091, 722705, 723310, 723971, 724578, 725102, 725746, 726400, 727015]",62,OR,U,R,ITMSR,1.1
0,400,trial,0,24,24,24,trial,"['S', 'S', 'S', 'S', 'S', 'S', 'S', 'C', 'C', 'C', 'C', 'C', 'C', 'C', 'C', 'C', 'C', 'C', 'C', 'C', 'C', 'C', 'C']","[733000, 733361, 733728, 734120, 734528, 734927, 735346, 735774, 736168, 736564, 737005, 737399, 737822, 738210, 738622, 739023, 739444, 739820, 740235, 740678, 741093, 741507, 741974]","[733154, 733547, 733924, 734321, 734679, 735094, 735578, 735977, 736368, 736783, 737190, 737596, 737985, 738423, 738834, 739248, 739634, 740050, 740480, 740894, 741317, 741742, 742148]","[150, 187, 187, 146, 168, 183, 216, 8, 229, 245, 245, 6, 248, 6, 3, 16, 8, 34, 35, 20, 28, 25, 3]","[733087, 733469, 733833, 734233, 734533, 734931, 735508, 735892, 736288, 736673, 737126, 737527, 737915, 738338, 738751, 739172, 739544, 739970, 740407, 740822, 741238, 741651, 742070]","[732558, 732958, 733358, 733758, 734158, 734558, 734958, 735358, 735794, 736188, 736584, 737026, 737419, 737842, 738230, 738642, 739043, 739464, 739841, 740255, 740698, 741113, 741527, 741994]",62,OR,U,R,ITMSR,1.1
3,600,trial,0,25,25,25,trial,"['S', 'S', 'S', 'S', 'S', 'S', 'S', 'S', 'C', 'C', 'C', 'C', 'C', 'C', 'C', 'C', 'C', 'C', 'C', 'C', 'C', 'C', 'C', 'C']","[747930, 748331, 748770, 749327, 749928, 750522, 751159, 751692, 752280, 752875, 753425, 753984, 754580, 755129, 755723, 756326, 756975, 757595, 758237, 758890, 759474, 760085, 760691, 761313]","[748132, 748502, 749054, 749645, 750281, 750876, 751438, 751989, 752610, 753223, 753761, 754297, 754872, 755512, 756090, 756662, 757227, 757954, 758603, 759158, 759839, 760439, 761056]","[193, 26, 250, 245, 247, 238, 210, 4, 255, 8, 4, 13, 24, 6, 34, 47, 27, 34, 41, 41, 57, 69, 60]","[748044, 748420, 748949, 749535, 750187, 750774, 751341, 751899, 752477, 753117, 753623, 754196, 754754, 755419, 755984, 756564, 757154, 757787, 758458, 759068, 759725, 760297, 760944]","[747531, 748131, 748731, 749331, 749931, 750531, 751131, 751731, 752301, 752896, 753445, 754004, 754600, 755149, 755743, 756346, 756995, 757615, 758257, 758910, 759494, 760105, 760711, 761333]",62,OR,U,R,ITMSR,1.1
5,400,trial,0,26,26,26,trial,"['S', 'S', 'S', 'S', 'S', 'S', 'S', 'C', 'C', 'C', 'C', 'C', 'C', 'C', 'C', 'C', 'C', 'C', 'C', 'C', 'C', 'C', 'C']","[767050, 767395, 767778, 768167, 768566, 768973, 769411, 769824, 770215, 770636, 771044, 771450, 771849, 772273, 772710, 773114, 773508, 773926, 774363, 774786, 775200, 775614, 776007]","[767193, 767564, 767950, 768355, 768750, 769174, 769592, 770016, 770424, 770835, 771212, 771671, 772109, 772510, 772861, 773328, 773727, 774191, 774569, 775025, 775412, 775852, 776192]","[249, 222, 235, 229, 234, 219, 224, 38, 12, 24, 13, 3, 44, 30, 44, 60, 41, 62, 57, 55, 61, 45, 59]","[767131, 767485, 767869, 768172, 768570, 769075, 769516, 769930, 770341, 770744, 771142, 771550, 772016, 772404, 772797, 773236, 773642, 774079, 774492, 774930, 775315, 775719, 776109]","[766627, 767026, 767426, 767826, 768226, 768626, 769026, 769426, 769844, 770235, 770656, 771064, 771470, 771869, 772293, 772730, 773134, 773528, 773946, 774383, 774806, 775220, 775634, 776027]",62,OR,U,R,ITMSR,1.1
2,400,trial,0,27,27,27,trial,"['S', 'S', 'S', 'S', 'S', 'S', 'S', 'C', 'C', 'C', 'C', 'C', 'C', 'C', 'C', 'C', 'C', 'C', 'C', 'C', 'C', 'C', 'C']","[781802, 782163, 782613, 782999, 783394, 783758, 784155, 784584, 785005, 785413, 785786, 786177, 786621, 787017, 787438, 787815, 788237, 788674, 789063, 789409, 789842, 790256, 790634]","[781967, 782447, 782806, 783232, 783590, 783996, 784378, 784840, 785199, 785624, 785942, 786396, 786807, 787223, 787592, 788029, 788434, 788850, 789241, 789639, 790021, 790448, 790806]","[154, 9, 16, 50, 63, 92, 73, 65, 60, 59, 43, 71, 86, 64, 46, 75, 78, 62, 71, 75, 64, 72, 83]","[781882, 782326, 782716, 783139, 783499, 783917, 784291, 784735, 785103, 785502, 785871, 786307, 786719, 787136, 787522, 787950, 788336, 788765, 789157, 789523, 789928, 790361, 790727]","[781450, 781850, 782251, 782650, 783050, 783450, 783850, 784250, 784604, 785026, 785433, 785806, 786197, 786641, 787037, 787458, 787835, 788257, 788695, 789083, 789429, 789862, 790276, 790654]",62,OR,U,R,ITMSR,1.1
2,600,trial,0,28,28,28,trial,"['S', 'S', 'S', 'S', 'S', 'S', 'S', 'C', 'C', 'C', 'C', 'C', 'C', 'C', 'C', 'C', 'C', 'C', 'C', 'C', 'C', 'C', 'C']","[796748, 797277, 797849, 798451, 799062, 799634, 800276, 800861, 801472, 802078, 802708, 803263, 803860, 804427, 805010, 805550, 806120, 806750, 807341, 807872, 808382, 809016, 809606]","[796928, 797600, 798171, 798764, 799410, 800028, 800629, 801224, 801853, 802424, 802974, 803628, 804206, 804755, 805285, 805791, 806507, 807092, 807638, 808158, 808780, 809369, 809870]","[50, 48, 56, 78, 78, 69, 100, 112, 104, 107, 106, 105, 116, 111, 99, 101, 113, 114, 116, 112, 101, 119, 101]","[796859, 797457, 798060, 798664, 799248, 799852, 800514, 801061, 801703, 802297, 802859, 803468, 804018, 804627, 805161, 805703, 806304, 806971, 807515, 808058, 808583, 809239, 809767]","[796088, 796688, 797288, 797888, 798488, 799088, 799688, 800288, 800881, 801492, 802098, 802728, 803283, 803880, 804447, 805030, 805570, 806140, 806770, 807361, 807892, 808402, 809036, 809626]",62,OR,U,R,ITMSR,1.1
1,400,trial,0,29,29,29,trial,"['S', 'S', 'S', 'S', 'S', 'S', 'C', 'C', 'C', 'C', 'C', 'C', 'C', 'C', 'C', 'C', 'C', 'C', 'C', 'C', 'C', 'C']","[815824, 816206, 816624, 817043, 817457, 817879, 818301, 818695, 819104, 819529, 819910, 820310, 820716, 821114, 821493, 821932, 822331, 822745, 823110, 823529, 823965, 824378]","[815972, 816421, 816843, 817243, 817693, 818074, 818531, 818950, 819362, 819733, 820164, 820551, 820947, 821316, 821747, 822191, 822584, 822935, 823369, 823780, 824171, 824559]","[30, 2, 23, 26, 38, 55, 86, 90, 73, 70, 101, 102, 98, 85, 101, 113, 113, 101, 116, 120, 101, 97]","[815890, 816316, 816727, 817141, 817572, 817975, 818439, 818865, 819261, 819639, 820078, 820440, 820868, 821225, 821645, 822070, 822473, 822842, 823272, 823673, 824069, 824470]","[815078, 815478, 815878, 816278, 816678, 817078, 817478, 817879, 818321, 818715, 819124, 819549, 819930, 820330, 820737, 821134, 821513, 821952, 822351, 822765, 823130, 823549, 823985, 824398]",62,OR,U,R,ITMSR,1.1
2,400,trial,0,30,30,30,trial,"['S', 'S', 'S', 'S', 'S', 'S', 'S', 'S', 'C', 'C', 'C', 'C', 'C', 'C', 'C', 'C', 'C', 'C', 'C', 'C', 'C', 'C', 'C', 'C']","[835423, 835713, 836067, 836417, 836833, 837220, 837641, 838026, 838434, 838831, 839206, 839592, 840012, 840393, 840821, 841232, 841634, 842046, 842434, 842844, 843208, 843613, 844015, 844392]","[835548, 835864, 836212, 836587, 837037, 837419, 837832, 838203, 838622, 839000, 839420, 839822, 840203, 840628, 840989, 841417, 841854, 842230, 842641, 843026, 843438, 843797, 844176, 844594]","[190, 227, 40, 32, 79, 73, 23, 59, 61, 54, 69, 55, 104, 63, 37, 63, 90, 81, 46, 66, 107, 81, 35, 82]","[835492, 835802, 836149, 836521, 836961, 837330, 837756, 838137, 838555, 838923, 839327, 839727, 840111, 840500, 840913, 841340, 841757, 842133, 842537, 842942, 843346, 843709, 844097, 844519]","[835254, 835654, 836055, 836454, 836854, 837254, 837654, 838054, 838454, 838851, 839226, 839612, 840032, 840413, 840841, 841252, 841654, 842066, 842455, 842864, 843228, 843633, 844035, 844412]",62,OR,U,R,ITMSR,1.1
1,400,trial,0,31,31,31,trial,"['S', 'S', 'S', 'S', 'S', 'S', 'S', 'C', 'C', 'C', 'C', 'C', 'C', 'C', 'C', 'C', 'C', 'C', 'C', 'C', 'C', 'C', 'C']","[850146, 850492, 850936, 851348, 851773, 852182, 852554, 852960, 853364, 853764, 854141, 854530, 854942, 855324, 855713, 856096, 856514, 856869, 857259, 857646, 858029, 858425, 858792]","[850312, 850751, 851175, 851635, 851993, 852407, 852782, 853206, 853582, 853994, 854354, 854768, 855150, 855559, 855916, 856355, 856719, 857100, 857467, 857914, 858220, 858639, 858999]","[16, 49, 88, 93, 73, 52, 79, 72, 56, 31, 53, 75, 112, 79, 71, 109, 95, 92, 78, 109, 89, 86, 100]","[850237, 850641, 851078, 851550, 851883, 852320, 852681, 853099, 853479, 853858, 854261, 854679, 855064, 855439, 855829, 856263, 856622, 856995, 857376, 857820, 858123, 858531, 858907]","[849807, 850206, 850606, 851006, 851406, 851806, 852206, 852606, 852980, 853384, 853784, 854161, 854550, 854962, 855344, 855733, 856116, 856535, 856889, 857279, 857666, 858049, 858445, 858812]",62,OR,U,R,ITMSR,1.1
0,600,trial,0,32,32,32,trial,"['S', 'S', 'S', 'S', 'S', 'S', 'S', 'C', 'C', 'C', 'C', 'C', 'C', 'C', 'C', 'C', 'C', 'C', 'C', 'C', 'C', 'C', 'C']","[864685, 865265, 865855, 866472, 867107, 867753, 868356, 868970, 869549, 870113, 870715, 871314, 871836, 872446, 873081, 873719, 874296, 874928, 875559, 876145, 876706, 877287, 877898]","[864899, 865570, 866186, 866849, 867464, 868102, 868649, 869315, 869906, 870484, 871048, 871665, 872240, 872818, 873364, 874056, 874713, 875332, 875859, 876477, 877075, 877654]","[253, 36, 34, 85, 70, 69, 53, 87, 64, 86, 86, 110, 101, 109, 85, 81, 94, 65, 70, 98, 97, 97]","[864813, 865438, 866056, 866752, 867342, 868009, 868541, 869218, 869806, 870344, 870910, 871537, 872119, 872704, 873269, 873906, 874611, 875179, 875748, 876354, 876926, 877518]","[864153, 864753, 865353, 865953, 866553, 867153, 867753, 868354, 868990, 869569, 870133, 870735, 871334, 871856, 872466, 873101, 873739, 874316, 874948, 875579, 876165, 876726, 877307, 877918]",62,OR,U,R,ITMSR,1.1
2,400,trial,0,33,33,33,trial,"['S', 'S', 'S', 'S', 'S', 'S', 'S', 'S', 'C', 'C', 'C', 'C', 'C', 'C', 'C', 'C', 'C', 'C', 'C', 'C', 'C', 'C', 'C', 'C']","[883725, 884022, 884285, 884623, 885032, 885422, 885858, 886241, 886623, 887045, 887469, 887856, 888250, 888637, 889028, 889414, 889825, 890245, 890600, 891020, 891463, 891868, 892298, 892703]","[883860, 884157, 884466, 884824, 885241, 885646, 886079, 886430, 886860, 887267, 887703, 888088, 888501, 888841, 889251, 889664, 890090, 890443, 890846, 891269, 891711, 892096, 892531, 892906]","[212, 227, 250, 228, 45, 251, 251, 36, 62, 63, 65, 62, 73, 59, 54, 76, 104, 75, 79, 89, 97, 111, 88, 104]","[883796, 884088, 884374, 884708, 885153, 885508, 885963, 886341, 886777, 887179, 887611, 887999, 888399, 888745, 889145, 889592, 889999, 890343, 890729, 891183, 891619, 891972, 892425, 892817]","[883491, 883890, 884290, 884690, 885090, 885490, 885890, 886290, 886643, 887065, 887489, 887876, 888270, 888657, 889048, 889434, 889845, 890265, 890620, 891040, 891483, 891888, 892318, 892723]",62,OR,U,R,ITMSR,1.1
2,600,trial,0,34,34,34,trial,"['S', 'S', 'S', 'S', 'S', 'S', 'S', 'C', 'C', 'C', 'C', 'C', 'C', 'C', 'C', 'C', 'C', 'C', 'C', 'C', 'C', 'C', 'C']","[898911, 899468, 900078, 900708, 901269, 901877, 902490, 903081, 903680, 904235, 904862, 905390, 905977, 906598, 907194, 907789, 908387, 909000, 909588, 910210, 910823, 911403, 912049]","[899094, 899788, 900426, 901035, 901609, 902183, 902766, 903409, 903986, 904489, 905084, 905672, 906304, 906903, 907432, 908073, 908673, 909288, 909841, 910461, 911076, 911682, 912284]","[251, 43, 38, 81, 91, 48, 54, 96, 76, 49, 88, 109, 113, 126, 118, 128, 127, 112, 119, 132, 134, 120, 95]","[899018, 899678, 900322, 900924, 901484, 902061, 902663, 903292, 903872, 904400, 904987, 905559, 906195, 906768, 907344, 907984, 908566, 909164, 909745, 910348, 910961, 911576, 912201]","[898328, 898928, 899528, 900128, 900728, 901328, 901928, 902529, 903101, 903700, 904255, 904882, 905410, 905997, 906618, 907214, 907809, 908407, 909020, 909608, 910230, 910843, 911423, 912069]",62,OR,U,R,ITMSR,1.1
4,400,trial,0,35,35,35,trial,"['S', 'S', 'S', 'S', 'S', 'S', 'S', 'C', 'C', 'C', 'C', 'C', 'C', 'C', 'C', 'C', 'C', 'C', 'C', 'C', 'C', 'C', 'C']","[917964, 918363, 918759, 919198, 919591, 920010, 920402, 920820, 921254, 921665, 922082, 922470, 922883, 923310, 923702, 924130, 924564, 924969, 925372, 925827, 926269, 926673, 927073]","[918158, 918572, 919015, 919426, 919800, 920209, 920598, 921072, 921487, 921884, 922291, 922728, 923130, 923520, 923921, 924360, 924791, 925199, 925588, 926062, 926454, 926868, 927235]","[51, 58, 64, 46, 59, 52, 54, 89, 63, 77, 71, 103, 61, 74, 66, 96, 71, 53, 52, 68, 56, 49, 31]","[918073, 918452, 918905, 919305, 919713, 920112, 920509, 920964, 921392, 921785, 922202, 922631, 923027, 923436, 923835, 924280, 924696, 925074, 925517, 925945, 926372, 926785, 927165]","[917669, 918069, 918469, 918870, 919269, 919669, 920069, 920469, 920840, 921274, 921686, 922102, 922490, 922903, 923330, 923722, 924150, 924584, 924989, 925392, 925847, 926289, 926693, 927093]",62,OR,U,R,ITMSR,1.1
5,400,trial,0,36,36,36,trial,"['S', 'S', 'S', 'S', 'S', 'S', 'S', 'C', 'C', 'C', 'C', 'C', 'C', 'C', 'C', 'C', 'C', 'C', 'C', 'C', 'C', 'C', 'C']","[932914, 933272, 933681, 934076, 934481, 934877, 935265, 935643, 936043, 936464, 936870, 937257, 937639, 938044, 938439, 938851, 939260, 939679, 940091, 940498, 940886, 941277, 941680]","[933085, 933511, 933873, 934334, 934665, 935045, 935445, 935858, 936250, 936644, 937037, 937499, 937852, 938279, 938663, 939096, 939485, 939889, 940264, 940731, 941083, 941510, 941910]","[28, 37, 41, 69, 49, 49, 55, 61, 41, 22, 246, 78, 65, 77, 75, 98, 63, 65, 44, 88, 82, 70, 90]","[933000, 933421, 933784, 934238, 934588, 934965, 935368, 935753, 936142, 936555, 936968, 937395, 937745, 938183, 938558, 938994, 939380, 939785, 940175, 940626, 940986, 941386, 941797]","[932513, 932913, 933313, 933713, 934113, 934513, 934914, 935314, 935663, 936064, 936484, 936890, 937277, 937659, 938064, 938459, 938871, 939280, 939699, 940111, 940518, 940906, 941297, 941700]",62,OR,U,R,ITMSR,1.1
3,600,trial,0,37,37,37,trial,"['S', 'S', 'S', 'S', 'S', 'S', 'S', 'S', 'C', 'C', 'C', 'C', 'C', 'C', 'C', 'C', 'C', 'C', 'C', 'C', 'C', 'C', 'C', 'C']","[947365, 947649, 948264, 948917, 949494, 950105, 950697, 951282, 951905, 952519, 953148, 953734, 954342, 954928, 955589, 956179, 956724, 957344, 957957, 958567, 959133, 959726, 960369, 960989]","[947517, 947910, 948638, 949258, 949848, 950454, 951029, 951624, 952243, 952894, 953526, 954112, 954707, 955344, 955936, 956535, 957125, 957743, 958359, 958883, 959492, 960191, 960743]","[15, 77, 74, 74, 80, 54, 74, 74, 85, 82, 83, 92, 105, 111, 111, 112, 113, 120, 117, 110, 126, 127, 121]","[947457, 947819, 948524, 949124, 949709, 950325, 950910, 951511, 952107, 952777, 953425, 954008, 954598, 955212, 955831, 956423, 957009, 957602, 958260, 958776, 959370, 960052, 960637]","[947159, 947757, 948357, 948957, 949557, 950157, 950757, 951357, 951925, 952539, 953168, 953754, 954362, 954948, 955609, 956199, 956744, 957364, 957977, 958587, 959153, 959746, 960389, 961009]",62,OR,U,R,ITMSR,1.1
5,600,trial,0,38,38,38,trial,"['S', 'S', 'S', 'S', 'S', 'S', 'S', 'S', 'C', 'C', 'C', 'C', 'C', 'C', 'C', 'C', 'C', 'C', 'C', 'C', 'C', 'C', 'C', 'C']","[966808, 967096, 967743, 968360, 969028, 969610, 970177, 970744, 971316, 971948, 972547, 973104, 973737, 974352, 974949, 975542, 976148, 976799, 977470, 978054, 978613, 979207, 979740, 980312]","[966944, 967445, 968121, 968735, 969349, 969962, 970464, 971008, 971645, 972295, 972837, 973429, 974065, 974609, 975228, 975852, 976515, 977084, 977765, 978328, 978887, 979439, 980005]","[255, 84, 28, 41, 59, 73, 77, 108, 121, 125, 117, 113, 127, 116, 112, 117, 117, 110, 105, 105, 108, 97, 98]","[966880, 967330, 967746, 968365, 969236, 969821, 970340, 970893, 971493, 972150, 972711, 973293, 973902, 974491, 975110, 975722, 976362, 976956, 977645, 978217, 978762, 979334, 979912]","[966609, 967209, 967810, 968410, 969010, 969610, 970210, 970810, 971336, 971968, 972567, 973124, 973757, 974372, 974969, 975562, 976168, 976819, 977490, 978074, 978633, 979227, 979760, 980332]",62,OR,U,R,ITMSR,1.1
3,400,trial,0,39,39,39,trial,"['S', 'S', 'S', 'S', 'S', 'S', 'S', 'S', 'C', 'C', 'C', 'C', 'C', 'C', 'C', 'C', 'C', 'C', 'C', 'C', 'C', 'C', 'C', 'C']","[986124, 986442, 986752, 987084, 987490, 987899, 988303, 988703, 989146, 989510, 989924, 990332, 990748, 991162, 991562, 991971, 992347, 992763, 993155, 993565, 993957, 994370, 994776, 995177]","[986260, 986568, 986886, 987298, 987702, 988088, 988490, 988919, 989331, 989735, 990171, 990562, 990983, 991371, 991777, 992184, 992588, 992994, 993405, 993778, 994205, 994566, 995010, 995380]","[249, 21, 227, 245, 18, 15, 3, 250, 51, 55, 63, 74, 66, 47, 60, 69, 93, 88, 96, 95, 109, 96, 99, 98]","[986193, 986508, 986818, 987089, 987494, 987904, 988394, 988707, 989257, 989631, 990076, 990469, 990892, 991256, 991680, 992102, 992498, 992894, 993293, 993681, 994096, 994461, 994890, 995280]","[985947, 986347, 986747, 987147, 987547, 987948, 988347, 988747, 989166, 989530, 989944, 990352, 990768, 991182, 991582, 991991, 992367, 992783, 993175, 993585, 993977, 994391, 994796, 995197]",62,OR,U,R,ITMSR,1.1
0,400,trial,0,40,40,40,trial,"['S', 'S', 'S', 'S', 'S', 'S', 'S', 'S', 'C', 'C', 'C', 'C', 'C', 'C', 'C', 'C', 'C', 'C', 'C', 'C', 'C', 'C', 'C', 'C']","[1000922, 1001219, 1001497, 1001826, 1002234, 1002650, 1003054, 1003435, 1003866, 1004254, 1004650, 1005046, 1005471, 1005870, 1006227, 1006624, 1006997, 1007419, 1007819, 1008221, 1008593, 1009002, 1009396, 1009802]","[1001056, 1001349, 1001661, 1002036, 1002490, 1002839, 1003290, 1003654, 1004096, 1004470, 1004901, 1005284, 1005721, 1006068, 1006462, 1006842, 1007291, 1007639, 1008070, 1008448, 1008839, 1009234, 1009652, 1010033]","[228, 251, 26, 57, 85, 65, 81, 68, 95, 95, 75, 59, 113, 73, 79, 93, 109, 82, 86, 92, 105, 82, 106, 111]","[1000989, 1001288, 1001588, 1001946, 1002390, 1002752, 1003199, 1003543, 1003969, 1004370, 1004803, 1005187, 1005620, 1005975, 1006339, 1006765, 1007154, 1007549, 1007936, 1008344, 1008718, 1009120, 1009523, 1009930]","[1000678, 1001078, 1001478, 1001878, 1002278, 1002678, 1003078, 1003479, 1003886, 1004274, 1004670, 1005066, 1005491, 1005890, 1006247, 1006644, 1007017, 1007439, 1007839, 1008241, 1008613, 1009022, 1009416, 1009822]",62,OR,U,R,ITMSR,1.1
3,600,trial,0,41,41,41,trial,"['S', 'S', 'S', 'S', 'S', 'S', 'S', 'S', 'C', 'C', 'C', 'C', 'C', 'C', 'C', 'C', 'C', 'C', 'C', 'C', 'C', 'C', 'C', 'C']","[1015610, 1016061, 1016496, 1017110, 1017714, 1018296, 1018895, 1019376, 1020044, 1020607, 1021202, 1021762, 1022324, 1022935, 1023496, 1024037, 1024598, 1025210, 1025768, 1026314, 1026848, 1027500, 1028078, 1028643]","[1015762, 1016241, 1016819, 1017478, 1018068, 1018668, 1019165, 1019712, 1020347, 1020969, 1021497, 1022040, 1022646, 1023234, 1023733, 1024315, 1024905, 1025494, 1026042, 1026547, 1027143, 1027736, 1028295, 1028876]","[249, 53, 28, 70, 77, 99, 103, 121, 118, 120, 120, 105, 119, 124, 97, 119, 141, 138, 131, 79, 135, 136, 138, 129]","[1015682, 1016154, 1016500, 1017240, 1017969, 1018515, 1019048, 1019611, 1020209, 1020851, 1021392, 1021942, 1022514, 1023120, 1023647, 1024203, 1024805, 1025395, 1025935, 1026453, 1027033, 1027642, 1028198, 1028773]","[1015328, 1015928, 1016528, 1017128, 1017729, 1018328, 1018928, 1019528, 1020064, 1020627, 1021222, 1021783, 1022344, 1022955, 1023516, 1024057, 1024618, 1025230, 1025788, 1026334, 1026868, 1027520, 1028098, 1028663]",62,OR,U,R,ITMSR,1.1
1,600,trial,0,42,42,42,trial,"['S', 'S', 'S', 'S', 'S', 'S', 'S', 'S', 'C', 'C', 'C', 'C', 'C', 'C', 'C', 'C', 'C', 'C', 'C', 'C', 'C', 'C', 'C', 'C']","[1034438, 1034772, 1035309, 1035863, 1036476, 1037110, 1037683, 1038254, 1038848, 1039441, 1040028, 1040567, 1041188, 1041756, 1042349, 1042922, 1043521, 1044116, 1044722, 1045361, 1045950, 1046553, 1047146, 1047749]","[1034630, 1034989, 1035536, 1036156, 1036805, 1037408, 1037980, 1038563, 1039205, 1039806, 1040321, 1040915, 1041599, 1042142, 1042727, 1043252, 1043899, 1044496, 1045079, 1045731, 1046307, 1046888, 1047444]","[36, 101, 85, 75, 82, 90, 98, 115, 123, 111, 107, 102, 130, 131, 125, 127, 125, 128, 135, 137, 143, 115, 115]","[1034557, 1034854, 1035445, 1036054, 1036681, 1037290, 1037879, 1038446, 1039023, 1039649, 1040190, 1040764, 1041445, 1041976, 1042591, 1043125, 1043696, 1044358, 1044930, 1045575, 1046161, 1046768, 1047348]","[1034108, 1034708, 1035309, 1035909, 1036509, 1037109, 1037709, 1038309, 1038868, 1039461, 1040048, 1040587, 1041208, 1041776, 1042369, 1042942, 1043542, 1044136, 1044742, 1045381, 1045970, 1046573, 1047166, 1047769]",62,OR,U,R,ITMSR,1.1
3,400,trial,0,43,43,43,trial,"['S', 'S', 'S', 'S', 'S', 'S', 'S', 'S', 'C', 'C', 'C', 'C', 'C', 'C', 'C', 'C', 'C', 'C', 'C', 'C', 'C', 'C', 'C', 'C']","[1053334, 1053612, 1053940, 1054332, 1054738, 1055136, 1055556, 1055936, 1056357, 1056744, 1057140, 1057533, 1057953, 1058353, 1058726, 1059117, 1059556, 1059976, 1060359, 1060784, 1061152, 1061595, 1061975, 1062391]","[1053478, 1053766, 1054115, 1054512, 1054955, 1055369, 1055749, 1056132, 1056549, 1056953, 1057379, 1057765, 1058168, 1058545, 1058963, 1059377, 1059786, 1060174, 1060602, 1060980, 1061388, 1061779, 1062185, 1062580]","[239, 21, 38, 18, 57, 72, 43, 31, 80, 44, 29, 51, 59, 62, 45, 71, 93, 72, 86, 77, 126, 57, 73, 69]","[1053427, 1053702, 1054036, 1054337, 1054741, 1055139, 1055655, 1055941, 1056360, 1056851, 1057289, 1057675, 1058080, 1058460, 1058861, 1059287, 1059682, 1060082, 1060521, 1060898, 1061307, 1061675, 1062095, 1062493]","[1053169, 1053569, 1053968, 1054368, 1054768, 1055168, 1055568, 1055968, 1056377, 1056764, 1057160, 1057553, 1057973, 1058373, 1058746, 1059137, 1059576, 1059996, 1060379, 1060804, 1061172, 1061615, 1061995, 1062411]",62,OR,U,R,ITMSR,1.1
5,600,trial,0,44,44,44,trial,"['S', 'S', 'S', 'S', 'S', 'S', 'S', 'S', 'C', 'C', 'C', 'C', 'C', 'C', 'C', 'C', 'C', 'C', 'C', 'C', 'C', 'C', 'C', 'C']","[1067951, 1068235, 1068834, 1069499, 1070085, 1070687, 1071255, 1071894, 1072468, 1073039, 1073641, 1074272, 1074879, 1075504, 1076075, 1076664, 1077261, 1077946, 1078595, 1079157, 1079734, 1080345, 1080974, 1081598]","[1068105, 1068546, 1069180, 1069820, 1070449, 1071053, 1071641, 1072233, 1072859, 1073445, 1074021, 1074535, 1075230, 1075863, 1076453, 1077069, 1077658, 1078262, 1078968, 1079534, 1080118, 1080783, 1081347]","[36, 70, 36, 31, 37, 51, 70, 67, 72, 108, 111, 91, 117, 99, 77, 96, 108, 101, 108, 102, 119, 91, 115]","[1068045, 1068433, 1069036, 1069652, 1070336, 1070931, 1071494, 1072133, 1072700, 1073309, 1073867, 1074415, 1075046, 1075678, 1076284, 1076934, 1077470, 1078119, 1078823, 1079387, 1079953, 1080619, 1081210]","[1067716, 1068316, 1068916, 1069516, 1070116, 1070716, 1071316, 1071917, 1072488, 1073059, 1073661, 1074292, 1074899, 1075524, 1076096, 1076684, 1077281, 1077966, 1078616, 1079177, 1079754, 1080365, 1080994, 1081618]",62,OR,U,R,ITMSR,1.1
0,400,trial,0,45,45,45,trial,"['S', 'S', 'S', 'S', 'S', 'S', 'S', 'S', 'C', 'C', 'C', 'C', 'C', 'C', 'C', 'C', 'C', 'C', 'C', 'C', 'C', 'C', 'C', 'C']","[1087486, 1087774, 1088057, 1088385, 1088824, 1089236, 1089643, 1090024, 1090430, 1090820, 1091244, 1091657, 1092051, 1092435, 1092810, 1093223, 1093635, 1094066, 1094444, 1094866, 1095265, 1095632, 1096013, 1096436]","[1087621, 1087925, 1088205, 1088650, 1089018, 1089454, 1089821, 1090190, 1090644, 1091096, 1091418, 1091860, 1092312, 1092646, 1093054, 1093488, 1093885, 1094254, 1094676, 1095064, 1095478, 1095813, 1096225, 1096646]","[249, 31, 31, 44, 58, 56, 42, 220, 207, 247, 218, 8, 48, 32, 14, 48, 68, 56, 70, 45, 59, 25, 39, 48]","[1087559, 1087862, 1088062, 1088540, 1088828, 1089347, 1089736, 1090113, 1090545, 1090824, 1091340, 1091777, 1092214, 1092554, 1092972, 1093395, 1093808, 1094172, 1094587, 1094988, 1095394, 1095724, 1096155, 1096574]","[1087262, 1087662, 1088062, 1088462, 1088862, 1089262, 1089662, 1090062, 1090450, 1090840, 1091264, 1091677, 1092071, 1092455, 1092830, 1093243, 1093655, 1094086, 1094464, 1094886, 1095285, 1095652, 1096033, 1096456]",62,OR,U,R,ITMSR,1.1
4,600,trial,0,46,46,46,trial,"['S', 'S', 'S', 'S', 'S', 'S', 'S', 'S', 'C', 'C', 'C', 'C', 'C', 'C', 'C', 'C', 'C', 'C', 'C', 'C', 'C', 'C', 'C', 'C']","[1101966, 1102226, 1102829, 1103470, 1104112, 1104718, 1105276, 1105859, 1106493, 1107128, 1107691, 1108284, 1108867, 1109446, 1110100, 1110682, 1111247, 1111861, 1112519, 1113103, 1113647, 1114222, 1114842, 1115436]","[1102094, 1102475, 1103164, 1103768, 1104396, 1104950, 1105584, 1106193, 1106853, 1107497, 1108062, 1108659, 1109248, 1109891, 1110489, 1111068, 1111671, 1112324, 1112920, 1113468, 1114068, 1114650, 1115219]","[32, 44, 50, 12, 69, 78, 109, 108, 105, 112, 115, 120, 125, 123, 121, 124, 158, 159, 139, 150, 141, 149, 155]","[1102039, 1102374, 1102946, 1103622, 1104284, 1104850, 1105461, 1106065, 1106713, 1107338, 1107926, 1108540, 1109104, 1109736, 1110369, 1110959, 1111514, 1112144, 1112772, 1113352, 1113928, 1114467, 1115078]","[1101755, 1102354, 1102954, 1103554, 1104154, 1104754, 1105354, 1105954, 1106513, 1107148, 1107712, 1108304, 1108887, 1109466, 1110120, 1110702, 1111267, 1111881, 1112539, 1113123, 1113667, 1114242, 1114862, 1115456]",62,OR,U,R,ITMSR,1.1
4,400,trial,0,47,47,47,trial,"['S', 'S', 'S', 'S', 'S', 'S', 'S', 'S', 'C', 'C', 'C', 'C', 'C', 'C', 'C', 'C', 'C', 'C', 'C', 'C', 'C', 'C', 'C', 'C']","[1120967, 1121253, 1121595, 1121956, 1122397, 1122772, 1123148, 1123535, 1123938, 1124350, 1124784, 1125207, 1125652, 1126056, 1126468, 1126856, 1127314, 1127704, 1128137, 1128571, 1128983, 1129392, 1129807, 1130269]","[1121082, 1121431, 1121745, 1122198, 1122619, 1122974, 1123391, 1123796, 1124214, 1124637, 1125039, 1125485, 1125928, 1126332, 1126686, 1127078, 1127574, 1127981, 1128417, 1128819, 1129238, 1129606, 1130084, 1130534]","[0, 42, 255, 33, 124, 107, 122, 126, 132, 135, 119, 123, 164, 144, 128, 115, 138, 106, 138, 127, 152, 115, 149, 119]","[1121028, 1121368, 1121600, 1122091, 1122509, 1122902, 1123298, 1123686, 1124075, 1124499, 1124919, 1125391, 1125817, 1126206, 1126578, 1126984, 1127444, 1127852, 1128294, 1128713, 1129116, 1129511, 1129956, 1130441]","[1120815, 1121215, 1121615, 1122015, 1122415, 1122816, 1123215, 1123615, 1123958, 1124370, 1124804, 1125227, 1125672, 1126076, 1126488, 1126876, 1127334, 1127725, 1128157, 1128591, 1129004, 1129412, 1129827, 1130289]",62,OR,U,R,ITMSR,1.1
5,400,trial,0,48,48,48,trial,"['S', 'S', 'S', 'S', 'S', 'S', 'S', 'S', 'C', 'C', 'C', 'C', 'C', 'C', 'C', 'C', 'C', 'C', 'C', 'C', 'C', 'C', 'C', 'C']","[1135891, 1136183, 1136436, 1136793, 1137195, 1137604, 1138032, 1138432, 1138804, 1139224, 1139643, 1140063, 1140476, 1140861, 1141299, 1141706, 1142160, 1142553, 1143021, 1143421, 1143815, 1144223, 1144677, 1145075]","[1136050, 1136309, 1136647, 1137004, 1137460, 1137900, 1138238, 1138640, 1139088, 1139489, 1139907, 1140304, 1140715, 1141186, 1141533, 1141988, 1142404, 1142890, 1143212, 1143659, 1144059, 1144517, 1144915, 1145276]","[14, 55, 83, 113, 128, 130, 110, 111, 133, 125, 120, 112, 141, 137, 134, 136, 146, 135, 123, 118, 121, 131, 120, 102]","[1135980, 1136243, 1136529, 1136916, 1137350, 1137766, 1138138, 1138555, 1138931, 1139365, 1139796, 1140200, 1140616, 1141058, 1141415, 1141859, 1142284, 1142772, 1143107, 1143548, 1143938, 1144378, 1144804, 1145197]","[1135655, 1136055, 1136455, 1136856, 1137256, 1137656, 1138056, 1138456, 1138824, 1139245, 1139663, 1140083, 1140496, 1140881, 1141319, 1141726, 1142180, 1142573, 1143042, 1143441, 1143835, 1144243, 1144697, 1145095]",62,OR,U,R,ITMSR,1.1
1,600,trial,0,49,49,49,trial,"['S', 'S', 'S', 'S', 'S', 'S', 'S', 'S', 'C', 'C', 'C', 'C', 'C', 'C', 'C', 'C', 'C', 'C', 'C', 'C', 'C', 'C', 'C', 'C']","[1150784, 1151055, 1151759, 1152379, 1153045, 1153598, 1154075, 1154658, 1155241, 1155833, 1156442, 1156953, 1157545, 1158142, 1158734, 1159353, 1159957, 1160520, 1161067, 1161662, 1162240, 1162815, 1163437, 1164001]","[1150915, 1151384, 1152088, 1152714, 1153306, 1153896, 1154410, 1154989, 1155618, 1156196, 1156718, 1157299, 1157952, 1158537, 1159154, 1159698, 1160321, 1160897, 1161425, 1161967, 1162597, 1163196, 1163830]","[181, 87, 107, 102, 31, 101, 95, 95, 85, 109, 109, 102, 118, 123, 130, 135, 140, 127, 133, 125, 136, 143, 138]","[1150857, 1151295, 1151959, 1152580, 1153199, 1153802, 1154295, 1154876, 1155439, 1156082, 1156627, 1157201, 1157811, 1158396, 1158999, 1159584, 1160148, 1160738, 1161318, 1161835, 1162462, 1163066, 1163641]","[1150612, 1151212, 1151812, 1152412, 1153012, 1153612, 1154212, 1154812, 1155261, 1155853, 1156462, 1156973, 1157565, 1158162, 1158754, 1159373, 1159977, 1160540, 1161088, 1161682, 1162260, 1162835, 1163457, 1164021]",62,OR,U,R,ITMSR,1.1
1,400,trial,0,50,50,50,trial,"['S', 'S', 'S', 'S', 'S', 'S', 'S', 'S', 'C', 'C', 'C', 'C', 'C', 'C', 'C', 'C', 'C', 'C', 'C', 'C', 'C', 'C', 'C', 'C']","[1169903, 1170231, 1170489, 1170869, 1171260, 1171668, 1172079, 1172491, 1172858, 1173288, 1173701, 1174105, 1174523, 1174915, 1175310, 1175762, 1176143, 1176554, 1176963, 1177314, 1177752, 1178182, 1178561, 1178999]","[1170081, 1170378, 1170634, 1171048, 1171495, 1171851, 1172260, 1172625, 1173056, 1173469, 1173935, 1174307, 1174769, 1175101, 1175514, 1175971, 1176410, 1176782, 1177142, 1177584, 1178029, 1178400, 1178869, 1179265]","[3, 43, 51, 29, 246, 196, 217, 209, 232, 249, 47, 13, 60, 22, 69, 71, 105, 75, 61, 92, 97, 73, 110, 106]","[1170006, 1170311, 1170562, 1170873, 1171390, 1171762, 1172083, 1172561, 1172975, 1173382, 1173816, 1174228, 1174684, 1175013, 1175407, 1175866, 1176299, 1176674, 1177068, 1177463, 1177914, 1178307, 1178738, 1179151]","[1169696, 1170096, 1170496, 1170896, 1171296, 1171696, 1172097, 1172496, 1172878, 1173308, 1173721, 1174125, 1174543, 1174935, 1175330, 1175782, 1176163, 1176574, 1176983, 1177334, 1177773, 1178202, 1178582, 1179019]",62,OR,U,R,ITMSR,1.1
4,600,trial,0,51,51,51,trial,"['S', 'S', 'S', 'S', 'S', 'S', 'S', 'S', 'C', 'C', 'C', 'C', 'C', 'C', 'C', 'C', 'C', 'C', 'C', 'C', 'C', 'C', 'C', 'C']","[1184673, 1184961, 1185607, 1186174, 1186694, 1187287, 1187913, 1188528, 1189195, 1189798, 1190350, 1190992, 1191570, 1192150, 1192754, 1193312, 1193885, 1194445, 1194985, 1195512, 1196136, 1196681, 1197244, 1197829]","[1184816, 1185328, 1185913, 1186492, 1187059, 1187749, 1188328, 1188913, 1189595, 1190159, 1190752, 1191310, 1191898, 1192499, 1193057, 1193645, 1194205, 1194736, 1195287, 1195908, 1196497, 1197036, 1197598]","[235, 37, 83, 93, 51, 49, 40, 35, 9, 27, 39, 59, 80, 94, 45, 73, 94, 77, 105, 110, 109, 122, 127]","[1184677, 1185182, 1185802, 1186364, 1186919, 1187588, 1188245, 1188790, 1189475, 1190045, 1190611, 1191202, 1191756, 1192346, 1192924, 1193533, 1194092, 1194630, 1195170, 1195724, 1196386, 1196895, 1197454]","[1184458, 1185058, 1185658, 1186258, 1186859, 1187458, 1188058, 1188658, 1189215, 1189818, 1190370, 1191012, 1191590, 1192170, 1192774, 1193332, 1193905, 1194465, 1195005, 1195532, 1196156, 1196701, 1197264, 1197849]",62,OR,U,R,ITMSR,1.1
0,600,trial,0,52,52,52,trial,"['S', 'S', 'S', 'S', 'S', 'S', 'S', 'S', 'C', 'C', 'C', 'C', 'C', 'C', 'C', 'C', 'C', 'C', 'C', 'C', 'C', 'C', 'C', 'C']","[1203528, 1203803, 1204457, 1205130, 1205712, 1206300, 1206966, 1207480, 1208088, 1208740, 1209335, 1209888, 1210482, 1211106, 1211625, 1212205, 1212816, 1213434, 1214036, 1214610, 1215218, 1215843, 1216415, 1217017]","[1203639, 1204245, 1204893, 1205460, 1206002, 1206640, 1207271, 1207826, 1208520, 1209082, 1209619, 1210286, 1210932, 1211459, 1212048, 1212632, 1213220, 1213779, 1214407, 1215054, 1215670, 1216254, 1216826]","[93, 247, 244, 44, 69, 87, 92, 93, 93, 95, 90, 115, 121, 119, 114, 120, 126, 126, 125, 116, 139, 130, 133]","[1203534, 1204040, 1204791, 1205324, 1205886, 1206506, 1207149, 1207705, 1208357, 1208951, 1209519, 1210164, 1210761, 1211331, 1211901, 1212491, 1213074, 1213637, 1214270, 1214939, 1215531, 1216097, 1216614]","[1203345, 1203945, 1204545, 1205145, 1205745, 1206345, 1206945, 1207545, 1208109, 1208760, 1209355, 1209908, 1210502, 1211126, 1211645, 1212225, 1212836, 1213454, 1214056, 1214630, 1215238, 1215863, 1216435, 1217037]",62,OR,U,R,ITMSR,1.1
2,600,trial,0,53,53,53,trial,"['S', 'S', 'S', 'S', 'S', 'S', 'S', 'S', 'C', 'C', 'C', 'C', 'C', 'C', 'C', 'C', 'C', 'C', 'C', 'C', 'C', 'C', 'C', 'C']","[1222854, 1223161, 1223774, 1224352, 1225037, 1225583, 1226177, 1226736, 1227386, 1227973, 1228550, 1229179, 1229763, 1230339, 1230927, 1231565, 1232140, 1232771, 1233303, 1233951, 1234542, 1235103, 1235732, 1236284]","[1222999, 1223519, 1224110, 1224780, 1225380, 1225909, 1226515, 1227136, 1227757, 1228365, 1228937, 1229547, 1230158, 1230761, 1231332, 1231925, 1232537, 1233117, 1233701, 1234270, 1234887, 1235538, 1236079]","[213, 12, 18, 41, 40, 65, 32, 58, 82, 72, 72, 54, 67, 56, 43, 37, 73, 76, 72, 73, 98, 104, 95]","[1222932, 1223407, 1223973, 1224623, 1225248, 1225793, 1226351, 1226989, 1227629, 1228233, 1228777, 1229447, 1230028, 1230643, 1231203, 1231820, 1232409, 1232997, 1233566, 1234128, 1234755, 1235421, 1235977]","[1222629, 1223229, 1223829, 1224429, 1225029, 1225629, 1226229, 1226829, 1227406, 1227993, 1228570, 1229199, 1229784, 1230359, 1230947, 1231585, 1232160, 1232791, 1233324, 1233971, 1234562, 1235123, 1235752, 1236304]",62,OR,U,R,ITMSR,1.1
2,600,trial,0,54,54,54,trial,"['S', 'S', 'S', 'S', 'S', 'S', 'S', 'S', 'C', 'C', 'C', 'C', 'C', 'C', 'C', 'C', 'C', 'C', 'C', 'C', 'C', 'C', 'C', 'C']","[1244475, 1244794, 1245441, 1246051, 1246626, 1247265, 1247859, 1248454, 1249040, 1249641, 1250229, 1250791, 1251378, 1251991, 1252588, 1253200, 1253805, 1254411, 1254977, 1255600, 1256230, 1256775, 1257364, 1257940]","[1244627, 1245194, 1245729, 1246373, 1246914, 1247591, 1248180, 1248755, 1249399, 1250018, 1250533, 1251107, 1251732, 1252338, 1252926, 1253548, 1254170, 1254758, 1255326, 1255919, 1256522, 1257121, 1257725]","[204, 38, 111, 71, 74, 73, 68, 77, 117, 112, 110, 113, 138, 137, 136, 127, 138, 139, 127, 143, 135, 126, 133]","[1244554, 1245023, 1245609, 1246242, 1246797, 1247455, 1248062, 1248659, 1249276, 1249890, 1250427, 1251006, 1251591, 1252193, 1252809, 1253407, 1254001, 1254620, 1255156, 1255797, 1256390, 1256994, 1257595]","[1244292, 1244891, 1245491, 1246091, 1246691, 1247291, 1247891, 1248491, 1249060, 1249661, 1250249, 1250811, 1251398, 1252012, 1252609, 1253220, 1253825, 1254431, 1254998, 1255620, 1256250, 1256795, 1257384, 1257960]",62,OR,U,R,ITMSR,1.1
0,400,trial,0,55,55,55,trial,"['S', 'S', 'S', 'S', 'S', 'S', 'S', 'S', 'C', 'C', 'C', 'C', 'C', 'C', 'C', 'C', 'C', 'C', 'C', 'C', 'C', 'C', 'C', 'C']","[1263686, 1263970, 1264251, 1264609, 1265027, 1265405, 1265828, 1266242, 1266651, 1267052, 1267428, 1267842, 1268202, 1268619, 1269022, 1269446, 1269861, 1270277, 1270653, 1271057, 1271487, 1271869, 1272307, 1272669]","[1263834, 1264128, 1264423, 1264847, 1265189, 1265682, 1266107, 1266461, 1266864, 1267262, 1267598, 1268048, 1268439, 1268853, 1269297, 1269712, 1270139, 1270521, 1270919, 1271349, 1271718, 1272124, 1272534]","[194, 20, 38, 18, 241, 47, 46, 43, 42, 52, 17, 46, 34, 4, 3, 36, 46, 16, 27, 27, 13, 30, 22]","[1263765, 1264053, 1264347, 1264721, 1265112, 1265583, 1266015, 1266360, 1266765, 1267055, 1267513, 1267846, 1268206, 1268722, 1269183, 1269623, 1270024, 1270422, 1270810, 1271197, 1271610, 1272027, 1272433]","[1263472, 1263873, 1264272, 1264672, 1265072, 1265472, 1265872, 1266272, 1266671, 1267073, 1267448, 1267862, 1268222, 1268639, 1269042, 1269466, 1269881, 1270297, 1270673, 1271077, 1271507, 1271889, 1272327, 1272689]",62,OR,U,R,ITMSR,1.1
2,600,trial,0,56,56,56,trial,"['S', 'S', 'S', 'S', 'S', 'S', 'S', 'S', 'C', 'C', 'C', 'C', 'C', 'C', 'C', 'C', 'C', 'C', 'C', 'C', 'C', 'C', 'C', 'C']","[1278297, 1278597, 1279235, 1279873, 1280494, 1281105, 1281705, 1282309, 1282918, 1283512, 1284105, 1284720, 1285334, 1285928, 1286489, 1287092, 1287655, 1288269, 1288872, 1289497, 1290068, 1290660, 1291239, 1291810]","[1278436, 1278989, 1279594, 1280216, 1280857, 1281404, 1282020, 1282649, 1283319, 1283880, 1284450, 1285023, 1285701, 1286296, 1286886, 1287404, 1288017, 1288641, 1289201, 1289760, 1290412, 1291024, 1291569]","[237, 43, 11, 245, 229, 9, 214, 7, 13, 15, 13, 252, 244, 44, 33, 33, 66, 75, 66, 54, 85, 81, 71]","[1278376, 1278862, 1279401, 1280115, 1280776, 1281308, 1281931, 1282536, 1283167, 1283760, 1284328, 1284907, 1285593, 1286214, 1286757, 1287285, 1287895, 1288502, 1289068, 1289658, 1290300, 1290920, 1291424]","[1278149, 1278749, 1279349, 1279949, 1280549, 1281149, 1281750, 1282349, 1282938, 1283532, 1284125, 1284740, 1285354, 1285948, 1286509, 1287112, 1287675, 1288289, 1288892, 1289517, 1290088, 1290680, 1291259, 1291830]",62,OR,U,R,ITMSR,1.1
5,600,trial,0,57,57,57,trial,"['S', 'S', 'S', 'S', 'S', 'S', 'S', 'S', 'C', 'C', 'C', 'C', 'C', 'C', 'C', 'C', 'C', 'C', 'C', 'C', 'C', 'C', 'C', 'C']","[1297435, 1297751, 1298326, 1298907, 1299490, 1300091, 1300680, 1301339, 1301927, 1302499, 1303103, 1303734, 1304302, 1304904, 1305495, 1306128, 1306695, 1307238, 1307811, 1308388, 1308938, 1309476, 1310014, 1310608]","[1297620, 1298032, 1298640, 1299295, 1299852, 1300448, 1301076, 1301729, 1302345, 1302903, 1303516, 1304026, 1304672, 1305247, 1305755, 1306372, 1307037, 1307602, 1308130, 1308654, 1309256, 1309768, 1310411]","[33, 59, 59, 71, 86, 77, 36, 43, 53, 55, 68, 48, 57, 65, 99, 79, 82, 88, 69, 64, 32, 51, 73]","[1297548, 1297931, 1298525, 1299169, 1299712, 1300278, 1300887, 1301613, 1302211, 1302752, 1303364, 1303895, 1304561, 1305141, 1305634, 1306268, 1306942, 1307452, 1308001, 1308542, 1309147, 1309676, 1310272]","[1297159, 1297758, 1298358, 1298958, 1299558, 1300158, 1300758, 1301358, 1301947, 1302519, 1303123, 1303754, 1304322, 1304924, 1305516, 1306148, 1306715, 1307258, 1307831, 1308408, 1308958, 1309496, 1310034, 1310628]",62,OR,U,R,ITMSR,1.1
1,600,trial,0,58,58,58,trial,"['S', 'S', 'S', 'S', 'S', 'S', 'S', 'S', 'C', 'C', 'C', 'C', 'C', 'C', 'C', 'C', 'C', 'C', 'C', 'C', 'C', 'C', 'C', 'C']","[1316432, 1316719, 1317309, 1317934, 1318557, 1319121, 1319674, 1320246, 1320837, 1321484, 1322100, 1322724, 1323314, 1323920, 1324502, 1325070, 1325637, 1326193, 1326785, 1327418, 1328009, 1328587, 1329125, 1329713]","[1316559, 1317085, 1317696, 1318330, 1318916, 1319501, 1320048, 1320642, 1321256, 1321840, 1322414, 1323037, 1323671, 1324316, 1324845, 1325407, 1325984, 1326600, 1327204, 1327781, 1328357, 1328957, 1329531]","[134, 248, 9, 249, 5, 50, 17, 17, 12, 245, 220, 214, 244, 13, 255, 26, 21, 43, 9, 46, 230, 30, 40]","[1316501, 1316957, 1317590, 1318223, 1318804, 1319397, 1319930, 1320521, 1321124, 1321730, 1322267, 1322931, 1323546, 1324208, 1324721, 1325301, 1325869, 1326467, 1327043, 1327679, 1328264, 1328862, 1329400]","[1316202, 1316801, 1317401, 1318001, 1318601, 1319201, 1319801, 1320401, 1320857, 1321504, 1322120, 1322744, 1323334, 1323940, 1324522, 1325090, 1325657, 1326213, 1326806, 1327438, 1328029, 1328607, 1329145, 1329733]",62,OR,U,R,ITMSR,1.1
2,400,trial,0,59,59,59,trial,"['S', 'S', 'S', 'S', 'S', 'S', 'S', 'S', 'C', 'C', 'C', 'C', 'C', 'C', 'C', 'C', 'C', 'C', 'C', 'C', 'C', 'C', 'C', 'C']","[1335663, 1335944, 1336257, 1336633, 1337034, 1337408, 1337789, 1338179, 1338602, 1339016, 1339447, 1339845, 1340260, 1340685, 1341111, 1341496, 1341895, 1342301, 1342707, 1343123, 1343484, 1343902, 1344344, 1344794]","[1335775, 1336097, 1336446, 1336846, 1337226, 1337623, 1338036, 1338408, 1338883, 1339244, 1339638, 1340070, 1340505, 1340873, 1341276, 1341680, 1342108, 1342510, 1342927, 1343337, 1343773, 1344145, 1344588, 1344984]","[213, 140, 142, 153, 153, 191, 247, 215, 237, 246, 245, 237, 11, 253, 249, 214, 237, 249, 243, 250, 10, 249, 215, 223]","[1335729, 1336040, 1336363, 1336756, 1337155, 1337542, 1337958, 1338331, 1338748, 1339166, 1339554, 1339987, 1340418, 1340794, 1341209, 1341616, 1342026, 1342430, 1342830, 1343261, 1343691, 1344030, 1344487, 1344902]","[1335484, 1335883, 1336283, 1336683, 1337083, 1337483, 1337883, 1338284, 1338622, 1339036, 1339467, 1339865, 1340280, 1340705, 1341131, 1341516, 1341915, 1342321, 1342727, 1343143, 1343504, 1343922, 1344364, 1344814]",62,OR,U,R,ITMSR,1.1
3,600,trial,0,60,60,60,trial,"['S', 'S', 'S', 'S', 'S', 'S', 'S', 'S', 'C', 'C', 'C', 'C', 'C', 'C', 'C', 'C', 'C', 'C', 'C', 'C', 'C', 'C', 'C', 'C']","[1350376, 1350650, 1351249, 1351915, 1352529, 1353103, 1353719, 1354314, 1354970, 1355569, 1356132, 1356721, 1357324, 1357927, 1358495, 1359056, 1359670, 1360257, 1360838, 1361417, 1361970, 1362562, 1363118, 1363692]","[1350483, 1350940, 1351609, 1352249, 1352836, 1353439, 1354022, 1354648, 1355330, 1355925, 1356509, 1357115, 1357705, 1358275, 1358836, 1359438, 1360055, 1360634, 1361171, 1361813, 1362367, 1362947, 1363472]","[72, 185, 164, 182, 40, 213, 246, 202, 130, 56, 70, 153, 190, 216, 6, 12, 243, 2, 216, 225, 238, 255, 209]","[1350383, 1350827, 1351490, 1351920, 1352641, 1353107, 1353722, 1354319, 1354975, 1355843, 1356414, 1356726, 1357585, 1358172, 1358722, 1359275, 1359929, 1360513, 1361047, 1361691, 1362249, 1362822, 1363349]","[1350165, 1350765, 1351365, 1351965, 1352565, 1353165, 1353765, 1354365, 1354990, 1355589, 1356152, 1356741, 1357344, 1357947, 1358515, 1359076, 1359690, 1360277, 1360858, 1361437, 1361990, 1362582, 1363138, 1363713]",62,OR,U,R,ITMSR,1.1
1,400,trial,0,61,61,61,trial,"['S', 'S', 'S', 'S', 'S', 'S', 'S', 'S', 'C', 'C', 'C', 'C', 'C', 'C', 'C', 'C', 'C', 'C', 'C', 'C', 'C', 'C', 'C', 'C']","[1369609, 1369871, 1370164, 1370535, 1370933, 1371325, 1371726, 1372141, 1372526, 1372937, 1373360, 1373763, 1374199, 1374596, 1375017, 1375408, 1375852, 1376278, 1376657, 1377086, 1377494, 1377911, 1378334, 1378696]","[1369709, 1370014, 1370324, 1370724, 1371155, 1371563, 1371982, 1372355, 1372779, 1373124, 1373558, 1373979, 1374418, 1374787, 1375197, 1375635, 1376050, 1376439, 1376899, 1377280, 1377764, 1378127, 1378494, 1378899]","[91, 192, 169, 225, 1, 231, 166, 229, 223, 235, 28, 216, 251, 200, 236, 192, 23, 194, 220, 246, 1, 216, 252, 21]","[1369616, 1369876, 1370170, 1370540, 1370938, 1371329, 1371731, 1372145, 1372530, 1372941, 1373364, 1373897, 1374203, 1374601, 1375021, 1375535, 1375856, 1376366, 1376661, 1377091, 1377498, 1377916, 1378339, 1378700]","[1369392, 1369792, 1370192, 1370592, 1370992, 1371393, 1371792, 1372192, 1372546, 1372957, 1373380, 1373784, 1374219, 1374616, 1375037, 1375428, 1375873, 1376299, 1376677, 1377106, 1377514, 1377931, 1378354, 1378716]",62,OR,U,R,ITMSR,1.1
4,600,trial,0,62,62,62,trial,"['S', 'S', 'S', 'S', 'S', 'S', 'S', 'S', 'C', 'C', 'C', 'C', 'C', 'C', 'C', 'C', 'C', 'C', 'C', 'C', 'C', 'C', 'C', 'C']","[1384253, 1384511, 1385170, 1385794, 1386397, 1387005, 1387604, 1388209, 1388826, 1389419, 1390024, 1390610, 1391215, 1391811, 1392398, 1393004, 1393604, 1394212, 1394819, 1395448, 1396040, 1396619, 1397176, 1397775]","[1384374, 1384880, 1385566, 1386145, 1386750, 1387351, 1387949, 1388560, 1389224, 1389832, 1390399, 1390973, 1391628, 1392209, 1392820, 1393437, 1394036, 1394611, 1395264, 1395823, 1396456, 1397009, 1397613]","[99, 213, 216, 244, 3, 16, 64, 60, 57, 68, 74, 46, 70, 82, 94, 90, 92, 93, 94, 91, 100, 112, 106]","[1384323, 1384516, 1385176, 1386037, 1386627, 1387225, 1387827, 1388460, 1389076, 1389689, 1390244, 1390850, 1391508, 1392075, 1392684, 1393269, 1393906, 1394457, 1395121, 1395707, 1396337, 1396876, 1397465]","[1384083, 1384682, 1385282, 1385882, 1386482, 1387082, 1387682, 1388282, 1388846, 1389440, 1390044, 1390630, 1391235, 1391832, 1392418, 1393025, 1393624, 1394232, 1394839, 1395468, 1396060, 1396639, 1397196, 1397795]",62,OR,U,R,ITMSR,1.1
3,400,trial,0,63,63,63,trial,"['S', 'S', 'S', 'S', 'S', 'S', 'S', 'S', 'C', 'C', 'C', 'C', 'C', 'C', 'C', 'C', 'C', 'C', 'C', 'C', 'C', 'C', 'C', 'C']","[1403440, 1403760, 1404028, 1404408, 1404811, 1405193, 1405560, 1405923, 1406336, 1406747, 1407183, 1407561, 1407974, 1408365, 1408763, 1409158, 1409564, 1409944, 1410368, 1410785, 1411166, 1411601, 1411986, 1412378]","[1403617, 1403901, 1404240, 1404620, 1405021, 1405381, 1405751, 1406141, 1406588, 1406982, 1407405, 1407793, 1408181, 1408582, 1408964, 1409358, 1409784, 1410212, 1410591, 1410992, 1411425, 1411838, 1412221]","[247, 19, 54, 50, 40, 14, 12, 19, 30, 40, 41, 58, 36, 52, 237, 4, 55, 41, 40, 43, 43, 54, 45]","[1403445, 1403833, 1404137, 1404533, 1404937, 1405294, 1405673, 1406065, 1406477, 1406889, 1407314, 1407693, 1408079, 1408486, 1408867, 1409265, 1409691, 1410114, 1410500, 1410899, 1411319, 1411725, 1412112]","[1403270, 1403669, 1404069, 1404469, 1404869, 1405270, 1405669, 1406069, 1406356, 1406767, 1407203, 1407581, 1407994, 1408386, 1408783, 1409178, 1409584, 1409965, 1410388, 1410805, 1411186, 1411621, 1412006, 1412398]",62,OR,U,R,ITMSR,1.1
5,600,trial,0,64,64,64,trial,"['S', 'S', 'S', 'S', 'S', 'S', 'S', 'S', 'C', 'C', 'C', 'C', 'C', 'C', 'C', 'C', 'C', 'C', 'C', 'C', 'C', 'C', 'C', 'C']","[1417905, 1418156, 1418813, 1419485, 1420104, 1420697, 1421265, 1421838, 1422485, 1423063, 1423671, 1424238, 1424821, 1425366, 1425981, 1426486, 1427085, 1427672, 1428254, 1428815, 1429414, 1429954, 1430526, 1431126]","[1418019, 1418465, 1419144, 1419806, 1420426, 1420975, 1421587, 1422210, 1422860, 1423480, 1424043, 1424630, 1425147, 1425762, 1426288, 1426882, 1427501, 1428057, 1428613, 1429224, 1429758, 1430340, 1430897]","[160, 61, 16, 20, 44, 50, 96, 91, 69, 95, 92, 88, 58, 91, 109, 110, 121, 128, 125, 133, 122, 89, 93]","[1417965, 1418373, 1418977, 1419694, 1420291, 1420863, 1421465, 1422071, 1422683, 1423302, 1423897, 1424490, 1424994, 1425631, 1426173, 1426768, 1427359, 1427903, 1428493, 1429072, 1429600, 1430153, 1430761]","[1417764, 1418364, 1418964, 1419565, 1420165, 1420765, 1421365, 1421965, 1422505, 1423083, 1423691, 1424258, 1424841, 1425386, 1426001, 1426506, 1427105, 1427692, 1428274, 1428835, 1429434, 1429975, 1430546, 1431146]",62,OR,U,R,ITMSR,1.1
3,600,trial,0,65,65,65,trial,"['B', 'S', 'S', 'S', 'S', 'S', 'S', 'S', 'S', 'C', 'C', 'C', 'C', 'C', 'C', 'C', 'C', 'C', 'C', 'C', 'C', 'C', 'C', 'C', 'C']","[1436719, 1436987, 1437290, 1437841, 1438420, 1438976, 1439610, 1440243, 1440813, 1441416, 1442009, 1442580, 1443133, 1443697, 1444294, 1444822, 1445381, 1445957, 1446556, 1447133, 1447718, 1448283, 1448827, 1449400, 1449980]","[1436788, 1437164, 1437648, 1438191, 1438787, 1439390, 1440086, 1440623, 1441209, 1441818, 1442403, 1442910, 1443465, 1444040, 1444636, 1445204, 1445787, 1446355, 1446948, 1447514, 1448103, 1448637, 1449192, 1449778]","[19, 35, 107, 97, 83, 98, 82, 100, 85, 89, 95, 101, 106, 103, 110, 103, 104, 106, 105, 112, 113, 115, 107, 110]","[1436719, 1437112, 1437477, 1438070, 1438651, 1439260, 1439873, 1440520, 1441086, 1441694, 1442284, 1442788, 1443335, 1443920, 1444517, 1445072, 1445657, 1446236, 1446798, 1447355, 1447962, 1448513, 1449049, 1449654]","[1436730, 1437330, 1437930, 1438530, 1439130, 1439730, 1440330, 1440930, 1441436, 1442029, 1442600, 1443153, 1443717, 1444314, 1444842, 1445401, 1445977, 1446576, 1447153, 1447738, 1448303, 1448847, 1449420, 1450000]",62,OR,U,R,ITMSR,1.1
4,400,trial,0,66,66,66,trial,"['S', 'S', 'S', 'S', 'S', 'S', 'S', 'S', 'C', 'C', 'C', 'C', 'C', 'C', 'C', 'C', 'C', 'C', 'C', 'C', 'C', 'C', 'C', 'C']","[1455595, 1455877, 1456129, 1456519, 1456965, 1457353, 1457770, 1458180, 1458564, 1459002, 1459410, 1459820, 1460230, 1460638, 1461030, 1461468, 1461882, 1462328, 1462766, 1463141, 1463587, 1464025, 1464443, 1464978]","[1455718, 1455996, 1456342, 1456798, 1457181, 1457594, 1458024, 1458406, 1458830, 1459257, 1459659, 1460064, 1460480, 1460868, 1461291, 1461720, 1462173, 1462549, 1462937, 1463394, 1463864, 1464256, 1464670, 1465179]","[69, 149, 236, 220, 134, 219, 35, 92, 116, 115, 99, 93, 86, 105, 99, 109, 95, 105, 77, 105, 98, 101, 39, 35]","[1455655, 1455939, 1456232, 1456523, 1456969, 1457519, 1457936, 1458314, 1458716, 1459142, 1459563, 1459973, 1460385, 1460758, 1461173, 1461622, 1462070, 1462444, 1462858, 1463315, 1463739, 1464154, 1464569, 1465085]","[1455384, 1455783, 1456183, 1456583, 1456984, 1457384, 1457784, 1458184, 1458584, 1459022, 1459430, 1459841, 1460250, 1460658, 1461050, 1461488, 1461902, 1462348, 1462786, 1463161, 1463607, 1464045, 1464463, 1464998]",62,OR,U,R,ITMSR,1.1
4,400,trial,0,67,67,67,trial,"['S', 'S', 'S', 'S', 'S', 'S', 'S', 'S', 'C', 'C', 'C', 'C', 'C', 'C', 'C', 'C', 'C', 'C', 'C', 'C', 'C', 'C', 'C', 'C']","[1470912, 1471184, 1471479, 1471812, 1472243, 1472633, 1473034, 1473418, 1473832, 1474228, 1474595, 1474998, 1475448, 1475840, 1476262, 1476649, 1477054, 1477475, 1477872, 1478310, 1478672, 1479105, 1479524, 1479903]","[1471051, 1471330, 1471648, 1472039, 1472485, 1472892, 1473271, 1473677, 1474083, 1474420, 1474851, 1475274, 1475676, 1476129, 1476465, 1476909, 1477332, 1477694, 1478136, 1478517, 1478962, 1479349, 1479767]","[214, 0, 63, 70, 120, 111, 92, 109, 83, 73, 125, 125, 122, 121, 59, 94, 107, 105, 98, 106, 112, 121, 130]","[1470989, 1471260, 1471572, 1471939, 1472380, 1472785, 1473167, 1473555, 1473970, 1474331, 1474767, 1475151, 1475570, 1476002, 1476372, 1476811, 1477199, 1477593, 1478016, 1478429, 1478849, 1479239, 1479656]","[1470702, 1471102, 1471502, 1471902, 1472302, 1472702, 1473102, 1473502, 1473852, 1474248, 1474615, 1475018, 1475468, 1475860, 1476282, 1476669, 1477074, 1477495, 1477892, 1478330, 1478692, 1479126, 1479544, 1479923]",62,OR,U,R,ITMSR,1.1
0,400,trial,0,68,68,68,trial,"['S', 'S', 'S', 'S', 'S', 'S', 'S', 'S', 'C', 'C', 'C', 'C', 'C', 'C', 'C', 'C', 'C', 'C', 'C', 'C', 'C', 'C', 'C', 'C']","[1485637, 1485914, 1486211, 1486554, 1486960, 1487398, 1487749, 1488137, 1488563, 1489002, 1489363, 1489762, 1490167, 1490566, 1490989, 1491354, 1491761, 1492137, 1492541, 1492925, 1493357, 1493760, 1494136, 1494571]","[1485746, 1486047, 1486379, 1486763, 1487222, 1487579, 1487988, 1488437, 1488847, 1489244, 1489659, 1490037, 1490432, 1490847, 1491208, 1491642, 1492015, 1492391, 1492771, 1493225, 1493621, 1493999, 1494426]","[253, 19, 248, 45, 109, 78, 91, 127, 113, 125, 128, 123, 135, 128, 116, 116, 126, 118, 113, 120, 128, 118, 128]","[1485641, 1485918, 1486216, 1486689, 1487126, 1487504, 1487896, 1488318, 1488719, 1489145, 1489539, 1489917, 1490333, 1490722, 1491116, 1491543, 1491895, 1492269, 1492653, 1493110, 1493494, 1493871, 1494296]","[1485416, 1485816, 1486216, 1486616, 1487016, 1487416, 1487816, 1488216, 1488583, 1489022, 1489383, 1489782, 1490187, 1490586, 1491009, 1491374, 1491781, 1492157, 1492561, 1492945, 1493378, 1493780, 1494156, 1494591]",62,OR,U,R,ITMSR,1.1
5,400,trial,0,69,69,69,trial,"['S', 'S', 'S', 'S', 'S', 'S', 'S', 'S', 'C', 'C', 'C', 'C', 'C', 'C', 'C', 'C', 'C', 'C', 'C', 'C', 'C', 'C', 'C', 'C']","[1500219, 1500470, 1500839, 1501180, 1501581, 1501982, 1502404, 1502820, 1503244, 1503638, 1504034, 1504397, 1504801, 1505214, 1505664, 1505995, 1506407, 1506803, 1507186, 1507603, 1508027, 1508349, 1508777, 1509163]","[1500338, 1500669, 1501044, 1501420, 1501826, 1502225, 1502624, 1503073, 1503486, 1503854, 1504275, 1504666, 1505081, 1505438, 1505832, 1506273, 1506694, 1507044, 1507482, 1507828, 1508218, 1508603, 1509008, 1509409]","[113, 228, 229, 37, 73, 83, 65, 70, 92, 68, 78, 90, 120, 105, 89, 83, 115, 96, 111, 84, 89, 91, 95, 84]","[1500273, 1500578, 1500942, 1501306, 1501746, 1502129, 1502523, 1502968, 1503383, 1503751, 1504176, 1504565, 1504979, 1505332, 1505746, 1506179, 1506554, 1506917, 1507354, 1507718, 1508119, 1508482, 1508874, 1509291]","[1500079, 1500479, 1500879, 1501279, 1501679, 1502080, 1502479, 1502879, 1503264, 1503659, 1504054, 1504417, 1504821, 1505234, 1505684, 1506015, 1506427, 1506823, 1507206, 1507623, 1508047, 1508369, 1508797, 1509183]",62,OR,U,R,ITMSR,1.1
0,600,trial,0,70,70,70,trial,"['S', 'S', 'S', 'S', 'S', 'S', 'S', 'S', 'C', 'C', 'C', 'C', 'C', 'C', 'C', 'C', 'C', 'C', 'C', 'C', 'C', 'C', 'C', 'C']","[1514927, 1515217, 1515850, 1516400, 1517000, 1517588, 1518174, 1518781, 1519442, 1520036, 1520611, 1521127, 1521713, 1522278, 1522861, 1523402, 1523954, 1524488, 1525067, 1525643, 1526204, 1526709, 1527287, 1527867]","[1515070, 1515559, 1516148, 1516736, 1517347, 1517986, 1518568, 1519188, 1519788, 1520404, 1520948, 1521502, 1522141, 1522698, 1523245, 1523787, 1524318, 1524885, 1525476, 1526033, 1526576, 1527129, 1527719]","[107, 71, 60, 73, 80, 113, 131, 143, 132, 135, 134, 115, 139, 132, 137, 127, 148, 130, 143, 121, 153, 133, 149]","[1515009, 1515440, 1516013, 1516618, 1517209, 1517869, 1518441, 1519059, 1519663, 1520284, 1520800, 1521359, 1522012, 1522515, 1523086, 1523650, 1524192, 1524724, 1525301, 1525880, 1526431, 1526978, 1527567]","[1514692, 1515292, 1515892, 1516492, 1517092, 1517692, 1518292, 1518893, 1519462, 1520056, 1520631, 1521147, 1521733, 1522298, 1522881, 1523422, 1523974, 1524508, 1525087, 1525663, 1526224, 1526729, 1527307, 1527887]",62,OR,U,R,ITMSR,1.1
1,600,trial,0,71,71,71,trial,"['S', 'S', 'S', 'S', 'S', 'S', 'S', 'S', 'C', 'C', 'C', 'C', 'C', 'C', 'C', 'C', 'C', 'C', 'C', 'C', 'C', 'C', 'C', 'C']","[1533425, 1533710, 1534355, 1534954, 1535590, 1536158, 1536793, 1537415, 1537964, 1538593, 1539175, 1539772, 1540311, 1540864, 1541440, 1541999, 1542538, 1543098, 1543677, 1544252, 1544779, 1545363, 1545897, 1546459]","[1533587, 1534083, 1534718, 1535373, 1535935, 1536547, 1537146, 1537794, 1538379, 1538988, 1539537, 1540105, 1540677, 1541258, 1541760, 1542333, 1542912, 1543537, 1544065, 1544565, 1545194, 1545782, 1546285]","[69, 147, 107, 124, 131, 129, 100, 73, 56, 110, 84, 94, 121, 124, 106, 124, 121, 139, 131, 119, 125, 124, 123]","[1533508, 1533960, 1534582, 1535218, 1535788, 1536412, 1537017, 1537650, 1538278, 1538856, 1539430, 1540004, 1540542, 1541112, 1541629, 1542231, 1542773, 1543385, 1543910, 1544439, 1545015, 1545618, 1546132]","[1533223, 1533824, 1534424, 1535024, 1535624, 1536224, 1536824, 1537424, 1537984, 1538613, 1539195, 1539792, 1540331, 1540884, 1541460, 1542019, 1542558, 1543118, 1543697, 1544272, 1544799, 1545383, 1545917, 1546479]",62,OR,U,R,ITMSR,1.1
0,600,trial,0,72,72,72,trial,"['S', 'S', 'S', 'S', 'S', 'S', 'S', 'S', 'C', 'C', 'C', 'C', 'C', 'C', 'C', 'C', 'C', 'C', 'C', 'C', 'C', 'C', 'C', 'C']","[1552515, 1552954, 1553303, 1553774, 1554447, 1555016, 1555563, 1556124, 1556793, 1557367, 1557945, 1558479, 1559027, 1559560, 1560135, 1560679, 1561190, 1561730, 1562243, 1562743, 1563218, 1563732, 1564269, 1564800]","[1552734, 1553154, 1553576, 1554112, 1554830, 1555401, 1555952, 1556518, 1557135, 1557712, 1558280, 1558873, 1559414, 1559993, 1560478, 1561056, 1561593, 1562101, 1562593, 1563055, 1563598, 1564115, 1564633]","[109, 89, 130, 132, 115, 138, 137, 123, 120, 123, 87, 112, 119, 134, 112, 128, 103, 120, 118, 143, 139, 155, 139]","[1552635, 1553074, 1553449, 1553972, 1554721, 1555287, 1555804, 1556380, 1557005, 1557568, 1558141, 1558711, 1559291, 1559840, 1560325, 1560910, 1561457, 1561937, 1562436, 1562915, 1563465, 1563960, 1564489]","[1552097, 1552697, 1553297, 1553897, 1554497, 1555097, 1555697, 1556297, 1556813, 1557387, 1557965, 1558499, 1559047, 1559580, 1560155, 1560699, 1561210, 1561750, 1562263, 1562763, 1563238, 1563752, 1564290, 1564820]",62,OR,U,R,ITMSR,1.1
1,400,trial,0,73,73,73,trial,"['B', 'S', 'S', 'S', 'S', 'S', 'S', 'S', 'C', 'C', 'C', 'C', 'C', 'C', 'C', 'C', 'C', 'C', 'C', 'C', 'C', 'C', 'C', 'C']","[1570282, 1570642, 1571078, 1571434, 1571850, 1572251, 1572669, 1573048, 1573525, 1573906, 1574315, 1574703, 1575099, 1575493, 1575899, 1576331, 1576698, 1577097, 1577529, 1577954, 1578294, 1578727, 1579079, 1579516]","[1570468, 1570914, 1571259, 1571666, 1572091, 1572487, 1572891, 1573294, 1573718, 1574182, 1574566, 1574968, 1575373, 1575742, 1576118, 1576522, 1576952, 1577407, 1577737, 1578150, 1578602, 1578919, 1579363]","[11, 27, 33, 31, 47, 73, 68, 28, 32, 48, 37, 39, 61, 56, 56, 51, 59, 69, 65, 58, 83, 51, 87]","[1570298, 1570836, 1571186, 1571572, 1572000, 1572377, 1572805, 1573206, 1573635, 1574076, 1574461, 1574864, 1575284, 1575646, 1576004, 1576419, 1576844, 1577294, 1577646, 1578052, 1578506, 1578830, 1579257]","[1570293, 1570693, 1571093, 1571493, 1571893, 1572293, 1572694, 1573093, 1573545, 1573926, 1574335, 1574723, 1575119, 1575513, 1575919, 1576351, 1576718, 1577117, 1577549, 1577974, 1578314, 1578747, 1579099, 1579536]",62,OR,U,R,ITMSR,1.1
5,400,trial,0,74,74,74,trial,"['S', 'S', 'S', 'S', 'S', 'S', 'S', 'S', 'C', 'C', 'C', 'C', 'C', 'C', 'C', 'C', 'C', 'C', 'C', 'C', 'C', 'C', 'C', 'C']","[1585099, 1585390, 1585649, 1586059, 1586487, 1586882, 1587245, 1587618, 1588081, 1588448, 1588872, 1589231, 1589638, 1590059, 1590461, 1590824, 1591227, 1591617, 1592045, 1592471, 1592836, 1593276, 1593588, 1594025]","[1585252, 1585522, 1585853, 1586285, 1586674, 1587069, 1587469, 1587879, 1588342, 1588680, 1589060, 1589493, 1589936, 1590284, 1590695, 1591110, 1591511, 1591914, 1592298, 1592719, 1593162, 1593460, 1593879, 1594250]","[12, 8, 74, 25, 1, 29, 19, 6, 50, 56, 44, 73, 95, 57, 59, 64, 82, 88, 65, 59, 107, 68, 88, 64]","[1585192, 1585461, 1585760, 1586196, 1586490, 1586977, 1587378, 1587775, 1588249, 1588568, 1588970, 1589393, 1589834, 1590162, 1590585, 1591008, 1591402, 1591792, 1592200, 1592627, 1593067, 1593371, 1593766, 1594146]","[1584959, 1585359, 1585759, 1586159, 1586560, 1586959, 1587359, 1587759, 1588101, 1588468, 1588892, 1589251, 1589658, 1590079, 1590481, 1590844, 1591247, 1591638, 1592066, 1592492, 1592856, 1593296, 1593608, 1594045]",62,OR,U,R,ITMSR,1.1
2,400,trial,0,75,75,75,trial,"['S', 'S', 'S', 'S', 'S', 'S', 'S', 'S', 'C', 'C', 'C', 'C', 'C', 'C', 'C', 'C', 'C', 'C', 'C', 'C', 'C', 'C', 'C', 'C']","[1599750, 1600014, 1600339, 1600722, 1601106, 1601469, 1601880, 1602297, 1602701, 1603102, 1603512, 1603899, 1604258, 1604648, 1605017, 1605420, 1605839, 1606253, 1606657, 1607077, 1607469, 1607845, 1608259, 1608624]","[1599864, 1600180, 1600543, 1600943, 1601328, 1601698, 1602146, 1602544, 1602950, 1603355, 1603739, 1604101, 1604506, 1604849, 1605260, 1605688, 1606076, 1606495, 1606900, 1607297, 1607710, 1608069, 1608483]","[244, 31, 53, 43, 52, 87, 92, 103, 118, 115, 99, 91, 116, 112, 105, 117, 130, 123, 104, 121, 135, 134, 116]","[1599808, 1600106, 1600435, 1600858, 1601235, 1601612, 1602054, 1602450, 1602860, 1603239, 1603633, 1604022, 1604415, 1604754, 1605158, 1605582, 1605977, 1606374, 1606810, 1607204, 1607603, 1607959, 1608376]","[1599587, 1599987, 1600387, 1600787, 1601187, 1601587, 1601987, 1602387, 1602721, 1603122, 1603532, 1603919, 1604278, 1604668, 1605037, 1605440, 1605859, 1606274, 1606677, 1607097, 1607489, 1607865, 1608280, 1608644]",62,OR,U,R,ITMSR,1.1
4,600,trial,0,76,76,76,trial,"['S', 'S', 'S', 'S', 'S', 'S', 'S', 'S', 'C', 'C', 'C', 'C', 'C', 'C', 'C', 'C', 'C', 'C', 'C', 'C', 'C', 'C', 'C', 'C']","[1614303, 1614581, 1615190, 1615831, 1616435, 1616988, 1617608, 1618217, 1618903, 1619495, 1620064, 1620641, 1621198, 1621735, 1622299, 1622845, 1623346, 1623905, 1624493, 1625085, 1625631, 1626267, 1626859, 1627485]","[1614471, 1614870, 1615589, 1616179, 1616782, 1617361, 1617956, 1618560, 1619245, 1619833, 1620419, 1620978, 1621574, 1622149, 1622654, 1623179, 1623759, 1624323, 1624898, 1625443, 1626052, 1626612, 1627268]","[84, 145, 127, 139, 159, 151, 153, 155, 162, 154, 158, 141, 152, 151, 140, 139, 162, 162, 166, 151, 156, 156, 160]","[1614400, 1614758, 1615439, 1616030, 1616616, 1617211, 1617817, 1618429, 1619076, 1619659, 1620256, 1620809, 1621423, 1621991, 1622501, 1623060, 1623601, 1624188, 1624736, 1625295, 1625873, 1626452, 1627060]","[1614151, 1614751, 1615351, 1615951, 1616551, 1617152, 1617752, 1618352, 1618923, 1619515, 1620084, 1620661, 1621218, 1621755, 1622319, 1622865, 1623366, 1623925, 1624513, 1625105, 1625651, 1626287, 1626880, 1627505]",62,OR,U,R,ITMSR,1.1
3,400,trial,0,77,77,77,trial,"['S', 'S', 'S', 'S', 'S', 'S', 'S', 'C', 'C', 'C', 'C', 'C', 'C', 'C', 'C', 'C', 'C', 'C', 'C', 'C', 'C', 'C', 'C']","[1633408, 1633716, 1634130, 1634576, 1634952, 1635343, 1635755, 1636140, 1636547, 1636995, 1637359, 1637789, 1638240, 1638665, 1639085, 1639523, 1639966, 1640375, 1640803, 1641212, 1641669, 1642120, 1642514]","[1633586, 1633973, 1634350, 1634791, 1635207, 1635613, 1635993, 1636430, 1636836, 1637238, 1637676, 1638099, 1638498, 1638949, 1639391, 1639814, 1640235, 1640667, 1641083, 1641501, 1641932, 1642375, 1642778]","[92, 117, 116, 128, 140, 145, 140, 163, 151, 153, 155, 161, 158, 152, 157, 158, 155, 159, 152, 149, 144, 145, 136]","[1633508, 1633845, 1634252, 1634691, 1635105, 1635510, 1635875, 1636292, 1636689, 1637127, 1637558, 1637965, 1638385, 1638827, 1639271, 1639680, 1640112, 1640517, 1640949, 1641373, 1641799, 1642250, 1642664]","[1633032, 1633432, 1633832, 1634232, 1634632, 1635032, 1635432, 1635832, 1636160, 1636568, 1637015, 1637379, 1637809, 1638260, 1638685, 1639105, 1639543, 1639986, 1640395, 1640823, 1641232, 1641689, 1642140, 1642534]",62,OR,U,R,ITMSR,1.1
4,600,trial,0,78,78,78,trial,"['S', 'S', 'S', 'S', 'S', 'S', 'S', 'S', 'C', 'C', 'C', 'C', 'C', 'C', 'C', 'C', 'C', 'C', 'C', 'C', 'C', 'C', 'C', 'C']","[1650065, 1650329, 1650929, 1651562, 1652235, 1652801, 1653400, 1654000, 1654665, 1655240, 1655811, 1656395, 1656979, 1657524, 1658093, 1658696, 1659238, 1659876, 1660436, 1660991, 1661602, 1662155, 1662729, 1663312]","[1650192, 1650583, 1651279, 1651945, 1652566, 1653135, 1653746, 1654350, 1655004, 1655621, 1656214, 1656743, 1657349, 1657932, 1658471, 1659063, 1659661, 1660200, 1660830, 1661402, 1661992, 1662585, 1663142]","[231, 53, 87, 115, 79, 97, 93, 74, 55, 72, 109, 108, 133, 125, 131, 124, 138, 140, 131, 145, 138, 145, 149]","[1650138, 1650516, 1651153, 1651793, 1652410, 1652982, 1653605, 1654212, 1654861, 1655506, 1656087, 1656628, 1657209, 1657784, 1658328, 1658929, 1659497, 1660076, 1660696, 1661234, 1661845, 1662431, 1662993]","[1649904, 1650504, 1651104, 1651704, 1652304, 1652904, 1653505, 1654104, 1654685, 1655260, 1655831, 1656415, 1656999, 1657544, 1658114, 1658716, 1659258, 1659896, 1660456, 1661011, 1661622, 1662175, 1662749, 1663332]",62,OR,U,R,ITMSR,1.1
1,400,trial,0,79,79,79,trial,"['S', 'S', 'S', 'S', 'S', 'S', 'S', 'S', 'C', 'C', 'C', 'C', 'C', 'C', 'C', 'C', 'C', 'C', 'C', 'C', 'C', 'C', 'C', 'C']","[1669319, 1669583, 1669903, 1670306, 1670710, 1671092, 1671525, 1671928, 1672341, 1672716, 1673126, 1673533, 1673953, 1674341, 1674787, 1675194, 1675645, 1676044, 1676512, 1676922, 1677334, 1677707, 1678140, 1678545]","[1669443, 1669757, 1670075, 1670467, 1670891, 1671298, 1671714, 1672136, 1672548, 1672982, 1673369, 1673776, 1674194, 1674574, 1675032, 1675504, 1675891, 1676329, 1676710, 1677133, 1677542, 1678007, 1678338, 1678794]","[238, 16, 27, 19, 52, 63, 64, 84, 88, 95, 86, 98, 90, 90, 72, 76, 102, 77, 105, 107, 78, 87, 63, 85]","[1669387, 1669685, 1669998, 1670388, 1670804, 1671206, 1671529, 1671931, 1672459, 1672893, 1673268, 1673667, 1674088, 1674449, 1674790, 1675381, 1675825, 1676137, 1676515, 1677040, 1677453, 1677916, 1678222, 1678690]","[1669128, 1669527, 1669927, 1670327, 1670727, 1671128, 1671528, 1671928, 1672361, 1672736, 1673146, 1673553, 1673973, 1674361, 1674807, 1675214, 1675665, 1676064, 1676532, 1676942, 1677355, 1677727, 1678160, 1678565]",62,OR,U,R,ITMSR,1.1
1,400,trial,0,80,80,80,trial,"['S', 'S', 'S', 'S', 'S', 'S', 'S', 'S', 'C', 'C', 'C', 'C', 'C', 'C', 'C', 'C', 'C', 'C', 'C', 'C', 'C', 'C', 'C', 'C']","[1684459, 1684751, 1685040, 1685426, 1685829, 1686211, 1686612, 1687002, 1687390, 1687776, 1688153, 1688550, 1688943, 1689329, 1689725, 1690096, 1690470, 1690884, 1691190, 1691582, 1691970, 1692358, 1692761, 1693197]","[1684609, 1684923, 1685231, 1685630, 1686055, 1686436, 1686864, 1687213, 1687627, 1687983, 1688397, 1688792, 1689200, 1689512, 1689986, 1690311, 1690750, 1691025, 1691454, 1691824, 1692219, 1692610, 1693035, 1693420]","[5, 46, 59, 37, 51, 84, 57, 65, 77, 77, 99, 100, 107, 77, 99, 92, 124, 73, 103, 102, 121, 98, 111, 82]","[1684464, 1684849, 1685136, 1685534, 1685952, 1686350, 1686767, 1687116, 1687530, 1687885, 1688294, 1688683, 1689101, 1689415, 1689857, 1690200, 1690645, 1690948, 1691356, 1691725, 1692133, 1692484, 1692923, 1693324]","[1684303, 1684702, 1685102, 1685502, 1685902, 1686302, 1686702, 1687102, 1687410, 1687796, 1688173, 1688570, 1688963, 1689349, 1689745, 1690116, 1690490, 1690904, 1691210, 1691602, 1691991, 1692378, 1692781, 1693217]",62,OR,U,R,ITMSR,1.1
2,600,trial,0,81,81,81,trial,"['S', 'S', 'S', 'S', 'S', 'S', 'S', 'S', 'C', 'C', 'C', 'C', 'C', 'C', 'C', 'C', 'C', 'C', 'C', 'C', 'C', 'C', 'C', 'C']","[1698880, 1699168, 1699851, 1700434, 1701015, 1701682, 1702237, 1702859, 1703414, 1703981, 1704549, 1705080, 1705678, 1706255, 1706835, 1707464, 1707990, 1708557, 1709168, 1709746, 1710290, 1710854, 1711412, 1711959]","[1699048, 1699599, 1700248, 1700804, 1701377, 1702037, 1702598, 1703166, 1703775, 1704331, 1704841, 1705394, 1706095, 1706685, 1707271, 1707829, 1708414, 1708998, 1709591, 1710139, 1710713, 1711264, 1711806]","[46, 84, 75, 96, 118, 105, 92, 75, 80, 95, 98, 112, 114, 122, 123, 124, 119, 124, 114, 121, 126, 124, 121]","[1698968, 1699401, 1700088, 1700677, 1701228, 1701890, 1702454, 1703064, 1703628, 1704194, 1704728, 1705283, 1705862, 1706519, 1707120, 1707683, 1708252, 1708840, 1709434, 1709984, 1710547, 1711108, 1711655]","[1698676, 1699276, 1699876, 1700476, 1701076, 1701677, 1702277, 1702877, 1703434, 1704001, 1704569, 1705100, 1705698, 1706275, 1706855, 1707484, 1708010, 1708577, 1709188, 1709766, 1710310, 1710874, 1711432, 1711979]",62,OR,U,R,ITMSR,1.1
4,600,trial,0,82,82,82,trial,"['S', 'S', 'S', 'S', 'S', 'S', 'S', 'S', 'C', 'C', 'C', 'C', 'C', 'C', 'C', 'C', 'C', 'C', 'C', 'C', 'C', 'C', 'C', 'C']","[1717820, 1718108, 1718752, 1719379, 1720002, 1720596, 1721208, 1721800, 1722379, 1722993, 1723601, 1724183, 1724754, 1725278, 1725878, 1726483, 1727082, 1727679, 1728313, 1728941, 1729496, 1730132, 1730751, 1731342]","[1717962, 1718456, 1719139, 1719763, 1720326, 1721013, 1721644, 1722215, 1722824, 1723415, 1724018, 1724593, 1725145, 1725728, 1726277, 1726849, 1727476, 1728138, 1728704, 1729350, 1729960, 1730590, 1731186]","[63, 107, 91, 106, 120, 105, 100, 123, 112, 132, 105, 123, 117, 138, 110, 134, 129, 130, 126, 123, 123, 126, 120]","[1717889, 1718332, 1719011, 1719623, 1720160, 1720846, 1721425, 1722059, 1722663, 1723247, 1723844, 1724421, 1725015, 1725602, 1726129, 1726726, 1727303, 1727944, 1728532, 1729204, 1729751, 1730421, 1731010]","[1717659, 1718258, 1718858, 1719458, 1720058, 1720658, 1721259, 1721858, 1722399, 1723013, 1723621, 1724204, 1724774, 1725298, 1725898, 1726503, 1727102, 1727699, 1728333, 1728961, 1729516, 1730152, 1730771, 1731362]",62,OR,U,R,ITMSR,1.1
0,600,trial,0,83,83,83,trial,"['S', 'S', 'S', 'S', 'S', 'S', 'S', 'S', 'C', 'C', 'C', 'C', 'C', 'C', 'C', 'C', 'C', 'C', 'C', 'C', 'C', 'C', 'C', 'C']","[1737383, 1737713, 1738291, 1738849, 1739408, 1739967, 1740542, 1741224, 1741839, 1742412, 1742970, 1743543, 1744124, 1744694, 1745267, 1745840, 1746387, 1746950, 1747535, 1748137, 1748858, 1749429, 1749937, 1750489]","[1737563, 1738102, 1738629, 1739196, 1739746, 1740340, 1740951, 1741569, 1742211, 1742796, 1743387, 1743909, 1744447, 1745116, 1745629, 1746160, 1746765, 1747354, 1747907, 1748493, 1749234, 1749837, 1750375]","[26, 122, 129, 126, 114, 116, 125, 105, 120, 126, 123, 135, 139, 140, 132, 131, 145, 143, 131, 143, 137, 149, 130]","[1737473, 1737973, 1738489, 1739053, 1739619, 1740223, 1740810, 1741433, 1742062, 1742658, 1743232, 1743742, 1744312, 1744930, 1745486, 1746025, 1746599, 1747211, 1747763, 1748344, 1749037, 1749681, 1750219]","[1737147, 1737747, 1738347, 1738947, 1739547, 1740147, 1740747, 1741347, 1741859, 1742432, 1742990, 1743563, 1744144, 1744714, 1745287, 1745860, 1746407, 1746970, 1747555, 1748157, 1748878, 1749449, 1749957, 1750509]",62,OR,U,R,ITMSR,1.1
3,400,trial,0,84,84,84,trial,"['S', 'S', 'S', 'S', 'S', 'S', 'S', 'S', 'C', 'C', 'C', 'C', 'C', 'C', 'C', 'C', 'C', 'C', 'C', 'C', 'C', 'C', 'C', 'C']","[1756476, 1756763, 1757043, 1757391, 1757786, 1758215, 1758612, 1759011, 1759420, 1759838, 1760235, 1760646, 1761031, 1761447, 1761840, 1762246, 1762604, 1763014, 1763406, 1763799, 1764212, 1764618, 1765031, 1765447]","[1756627, 1756919, 1757220, 1757597, 1758015, 1758468, 1758841, 1759251, 1759656, 1760098, 1760512, 1760887, 1761314, 1761709, 1762139, 1762458, 1762883, 1763264, 1763662, 1764056, 1764492, 1764898, 1765314, 1765685]","[35, 42, 50, 61, 53, 59, 89, 93, 95, 91, 108, 109, 115, 108, 98, 105, 127, 121, 119, 129, 139, 128, 124, 111]","[1756559, 1756856, 1757128, 1757395, 1757931, 1758410, 1758720, 1759156, 1759558, 1759990, 1760401, 1760784, 1761210, 1761604, 1761990, 1762362, 1762782, 1763147, 1763557, 1763964, 1764397, 1764772, 1765192, 1765573]","[1756293, 1756692, 1757092, 1757492, 1757892, 1758292, 1758692, 1759092, 1759440, 1759858, 1760256, 1760666, 1761051, 1761467, 1761860, 1762266, 1762624, 1763034, 1763426, 1763819, 1764232, 1764638, 1765051, 1765467]",62,OR,U,R,ITMSR,1.1
4,400,trial,0,85,85,85,trial,"['S', 'S', 'S', 'S', 'S', 'S', 'S', 'S', 'C', 'C', 'C', 'C', 'C', 'C', 'C', 'C', 'C', 'C', 'C', 'C', 'C', 'C', 'C', 'C']","[1771305, 1771582, 1771922, 1772301, 1772679, 1773103, 1773498, 1773886, 1774279, 1774678, 1775102, 1775503, 1775934, 1776314, 1776726, 1777158, 1777560, 1777956, 1778350, 1778737, 1779167, 1779593, 1779980, 1780389]","[1771449, 1771772, 1772141, 1772524, 1772951, 1773340, 1773744, 1774141, 1774556, 1774957, 1775355, 1775740, 1776178, 1776598, 1776984, 1777374, 1777827, 1778210, 1778626, 1779013, 1779461, 1779834, 1780256, 1780657]","[61, 82, 86, 95, 114, 117, 122, 129, 134, 141, 128, 121, 135, 136, 136, 129, 137, 135, 133, 130, 140, 130, 133, 139]","[1771385, 1771685, 1772015, 1772427, 1772839, 1773237, 1773643, 1774036, 1774440, 1774833, 1775256, 1775637, 1776079, 1776498, 1776880, 1777273, 1777716, 1778109, 1778496, 1778868, 1779342, 1779710, 1780136, 1780539]","[1771160, 1771560, 1771960, 1772360, 1772760, 1773160, 1773560, 1773960, 1774299, 1774698, 1775122, 1775523, 1775954, 1776334, 1776746, 1777178, 1777581, 1777976, 1778370, 1778757, 1779187, 1779613, 1780000, 1780409]",62,OR,U,R,ITMSR,1.1
4,400,trial,0,86,86,86,trial,"['S', 'S', 'S', 'S', 'S', 'S', 'S', 'S', 'C', 'C', 'C', 'C', 'C', 'C', 'C', 'C', 'C', 'C', 'C', 'C', 'C', 'C', 'C', 'C']","[1786102, 1786382, 1786680, 1787084, 1787495, 1787886, 1788271, 1788695, 1789140, 1789537, 1789953, 1790316, 1790726, 1791141, 1791562, 1791974, 1792388, 1792795, 1793259, 1793693, 1794098, 1794483, 1794879, 1795270]","[1786254, 1786563, 1786927, 1787345, 1787745, 1788119, 1788557, 1788992, 1789405, 1789775, 1790186, 1790581, 1791002, 1791347, 1791748, 1792172, 1792657, 1793063, 1793485, 1793873, 1794360, 1794690, 1795134, 1795531]","[60, 66, 123, 117, 119, 116, 113, 133, 131, 122, 124, 126, 141, 124, 131, 114, 142, 141, 137, 116, 160, 123, 131, 143]","[1786191, 1786471, 1786826, 1787240, 1787653, 1788021, 1788441, 1788864, 1789300, 1789660, 1790080, 1790485, 1790888, 1791255, 1791673, 1792089, 1792551, 1792958, 1793387, 1793788, 1794252, 1794589, 1795033, 1795422]","[1785953, 1786353, 1786754, 1787154, 1787554, 1787954, 1788354, 1788754, 1789160, 1789557, 1789973, 1790337, 1790746, 1791161, 1791582, 1791994, 1792408, 1792815, 1793280, 1793713, 1794118, 1794503, 1794899, 1795290]",62,OR,U,R,ITMSR,1.1
0,400,trial,0,87,87,87,trial,"['B', 'S', 'S', 'S', 'S', 'S', 'S', 'S', 'C', 'C', 'C', 'C', 'C', 'C', 'C', 'C', 'C', 'C', 'C', 'C', 'C', 'C', 'C', 'C']","[1800621, 1800922, 1801367, 1801766, 1802176, 1802601, 1802989, 1803389, 1803803, 1804198, 1804598, 1805003, 1805417, 1805820, 1806228, 1806620, 1806995, 1807410, 1807824, 1808239, 1808630, 1809024, 1809388, 1809815]","[1800767, 1801157, 1801596, 1802019, 1802460, 1802819, 1803236, 1803639, 1804066, 1804445, 1804879, 1805260, 1805694, 1806088, 1806472, 1806875, 1807290, 1807670, 1808088, 1808445, 1808907, 1809212, 1809630, 1810043]","[211, 45, 101, 114, 129, 113, 122, 123, 133, 111, 128, 125, 146, 121, 122, 133, 151, 130, 126, 120, 167, 123, 141, 134]","[1800670, 1800926, 1801512, 1801921, 1802342, 1802708, 1803124, 1803531, 1803969, 1804336, 1804755, 1805148, 1805579, 1805960, 1806368, 1806773, 1807171, 1807544, 1807977, 1808355, 1808787, 1809123, 1809528, 1809934]","[1800633, 1801033, 1801433, 1801833, 1802233, 1802633, 1803033, 1803433, 1803823, 1804218, 1804618, 1805023, 1805437, 1805840, 1806248, 1806640, 1807015, 1807430, 1807844, 1808259, 1808650, 1809044, 1809409, 1809836]",62,OR,U,R,ITMSR,1.1
5,600,trial,0,88,88,88,trial,"['S', 'S', 'S', 'S', 'S', 'S', 'S', 'S', 'C', 'C', 'C', 'C', 'C', 'C', 'C', 'C', 'C', 'C', 'C', 'C', 'C', 'C', 'C', 'C']","[1815369, 1815646, 1816308, 1816934, 1817548, 1818144, 1818766, 1819357, 1819960, 1820559, 1821165, 1821787, 1822371, 1822982, 1823584, 1824174, 1824774, 1825368, 1825943, 1826547, 1827121, 1827722, 1828328, 1828945]","[1815510, 1816032, 1816686, 1817283, 1817892, 1818488, 1819083, 1819663, 1820306, 1820980, 1821581, 1822113, 1822733, 1823320, 1823920, 1824555, 1825203, 1825798, 1826348, 1826928, 1827558, 1828176, 1828768]","[81, 138, 114, 118, 139, 156, 128, 150, 138, 149, 155, 133, 157, 144, 141, 152, 148, 145, 145, 145, 152, 154, 152]","[1815445, 1815902, 1816537, 1817136, 1817735, 1818326, 1818952, 1819541, 1820148, 1820804, 1821425, 1821976, 1822571, 1823194, 1823780, 1824418, 1825019, 1825659, 1826191, 1826791, 1827429, 1827978, 1828624]","[1815229, 1815829, 1816429, 1817029, 1817629, 1818229, 1818829, 1819429, 1819980, 1820579, 1821186, 1821807, 1822391, 1823002, 1823604, 1824194, 1824794, 1825388, 1825964, 1826567, 1827141, 1827742, 1828348, 1828965]",62,OR,U,R,ITMSR,1.1
