pitch,ioi,event,.thisRepN,.thisTrialN,.thisN,.thisIndex,event,tap_types,tap_times,release_times,peak_pressures,peak_times,tone_times,subject,experimenter,register,handedness,experiment,version
,,SPR,0,-1,-1,0,SPR,"['P', 'P', 'P', 'P', 'P', 'P', 'P', 'P', 'P', 'P', 'P', 'P', 'P', 'P', 'P', 'P', 'P', 'P', 'P', 'P', 'P', 'P', 'P', 'P', 'P', 'P', 'P', 'P', 'P', 'P']","[56400, 56922, 57483, 58037, 58548, 59089, 59625, 60145, 60662, 61176, 61678, 62220, 62750, 63295, 63823, 64358, 64896, 65398, 65928, 66453, 66980, 67509, 68021, 68533, 69055, 69575, 70085, 70608, 71114, 71579]","[56496, 57014, 57579, 58126, 58682, 59195, 59719, 60222, 60754, 61288, 61779, 62312, 62848, 63378, 63928, 64443, 64983, 65501, 66011, 66536, 67062, 67592, 68116, 68617, 69147, 69675, 70192, 70716, 71195, 71692]","[177, 247, 253, 19, 99, 64, 14, 6, 231, 22, 44, 6, 224, 210, 25, 251, 253, 56, 32, 20, 8, 235, 218, 5, 10, 34, 53, 253, 221, 43]","[56408, 56928, 57489, 58041, 58554, 59096, 59631, 60151, 60667, 61181, 61685, 62225, 62756, 63301, 63827, 64363, 64901, 65404, 65933, 66457, 66985, 67514, 68027, 68537, 69061, 69579, 70089, 70615, 71120, 71585]",,63,OR,U,R,ITMSR,1.1
4,500,practice,0,0,0,0,practice,"['S', 'S', 'S', 'S', 'S', 'S', 'S', 'C', 'C', 'C', 'C', 'C', 'C', 'C', 'C', 'C', 'C', 'C', 'C', 'C', 'C', 'C', 'C', 'C']","[187751, 188319, 188832, 189299, 189799, 190302, 190820, 191321, 191744, 192088, 192364, 192652, 192871, 193123, 193512, 193923, 194369, 194788, 195298, 195757, 196227, 196721, 197164, 197669]","[187826, 188402, 188906, 189384, 189880, 190396, 190906, 191403, 191823, 192162, 192452, 192713, 192936, 193226, 193615, 194002, 194472, 194883, 195369, 195829, 196300, 196790, 197259, 197771]","[38, 233, 247, 251, 240, 211, 235, 208, 234, 231, 161, 184, 179, 167, 221, 180, 196, 151, 181, 108, 61, 161, 148, 167]","[187755, 188323, 188836, 189304, 189804, 190307, 190825, 191326, 191749, 192094, 192367, 192657, 192876, 193129, 193518, 193928, 194374, 194793, 195303, 195763, 196235, 196726, 197171, 197675]","[187387, 187887, 188387, 188888, 189388, 189888, 190388, 190888, 191341, 191764, 192108, 192385, 192672, 193143, 193532, 193943, 194390, 194808, 195318, 195777, 196247, 196741, 197184, 197689]",63,OR,U,R,ITMSR,1.1
2,500,practice,0,1,1,1,practice,"['S', 'S', 'S', 'S', 'S', 'S', 'S', 'C', 'C', 'C', 'C', 'C', 'C', 'C', 'C', 'C', 'C', 'C', 'C', 'C', 'C', 'C', 'C']","[203451, 204009, 204505, 205034, 205497, 205982, 206466, 206958, 207420, 207885, 208393, 208842, 209329, 209833, 210298, 210795, 211260, 211773, 212264, 212750, 213213, 213716, 214234]","[203527, 204078, 204584, 205103, 205566, 206052, 206543, 207032, 207465, 207955, 208460, 208920, 209349, 209890, 210365, 210856, 211337, 211836, 212332, 212815, 213272, 213794, 214305]","[92, 47, 29, 219, 200, 235, 160, 131, 98, 98, 144, 148, 160, 158, 101, 115, 57, 161, 164, 148, 121, 200, 245]","[203455, 204014, 204510, 205040, 205503, 205987, 206471, 206963, 207426, 207891, 208398, 208848, 209334, 209839, 210304, 210800, 211266, 211779, 212270, 212755, 213219, 213722, 214238]","[203070, 203570, 204070, 204570, 205070, 205570, 206070, 206570, 206978, 207440, 207905, 208413, 208862, 209349, 209853, 210318, 210816, 211280, 211793, 212284, 212770, 213233, 213736, 214254]",63,OR,U,R,ITMSR,1.1
1,500,practice,0,2,2,2,practice,"['S', 'S', 'S', 'S', 'S', 'S', 'S', 'S', 'C', 'C', 'C', 'C', 'C', 'C', 'C', 'C', 'C', 'C', 'C', 'C', 'C', 'C', 'C', 'C']","[219902, 220309, 220599, 221080, 221576, 222056, 222564, 223032, 223537, 224009, 224473, 224971, 225425, 225920, 226386, 226866, 227361, 227836, 228281, 228802, 229320, 229794, 230289, 230814]","[219960, 220358, 220684, 221153, 221641, 222127, 222627, 223115, 223608, 224083, 224558, 225033, 225447, 225995, 226455, 226886, 227421, 227892, 228361, 228864, 229340, 229861, 230309, 230870]","[0, 249, 21, 204, 230, 218, 183, 158, 186, 191, 82, 110, 80, 165, 161, 113, 87, 160, 121, 102, 106, 144, 185, 193]","[219909, 220315, 220605, 221085, 221581, 222061, 222570, 223038, 223542, 224014, 224479, 224976, 225430, 225926, 226392, 226872, 227366, 227842, 228286, 228807, 229325, 229799, 230294, 230820]","[219649, 220148, 220648, 221148, 221648, 222148, 222648, 223149, 223557, 224029, 224493, 224991, 225445, 225940, 226406, 226886, 227381, 227856, 228301, 228823, 229340, 229814, 230309, 230834]",63,OR,U,R,ITMSR,1.1
0,500,practice,0,3,3,3,practice,"['S', 'S', 'S', 'S', 'S', 'S', 'S', 'S', 'C', 'C', 'C', 'C', 'C', 'C', 'C', 'C', 'C', 'C', 'C', 'C', 'C', 'C', 'C', 'C']","[236661, 237044, 237416, 237903, 238397, 238885, 239378, 239891, 240381, 240882, 241386, 241860, 242387, 242857, 243392, 243873, 244393, 244895, 245372, 245881, 246383, 246886, 247380, 247897]","[236724, 237110, 237496, 237962, 238454, 238937, 239440, 239912, 240444, 240949, 241448, 241950, 242454, 242930, 243412, 243958, 244470, 244973, 245464, 245963, 246474, 246950, 247468, 247983]","[15, 134, 162, 177, 151, 99, 132, 67, 99, 62, 56, 33, 16, 157, 187, 111, 66, 207, 40, 60, 85, 42, 78, 16]","[236663, 237050, 237423, 237908, 238403, 238893, 239383, 239896, 240388, 240887, 241391, 241866, 242394, 242863, 243398, 243878, 244399, 244899, 245378, 245886, 246388, 246891, 247387, 247902]","[236486, 236986, 237486, 237986, 238486, 238986, 239486, 239986, 240401, 240902, 241406, 241880, 242407, 242877, 243412, 243893, 244413, 244915, 245392, 245901, 246403, 246906, 247400, 247917]",63,OR,U,R,ITMSR,1.1
5,500,practice,0,4,4,4,practice,"['S', 'S', 'S', 'S', 'S', 'S', 'S', 'S', 'C', 'C', 'C', 'C', 'C', 'C', 'C', 'C', 'C', 'C', 'C', 'C', 'C', 'C', 'C', 'C']","[253571, 253885, 254329, 254838, 255360, 255822, 256336, 256822, 257379, 257865, 258334, 258854, 259328, 259784, 260280, 260766, 261258, 261738, 262210, 262734, 263213, 263672, 264192, 264638]","[253648, 253964, 254409, 254858, 255414, 255898, 256423, 256917, 257470, 257949, 258354, 258938, 259400, 259854, 260367, 260848, 261328, 261832, 262305, 262808, 263283, 263774, 264270, 264733]","[169, 242, 41, 24, 14, 64, 74, 131, 151, 0, 253, 250, 254, 204, 238, 233, 79, 74, 41, 248, 62, 183, 254, 51]","[253578, 253889, 254336, 254844, 255365, 255827, 256342, 256827, 257384, 257870, 258340, 258860, 259333, 259790, 260286, 260771, 261264, 261743, 262215, 262740, 263219, 263677, 264197, 264644]","[253409, 253910, 254409, 254909, 255409, 255909, 256409, 256909, 257399, 257885, 258354, 258874, 259348, 259804, 260300, 260786, 261278, 261758, 262231, 262754, 263233, 263692, 264212, 264658]",63,OR,U,R,ITMSR,1.1
3,500,practice,0,5,5,5,practice,"['S', 'S', 'S', 'S', 'S', 'S', 'S', 'S', 'C', 'C', 'C', 'C', 'C', 'C', 'C', 'C', 'C', 'C', 'C', 'C', 'C', 'C', 'C', 'C']","[270343, 270656, 271097, 271585, 272095, 272569, 273065, 273554, 274062, 274527, 274998, 275481, 275965, 276462, 276929, 277435, 277912, 278395, 278906, 279414, 279890, 280366, 280855, 281337]","[270416, 270745, 271173, 271605, 272159, 272632, 273133, 273644, 274142, 274618, 275093, 275571, 276047, 276552, 277022, 277526, 278010, 278470, 278971, 279488, 279981, 280468, 280938, 281443]","[4, 5, 58, 9, 130, 90, 37, 19, 64, 97, 47, 55, 77, 253, 33, 37, 53, 213, 159, 3, 6, 176, 231, 247]","[270344, 270663, 271105, 271590, 272100, 272573, 273072, 273560, 274068, 274532, 275003, 275486, 275972, 276467, 276935, 277441, 277918, 278402, 278910, 279418, 279896, 280372, 280860, 281342]","[270132, 270632, 271132, 271632, 272132, 272632, 273132, 273632, 274082, 274547, 275018, 275501, 275985, 276482, 276950, 277455, 277933, 278415, 278926, 279434, 279910, 280386, 280876, 281357]",63,OR,U,R,ITMSR,1.1
4,400,trial,0,6,6,6,trial,"['S', 'S', 'S', 'S', 'S', 'S', 'S', 'S', 'C', 'C', 'C', 'C', 'C', 'C', 'C', 'C', 'C', 'C', 'C', 'C', 'C', 'C', 'C', 'C']","[321604, 321910, 322305, 322613, 322958, 323353, 323767, 324160, 324541, 324933, 325298, 325687, 326091, 326491, 326882, 327269, 327633, 328025, 328397, 328782, 329162, 329536, 329926, 330297]","[321669, 321993, 322374, 322691, 323025, 323420, 323834, 324221, 324609, 324989, 325367, 325743, 326141, 326511, 326947, 327344, 327714, 328089, 328417, 328841, 329218, 329556, 329982, 330378]","[25, 234, 181, 203, 190, 154, 160, 136, 174, 182, 116, 238, 67, 30, 191, 143, 174, 28, 125, 93, 107, 80, 63, 49]","[321609, 321916, 322310, 322618, 322963, 323357, 323772, 324165, 324546, 324938, 325304, 325693, 326096, 326496, 326888, 327273, 327639, 328030, 328402, 328787, 329167, 329541, 329932, 330303]","[321434, 321835, 322234, 322634, 323034, 323434, 323834, 324234, 324561, 324953, 325318, 325707, 326111, 326511, 326902, 327289, 327653, 328045, 328417, 328802, 329182, 329556, 329946, 330317]",63,OR,U,R,ITMSR,1.1
2,400,trial,0,7,7,7,trial,"['S', 'S', 'S', 'S', 'S', 'S', 'S', 'S', 'C', 'C', 'C', 'C', 'C', 'C', 'C', 'C', 'C', 'C', 'C', 'C', 'C', 'C', 'C', 'C']","[336237, 336520, 336802, 337198, 337614, 338019, 338425, 338796, 339196, 339562, 339966, 340395, 340779, 341180, 341579, 341967, 342381, 342758, 343168, 343548, 343946, 344347, 344733, 345118]","[336316, 336592, 336882, 337269, 337683, 338091, 338481, 338873, 339268, 339655, 340041, 340463, 340865, 341259, 341652, 342028, 342437, 342825, 343227, 343630, 344029, 344425, 344811, 345187]","[237, 131, 203, 203, 135, 136, 73, 191, 120, 54, 156, 160, 115, 89, 100, 68, 18, 33, 223, 214, 174, 184, 189, 150]","[336243, 336526, 336808, 337203, 337620, 338025, 338433, 338801, 339202, 339570, 339972, 340400, 340784, 341186, 341584, 341974, 342387, 342765, 343174, 343554, 343953, 344354, 344740, 345123]","[336061, 336461, 336861, 337261, 337661, 338061, 338461, 338861, 339216, 339582, 339986, 340415, 340799, 341200, 341599, 341987, 342402, 342778, 343188, 343568, 343966, 344367, 344753, 345138]",63,OR,U,R,ITMSR,1.1
1,600,trial,0,8,8,8,trial,"['S', 'S', 'S', 'S', 'S', 'S', 'S', 'S', 'C', 'C', 'C', 'C', 'C', 'C', 'C', 'C', 'C', 'C', 'C', 'C', 'C', 'C', 'C', 'C']","[350688, 350939, 351621, 352215, 352841, 353423, 354034, 354663, 355281, 355861, 356410, 357040, 357595, 358171, 358725, 359293, 359840, 360419, 360992, 361559, 362104, 362713, 363261, 363842]","[350751, 351009, 351690, 352285, 352901, 353502, 354123, 354754, 355362, 355924, 356503, 357114, 357670, 358252, 358820, 359365, 359921, 360508, 361088, 361645, 362203, 362785, 363346, 363925]","[38, 34, 97, 68, 82, 95, 73, 128, 134, 201, 13, 8, 13, 20, 254, 11, 25, 235, 241, 5, 52, 238, 32, 9]","[350693, 350944, 351628, 352222, 352847, 353429, 354040, 354669, 355288, 355867, 356416, 357046, 357601, 358176, 358732, 359300, 359846, 360426, 360999, 361565, 362110, 362720, 363267, 363849]","[350527, 351127, 351727, 352327, 352927, 353527, 354127, 354727, 355301, 355881, 356430, 357060, 357615, 358191, 358745, 359313, 359860, 360439, 361012, 361579, 362124, 362733, 363281, 363863]",63,OR,U,R,ITMSR,1.1
3,400,trial,0,9,9,9,trial,"['S', 'S', 'S', 'S', 'S', 'S', 'S', 'S', 'C', 'C', 'C', 'C', 'C', 'C', 'C', 'C', 'C', 'C', 'C', 'C', 'C', 'C', 'C', 'C']","[369655, 369941, 370258, 370627, 371009, 371395, 371803, 372189, 372600, 372975, 373357, 373739, 374104, 374448, 374811, 375159, 375503, 375821, 376167, 376507, 376880, 377239, 377584, 377979]","[369734, 370025, 370278, 370713, 371084, 371480, 371868, 372280, 372684, 373043, 373410, 373816, 374190, 374531, 374878, 375224, 375583, 375906, 376225, 376574, 376936, 377319, 377653, 378047]","[136, 113, 108, 143, 142, 108, 180, 173, 131, 8, 28, 55, 35, 252, 241, 205, 238, 238, 174, 183, 62, 154, 119, 115]","[369661, 369948, 370263, 370633, 371016, 371401, 371810, 372195, 372606, 372982, 373363, 373745, 374109, 374453, 374818, 375165, 375511, 375827, 376173, 376513, 376887, 377245, 377591, 377987]","[369466, 369866, 370266, 370666, 371066, 371466, 371866, 372267, 372620, 372995, 373378, 373760, 374124, 374468, 374831, 375179, 375523, 375841, 376187, 376527, 376900, 377260, 377604, 377999]",63,OR,U,R,ITMSR,1.1
0,600,trial,0,10,10,10,trial,"['S', 'S', 'S', 'S', 'S', 'S', 'S', 'S', 'C', 'C', 'C', 'C', 'C', 'C', 'C', 'C', 'C', 'C', 'C', 'C', 'C', 'C', 'C', 'C']","[383616, 383878, 384557, 385158, 385775, 386329, 386942, 387537, 388125, 388664, 389261, 389883, 390426, 391037, 391633, 392259, 392842, 393457, 394011, 394593, 395179, 395754, 396341, 396924]","[383669, 383970, 384633, 385221, 385844, 386411, 387028, 387610, 388212, 388684, 389343, 389958, 390488, 391112, 391706, 392338, 392912, 393528, 394090, 394663, 395266, 395847, 396429, 397023]","[190, 237, 5, 174, 191, 176, 207, 184, 169, 195, 178, 174, 151, 157, 79, 204, 135, 25, 107, 19, 12, 127, 99, 212]","[383623, 383883, 384562, 385164, 385781, 386335, 386948, 387544, 388131, 388671, 389267, 389889, 390431, 391044, 391639, 392264, 392847, 393462, 394016, 394599, 395184, 395761, 396348, 396931]","[383440, 384039, 384640, 385240, 385840, 386440, 387040, 387640, 388145, 388684, 389281, 389903, 390446, 391057, 391653, 392280, 392862, 393477, 394031, 394613, 395199, 395774, 396361, 396944]",63,OR,U,R,ITMSR,1.1
4,400,trial,0,11,11,11,trial,"['S', 'S', 'S', 'S', 'S', 'S', 'S', 'S', 'C', 'C', 'C', 'C', 'C', 'C', 'C', 'C', 'C', 'C', 'C', 'C', 'C', 'C', 'C', 'C']","[402547, 402840, 403120, 403488, 403891, 404293, 404718, 405099, 405478, 405878, 406275, 406689, 407093, 407488, 407900, 408276, 408692, 409099, 409509, 409933, 410326, 410745, 411172, 411573]","[402601, 402909, 403200, 403565, 403958, 404365, 404770, 405181, 405558, 405954, 406359, 406757, 407174, 407564, 407981, 408361, 408770, 409191, 409604, 410010, 410404, 410812, 411243, 411667]","[171, 227, 217, 194, 174, 126, 190, 131, 110, 107, 59, 242, 58, 231, 200, 228, 179, 236, 3, 36, 36, 63, 239, 151]","[402552, 402845, 403125, 403494, 403896, 404298, 404725, 405104, 405484, 405884, 406281, 406695, 407098, 407494, 407906, 408283, 408698, 409105, 409516, 409939, 410333, 410750, 411179, 411580]","[402361, 402761, 403161, 403561, 403961, 404361, 404761, 405161, 405498, 405898, 406295, 406709, 407113, 407508, 407920, 408296, 408712, 409119, 409529, 409953, 410346, 410765, 411192, 411593]",63,OR,U,R,ITMSR,1.1
1,600,trial,0,12,12,12,trial,"['S', 'S', 'S', 'S', 'S', 'S', 'S', 'S', 'C', 'C', 'C', 'C', 'C', 'C', 'C', 'C', 'C', 'C', 'C', 'C', 'C', 'C', 'C', 'C']","[417471, 417747, 418366, 418956, 419530, 420133, 420726, 421313, 421909, 422490, 423124, 423693, 424301, 424865, 425441, 426029, 426604, 427210, 427773, 428367, 428919, 429480, 430055, 430624]","[417556, 417883, 418440, 419031, 419611, 420205, 420823, 421405, 422005, 422574, 423201, 423772, 424385, 424885, 425528, 426049, 426681, 427230, 427860, 428443, 429026, 429500, 430157, 430714]","[93, 81, 97, 33, 46, 164, 61, 56, 65, 145, 239, 117, 177, 156, 130, 97, 129, 23, 146, 220, 229, 66, 144, 151]","[417475, 417753, 418372, 418963, 419536, 420140, 420732, 421320, 421914, 422495, 423131, 423699, 424306, 424869, 425446, 426035, 426610, 427216, 427779, 428375, 428925, 429487, 430060, 430631]","[417273, 417873, 418473, 419074, 419674, 420274, 420874, 421474, 421929, 422510, 423144, 423713, 424322, 424885, 425461, 426049, 426625, 427230, 427793, 428387, 428939, 429500, 430075, 430644]",63,OR,U,R,ITMSR,1.1
5,400,trial,0,13,13,13,trial,"['S', 'S', 'S', 'S', 'S', 'S', 'S', 'S', 'C', 'C', 'C', 'C', 'C', 'C', 'C', 'C', 'C', 'C', 'C', 'C', 'C', 'C', 'C', 'C']","[436574, 436822, 437082, 437440, 437841, 438238, 438641, 439054, 439434, 439832, 440242, 440625, 441024, 441416, 441812, 442208, 442595, 443014, 443440, 443847, 444254, 444653, 445005, 445414]","[436630, 436883, 437159, 437532, 437924, 438309, 438714, 439109, 439513, 439885, 440310, 440701, 441108, 441498, 441899, 442288, 442615, 443092, 443514, 443867, 444318, 444674, 445025, 445434]","[181, 50, 146, 129, 117, 23, 9, 84, 69, 20, 10, 10, 54, 182, 35, 44, 46, 100, 72, 4, 195, 165, 18, 80]","[436581, 436827, 437087, 437446, 437848, 438244, 438646, 439059, 439439, 439837, 440249, 440631, 441030, 441422, 441819, 442214, 442600, 443019, 443445, 443853, 444261, 444659, 445011, 445420]","[436301, 436701, 437101, 437501, 437901, 438301, 438701, 439101, 439454, 439853, 440262, 440645, 441044, 441436, 441832, 442228, 442615, 443034, 443460, 443867, 444274, 444674, 445025, 445434]",63,OR,U,R,ITMSR,1.1
5,600,trial,0,14,14,14,trial,"['S', 'S', 'S', 'S', 'S', 'S', 'S', 'S', 'C', 'C', 'C', 'C', 'C', 'C', 'C', 'C', 'C', 'C', 'C', 'C', 'C', 'C', 'C', 'C']","[451282, 451558, 452254, 452827, 453429, 454009, 454600, 455223, 455804, 456346, 456946, 457536, 458094, 458656, 459188, 459771, 460391, 460867, 461500, 462071, 462658, 463208, 463748, 464319]","[451361, 451646, 452336, 452902, 453521, 454029, 454676, 455297, 455888, 456442, 457036, 457615, 458114, 458744, 459273, 459848, 460411, 460958, 461591, 462158, 462738, 463228, 463768, 464398]","[151, 82, 141, 152, 191, 163, 115, 144, 175, 76, 99, 90, 123, 68, 138, 92, 4, 116, 74, 81, 17, 3, 244, 184]","[451286, 451562, 452259, 452831, 453434, 454013, 454605, 455229, 455811, 456352, 456952, 457541, 458099, 458661, 459192, 459776, 460396, 460872, 461505, 462076, 462664, 463214, 463755, 464323]","[451119, 451719, 452319, 452919, 453519, 454119, 454719, 455319, 455824, 456366, 456966, 457556, 458114, 458676, 459208, 459791, 460411, 460888, 461520, 462091, 462679, 463228, 463768, 464339]",63,OR,U,R,ITMSR,1.1
2,600,trial,0,15,15,15,trial,"['S', 'S', 'S', 'S', 'S', 'S', 'S', 'S', 'C', 'C', 'C', 'C', 'C', 'C', 'C', 'C', 'C', 'C', 'C', 'C', 'C', 'C', 'C', 'C']","[470259, 470563, 471076, 471669, 472279, 472873, 473453, 474041, 474670, 475246, 475812, 476379, 476928, 477513, 478086, 478612, 479204, 479754, 480331, 480882, 481414, 482032, 482580, 483123]","[470316, 470707, 471187, 471747, 472358, 472951, 473539, 474116, 474748, 475347, 475908, 476470, 477005, 477595, 478173, 478723, 479303, 479861, 480418, 480902, 481434, 482118, 482600, 483143]","[219, 168, 111, 77, 107, 41, 71, 210, 109, 78, 157, 152, 79, 146, 113, 42, 79, 180, 241, 25, 115, 116, 246, 48]","[470263, 470569, 471083, 471673, 472284, 472879, 473458, 474046, 474676, 475252, 475817, 476383, 476934, 477519, 478091, 478618, 479210, 479760, 480337, 480888, 481419, 482037, 482586, 483128]","[469999, 470599, 471199, 471799, 472399, 472999, 473600, 474200, 474690, 475266, 475832, 476399, 476948, 477533, 478106, 478632, 479224, 479774, 480351, 480902, 481434, 482052, 482600, 483143]",63,OR,U,R,ITMSR,1.1
0,600,trial,0,16,16,16,trial,"['S', 'S', 'S', 'S', 'S', 'S', 'S', 'S', 'C', 'C', 'C', 'C', 'C', 'C', 'C', 'C', 'C', 'C', 'C', 'C', 'C', 'C', 'C', 'C']","[489114, 489442, 489979, 490552, 491156, 491711, 492274, 492793, 493407, 494052, 494636, 495203, 495854, 496410, 497008, 497605, 498154, 498737, 499326, 499872, 500423, 500975, 501559, 502096]","[489187, 489550, 490073, 490658, 491232, 491801, 492384, 492903, 493506, 494155, 494717, 495288, 495912, 496482, 497028, 497687, 498243, 498757, 499408, 499945, 500500, 501062, 501633, 502191]","[79, 9, 73, 142, 36, 193, 94, 103, 139, 194, 34, 183, 98, 129, 213, 251, 120, 8, 255, 244, 48, 96, 208, 27]","[489121, 489449, 489986, 490558, 491162, 491715, 492281, 492801, 493411, 494058, 494640, 495208, 495860, 496414, 497013, 497612, 498160, 498743, 499333, 499879, 500430, 500981, 501567, 502104]","[488931, 489531, 490131, 490731, 491331, 491931, 492531, 493131, 493427, 494072, 494656, 495223, 495874, 496430, 497028, 497625, 498174, 498757, 499346, 499892, 500443, 500995, 501579, 502116]",63,OR,U,R,ITMSR,1.1
3,600,trial,0,17,17,17,trial,"['S', 'S', 'S', 'S', 'S', 'S', 'S', 'S', 'C', 'C', 'C', 'C', 'C', 'C', 'C', 'C', 'C', 'C', 'C', 'C', 'C', 'C', 'C', 'C']","[507645, 507967, 508546, 509112, 509700, 510282, 510879, 511404, 512023, 512561, 513119, 513645, 514190, 514725, 515235, 515781, 516294, 516851, 517415, 517991, 518571, 519133, 519643, 520229]","[507746, 508108, 508643, 509215, 509800, 510375, 510967, 511511, 512111, 512583, 513139, 513666, 514210, 514810, 515255, 515801, 516314, 516945, 517506, 518011, 518591, 519174, 519742, 520249]","[134, 37, 214, 187, 76, 62, 177, 148, 53, 187, 30, 234, 147, 164, 103, 88, 78, 168, 58, 83, 178, 67, 247, 77]","[507652, 507975, 508554, 509117, 509707, 510288, 510885, 511410, 512030, 512567, 513123, 513649, 514197, 514732, 515243, 515787, 516300, 516857, 517465, 517994, 518576, 519168, 519649, 520232]","[507463, 508063, 508663, 509263, 509863, 510464, 511064, 511664, 512044, 512581, 513139, 513666, 514210, 514745, 515255, 515801, 516314, 516871, 517435, 518011, 518591, 519153, 519663, 520249]",63,OR,U,R,ITMSR,1.1
4,600,trial,0,18,18,18,trial,"['S', 'S', 'S', 'S', 'S', 'S', 'S', 'S', 'S', 'C', 'C', 'C', 'C', 'C', 'C', 'C', 'C', 'C', 'C', 'C', 'C', 'C', 'C', 'C', 'C']","[525901, 526253, 526353, 526787, 527344, 527961, 528528, 529120, 529705, 530279, 530763, 531335, 531930, 532502, 533088, 533664, 534221, 534785, 535318, 535933, 536509, 537088, 537675, 538225, 538779]","[525983, 526273, 526373, 526871, 527431, 528050, 528621, 529182, 529727, 530366, 530879, 531448, 532025, 532604, 533183, 533772, 534324, 534898, 535437, 536026, 536622, 537176, 537772, 538345, 538884]","[7, 99, 67, 37, 41, 52, 26, 100, 67, 14, 189, 212, 189, 205, 156, 164, 233, 153, 74, 148, 231, 51, 172, 199, 168]","[525907, 526259, 526353, 526794, 527351, 527968, 528534, 529126, 529713, 530284, 530769, 531342, 531937, 532509, 533095, 533671, 534230, 534791, 535325, 535940, 536514, 537094, 537682, 538232, 538787]","[525712, 526312, 526912, 527512, 528112, 528712, 529312, 529912, 530299, 530783, 531355, 531950, 532523, 533108, 533684, 534241, 534805, 535339, 535953, 536529, 537108, 537695, 538245, 538799]",63,OR,U,R,ITMSR,1.1
1,400,trial,0,19,19,19,trial,"['S', 'S', 'S', 'S', 'S', 'S', 'S', 'C', 'C', 'C', 'C', 'C', 'C', 'C', 'C', 'C', 'C', 'C', 'C', 'C', 'C', 'C', 'C']","[544389, 544750, 545319, 545722, 546150, 546575, 546979, 547392, 547778, 548231, 548669, 549089, 549534, 549941, 550336, 550752, 551181, 551574, 552010, 552466, 552846, 553304, 553739]","[544482, 544856, 545422, 545838, 546243, 546671, 547069, 547488, 547866, 548322, 548773, 549184, 549624, 550053, 550451, 550861, 551279, 551680, 552107, 552555, 552968, 553385, 553832]","[86, 85, 208, 20, 20, 9, 229, 13, 219, 229, 148, 116, 77, 193, 99, 206, 225, 165, 190, 134, 132, 83, 191]","[544395, 544757, 545325, 545729, 546157, 546582, 546984, 547398, 547785, 548238, 548676, 549096, 549540, 549947, 550342, 550759, 551188, 551581, 552015, 552473, 552853, 553310, 553747]","[544222, 544622, 545022, 545422, 545822, 546222, 546622, 547022, 547412, 547799, 548251, 548689, 549109, 549554, 549961, 550356, 550772, 551201, 551595, 552030, 552486, 552866, 553324, 553759]",63,OR,U,R,ITMSR,1.1
2,400,trial,0,20,20,20,trial,"['S', 'S', 'S', 'S', 'S', 'S', 'S', 'S', 'C', 'C', 'C', 'C', 'C', 'C', 'C', 'C', 'C', 'C', 'C', 'C', 'C', 'C', 'C', 'C']","[559605, 559961, 560227, 560562, 560959, 561339, 561741, 562129, 562532, 562923, 563352, 563741, 564146, 564539, 564910, 565301, 565688, 566075, 566466, 566836, 567240, 567655, 568065, 568449]","[559706, 560041, 560320, 560644, 561039, 561429, 561815, 562215, 562623, 562998, 563431, 563828, 564208, 564619, 564972, 565368, 565775, 566170, 566552, 566919, 567342, 567750, 568143, 568532]","[195, 101, 139, 206, 82, 180, 32, 136, 67, 191, 21, 81, 62, 31, 36, 96, 94, 252, 15, 31, 38, 188, 21, 36]","[559612, 559967, 560232, 560569, 560965, 561345, 561746, 562134, 562580, 562928, 563359, 563748, 564152, 564545, 564916, 565308, 565694, 566081, 566472, 566843, 567246, 567662, 568070, 568455]","[559437, 559837, 560237, 560637, 561037, 561437, 561837, 562237, 562552, 562944, 563373, 563761, 564166, 564559, 564930, 565321, 565708, 566095, 566487, 566856, 567260, 567675, 568085, 568469]",63,OR,U,R,ITMSR,1.1
5,400,trial,0,21,21,21,trial,"['S', 'S', 'S', 'S', 'S', 'S', 'S', 'S', 'C', 'C', 'C', 'C', 'C', 'C', 'C', 'C', 'C', 'C', 'C', 'C', 'C', 'C', 'C', 'C']","[574224, 574488, 574801, 575192, 575596, 575970, 576351, 576760, 577199, 577605, 578013, 578375, 578775, 579180, 579560, 579913, 580301, 580678, 581110, 581521, 581944, 582327, 582745, 583112]","[574306, 574581, 574901, 575277, 575700, 576054, 576437, 576848, 577263, 577690, 578098, 578477, 578870, 579272, 579663, 580033, 580391, 580771, 581207, 581604, 582044, 582400, 582825, 583208]","[45, 122, 72, 83, 86, 90, 104, 82, 3, 198, 82, 64, 81, 81, 19, 18, 192, 16, 214, 0, 188, 176, 226, 248]","[574228, 574496, 574808, 575197, 575605, 575976, 576356, 576769, 577202, 577613, 578019, 578382, 578781, 579186, 579566, 579982, 580308, 580684, 581115, 581526, 581950, 582334, 582751, 583118]","[574060, 574460, 574860, 575260, 575661, 576061, 576461, 576861, 577219, 577625, 578033, 578395, 578795, 579201, 579580, 579933, 580321, 580698, 581130, 581541, 581964, 582347, 582765, 583132]",63,OR,U,R,ITMSR,1.1
4,600,trial,0,22,22,22,trial,"['S', 'S', 'S', 'S', 'S', 'S', 'S', 'S', 'C', 'C', 'C', 'C', 'C', 'C', 'C', 'C', 'C', 'C', 'C', 'C', 'C', 'C', 'C', 'C', 'C']","[589063, 589366, 590002, 590594, 591196, 591785, 592340, 592927, 593551, 594109, 594654, 595181, 595770, 596321, 596858, 597420, 597958, 598538, 599093, 599664, 599768, 600226, 600785, 601321, 601874]","[589142, 589470, 590086, 590647, 591276, 591868, 592438, 593032, 593644, 594206, 594752, 595275, 595881, 596428, 596954, 597504, 598060, 598632, 599206, 599686, 599789, 600321, 600865, 601419, 601976]","[210, 97, 68, 24, 88, 136, 75, 42, 98, 92, 187, 140, 177, 159, 81, 128, 68, 167, 167, 149, 2, 138, 185, 131, 152]","[589070, 589374, 590007, 590600, 591202, 591792, 592411, 592935, 593558, 594115, 594661, 595188, 595777, 596328, 596864, 597427, 597962, 598544, 599100, 599669, 599768, 600232, 600792, 601327, 601880]","[588918, 589517, 590117, 590717, 591318, 591917, 592517, 593117, 593571, 594129, 594674, 595202, 595790, 596341, 596878, 597440, 597978, 598558, 599113, 599684, 600246, 600805, 601341, 601894]",63,OR,U,R,ITMSR,1.1
2,600,trial,0,23,23,23,trial,"['S', 'S', 'S', 'S', 'S', 'S', 'S', 'S', 'C', 'C', 'C', 'C', 'C', 'C', 'C', 'C', 'C', 'C', 'C', 'C', 'C', 'C', 'C', 'C']","[607667, 607986, 608498, 609046, 609643, 610245, 610853, 611395, 611970, 612505, 613028, 613531, 614051, 614550, 615064, 615588, 616069, 616582, 617074, 617530, 618064, 618521, 619060, 619559]","[607750, 608078, 608589, 609131, 609757, 610315, 610939, 611501, 612055, 612525, 613114, 613613, 614153, 614634, 615145, 615678, 616160, 616684, 617162, 617640, 618145, 618633, 619080, 619666]","[176, 90, 59, 19, 61, 236, 228, 166, 115, 168, 29, 254, 6, 171, 233, 176, 208, 191, 147, 201, 157, 230, 89, 228]","[607672, 607992, 608504, 609053, 609648, 610251, 610861, 611402, 611975, 612511, 613033, 613537, 614059, 614556, 615071, 615595, 616076, 616588, 617079, 617536, 618070, 618528, 619067, 619566]","[607462, 608062, 608662, 609262, 609862, 610462, 611062, 611662, 611990, 612525, 613048, 613551, 614071, 614571, 615085, 615608, 616089, 616602, 617094, 617550, 618084, 618541, 619080, 619579]",63,OR,U,R,ITMSR,1.1
1,400,trial,0,24,24,24,trial,"['S', 'S', 'S', 'S', 'S', 'S', 'S', 'S', 'C', 'C', 'C', 'C', 'C', 'C', 'C', 'C', 'C', 'C', 'C', 'C', 'C', 'C', 'C', 'C']","[625293, 625606, 625901, 626211, 626608, 626999, 627379, 627766, 628163, 628543, 628943, 629356, 629747, 630157, 630566, 630971, 631369, 631755, 632160, 632550, 632990, 633398, 633792, 634206]","[625400, 625686, 625991, 626309, 626685, 627089, 627460, 627861, 628265, 628641, 629028, 629377, 629844, 630238, 630586, 631058, 631389, 631775, 632180, 632655, 633080, 633480, 633878, 634303]","[100, 96, 134, 161, 209, 235, 106, 96, 111, 223, 159, 0, 130, 217, 248, 184, 118, 115, 150, 122, 138, 250, 181, 48]","[625341, 625611, 625906, 626220, 626615, 627005, 627385, 627773, 628169, 628550, 628950, 629363, 629753, 630163, 630573, 630976, 631376, 631762, 632165, 632555, 632995, 633405, 633799, 634215]","[625085, 625485, 625885, 626285, 626685, 627085, 627485, 627885, 628184, 628563, 628963, 629377, 629767, 630177, 630586, 630991, 631389, 631775, 632180, 632570, 633010, 633418, 633812, 634226]",63,OR,U,R,ITMSR,1.1
0,400,trial,0,25,25,25,trial,"['S', 'S', 'S', 'S', 'S', 'S', 'S', 'S', 'C', 'C', 'C', 'C', 'C', 'C', 'C', 'C', 'C', 'C', 'C', 'C', 'C', 'C', 'C', 'C']","[640197, 640473, 640768, 641112, 641550, 641926, 642317, 642712, 643119, 643506, 643910, 644319, 644699, 645054, 645483, 645900, 646317, 646705, 647084, 647491, 647884, 648299, 648701, 649102]","[640288, 640534, 640864, 641217, 641610, 642010, 642420, 642814, 643217, 643585, 644007, 644423, 644770, 645146, 645504, 645993, 646400, 646793, 647197, 647593, 647987, 648325, 648814, 649197]","[7, 203, 77, 118, 237, 119, 140, 156, 136, 147, 210, 215, 14, 216, 102, 229, 183, 216, 18, 209, 195, 246, 29, 179]","[640261, 640479, 640813, 641157, 641556, 641929, 642323, 642718, 643125, 643512, 643917, 644325, 644705, 645060, 645486, 645906, 646390, 646711, 647126, 647537, 647928, 648305, 648778, 649182]","[640006, 640405, 640805, 641205, 641605, 642006, 642405, 642805, 643139, 643526, 643930, 644339, 644719, 645074, 645504, 645920, 646337, 646725, 647104, 647512, 647904, 648320, 648721, 649122]",63,OR,U,R,ITMSR,1.1
3,600,trial,0,26,26,26,trial,"['S', 'S', 'S', 'S', 'S', 'S', 'S', 'S', 'C', 'C', 'C', 'C', 'C', 'C', 'C', 'C', 'C', 'C', 'C', 'C', 'C', 'C', 'C', 'C']","[655030, 655309, 655932, 656508, 657100, 657675, 658319, 658916, 659501, 660002, 660553, 661127, 661692, 662254, 662794, 663329, 663949, 664464, 665029, 665588, 666153, 666691, 667238, 667813]","[655123, 655405, 656022, 656573, 657157, 657758, 658410, 659054, 659631, 660110, 660639, 661202, 661778, 662325, 662814, 663398, 664009, 664567, 665125, 665681, 666252, 666802, 667350, 667932]","[9, 63, 185, 40, 136, 215, 135, 214, 194, 171, 245, 56, 210, 85, 49, 105, 47, 115, 64, 5, 74, 185, 55, 114]","[655079, 655368, 655937, 656515, 657105, 657682, 658327, 658974, 659569, 660052, 660609, 661134, 661696, 662260, 662802, 663336, 663955, 664468, 665034, 665592, 666161, 666699, 667245, 667819]","[654862, 655462, 656062, 656662, 657262, 657862, 658462, 659062, 659521, 660022, 660573, 661147, 661712, 662274, 662814, 663349, 663969, 664484, 665049, 665608, 666173, 666712, 667258, 667833]",63,OR,U,R,ITMSR,1.1
0,400,trial,0,27,27,27,trial,"['S', 'S', 'S', 'S', 'S', 'S', 'S', 'S', 'C', 'C', 'C', 'C', 'C', 'C', 'C', 'C', 'C', 'C', 'C', 'C', 'C', 'C', 'C', 'C']","[673366, 673686, 673980, 674318, 674719, 675085, 675503, 675898, 676299, 676682, 677078, 677481, 677892, 678239, 678652, 679056, 679440, 679825, 680239, 680652, 681035, 681446, 681836, 682218]","[673459, 673771, 674049, 674401, 674776, 675166, 675579, 675997, 676362, 676772, 677148, 677564, 677945, 678318, 678700, 679129, 679534, 679921, 680335, 680739, 681117, 681537, 681933, 682326]","[65, 81, 145, 190, 170, 29, 185, 74, 186, 156, 181, 201, 211, 234, 221, 223, 190, 143, 221, 235, 235, 204, 222, 240]","[673413, 673693, 673989, 674329, 674728, 675092, 675510, 675950, 676305, 676687, 677084, 677487, 677898, 678243, 678658, 679059, 679445, 679864, 680244, 680655, 681038, 681449, 681840, 682251]","[673183, 673583, 673983, 674383, 674783, 675183, 675584, 675983, 676319, 676702, 677098, 677501, 677912, 678259, 678672, 679076, 679460, 679845, 680259, 680672, 681055, 681466, 681857, 682238]",63,OR,U,R,ITMSR,1.1
5,600,trial,0,28,28,28,trial,"['S', 'S', 'S', 'S', 'S', 'S', 'S', 'C', 'C', 'C', 'C', 'C', 'C', 'C', 'C', 'C', 'C', 'C', 'C', 'C', 'C', 'C', 'C']","[688287, 688916, 689510, 690128, 690729, 691295, 691867, 692472, 692992, 693502, 694105, 694686, 695205, 695809, 696376, 696920, 697488, 698053, 698600, 699122, 699688, 700233, 700755]","[688372, 688995, 689565, 690193, 690793, 691375, 691921, 692539, 693072, 693562, 694182, 694744, 695225, 695887, 696396, 696940, 697508, 698073, 698620, 699142, 699708, 700253, 700835]","[14, 104, 215, 25, 220, 90, 117, 208, 189, 182, 17, 198, 53, 37, 162, 86, 56, 138, 42, 188, 145, 119, 181]","[688294, 688923, 689515, 690136, 690736, 691302, 691874, 692478, 692997, 693507, 694111, 694693, 695211, 695816, 696379, 696925, 697493, 698057, 698603, 699128, 699695, 700239, 700762]","[687875, 688475, 689075, 689675, 690275, 690875, 691475, 692075, 692492, 693012, 693522, 694125, 694706, 695225, 695829, 696396, 696940, 697508, 698073, 698620, 699142, 699708, 700253, 700775]",63,OR,U,R,ITMSR,1.1
3,400,trial,0,29,29,29,trial,"['S', 'S', 'S', 'S', 'S', 'S', 'S', 'S', 'C', 'C', 'C', 'C', 'C', 'C', 'C', 'C', 'C', 'C', 'C', 'C', 'C', 'C', 'C', 'C']","[706613, 706897, 707200, 707565, 707965, 708347, 708754, 709167, 709577, 710007, 710410, 710838, 711222, 711587, 711988, 712391, 712800, 713195, 713606, 713999, 714391, 714743, 715171, 715600]","[706668, 706917, 707257, 707637, 707985, 708412, 708830, 709187, 709645, 710044, 710460, 710919, 711283, 711702, 712083, 712481, 712896, 713260, 713662, 714076, 714465, 714816, 715228, 715667]","[176, 143, 128, 151, 134, 155, 174, 251, 53, 192, 191, 220, 216, 179, 51, 218, 4, 222, 219, 215, 164, 150, 179, 216]","[706619, 706904, 707208, 707572, 707972, 708354, 708760, 709172, 709583, 710012, 710415, 710843, 711225, 711595, 711994, 712395, 712806, 713200, 713611, 714003, 714397, 714750, 715176, 715608]","[706435, 706835, 707235, 707635, 708035, 708435, 708835, 709235, 709597, 710027, 710430, 710858, 711242, 711607, 712008, 712411, 712820, 713216, 713626, 714019, 714412, 714763, 715191, 715620]",63,OR,U,R,ITMSR,1.1
0,400,trial,0,30,30,30,trial,"['S', 'S', 'S', 'S', 'S', 'S', 'S', 'S', 'C', 'C', 'C', 'C', 'C', 'C', 'C', 'C', 'C', 'C', 'C', 'C', 'C', 'C', 'C', 'C']","[727244, 727526, 727814, 728207, 728586, 728980, 729364, 729746, 730144, 730520, 730948, 731366, 731748, 732137, 732520, 732949, 733345, 733713, 734085, 734509, 734918, 735335, 735739, 736166]","[727313, 727607, 727892, 728266, 728654, 729057, 729437, 729832, 730212, 730600, 731003, 731411, 731813, 732196, 732540, 733001, 733413, 733733, 734105, 734529, 734938, 735355, 735759, 736268]","[137, 151, 251, 187, 60, 145, 114, 66, 47, 55, 228, 233, 248, 224, 171, 222, 231, 142, 226, 98, 18, 151, 87, 44]","[727249, 727535, 727819, 728213, 728594, 728985, 729371, 729754, 730151, 730527, 730955, 731374, 731749, 732140, 732526, 732953, 733350, 733717, 734092, 734515, 734925, 735342, 735746, 736214]","[727058, 727457, 727857, 728257, 728657, 729057, 729457, 729858, 730164, 730541, 730968, 731386, 731768, 732157, 732540, 732969, 733365, 733733, 734105, 734529, 734938, 735355, 735759, 736186]",63,OR,U,R,ITMSR,1.1
0,600,trial,0,31,31,31,trial,"['S', 'S', 'S', 'S', 'S', 'S', 'S', 'S', 'C', 'C', 'C', 'C', 'C', 'C', 'C', 'C', 'C', 'C', 'C', 'C', 'C', 'C', 'C', 'C']","[741946, 742311, 742643, 743251, 743837, 744397, 744993, 745588, 746209, 746739, 747286, 747873, 748429, 748996, 749547, 750099, 750657, 751188, 751757, 752335, 752880, 753421, 753975, 754556]","[742041, 742398, 742789, 743271, 743889, 744465, 745080, 745667, 746305, 746841, 747377, 747954, 748506, 749080, 749647, 750182, 750760, 751293, 751852, 752408, 752967, 753530, 754098, 754647]","[16, 245, 21, 95, 217, 225, 221, 170, 238, 236, 235, 227, 227, 237, 238, 235, 235, 237, 235, 237, 232, 27, 19, 235]","[741952, 742319, 742649, 743261, 743846, 744401, 745007, 745595, 746218, 746742, 747289, 747876, 748436, 749001, 749549, 750100, 750660, 751193, 751765, 752339, 752884, 753430, 753983, 754558]","[741572, 742171, 742771, 743371, 743971, 744571, 745171, 745772, 746229, 746759, 747307, 747893, 748449, 749016, 749568, 750119, 750678, 751208, 751777, 752355, 752900, 753441, 753995, 754576]",63,OR,U,R,ITMSR,1.1
5,600,trial,0,32,32,32,trial,"['S', 'S', 'S', 'S', 'S', 'S', 'S', 'S', 'C', 'C', 'C', 'C', 'C', 'C', 'C', 'C', 'C', 'C', 'C', 'C', 'C', 'C', 'C', 'C']","[760109, 760392, 761031, 761640, 762212, 762829, 763466, 764028, 764606, 765174, 765739, 766330, 766924, 767501, 768081, 768635, 769202, 769775, 770351, 770889, 771472, 772063, 772649, 773185]","[760173, 760488, 761082, 761689, 762298, 762901, 763486, 764048, 764626, 765194, 765759, 766350, 766944, 767521, 768146, 768717, 769289, 769795, 770426, 770976, 771563, 772150, 772753, 773281]","[240, 81, 64, 232, 210, 28, 231, 27, 252, 97, 3, 56, 50, 191, 176, 111, 223, 184, 17, 234, 163, 55, 219, 220]","[760116, 760399, 761036, 761648, 762219, 762838, 763471, 764037, 764614, 765181, 765748, 766337, 766930, 767502, 768088, 768646, 769210, 769778, 770359, 770898, 771479, 772071, 772655, 773190]","[759936, 760535, 761134, 761734, 762334, 762934, 763534, 764134, 764626, 765194, 765759, 766350, 766944, 767521, 768101, 768655, 769222, 769795, 770371, 770909, 771492, 772083, 772669, 773206]",63,OR,U,R,ITMSR,1.1
2,600,trial,0,33,33,33,trial,"['S', 'S', 'S', 'S', 'S', 'S', 'S', 'S', 'C', 'C', 'C', 'C', 'C', 'C', 'C', 'C', 'C', 'C', 'C', 'C', 'C', 'C', 'C', 'C']","[779056, 779379, 779970, 780559, 781147, 781756, 782344, 782932, 783519, 784071, 784659, 785212, 785827, 786399, 786998, 787605, 788210, 788797, 789396, 789969, 790574, 791162, 791708, 792327]","[779076, 779480, 780046, 780648, 781255, 781868, 782469, 783011, 783541, 784092, 784729, 785323, 785929, 786525, 787111, 787688, 788302, 788879, 789506, 790084, 790669, 791255, 791812, 792440]","[47, 10, 5, 80, 19, 4, 233, 25, 235, 108, 112, 224, 229, 32, 236, 143, 145, 79, 161, 143, 159, 145, 142, 143]","[779062, 779386, 780020, 780565, 781155, 781806, 782431, 782940, 783526, 784080, 784670, 785220, 785837, 786406, 787003, 787613, 788222, 788807, 789405, 789974, 790583, 791171, 791723, 792340]","[778901, 779501, 780101, 780701, 781301, 781901, 782501, 783101, 783539, 784091, 784679, 785232, 785847, 786419, 787018, 787625, 788230, 788817, 789416, 789989, 790594, 791182, 791728, 792347]",63,OR,U,R,ITMSR,1.1
5,400,trial,0,34,34,34,trial,"['S', 'S', 'S', 'S', 'S', 'S', 'S', 'S', 'C', 'C', 'C', 'C', 'C', 'C', 'C', 'C', 'C', 'C', 'C', 'C', 'C', 'C', 'C', 'C']","[798228, 798562, 798848, 799226, 799592, 799991, 800409, 800801, 801227, 801610, 801992, 802407, 802812, 803236, 803623, 804041, 804402, 804809, 805193, 805615, 806021, 806420, 806858, 807288]","[798291, 798617, 798937, 799247, 799614, 800080, 800506, 800924, 801247, 801707, 802083, 802481, 802862, 803294, 803734, 804123, 804506, 804886, 805268, 805635, 806041, 806440, 806921, 807313]","[119, 137, 213, 101, 117, 167, 223, 226, 110, 150, 224, 126, 94, 149, 227, 139, 144, 147, 101, 63, 75, 73, 83, 73]","[798239, 798575, 798855, 799235, 799601, 800001, 800453, 800805, 801236, 801613, 801999, 802417, 802818, 803247, 803627, 804054, 804413, 804818, 805239, 805620, 806026, 806427, 806893, 807297]","[798047, 798447, 798848, 799247, 799647, 800047, 800447, 800847, 801247, 801630, 802012, 802427, 802832, 803256, 803643, 804061, 804422, 804829, 805213, 805635, 806041, 806440, 806878, 807308]",63,OR,U,R,ITMSR,1.1
3,600,trial,0,35,35,35,trial,"['S', 'S', 'S', 'S', 'S', 'S', 'S', 'S', 'C', 'C', 'C', 'C', 'C', 'C', 'C', 'C', 'C', 'C', 'C', 'C', 'C', 'C', 'C', 'C']","[813258, 813671, 814060, 814642, 815198, 816272, 816866, 817415, 818089, 818562, 819048, 819918, 820391, 820872, 821366, 821847, 822350, 822831, 823334, 825836, 826268, 826710, 827196, 827657]","[813278, 813691, 814144, 814662, 815218, 816292, 816886, 817435, 818197, 818650, 819068, 820029, 820512, 820980, 821386, 821867, 822370, 822851, 823354, 825960, 826379, 826831, 827216, 827764]","[19, 161, 225, 9, 114, 33, 41, 92, 237, 234, 16, 42, 76, 26, 185, 34, 55, 32, 19, 61, 44, 90, 209, 100]","[813261, 813673, 814067, 814642, 815204, 816279, 816873, 817424, 818100, 818570, 819049, 819994, 820486, 820965, 821368, 821852, 822358, 822835, 823336, 825900, 826274, 826810, 827198, 827738]","[812975, 813575, 814175, 814775, 815375, 815975, 816575, 817175, 818109, 818582, 819068, 819938, 820411, 820892, 821386, 821867, 822370, 822851, 823354, 825857, 826288, 826730, 827216, 827677]",63,OR,U,R,ITMSR,1.1
3,400,trial,0,36,36,36,trial,"['S', 'S', 'S', 'S', 'S', 'S', 'S', 'S', 'C', 'C', 'C', 'C', 'C', 'C', 'C', 'C', 'C', 'C', 'C', 'C', 'C', 'C', 'C', 'C']","[833532, 833858, 834139, 834495, 834889, 835261, 835661, 836052, 836508, 836911, 837311, 837710, 838120, 838504, 838902, 839289, 839707, 840103, 840516, 840912, 841317, 841698, 842116, 842497]","[833636, 833951, 834223, 834582, 834964, 835324, 835755, 836155, 836595, 836971, 837388, 837779, 838167, 838580, 838922, 839309, 839772, 840123, 840580, 840985, 841399, 841803, 842185, 842585]","[215, 180, 214, 154, 75, 62, 167, 98, 80, 92, 155, 207, 218, 109, 37, 37, 75, 98, 77, 8, 14, 7, 251, 244]","[833540, 833863, 834144, 834501, 834895, 835267, 835712, 836059, 836516, 836917, 837317, 837716, 838122, 838510, 838907, 839293, 839712, 840111, 840523, 840919, 841321, 841744, 842126, 842508]","[833372, 833772, 834172, 834572, 834972, 835373, 835773, 836173, 836528, 836931, 837331, 837730, 838140, 838524, 838922, 839309, 839727, 840123, 840536, 840932, 841337, 841718, 842136, 842517]",63,OR,U,R,ITMSR,1.1
4,400,trial,0,37,37,37,trial,"['S', 'S', 'S', 'S', 'S', 'S', 'S', 'S', 'C', 'C', 'C', 'C', 'C', 'C', 'C', 'C', 'C', 'C', 'C', 'C', 'C', 'C', 'C', 'C']","[848570, 848832, 849067, 849461, 849835, 850225, 850590, 851002, 851396, 851802, 852188, 852570, 852970, 853336, 853729, 854147, 854513, 854893, 855269, 855650, 856022, 856387, 856737, 857127]","[848685, 848928, 849181, 849546, 849932, 850305, 850695, 851100, 851510, 851894, 852284, 852654, 853050, 853417, 853822, 854238, 854622, 854975, 855345, 855727, 856100, 856466, 856813, 857207]","[54, 198, 228, 96, 70, 211, 249, 156, 182, 7, 23, 106, 48, 49, 232, 55, 138, 52, 244, 113, 128, 34, 222, 81]","[848578, 848841, 849136, 849468, 849842, 850231, 850597, 851009, 851403, 851808, 852198, 852577, 852980, 853350, 853738, 854154, 854519, 854900, 855272, 855659, 856031, 856394, 856748, 857136]","[848300, 848699, 849099, 849499, 849899, 850299, 850699, 851099, 851416, 851822, 852208, 852590, 852990, 853356, 853749, 854167, 854533, 854914, 855289, 855670, 856042, 856408, 856757, 857147]",63,OR,U,R,ITMSR,1.1
4,600,trial,0,38,38,38,trial,"['S', 'S', 'S', 'S', 'S', 'S', 'S', 'S', 'C', 'C', 'C', 'C', 'C', 'C', 'C', 'C', 'C', 'C', 'C', 'C', 'C', 'C', 'C', 'C']","[862850, 863136, 863802, 864387, 864937, 865506, 866121, 866701, 867328, 867852, 868427, 869016, 869574, 870109, 870673, 871221, 871777, 872340, 872926, 873485, 874023, 874633, 875204, 875758]","[862959, 863258, 863884, 864460, 865042, 865598, 866201, 866804, 867415, 867951, 868526, 869104, 869672, 870201, 870771, 871319, 871872, 872434, 873013, 873580, 874130, 874713, 875303, 875868]","[51, 126, 132, 5, 3, 136, 157, 117, 79, 9, 163, 187, 180, 180, 168, 179, 147, 153, 176, 111, 110, 197, 29, 96]","[862901, 863215, 863807, 864394, 864946, 865546, 866131, 866710, 867380, 867862, 868435, 869025, 869581, 870116, 870680, 871230, 871786, 872348, 872933, 873492, 874031, 874642, 875272, 875765]","[862688, 863288, 863888, 864488, 865088, 865688, 866288, 866888, 867348, 867872, 868447, 869037, 869594, 870129, 870693, 871241, 871797, 872360, 872946, 873505, 874043, 874653, 875224, 875778]",63,OR,U,R,ITMSR,1.1
2,400,trial,0,39,39,39,trial,"['S', 'S', 'S', 'S', 'S', 'S', 'S', 'S', 'C', 'C', 'C', 'C', 'C', 'C', 'C', 'C', 'C', 'C', 'C', 'C', 'C', 'C', 'C', 'C']","[881418, 881723, 882020, 882412, 882808, 883191, 883618, 883984, 884377, 884800, 885196, 885592, 885981, 886348, 886732, 887140, 887549, 887949, 888363, 888739, 889164, 889604, 889998, 890449]","[881521, 881822, 882110, 882504, 882918, 883275, 883689, 884093, 884460, 884820, 885296, 885685, 886081, 886454, 886830, 887240, 887643, 888028, 888468, 888838, 889281, 889698, 890098, 890559]","[156, 84, 97, 141, 120, 4, 136, 102, 90, 58, 57, 148, 73, 78, 23, 18, 242, 51, 97, 226, 77, 39, 60, 102]","[881473, 881763, 882029, 882417, 882818, 883236, 883629, 883990, 884383, 884801, 885201, 885601, 885986, 886352, 886778, 887182, 887593, 887955, 888407, 888749, 889168, 889652, 890043, 890518]","[881263, 881664, 882063, 882463, 882863, 883263, 883663, 884063, 884397, 884820, 885216, 885612, 886001, 886368, 886752, 887160, 887569, 887969, 888383, 888759, 889184, 889624, 890018, 890469]",63,OR,U,R,ITMSR,1.1
2,600,trial,0,40,40,40,trial,"['S', 'S', 'S', 'S', 'S', 'S', 'S', 'S', 'C', 'C', 'C', 'C', 'C', 'C', 'C', 'C', 'C', 'C', 'C', 'C', 'C', 'C', 'C', 'C']","[896419, 896713, 897326, 897909, 898523, 899092, 899663, 900285, 900855, 901426, 901972, 902526, 903068, 903646, 904213, 904785, 905391, 905934, 906483, 907053, 907645, 908193, 908765, 909284]","[896501, 896801, 897377, 897994, 898605, 899184, 899745, 900383, 900971, 901494, 902071, 902637, 903181, 903770, 904322, 904883, 905477, 906051, 906575, 907151, 907712, 908289, 908834, 909373]","[193, 133, 165, 238, 181, 209, 46, 184, 113, 250, 63, 106, 140, 137, 78, 230, 117, 161, 223, 188, 9, 26, 93, 38]","[896458, 896755, 897334, 897916, 898531, 899100, 899670, 900293, 900934, 901464, 901978, 902567, 903113, 903654, 904279, 904793, 905431, 906010, 906491, 907061, 907653, 908234, 908773, 909325]","[896239, 896839, 897439, 898039, 898639, 899239, 899840, 900440, 900875, 901446, 901992, 902546, 903088, 903666, 904233, 904805, 905411, 905954, 906503, 907073, 907665, 908213, 908785, 909304]",63,OR,U,R,ITMSR,1.1
4,600,trial,0,41,41,41,trial,"['S', 'S', 'S', 'S', 'S', 'S', 'S', 'S', 'C', 'C', 'C', 'C', 'C', 'C', 'C', 'C', 'C', 'C', 'C', 'C', 'C', 'C', 'C', 'C']","[915282, 915667, 916062, 916637, 917225, 917819, 918388, 918970, 919565, 920091, 920710, 921298, 921877, 922436, 923023, 923565, 924174, 924749, 925324, 925921, 926439, 927014, 927561, 928139]","[915366, 915768, 916154, 916710, 917304, 917906, 918494, 919072, 919681, 920186, 920766, 921374, 921957, 922530, 923043, 923585, 924200, 924777, 925344, 925985, 926459, 927034, 927587, 928163]","[167, 228, 249, 51, 219, 173, 118, 129, 133, 70, 111, 42, 42, 22, 108, 141, 135, 70, 70, 149, 56, 71, 85, 86]","[915293, 915675, 916070, 916644, 917234, 917828, 918398, 918979, 919639, 920130, 920747, 921341, 921885, 922472, 923028, 923570, 924179, 924750, 925328, 925949, 926439, 927015, 927565, 928142]","[914942, 915543, 916142, 916742, 917342, 917942, 918542, 919142, 919585, 920111, 920730, 921318, 921897, 922456, 923043, 923585, 924194, 924769, 925344, 925941, 926459, 927034, 927581, 928159]",63,OR,U,R,ITMSR,1.1
1,400,trial,0,42,42,42,trial,"['S', 'S', 'S', 'S', 'S', 'S', 'S', 'S', 'C', 'C', 'C', 'C', 'C', 'C', 'C', 'C', 'C', 'C', 'C', 'C', 'C', 'C', 'C', 'C']","[933795, 934114, 934377, 934749, 935163, 935532, 935939, 936349, 936765, 937144, 937563, 937976, 938402, 938754, 939189, 939614, 940033, 940452, 940862, 941266, 941658, 942098, 942531, 942923]","[933896, 934205, 934477, 934816, 935221, 935607, 935992, 936432, 936840, 937213, 937637, 938056, 938486, 938856, 939296, 939721, 940126, 940547, 940965, 941368, 941780, 942200, 942624, 943044]","[110, 127, 15, 231, 53, 238, 204, 79, 63, 20, 239, 13, 243, 254, 60, 69, 6, 21, 24, 5, 29, 24, 26, 34]","[933835, 934122, 934422, 934760, 935173, 935535, 935946, 936356, 936771, 937152, 937571, 937987, 938414, 938760, 939230, 939688, 940045, 940495, 940924, 941309, 941731, 942143, 942568, 942991]","[933608, 934007, 934407, 934807, 935207, 935607, 936007, 936408, 936785, 937164, 937583, 937996, 938422, 938774, 939209, 939634, 940053, 940472, 940882, 941286, 941678, 942118, 942552, 942943]",63,OR,U,R,ITMSR,1.1
3,600,trial,0,43,43,43,trial,"['S', 'S', 'S', 'S', 'S', 'S', 'S', 'S', 'C', 'C', 'C', 'C', 'C', 'C', 'C', 'C', 'C', 'C', 'C', 'C', 'C', 'C', 'C', 'C']","[948664, 948933, 949560, 950125, 950699, 951354, 951947, 952521, 953140, 953664, 954289, 954849, 955426, 955971, 956556, 957131, 957724, 958314, 958881, 959450, 960033, 960610, 961190, 961759]","[948758, 949038, 949652, 950235, 950816, 951443, 952018, 952624, 953243, 953764, 954376, 954948, 955523, 956068, 956651, 957236, 957838, 958417, 958979, 959470, 960053, 960708, 961287, 961859]","[51, 124, 166, 97, 200, 4, 173, 166, 150, 159, 139, 216, 56, 118, 134, 182, 152, 187, 81, 135, 196, 208, 34, 185]","[948674, 948941, 949565, 950134, 950706, 951395, 951958, 952530, 953203, 953673, 954298, 954857, 955493, 956011, 956565, 957142, 957729, 958321, 958955, 959455, 960038, 960616, 961199, 961761]","[948461, 949060, 949660, 950260, 950860, 951460, 952060, 952660, 953160, 953684, 954309, 954869, 955446, 955992, 956576, 957151, 957744, 958334, 958901, 959470, 960053, 960630, 961210, 961779]",63,OR,U,R,ITMSR,1.1
1,600,trial,0,44,44,44,trial,"['S', 'S', 'S', 'S', 'S', 'S', 'S', 'S', 'S', 'C', 'C', 'C', 'C', 'C', 'C', 'C', 'C', 'C', 'C', 'C', 'C', 'C', 'C', 'C', 'C', 'C']","[967395, 967714, 967814, 968305, 968843, 969404, 969992, 971143, 971243, 972303, 972831, 973392, 973933, 974479, 975008, 975558, 976090, 976647, 976747, 977226, 977754, 978274, 978809, 979348, 979911, 980436]","[967465, 967734, 967838, 968384, 968863, 969478, 970078, 971163, 971264, 972425, 972936, 973477, 974042, 974586, 975118, 975683, 976231, 976667, 976768, 977320, 977876, 978396, 978914, 979497, 980039, 980577]","[157, 153, 6, 224, 23, 203, 39, 47, 81, 34, 183, 167, 207, 155, 90, 23, 145, 30, 144, 251, 45, 131, 214, 196, 213, 182]","[967400, 967719, 967814, 968312, 968850, 969411, 970035, 971146, 971243, 972310, 972836, 973398, 973940, 974485, 975014, 975628, 976165, 976653, 976747, 977232, 977761, 978281, 978811, 979385, 979913, 980517]","[967220, 967820, 968420, 969020, 969620, 970220, 970820, 971420, 972323, 972851, 973412, 973954, 974499, 975028, 975578, 976110, 976667, 977246, 977774, 978294, 978829, 979368, 979931, 980456]",63,OR,U,R,ITMSR,1.1
0,400,trial,0,45,45,45,trial,"['S', 'S', 'S', 'S', 'S', 'S', 'S', 'S', 'C', 'C', 'C', 'C', 'C', 'C', 'C', 'C', 'C', 'C', 'C', 'C', 'C', 'C', 'C', 'C']","[986155, 986441, 986701, 987069, 987436, 987803, 988211, 988623, 989029, 989387, 989763, 990141, 990526, 990932, 991364, 991770, 992181, 992556, 992971, 993373, 993766, 994176, 994588, 994997]","[986210, 986521, 986813, 987176, 987540, 987895, 988308, 988717, 989106, 989480, 989833, 990214, 990604, 991013, 991384, 991851, 992237, 992643, 993051, 993453, 993843, 994196, 994659, 995017]","[64, 229, 178, 197, 156, 66, 99, 62, 51, 219, 192, 188, 189, 223, 57, 138, 136, 187, 208, 154, 172, 191, 207, 131]","[986161, 986446, 986764, 987130, 987496, 987855, 988254, 988665, 989068, 989392, 989767, 990148, 990531, 990938, 991370, 991774, 992186, 992599, 992976, 993377, 993772, 994182, 994627, 995001]","[985927, 986328, 986728, 987128, 987528, 987928, 988328, 988728, 989049, 989407, 989784, 990161, 990546, 990952, 991384, 991790, 992201, 992576, 992991, 993393, 993786, 994196, 994608, 995017]",63,OR,U,R,ITMSR,1.1
0,600,trial,0,46,46,46,trial,"['S', 'S', 'S', 'S', 'S', 'S', 'S', 'S', 'C', 'C', 'C', 'C', 'C', 'C', 'C', 'C', 'C', 'C', 'C', 'C', 'C', 'C', 'C', 'C', 'C']","[1001010, 1001281, 1001802, 1002428, 1003026, 1003582, 1004195, 1004780, 1005377, 1005932, 1006034, 1006493, 1007016, 1007596, 1008177, 1008723, 1009282, 1009862, 1010413, 1010991, 1011523, 1012096, 1012696, 1013225, 1013788]","[1001089, 1001403, 1001893, 1002490, 1003075, 1003664, 1004299, 1004879, 1005471, 1005953, 1006054, 1006588, 1007134, 1007706, 1008276, 1008815, 1009384, 1009959, 1010518, 1011104, 1011639, 1012185, 1012757, 1013340, 1013843]","[187, 217, 45, 104, 60, 219, 172, 206, 203, 112, 69, 223, 43, 143, 155, 124, 144, 156, 164, 155, 139, 102, 95, 124, 72]","[1001055, 1001344, 1001845, 1002435, 1003062, 1003586, 1004248, 1004845, 1005440, 1005936, 1006034, 1006550, 1007086, 1007603, 1008182, 1008779, 1009287, 1009869, 1010437, 1010995, 1011551, 1012128, 1012733, 1013294, 1013821]","[1000755, 1001354, 1001954, 1002554, 1003154, 1003754, 1004354, 1004954, 1005398, 1005953, 1006513, 1007036, 1007617, 1008197, 1008743, 1009302, 1009882, 1010434, 1011011, 1011544, 1012116, 1012716, 1013245, 1013808]",63,OR,U,R,ITMSR,1.1
5,400,trial,0,47,47,47,trial,"['S', 'S', 'S', 'S', 'S', 'S', 'S', 'C', 'C', 'C', 'C', 'C', 'C', 'C', 'C', 'C', 'C', 'C', 'C', 'C', 'C', 'C', 'C']","[1019758, 1020148, 1020551, 1020946, 1021335, 1021737, 1022155, 1022543, 1022928, 1023315, 1023715, 1024074, 1024439, 1024816, 1025209, 1025989, 1026383, 1026797, 1027162, 1027542, 1027930, 1028316, 1028699]","[1019855, 1020251, 1020641, 1021033, 1021415, 1021827, 1022199, 1022563, 1022948, 1023335, 1023739, 1024094, 1024506, 1024836, 1025229, 1026105, 1026525, 1026936, 1027306, 1027684, 1028073, 1028473, 1028862]","[213, 4, 53, 200, 111, 134, 27, 24, 89, 61, 47, 62, 93, 102, 32, 6, 74, 242, 191, 215, 249, 13, 234]","[1019796, 1020193, 1020557, 1020952, 1021337, 1021790, 1022188, 1022545, 1022931, 1023318, 1023721, 1024075, 1024442, 1024819, 1025211, 1026057, 1026467, 1026865, 1027248, 1027630, 1028004, 1028407, 1028801]","[1019428, 1019827, 1020227, 1020627, 1021027, 1021427, 1021827, 1022227, 1022563, 1022948, 1023335, 1023735, 1024094, 1024459, 1024836, 1025229, 1026009, 1026403, 1026818, 1027182, 1027562, 1027950, 1028336, 1028719]",63,OR,U,R,ITMSR,1.1
2,400,trial,0,48,48,48,trial,"['S', 'S', 'S', 'S', 'S', 'S', 'S', 'S', 'C', 'C', 'C', 'C', 'C', 'C', 'C', 'C', 'C', 'C', 'C', 'C', 'C', 'C', 'C', 'C']","[1034327, 1034607, 1034897, 1035295, 1035687, 1036071, 1036440, 1036843, 1037247, 1037646, 1038027, 1038403, 1038801, 1039166, 1039553, 1039926, 1040315, 1040701, 1041092, 1041468, 1041830, 1042207, 1042599, 1042971]","[1034437, 1034737, 1035038, 1035427, 1035833, 1036204, 1036585, 1036960, 1037369, 1037743, 1038137, 1038509, 1038897, 1039269, 1039644, 1040029, 1040406, 1040805, 1041187, 1041582, 1041943, 1042310, 1042710, 1043056]","[66, 136, 158, 173, 185, 62, 94, 12, 26, 86, 131, 248, 153, 211, 118, 197, 125, 229, 213, 174, 200, 183, 189, 136]","[1034382, 1034676, 1034971, 1035360, 1035769, 1036140, 1036513, 1036911, 1037322, 1037703, 1038087, 1038410, 1038860, 1039171, 1039555, 1039931, 1040320, 1040707, 1041099, 1041514, 1041890, 1042214, 1042668, 1042975]","[1034155, 1034554, 1034954, 1035354, 1035754, 1036154, 1036554, 1036954, 1037267, 1037666, 1038047, 1038424, 1038821, 1039186, 1039574, 1039946, 1040335, 1040721, 1041112, 1041488, 1041850, 1042227, 1042619, 1042991]",63,OR,U,R,ITMSR,1.1
1,600,trial,0,49,49,49,trial,"['S', 'S', 'S', 'S', 'S', 'S', 'S', 'S', 'C', 'C', 'C', 'C', 'C', 'C', 'C', 'C', 'C', 'C', 'C', 'C', 'C', 'C', 'C', 'C']","[1048534, 1048802, 1049443, 1050046, 1050654, 1051217, 1051796, 1052433, 1053025, 1053541, 1054107, 1054645, 1055202, 1055725, 1056288, 1056821, 1057370, 1057923, 1058457, 1059010, 1059547, 1060084, 1060629, 1061179]","[1048609, 1048951, 1049560, 1050159, 1050746, 1051333, 1051970, 1052585, 1053171, 1053696, 1054237, 1054799, 1055344, 1055886, 1056420, 1056966, 1057514, 1058075, 1058615, 1059174, 1059726, 1060261, 1060798, 1061364]","[157, 88, 138, 66, 250, 203, 215, 16, 206, 171, 99, 135, 81, 170, 134, 136, 140, 30, 22, 246, 76, 76, 82, 52]","[1048540, 1048888, 1049507, 1050052, 1050660, 1051282, 1051906, 1052517, 1053112, 1053628, 1054170, 1054734, 1055284, 1055802, 1056374, 1056892, 1057453, 1058009, 1058539, 1059107, 1059649, 1060177, 1060722, 1061275]","[1048355, 1048954, 1049554, 1050155, 1050754, 1051354, 1051954, 1052554, 1053045, 1053561, 1054127, 1054665, 1055222, 1055746, 1056308, 1056841, 1057390, 1057943, 1058477, 1059031, 1059567, 1060104, 1060649, 1061199]",63,OR,U,R,ITMSR,1.1
1,400,trial,0,50,50,50,trial,"['S', 'S', 'S', 'S', 'S', 'S', 'S', 'S', 'C', 'C', 'C', 'C', 'C', 'C', 'C', 'C', 'C', 'C', 'C', 'C', 'C', 'C', 'C', 'C']","[1066748, 1067052, 1067358, 1067732, 1068126, 1068494, 1068882, 1069303, 1069727, 1070129, 1070520, 1070932, 1071325, 1071727, 1072129, 1072890, 1073274, 1073686, 1074095, 1074499, 1074871, 1075260, 1075675, 1076072]","[1066852, 1067183, 1067505, 1067854, 1068229, 1068573, 1068973, 1069399, 1069829, 1070220, 1070628, 1071031, 1071422, 1071817, 1072215, 1072997, 1073418, 1073823, 1074228, 1074625, 1075009, 1075393, 1075803, 1076182]","[165, 177, 204, 63, 208, 13, 31, 48, 94, 0, 51, 209, 0, 191, 250, 142, 179, 118, 111, 30, 81, 58, 204, 170]","[1066801, 1067124, 1067432, 1067789, 1068168, 1068533, 1068924, 1069349, 1069773, 1070171, 1070526, 1070983, 1071330, 1071733, 1072135, 1072897, 1073354, 1073758, 1074167, 1074567, 1074960, 1075328, 1075750, 1076135]","[1066595, 1066995, 1067395, 1067795, 1068195, 1068595, 1068995, 1069395, 1069747, 1070149, 1070540, 1070952, 1071345, 1071747, 1072149, 1072910, 1073294, 1073707, 1074115, 1074520, 1074891, 1075280, 1075695, 1076092]",63,OR,U,R,ITMSR,1.1
5,600,trial,0,51,51,51,trial,"['S', 'S', 'S', 'S', 'S', 'S', 'S', 'S', 'C', 'C', 'C', 'C', 'C', 'C', 'C', 'C', 'C', 'C', 'C', 'C', 'C', 'C', 'C', 'C']","[1081715, 1081971, 1082639, 1083244, 1083835, 1084418, 1085059, 1085637, 1086222, 1086785, 1087342, 1087879, 1088453, 1089009, 1089563, 1090128, 1090712, 1091260, 1091813, 1092369, 1092901, 1093472, 1094006, 1094551]","[1081829, 1082184, 1082800, 1083380, 1083990, 1084584, 1085223, 1085802, 1086390, 1086958, 1087511, 1088051, 1088616, 1089183, 1089740, 1090307, 1090893, 1091439, 1091997, 1092557, 1093098, 1093667, 1094201, 1094753]","[225, 247, 60, 83, 152, 251, 200, 167, 0, 215, 205, 205, 88, 147, 115, 177, 131, 148, 184, 96, 147, 124, 135, 122]","[1081780, 1082055, 1082719, 1083308, 1083914, 1084511, 1085147, 1085726, 1086321, 1086881, 1087428, 1087972, 1088548, 1089107, 1089665, 1090226, 1090814, 1091358, 1091908, 1092469, 1093006, 1093571, 1094106, 1094669]","[1081558, 1082157, 1082757, 1083357, 1083957, 1084557, 1085157, 1085757, 1086242, 1086806, 1087362, 1087899, 1088473, 1089029, 1089583, 1090148, 1090733, 1091280, 1091833, 1092389, 1092921, 1093492, 1094026, 1094572]",63,OR,U,R,ITMSR,1.1
4,400,trial,0,52,52,52,trial,"['S', 'S', 'S', 'S', 'S', 'S', 'S', 'S', 'C', 'C', 'C', 'C', 'C', 'C', 'C', 'C', 'C', 'C', 'C', 'C', 'C', 'C', 'C', 'C']","[1100436, 1100712, 1101014, 1101396, 1101779, 1102194, 1102601, 1103020, 1103411, 1103793, 1104169, 1104550, 1104972, 1105351, 1105754, 1106145, 1106543, 1106938, 1107337, 1107716, 1108101, 1108494, 1108887, 1109294]","[1100545, 1100822, 1101147, 1101501, 1101870, 1102301, 1102717, 1103118, 1103542, 1103924, 1104289, 1104679, 1105076, 1105484, 1105878, 1106277, 1106649, 1107050, 1107448, 1107831, 1108221, 1108601, 1109004, 1109415]","[254, 112, 22, 227, 173, 167, 216, 107, 16, 29, 227, 223, 58, 25, 93, 216, 84, 126, 226, 133, 131, 22, 125, 158]","[1100502, 1100718, 1101021, 1101437, 1101821, 1102248, 1102661, 1103064, 1103480, 1103858, 1104232, 1104622, 1105028, 1105423, 1105829, 1106215, 1106610, 1107002, 1107396, 1107786, 1108165, 1108545, 1108956, 1109361]","[1100260, 1100659, 1101059, 1101459, 1101859, 1102259, 1102659, 1103059, 1103431, 1103813, 1104189, 1104570, 1104992, 1105371, 1105774, 1106165, 1106563, 1106958, 1107357, 1107736, 1108121, 1108514, 1108908, 1109314]",63,OR,U,R,ITMSR,1.1
3,400,trial,0,53,53,53,trial,"['S', 'S', 'S', 'S', 'S', 'S', 'S', 'S', 'C', 'C', 'C', 'C', 'C', 'C', 'C', 'C', 'C', 'C', 'C', 'C', 'C', 'C', 'C', 'C']","[1115196, 1115478, 1115798, 1116207, 1116595, 1116956, 1117355, 1117755, 1118170, 1118543, 1118965, 1119353, 1119742, 1120128, 1120512, 1120905, 1121292, 1121653, 1122074, 1122470, 1122868, 1123240, 1123606, 1123974]","[1115297, 1115596, 1115939, 1116343, 1116712, 1117096, 1117472, 1117858, 1118240, 1118645, 1119049, 1119451, 1119840, 1120195, 1120599, 1120970, 1121343, 1121716, 1122094, 1122537, 1122936, 1123309, 1123651, 1124035]","[177, 79, 86, 80, 2, 74, 208, 172, 148, 143, 216, 48, 49, 83, 138, 88, 109, 90, 38, 93, 118, 68, 40, 60]","[1115241, 1115483, 1115873, 1116269, 1116658, 1117018, 1117405, 1117812, 1118210, 1118583, 1119012, 1119394, 1119802, 1120172, 1120557, 1120942, 1121295, 1121693, 1122075, 1122503, 1122909, 1123279, 1123639, 1124021]","[1115043, 1115442, 1115842, 1116242, 1116642, 1117042, 1117442, 1117842, 1118190, 1118563, 1118985, 1119373, 1119762, 1120148, 1120532, 1120925, 1121312, 1121673, 1122094, 1122490, 1122888, 1123260, 1123627, 1123994]",63,OR,U,R,ITMSR,1.1
0,400,trial,0,54,54,54,trial,"['S', 'S', 'S', 'S', 'S', 'S', 'S', 'C', 'C', 'C', 'C', 'C', 'C', 'C', 'C', 'C', 'C', 'C', 'C', 'C', 'C', 'C', 'C']","[1148636, 1149029, 1149462, 1149852, 1150232, 1150663, 1151075, 1151447, 1151828, 1152210, 1152587, 1152993, 1153362, 1153737, 1154142, 1154527, 1154927, 1155305, 1155702, 1156085, 1156463, 1156837, 1157203]","[1148736, 1149121, 1149542, 1149944, 1150322, 1150737, 1151158, 1151538, 1151923, 1152312, 1152675, 1153079, 1153462, 1153848, 1154241, 1154622, 1155019, 1155403, 1155808, 1156187, 1156553, 1156928, 1157308]","[185, 237, 216, 202, 86, 24, 177, 145, 144, 95, 128, 57, 66, 138, 254, 67, 234, 37, 84, 163, 165, 4, 188]","[1148642, 1149035, 1149468, 1149858, 1150238, 1150668, 1151081, 1151452, 1151835, 1152217, 1152594, 1153000, 1153370, 1153744, 1154149, 1154534, 1154933, 1155311, 1155709, 1156092, 1156470, 1156843, 1157211]","[1148300, 1148700, 1149101, 1149501, 1149901, 1150301, 1150701, 1151101, 1151467, 1151848, 1152230, 1152607, 1153013, 1153382, 1153757, 1154162, 1154547, 1154947, 1155325, 1155722, 1156105, 1156483, 1156857, 1157223]",63,OR,U,R,ITMSR,1.1
1,400,trial,0,55,55,55,trial,"['S', 'S', 'S', 'S', 'S', 'S', 'S', 'S', 'C', 'C', 'C', 'C', 'C', 'C', 'C', 'C', 'C', 'C', 'C', 'C', 'C', 'C', 'C', 'C']","[1163009, 1163242, 1163522, 1163914, 1164296, 1164666, 1165045, 1165440, 1165841, 1166219, 1166598, 1166983, 1167348, 1167731, 1168115, 1168495, 1168889, 1169263, 1169655, 1170024, 1170418, 1170770, 1171151, 1171503]","[1163101, 1163332, 1163632, 1163997, 1164390, 1164767, 1165154, 1165539, 1165938, 1166313, 1166684, 1167065, 1167429, 1167810, 1168205, 1168586, 1168987, 1169357, 1169745, 1170107, 1170498, 1170853, 1171235, 1171601]","[98, 145, 143, 62, 49, 17, 251, 35, 113, 4, 173, 126, 49, 67, 69, 87, 137, 89, 114, 235, 21, 228, 181, 117]","[1163018, 1163293, 1163528, 1163921, 1164301, 1164673, 1165051, 1165445, 1165847, 1166224, 1166603, 1166989, 1167352, 1167738, 1168122, 1168501, 1168897, 1169269, 1169660, 1170029, 1170424, 1170777, 1171154, 1171562]","[1162783, 1163183, 1163583, 1163983, 1164383, 1164783, 1165184, 1165583, 1165861, 1166239, 1166618, 1167003, 1167368, 1167751, 1168135, 1168515, 1168909, 1169283, 1169675, 1170044, 1170438, 1170790, 1171171, 1171523]",63,OR,U,R,ITMSR,1.1
4,400,trial,0,56,56,56,trial,"['S', 'S', 'S', 'S', 'S', 'S', 'S', 'C', 'C', 'C', 'C', 'C', 'C', 'C', 'C', 'C', 'C', 'C', 'C', 'C', 'C', 'C', 'C']","[1177452, 1177929, 1178331, 1178743, 1179163, 1179555, 1179929, 1180337, 1180718, 1181118, 1181508, 1181924, 1182313, 1182699, 1183090, 1183484, 1183905, 1184281, 1184698, 1185090, 1185470, 1185843, 1186237]","[1177573, 1178048, 1178455, 1178850, 1179254, 1179660, 1180037, 1180430, 1180821, 1181210, 1181596, 1182020, 1182419, 1182791, 1183192, 1183540, 1183973, 1184380, 1184795, 1185187, 1185564, 1185963, 1186357]","[127, 185, 205, 170, 42, 143, 23, 186, 105, 6, 98, 88, 124, 110, 184, 236, 30, 29, 41, 98, 28, 117, 251]","[1177518, 1177936, 1178338, 1178750, 1179209, 1179563, 1179936, 1180344, 1180725, 1181123, 1181514, 1181932, 1182321, 1182706, 1183096, 1183490, 1183908, 1184283, 1184703, 1185097, 1185474, 1185914, 1186242]","[1177212, 1177612, 1178012, 1178413, 1178813, 1179213, 1179613, 1180013, 1180357, 1180738, 1181138, 1181528, 1181944, 1182333, 1182720, 1183110, 1183504, 1183925, 1184301, 1184718, 1185111, 1185490, 1185863, 1186257]",63,OR,U,R,ITMSR,1.1
2,600,trial,0,57,57,57,trial,"['S', 'S', 'S', 'S', 'S', 'S', 'S', 'S', 'C', 'C', 'C', 'C', 'C', 'C', 'C', 'C', 'C', 'C', 'C', 'C', 'C', 'C', 'C', 'C']","[1192186, 1192625, 1192956, 1193613, 1194211, 1194754, 1195366, 1195988, 1196562, 1197083, 1197649, 1198163, 1198707, 1199248, 1199784, 1200303, 1200851, 1201404, 1201971, 1202504, 1203055, 1203604, 1204152, 1204695]","[1192311, 1192732, 1193103, 1193738, 1194340, 1194899, 1195503, 1196123, 1196690, 1197214, 1197770, 1198300, 1198835, 1199368, 1199909, 1200443, 1200988, 1201538, 1202111, 1202664, 1203212, 1203767, 1204306, 1204824]","[206, 186, 228, 111, 164, 127, 94, 241, 3, 204, 239, 240, 208, 135, 102, 228, 14, 182, 31, 252, 220, 201, 254, 170]","[1192260, 1192633, 1192964, 1193619, 1194216, 1194761, 1195372, 1195996, 1196570, 1197091, 1197659, 1198171, 1198716, 1199257, 1199795, 1200311, 1200860, 1201414, 1201979, 1202512, 1203063, 1203612, 1204160, 1204704]","[1191927, 1192527, 1193127, 1193728, 1194328, 1194928, 1195528, 1196128, 1196582, 1197103, 1197669, 1198183, 1198727, 1199268, 1199804, 1200323, 1200871, 1201424, 1201991, 1202524, 1203075, 1203624, 1204172, 1204715]",63,OR,U,R,ITMSR,1.1
5,400,trial,0,58,58,58,trial,"['S', 'S', 'S', 'S', 'S', 'S', 'S', 'C', 'C', 'C', 'C', 'C', 'C', 'C', 'C', 'C', 'C', 'C', 'C', 'C', 'C', 'C', 'C']","[1210364, 1210802, 1211224, 1211638, 1212032, 1212410, 1212807, 1213233, 1213624, 1214023, 1214413, 1214828, 1215212, 1215597, 1215976, 1216394, 1216787, 1217154, 1217544, 1217938, 1218308, 1218690, 1219061]","[1210505, 1210927, 1211342, 1211741, 1212142, 1212532, 1212910, 1213332, 1213723, 1214146, 1214540, 1214930, 1215346, 1215741, 1216114, 1216507, 1216890, 1217273, 1217648, 1218056, 1218437, 1218801, 1219189]","[137, 221, 212, 10, 254, 214, 133, 95, 25, 52, 95, 62, 98, 60, 54, 56, 80, 56, 52, 127, 59, 24, 46]","[1210440, 1210810, 1211233, 1211646, 1212039, 1212419, 1212816, 1213240, 1213628, 1214030, 1214419, 1214833, 1215223, 1215604, 1215981, 1216398, 1216796, 1217159, 1217551, 1217946, 1218314, 1218698, 1219072]","[1210106, 1210505, 1210905, 1211305, 1211705, 1212105, 1212505, 1212905, 1213253, 1213644, 1214043, 1214433, 1214849, 1215233, 1215618, 1215996, 1216414, 1216807, 1217174, 1217564, 1217958, 1218328, 1218710, 1219081]",63,OR,U,R,ITMSR,1.1
4,600,trial,0,59,59,59,trial,"['S', 'S', 'S', 'S', 'S', 'S', 'S', 'S', 'C', 'C', 'C', 'C', 'C', 'C', 'C', 'C', 'C', 'C', 'C', 'C', 'C', 'C', 'C', 'C']","[1224881, 1225374, 1225659, 1226306, 1226896, 1227489, 1228085, 1228678, 1229274, 1229851, 1230447, 1231006, 1231562, 1232158, 1232706, 1233276, 1233874, 1234426, 1234988, 1235517, 1236126, 1236711, 1237266, 1237813]","[1225044, 1225472, 1225824, 1226436, 1227055, 1227628, 1228221, 1228827, 1229428, 1230006, 1230601, 1231139, 1231708, 1232303, 1232856, 1233429, 1234006, 1234560, 1235125, 1235685, 1236286, 1236868, 1237420, 1237980]","[10, 62, 90, 165, 82, 8, 4, 177, 227, 254, 245, 45, 204, 214, 13, 174, 139, 114, 87, 175, 176, 12, 39, 212]","[1224972, 1225387, 1225665, 1226311, 1226972, 1227497, 1228162, 1228687, 1229356, 1229859, 1230455, 1231014, 1231632, 1232167, 1232779, 1233355, 1233882, 1234505, 1235069, 1235621, 1236216, 1236797, 1237343, 1237821]","[1224612, 1225211, 1225811, 1226412, 1227011, 1227611, 1228211, 1228811, 1229294, 1229871, 1230467, 1231026, 1231582, 1232178, 1232727, 1233296, 1233894, 1234446, 1235008, 1235537, 1236146, 1236731, 1237286, 1237833]",63,OR,U,R,ITMSR,1.1
3,600,trial,0,60,60,60,trial,"['S', 'S', 'S', 'S', 'S', 'S', 'S', 'S', 'C', 'C', 'C', 'C', 'C', 'C', 'C', 'C', 'C', 'C', 'C', 'C', 'C', 'C', 'C', 'C']","[1243732, 1244073, 1244637, 1245221, 1245830, 1246407, 1246993, 1247576, 1248197, 1248746, 1249286, 1249828, 1250338, 1250835, 1251383, 1251919, 1252453, 1252968, 1253453, 1253963, 1254459, 1254985, 1255479, 1256027]","[1243868, 1244295, 1244814, 1245393, 1245993, 1246562, 1247133, 1247737, 1248323, 1248892, 1249415, 1249941, 1250459, 1250991, 1251523, 1252044, 1252570, 1253101, 1253602, 1254097, 1254594, 1255118, 1255654, 1256138]","[163, 137, 232, 166, 212, 200, 167, 61, 198, 148, 142, 67, 218, 18, 254, 21, 15, 10, 8, 45, 217, 253, 4, 222]","[1243797, 1244163, 1244645, 1245231, 1245837, 1246415, 1247071, 1247584, 1248204, 1248753, 1249292, 1249836, 1250413, 1250896, 1251390, 1251924, 1252458, 1253033, 1253547, 1253970, 1254544, 1255077, 1255486, 1256032]","[1243569, 1244169, 1244769, 1245369, 1245969, 1246569, 1247169, 1247769, 1248217, 1248766, 1249306, 1249848, 1250358, 1250855, 1251403, 1251939, 1252473, 1252988, 1253473, 1253983, 1254479, 1255005, 1255499, 1256047]",63,OR,U,R,ITMSR,1.1
0,400,trial,0,61,61,61,trial,"['S', 'S', 'S', 'S', 'S', 'S', 'S', 'S', 'C', 'C', 'C', 'C', 'C', 'C', 'C', 'C', 'C', 'C', 'C', 'C', 'C', 'C', 'C', 'C']","[1262004, 1262321, 1262622, 1262995, 1263377, 1263774, 1264192, 1264574, 1264995, 1265354, 1265757, 1266162, 1266548, 1266925, 1267326, 1267756, 1268167, 1268540, 1268914, 1269313, 1269696, 1270082, 1270469, 1270854]","[1262128, 1262414, 1262733, 1263083, 1263459, 1263794, 1264280, 1264674, 1265059, 1265440, 1265841, 1266252, 1266648, 1267027, 1267417, 1267847, 1268245, 1268628, 1269008, 1269397, 1269781, 1270167, 1270568, 1270934]","[226, 170, 147, 118, 174, 245, 188, 131, 35, 102, 65, 29, 82, 221, 69, 149, 100, 230, 227, 13, 42, 66, 34, 65]","[1262061, 1262327, 1262628, 1263001, 1263382, 1263780, 1264197, 1264580, 1265002, 1265360, 1265763, 1266167, 1266554, 1266996, 1267334, 1267762, 1268173, 1268545, 1268961, 1269317, 1269701, 1270088, 1270474, 1270859]","[1261816, 1262216, 1262616, 1263016, 1263416, 1263816, 1264216, 1264616, 1265015, 1265374, 1265777, 1266182, 1266568, 1266946, 1267346, 1267776, 1268187, 1268560, 1268934, 1269334, 1269716, 1270103, 1270489, 1270874]",63,OR,U,R,ITMSR,1.1
5,600,trial,0,62,62,62,trial,"['S', 'S', 'S', 'S', 'S', 'S', 'S', 'S', 'C', 'C', 'C', 'C', 'C', 'C', 'C', 'C', 'C', 'C', 'C', 'C', 'C', 'C', 'C', 'C', 'C']","[1276555, 1276824, 1277517, 1278108, 1278681, 1279226, 1279836, 1280429, 1281030, 1281562, 1282131, 1282696, 1283239, 1283762, 1284326, 1284884, 1285420, 1285943, 1286496, 1286596, 1287023, 1287540, 1288077, 1288613, 1289140]","[1276644, 1276936, 1277629, 1278222, 1278788, 1279372, 1279985, 1280577, 1281173, 1281725, 1282288, 1282830, 1283372, 1283915, 1284455, 1285014, 1285572, 1286083, 1286516, 1286616, 1287153, 1287673, 1288221, 1288748, 1289285]","[149, 152, 53, 226, 239, 40, 40, 15, 23, 174, 1, 238, 47, 57, 251, 82, 201, 72, 120, 85, 170, 42, 2, 10, 7]","[1276598, 1276830, 1277524, 1278116, 1278688, 1279235, 1279843, 1280436, 1281116, 1281568, 1282138, 1282704, 1283247, 1283769, 1284332, 1284889, 1285426, 1285949, 1286502, 1286596, 1287030, 1287546, 1288084, 1288620, 1289146]","[1276380, 1276980, 1277580, 1278180, 1278780, 1279380, 1279980, 1280580, 1281050, 1281582, 1282151, 1282716, 1283259, 1283782, 1284346, 1284904, 1285440, 1285963, 1286516, 1287043, 1287560, 1288097, 1288633, 1289160]",63,OR,U,R,ITMSR,1.1
5,400,trial,0,63,63,63,trial,"['S', 'S', 'S', 'S', 'S', 'S', 'S', 'S', 'C', 'C', 'C', 'C', 'C', 'C', 'C', 'C', 'C', 'C', 'C', 'C', 'C', 'C', 'C', 'C']","[1294918, 1295200, 1295468, 1295870, 1296278, 1296655, 1297065, 1297445, 1297852, 1298239, 1298621, 1299005, 1299392, 1299791, 1300177, 1300532, 1300933, 1301304, 1301707, 1302046, 1302463, 1302846, 1303239, 1303616]","[1295009, 1295308, 1295586, 1295978, 1296372, 1296760, 1297168, 1297570, 1297970, 1298331, 1298712, 1299091, 1299486, 1299884, 1300275, 1300643, 1301035, 1301403, 1301809, 1302166, 1302542, 1302949, 1303324, 1303695]","[45, 126, 100, 98, 20, 63, 215, 249, 16, 66, 111, 226, 13, 187, 206, 35, 36, 31, 6, 248, 240, 41, 31, 8]","[1294924, 1295206, 1295523, 1295925, 1296284, 1296660, 1297072, 1297496, 1297898, 1298288, 1298626, 1299008, 1299397, 1299849, 1300184, 1300539, 1300939, 1301310, 1301712, 1302050, 1302467, 1302852, 1303244, 1303619]","[1294731, 1295131, 1295532, 1295931, 1296331, 1296731, 1297131, 1297531, 1297872, 1298259, 1298641, 1299025, 1299412, 1299811, 1300197, 1300552, 1300953, 1301324, 1301727, 1302066, 1302483, 1302866, 1303259, 1303636]",63,OR,U,R,ITMSR,1.1
1,600,trial,0,64,64,64,trial,"['S', 'S', 'S', 'S', 'S', 'S', 'S', 'S', 'C', 'C', 'C', 'C', 'C', 'C', 'C', 'C', 'C', 'C', 'C', 'C', 'C', 'C', 'C', 'C']","[1309369, 1309730, 1310095, 1310690, 1311290, 1311883, 1312510, 1313080, 1313723, 1314279, 1314853, 1315425, 1315958, 1316520, 1317078, 1317624, 1318151, 1318693, 1319224, 1319742, 1320256, 1320784, 1321329, 1321854]","[1309465, 1309825, 1310303, 1310853, 1311423, 1311998, 1312615, 1313193, 1313833, 1314388, 1314950, 1315536, 1316077, 1316635, 1317194, 1317728, 1318261, 1318813, 1319337, 1319845, 1320341, 1320884, 1321451, 1321874]","[211, 136, 90, 210, 33, 131, 231, 197, 209, 242, 180, 205, 248, 223, 84, 188, 214, 47, 241, 213, 129, 162, 129, 68]","[1309405, 1309790, 1310193, 1310771, 1311365, 1311948, 1312559, 1313142, 1313790, 1314332, 1314915, 1315488, 1316026, 1316587, 1317084, 1317686, 1318220, 1318701, 1319288, 1319787, 1320260, 1320791, 1321394, 1321856]","[1309009, 1309609, 1310210, 1310810, 1311410, 1312010, 1312610, 1313210, 1313743, 1314299, 1314873, 1315445, 1315978, 1316540, 1317098, 1317644, 1318171, 1318713, 1319244, 1319762, 1320276, 1320804, 1321349, 1321874]",63,OR,U,R,ITMSR,1.1
2,400,trial,0,65,65,65,trial,"['S', 'S', 'S', 'S', 'S', 'S', 'S', 'S', 'C', 'C', 'C', 'C', 'C', 'C', 'C', 'C', 'C', 'C', 'C', 'C', 'C', 'C', 'C', 'C']","[1327713, 1328016, 1328292, 1328683, 1329074, 1329468, 1329845, 1330245, 1330641, 1331008, 1331422, 1331824, 1332226, 1332636, 1333025, 1333410, 1333804, 1334180, 1334579, 1334970, 1335356, 1335772, 1336165, 1336548]","[1327841, 1328116, 1328410, 1328790, 1329168, 1329556, 1329958, 1330333, 1330746, 1331089, 1331490, 1331912, 1332299, 1332705, 1333109, 1333504, 1333873, 1334241, 1334599, 1334990, 1335376, 1335792, 1336185, 1336568]","[164, 44, 117, 155, 152, 215, 95, 30, 48, 42, 245, 237, 235, 241, 238, 186, 188, 180, 114, 105, 105, 100, 97, 102]","[1327773, 1328063, 1328345, 1328688, 1329079, 1329512, 1329849, 1330250, 1330648, 1331013, 1331428, 1331830, 1332232, 1332641, 1333030, 1333413, 1333809, 1334187, 1334584, 1334972, 1335358, 1335774, 1336167, 1336550]","[1327538, 1327938, 1328338, 1328738, 1329138, 1329538, 1329938, 1330338, 1330661, 1331028, 1331442, 1331844, 1332246, 1332656, 1333045, 1333430, 1333824, 1334200, 1334599, 1334990, 1335376, 1335792, 1336185, 1336568]",63,OR,U,R,ITMSR,1.1
2,400,trial,0,66,66,66,trial,"['S', 'S', 'S', 'S', 'S', 'S', 'S', 'S', 'C', 'C', 'C', 'C', 'C', 'C', 'C', 'C', 'C', 'C', 'C', 'C', 'C', 'C', 'C', 'C']","[1342258, 1342512, 1342798, 1343167, 1343567, 1343948, 1344367, 1344771, 1345169, 1345583, 1345982, 1346382, 1346791, 1347165, 1347553, 1347965, 1348362, 1348742, 1349115, 1349504, 1349882, 1350283, 1350659, 1351832]","[1342342, 1342611, 1342916, 1343275, 1343664, 1344037, 1344478, 1344868, 1345246, 1345603, 1346002, 1346476, 1346865, 1347256, 1347573, 1347985, 1348382, 1348762, 1349135, 1349524, 1349902, 1350303, 1350679, 1351977]","[251, 237, 3, 64, 253, 37, 6, 67, 231, 224, 210, 44, 255, 239, 152, 103, 80, 80, 71, 82, 86, 72, 79, 190]","[1342264, 1342559, 1342861, 1343172, 1343572, 1343954, 1344415, 1344776, 1345175, 1345589, 1345989, 1346388, 1346797, 1347170, 1347557, 1347969, 1348365, 1348745, 1349116, 1349506, 1349884, 1350285, 1350661, 1351912]","[1342054, 1342453, 1342853, 1343253, 1343653, 1344053, 1344453, 1344854, 1345189, 1345603, 1346002, 1346402, 1346811, 1347185, 1347573, 1347985, 1348382, 1348762, 1349135, 1349524, 1349902, 1350303, 1350679, 1351853]",63,OR,U,R,ITMSR,1.1
1,400,trial,0,67,67,67,trial,"['S', 'S', 'S', 'S', 'S', 'S', 'S', 'S', 'C', 'C', 'C', 'C', 'C', 'C', 'C', 'C', 'C', 'C', 'C', 'C', 'C', 'C', 'C', 'C']","[1357383, 1357641, 1357969, 1358358, 1358747, 1359132, 1359524, 1359925, 1360307, 1360660, 1361022, 1361395, 1361805, 1362192, 1362632, 1363017, 1363395, 1363760, 1364172, 1364544, 1364931, 1365295, 1365677, 1366048]","[1357474, 1357754, 1358089, 1358509, 1358888, 1359270, 1359668, 1360044, 1360437, 1360759, 1361121, 1361506, 1361891, 1362310, 1362718, 1363111, 1363449, 1363845, 1364251, 1364649, 1365024, 1365393, 1365773, 1366135]","[204, 198, 148, 10, 243, 222, 245, 168, 225, 91, 7, 14, 94, 244, 214, 212, 159, 250, 36, 154, 219, 143, 173, 24]","[1357389, 1357688, 1358017, 1358438, 1358820, 1359202, 1359599, 1359982, 1360367, 1360707, 1361075, 1361460, 1361859, 1362263, 1362684, 1363067, 1363424, 1363808, 1364220, 1364603, 1364987, 1365344, 1365727, 1366080]","[1357225, 1357625, 1358025, 1358425, 1358825, 1359225, 1359625, 1360025, 1360327, 1360680, 1361042, 1361415, 1361825, 1362212, 1362652, 1363037, 1363416, 1363780, 1364192, 1364564, 1364952, 1365315, 1365697, 1366068]",63,OR,U,R,ITMSR,1.1
0,600,trial,0,68,68,68,trial,"['S', 'S', 'S', 'S', 'S', 'S', 'S', 'S', 'C', 'C', 'C', 'C', 'C', 'C', 'C', 'C', 'C', 'C', 'C', 'C', 'C', 'C', 'C', 'C']","[1371851, 1372120, 1372730, 1373366, 1373970, 1374525, 1375105, 1375705, 1376312, 1376819, 1377421, 1377969, 1378535, 1379103, 1379660, 1380210, 1380772, 1381329, 1381883, 1382408, 1383003, 1383540, 1384055, 1384590]","[1371951, 1372253, 1372851, 1373478, 1374083, 1374652, 1375237, 1375834, 1376431, 1376961, 1377526, 1378085, 1378644, 1379222, 1379785, 1380341, 1380887, 1381470, 1382006, 1382545, 1383140, 1383671, 1384189, 1384724]","[245, 204, 203, 137, 53, 108, 88, 250, 11, 250, 180, 201, 174, 153, 236, 246, 10, 106, 28, 99, 26, 206, 204, 175]","[1371902, 1372191, 1372783, 1373415, 1374027, 1374595, 1375180, 1375787, 1376382, 1376893, 1377477, 1378036, 1378603, 1379176, 1379738, 1380288, 1380841, 1381414, 1381946, 1382478, 1383074, 1383611, 1384136, 1384672]","[1371691, 1372290, 1372890, 1373490, 1374090, 1374690, 1375290, 1375890, 1376332, 1376839, 1377441, 1377989, 1378555, 1379123, 1379680, 1380230, 1380792, 1381349, 1381903, 1382428, 1383023, 1383560, 1384075, 1384610]",63,OR,U,R,ITMSR,1.1
3,400,trial,0,69,69,69,trial,"['S', 'S', 'S', 'S', 'S', 'S', 'S', 'S', 'C', 'C', 'C', 'C', 'C', 'C', 'C', 'C', 'C', 'C', 'C', 'C', 'C', 'C', 'C', 'C']","[1390498, 1390784, 1391108, 1391472, 1391870, 1392254, 1392658, 1393054, 1393447, 1393866, 1394282, 1394678, 1395074, 1395456, 1395849, 1396238, 1396636, 1397018, 1397405, 1397816, 1398199, 1398565, 1398973, 1399366]","[1390603, 1390885, 1391218, 1391604, 1391987, 1392409, 1392809, 1393182, 1393568, 1393972, 1394380, 1394789, 1395187, 1395585, 1395980, 1396364, 1396755, 1397129, 1397522, 1397902, 1398302, 1398670, 1399094, 1399487]","[23, 83, 229, 79, 201, 7, 171, 28, 27, 130, 104, 175, 250, 8, 19, 3, 235, 215, 199, 250, 62, 254, 117, 26]","[1390562, 1390852, 1391167, 1391555, 1391931, 1392338, 1392739, 1393124, 1393515, 1393922, 1394333, 1394735, 1395130, 1395516, 1395920, 1396317, 1396692, 1397073, 1397464, 1397862, 1398246, 1398608, 1399038, 1399426]","[1390332, 1390731, 1391131, 1391532, 1391931, 1392331, 1392731, 1393131, 1393467, 1393886, 1394302, 1394698, 1395094, 1395476, 1395869, 1396258, 1396656, 1397038, 1397425, 1397836, 1398219, 1398585, 1398993, 1399386]",63,OR,U,R,ITMSR,1.1
2,600,trial,0,70,70,70,trial,"['S', 'S', 'S', 'S', 'S', 'S', 'S', 'S', 'C', 'C', 'C', 'C', 'C', 'C', 'C', 'C', 'C', 'C', 'C', 'C', 'C', 'C', 'C', 'C']","[1405364, 1405752, 1406200, 1406874, 1407428, 1407977, 1408593, 1409140, 1409732, 1410217, 1410750, 1411294, 1411830, 1412368, 1412876, 1413427, 1413958, 1414492, 1415005, 1415522, 1416045, 1416574, 1417051, 1417566]","[1405461, 1405878, 1406396, 1407027, 1407566, 1408126, 1408733, 1409296, 1409881, 1410371, 1410879, 1411399, 1411949, 1412467, 1413011, 1413544, 1414077, 1414611, 1415142, 1415653, 1416182, 1416688, 1417186, 1417693]","[105, 128, 209, 83, 147, 158, 93, 74, 141, 3, 128, 216, 86, 247, 115, 228, 63, 39, 86, 57, 45, 29, 34, 193]","[1405424, 1405801, 1406205, 1406956, 1407493, 1408051, 1408667, 1409224, 1409816, 1410310, 1410823, 1411364, 1411892, 1412424, 1412950, 1413496, 1414025, 1414567, 1415084, 1415602, 1416124, 1416644, 1417120, 1417646]","[1405119, 1405719, 1406319, 1406919, 1407519, 1408119, 1408719, 1409319, 1409752, 1410237, 1410770, 1411314, 1411850, 1412388, 1412896, 1413447, 1413978, 1414512, 1415025, 1415542, 1416066, 1416594, 1417071, 1417586]",63,OR,U,R,ITMSR,1.1
4,600,trial,0,71,71,71,trial,"['S', 'S', 'S', 'S', 'S', 'S', 'S', 'S', 'C', 'C', 'C', 'C', 'C', 'C', 'C', 'C', 'C', 'C', 'C', 'C', 'C', 'C', 'C', 'C']","[1423255, 1423614, 1424031, 1424653, 1425253, 1425818, 1426445, 1427003, 1427633, 1428190, 1428756, 1429309, 1429891, 1430430, 1431009, 1431557, 1432101, 1432634, 1433175, 1433699, 1434249, 1434782, 1435318, 1435851]","[1423355, 1423724, 1424236, 1424793, 1425381, 1425960, 1426572, 1427144, 1427762, 1428316, 1428880, 1429428, 1430023, 1430579, 1431126, 1431692, 1432216, 1432767, 1433305, 1433838, 1434360, 1434935, 1435464, 1436005]","[110, 160, 8, 169, 117, 95, 74, 51, 29, 30, 12, 234, 163, 254, 167, 180, 91, 254, 206, 0, 31, 220, 200, 179]","[1423298, 1423672, 1424036, 1424660, 1425260, 1425894, 1426452, 1427008, 1427687, 1428252, 1428813, 1429362, 1429897, 1430511, 1431076, 1431627, 1432170, 1432640, 1433231, 1433773, 1434300, 1434851, 1435381, 1435932]","[1422931, 1423532, 1424131, 1424731, 1425331, 1425931, 1426531, 1427131, 1427653, 1428210, 1428776, 1429329, 1429911, 1430450, 1431029, 1431577, 1432121, 1432654, 1433195, 1433719, 1434269, 1434802, 1435338, 1435871]",63,OR,U,R,ITMSR,1.1
1,600,trial,0,72,72,72,trial,"['S', 'S', 'S', 'S', 'S', 'S', 'S', 'S', 'C', 'C', 'C', 'C', 'C', 'C', 'C', 'C', 'C', 'C', 'C', 'C', 'C', 'C', 'C', 'C']","[1441710, 1441985, 1442580, 1443178, 1443776, 1444364, 1444990, 1445561, 1446193, 1446790, 1447355, 1447907, 1448469, 1449019, 1449566, 1450104, 1450705, 1451222, 1451740, 1452305, 1452882, 1453410, 1453957, 1454504]","[1441812, 1442234, 1442807, 1443368, 1443946, 1444537, 1445130, 1445707, 1446324, 1446912, 1447479, 1448068, 1448623, 1449156, 1449694, 1450253, 1450820, 1451371, 1451871, 1452418, 1452986, 1453536, 1454100, 1454672]","[99, 228, 85, 15, 70, 249, 179, 170, 147, 89, 124, 235, 173, 144, 109, 134, 45, 74, 254, 170, 226, 213, 136, 62]","[1441754, 1442078, 1442689, 1443278, 1443855, 1444459, 1445052, 1445641, 1446277, 1446854, 1447404, 1447991, 1448549, 1449093, 1449630, 1450185, 1450768, 1451302, 1451821, 1452370, 1452950, 1453492, 1454041, 1454603]","[1441504, 1442104, 1442704, 1443304, 1443904, 1444504, 1445104, 1445704, 1446213, 1446810, 1447375, 1447927, 1448489, 1449039, 1449586, 1450124, 1450725, 1451242, 1451760, 1452325, 1452902, 1453430, 1453977, 1454524]",63,OR,U,R,ITMSR,1.1
3,400,trial,0,73,73,73,trial,"['S', 'S', 'S', 'S', 'S', 'S', 'S', 'S', 'C', 'C', 'C', 'C', 'C', 'C', 'C', 'C', 'C', 'C', 'C', 'C', 'C', 'C', 'C', 'C']","[1460531, 1460802, 1461088, 1461475, 1461863, 1462255, 1462659, 1463046, 1463437, 1463830, 1464232, 1464629, 1465001, 1465381, 1465742, 1466126, 1466515, 1466901, 1467256, 1467656, 1468029, 1468425, 1468806, 1469156]","[1460634, 1460902, 1461222, 1461617, 1461990, 1462359, 1462733, 1463143, 1463550, 1463922, 1464328, 1464727, 1465115, 1465477, 1465857, 1466232, 1466607, 1466984, 1467354, 1467739, 1468120, 1468516, 1468838, 1469243]","[217, 23, 118, 17, 248, 113, 254, 50, 205, 230, 68, 34, 73, 65, 98, 53, 50, 44, 53, 227, 240, 228, 169, 8]","[1460594, 1460850, 1461160, 1461481, 1461910, 1462299, 1462668, 1463087, 1463442, 1463863, 1464241, 1464638, 1465047, 1465428, 1465804, 1466134, 1466522, 1466908, 1467265, 1467665, 1468075, 1468434, 1468813, 1469195]","[1460316, 1460716, 1461116, 1461516, 1461916, 1462317, 1462717, 1463117, 1463457, 1463851, 1464252, 1464649, 1465021, 1465401, 1465762, 1466146, 1466535, 1466921, 1467276, 1467676, 1468049, 1468445, 1468826, 1469176]",63,OR,U,R,ITMSR,1.1
3,600,trial,0,74,74,74,trial,"['S', 'S', 'S', 'S', 'S', 'S', 'S', 'S', 'C', 'C', 'C', 'C', 'C', 'C', 'C', 'C', 'C', 'C', 'C', 'C', 'C', 'C', 'C', 'C']","[1475177, 1475579, 1475908, 1476521, 1477158, 1477741, 1478313, 1478846, 1479472, 1479975, 1480567, 1481132, 1481697, 1482243, 1482792, 1483334, 1483904, 1484444, 1484972, 1485521, 1486074, 1486628, 1487143, 1487643]","[1475291, 1475659, 1476079, 1476626, 1477267, 1477853, 1478394, 1478942, 1479577, 1480098, 1480655, 1481234, 1481789, 1482338, 1482885, 1483441, 1484007, 1484560, 1485072, 1485617, 1486173, 1486724, 1487248, 1487768]","[67, 255, 46, 127, 246, 26, 68, 87, 113, 142, 88, 174, 157, 187, 140, 174, 143, 18, 160, 197, 183, 164, 151, 153]","[1475236, 1475624, 1475990, 1476575, 1477219, 1477796, 1478318, 1478909, 1479548, 1480050, 1480607, 1481189, 1481701, 1482248, 1482798, 1483398, 1483907, 1484508, 1484975, 1485527, 1486146, 1486676, 1487216, 1487718]","[1474849, 1475449, 1476049, 1476649, 1477250, 1477850, 1478450, 1479050, 1479492, 1479995, 1480587, 1481152, 1481717, 1482263, 1482812, 1483354, 1483924, 1484464, 1484992, 1485541, 1486094, 1486648, 1487163, 1487663]",63,OR,U,R,ITMSR,1.1
0,600,trial,0,75,75,75,trial,"['S', 'S', 'S', 'S', 'S', 'S', 'S', 'S', 'C', 'C', 'C', 'C', 'C', 'C', 'C', 'C', 'C', 'C', 'C', 'C', 'C', 'C', 'C', 'C']","[1493545, 1493859, 1494382, 1494960, 1495527, 1496115, 1496733, 1497302, 1497955, 1498524, 1499101, 1499657, 1500230, 1500804, 1501359, 1501927, 1502515, 1503038, 1503592, 1504142, 1504678, 1505228, 1505742, 1506276]","[1493662, 1494004, 1494513, 1495084, 1495660, 1496244, 1496894, 1497478, 1498081, 1498678, 1499245, 1499798, 1500383, 1500959, 1501523, 1502088, 1502666, 1503215, 1503788, 1504323, 1504857, 1505406, 1505944, 1506461]","[189, 82, 115, 48, 139, 22, 126, 119, 232, 235, 85, 46, 71, 78, 143, 101, 32, 169, 116, 134, 138, 122, 136, 111]","[1493602, 1493942, 1494450, 1495016, 1495597, 1496182, 1496826, 1497395, 1498024, 1498602, 1499165, 1499737, 1500327, 1500882, 1501448, 1502022, 1502585, 1503137, 1503695, 1504245, 1504780, 1505316, 1505837, 1506360]","[1493289, 1493890, 1494490, 1495090, 1495690, 1496290, 1496890, 1497490, 1497975, 1498544, 1499121, 1499677, 1500250, 1500824, 1501379, 1501947, 1502535, 1503058, 1503612, 1504162, 1504698, 1505248, 1505762, 1506296]",63,OR,U,R,ITMSR,1.1
5,600,trial,0,76,76,76,trial,"['S', 'S', 'S', 'S', 'S', 'S', 'S', 'S', 'S', 'C', 'C', 'C', 'C', 'C', 'C', 'C', 'C', 'C', 'C', 'C', 'C', 'C', 'C', 'C', 'C']","[1511936, 1512208, 1512561, 1512872, 1513486, 1514055, 1514662, 1515232, 1515827, 1516438, 1516998, 1517558, 1518118, 1518630, 1519154, 1519698, 1520243, 1520796, 1521332, 1521858, 1522371, 1522905, 1523436, 1523951, 1524497]","[1512031, 1512403, 1512691, 1513177, 1513743, 1514294, 1514818, 1515369, 1515965, 1516575, 1517150, 1517697, 1518261, 1518773, 1519320, 1519854, 1520403, 1520956, 1521488, 1522025, 1522539, 1523084, 1523604, 1524122, 1524667]","[34, 214, 12, 128, 90, 72, 219, 199, 234, 173, 158, 178, 196, 178, 231, 209, 207, 203, 191, 227, 243, 214, 179, 231, 188]","[1511983, 1512287, 1512638, 1512995, 1513600, 1514166, 1514744, 1515304, 1515899, 1516520, 1517078, 1517632, 1518186, 1518699, 1519242, 1519780, 1520326, 1520880, 1521411, 1521951, 1522455, 1522999, 1523523, 1524038, 1524578]","[1511803, 1512403, 1513004, 1513603, 1514203, 1514803, 1515403, 1516003, 1516459, 1517018, 1517578, 1518138, 1518650, 1519174, 1519718, 1520263, 1520816, 1521352, 1521879, 1522392, 1522925, 1523457, 1523971, 1524517]",63,OR,U,R,ITMSR,1.1
4,400,trial,0,77,77,77,trial,"['S', 'S', 'S', 'S', 'S', 'S', 'S', 'S', 'C', 'C', 'C', 'C', 'C', 'C', 'C', 'C', 'C', 'C', 'C', 'C', 'C', 'C', 'C', 'C']","[1530503, 1530756, 1531045, 1531466, 1531853, 1532265, 1532654, 1533040, 1533429, 1533827, 1534201, 1534574, 1534960, 1535337, 1535737, 1536117, 1536499, 1536878, 1537274, 1537647, 1538027, 1538392, 1538779, 1539156]","[1530599, 1530883, 1531247, 1531656, 1532030, 1532407, 1532790, 1533169, 1533552, 1533945, 1534318, 1534701, 1535074, 1535458, 1535841, 1536246, 1536629, 1537010, 1537391, 1537772, 1538135, 1538502, 1538883, 1539261]","[87, 240, 235, 220, 178, 145, 124, 104, 101, 63, 67, 65, 217, 235, 105, 244, 5, 14, 230, 234, 241, 209, 202, 143]","[1530548, 1530823, 1531161, 1531565, 1531937, 1532344, 1532718, 1533115, 1533489, 1533884, 1534263, 1534633, 1535020, 1535405, 1535794, 1536169, 1536550, 1536940, 1537327, 1537718, 1538083, 1538439, 1538836, 1539215]","[1530290, 1530690, 1531090, 1531490, 1531890, 1532290, 1532690, 1533090, 1533449, 1533847, 1534221, 1534594, 1534980, 1535357, 1535757, 1536137, 1536519, 1536898, 1537294, 1537667, 1538048, 1538412, 1538799, 1539176]",63,OR,U,R,ITMSR,1.1
1,400,trial,0,78,78,78,trial,"['S', 'S', 'S', 'S', 'S', 'S', 'S', 'S', 'C', 'C', 'C', 'C', 'C', 'C', 'C', 'C', 'C', 'C', 'C', 'C', 'C', 'C', 'C', 'C']","[1614387, 1614647, 1614880, 1615264, 1615665, 1616088, 1616497, 1616905, 1617316, 1617718, 1618097, 1618504, 1618904, 1619292, 1619714, 1620124, 1620511, 1620885, 1621291, 1621713, 1622091, 1622478, 1622875, 1623263]","[1614493, 1614732, 1615009, 1615376, 1615771, 1616183, 1616590, 1616987, 1617400, 1617787, 1618191, 1618524, 1618924, 1619312, 1619770, 1620175, 1620602, 1620988, 1621388, 1621776, 1622190, 1622568, 1622973, 1623355]","[122, 157, 229, 230, 208, 169, 151, 80, 221, 46, 3, 175, 86, 141, 135, 145, 122, 79, 139, 174, 218, 38, 26, 238]","[1614395, 1614653, 1614886, 1615269, 1615672, 1616094, 1616503, 1616912, 1617320, 1617724, 1618101, 1618510, 1618911, 1619297, 1619719, 1620130, 1620516, 1620892, 1621296, 1621720, 1622097, 1622486, 1622883, 1623271]","[1614119, 1614519, 1614919, 1615320, 1615720, 1616120, 1616520, 1616920, 1617336, 1617738, 1618117, 1618524, 1618924, 1619312, 1619734, 1620144, 1620531, 1620905, 1621311, 1621733, 1622111, 1622498, 1622895, 1623283]",63,OR,U,R,ITMSR,1.1
0,600,trial,0,79,79,79,trial,"['S', 'S', 'S', 'S', 'S', 'S', 'S', 'S', 'S', 'C', 'C', 'C', 'C', 'C', 'C', 'C', 'C', 'C', 'C', 'C', 'C', 'C', 'C', 'C', 'C']","[1629124, 1629367, 1629705, 1630061, 1630655, 1631275, 1631857, 1632456, 1633089, 1633691, 1634242, 1634803, 1635383, 1635953, 1636488, 1637023, 1637557, 1638096, 1638666, 1639179, 1639719, 1640263, 1640817, 1641354, 1641899]","[1629214, 1629513, 1629831, 1630292, 1630834, 1631406, 1631985, 1632588, 1633213, 1633823, 1634391, 1634922, 1635497, 1636066, 1636615, 1637166, 1637702, 1638256, 1638828, 1639346, 1639894, 1640420, 1640968, 1641544, 1642100]","[183, 12, 70, 150, 104, 40, 225, 243, 225, 235, 221, 214, 160, 161, 215, 230, 212, 213, 216, 209, 206, 208, 130, 209, 251]","[1629169, 1629438, 1629723, 1630151, 1630742, 1631295, 1631882, 1632477, 1633113, 1633713, 1634266, 1634830, 1635411, 1635978, 1636512, 1637050, 1637584, 1638126, 1638695, 1639208, 1639742, 1640290, 1640843, 1641445, 1641931]","[1628971, 1629570, 1630170, 1630770, 1631370, 1631970, 1632570, 1633170, 1633711, 1634263, 1634823, 1635403, 1635973, 1636508, 1637043, 1637577, 1638116, 1638686, 1639199, 1639739, 1640283, 1640837, 1641374, 1641919]",63,OR,U,R,ITMSR,1.1
2,600,trial,0,80,80,80,trial,"['S', 'S', 'S', 'S', 'S', 'S', 'S', 'S', 'C', 'C', 'C', 'C', 'C', 'C', 'C', 'C', 'C', 'C', 'C', 'C', 'C', 'C', 'C', 'C']","[1647417, 1647715, 1648329, 1648898, 1649499, 1650108, 1650702, 1651282, 1651879, 1652463, 1653022, 1653555, 1654104, 1654620, 1655157, 1655684, 1656223, 1656726, 1657251, 1657765, 1658294, 1658814, 1659313, 1659814]","[1647533, 1648029, 1648569, 1649128, 1649738, 1650311, 1650905, 1651480, 1652076, 1652666, 1653236, 1653767, 1654306, 1654833, 1655375, 1655905, 1656430, 1656927, 1657446, 1657973, 1658502, 1658993, 1659487, 1660021]","[42, 79, 73, 65, 76, 52, 62, 65, 57, 62, 68, 30, 47, 71, 45, 47, 27, 67, 38, 72, 51, 0, 249, 48]","[1647452, 1647842, 1648435, 1648998, 1649596, 1650205, 1650796, 1651381, 1651977, 1652557, 1653120, 1653662, 1654196, 1654724, 1655256, 1655784, 1656321, 1656825, 1657346, 1657870, 1658391, 1658907, 1659342, 1659916]","[1647229, 1647830, 1648429, 1649029, 1649629, 1650229, 1650829, 1651429, 1651899, 1652483, 1653042, 1653575, 1654124, 1654640, 1655177, 1655704, 1656243, 1656747, 1657271, 1657785, 1658314, 1658834, 1659333, 1659834]",63,OR,U,R,ITMSR,1.1
0,400,trial,0,81,81,81,trial,"['S', 'S', 'S', 'S', 'S', 'S', 'S', 'S', 'C', 'C', 'C', 'C', 'C', 'C', 'C', 'C', 'C', 'C', 'C', 'C', 'C', 'C', 'C', 'C']","[1665534, 1665847, 1666162, 1666531, 1666921, 1667299, 1667694, 1668109, 1668529, 1668921, 1669313, 1669682, 1670056, 1670433, 1670845, 1671239, 1671631, 1672030, 1672454, 1672819, 1673203, 1673589, 1673980, 1674360]","[1665647, 1665977, 1666311, 1666681, 1667059, 1667419, 1667799, 1668196, 1668596, 1669003, 1669369, 1669740, 1670112, 1670491, 1670910, 1671304, 1671729, 1672083, 1672524, 1672921, 1673259, 1673679, 1674044, 1674459]","[33, 45, 233, 8, 236, 243, 213, 157, 135, 162, 146, 91, 219, 33, 239, 18, 116, 95, 159, 24, 219, 220, 5, 231]","[1665564, 1665873, 1666238, 1666556, 1666947, 1667324, 1667718, 1668129, 1668545, 1668938, 1669334, 1669703, 1670079, 1670455, 1670868, 1671263, 1671661, 1672053, 1672479, 1672839, 1673220, 1673614, 1674004, 1674384]","[1665359, 1665759, 1666159, 1666560, 1666959, 1667359, 1667759, 1668159, 1668549, 1668941, 1669334, 1669702, 1670076, 1670453, 1670865, 1671259, 1671651, 1672050, 1672474, 1672839, 1673223, 1673609, 1674000, 1674380]",63,OR,U,R,ITMSR,1.1
0,600,trial,0,82,82,82,trial,"['S', 'S', 'S', 'S', 'S', 'S', 'S', 'S', 'C', 'C', 'C', 'C', 'C', 'C', 'C', 'C', 'C', 'C', 'C', 'C', 'C', 'C', 'C', 'C']","[1680245, 1680608, 1680987, 1681592, 1682207, 1682791, 1683340, 1683922, 1684566, 1685120, 1685667, 1686215, 1686766, 1687299, 1687875, 1688398, 1688960, 1689480, 1690021, 1690577, 1691109, 1691632, 1692169, 1692693]","[1680303, 1680696, 1681160, 1681713, 1682288, 1682894, 1683453, 1684045, 1684682, 1685219, 1685773, 1686328, 1686877, 1687408, 1687964, 1688506, 1689067, 1689589, 1690112, 1690679, 1691217, 1691757, 1692267, 1692786]","[143, 175, 240, 216, 192, 200, 204, 202, 101, 130, 132, 168, 92, 146, 131, 180, 120, 119, 92, 96, 115, 135, 82, 83]","[1680266, 1680633, 1681015, 1681617, 1682229, 1682817, 1683367, 1683949, 1684591, 1685140, 1685687, 1686237, 1686786, 1687324, 1687898, 1688419, 1688982, 1689500, 1690045, 1690600, 1691130, 1691657, 1692186, 1692720]","[1679913, 1680513, 1681112, 1681712, 1682312, 1682912, 1683512, 1684112, 1684586, 1685140, 1685687, 1686235, 1686786, 1687319, 1687896, 1688418, 1688980, 1689500, 1690041, 1690597, 1691129, 1691652, 1692189, 1692713]",63,OR,U,R,ITMSR,1.1
4,400,trial,0,83,83,83,trial,"['S', 'S', 'S', 'S', 'S', 'S', 'S', 'S', 'C', 'C', 'C', 'C', 'C', 'C', 'C', 'C', 'C', 'C', 'C', 'C', 'C', 'C', 'C', 'C']","[1698520, 1698803, 1699109, 1699509, 1699903, 1700272, 1700644, 1701035, 1701467, 1701849, 1702230, 1702619, 1703000, 1703371, 1703713, 1704078, 1704450, 1704814, 1705174, 1705522, 1705876, 1706223, 1706586, 1706955]","[1698610, 1698891, 1699237, 1699608, 1699984, 1700382, 1700773, 1701144, 1701549, 1701913, 1702327, 1702716, 1703091, 1703459, 1703815, 1704160, 1704509, 1704873, 1705256, 1705590, 1705942, 1706295, 1706671, 1707018]","[78, 123, 123, 97, 11, 27, 98, 51, 11, 251, 34, 79, 10, 253, 246, 147, 232, 215, 228, 34, 193, 241, 227, 141]","[1698541, 1698825, 1699130, 1699530, 1699924, 1700293, 1700719, 1701056, 1701491, 1701866, 1702251, 1702640, 1703020, 1703391, 1703736, 1704101, 1704470, 1704836, 1705194, 1705551, 1705899, 1706246, 1706606, 1706980]","[1698331, 1698731, 1699130, 1699530, 1699930, 1700330, 1700730, 1701130, 1701487, 1701869, 1702250, 1702639, 1703020, 1703391, 1703733, 1704098, 1704470, 1704834, 1705194, 1705542, 1705896, 1706243, 1706606, 1706975]",63,OR,U,R,ITMSR,1.1
3,400,trial,0,84,84,84,trial,"['S', 'S', 'S', 'S', 'S', 'S', 'S', 'S', 'C', 'C', 'C', 'C', 'C', 'C', 'C', 'C', 'C', 'C', 'C', 'C', 'C', 'C', 'C', 'C']","[1712692, 1712925, 1713270, 1713665, 1714054, 1714468, 1714860, 1715253, 1715641, 1716029, 1716424, 1716801, 1717148, 1717551, 1717919, 1718293, 1718681, 1719053, 1719416, 1719791, 1720176, 1720537, 1720923, 1721298]","[1712746, 1713014, 1713375, 1713788, 1714182, 1714567, 1714961, 1715358, 1715738, 1716085, 1716472, 1716901, 1717245, 1717583, 1717975, 1718373, 1718717, 1719102, 1719480, 1719866, 1720222, 1720589, 1720960, 1721355]","[111, 100, 115, 73, 114, 135, 166, 100, 109, 88, 72, 52, 42, 193, 247, 204, 44, 226, 248, 237, 27, 38, 190, 73]","[1712715, 1712948, 1713292, 1713692, 1714082, 1714488, 1714881, 1715268, 1715658, 1716042, 1716440, 1716813, 1717163, 1717558, 1717933, 1718309, 1718697, 1719067, 1719433, 1719813, 1720192, 1720552, 1720935, 1721318]","[1712492, 1712892, 1713292, 1713692, 1714093, 1714493, 1714893, 1715293, 1715661, 1716049, 1716444, 1716822, 1717168, 1717571, 1717939, 1718313, 1718701, 1719073, 1719436, 1719811, 1720196, 1720557, 1720943, 1721318]",63,OR,U,R,ITMSR,1.1
3,600,trial,0,85,85,85,trial,"['S', 'S', 'S', 'S', 'S', 'S', 'S', 'S', 'S', 'C', 'C', 'C', 'C', 'C', 'C', 'C', 'C', 'C', 'C', 'C', 'C', 'C', 'C', 'C', 'C']","[1726839, 1727090, 1727414, 1727855, 1728403, 1728989, 1729553, 1730137, 1730770, 1731386, 1731928, 1732499, 1733060, 1733638, 1734198, 1734756, 1735300, 1735836, 1736388, 1736948, 1737505, 1738012, 1738545, 1739104, 1739660]","[1726914, 1727186, 1727499, 1727977, 1728522, 1729086, 1729645, 1730232, 1730877, 1731478, 1732027, 1732601, 1733164, 1733738, 1734300, 1734872, 1735409, 1735970, 1736520, 1737077, 1737626, 1738139, 1738691, 1739238, 1739773]","[176, 134, 203, 16, 2, 226, 179, 198, 179, 122, 163, 148, 159, 55, 154, 182, 175, 158, 157, 168, 171, 191, 184, 184, 124]","[1726864, 1727118, 1727436, 1727887, 1728433, 1729014, 1729577, 1730161, 1730796, 1731409, 1731948, 1732521, 1733083, 1733660, 1734220, 1734779, 1735324, 1735861, 1736412, 1736971, 1737531, 1738038, 1738569, 1739126, 1739681]","[1726673, 1727273, 1727874, 1728474, 1729074, 1729674, 1730274, 1730874, 1731406, 1731948, 1732519, 1733080, 1733658, 1734218, 1734776, 1735320, 1735856, 1736408, 1736968, 1737525, 1738032, 1738565, 1739124, 1739680]",63,OR,U,R,ITMSR,1.1
5,600,trial,0,86,86,86,trial,"['S', 'S', 'S', 'S', 'S', 'S', 'S', 'S', 'S', 'C', 'C', 'C', 'C', 'C', 'C', 'C', 'C', 'C', 'C', 'C', 'C', 'C', 'C', 'C', 'C']","[1745353, 1745615, 1745911, 1746292, 1746881, 1747499, 1748083, 1748676, 1749257, 1749860, 1750424, 1751002, 1751562, 1752100, 1752658, 1753253, 1753834, 1754411, 1754972, 1755523, 1756056, 1756628, 1757210, 1757775, 1758333]","[1745443, 1745739, 1746016, 1746537, 1747054, 1747674, 1748248, 1748823, 1749420, 1750027, 1750587, 1751139, 1751712, 1752249, 1752820, 1753378, 1753964, 1754529, 1755105, 1755672, 1756217, 1756800, 1757363, 1757956, 1758493]","[31, 25, 32, 40, 247, 199, 213, 223, 214, 215, 110, 93, 140, 148, 103, 7, 68, 130, 128, 93, 121, 123, 163, 153, 147]","[1745357, 1745619, 1745915, 1746296, 1746976, 1747503, 1748159, 1748747, 1749339, 1749953, 1750516, 1751008, 1751568, 1752176, 1752744, 1753309, 1753894, 1754417, 1754977, 1755529, 1756062, 1756635, 1757215, 1757780, 1758339]","[1745196, 1745795, 1746395, 1746995, 1747595, 1748195, 1748795, 1749395, 1749880, 1750445, 1751022, 1751582, 1752120, 1752678, 1753273, 1753854, 1754431, 1754992, 1755543, 1756077, 1756648, 1757230, 1757795, 1758353]",63,OR,U,R,ITMSR,1.1
3,600,trial,0,87,87,87,trial,"['S', 'S', 'S', 'S', 'S', 'S', 'S', 'S', 'C', 'C', 'C', 'C', 'C', 'C', 'C', 'C', 'C', 'C', 'C', 'C', 'C', 'C', 'C', 'C']","[1764200, 1764496, 1765110, 1765695, 1766327, 1766942, 1767498, 1768100, 1768771, 1769312, 1769857, 1770469, 1771022, 1771591, 1772151, 1772729, 1773274, 1773857, 1774434, 1774996, 1775556, 1776130, 1776679, 1777212]","[1764276, 1764789, 1765316, 1765879, 1766456, 1767054, 1767628, 1768205, 1768875, 1769431, 1769987, 1770602, 1771159, 1771731, 1772297, 1772862, 1773435, 1773997, 1774575, 1775148, 1775694, 1776229, 1776795, 1777329]","[86, 136, 109, 52, 40, 255, 44, 144, 72, 234, 175, 196, 148, 11, 85, 7, 109, 24, 5, 44, 37, 97, 2, 188]","[1764207, 1764502, 1765192, 1765701, 1766333, 1766948, 1767503, 1768107, 1768828, 1769318, 1769862, 1770473, 1771026, 1771597, 1772157, 1772732, 1773280, 1773862, 1774439, 1774999, 1775560, 1776200, 1776685, 1777217]","[1763997, 1764597, 1765197, 1765797, 1766397, 1766998, 1767597, 1768197, 1768792, 1769332, 1769877, 1770489, 1771042, 1771611, 1772171, 1772749, 1773294, 1773877, 1774454, 1775016, 1775576, 1776150, 1776699, 1777232]",63,OR,U,R,ITMSR,1.1
