pitch,ioi,event,.thisRepN,.thisTrialN,.thisN,.thisIndex,event,tap_types,tap_times,release_times,peak_pressures,peak_times,tone_times,subject,experimenter,register,handedness,experiment,version,
,,SPR,0,-1,-1,0,SPR,"['P', 'P', 'P', 'P', 'P', 'P', 'P', 'P', 'P', 'P', 'P', 'P', 'P', 'P', 'P', 'P', 'P', 'P', 'P', 'P', 'P', 'P', 'P', 'P', 'P', 'P', 'P', 'P', 'P', 'P']","[32126, 34743, 35119, 35575, 35966, 36375, 36780, 37190, 37609, 37993, 38414, 38843, 39262, 39660, 40088, 40466, 40883, 41282, 41702, 42139, 42545, 42937, 43384, 43741, 44111, 44471, 44850, 45223, 45634, 46033]","[32290, 34837, 35227, 35673, 36072, 36494, 36915, 37303, 37730, 38119, 38516, 38980, 39380, 39767, 40179, 40580, 40987, 41381, 41793, 42270, 42645, 43037, 43475, 43835, 44231, 44561, 44943, 45333, 45739, 46137]","[253, 153, 169, 229, 246, 253, 226, 58, 40, 34, 214, 254, 81, 178, 174, 138, 226, 234, 173, 195, 203, 208, 136, 125, 245, 211, 233, 44, 15, 219]","[32199, 34786, 35165, 35578, 36018, 36431, 36849, 37243, 37677, 38049, 38466, 38907, 39308, 39716, 40092, 40470, 40887, 41325, 41743, 42202, 42592, 42986, 43388, 43744, 44170, 44474, 44853, 45281, 45686, 46036]",,98,EM,L,L,ITMSR,1.1,
5,500,practice,0,0,0,0,practice,"['S', 'S', 'S', 'S', 'S', 'S', 'S', 'C', 'C', 'C', 'C', 'C', 'C', 'C', 'C', 'C', 'C', 'C', 'C', 'C', 'C', 'C', 'C']","[119211, 119693, 120186, 120685, 121174, 121703, 122188, 122702, 123383, 123826, 124259, 124718, 125150, 125580, 126027, 126449, 126879, 127305, 127728, 128176, 128643, 129013, 129413]","[119307, 119787, 120275, 120797, 121283, 121801, 122305, 122819, 123487, 123926, 124363, 124816, 125243, 125688, 126129, 126557, 126990, 127412, 127841, 128273, 128724, 129112, 129506]","[22, 20, 188, 192, 180, 236, 210, 10, 145, 186, 168, 122, 88, 43, 137, 135, 121, 53, 123, 82, 229, 31, 126]","[119263, 119736, 120225, 120731, 121223, 121745, 122227, 122758, 123439, 123874, 124304, 124755, 125188, 125636, 126069, 126501, 126932, 127346, 127796, 128214, 128680, 129052, 129458]","[118866, 119366, 119866, 120366, 120866, 121366, 121866, 122366, 122722, 123403, 123846, 124279, 124738, 125170, 125600, 126047, 126469, 126899, 127325, 127748, 128196, 128663, 129033, 129433]",98,EM,L,L,ITMSR,1.1,
3,500,practice,0,1,1,1,practice,"['S', 'S', 'S', 'S', 'S', 'S', 'S', 'C', 'C', 'C', 'C', 'C', 'C', 'C', 'C', 'C', 'C', 'C', 'C', 'C', 'C', 'C', 'C']","[135289, 135771, 136189, 136665, 137136, 137629, 138103, 138568, 138979, 139456, 139886, 140300, 140734, 141150, 141565, 141944, 142393, 142803, 143206, 143602, 144036, 144441, 144844]","[135406, 135879, 136274, 136753, 137230, 137741, 138219, 138679, 139090, 139537, 139949, 140370, 140793, 141227, 141643, 142047, 142475, 142894, 143306, 143696, 144128, 144544, 144951]","[22, 239, 195, 241, 193, 56, 244, 14, 251, 92, 213, 61, 208, 155, 156, 202, 69, 185, 100, 148, 99, 180, 175]","[135355, 135824, 136223, 136707, 137175, 137676, 138150, 138616, 139035, 139494, 139919, 140334, 140765, 141178, 141600, 141988, 142445, 142852, 143240, 143657, 144075, 144497, 144897]","[134761, 135261, 135761, 136261, 136761, 137261, 137761, 138261, 138588, 138999, 139476, 139906, 140320, 140754, 141170, 141585, 141964, 142413, 142823, 143226, 143622, 144056, 144461, 144864]",98,EM,L,L,ITMSR,1.1,
4,500,practice,0,2,2,2,practice,"['S', 'S', 'S', 'S', 'S', 'C', 'C', 'C', 'C', 'C', 'C', 'C', 'C', 'C', 'C', 'C', 'C', 'C', 'C', 'C', 'C']","[151857, 152268, 152815, 153302, 153806, 154318, 154835, 155250, 155700, 156119, 156545, 156932, 157346, 157717, 158199, 158584, 158966, 159378, 159738, 160111, 160536]","[151957, 152370, 152885, 153407, 153930, 154425, 154926, 155340, 155794, 156207, 156619, 157024, 157423, 157816, 158278, 158655, 159056, 159452, 159821, 160201, 160618]","[131, 200, 141, 219, 215, 233, 141, 119, 51, 107, 75, 253, 111, 9, 244, 111, 12, 243, 241, 37, 134]","[151909, 152321, 152849, 153354, 153866, 154363, 154874, 155288, 155748, 156156, 156579, 156966, 157378, 157766, 158235, 158612, 159008, 159408, 159770, 160145, 160576]","[150561, 151060, 151560, 152060, 152560, 153060, 153560, 154060, 154338, 154855, 155270, 155720, 156139, 156565, 156952, 157366, 157737, 158219, 158604, 158986, 159398, 159758, 160131, 160557]",98,EM,L,L,ITMSR,1.1,
2,500,practice,0,3,3,3,practice,"['S', 'S', 'S', 'S', 'S', 'S', 'S', 'S', 'C', 'C', 'C', 'C', 'C', 'C', 'C', 'C', 'C', 'C', 'C', 'C', 'C', 'C', 'C', 'C']","[166016, 166453, 166910, 167378, 167833, 168288, 168793, 169282, 169782, 170238, 170661, 171115, 171507, 171927, 172354, 172780, 173189, 173581, 173985, 174382, 174751, 175210, 175606, 176008]","[166099, 166558, 166991, 167472, 167925, 168403, 168912, 169370, 169857, 170324, 170752, 171193, 171593, 172012, 172451, 172875, 173271, 173674, 174082, 174493, 174860, 175313, 175731, 176125]","[144, 81, 82, 121, 0, 98, 145, 8, 239, 169, 147, 156, 108, 159, 245, 255, 172, 248, 189, 78, 18, 235, 124, 90]","[166066, 166515, 166960, 167429, 167867, 168339, 168848, 169332, 169786, 170287, 170699, 171152, 171539, 171961, 172388, 172810, 173196, 173631, 174030, 174439, 174815, 175247, 175665, 176065]","[165988, 166488, 166988, 167488, 167988, 168488, 168988, 169488, 169802, 170258, 170681, 171136, 171527, 171948, 172375, 172801, 173209, 173601, 174005, 174402, 174771, 175230, 175626, 176028]",98,EM,L,L,ITMSR,1.1,
0,500,practice,0,4,4,4,practice,"['B', 'S', 'S', 'S', 'S', 'S', 'S', 'S', 'C', 'C', 'C', 'C', 'C', 'C', 'C', 'C', 'C', 'C', 'C', 'C', 'C', 'C', 'C', 'C']","[181379, 181831, 182295, 182807, 183259, 183753, 184256, 184718, 185199, 185670, 186128, 186585, 186983, 187453, 187890, 188342, 188754, 189181, 189596, 190014, 190374, 190848, 191235, 191683]","[181513, 181965, 182405, 182908, 183369, 183858, 184347, 184833, 185285, 185772, 186221, 186679, 187111, 187558, 187981, 188421, 188846, 189280, 189674, 190101, 190471, 190943, 191326, 191752]","[22, 149, 149, 169, 135, 154, 71, 140, 218, 22, 61, 58, 111, 33, 13, 129, 191, 86, 118, 228, 97, 46, 176, 247]","[181426, 181900, 182351, 182849, 183313, 183803, 184289, 184775, 185238, 185721, 186162, 186625, 187052, 187491, 187931, 188365, 188790, 189216, 189636, 190044, 190402, 190885, 191265, 191714]","[181390, 181890, 182390, 182890, 183390, 183890, 184390, 184890, 185219, 185690, 186148, 186605, 187003, 187473, 187910, 188362, 188774, 189201, 189616, 190034, 190394, 190868, 191255, 191704]",98,EM,L,L,ITMSR,1.1,
1,500,practice,0,5,5,5,practice,"['S', 'S', 'S', 'S', 'S', 'S', 'S', 'S', 'C', 'C', 'C', 'C', 'C', 'C', 'C', 'C', 'C', 'C', 'C', 'C', 'C', 'C', 'C', 'C']","[197320, 197936, 198453, 198769, 199200, 199654, 200142, 200646, 201095, 201571, 201974, 202442, 202857, 203256, 203680, 204103, 204522, 204947, 205348, 205773, 206171, 206614, 207020, 207420]","[197420, 198037, 198557, 198921, 199317, 199766, 200250, 200719, 201209, 201662, 202077, 202540, 202937, 203356, 203776, 204198, 204620, 205039, 205446, 205872, 206278, 206730, 207111, 207519]","[210, 176, 175, 213, 219, 241, 210, 235, 147, 21, 153, 27, 104, 69, 223, 67, 97, 252, 10, 34, 80, 143, 199, 120]","[197363, 197981, 198499, 198845, 199258, 199710, 200201, 200679, 201157, 201606, 202004, 202491, 202888, 203292, 203724, 204142, 204557, 205004, 205382, 205806, 206224, 206675, 207076, 207470]","[197308, 197808, 198308, 198808, 199308, 199809, 200308, 200808, 201115, 201591, 201994, 202462, 202877, 203276, 203700, 204123, 204542, 204967, 205368, 205793, 206191, 206635, 207040, 207440]",98,EM,L,L,ITMSR,1.1,
0,600,trial,0,6,6,6,trial,"['B', 'S', 'S', 'S', 'S', 'S', 'S', 'S', 'C', 'C', 'C', 'C', 'C', 'C', 'C', 'C', 'C', 'C', 'C', 'C', 'C', 'C', 'C', 'C']","[259351, 259742, 260321, 260947, 261592, 262128, 262761, 263378, 263947, 264494, 265029, 265535, 266021, 266589, 267060, 267580, 268058, 268532, 268982, 269480, 269895, 270404, 270881, 271345]","[259419, 259838, 260434, 261074, 261706, 262254, 262863, 263494, 264077, 264599, 265125, 265650, 266147, 266684, 267146, 267664, 268149, 268624, 269116, 269603, 270091, 270558, 271045, 271467]","[18, 219, 245, 6, 223, 13, 166, 248, 197, 169, 96, 79, 79, 25, 7, 181, 94, 186, 109, 104, 174, 167, 167, 187]","[259351, 259782, 260380, 261017, 261638, 262187, 262817, 263434, 263996, 264545, 265070, 265585, 266079, 266630, 267106, 267617, 268098, 268588, 269061, 269543, 269980, 270491, 270980, 271424]","[259361, 259961, 260561, 261161, 261762, 262362, 262962, 263562, 263967, 264514, 265049, 265555, 266041, 266609, 267080, 267600, 268078, 268552, 269002, 269500, 269915, 270424, 270901, 271365]",98,EM,L,L,ITMSR,1.1,
1,600,trial,0,7,7,7,trial,"['S', 'S', 'S', 'S', 'S', 'S', 'S', 'S', 'C', 'C', 'C', 'C', 'C', 'C', 'C', 'C', 'C', 'C', 'C', 'C', 'C', 'C', 'C', 'C']","[276933, 277567, 278012, 278564, 279107, 279692, 280245, 280882, 281436, 282001, 282491, 283020, 283495, 283998, 284486, 284983, 285421, 285939, 286417, 286952, 287415, 287853, 288359, 288795]","[277044, 277662, 278109, 278631, 279218, 279801, 280354, 280981, 281541, 282089, 282575, 283102, 283570, 284061, 284576, 285068, 285536, 286034, 286524, 287037, 287507, 287994, 288476, 288911]","[251, 247, 0, 201, 240, 229, 240, 155, 189, 137, 187, 45, 209, 153, 44, 179, 166, 163, 162, 180, 224, 23, 7, 245]","[276982, 277612, 278064, 278597, 279159, 279735, 280287, 280923, 281478, 282041, 282530, 283062, 283533, 284035, 284494, 285020, 285474, 285979, 286454, 286987, 287451, 287924, 288421, 288854]","[276856, 277456, 278056, 278657, 279256, 279856, 280456, 281056, 281456, 282021, 282511, 283040, 283515, 284018, 284506, 285003, 285442, 285959, 286437, 286972, 287435, 287874, 288379, 288815]",98,EM,L,L,ITMSR,1.1,
5,400,trial,0,8,8,8,trial,"['S', 'S', 'S', 'S', 'S', 'S', 'S', 'S', 'C', 'C', 'C', 'C', 'C', 'C', 'C', 'C', 'C', 'C', 'C', 'C', 'C', 'C', 'C', 'C']","[294244, 294607, 295090, 295376, 295694, 296062, 296459, 296848, 297240, 297710, 298093, 298440, 298804, 299197, 299547, 299949, 300301, 300702, 301061, 301415, 301752, 302185, 302543, 302991]","[294369, 294709, 295143, 295448, 295798, 296153, 296531, 296930, 297332, 297788, 298180, 298542, 298895, 299290, 299637, 300025, 300392, 300786, 301128, 301485, 301849, 302262, 302635, 303083]","[141, 65, 16, 27, 196, 154, 135, 195, 220, 138, 158, 178, 171, 230, 245, 21, 135, 99, 112, 170, 169, 134, 165, 162]","[294302, 294648, 295118, 295411, 295756, 296102, 296497, 296889, 297244, 297716, 298129, 298501, 298810, 299237, 299611, 299955, 300349, 300740, 301068, 301420, 301756, 302191, 302548, 303029]","[294184, 294584, 294984, 295384, 295784, 296184, 296584, 296984, 297261, 297730, 298114, 298460, 298824, 299217, 299567, 299969, 300321, 300722, 301081, 301435, 301772, 302205, 302563, 303011]",98,EM,L,L,ITMSR,1.1,
3,400,trial,0,9,9,9,trial,"['S', 'S', 'S', 'S', 'S', 'S', 'S', 'C', 'C', 'C', 'C', 'C', 'C', 'C', 'C', 'C', 'C', 'C', 'C', 'C', 'C', 'C', 'C']","[309173, 309505, 309858, 310246, 310646, 311042, 311436, 311823, 312235, 312584, 312947, 313272, 313655, 313962, 314288, 314663, 315124, 315484, 315859, 316241, 316633, 317002, 317366]","[309252, 309583, 309942, 310339, 310736, 311145, 311534, 311910, 312306, 312678, 313042, 313359, 313743, 314038, 314373, 314768, 315210, 315579, 315958, 316352, 316728, 317108, 317449]","[252, 228, 26, 8, 232, 8, 205, 253, 145, 155, 234, 170, 171, 13, 183, 196, 158, 170, 107, 117, 123, 131, 69]","[309219, 309539, 309900, 310285, 310691, 311094, 311480, 311863, 312268, 312619, 312990, 313303, 313689, 313995, 314322, 314706, 315164, 315534, 315896, 316300, 316674, 317049, 317388]","[308759, 309158, 309558, 309958, 310359, 310758, 311158, 311558, 311843, 312255, 312604, 312967, 313292, 313675, 313982, 314308, 314683, 315144, 315504, 315879, 316261, 316653, 317022, 317386]",98,EM,L,L,ITMSR,1.1,
0,400,trial,0,10,10,10,trial,"['S', 'S', 'S', 'S', 'S', 'S', 'S', 'S', 'C', 'C', 'C', 'C', 'C', 'C', 'C', 'C', 'C', 'C', 'C', 'C', 'C', 'C', 'C', 'C']","[323204, 323517, 323864, 324240, 324627, 325019, 325409, 325830, 326198, 326631, 327013, 327437, 327832, 328221, 328594, 328958, 329359, 329763, 330082, 330500, 330846, 331234, 331598, 331960]","[323291, 323609, 323970, 324342, 324722, 325124, 325527, 325934, 326325, 326727, 327109, 327530, 327928, 328308, 328692, 329066, 329431, 329861, 330150, 330591, 330955, 331321, 331700, 332071]","[92, 118, 243, 37, 254, 34, 44, 3, 92, 219, 4, 18, 36, 36, 178, 205, 209, 236, 152, 253, 28, 252, 13, 49]","[323249, 323562, 323922, 324285, 324669, 325063, 325457, 325874, 326246, 326673, 327054, 327478, 327876, 328261, 328598, 329000, 329366, 329803, 330090, 330537, 330886, 331271, 331636, 332005]","[323103, 323503, 323903, 324303, 324703, 325103, 325504, 325903, 326218, 326651, 327033, 327457, 327853, 328241, 328614, 328978, 329379, 329783, 330102, 330520, 330866, 331254, 331618, 331980]",98,EM,L,L,ITMSR,1.1,
3,600,trial,0,11,11,11,trial,"['S', 'S', 'S', 'S', 'S', 'S', 'S', 'S', 'C', 'C', 'C', 'C', 'C', 'C', 'C', 'C', 'C', 'C', 'C', 'C', 'C', 'C', 'C', 'C']","[338144, 338536, 338923, 339425, 339991, 340547, 341133, 341736, 342308, 342785, 343282, 343717, 344158, 344621, 345181, 345616, 346013, 346450, 346811, 347233, 347592, 348029, 348395, 348832]","[338223, 338613, 339012, 339510, 340075, 340637, 341217, 341840, 342406, 342867, 343364, 343810, 344256, 344716, 345274, 345684, 346103, 346544, 346930, 347335, 347699, 348126, 348497, 348925]","[61, 76, 132, 103, 69, 123, 210, 159, 146, 143, 72, 116, 98, 92, 26, 197, 228, 175, 11, 240, 91, 253, 29, 247]","[338182, 338570, 338967, 339429, 339995, 340552, 341175, 341740, 342312, 342790, 343287, 343721, 344162, 344625, 345218, 345651, 346052, 346490, 346860, 347275, 347636, 348071, 348447, 348868]","[337748, 338349, 338949, 339549, 340149, 340749, 341349, 341949, 342328, 342805, 343302, 343737, 344178, 344641, 345201, 345636, 346033, 346470, 346831, 347253, 347612, 348049, 348416, 348852]",98,EM,L,L,ITMSR,1.1,
4,400,trial,0,12,12,12,trial,"['S', 'S', 'S', 'S', 'S', 'S', 'S', 'S', 'S', 'C', 'C', 'C', 'C', 'C', 'C', 'C', 'C', 'C', 'C', 'C', 'C', 'C', 'C', 'C', 'C']","[354481, 354795, 355145, 355543, 355914, 356235, 356538, 356827, 357178, 357555, 357904, 358224, 358587, 358917, 359280, 359600, 359968, 360271, 360627, 360910, 361234, 361540, 361901, 362179, 362553]","[354562, 354890, 355253, 355649, 356015, 356318, 356628, 356919, 357263, 357642, 357981, 358308, 358670, 359015, 359366, 359709, 360066, 360383, 360712, 361003, 361302, 361631, 361992, 362267, 362641]","[82, 113, 61, 109, 142, 58, 83, 139, 78, 98, 66, 97, 71, 125, 86, 96, 41, 108, 50, 128, 25, 81, 140, 110, 115]","[354523, 354844, 355184, 355597, 355959, 356269, 356575, 356866, 357217, 357594, 357910, 358260, 358625, 358958, 359319, 359640, 360004, 360311, 360665, 360954, 361240, 361547, 361939, 362216, 362590]","[354156, 354556, 354956, 355356, 355757, 356157, 356557, 356957, 357575, 357924, 358244, 358607, 358937, 359300, 359620, 359988, 360291, 360647, 360930, 361254, 361560, 361921, 362200, 362573]",98,EM,L,L,ITMSR,1.1,
4,600,trial,0,13,13,13,trial,"['S', 'S', 'S', 'S', 'S', 'S', 'S', 'S', 'C', 'C', 'C', 'C', 'C', 'C', 'C', 'C', 'C', 'C', 'C', 'C', 'C', 'C', 'C', 'C']","[368551, 369089, 369551, 369984, 370518, 371090, 371659, 372295, 372817, 373356, 373895, 374363, 374837, 375280, 375733, 376198, 376658, 377103, 377558, 378011, 378419, 378930, 379330, 379768]","[368660, 369189, 369655, 370095, 370618, 371197, 371763, 372378, 372956, 373458, 373975, 374473, 374939, 375396, 375852, 376328, 376788, 377221, 377632, 378096, 378541, 379029, 379410, 379860]","[148, 131, 22, 17, 12, 52, 243, 63, 13, 192, 154, 187, 210, 182, 208, 181, 115, 151, 7, 198, 183, 124, 121, 103]","[368598, 369134, 369608, 370034, 370558, 371137, 371702, 372333, 372876, 373398, 373933, 374404, 374890, 375340, 375792, 376259, 376717, 377160, 377563, 378050, 378475, 378980, 379368, 379774]","[368288, 368888, 369488, 370088, 370689, 371288, 371888, 372488, 372837, 373377, 373915, 374383, 374857, 375300, 375753, 376218, 376678, 377123, 377578, 378031, 378439, 378950, 379351, 379788]",98,EM,L,L,ITMSR,1.1,
5,400,trial,0,14,14,14,trial,"['S', 'S', 'S', 'S', 'S', 'S', 'S', 'C', 'C', 'C', 'C', 'C', 'C', 'C', 'C', 'C', 'C', 'C', 'C', 'C', 'C', 'C', 'C']","[385519, 385863, 386214, 386661, 387051, 387427, 387850, 388230, 388672, 389016, 389395, 389735, 390132, 390484, 390828, 391239, 391612, 391946, 392294, 392667, 393069, 393397, 393760]","[385594, 385957, 386319, 386748, 387121, 387517, 387939, 388344, 388756, 389108, 389497, 389834, 390199, 390573, 390927, 391336, 391711, 392073, 392409, 392765, 393148, 393495, 393887]","[177, 243, 223, 216, 80, 204, 222, 249, 167, 211, 255, 6, 110, 160, 170, 143, 189, 19, 239, 51, 31, 27, 96]","[385557, 385907, 386269, 386701, 387056, 387468, 387890, 388294, 388676, 389020, 389439, 389739, 390138, 390524, 390831, 391241, 391650, 392002, 392348, 392708, 393108, 393437, 393824]","[385152, 385551, 385951, 386351, 386751, 387151, 387551, 387951, 388250, 388692, 389037, 389415, 389755, 390152, 390504, 390848, 391259, 391632, 391966, 392314, 392687, 393090, 393417, 393780]",98,EM,L,L,ITMSR,1.1,
3,600,trial,0,15,15,15,trial,"['S', 'S', 'S', 'S', 'S', 'S', 'S', 'S', 'C', 'C', 'C', 'C', 'C', 'C', 'C', 'C', 'C', 'C', 'C', 'C', 'C', 'C', 'C', 'C']","[399806, 400219, 400676, 401196, 401700, 402237, 402800, 403364, 403933, 404405, 404842, 405316, 405697, 406052, 406437, 406834, 407299, 407692, 408131, 408554, 408926, 409357, 409750, 410119]","[399891, 400297, 400747, 401271, 401798, 402316, 402888, 403467, 404031, 404489, 404960, 405365, 405801, 406175, 406552, 406927, 407403, 407802, 408233, 408648, 409039, 409443, 409843, 410248]","[204, 190, 223, 79, 31, 173, 234, 86, 31, 46, 18, 195, 255, 227, 212, 163, 230, 236, 193, 255, 184, 182, 194, 205]","[399849, 400263, 400680, 401200, 401703, 402241, 402803, 403367, 403935, 404409, 404846, 405319, 405701, 406056, 406486, 406873, 407355, 407734, 408170, 408591, 408972, 409397, 409754, 410166]","[399424, 400024, 400624, 401224, 401824, 402424, 403024, 403624, 403953, 404425, 404862, 405336, 405718, 406072, 406457, 406854, 407319, 407712, 408152, 408574, 408946, 409377, 409771, 410139]",98,EM,L,L,ITMSR,1.1,
4,600,trial,0,16,16,16,trial,"['S', 'S', 'S', 'S', 'S', 'S', 'S', 'C', 'C', 'C', 'C', 'C', 'C', 'C', 'C', 'C', 'C', 'C', 'C', 'C', 'C', 'C', 'C']","[415857, 416541, 417183, 417827, 418464, 418993, 419589, 420202, 420707, 421213, 421702, 422225, 422672, 423178, 423662, 424134, 424587, 425013, 425448, 425924, 426352, 426802, 427256]","[415960, 416661, 417266, 417924, 418549, 419111, 419694, 420289, 420799, 421304, 421810, 422321, 422770, 423280, 423749, 424240, 424684, 425120, 425569, 426007, 426457, 426906, 427359]","[254, 11, 195, 5, 232, 152, 127, 137, 174, 133, 134, 7, 34, 167, 175, 154, 174, 211, 171, 152, 178, 184, 198]","[415899, 416596, 417186, 417831, 418469, 418997, 419639, 420207, 420712, 421218, 421705, 422265, 422713, 423181, 423666, 424206, 424643, 425055, 425452, 425928, 426356, 426806, 427259]","[415589, 416188, 416788, 417388, 417988, 418588, 419188, 419788, 420222, 420727, 421233, 421722, 422245, 422692, 423198, 423682, 424154, 424607, 425033, 425468, 425944, 426372, 426822, 427276]",98,EM,L,L,ITMSR,1.1,
1,400,trial,0,17,17,17,trial,"['S', 'S', 'S', 'S', 'S', 'S', 'S', 'S', 'C', 'C', 'C', 'C', 'C', 'C', 'C', 'C', 'C', 'C', 'C', 'C', 'C', 'C', 'C', 'C']","[432784, 433102, 433455, 433783, 434177, 434542, 434937, 435382, 435732, 436127, 436525, 436890, 437230, 437649, 438025, 438461, 438819, 439188, 439458, 439894, 440263, 440668, 441027, 441371]","[432865, 433180, 433524, 433879, 434287, 434667, 435049, 435463, 435816, 436222, 436612, 436996, 437336, 437740, 438125, 438559, 438922, 439294, 439590, 439988, 440390, 440764, 441157, 441485]","[254, 180, 172, 3, 64, 40, 65, 55, 54, 30, 180, 240, 5, 228, 27, 222, 27, 173, 252, 141, 245, 7, 14, 119]","[432820, 433140, 433460, 433829, 434180, 434546, 434982, 435385, 435773, 436167, 436529, 436940, 437234, 437652, 438029, 438464, 438871, 439227, 439528, 439934, 440327, 440708, 441104, 441431]","[432616, 433016, 433416, 433816, 434216, 434616, 435016, 435416, 435752, 436147, 436545, 436910, 437250, 437669, 438045, 438481, 438839, 439208, 439478, 439914, 440283, 440688, 441048, 441391]",98,EM,L,L,ITMSR,1.1,
2,400,trial,0,18,18,18,trial,"['S', 'S', 'S', 'S', 'S', 'S', 'S', 'S', 'C', 'C', 'C', 'C', 'C', 'C', 'C', 'C', 'C', 'C', 'C', 'C', 'C', 'C', 'C', 'C']","[447015, 447341, 447733, 448077, 448486, 448844, 449292, 449668, 450076, 450477, 450881, 451317, 451726, 452093, 452505, 452919, 453352, 453711, 454095, 454421, 454803, 455153, 455548, 455912]","[447108, 447433, 447808, 448165, 448558, 448933, 449369, 449763, 450158, 450568, 450976, 451404, 451808, 452195, 452603, 453024, 453446, 453822, 454199, 454536, 454886, 455246, 455619, 456019]","[224, 113, 178, 19, 195, 252, 222, 232, 6, 206, 48, 1, 193, 11, 193, 255, 231, 190, 162, 85, 134, 150, 112, 162]","[447065, 447404, 447736, 448079, 448488, 448847, 449296, 449671, 450078, 450480, 450883, 451320, 451729, 452096, 452508, 452922, 453355, 453713, 454099, 454427, 454807, 455157, 455553, 455916]","[446886, 447286, 447686, 448087, 448486, 448886, 449286, 449686, 450096, 450497, 450902, 451337, 451746, 452113, 452525, 452939, 453372, 453731, 454115, 454441, 454823, 455173, 455568, 455932]",98,EM,L,L,ITMSR,1.1,
5,600,trial,0,19,19,19,trial,"['S', 'S', 'S', 'S', 'S', 'S', 'S', 'C', 'C', 'C', 'C', 'C', 'C', 'C', 'C', 'C', 'C', 'C', 'C', 'C', 'C', 'C', 'C']","[461873, 462472, 463104, 463671, 464258, 464897, 465499, 466074, 466618, 467206, 467657, 468148, 468640, 469111, 469605, 470094, 470551, 471019, 471438, 471898, 472401, 472853, 473269]","[461934, 462547, 463161, 463765, 464362, 464964, 465583, 466156, 466694, 467281, 467756, 468221, 468716, 469213, 469697, 470177, 470642, 471087, 471522, 471972, 472468, 472930, 473352]","[208, 195, 150, 3, 223, 177, 231, 158, 152, 129, 242, 172, 221, 245, 248, 134, 201, 52, 72, 154, 135, 69, 203]","[461876, 462474, 463107, 463674, 464261, 464900, 465502, 466076, 466621, 467209, 467661, 468152, 468643, 469114, 469607, 470098, 470554, 471023, 471442, 471901, 472404, 472856, 473271]","[461588, 462188, 462788, 463388, 463988, 464588, 465188, 465788, 466094, 466638, 467226, 467677, 468168, 468660, 469131, 469625, 470114, 470572, 471040, 471458, 471918, 472421, 472873, 473289]",98,EM,L,L,ITMSR,1.1,
3,400,trial,0,20,20,20,trial,"['B', 'S', 'S', 'S', 'S', 'S', 'S', 'S', 'C', 'C', 'C', 'C', 'C', 'C', 'C', 'C', 'C', 'C', 'C', 'C', 'C', 'C', 'C', 'C']","[479016, 479420, 479792, 480175, 480550, 480940, 481309, 481723, 482107, 482491, 482887, 483290, 483637, 484009, 484357, 484728, 485081, 485478, 485864, 486249, 486625, 486971, 487380, 487756]","[479056, 479512, 479873, 480252, 480575, 481019, 481400, 481786, 482215, 482579, 482967, 483408, 483737, 484104, 484460, 484828, 485188, 485584, 485958, 486353, 486762, 487088, 487473, 487846]","[141, 69, 150, 40, 196, 168, 132, 191, 117, 182, 237, 213, 225, 6, 197, 193, 199, 133, 167, 151, 185, 195, 217, 213]","[479016, 479467, 479799, 480179, 480556, 480944, 481314, 481727, 482111, 482496, 482891, 483294, 483641, 484014, 484361, 484732, 485085, 485485, 485867, 486253, 486630, 486976, 487386, 487761]","[479029, 479429, 479830, 480229, 480629, 481029, 481429, 481829, 482127, 482511, 482907, 483310, 483657, 484029, 484377, 484748, 485101, 485498, 485884, 486269, 486645, 486991, 487400, 487776]",98,EM,L,L,ITMSR,1.1,
4,400,trial,0,21,21,21,trial,"['S', 'S', 'S', 'S', 'S', 'S', 'S', 'C', 'C', 'C', 'C', 'C', 'C', 'C', 'C', 'C', 'C', 'C', 'C', 'C', 'C', 'C', 'C']","[493774, 494211, 494662, 495007, 495481, 495880, 496275, 496662, 497093, 497481, 497823, 498166, 498631, 498949, 499332, 499772, 500155, 500541, 500943, 501258, 501675, 502025, 502410]","[493872, 494303, 494757, 495093, 495561, 495956, 496339, 496743, 497168, 497559, 497923, 498275, 498702, 499073, 499443, 499883, 500259, 500620, 501027, 501389, 501723, 502090, 502475]","[132, 137, 6, 172, 216, 101, 10, 205, 211, 117, 215, 230, 114, 223, 244, 157, 105, 74, 125, 157, 95, 45, 64]","[493833, 494217, 494667, 495011, 495485, 495886, 496281, 496668, 497099, 497487, 497827, 498170, 498635, 498953, 499336, 499778, 500159, 500546, 500948, 501329, 501680, 502029, 502414]","[493548, 493948, 494348, 494748, 495149, 495549, 495949, 496349, 496683, 497113, 497501, 497843, 498186, 498651, 498969, 499352, 499792, 500175, 500561, 500963, 501278, 501695, 502045, 502430]",98,EM,L,L,ITMSR,1.1,
1,400,trial,0,22,22,22,trial,"['S', 'S', 'S', 'S', 'S', 'S', 'S', 'C', 'C', 'C', 'C', 'C', 'C', 'C', 'C', 'C', 'C', 'C', 'C', 'C', 'C', 'C', 'C']","[508352, 508739, 509130, 509543, 509961, 510345, 510766, 511120, 511516, 511937, 512324, 512704, 513113, 513505, 513890, 514265, 514680, 515035, 515477, 515812, 516240, 516599, 517006]","[508439, 508832, 509214, 509613, 510048, 510448, 510859, 511217, 511606, 512014, 512407, 512797, 513193, 513589, 513992, 514356, 514758, 515139, 515555, 515920, 516324, 516697, 517092]","[138, 164, 125, 58, 59, 122, 156, 92, 146, 77, 101, 155, 96, 77, 145, 151, 106, 173, 150, 171, 141, 187, 153]","[508361, 508743, 509134, 509553, 509971, 510350, 510771, 511125, 511521, 511943, 512329, 512713, 513119, 513510, 513941, 514270, 514685, 515098, 515481, 515816, 516244, 516603, 517011]","[507971, 508371, 508771, 509171, 509571, 509971, 510371, 510771, 511140, 511536, 511958, 512344, 512724, 513133, 513525, 513910, 514285, 514700, 515055, 515497, 515832, 516260, 516619, 517026]",98,EM,L,L,ITMSR,1.1,
2,600,trial,0,23,23,23,trial,"['S', 'S', 'S', 'S', 'S', 'S', 'S', 'C', 'C', 'C', 'C', 'C', 'C', 'C', 'C', 'C', 'C', 'C', 'C', 'C', 'C', 'C', 'C']","[523005, 523648, 524355, 524897, 525445, 526123, 526667, 527226, 527730, 528319, 528779, 529331, 529842, 530367, 530891, 531399, 531864, 532326, 532884, 533306, 533842, 534312, 534801]","[523070, 523703, 524399, 524983, 525520, 526189, 526751, 527323, 527832, 528397, 528914, 529423, 529928, 530464, 531005, 531519, 531978, 532430, 532966, 533467, 533950, 534432, 534896]","[155, 94, 86, 201, 227, 72, 150, 148, 150, 24, 183, 131, 61, 186, 171, 148, 176, 146, 124, 167, 175, 43, 103]","[523010, 523653, 524358, 524902, 525449, 526130, 526671, 527232, 527734, 528324, 528784, 529336, 529847, 530372, 530896, 531402, 531868, 532330, 532887, 533310, 533847, 534317, 534804]","[522700, 523300, 523900, 524500, 525101, 525701, 526301, 526901, 527246, 527750, 528339, 528799, 529351, 529862, 530387, 530911, 531419, 531885, 532346, 532904, 533326, 533862, 534332, 534821]",98,EM,L,L,ITMSR,1.1,
2,400,trial,0,24,24,24,trial,"['S', 'S', 'S', 'S', 'S', 'S', 'S', 'S', 'C', 'C', 'C', 'C', 'C', 'C', 'C', 'C', 'C', 'C', 'C', 'C', 'C', 'C', 'C', 'C', 'C']","[540595, 540966, 541261, 541589, 541911, 542268, 542641, 543063, 543443, 543843, 544173, 544562, 544948, 545301, 545659, 545976, 546353, 546688, 547051, 547419, 547759, 548156, 548551, 548651, 548937]","[540639, 541010, 541332, 541659, 541987, 542367, 542739, 543129, 543499, 543912, 544252, 544649, 545031, 545381, 545757, 546062, 546457, 546772, 547134, 547481, 547854, 548240, 548571, 548671, 549011]","[90, 156, 205, 242, 219, 9, 2, 153, 192, 184, 180, 138, 169, 169, 4, 112, 233, 138, 218, 147, 235, 67, 189, 16, 222]","[540601, 540971, 541265, 541592, 541914, 542272, 542646, 543066, 543447, 543845, 544177, 544564, 544951, 545303, 545661, 545979, 546356, 546692, 547055, 547424, 547762, 548160, 548556, 548651, 548940]","[540367, 540767, 541167, 541568, 541967, 542367, 542767, 543167, 543463, 543863, 544193, 544582, 544968, 545321, 545679, 545996, 546373, 546708, 547072, 547439, 547779, 548176, 548571, 548957]",98,EM,L,L,ITMSR,1.1,
0,400,trial,0,25,25,25,trial,"['S', 'S', 'S', 'S', 'S', 'S', 'S', 'C', 'C', 'C', 'C', 'C', 'C', 'C', 'C', 'C', 'C', 'C', 'C', 'C', 'C', 'C', 'C']","[554707, 555051, 555522, 555929, 556385, 556803, 557217, 557648, 558071, 558466, 558932, 559314, 559737, 560142, 560549, 560996, 561395, 561827, 562245, 562656, 563046, 563437, 563917]","[554790, 555155, 555599, 556027, 556481, 556901, 557323, 557739, 558155, 558540, 559023, 559420, 559810, 560242, 560648, 561059, 561483, 561901, 562337, 562744, 563131, 563517, 563990]","[11, 244, 42, 72, 25, 253, 65, 37, 28, 233, 249, 240, 137, 5, 218, 123, 223, 189, 196, 220, 160, 168, 49]","[554746, 555091, 555558, 555975, 556427, 556846, 557265, 557682, 558109, 558502, 558965, 559348, 559767, 560180, 560593, 561032, 561433, 561863, 562283, 562694, 563080, 563471, 563949]","[554451, 554851, 555251, 555651, 556051, 556451, 556851, 557251, 557668, 558091, 558486, 558952, 559334, 559757, 560162, 560569, 561016, 561415, 561847, 562265, 562676, 563066, 563458, 563937]",98,EM,L,L,ITMSR,1.1,
5,600,trial,0,26,26,26,trial,"['S', 'S', 'S', 'S', 'S', 'S', 'S', 'S', 'C', 'C', 'C', 'C', 'C', 'C', 'C', 'C', 'C', 'C', 'C', 'C', 'C', 'C', 'C', 'C']","[569353, 569724, 570314, 570873, 571463, 572121, 572690, 573283, 573869, 574384, 574882, 575353, 575830, 576273, 576750, 577182, 577623, 578094, 578539, 578962, 579433, 579852, 580331, 580797]","[569439, 569809, 570408, 570962, 571557, 572195, 572785, 573377, 573966, 574475, 574958, 575410, 575897, 576354, 576818, 577269, 577707, 578180, 578630, 579059, 579527, 579955, 580441, 580899]","[29, 221, 33, 221, 239, 229, 205, 251, 89, 118, 32, 132, 89, 152, 136, 227, 191, 208, 194, 146, 135, 241, 195, 234]","[569392, 569757, 570351, 570902, 571493, 572124, 572698, 573322, 573898, 574413, 574914, 575378, 575859, 576303, 576776, 577217, 577655, 578129, 578566, 578993, 579464, 579881, 580368, 580830]","[569249, 569849, 570449, 571049, 571650, 572250, 572850, 573450, 573889, 574404, 574902, 575373, 575850, 576293, 576770, 577202, 577643, 578114, 578560, 578982, 579453, 579872, 580352, 580817]",98,EM,L,L,ITMSR,1.1,
0,600,trial,0,27,27,27,trial,"['S', 'S', 'S', 'S', 'S', 'S', 'S', 'S', 'C', 'C', 'C', 'C', 'C', 'C', 'C', 'C', 'C', 'C', 'C', 'C', 'C', 'C', 'C', 'C']","[586814, 587282, 587787, 588258, 588788, 589308, 589857, 590457, 591007, 591535, 592117, 592592, 593082, 593603, 594147, 594615, 595136, 595635, 596114, 596627, 597160, 597618, 598091, 598575]","[586882, 587362, 587840, 588305, 588860, 589407, 589959, 590547, 591112, 591635, 592211, 592698, 593189, 593689, 594231, 594734, 595258, 595745, 596212, 596698, 597254, 597712, 598185, 598682]","[40, 248, 43, 205, 28, 7, 125, 153, 183, 252, 210, 169, 157, 137, 56, 246, 250, 203, 151, 140, 100, 55, 47, 50]","[586840, 587319, 587793, 588265, 588794, 589318, 589865, 590465, 591048, 591572, 592165, 592629, 593146, 593642, 594185, 594660, 595144, 595641, 596121, 596632, 597168, 597623, 598095, 598581]","[586399, 586999, 587599, 588199, 588800, 589400, 590000, 590600, 591027, 591555, 592137, 592612, 593102, 593624, 594167, 594635, 595156, 595655, 596134, 596647, 597180, 597638, 598111, 598595]",98,EM,L,L,ITMSR,1.1,
2,600,trial,0,28,28,28,trial,"['S', 'S', 'S', 'S', 'S', 'S', 'S', 'S', 'C', 'C', 'C', 'C', 'C', 'C', 'C', 'C', 'C', 'C', 'C', 'C', 'C', 'C', 'C', 'C']","[604114, 604487, 604993, 605535, 606047, 606713, 607367, 607901, 608459, 608980, 609469, 610031, 610488, 611001, 611507, 612032, 612475, 612959, 613468, 613918, 614392, 614834, 615313, 615762]","[604213, 604591, 605061, 605612, 606166, 606799, 607440, 608005, 608576, 609073, 609561, 610119, 610582, 611083, 611600, 612119, 612593, 613067, 613579, 614033, 614512, 614921, 615485, 615914]","[27, 48, 58, 53, 71, 255, 255, 66, 60, 252, 226, 81, 43, 77, 32, 25, 66, 21, 6, 240, 205, 122, 144, 8]","[604163, 604499, 605000, 605546, 606055, 606724, 607376, 607915, 608474, 608990, 609481, 610039, 610499, 611007, 611515, 612041, 612486, 612969, 613476, 613931, 614405, 614843, 615323, 615775]","[603902, 604503, 605102, 605702, 606302, 606902, 607502, 608102, 608479, 609000, 609489, 610051, 610508, 611021, 611527, 612052, 612495, 612979, 613488, 613938, 614412, 614854, 615333, 615782]",98,EM,L,L,ITMSR,1.1,
1,600,trial,0,29,29,29,trial,"['S', 'S', 'S', 'S', 'S', 'S', 'S', 'S', 'C', 'C', 'C', 'C', 'C', 'C', 'C', 'C', 'C', 'C', 'C', 'C', 'C', 'C', 'C', 'C']","[621170, 621571, 622154, 622753, 623373, 624058, 624582, 625131, 625697, 626264, 626794, 627306, 627876, 628397, 628915, 629440, 629919, 630438, 630959, 631480, 632038, 632549, 633047, 633562]","[621253, 621657, 622267, 622845, 623493, 624117, 624681, 625251, 625807, 626360, 626891, 627405, 627959, 628484, 629024, 629523, 630064, 630572, 631096, 631597, 632133, 632628, 633126, 633660]","[246, 229, 66, 156, 104, 48, 68, 109, 152, 40, 36, 113, 191, 101, 148, 13, 147, 238, 211, 142, 80, 84, 163, 175]","[621212, 621608, 622201, 622794, 623423, 624065, 624590, 625208, 625734, 626306, 626802, 627310, 627879, 628405, 628921, 629445, 629925, 630498, 631009, 631488, 632082, 632555, 633053, 633597]","[621117, 621717, 622317, 622917, 623517, 624117, 624717, 625317, 625717, 626284, 626814, 627326, 627896, 628417, 628935, 629460, 629939, 630458, 630979, 631500, 632058, 632569, 633067, 633582]",98,EM,L,L,ITMSR,1.1,
1,600,trial,0,30,30,30,trial,"['S', 'S', 'S', 'S', 'S', 'S', 'S', 'S', 'C', 'C', 'C', 'C', 'C', 'C', 'C', 'C', 'C', 'C', 'C', 'C', 'C', 'C', 'C', 'C']","[650667, 651049, 651570, 652082, 652647, 653213, 653828, 654413, 654970, 655557, 656049, 656533, 656991, 657509, 657945, 658437, 658944, 659431, 659942, 660398, 660841, 661334, 661832, 662310]","[650759, 651154, 651664, 652181, 652746, 653315, 653926, 654527, 655050, 655654, 656131, 656630, 657120, 657632, 658094, 658539, 659030, 659510, 660035, 660511, 660961, 661436, 661925, 662415]","[81, 72, 70, 14, 59, 210, 21, 17, 115, 161, 144, 101, 42, 29, 3, 228, 209, 66, 25, 99, 40, 45, 50, 66]","[650715, 651089, 651611, 652090, 652688, 653258, 653867, 654456, 655011, 655595, 656084, 656575, 657043, 657558, 658006, 658472, 658978, 659466, 659980, 660439, 660898, 661379, 661870, 662347]","[650448, 651048, 651649, 652248, 652848, 653448, 654048, 654648, 654990, 655577, 656069, 656553, 657011, 657529, 657965, 658457, 658964, 659451, 659962, 660418, 660861, 661354, 661852, 662330]",98,EM,L,L,ITMSR,1.1,
0,400,trial,0,31,31,31,trial,"['S', 'S', 'S', 'S', 'S', 'S', 'S', 'C', 'C', 'C', 'C', 'C', 'C', 'C', 'C', 'C', 'C', 'C', 'C', 'C', 'C', 'C', 'C']","[668150, 668565, 669040, 669447, 669885, 670299, 670732, 671132, 671513, 671900, 672313, 672731, 673082, 673461, 673866, 674198, 674604, 674960, 675313, 675731, 676137, 676508, 676930]","[668247, 668661, 669114, 669534, 669970, 670363, 670815, 671215, 671624, 672009, 672393, 672822, 673178, 673560, 673946, 674317, 674698, 675069, 675430, 675847, 676230, 676600, 677022]","[14, 8, 227, 25, 216, 184, 130, 193, 49, 11, 8, 89, 224, 39, 228, 207, 54, 10, 241, 43, 16, 9, 58]","[668210, 668611, 669045, 669452, 669890, 670305, 670737, 671138, 671557, 671944, 672319, 672769, 673088, 673502, 673871, 674272, 674641, 675024, 675357, 675800, 676174, 676547, 676971]","[667940, 668340, 668740, 669140, 669540, 669940, 670340, 670740, 671152, 671533, 671920, 672333, 672751, 673102, 673481, 673886, 674219, 674624, 674980, 675333, 675751, 676157, 676528, 676951]",98,EM,L,L,ITMSR,1.1,
2,400,trial,0,32,32,32,trial,"['B', 'S', 'S', 'S', 'S', 'S', 'S', 'S', 'C', 'C', 'C', 'C', 'C', 'C', 'C', 'C', 'C', 'C', 'C', 'C', 'C', 'C', 'C', 'C']","[682698, 683115, 683483, 683852, 684266, 684673, 685045, 685452, 685845, 686261, 686618, 687006, 687373, 687683, 688144, 688470, 688855, 689261, 689605, 690002, 690383, 690761, 691136, 691482]","[682925, 683183, 683583, 683940, 684338, 684747, 685155, 685536, 685937, 686352, 686714, 687097, 687455, 687780, 688242, 688584, 688943, 689345, 689709, 690101, 690480, 690869, 691239, 691584]","[110, 52, 108, 42, 36, 231, 98, 220, 49, 68, 41, 18, 37, 58, 59, 48, 247, 39, 44, 250, 201, 187, 226, 2]","[682880, 683118, 683528, 683893, 684270, 684677, 685090, 685458, 685849, 686266, 686659, 687012, 687377, 687724, 688184, 688528, 688892, 689297, 689645, 690048, 690388, 690805, 691182, 691486]","[682710, 683108, 683508, 683908, 684308, 684708, 685108, 685508, 685865, 686281, 686638, 687026, 687393, 687704, 688164, 688490, 688875, 689282, 689625, 690022, 690403, 690781, 691156, 691502]",98,EM,L,L,ITMSR,1.1,
2,600,trial,0,33,33,33,trial,"['S', 'S', 'S', 'S', 'S', 'S', 'S', 'S', 'C', 'C', 'C', 'C', 'C', 'C', 'C', 'C', 'C', 'C', 'C', 'C', 'C', 'C', 'C', 'C']","[697579, 698055, 698460, 698970, 699481, 700026, 700614, 701200, 701763, 702303, 702749, 703250, 703708, 704139, 704576, 705029, 705451, 705870, 706338, 706762, 707168, 707552, 708004, 708494]","[697663, 698124, 698555, 699042, 699572, 700128, 700726, 701287, 701825, 702386, 702852, 703333, 703781, 704204, 704685, 705104, 705576, 705987, 706395, 706807, 707282, 707683, 708129, 708599]","[70, 80, 60, 10, 61, 47, 194, 160, 29, 7, 18, 249, 236, 122, 222, 36, 31, 24, 215, 234, 13, 20, 35, 56]","[697623, 698059, 698465, 698974, 699486, 700073, 700660, 701205, 701766, 702307, 702753, 703254, 703744, 704144, 704581, 705033, 705494, 705874, 706342, 706766, 707173, 707557, 708009, 708498]","[697280, 697880, 698480, 699080, 699680, 700280, 700880, 701480, 701784, 702323, 702769, 703270, 703728, 704159, 704596, 705049, 705471, 705890, 706358, 706782, 707188, 707572, 708024, 708514]",98,EM,L,L,ITMSR,1.1,
5,600,trial,0,34,34,34,trial,"['S', 'S', 'S', 'S', 'S', 'S', 'S', 'S', 'C', 'C', 'C', 'C', 'C', 'C', 'C', 'C', 'C', 'C', 'C', 'C', 'C', 'C', 'C', 'C']","[714284, 714730, 715147, 715669, 716316, 716912, 717440, 718010, 718537, 719052, 719636, 720095, 720602, 721076, 721550, 722023, 722487, 722918, 723356, 723782, 724243, 724656, 725045, 725554]","[714384, 714839, 715249, 715789, 716389, 716977, 717499, 718092, 718643, 719151, 719697, 720174, 720699, 721180, 721652, 722096, 722583, 723037, 723458, 723889, 724322, 724761, 725161, 725648]","[33, 82, 60, 33, 204, 9, 196, 156, 102, 196, 211, 171, 52, 71, 210, 236, 6, 18, 232, 236, 11, 71, 237, 192]","[714332, 714757, 715157, 715684, 716326, 716921, 717451, 718023, 718545, 719063, 719645, 720106, 720614, 721086, 721563, 722035, 722496, 722929, 723376, 723792, 724257, 724663, 725068, 725562]","[714024, 714625, 715224, 715824, 716424, 717024, 717624, 718224, 718557, 719072, 719656, 720115, 720622, 721096, 721570, 722043, 722507, 722938, 723376, 723802, 724263, 724676, 725065, 725574]",98,EM,L,L,ITMSR,1.1,
5,600,trial,0,35,35,35,trial,"['S', 'S', 'S', 'S', 'S', 'S', 'S', 'S', 'S', 'C', 'C', 'C', 'C', 'C', 'C', 'C', 'C', 'C', 'C', 'C', 'C', 'C', 'C', 'C', 'C']","[731250, 731731, 732164, 732642, 733115, 733692, 734210, 734831, 735373, 736247, 736778, 737263, 737764, 738230, 738711, 739143, 739633, 740066, 740566, 741008, 741446, 741895, 742351, 742764, 743237]","[731330, 731797, 732249, 732727, 733198, 733767, 734347, 734930, 735471, 736362, 736860, 737350, 737852, 738327, 738798, 739260, 739705, 740161, 740648, 741099, 741548, 742008, 742456, 742878, 743308]","[89, 58, 215, 157, 255, 203, 224, 96, 13, 52, 11, 169, 181, 210, 41, 240, 55, 47, 198, 228, 5, 13, 12, 38, 30]","[731289, 731735, 732205, 732685, 733158, 733696, 734302, 734883, 735419, 736303, 736781, 737269, 737767, 738235, 738715, 739148, 739637, 740071, 740571, 741013, 741450, 741899, 742407, 742800, 743241]","[730955, 731555, 732155, 732755, 733356, 733955, 734555, 735155, 736267, 736798, 737283, 737784, 738250, 738732, 739163, 739653, 740086, 740586, 741028, 741466, 741915, 742371, 742785, 743257]",98,EM,L,L,ITMSR,1.1,
0,600,trial,0,36,36,36,trial,"['S', 'S', 'S', 'S', 'S', 'S', 'S', 'S', 'S', 'C', 'C', 'C', 'C', 'C', 'C', 'C', 'C', 'C', 'C', 'C', 'C', 'C', 'C', 'C', 'C']","[749372, 749806, 750230, 750670, 751246, 751831, 752374, 752949, 753499, 754226, 754661, 755098, 755530, 755965, 756398, 756824, 757235, 757661, 758097, 758520, 758953, 759401, 759809, 760238, 760637]","[749447, 749886, 750319, 750772, 751333, 751913, 752456, 753034, 753588, 754317, 754750, 755200, 755620, 756051, 756500, 756937, 757338, 757761, 758214, 758645, 759072, 759511, 759900, 760357, 760753]","[4, 37, 37, 53, 223, 105, 190, 199, 232, 244, 255, 241, 255, 2, 238, 230, 40, 234, 28, 234, 2, 5, 245, 250, 26]","[749409, 749845, 750269, 750709, 751285, 751837, 752376, 752952, 753502, 754230, 754665, 755102, 755534, 755970, 756402, 756827, 757239, 757665, 758100, 758524, 758958, 759405, 759813, 760242, 760640]","[749053, 749654, 750253, 750853, 751453, 752053, 752653, 753253, 754246, 754681, 755118, 755550, 755985, 756418, 756844, 757255, 757681, 758117, 758540, 758973, 759421, 759829, 760258, 760657]",98,EM,L,L,ITMSR,1.1,
1,400,trial,0,37,37,37,trial,"['S', 'S', 'S', 'S', 'S', 'S', 'S', 'S', 'C', 'C', 'C', 'C', 'C', 'C', 'C', 'C', 'C', 'C', 'C', 'C', 'C', 'C', 'C', 'C']","[766494, 766851, 767251, 767607, 767969, 768340, 768745, 769118, 769498, 769866, 770260, 770651, 771035, 771391, 771826, 772204, 772596, 772977, 773337, 773771, 774120, 774537, 774837, 775304]","[766574, 766931, 767321, 767699, 768059, 768438, 768847, 769218, 769585, 769977, 770340, 770746, 771131, 771495, 771930, 772320, 772674, 773074, 773445, 773876, 774222, 774593, 774945, 775382]","[100, 210, 156, 217, 250, 1, 25, 222, 29, 242, 150, 227, 100, 215, 209, 195, 193, 248, 7, 248, 3, 34, 15, 248]","[766499, 766854, 767254, 767610, 767972, 768345, 768747, 769122, 769502, 769870, 770265, 770655, 771039, 771395, 771830, 772208, 772600, 772980, 773340, 773775, 774123, 774540, 774840, 775307]","[766345, 766745, 767145, 767545, 767945, 768345, 768745, 769145, 769518, 769886, 770280, 770671, 771055, 771411, 771846, 772225, 772616, 772997, 773357, 773791, 774140, 774557, 774857, 775324]",98,EM,L,L,ITMSR,1.1,
4,600,trial,0,38,38,38,trial,"['S', 'S', 'S', 'S', 'S', 'S', 'S', 'S', 'C', 'C', 'C', 'C', 'C', 'C', 'C', 'C', 'C', 'C', 'C', 'C', 'C', 'C', 'C', 'C']","[781450, 781902, 782454, 782941, 783444, 783907, 784470, 785022, 785548, 785991, 786501, 786960, 787429, 787915, 788385, 788886, 789336, 789795, 790223, 790786, 791197, 791677, 792109, 792565]","[781531, 781961, 782477, 783014, 783537, 783986, 784551, 785111, 785667, 786111, 786591, 787068, 787546, 787994, 788491, 788989, 789440, 789905, 790342, 790885, 791307, 791809, 792231, 792683]","[158, 122, 37, 188, 138, 134, 227, 175, 185, 160, 140, 148, 172, 66, 144, 127, 162, 185, 225, 171, 227, 218, 161, 159]","[781456, 781906, 782458, 782943, 783448, 783910, 784472, 785026, 785551, 785994, 786505, 786963, 787431, 787918, 788388, 788889, 789339, 789798, 790225, 790790, 791200, 791681, 792112, 792568]","[781047, 781647, 782247, 782848, 783448, 784048, 784648, 785248, 785568, 786011, 786521, 786980, 787449, 787935, 788405, 788907, 789356, 789815, 790243, 790806, 791217, 791697, 792129, 792585]",98,EM,L,L,ITMSR,1.1,
2,400,trial,0,39,39,39,trial,"['S', 'S', 'S', 'S', 'S', 'S', 'S', 'S', 'C', 'C', 'C', 'C', 'C', 'C', 'C', 'C', 'C', 'C', 'C', 'C', 'C', 'C', 'C', 'C']","[798134, 798457, 798771, 799116, 799482, 799861, 800277, 800657, 801045, 801446, 801793, 802173, 802554, 802885, 803281, 803577, 803944, 804282, 804660, 804989, 805347, 805715, 806060, 806372]","[798216, 798525, 798851, 799191, 799570, 799939, 800345, 800732, 801125, 801526, 801895, 802267, 802650, 803003, 803383, 803702, 804043, 804384, 804747, 805093, 805455, 805821, 806163, 806475]","[116, 255, 251, 247, 218, 214, 160, 199, 183, 174, 158, 218, 48, 218, 238, 184, 223, 244, 193, 240, 11, 224, 245, 196]","[798139, 798460, 798774, 799119, 799485, 799865, 800281, 800660, 801048, 801449, 801796, 802177, 802557, 802888, 803284, 803580, 803947, 804285, 804663, 804993, 805350, 805719, 806063, 806375]","[797954, 798354, 798754, 799154, 799554, 799954, 800354, 800754, 801065, 801466, 801813, 802193, 802574, 802905, 803301, 803597, 803964, 804302, 804680, 805009, 805367, 805735, 806080, 806392]",98,EM,L,L,ITMSR,1.1,
5,400,trial,0,40,40,40,trial,"['S', 'S', 'S', 'S', 'S', 'S', 'S', 'S', 'C', 'C', 'C', 'C', 'C', 'C', 'C', 'C', 'C', 'C', 'C', 'C', 'C', 'C', 'C', 'C']","[811904, 812219, 812607, 812916, 813379, 813713, 814142, 814502, 814931, 815320, 815719, 816102, 816508, 816865, 817223, 817640, 817997, 818355, 818677, 819102, 819393, 819758, 820088, 820441]","[811987, 812285, 812667, 812999, 813459, 813788, 814226, 814602, 815019, 815401, 815804, 816204, 816569, 816945, 817305, 817719, 818091, 818437, 818770, 819182, 819486, 819831, 820185, 820535]","[193, 253, 125, 212, 224, 139, 190, 214, 202, 190, 162, 229, 189, 196, 187, 162, 191, 96, 116, 140, 153, 180, 198, 175]","[811956, 812222, 812610, 812919, 813381, 813717, 814146, 814508, 814936, 815322, 815722, 816104, 816512, 816868, 817225, 817643, 818000, 818359, 818681, 819105, 819395, 819761, 820092, 820444]","[811760, 812161, 812560, 812960, 813360, 813760, 814160, 814560, 814951, 815340, 815739, 816122, 816528, 816885, 817243, 817660, 818017, 818375, 818697, 819122, 819414, 819778, 820108, 820461]",98,EM,L,L,ITMSR,1.1,
1,600,trial,0,41,41,41,trial,"['S', 'S', 'S', 'S', 'S', 'S', 'S', 'S', 'C', 'C', 'C', 'C', 'C', 'C', 'C', 'C', 'C', 'C', 'C', 'C', 'C', 'C', 'C', 'C']","[826066, 826456, 827020, 827572, 828116, 828675, 829214, 829794, 830413, 830977, 831524, 831978, 832512, 833044, 833544, 834083, 834439, 835031, 835493, 835993, 836474, 836977, 837483, 838034]","[826121, 826532, 827074, 827651, 828197, 828773, 829316, 829889, 830491, 831063, 831602, 832077, 832618, 833161, 833654, 834192, 834585, 835134, 835590, 836089, 836587, 837084, 837563, 838118]","[118, 176, 223, 211, 10, 4, 35, 47, 50, 15, 6, 34, 17, 2, 253, 249, 244, 181, 3, 22, 1, 233, 207, 231]","[826071, 826461, 827025, 827575, 828120, 828677, 829216, 829796, 830415, 830981, 831527, 831980, 832515, 833048, 833547, 834085, 834443, 835034, 835496, 835996, 836477, 836980, 837485, 838037]","[825861, 826461, 827061, 827661, 828261, 828861, 829461, 830061, 830433, 830997, 831544, 831998, 832532, 833064, 833564, 834103, 834459, 835051, 835513, 836013, 836494, 836997, 837504, 838054]",98,EM,L,L,ITMSR,1.1,
0,600,trial,0,42,42,42,trial,"['S', 'S', 'S', 'S', 'S', 'S', 'S', 'S', 'C', 'C', 'C', 'C', 'C', 'C', 'C', 'C', 'C', 'C', 'C', 'C', 'C', 'C', 'C', 'C']","[843671, 844087, 844642, 845265, 845775, 846312, 846833, 847488, 848029, 848586, 849114, 849569, 850043, 850515, 850993, 851461, 851911, 852352, 852814, 853299, 853765, 854207, 854651, 855173]","[843763, 844169, 844750, 845368, 845889, 846442, 846985, 847611, 848200, 848737, 849222, 849722, 850210, 850657, 851125, 851587, 852036, 852485, 852957, 853437, 853897, 854344, 854776, 855268]","[71, 123, 147, 146, 69, 107, 156, 134, 104, 134, 68, 117, 126, 89, 98, 95, 131, 127, 111, 119, 140, 129, 68, 131]","[843684, 844093, 844648, 845271, 845783, 846323, 846878, 847501, 848041, 848595, 849125, 849576, 850050, 850522, 850999, 851469, 851916, 852359, 852820, 853305, 853771, 854215, 854660, 855179]","[843514, 844114, 844715, 845314, 845914, 846514, 847114, 847714, 848049, 848606, 849134, 849589, 850063, 850535, 851013, 851481, 851931, 852372, 852834, 853319, 853785, 854227, 854671, 855193]",98,EM,L,L,ITMSR,1.1,
3,600,trial,0,43,43,43,trial,"['B', 'S', 'S', 'S', 'S', 'S', 'S', 'S', 'C', 'C', 'C', 'C', 'C', 'C', 'C', 'C', 'C', 'C', 'C', 'C', 'C', 'C', 'C', 'C']","[860668, 861148, 861708, 862274, 862859, 863469, 864039, 864729, 865277, 865793, 866302, 866800, 867325, 867791, 868300, 868767, 869309, 869813, 870300, 870797, 871243, 871674, 872144, 872559]","[860697, 861236, 861792, 862360, 862956, 863562, 864133, 864814, 865374, 865886, 866386, 866913, 867435, 867905, 868417, 868871, 869407, 869926, 870410, 870891, 871357, 871782, 872258, 872655]","[48, 49, 25, 226, 198, 183, 11, 41, 203, 122, 150, 205, 166, 151, 202, 16, 236, 251, 204, 187, 180, 253, 24, 210]","[860668, 861192, 861748, 862317, 862905, 863505, 864044, 864766, 865283, 865833, 866307, 866805, 867331, 867795, 868304, 868771, 869314, 869818, 870303, 870803, 871248, 871682, 872194, 872597]","[860681, 861281, 861881, 862481, 863081, 863681, 864281, 864881, 865297, 865813, 866322, 866820, 867345, 867811, 868320, 868787, 869329, 869833, 870320, 870817, 871263, 871694, 872164, 872579]",98,EM,L,L,ITMSR,1.1,
3,600,trial,0,44,44,44,trial,"['S', 'S', 'S', 'S', 'S', 'S', 'S', 'S', 'C', 'C', 'C', 'C', 'C', 'C', 'C', 'C', 'C', 'C', 'C', 'C', 'C', 'C', 'C', 'C']","[878173, 878589, 879136, 879678, 880305, 880846, 881461, 882012, 882618, 883182, 883751, 884261, 884775, 885258, 885760, 886248, 886772, 887237, 887747, 888241, 888811, 889241, 889776, 890283]","[878238, 878665, 879217, 879774, 880381, 880912, 881542, 882107, 882711, 883288, 883833, 884381, 884885, 885379, 885885, 886359, 886887, 887347, 887842, 888355, 888873, 889336, 889863, 890303]","[71, 139, 137, 115, 177, 243, 238, 31, 185, 103, 148, 172, 119, 101, 100, 245, 206, 240, 1, 226, 27, 163, 54, 48]","[878210, 878599, 879177, 879721, 880311, 880852, 881469, 882017, 882623, 883186, 883759, 884268, 884782, 885264, 885767, 886254, 886780, 887243, 887753, 888247, 888849, 889250, 889782, 890286]","[877981, 878581, 879181, 879781, 880381, 880982, 881581, 882181, 882638, 883202, 883771, 884281, 884795, 885278, 885780, 886268, 886792, 887257, 887768, 888261, 888832, 889261, 889796, 890303]",98,EM,L,L,ITMSR,1.1,
4,600,trial,0,45,45,45,trial,"['S', 'S', 'S', 'S', 'S', 'S', 'S', 'S', 'C', 'C', 'C', 'C', 'C', 'C', 'C', 'C', 'C', 'C', 'C', 'C', 'C', 'C', 'C', 'C']","[895915, 896342, 896792, 897304, 897815, 898388, 898922, 899572, 900187, 900771, 901279, 901832, 902300, 902768, 903325, 903907, 904423, 905125, 905664, 906128, 906620, 907068, 907597, 908043]","[895984, 896419, 896876, 897404, 897923, 898497, 899041, 899654, 900278, 900853, 901387, 901904, 902410, 902897, 903429, 904001, 904502, 905195, 905743, 906255, 906714, 907162, 907699, 908139]","[198, 213, 202, 247, 232, 177, 205, 5, 165, 175, 25, 235, 195, 246, 55, 87, 152, 163, 183, 235, 119, 198, 25, 46]","[895948, 896385, 896832, 897348, 897857, 898438, 898968, 899619, 900231, 900780, 901318, 901873, 902306, 902774, 903332, 903912, 904461, 905132, 905670, 906135, 906625, 907074, 907603, 908082]","[895592, 896192, 896792, 897392, 897992, 898592, 899192, 899792, 900207, 900791, 901299, 901852, 902320, 902788, 903345, 903927, 904443, 905145, 905684, 906148, 906640, 907088, 907617, 908063]",98,EM,L,L,ITMSR,1.1,
3,400,trial,0,46,46,46,trial,"['S', 'S', 'S', 'S', 'S', 'S', 'S', 'S', 'C', 'C', 'C', 'C', 'C', 'C', 'C', 'C', 'C', 'C', 'C', 'C', 'C', 'C', 'C', 'C']","[913632, 914009, 914343, 914672, 915068, 915418, 915824, 916198, 916598, 916979, 917368, 917752, 918125, 918498, 918907, 919220, 919646, 919977, 920380, 920720, 921092, 921463, 921812, 922192]","[913716, 914081, 914406, 914757, 915113, 915507, 915900, 916308, 916731, 917101, 917483, 917859, 918224, 918565, 918985, 919330, 919750, 920080, 920474, 920839, 921185, 921561, 921904, 922294]","[31, 233, 84, 242, 221, 43, 41, 62, 83, 61, 64, 63, 18, 252, 27, 8, 7, 243, 25, 31, 212, 28, 34, 251]","[913672, 914014, 914349, 914676, 915074, 915421, 915828, 916260, 916670, 917026, 917409, 917810, 918182, 918502, 918945, 919259, 919649, 919982, 920384, 920766, 921096, 921467, 921817, 922196]","[913460, 913860, 914260, 914660, 915060, 915460, 915860, 916260, 916618, 916999, 917388, 917772, 918146, 918518, 918927, 919240, 919666, 919997, 920400, 920740, 921112, 921483, 921832, 922212]",98,EM,L,L,ITMSR,1.1,
4,400,trial,0,47,47,47,trial,"['S', 'S', 'S', 'S', 'S', 'S', 'S', 'C', 'C', 'C', 'C', 'C', 'C', 'C', 'C', 'C', 'C', 'C', 'C', 'C', 'C', 'C', 'C']","[928186, 928577, 928972, 929341, 929725, 930103, 930491, 930885, 931291, 931629, 931984, 932368, 932678, 933060, 933414, 933747, 934181, 934483, 934796, 935171, 935501, 935843, 936173]","[928260, 928672, 929060, 929431, 929827, 930208, 930581, 930956, 931367, 931731, 932084, 932456, 932787, 933155, 933505, 933858, 934235, 934594, 934900, 935273, 935610, 935938, 936271]","[190, 236, 18, 44, 68, 119, 78, 19, 49, 18, 24, 194, 10, 248, 17, 14, 6, 37, 12, 31, 13, 17, 253]","[928192, 928582, 928976, 929383, 929729, 930160, 930494, 930889, 931295, 931633, 932031, 932373, 932734, 933065, 933452, 933804, 934185, 934488, 934799, 935175, 935505, 935848, 936177]","[927819, 928219, 928619, 929019, 929419, 929819, 930220, 930619, 930905, 931311, 931649, 932004, 932388, 932698, 933080, 933434, 933767, 934201, 934503, 934816, 935191, 935521, 935863, 936194]",98,EM,L,L,ITMSR,1.1,
4,400,trial,0,48,48,48,trial,"['S', 'S', 'S', 'S', 'S', 'S', 'S', 'C', 'C', 'C', 'C', 'C', 'C', 'C', 'C', 'C', 'C', 'C', 'C', 'C', 'C', 'C', 'C']","[941992, 942370, 942889, 943259, 943609, 944009, 944411, 944784, 945169, 945567, 945895, 946269, 946633, 946964, 947347, 947661, 948056, 948371, 948686, 949076, 949398, 949748, 950110]","[942071, 942435, 942937, 943341, 943698, 944094, 944487, 944887, 945260, 945640, 945997, 946362, 946736, 947063, 947435, 947775, 948130, 948476, 948779, 949167, 949510, 949805, 950190]","[221, 34, 53, 42, 27, 3, 245, 22, 234, 234, 248, 225, 249, 246, 242, 254, 213, 31, 168, 212, 186, 115, 191]","[942041, 942373, 942894, 943263, 943612, 944011, 944413, 944786, 945171, 945570, 945898, 946272, 946635, 946966, 947350, 947663, 948058, 948373, 948689, 949080, 949401, 949751, 950113]","[941716, 942116, 942516, 942916, 943316, 943716, 944116, 944516, 944804, 945189, 945587, 945915, 946289, 946653, 946984, 947367, 947681, 948076, 948391, 948706, 949096, 949419, 949768, 950130]",98,EM,L,L,ITMSR,1.1,
2,600,trial,0,49,49,49,trial,"['B', 'S', 'S', 'S', 'S', 'S', 'S', 'S', 'C', 'C', 'C', 'C', 'C', 'C', 'C', 'C', 'C', 'C', 'C', 'C', 'C', 'C', 'C', 'C']","[955489, 955878, 956498, 957126, 957750, 958307, 958914, 959517, 960064, 960566, 961100, 961581, 962065, 962533, 963027, 963497, 963997, 964487, 964923, 965363, 965811, 966276, 966693, 967207]","[955635, 955966, 956579, 957207, 957822, 958328, 958965, 959608, 960182, 960693, 961195, 961668, 962173, 962635, 963131, 963608, 964118, 964587, 965099, 965463, 965927, 966395, 966821, 967302]","[11, 17, 186, 214, 140, 152, 28, 152, 177, 233, 217, 145, 172, 155, 191, 197, 211, 192, 245, 186, 193, 116, 140, 116]","[955575, 955880, 956500, 957129, 957752, 958310, 958918, 959520, 960067, 960569, 961103, 961585, 962067, 962535, 963031, 963501, 963999, 964490, 964926, 965366, 965813, 966279, 966696, 967211]","[955500, 956100, 956700, 957300, 957900, 958500, 959100, 959700, 960084, 960586, 961120, 961601, 962085, 962553, 963047, 963517, 964017, 964507, 964943, 965383, 965831, 966296, 966713, 967227]",98,EM,L,L,ITMSR,1.1,
1,400,trial,0,50,50,50,trial,"['S', 'S', 'S', 'S', 'S', 'S', 'S', 'S', 'C', 'C', 'C', 'C', 'C', 'C', 'C', 'C', 'C', 'C', 'C', 'C', 'C', 'C', 'C', 'C']","[972712, 973083, 973445, 973787, 974147, 974529, 974950, 975405, 975723, 976148, 976509, 976882, 977292, 977629, 978059, 978415, 978799, 979189, 979529, 979990, 980296, 980708, 981080, 981478]","[972801, 973161, 973522, 973877, 974240, 974629, 975010, 975471, 975820, 976228, 976601, 976964, 977369, 977743, 978124, 978511, 978892, 979295, 979617, 980071, 980403, 980802, 981201, 981588]","[63, 179, 252, 247, 246, 251, 190, 158, 227, 0, 241, 246, 222, 240, 222, 49, 253, 28, 2, 31, 254, 76, 34, 82]","[972758, 973087, 973448, 973790, 974150, 974532, 974953, 975410, 975727, 976150, 976513, 976885, 977295, 977632, 978062, 978417, 978802, 979192, 979532, 979992, 980299, 980711, 981083, 981481]","[972625, 973024, 973424, 973825, 974224, 974624, 975024, 975424, 975744, 976168, 976529, 976902, 977312, 977649, 978079, 978435, 978819, 979209, 979549, 980011, 980316, 980728, 981100, 981498]",98,EM,L,L,ITMSR,1.1,
0,400,trial,0,51,51,51,trial,"['S', 'S', 'S', 'S', 'S', 'S', 'S', 'C', 'C', 'C', 'C', 'C', 'C', 'C', 'C', 'C', 'C', 'C', 'C', 'C', 'C', 'C', 'C']","[987333, 987753, 988183, 988621, 989037, 989443, 989884, 990278, 990703, 991092, 991476, 991858, 992328, 992726, 993079, 993421, 993794, 994160, 994525, 994895, 995196, 995651, 996042]","[987395, 987829, 988266, 988703, 989101, 989493, 989946, 990333, 990759, 991164, 991534, 991930, 992390, 992771, 993173, 993515, 993865, 994228, 994588, 994953, 995276, 995710, 996120]","[255, 118, 150, 126, 67, 66, 127, 59, 13, 69, 57, 71, 65, 231, 59, 33, 61, 196, 4, 48, 255, 36, 60]","[987357, 987761, 988188, 988647, 989053, 989449, 989888, 990286, 990709, 991122, 991488, 991867, 992334, 992733, 993084, 993425, 993801, 994165, 994530, 994899, 995224, 995655, 996048]","[987016, 987416, 987816, 988216, 988616, 989016, 989416, 989816, 990298, 990723, 991112, 991496, 991878, 992348, 992746, 993099, 993441, 993814, 994180, 994545, 994915, 995216, 995672, 996062]",98,EM,L,L,ITMSR,1.1,
5,400,trial,0,52,52,52,trial,"['B', 'S', 'S', 'S', 'S', 'S', 'S', 'S', 'C', 'C', 'C', 'C', 'C', 'C', 'C', 'C', 'C', 'C', 'C', 'C', 'C', 'C', 'C', 'C']","[1001600, 1001948, 1002318, 1002745, 1003146, 1003555, 1003923, 1004326, 1004725, 1005149, 1005511, 1005882, 1006236, 1006650, 1007060, 1007400, 1007819, 1008166, 1008527, 1008911, 1009267, 1009656, 1009983, 1010387]","[1001764, 1002040, 1002399, 1002823, 1003204, 1003626, 1003992, 1004396, 1004787, 1005205, 1005587, 1005968, 1006341, 1006743, 1007158, 1007499, 1007895, 1008272, 1008624, 1008996, 1009376, 1009732, 1010072, 1010457]","[151, 253, 64, 199, 151, 13, 222, 177, 7, 140, 178, 219, 183, 177, 172, 55, 212, 249, 133, 38, 38, 172, 59, 231]","[1001672, 1001995, 1002326, 1002752, 1003154, 1003597, 1003928, 1004336, 1004730, 1005153, 1005516, 1005888, 1006279, 1006656, 1007118, 1007443, 1007862, 1008171, 1008569, 1008954, 1009307, 1009662, 1009989, 1010394]","[1001613, 1002013, 1002413, 1002813, 1003213, 1003613, 1004013, 1004413, 1004745, 1005169, 1005531, 1005902, 1006256, 1006670, 1007080, 1007420, 1007839, 1008186, 1008547, 1008931, 1009287, 1009676, 1010003, 1010407]",98,EM,L,L,ITMSR,1.1,
3,400,trial,0,53,53,53,trial,"['S', 'S', 'S', 'S', 'S', 'S', 'S', 'S', 'C', 'C', 'C', 'C', 'C', 'C', 'C', 'C', 'C', 'C', 'C', 'C', 'C', 'C', 'C', 'C']","[1016087, 1016390, 1016771, 1017071, 1017487, 1017885, 1018285, 1018653, 1019073, 1019445, 1019806, 1020172, 1020573, 1020945, 1021288, 1021649, 1022020, 1022409, 1022764, 1023099, 1023462, 1023774, 1024164, 1024480]","[1016160, 1016461, 1016836, 1017167, 1017577, 1017955, 1018352, 1018749, 1019175, 1019528, 1019897, 1020243, 1020641, 1020986, 1021372, 1021732, 1022108, 1022461, 1022849, 1023184, 1023541, 1023857, 1024245, 1024583]","[195, 140, 51, 11, 39, 109, 32, 37, 229, 23, 236, 214, 17, 221, 231, 157, 232, 0, 57, 49, 95, 173, 121, 33]","[1016095, 1016397, 1016776, 1017076, 1017492, 1017890, 1018288, 1018657, 1019077, 1019448, 1019810, 1020176, 1020577, 1020950, 1021292, 1021652, 1022024, 1022412, 1022804, 1023105, 1023466, 1023778, 1024169, 1024483]","[1015952, 1016352, 1016752, 1017152, 1017552, 1017952, 1018352, 1018753, 1019094, 1019465, 1019826, 1020192, 1020593, 1020965, 1021308, 1021669, 1022040, 1022429, 1022784, 1023119, 1023482, 1023794, 1024184, 1024500]",98,EM,L,L,ITMSR,1.1,
0,600,trial,0,54,54,54,trial,"['S', 'S', 'S', 'S', 'S', 'S', 'S', 'S', 'C', 'C', 'C', 'C', 'C', 'C', 'C', 'C', 'C', 'C', 'C', 'C', 'C', 'C', 'C', 'C']","[1065639, 1066038, 1066542, 1067028, 1067654, 1068216, 1068811, 1069499, 1070027, 1070508, 1070984, 1071416, 1071900, 1072325, 1072791, 1073190, 1073632, 1074040, 1074496, 1074924, 1075329, 1075764, 1076206, 1076631]","[1065717, 1066134, 1066638, 1067139, 1067742, 1068318, 1068874, 1069538, 1070099, 1070596, 1071067, 1071511, 1071970, 1072395, 1072859, 1073250, 1073729, 1074110, 1074579, 1075017, 1075432, 1075858, 1076284, 1076701]","[43, 46, 44, 43, 29, 51, 195, 3, 160, 3, 70, 185, 74, 162, 54, 240, 247, 198, 9, 210, 31, 22, 207, 224]","[1065681, 1066080, 1066584, 1067082, 1067696, 1068222, 1068819, 1069505, 1070034, 1070514, 1070993, 1071423, 1071938, 1072329, 1072794, 1073195, 1073636, 1074043, 1074501, 1074929, 1075333, 1075767, 1076210, 1076637]","[1065414, 1066014, 1066614, 1067214, 1067814, 1068414, 1069015, 1069614, 1070047, 1070528, 1071004, 1071436, 1071920, 1072345, 1072812, 1073210, 1073652, 1074060, 1074516, 1074945, 1075349, 1075784, 1076226, 1076652]",98,EM,L,L,ITMSR,1.1,
3,600,trial,0,55,55,55,trial,"['S', 'S', 'S', 'S', 'S', 'S', 'S', 'S', 'C', 'C', 'C', 'C', 'C', 'C', 'C', 'C', 'C', 'C', 'C', 'C', 'C', 'C', 'C', 'C']","[1082225, 1082580, 1083189, 1083745, 1084278, 1084843, 1085432, 1086071, 1086639, 1087170, 1087694, 1088187, 1088734, 1089248, 1089753, 1090294, 1090754, 1091240, 1091708, 1092217, 1092671, 1093150, 1093576, 1094051]","[1082295, 1082663, 1083264, 1083816, 1084369, 1084926, 1085543, 1086154, 1086732, 1087252, 1087789, 1088276, 1088804, 1089323, 1089835, 1090363, 1090850, 1091342, 1091807, 1092295, 1092692, 1093236, 1093663, 1094139]","[38, 199, 228, 11, 162, 85, 71, 24, 220, 252, 44, 57, 189, 228, 210, 192, 41, 58, 65, 74, 130, 139, 61, 102]","[1082260, 1082620, 1083195, 1083751, 1084313, 1084849, 1085440, 1086109, 1086678, 1087176, 1087702, 1088192, 1088739, 1089254, 1089759, 1090300, 1090762, 1091246, 1091712, 1092221, 1092676, 1093156, 1093581, 1094055]","[1082073, 1082673, 1083273, 1083873, 1084473, 1085073, 1085673, 1086273, 1086659, 1087191, 1087714, 1088207, 1088754, 1089268, 1089773, 1090314, 1090775, 1091260, 1091728, 1092237, 1092691, 1093170, 1093596, 1094071]",98,EM,L,L,ITMSR,1.1,
5,400,trial,0,56,56,56,trial,"['S', 'S', 'S', 'S', 'S', 'S', 'S', 'C', 'C', 'C', 'C', 'C', 'C', 'C', 'C', 'C', 'C', 'C', 'C', 'C', 'C', 'C', 'C', 'C']","[1099901, 1100325, 1100670, 1101094, 1101532, 1101985, 1102387, 1102802, 1103163, 1103596, 1104022, 1104386, 1104786, 1104886, 1105174, 1105554, 1105939, 1106357, 1106704, 1107054, 1107422, 1107728, 1108166, 1108503]","[1099956, 1100345, 1100768, 1101173, 1101556, 1102054, 1102451, 1102872, 1103247, 1103678, 1104046, 1104406, 1104806, 1104906, 1105265, 1105648, 1106037, 1106442, 1106807, 1107074, 1107483, 1107798, 1108247, 1108592]","[150, 191, 184, 136, 142, 220, 250, 229, 200, 241, 161, 90, 79, 223, 195, 224, 243, 202, 23, 121, 226, 162, 205, 150]","[1099910, 1100327, 1100673, 1101099, 1101537, 1101988, 1102390, 1102806, 1103166, 1103599, 1104024, 1104388, 1104789, 1104886, 1105177, 1105557, 1105942, 1106360, 1106706, 1107057, 1107425, 1107732, 1108169, 1108506]","[1099682, 1100082, 1100482, 1100882, 1101282, 1101682, 1102082, 1102482, 1102822, 1103183, 1103617, 1104043, 1104406, 1104806, 1105195, 1105574, 1105959, 1106377, 1106724, 1107074, 1107442, 1107748, 1108186, 1108524]",98,EM,L,L,ITMSR,1.1,
0,400,trial,0,57,57,57,trial,"['B', 'S', 'S', 'S', 'S', 'S', 'S', 'S', 'C', 'C', 'C', 'C', 'C', 'C', 'C', 'C', 'C', 'C', 'C', 'C', 'C', 'C', 'C', 'C']","[1114006, 1114428, 1114872, 1115216, 1115652, 1116019, 1116426, 1116794, 1117229, 1117641, 1118016, 1118418, 1118809, 1119190, 1119612, 1120013, 1120359, 1120769, 1121137, 1121523, 1121937, 1122248, 1122661, 1123042]","[1114191, 1114530, 1114944, 1115301, 1115729, 1116101, 1116514, 1116899, 1117314, 1117731, 1118104, 1118498, 1118881, 1119267, 1119675, 1120074, 1120444, 1120843, 1121197, 1121597, 1122026, 1122364, 1122761, 1123140]","[218, 28, 196, 19, 231, 230, 200, 240, 215, 254, 223, 203, 2, 147, 11, 42, 253, 7, 208, 247, 4, 235, 179, 53]","[1114161, 1114429, 1114875, 1115219, 1115653, 1116022, 1116429, 1116797, 1117232, 1117645, 1118020, 1118422, 1118812, 1119194, 1119617, 1120016, 1120363, 1120771, 1121141, 1121526, 1121939, 1122252, 1122664, 1123045]","[1114016, 1114416, 1114816, 1115216, 1115616, 1116016, 1116417, 1116816, 1117249, 1117661, 1118036, 1118438, 1118829, 1119210, 1119632, 1120033, 1120379, 1120789, 1121157, 1121543, 1121957, 1122268, 1122681, 1123062]",98,EM,L,L,ITMSR,1.1,
1,600,trial,0,58,58,58,trial,"['S', 'S', 'S', 'S', 'S', 'S', 'S', 'S', 'C', 'C', 'C', 'C', 'C', 'C', 'C', 'C', 'C', 'C', 'C', 'C', 'C', 'C', 'C', 'C']","[1129063, 1129478, 1129828, 1130316, 1130875, 1131435, 1132014, 1132576, 1133208, 1133683, 1134089, 1134543, 1134979, 1135375, 1135841, 1136230, 1136703, 1137090, 1137485, 1137904, 1138348, 1138718, 1139130, 1139497]","[1129122, 1129544, 1129896, 1130387, 1130956, 1131495, 1132068, 1132648, 1133279, 1133755, 1134173, 1134599, 1135036, 1135396, 1135936, 1136329, 1136775, 1137181, 1137580, 1137991, 1138411, 1138828, 1139233, 1139585]","[114, 244, 225, 0, 27, 241, 21, 54, 236, 16, 5, 14, 187, 155, 225, 250, 142, 249, 246, 214, 152, 245, 208, 204]","[1129068, 1129482, 1129831, 1130319, 1130878, 1131437, 1132017, 1132578, 1133210, 1133687, 1134092, 1134545, 1134982, 1135378, 1135844, 1136233, 1136706, 1137093, 1137489, 1137907, 1138351, 1138721, 1139133, 1139500]","[1128747, 1129346, 1129946, 1130546, 1131146, 1131746, 1132346, 1132946, 1133229, 1133703, 1134109, 1134563, 1134999, 1135395, 1135861, 1136250, 1136723, 1137111, 1137505, 1137924, 1138368, 1138738, 1139150, 1139517]",98,EM,L,L,ITMSR,1.1,
0,600,trial,0,59,59,59,trial,"['S', 'S', 'S', 'S', 'S', 'S', 'S', 'S', 'S', 'C', 'C', 'C', 'C', 'C', 'C', 'C', 'C', 'C', 'C', 'C', 'C', 'C', 'C', 'C', 'C']","[1145327, 1145769, 1146160, 1146602, 1147147, 1147689, 1148219, 1148831, 1149383, 1150198, 1150710, 1151163, 1151628, 1152028, 1152467, 1152907, 1153313, 1153744, 1154110, 1154553, 1154982, 1155373, 1155761, 1156157, 1156542]","[1145378, 1145826, 1146248, 1146687, 1147167, 1147730, 1148288, 1148892, 1149475, 1150255, 1150793, 1151256, 1151719, 1152136, 1152577, 1152976, 1153334, 1153764, 1154213, 1154638, 1155059, 1155470, 1155811, 1156230, 1156598]","[9, 201, 88, 47, 41, 24, 37, 204, 54, 243, 251, 191, 244, 163, 206, 176, 148, 188, 108, 60, 70, 68, 50, 154, 53]","[1145332, 1145774, 1146162, 1146604, 1147150, 1147693, 1148223, 1148833, 1149385, 1150200, 1150713, 1151166, 1151630, 1152031, 1152471, 1152910, 1153317, 1153748, 1154115, 1154557, 1154987, 1155378, 1155765, 1156160, 1156546]","[1144985, 1145585, 1146185, 1146785, 1147385, 1147985, 1148585, 1149186, 1150218, 1150730, 1151183, 1151648, 1152048, 1152487, 1152927, 1153333, 1153764, 1154130, 1154573, 1155002, 1155393, 1155781, 1156177, 1156562]",98,EM,L,L,ITMSR,1.1,
0,400,trial,0,60,60,60,trial,"['S', 'S', 'S', 'S', 'S', 'S', 'S', 'C', 'C', 'C', 'C', 'C', 'C', 'C', 'C', 'C', 'C', 'C', 'C', 'C', 'C', 'C', 'C']","[1162648, 1163025, 1163344, 1163761, 1164166, 1164585, 1165039, 1165447, 1165861, 1166219, 1166583, 1166962, 1167345, 1167717, 1168117, 1168481, 1168847, 1169229, 1169685, 1170017, 1170422, 1170757, 1171179]","[1162724, 1163086, 1163431, 1163843, 1164212, 1164668, 1165118, 1165514, 1165934, 1166310, 1166681, 1167062, 1167435, 1167809, 1168193, 1168573, 1168951, 1169271, 1169750, 1170105, 1170489, 1170847, 1171237]","[199, 232, 39, 44, 211, 240, 239, 21, 218, 8, 231, 26, 59, 26, 235, 16, 46, 212, 18, 27, 193, 240, 109]","[1162651, 1163028, 1163347, 1163763, 1164170, 1164589, 1165042, 1165450, 1165864, 1166222, 1166586, 1166965, 1167348, 1167720, 1168121, 1168484, 1168850, 1169233, 1169687, 1170019, 1170425, 1170760, 1171183]","[1162317, 1162717, 1163117, 1163517, 1163917, 1164317, 1164717, 1165117, 1165467, 1165881, 1166239, 1166603, 1166982, 1167365, 1167737, 1168137, 1168501, 1168867, 1169249, 1169705, 1170037, 1170442, 1170777, 1171200]",98,EM,L,L,ITMSR,1.1,
5,600,trial,0,61,61,61,trial,"['S', 'S', 'S', 'S', 'S', 'S', 'S', 'S', 'S', 'C', 'C', 'C', 'C', 'C', 'C', 'C', 'C', 'C', 'C', 'C', 'C', 'C', 'C', 'C', 'C']","[1176830, 1177171, 1177700, 1178276, 1178766, 1179344, 1179916, 1180507, 1181059, 1181677, 1182215, 1182712, 1183217, 1183653, 1184157, 1184595, 1185038, 1185524, 1185956, 1186412, 1186747, 1187296, 1187708, 1188201, 1188689]","[1176879, 1177274, 1177720, 1178347, 1178865, 1179400, 1180001, 1180528, 1181079, 1181779, 1182321, 1182811, 1183310, 1183776, 1184265, 1184722, 1185123, 1185614, 1186034, 1186487, 1186867, 1187398, 1187800, 1188283, 1188767]","[236, 19, 225, 37, 253, 161, 14, 221, 251, 42, 45, 68, 58, 80, 86, 86, 50, 38, 240, 35, 35, 40, 27, 23, 233]","[1176836, 1177176, 1177704, 1178280, 1178770, 1179351, 1179919, 1180510, 1181062, 1181682, 1182219, 1182714, 1183220, 1183656, 1184160, 1184600, 1185041, 1185527, 1185960, 1186416, 1186750, 1187299, 1187712, 1188205, 1188694]","[1176623, 1177223, 1177823, 1178423, 1179023, 1179623, 1180223, 1180823, 1181698, 1182235, 1182732, 1183237, 1183673, 1184177, 1184615, 1185058, 1185544, 1185976, 1186433, 1186767, 1187316, 1187728, 1188221, 1188709]",98,EM,L,L,ITMSR,1.1,
3,600,trial,0,62,62,62,trial,"['S', 'S', 'S', 'S', 'S', 'S', 'S', 'S', 'S', 'C', 'C', 'C', 'C', 'C', 'C', 'C', 'C', 'C', 'C', 'C', 'C', 'C', 'C', 'C', 'C']","[1194411, 1194841, 1195241, 1195772, 1196235, 1196761, 1197301, 1197870, 1198493, 1199074, 1199598, 1200078, 1200523, 1200964, 1201394, 1201861, 1202273, 1202705, 1203134, 1203539, 1203948, 1204375, 1204785, 1205199, 1205581]","[1194483, 1194916, 1195320, 1195834, 1196305, 1196827, 1197387, 1197958, 1198536, 1199187, 1199690, 1200178, 1200644, 1201096, 1201472, 1201939, 1202367, 1202785, 1203212, 1203630, 1204013, 1204470, 1204876, 1205296, 1205696]","[11, 30, 232, 46, 5, 182, 7, 178, 238, 104, 55, 71, 70, 106, 51, 38, 22, 28, 60, 66, 8, 52, 21, 68, 59]","[1194449, 1194846, 1195246, 1195777, 1196239, 1196765, 1197305, 1197876, 1198498, 1199079, 1199602, 1200083, 1200527, 1201035, 1201398, 1201865, 1202277, 1202708, 1203137, 1203543, 1203951, 1204378, 1204789, 1205202, 1205584]","[1194077, 1194677, 1195277, 1195877, 1196477, 1197077, 1197677, 1198277, 1199094, 1199618, 1200098, 1200543, 1200984, 1201414, 1201881, 1202293, 1202725, 1203154, 1203559, 1203969, 1204396, 1204805, 1205219, 1205601]",98,EM,L,L,ITMSR,1.1,
2,600,trial,0,63,63,63,trial,"['S', 'S', 'S', 'S', 'S', 'S', 'S', 'S', 'C', 'C', 'C', 'C', 'C', 'C', 'C', 'C', 'C', 'C', 'C', 'C', 'C', 'C', 'C', 'C']","[1211555, 1212142, 1212777, 1213299, 1213903, 1214600, 1215078, 1215672, 1216374, 1217032, 1217580, 1218149, 1218665, 1219163, 1219725, 1220184, 1220708, 1221182, 1221627, 1222102, 1222588, 1223034, 1223532, 1223977]","[1211617, 1212214, 1212866, 1213384, 1213987, 1214666, 1215160, 1215772, 1216462, 1217143, 1217680, 1218240, 1218780, 1219295, 1219842, 1220298, 1220801, 1221284, 1221701, 1222216, 1222667, 1223142, 1223634, 1224087]","[90, 50, 137, 145, 118, 242, 205, 182, 221, 17, 223, 169, 240, 239, 249, 49, 9, 253, 66, 13, 55, 65, 56, 47]","[1211565, 1212147, 1212783, 1213302, 1213906, 1214603, 1215078, 1215678, 1216377, 1217035, 1217584, 1218154, 1218669, 1219167, 1219729, 1220187, 1220711, 1221186, 1221630, 1222106, 1222591, 1223037, 1223535, 1223981]","[1211224, 1211824, 1212424, 1213024, 1213624, 1214224, 1214824, 1215424, 1216394, 1217052, 1217600, 1218169, 1218685, 1219183, 1219745, 1220204, 1220728, 1221202, 1221647, 1222122, 1222608, 1223054, 1223553, 1223997]",98,EM,L,L,ITMSR,1.1,
2,600,trial,0,64,64,64,trial,"['S', 'S', 'S', 'S', 'S', 'S', 'S', 'S', 'S', 'C', 'C', 'C', 'C', 'C', 'C', 'C', 'C', 'C', 'C', 'C', 'C', 'C', 'C', 'C', 'C']","[1229760, 1230210, 1230720, 1231140, 1231676, 1232175, 1232766, 1233293, 1233880, 1234843, 1235346, 1235826, 1236329, 1236774, 1237203, 1237650, 1238096, 1238514, 1238965, 1239429, 1239921, 1240355, 1240834, 1241333, 1241772]","[1229854, 1230284, 1230808, 1231218, 1231775, 1232294, 1232856, 1233395, 1233955, 1234946, 1235450, 1235937, 1236420, 1236870, 1237334, 1237792, 1238241, 1238651, 1239111, 1239562, 1240034, 1240475, 1240901, 1241418, 1241844]","[40, 67, 43, 106, 132, 100, 38, 1, 47, 71, 53, 59, 103, 43, 143, 124, 161, 116, 139, 138, 35, 234, 52, 242, 210]","[1229773, 1230217, 1230727, 1231148, 1231682, 1232182, 1232772, 1233300, 1233886, 1234849, 1235352, 1235832, 1236335, 1236782, 1237209, 1237656, 1238099, 1238520, 1238970, 1239435, 1239927, 1240364, 1240841, 1241345, 1241779]","[1229445, 1230045, 1230645, 1231245, 1231845, 1232445, 1233045, 1233645, 1234863, 1235366, 1235846, 1236349, 1236794, 1237223, 1237670, 1238116, 1238534, 1238985, 1239449, 1239941, 1240375, 1240854, 1241353, 1241792]",98,EM,L,L,ITMSR,1.1,
4,600,trial,0,65,65,65,trial,"['S', 'S', 'S', 'S', 'S', 'S', 'S', 'S', 'S', 'C', 'C', 'C', 'C', 'C', 'C', 'C', 'C', 'C', 'C', 'C', 'C', 'C', 'C', 'C', 'C']","[1247839, 1248258, 1248673, 1249134, 1249633, 1250299, 1250804, 1251371, 1251921, 1252582, 1253092, 1253554, 1254006, 1254420, 1254858, 1255273, 1255738, 1256140, 1256591, 1257020, 1257463, 1257876, 1258329, 1258835, 1259207]","[1247930, 1248320, 1248783, 1249236, 1249722, 1250382, 1250915, 1251472, 1252021, 1252687, 1253194, 1253688, 1254153, 1254578, 1255029, 1255401, 1255864, 1256289, 1256730, 1257149, 1257589, 1258028, 1258449, 1258878, 1259333]","[46, 32, 133, 65, 138, 135, 144, 139, 131, 130, 120, 142, 136, 141, 111, 126, 47, 60, 99, 82, 82, 56, 103, 170, 56]","[1247847, 1248267, 1248681, 1249148, 1249642, 1250308, 1250813, 1251378, 1251928, 1252589, 1253096, 1253559, 1254012, 1254425, 1254866, 1255280, 1255748, 1256150, 1256598, 1257029, 1257472, 1257883, 1258335, 1258845, 1259215]","[1247504, 1248104, 1248704, 1249304, 1249904, 1250504, 1251104, 1251704, 1252602, 1253112, 1253574, 1254026, 1254440, 1254878, 1255293, 1255758, 1256160, 1256611, 1257040, 1257483, 1257896, 1258349, 1258855, 1259227]",98,EM,L,L,ITMSR,1.1,
1,400,trial,0,66,66,66,trial,"['S', 'S', 'S', 'S', 'S', 'S', 'S', 'C', 'C', 'C', 'C', 'C', 'C', 'C', 'C', 'C', 'C', 'C', 'C', 'C', 'C', 'C', 'C']","[1264817, 1265180, 1265624, 1266021, 1266455, 1266863, 1267234, 1267641, 1268071, 1268462, 1268856, 1269239, 1269597, 1269991, 1270407, 1270776, 1271225, 1271575, 1271971, 1272357, 1272696, 1273128, 1273487]","[1264881, 1265260, 1265717, 1266113, 1266543, 1266969, 1267351, 1267759, 1268158, 1268549, 1268939, 1269329, 1269704, 1270095, 1270505, 1270882, 1271305, 1271674, 1272058, 1272449, 1272825, 1273254, 1273602]","[151, 251, 236, 248, 6, 12, 41, 255, 252, 26, 5, 38, 54, 44, 73, 241, 249, 21, 17, 59, 84, 67, 78]","[1264817, 1265184, 1265627, 1266024, 1266457, 1266866, 1267238, 1267644, 1268075, 1268465, 1268859, 1269243, 1269599, 1269994, 1270410, 1270780, 1271227, 1271579, 1271974, 1272361, 1272700, 1273131, 1273490]","[1264562, 1264961, 1265361, 1265761, 1266161, 1266562, 1266962, 1267362, 1267661, 1268091, 1268482, 1268876, 1269259, 1269617, 1270011, 1270427, 1270796, 1271245, 1271596, 1271991, 1272377, 1272716, 1273148, 1273507]",98,EM,L,L,ITMSR,1.1,
3,400,trial,0,67,67,67,trial,"['S', 'S', 'S', 'S', 'S', 'S', 'S', 'C', 'C', 'C', 'C', 'C', 'C', 'C', 'C', 'C', 'C', 'C', 'C', 'C', 'C', 'C', 'C']","[1279528, 1279963, 1280347, 1280798, 1281201, 1281580, 1281980, 1282356, 1282762, 1283120, 1283478, 1283860, 1284241, 1284583, 1284943, 1285329, 1285723, 1286091, 1286456, 1286786, 1287204, 1287521, 1287903]","[1279622, 1280028, 1280367, 1280868, 1281221, 1281656, 1282040, 1282449, 1282844, 1283216, 1283588, 1283971, 1284354, 1284685, 1285058, 1285438, 1285826, 1286193, 1286555, 1286885, 1287299, 1287631, 1288005]","[245, 55, 214, 221, 153, 2, 251, 29, 230, 24, 40, 17, 50, 28, 47, 49, 6, 30, 6, 247, 44, 33, 28]","[1279532, 1279965, 1280349, 1280801, 1281204, 1281582, 1281983, 1282359, 1282765, 1283123, 1283481, 1283863, 1284244, 1284585, 1284946, 1285331, 1285726, 1286093, 1286460, 1286788, 1287207, 1287523, 1287907]","[1279291, 1279691, 1280091, 1280491, 1280891, 1281291, 1281691, 1282092, 1282376, 1282782, 1283140, 1283499, 1283880, 1284261, 1284603, 1284963, 1285349, 1285743, 1286111, 1286476, 1286806, 1287224, 1287541, 1287923]",98,EM,L,L,ITMSR,1.1,
1,600,trial,0,68,68,68,trial,"['S', 'S', 'S', 'S', 'S', 'S', 'S', 'S', 'C', 'C', 'C', 'C', 'C', 'C', 'C', 'C', 'C', 'C', 'C', 'C', 'C', 'C', 'C', 'C']","[1293657, 1294267, 1294819, 1295398, 1295962, 1296523, 1297149, 1297686, 1298289, 1298747, 1299188, 1299615, 1300027, 1300406, 1300818, 1301203, 1301621, 1301965, 1302366, 1302746, 1303134, 1303521, 1303886, 1304283]","[1293739, 1294300, 1294899, 1295490, 1296066, 1296630, 1297240, 1297789, 1298396, 1298841, 1299208, 1299709, 1300125, 1300521, 1300912, 1301291, 1301711, 1302090, 1302476, 1302878, 1303315, 1303643, 1303977, 1304403]","[239, 213, 240, 254, 29, 21, 197, 223, 108, 143, 177, 145, 194, 189, 214, 248, 246, 236, 210, 196, 211, 202, 207, 237]","[1293660, 1294270, 1294821, 1295401, 1295966, 1296526, 1297154, 1297689, 1298362, 1298750, 1299192, 1299619, 1300031, 1300409, 1300822, 1301207, 1301624, 1301968, 1302370, 1302750, 1303137, 1303524, 1303890, 1304286]","[1293399, 1293998, 1294598, 1295198, 1295798, 1296398, 1296998, 1297598, 1298309, 1298767, 1299208, 1299635, 1300047, 1300426, 1300838, 1301223, 1301641, 1301985, 1302386, 1302766, 1303154, 1303541, 1303906, 1304303]",98,EM,L,L,ITMSR,1.1,
5,600,trial,0,69,69,69,trial,"['S', 'S', 'S', 'S', 'S', 'S', 'S', 'S', 'C', 'C', 'C', 'C', 'C', 'C', 'C', 'C', 'C', 'C', 'C', 'C', 'C', 'C', 'C', 'C']","[1310162, 1310810, 1311374, 1311970, 1312568, 1313127, 1313672, 1314295, 1314996, 1315582, 1316171, 1316691, 1317266, 1317851, 1318416, 1318940, 1319444, 1319950, 1320487, 1320998, 1321481, 1322013, 1322489, 1323047]","[1310254, 1310872, 1311477, 1312038, 1312655, 1313216, 1313781, 1314378, 1315110, 1315667, 1316290, 1316835, 1317419, 1317969, 1318519, 1319042, 1319570, 1320062, 1320582, 1321102, 1321598, 1322115, 1322637, 1323168]","[221, 209, 181, 230, 242, 39, 14, 235, 16, 220, 233, 8, 36, 81, 18, 12, 34, 176, 1, 243, 2, 20, 35, 46]","[1310167, 1310813, 1311377, 1311973, 1312572, 1313130, 1313675, 1314298, 1315000, 1315586, 1316174, 1316695, 1317270, 1317853, 1318419, 1318943, 1319447, 1320026, 1320491, 1321001, 1321484, 1322016, 1322492, 1323049]","[1309893, 1310493, 1311093, 1311693, 1312293, 1312893, 1313494, 1314093, 1315016, 1315602, 1316191, 1316711, 1317286, 1317871, 1318436, 1318960, 1319464, 1319970, 1320507, 1321018, 1321501, 1322033, 1322509, 1323067]",98,EM,L,L,ITMSR,1.1,
1,400,trial,0,70,70,70,trial,"['S', 'S', 'S', 'S', 'S', 'S', 'S', 'S', 'C', 'C', 'C', 'C', 'C', 'C', 'C', 'C', 'C', 'C', 'C', 'C', 'C', 'C', 'C', 'C']","[1328869, 1329382, 1329754, 1330131, 1330501, 1330903, 1331277, 1331658, 1332063, 1332471, 1332864, 1333219, 1333629, 1334034, 1334438, 1334831, 1335254, 1335673, 1336094, 1336494, 1336900, 1337309, 1337711, 1338127]","[1328995, 1329464, 1329852, 1330234, 1330600, 1330979, 1331365, 1331747, 1332149, 1332567, 1332973, 1333317, 1333748, 1334140, 1334540, 1334931, 1335339, 1335747, 1336188, 1336592, 1337003, 1337400, 1337804, 1338214]","[83, 49, 99, 101, 86, 82, 64, 106, 83, 129, 101, 75, 121, 110, 99, 74, 49, 77, 109, 131, 73, 242, 115, 104]","[1328931, 1329425, 1329795, 1330170, 1330543, 1330908, 1331282, 1331661, 1332067, 1332515, 1332905, 1333263, 1333676, 1334078, 1334441, 1334835, 1335258, 1335709, 1336097, 1336497, 1336941, 1337349, 1337714, 1338130]","[1328855, 1329254, 1329654, 1330054, 1330454, 1330854, 1331254, 1331654, 1332083, 1332491, 1332884, 1333239, 1333649, 1334054, 1334458, 1334851, 1335274, 1335693, 1336114, 1336514, 1336920, 1337329, 1337731, 1338147]",98,EM,L,L,ITMSR,1.1,
2,400,trial,0,71,71,71,trial,"['S', 'S', 'S', 'S', 'S', 'S', 'S', 'S', 'C', 'C', 'C', 'C', 'C', 'C', 'C', 'C', 'C', 'C', 'C', 'C', 'C', 'C', 'C', 'C']","[1343768, 1344123, 1344516, 1344873, 1345245, 1345586, 1345999, 1346388, 1346779, 1347173, 1347570, 1347931, 1348312, 1348659, 1349054, 1349426, 1349809, 1350155, 1350546, 1350927, 1351312, 1351713, 1352123, 1352478]","[1343835, 1344205, 1344601, 1344952, 1345346, 1345689, 1346080, 1346448, 1346876, 1347259, 1347654, 1348025, 1348371, 1348755, 1349164, 1349510, 1349912, 1350258, 1350645, 1351027, 1351408, 1351813, 1352208, 1352583]","[21, 81, 57, 43, 139, 89, 124, 76, 106, 74, 78, 63, 233, 50, 66, 21, 71, 216, 72, 33, 63, 91, 83, 61]","[1343772, 1344161, 1344520, 1344909, 1345290, 1345589, 1346002, 1346392, 1346783, 1347175, 1347573, 1347934, 1348316, 1348663, 1349057, 1349429, 1349812, 1350160, 1350550, 1350932, 1351316, 1351717, 1352126, 1352482]","[1343654, 1344053, 1344453, 1344854, 1345253, 1345653, 1346053, 1346453, 1346799, 1347193, 1347590, 1347951, 1348332, 1348679, 1349074, 1349446, 1349829, 1350175, 1350566, 1350947, 1351332, 1351733, 1352143, 1352498]",98,EM,L,L,ITMSR,1.1,
5,400,trial,0,72,72,72,trial,"['S', 'S', 'S', 'S', 'S', 'S', 'S', 'S', 'C', 'C', 'C', 'C', 'C', 'C', 'C', 'C', 'C', 'C', 'C', 'C', 'C', 'C', 'C', 'C']","[1358318, 1358810, 1359220, 1359614, 1360008, 1360404, 1360799, 1361178, 1361566, 1361936, 1362291, 1362665, 1363031, 1363399, 1363767, 1364116, 1364470, 1364843, 1365202, 1365528, 1365881, 1366221, 1366584, 1366920]","[1358415, 1358899, 1359306, 1359710, 1360113, 1360498, 1360889, 1361264, 1361656, 1362028, 1362384, 1362769, 1363129, 1363491, 1363856, 1364234, 1364574, 1364935, 1365304, 1365626, 1365990, 1366343, 1366701, 1367022]","[45, 19, 52, 86, 79, 66, 83, 66, 84, 68, 59, 69, 65, 57, 80, 117, 61, 80, 82, 74, 91, 84, 94, 54]","[1358364, 1358815, 1359225, 1359619, 1360011, 1360408, 1360802, 1361182, 1361569, 1361939, 1362294, 1362668, 1363034, 1363442, 1363808, 1364162, 1364473, 1364846, 1365206, 1365532, 1365884, 1366289, 1366588, 1366923]","[1358175, 1358575, 1358976, 1359375, 1359775, 1360175, 1360575, 1360975, 1361586, 1361956, 1362311, 1362685, 1363051, 1363419, 1363787, 1364136, 1364490, 1364864, 1365222, 1365549, 1365901, 1366241, 1366604, 1366940]",98,EM,L,L,ITMSR,1.1,
2,400,trial,0,73,73,73,trial,"['S', 'S', 'S', 'S', 'S', 'S', 'S', 'C', 'C', 'C', 'C', 'C', 'C', 'C', 'C', 'C', 'C', 'C', 'C', 'C', 'C', 'C', 'C']","[1372938, 1373387, 1373800, 1374196, 1374602, 1374999, 1375397, 1375797, 1376236, 1376630, 1377014, 1377414, 1377810, 1378178, 1378579, 1378918, 1379293, 1379684, 1380071, 1380469, 1380841, 1381227, 1381561]","[1373039, 1373460, 1373874, 1374268, 1374623, 1375081, 1375488, 1375908, 1376331, 1376716, 1377122, 1377522, 1377927, 1378266, 1378656, 1379031, 1379410, 1379810, 1380185, 1380575, 1380986, 1381329, 1381698]","[69, 58, 82, 102, 35, 124, 84, 128, 75, 107, 107, 102, 232, 21, 117, 134, 98, 129, 114, 123, 77, 115, 93]","[1372941, 1373390, 1373803, 1374198, 1374605, 1375002, 1375400, 1375800, 1376238, 1376632, 1377017, 1377416, 1377814, 1378181, 1378582, 1378920, 1379295, 1379686, 1380073, 1380471, 1380844, 1381230, 1381564]","[1372717, 1373117, 1373517, 1373917, 1374317, 1374717, 1375117, 1375517, 1375817, 1376257, 1376650, 1377034, 1377434, 1377830, 1378198, 1378599, 1378938, 1379313, 1379704, 1380091, 1380489, 1380861, 1381248, 1381581]",98,EM,L,L,ITMSR,1.1,
4,400,trial,0,74,74,74,trial,"['S', 'S', 'S', 'S', 'S', 'S', 'S', 'C', 'C', 'C', 'C', 'C', 'C', 'C', 'C', 'C', 'C', 'C', 'C', 'C', 'C', 'C', 'C']","[1387726, 1388055, 1388445, 1388859, 1389333, 1389740, 1390145, 1390499, 1390893, 1391288, 1391651, 1392007, 1392360, 1392710, 1393098, 1393472, 1393819, 1394210, 1394582, 1394942, 1395305, 1395676, 1396102]","[1387819, 1388158, 1388570, 1388959, 1389408, 1389825, 1390204, 1390601, 1390981, 1391379, 1391751, 1392119, 1392480, 1392828, 1393198, 1393582, 1393927, 1394317, 1394651, 1395039, 1395385, 1395764, 1396166]","[178, 152, 177, 163, 86, 137, 137, 161, 102, 124, 140, 106, 148, 145, 124, 154, 135, 150, 144, 159, 124, 121, 116]","[1387730, 1388060, 1388449, 1388864, 1389339, 1389744, 1390153, 1390502, 1390898, 1391293, 1391656, 1392013, 1392365, 1392715, 1393103, 1393477, 1393825, 1394215, 1394587, 1394947, 1395310, 1395680, 1396104]","[1387369, 1387769, 1388169, 1388569, 1388969, 1389369, 1389769, 1390169, 1390519, 1390913, 1391308, 1391671, 1392027, 1392380, 1392730, 1393118, 1393492, 1393839, 1394230, 1394603, 1394962, 1395325, 1395696, 1396122]",98,EM,L,L,ITMSR,1.1,
4,400,trial,0,75,75,75,trial,"['B', 'S', 'S', 'S', 'S', 'S', 'S', 'S', 'C', 'C', 'C', 'C', 'C', 'C', 'C', 'C', 'C', 'C', 'C', 'C', 'C', 'C', 'C', 'C']","[1401865, 1402289, 1402654, 1403060, 1403476, 1403865, 1404278, 1404670, 1405107, 1405527, 1405923, 1406318, 1406739, 1407076, 1407512, 1407881, 1408302, 1408648, 1409074, 1409456, 1409831, 1410230, 1410586, 1410971]","[1402040, 1402376, 1402760, 1403182, 1403585, 1403969, 1404375, 1404776, 1405201, 1405618, 1406014, 1406408, 1406824, 1407160, 1407606, 1407967, 1408391, 1408756, 1409163, 1409552, 1409929, 1410311, 1410701, 1411092]","[173, 162, 131, 137, 142, 127, 129, 125, 116, 121, 98, 60, 83, 118, 120, 120, 82, 113, 108, 95, 99, 107, 114, 110]","[1401938, 1402290, 1402657, 1403063, 1403476, 1403867, 1404280, 1404673, 1405109, 1405529, 1405926, 1406321, 1406742, 1407079, 1407515, 1407884, 1408304, 1408650, 1409077, 1409458, 1409833, 1410233, 1410588, 1410973]","[1401876, 1402276, 1402676, 1403076, 1403476, 1403876, 1404276, 1404676, 1405127, 1405547, 1405943, 1406338, 1406759, 1407096, 1407533, 1407901, 1408322, 1408668, 1409094, 1409476, 1409851, 1410250, 1410606, 1410991]",98,EM,L,L,ITMSR,1.1,
4,600,trial,0,76,76,76,trial,"['S', 'S', 'S', 'S', 'S', 'S', 'S', 'S', 'C', 'C', 'C', 'C', 'C', 'C', 'C', 'C', 'C', 'C', 'C', 'C', 'C', 'C', 'C', 'C']","[1416793, 1417143, 1417612, 1418125, 1418720, 1419321, 1419913, 1420491, 1421082, 1421587, 1422129, 1422691, 1423166, 1423667, 1424200, 1424722, 1425280, 1425781, 1426276, 1426778, 1427265, 1427751, 1428211, 1428667]","[1416872, 1417228, 1417691, 1418211, 1418822, 1419428, 1419990, 1420595, 1421204, 1421702, 1422243, 1422776, 1423254, 1423759, 1424303, 1424837, 1425385, 1425902, 1426390, 1426877, 1427384, 1427877, 1428342, 1428783]","[139, 110, 146, 134, 93, 107, 91, 98, 76, 63, 104, 116, 84, 81, 99, 103, 110, 117, 99, 112, 112, 116, 117, 92]","[1416795, 1417145, 1417614, 1418128, 1418722, 1419323, 1419915, 1420494, 1421085, 1421590, 1422132, 1422694, 1423169, 1423669, 1424203, 1424726, 1425283, 1425784, 1426278, 1426781, 1427268, 1427753, 1428214, 1428670]","[1416608, 1417207, 1417807, 1418407, 1419008, 1419608, 1420208, 1420808, 1421102, 1421607, 1422149, 1422711, 1423186, 1423687, 1424220, 1424742, 1425300, 1425801, 1426296, 1426798, 1427286, 1427771, 1428231, 1428687]",98,EM,L,L,ITMSR,1.1,
3,400,trial,0,77,77,77,trial,"['S', 'S', 'S', 'S', 'S', 'S', 'S', 'C', 'C', 'C', 'C', 'C', 'C', 'C', 'C', 'C', 'C', 'C', 'C', 'C', 'C', 'C', 'C']","[1434498, 1434807, 1435179, 1435574, 1436008, 1436432, 1436843, 1437244, 1437659, 1438044, 1438410, 1438833, 1439194, 1439564, 1439960, 1440300, 1440677, 1441076, 1441430, 1441762, 1442179, 1442610, 1442957]","[1434554, 1434874, 1435254, 1435665, 1436084, 1436522, 1436924, 1437330, 1437737, 1438124, 1438496, 1438912, 1439285, 1439644, 1439997, 1440369, 1440755, 1441133, 1441501, 1441847, 1442240, 1442669, 1442978]","[84, 250, 12, 23, 16, 13, 207, 41, 31, 28, 86, 18, 53, 46, 32, 234, 31, 196, 61, 20, 240, 0, 111]","[1434508, 1434810, 1435182, 1435578, 1436011, 1436436, 1436846, 1437247, 1437662, 1438047, 1438412, 1438836, 1439198, 1439567, 1439962, 1440304, 1440679, 1441079, 1441433, 1441765, 1442182, 1442613, 1442960]","[1434163, 1434562, 1434962, 1435362, 1435762, 1436162, 1436562, 1436962, 1437264, 1437679, 1438064, 1438430, 1438853, 1439214, 1439584, 1439980, 1440320, 1440697, 1441096, 1441451, 1441782, 1442199, 1442630, 1442977]",98,EM,L,L,ITMSR,1.1,
3,400,trial,0,78,78,78,trial,"['S', 'S', 'S', 'S', 'S', 'S', 'S', 'S', 'C', 'C', 'C', 'C', 'C', 'C', 'C', 'C', 'C', 'C', 'C', 'C', 'C', 'C', 'C', 'C']","[1460049, 1460435, 1460851, 1461241, 1461608, 1461968, 1462299, 1462644, 1462999, 1463339, 1463690, 1464037, 1464400, 1464771, 1465107, 1465476, 1465834, 1466162, 1466520, 1466840, 1467169, 1467495, 1467820, 1468173]","[1460120, 1460504, 1460916, 1461323, 1461693, 1462057, 1462390, 1462762, 1463090, 1463435, 1463783, 1464141, 1464492, 1464862, 1465200, 1465567, 1465923, 1466251, 1466586, 1466929, 1467253, 1467593, 1467916, 1468267]","[71, 216, 210, 250, 234, 33, 24, 85, 21, 90, 18, 18, 39, 19, 63, 7, 234, 181, 42, 248, 193, 252, 18, 248]","[1460089, 1460477, 1460862, 1461250, 1461651, 1462016, 1462303, 1462694, 1463004, 1463384, 1463695, 1464079, 1464408, 1464814, 1465148, 1465517, 1465872, 1466195, 1466526, 1466881, 1467176, 1467539, 1467860, 1468177]","[1459793, 1460192, 1460592, 1460993, 1461392, 1461792, 1462192, 1462592, 1463019, 1463359, 1463710, 1464057, 1464420, 1464792, 1465127, 1465496, 1465854, 1466182, 1466541, 1466860, 1467189, 1467515, 1467840, 1468193]",98,EM,L,L,ITMSR,1.1,
3,600,trial,0,79,79,79,trial,"['B', 'S', 'S', 'S', 'S', 'S', 'S', 'S', 'C', 'C', 'C', 'C', 'C', 'C', 'C', 'C', 'C', 'C', 'C', 'C', 'C', 'C', 'C', 'C']","[1473893, 1474262, 1474811, 1475450, 1476034, 1476722, 1477294, 1477943, 1478479, 1479041, 1479569, 1480120, 1480640, 1481204, 1481718, 1482226, 1482757, 1483280, 1483783, 1484227, 1484728, 1485161, 1485669, 1486160]","[1473930, 1474348, 1474910, 1475506, 1476121, 1476794, 1477397, 1478024, 1478562, 1479141, 1479680, 1480229, 1480759, 1481306, 1481826, 1482324, 1482875, 1483373, 1483882, 1484338, 1484833, 1485268, 1485788, 1486275]","[31, 88, 53, 223, 11, 187, 174, 117, 241, 216, 215, 214, 104, 213, 5, 217, 62, 233, 71, 162, 198, 44, 227, 64]","[1473893, 1474266, 1474861, 1475457, 1476039, 1476729, 1477300, 1477948, 1478487, 1479047, 1479574, 1480126, 1480708, 1481261, 1481796, 1482267, 1482761, 1483283, 1483786, 1484231, 1484732, 1485165, 1485672, 1486164]","[1473905, 1474505, 1475105, 1475705, 1476305, 1476905, 1477506, 1478106, 1478499, 1479061, 1479589, 1480140, 1480660, 1481224, 1481738, 1482246, 1482777, 1483300, 1483803, 1484248, 1484748, 1485181, 1485689, 1486180]",98,EM,L,L,ITMSR,1.1,
2,400,trial,0,80,80,80,trial,"['S', 'S', 'S', 'S', 'S', 'S', 'S', 'C', 'C', 'C', 'C', 'C', 'C', 'C', 'C', 'C', 'C', 'C', 'C', 'C', 'C', 'C', 'C', 'C']","[1492235, 1492566, 1493005, 1493492, 1493859, 1494276, 1494691, 1495091, 1495504, 1495925, 1496356, 1496798, 1497217, 1497602, 1497702, 1498052, 1498445, 1498859, 1499310, 1499746, 1500156, 1500548, 1501044, 1501432]","[1492255, 1492636, 1493025, 1493568, 1493879, 1494296, 1494776, 1495193, 1495602, 1496033, 1496452, 1496818, 1497237, 1497622, 1497722, 1498130, 1498465, 1498966, 1499393, 1499828, 1500252, 1500568, 1501065, 1501452]","[93, 15, 20, 8, 169, 182, 5, 25, 252, 253, 41, 214, 231, 200, 6, 223, 231, 22, 33, 14, 22, 5, 235, 249]","[1492240, 1492570, 1493008, 1493495, 1493864, 1494280, 1494694, 1495094, 1495507, 1495928, 1496359, 1496803, 1497221, 1497605, 1497702, 1498056, 1498449, 1498862, 1499313, 1499749, 1500161, 1500551, 1501047, 1501436]","[1491902, 1492302, 1492702, 1493102, 1493502, 1493902, 1494302, 1494702, 1495111, 1495524, 1495945, 1496376, 1496818, 1497237, 1497622, 1498072, 1498465, 1498880, 1499330, 1499766, 1500176, 1500568, 1501064, 1501452]",98,EM,L,L,ITMSR,1.1,
0,600,trial,0,81,81,81,trial,"['S', 'S', 'S', 'S', 'S', 'S', 'S', 'S', 'C', 'C', 'C', 'C', 'C', 'C', 'C', 'C', 'C', 'C', 'C', 'C', 'C', 'C', 'C', 'C']","[1507174, 1507633, 1508097, 1508687, 1509217, 1509794, 1510355, 1510951, 1511510, 1512036, 1512529, 1513035, 1513527, 1514071, 1514560, 1515115, 1515594, 1516069, 1516562, 1517067, 1517569, 1518066, 1518466, 1518999]","[1507239, 1507672, 1508119, 1508759, 1509293, 1509877, 1510464, 1511049, 1511613, 1512135, 1512643, 1513149, 1513643, 1514150, 1514645, 1515204, 1515687, 1516177, 1516667, 1517188, 1517669, 1518168, 1518579, 1519049]","[125, 205, 12, 218, 17, 59, 66, 63, 41, 32, 51, 63, 52, 31, 1, 38, 21, 11, 27, 30, 16, 178, 228, 7]","[1507182, 1507638, 1508100, 1508690, 1509220, 1509797, 1510358, 1510955, 1511513, 1512039, 1512532, 1513037, 1513530, 1514074, 1514563, 1515118, 1515597, 1516072, 1516565, 1517070, 1517571, 1518069, 1518469, 1519002]","[1506977, 1507577, 1508177, 1508777, 1509378, 1509978, 1510578, 1511178, 1511530, 1512056, 1512549, 1513055, 1513547, 1514091, 1514580, 1515136, 1515614, 1516089, 1516582, 1517087, 1517589, 1518086, 1518486, 1519020]",98,EM,L,L,ITMSR,1.1,
4,600,trial,0,82,82,82,trial,"['S', 'S', 'S', 'S', 'S', 'S', 'S', 'S', 'S', 'C', 'C', 'C', 'C', 'C', 'C', 'C', 'C', 'C', 'C', 'C', 'C', 'C', 'C', 'C', 'C']","[1524669, 1525088, 1525485, 1525957, 1526503, 1527095, 1527653, 1528249, 1528824, 1529523, 1530007, 1530478, 1530956, 1531404, 1531838, 1532254, 1532698, 1533130, 1533554, 1533979, 1534395, 1534819, 1535248, 1535677, 1536063]","[1524758, 1525181, 1525575, 1526065, 1526587, 1527189, 1527758, 1528324, 1528938, 1529618, 1530105, 1530593, 1531063, 1531517, 1531960, 1532382, 1532831, 1533238, 1533670, 1534088, 1534503, 1534927, 1535348, 1535765, 1536181]","[162, 145, 71, 141, 144, 143, 120, 127, 130, 97, 8, 126, 148, 132, 147, 161, 134, 168, 118, 161, 119, 120, 138, 90, 105]","[1524673, 1525093, 1525490, 1525961, 1526506, 1527100, 1527659, 1528255, 1528832, 1529530, 1530016, 1530484, 1530962, 1531409, 1531844, 1532259, 1532704, 1533136, 1533560, 1533983, 1534401, 1534824, 1535253, 1535684, 1536069]","[1524387, 1524986, 1525586, 1526187, 1526786, 1527386, 1527986, 1528586, 1529543, 1530028, 1530498, 1530976, 1531424, 1531858, 1532274, 1532718, 1533150, 1533574, 1533999, 1534415, 1534839, 1535268, 1535697, 1536083]",98,EM,L,L,ITMSR,1.1,
0,400,trial,0,83,83,83,trial,"['S', 'S', 'S', 'S', 'S', 'S', 'S', 'S', 'C', 'C', 'C', 'C', 'C', 'C', 'C', 'C', 'C', 'C', 'C', 'C', 'C', 'C', 'C', 'C']","[1541763, 1542206, 1542539, 1542935, 1543299, 1543712, 1544170, 1544492, 1544940, 1545305, 1545723, 1546105, 1546484, 1546842, 1547204, 1547649, 1548020, 1548375, 1548796, 1549153, 1549552, 1549889, 1550276, 1550601]","[1541862, 1542283, 1542639, 1543043, 1543406, 1543808, 1544247, 1544584, 1545018, 1545403, 1545777, 1546182, 1546504, 1546862, 1547274, 1547725, 1548110, 1548483, 1548869, 1549250, 1549634, 1549995, 1550349, 1550697]","[128, 79, 129, 116, 126, 94, 124, 120, 122, 111, 89, 65, 32, 27, 41, 100, 85, 115, 106, 111, 96, 131, 85, 92]","[1541767, 1542209, 1542541, 1542937, 1543301, 1543715, 1544172, 1544495, 1544942, 1545307, 1545725, 1546107, 1546486, 1546844, 1547206, 1547652, 1548022, 1548377, 1548800, 1549155, 1549554, 1549891, 1550278, 1550604]","[1541660, 1542060, 1542459, 1542859, 1543259, 1543659, 1544059, 1544459, 1544961, 1545325, 1545743, 1546125, 1546504, 1546862, 1547224, 1547669, 1548040, 1548395, 1548816, 1549173, 1549572, 1549910, 1550296, 1550621]",98,EM,L,L,ITMSR,1.1,
4,400,trial,0,84,84,84,trial,"['S', 'S', 'S', 'S', 'S', 'S', 'S', 'S', 'C', 'C', 'C', 'C', 'C', 'C', 'C', 'C', 'C', 'C', 'C', 'C', 'C', 'C', 'C', 'C']","[1556311, 1556640, 1557015, 1557344, 1557721, 1558059, 1558470, 1558828, 1559222, 1559624, 1559958, 1560360, 1560709, 1561092, 1561432, 1561793, 1562126, 1562485, 1562821, 1563202, 1563540, 1563918, 1564244, 1564662]","[1556397, 1556723, 1557096, 1557435, 1557817, 1558160, 1558551, 1558935, 1559318, 1559712, 1560064, 1560455, 1560816, 1561184, 1561530, 1561891, 1562228, 1562592, 1562916, 1563302, 1563639, 1564012, 1564326, 1564761]","[108, 57, 232, 8, 29, 244, 35, 254, 15, 33, 24, 46, 37, 27, 238, 0, 246, 228, 206, 245, 236, 25, 151, 125]","[1556314, 1556643, 1557018, 1557347, 1557724, 1558063, 1558473, 1558831, 1559224, 1559627, 1559962, 1560364, 1560712, 1561095, 1561435, 1561797, 1562129, 1562489, 1562824, 1563205, 1563543, 1563921, 1564248, 1564666]","[1556167, 1556568, 1556968, 1557368, 1557768, 1558168, 1558568, 1558968, 1559242, 1559644, 1559979, 1560380, 1560729, 1561112, 1561452, 1561814, 1562146, 1562505, 1562841, 1563223, 1563560, 1563938, 1564264, 1564682]",98,EM,L,L,ITMSR,1.1,
5,400,trial,0,85,85,85,trial,"['B', 'S', 'S', 'S', 'S', 'S', 'S', 'S', 'S', 'C', 'C', 'C', 'C', 'C', 'C', 'C', 'C', 'C', 'C', 'C', 'C', 'C', 'C', 'C', 'C']","[1570010, 1570408, 1570723, 1571110, 1571468, 1571863, 1572262, 1572651, 1573070, 1573472, 1573857, 1574220, 1574593, 1574986, 1575371, 1575726, 1576174, 1576555, 1576972, 1577322, 1577711, 1578066, 1578454, 1578842, 1579190]","[1570176, 1570490, 1570814, 1571201, 1571563, 1571971, 1572349, 1572758, 1573168, 1573569, 1573955, 1574328, 1574715, 1575076, 1575456, 1575824, 1576246, 1576652, 1577068, 1577418, 1577808, 1578181, 1578562, 1578949, 1579300]","[44, 37, 37, 254, 44, 24, 247, 20, 9, 14, 15, 41, 20, 150, 140, 145, 164, 178, 219, 251, 37, 36, 5, 43, 0]","[1570010, 1570411, 1570727, 1571115, 1571472, 1571867, 1572268, 1572654, 1573073, 1573475, 1573860, 1574222, 1574597, 1574989, 1575375, 1575728, 1576177, 1576559, 1576976, 1577324, 1577715, 1578071, 1578457, 1578844, 1579192]","[1570023, 1570423, 1570823, 1571223, 1571623, 1572023, 1572423, 1572824, 1573492, 1573877, 1574240, 1574614, 1575006, 1575391, 1575746, 1576194, 1576576, 1576992, 1577342, 1577731, 1578086, 1578474, 1578862, 1579210]",98,EM,L,L,ITMSR,1.1,
1,400,trial,0,86,86,86,trial,"['S', 'S', 'S', 'S', 'S', 'S', 'S', 'S', 'C', 'C', 'C', 'C', 'C', 'C', 'C', 'C', 'C', 'C', 'C', 'C', 'C', 'C', 'C', 'C']","[1585272, 1585630, 1585983, 1586381, 1586758, 1587210, 1587597, 1587981, 1588399, 1588780, 1589110, 1589453, 1589844, 1590156, 1590515, 1590838, 1591182, 1591591, 1591922, 1592265, 1592623, 1592950, 1593280, 1593634]","[1585354, 1585653, 1586060, 1586467, 1586859, 1587264, 1587682, 1588090, 1588504, 1588872, 1589224, 1589547, 1589923, 1590261, 1590602, 1590949, 1591303, 1591696, 1592032, 1592371, 1592704, 1593056, 1593389, 1593734]","[90, 124, 225, 103, 67, 185, 90, 122, 93, 33, 75, 46, 56, 71, 66, 107, 105, 95, 90, 109, 74, 83, 101, 98]","[1585313, 1585638, 1585993, 1586425, 1586802, 1587219, 1587635, 1588026, 1588440, 1588817, 1589154, 1589493, 1589851, 1590195, 1590521, 1590885, 1591228, 1591642, 1591963, 1592309, 1592630, 1592993, 1593326, 1593679]","[1584971, 1585370, 1585770, 1586170, 1586570, 1586970, 1587371, 1587770, 1588419, 1588800, 1589130, 1589473, 1589864, 1590176, 1590535, 1590858, 1591202, 1591611, 1591942, 1592285, 1592643, 1592970, 1593300, 1593654]",98,EM,L,L,ITMSR,1.1,
5,600,trial,0,87,87,87,trial,"['S', 'S', 'S', 'S', 'S', 'S', 'S', 'S', 'S', 'C', 'C', 'C', 'C', 'C', 'C', 'C', 'C', 'C', 'C', 'C', 'C', 'C', 'C', 'C', 'C']","[1599508, 1599834, 1600340, 1600865, 1601384, 1602011, 1602537, 1603146, 1603682, 1604374, 1604904, 1605365, 1605823, 1606230, 1606705, 1607149, 1607586, 1608026, 1608467, 1608867, 1609299, 1609729, 1610171, 1610592, 1611009]","[1599554, 1599948, 1600421, 1600953, 1601466, 1602096, 1602644, 1603240, 1603747, 1604468, 1605001, 1605479, 1605938, 1606332, 1606807, 1607256, 1607705, 1608148, 1608536, 1609010, 1609419, 1609858, 1610313, 1610725, 1611137]","[187, 119, 60, 95, 239, 153, 51, 235, 147, 87, 189, 187, 19, 253, 213, 251, 4, 210, 164, 29, 231, 193, 37, 6, 90]","[1599512, 1599885, 1600387, 1600868, 1601390, 1602015, 1602587, 1603189, 1603690, 1604426, 1604910, 1605370, 1605876, 1606235, 1606709, 1607154, 1607590, 1608031, 1608473, 1608930, 1609305, 1609733, 1610221, 1610597, 1611051]","[1599280, 1599880, 1600480, 1601080, 1601680, 1602280, 1602880, 1603480, 1604395, 1604924, 1605385, 1605843, 1606250, 1606725, 1607170, 1607606, 1608046, 1608487, 1608887, 1609319, 1609749, 1610191, 1610612, 1611029]",98,EM,L,L,ITMSR,1.1,
1,400,trial,0,88,88,88,trial,"['S', 'S', 'S', 'S', 'S', 'S', 'S', 'C', 'C', 'C', 'C', 'C', 'C', 'C', 'C', 'C', 'C', 'C', 'C', 'C', 'C', 'C', 'C']","[1616662, 1617034, 1617412, 1617844, 1618267, 1618666, 1619092, 1619485, 1619893, 1620295, 1620684, 1621065, 1621456, 1621863, 1622264, 1622639, 1623040, 1623402, 1623741, 1624142, 1624501, 1624924, 1625289]","[1616729, 1617092, 1617485, 1617903, 1618347, 1618762, 1619183, 1619605, 1619995, 1620395, 1620791, 1621186, 1621602, 1621989, 1622380, 1622750, 1623138, 1623497, 1623852, 1624237, 1624609, 1625016, 1625406]","[244, 131, 119, 102, 116, 113, 113, 117, 121, 106, 130, 124, 136, 141, 139, 118, 97, 99, 87, 87, 77, 51, 53]","[1616665, 1617036, 1617414, 1617847, 1618269, 1618669, 1619094, 1619487, 1619896, 1620298, 1620686, 1621067, 1621459, 1621865, 1622266, 1622642, 1623044, 1623405, 1623744, 1624145, 1624505, 1624926, 1625292]","[1616380, 1616779, 1617179, 1617580, 1617979, 1618379, 1618779, 1619179, 1619505, 1619913, 1620315, 1620704, 1621085, 1621476, 1621883, 1622284, 1622659, 1623060, 1623422, 1623761, 1624162, 1624521, 1624944, 1625309]",98,EM,L,L,ITMSR,1.1,
