pitch,ioi,event,.thisRepN,.thisTrialN,.thisN,.thisIndex,event,tap_types,tap_times,release_times,peak_pressures,peak_times,tone_times,subject,experimenter,register,handedness,experiment,version,
,,SPR,0,-1,-1,0,SPR,"['P', 'P', 'P', 'P', 'P', 'P', 'P', 'P', 'P', 'P', 'P', 'P', 'P', 'P', 'P', 'P', 'P', 'P', 'P', 'P', 'P', 'P', 'P', 'P', 'P', 'P', 'P', 'P', 'P', 'P']","[39906, 40380, 40912, 41460, 41979, 42513, 43077, 43601, 44133, 44687, 45232, 45801, 46304, 46887, 47380, 47901, 48428, 48935, 49474, 49997, 50485, 51053, 51576, 52059, 52567, 53106, 53609, 54123, 54621, 55144]","[39979, 40462, 40984, 41522, 42044, 42582, 43144, 43682, 44212, 44752, 45302, 45869, 46377, 46943, 47460, 47982, 48502, 49033, 49554, 50075, 50556, 51104, 51640, 52134, 52661, 53168, 53668, 54191, 54702, 55205]","[7, 192, 171, 171, 191, 177, 185, 129, 164, 156, 163, 138, 206, 144, 160, 174, 148, 153, 148, 123, 128, 71, 77, 117, 140, 172, 130, 112, 203, 169]","[39909, 40384, 40915, 41464, 41984, 42517, 43081, 43606, 44136, 44691, 45236, 45806, 46308, 46892, 47384, 47905, 48432, 48941, 49478, 50002, 50488, 51058, 51580, 52063, 52570, 53109, 53613, 54127, 54625, 55148]",,89,EM,U,R,ITMSR,1.1,
2,500,practice,0,0,0,0,practice,"['S', 'S', 'S', 'S', 'S', 'S', 'S', 'C', 'C', 'C', 'C', 'C', 'C', 'C', 'C', 'C', 'C', 'C', 'C', 'C', 'C', 'C', 'C']","[127299, 127639, 128118, 128605, 129098, 129593, 130051, 130555, 131001, 131454, 131941, 132389, 132873, 133312, 133743, 134188, 134666, 135174, 135636, 136082, 136546, 136988, 137427]","[127370, 127732, 128221, 128726, 129207, 129682, 130148, 130659, 131101, 131530, 132008, 132461, 132948, 133392, 133815, 134275, 134749, 135247, 135711, 136162, 136631, 137066, 137521]","[223, 44, 246, 216, 4, 241, 6, 255, 19, 254, 177, 253, 185, 188, 216, 204, 206, 188, 226, 182, 193, 225, 200]","[127304, 127641, 128122, 128610, 129102, 129596, 130054, 130560, 131005, 131458, 131946, 132395, 132877, 133316, 133747, 134193, 134670, 135178, 135641, 136086, 136551, 136993, 137431]","[126639, 127139, 127639, 128139, 128640, 129139, 129639, 130139, 130575, 131021, 131474, 131961, 132409, 132893, 133332, 133763, 134208, 134686, 135194, 135656, 136102, 136566, 137008, 137447]",89,EM,U,R,ITMSR,1.1,
4,500,practice,0,1,1,1,practice,"['S', 'S', 'S', 'S', 'C', 'C', 'C', 'C', 'C', 'C', 'C', 'C', 'C', 'C', 'C', 'C', 'C', 'C', 'C', 'C']","[145149, 145661, 146150, 146685, 147187, 147651, 148142, 148639, 149129, 149602, 150099, 150593, 151097, 151578, 152056, 152555, 153018, 153523, 154019, 154472]","[145233, 145740, 146234, 146752, 147259, 147735, 148231, 148721, 149204, 149691, 150184, 150669, 151172, 151651, 152147, 152644, 153118, 153592, 154103, 154565]","[234, 161, 224, 185, 223, 244, 181, 202, 171, 219, 182, 139, 139, 133, 152, 205, 234, 223, 195, 214]","[145153, 145666, 146153, 146689, 147190, 147654, 148146, 148642, 149132, 149605, 150104, 150597, 151101, 151582, 152061, 152559, 153021, 153526, 154022, 154475]","[143213, 143713, 144214, 144713, 145213, 145713, 146213, 146713, 147207, 147672, 148162, 148659, 149149, 149622, 150119, 150614, 151117, 151598, 152076, 152576, 153038, 153543, 154039, 154492]",89,EM,U,R,ITMSR,1.1,
3,500,practice,0,2,2,2,practice,"['S', 'S', 'S', 'S', 'C', 'C', 'C', 'C', 'C', 'C', 'C', 'C', 'C', 'C', 'C', 'C', 'C', 'C', 'C', 'C']","[161800, 162301, 162805, 163290, 163798, 164308, 164774, 165256, 165743, 166193, 166647, 167129, 167585, 168057, 168522, 168995, 169466, 169938, 170423, 170847]","[161894, 162399, 162896, 163397, 163894, 164405, 164861, 165331, 165816, 166274, 166720, 167218, 167664, 168137, 168596, 169064, 169558, 170030, 170494, 170928]","[94, 154, 146, 146, 182, 177, 145, 179, 166, 185, 208, 169, 155, 159, 92, 116, 184, 133, 58, 173]","[161805, 162306, 162809, 163295, 163802, 164355, 164780, 165260, 165748, 166197, 166652, 167133, 167589, 168062, 168526, 169000, 169470, 169943, 170428, 170851]","[159904, 160404, 160904, 161404, 161904, 162404, 162904, 163404, 163818, 164328, 164794, 165276, 165763, 166213, 166667, 167149, 167605, 168077, 168542, 169015, 169486, 169958, 170443, 170867]",89,EM,U,R,ITMSR,1.1,
1,500,practice,0,3,3,3,practice,"['S', 'S', 'S', 'S', 'C', 'C', 'C', 'C', 'C', 'C', 'C', 'C', 'C', 'C', 'C', 'C', 'C', 'C', 'C', 'C']","[178212, 178720, 179206, 179712, 180195, 180672, 181180, 181661, 182136, 182621, 183132, 183586, 184064, 184510, 184975, 185465, 185919, 186408, 186878, 187341]","[178312, 178817, 179299, 179798, 180291, 180771, 181274, 181743, 182210, 182692, 183206, 183667, 184136, 184604, 185067, 185538, 185987, 186428, 186937, 187398]","[211, 132, 90, 141, 132, 82, 188, 214, 161, 254, 78, 239, 24, 31, 30, 96, 154, 91, 97, 114]","[178215, 178725, 179211, 179716, 180199, 180676, 181185, 181665, 182139, 182624, 183134, 183589, 184067, 184513, 185031, 185469, 185922, 186412, 186883, 187345]","[176280, 176780, 177281, 177780, 178280, 178780, 179280, 179780, 180215, 180692, 181200, 181681, 182156, 182641, 183152, 183606, 184084, 184530, 184995, 185485, 185939, 186428, 186898, 187361]",89,EM,U,R,ITMSR,1.1,
0,500,practice,0,4,4,4,practice,"['S', 'S', 'S', 'S', 'C', 'C', 'C', 'C', 'C', 'C', 'C', 'C', 'C', 'C', 'C', 'C', 'C', 'C', 'C', 'C']","[194706, 195209, 195716, 196243, 196742, 197246, 197723, 198218, 198699, 199168, 199681, 200156, 200606, 201115, 201591, 202083, 202553, 203041, 203527, 204053]","[194796, 195324, 195811, 196331, 196833, 197335, 197801, 198318, 198777, 199251, 199759, 200227, 200687, 201190, 201664, 202170, 202614, 203117, 203606, 204073]","[184, 145, 215, 153, 118, 86, 244, 67, 160, 212, 226, 105, 37, 139, 157, 36, 45, 199, 226, 32]","[194710, 195213, 195719, 196247, 196746, 197251, 197727, 198221, 198703, 199172, 199686, 200161, 200610, 201117, 201594, 202088, 202558, 203044, 203529, 204056]","[192806, 193306, 193806, 194306, 194806, 195306, 195806, 196306, 196762, 197266, 197743, 198238, 198719, 199188, 199701, 200176, 200626, 201135, 201611, 202103, 202573, 203061, 203547, 204073]",89,EM,U,R,ITMSR,1.1,
5,500,practice,0,5,5,5,practice,"['S', 'S', 'S', 'S', 'C', 'C', 'C', 'C', 'C', 'C', 'C', 'C', 'C', 'C', 'C', 'C', 'C', 'C', 'C', 'C']","[211483, 211991, 212519, 213047, 213569, 214068, 214563, 215074, 215585, 216114, 216598, 217107, 217598, 218128, 218598, 219107, 219613, 220122, 220611, 221120]","[211579, 212110, 212624, 213145, 213654, 214162, 214653, 215145, 215662, 216208, 216669, 217198, 217683, 218205, 218669, 219165, 219675, 220142, 220695, 221217]","[143, 61, 162, 172, 110, 40, 3, 26, 230, 60, 46, 42, 35, 19, 43, 18, 245, 204, 226, 175]","[211487, 211996, 212524, 213050, 213574, 214072, 214568, 215077, 215589, 216117, 216602, 217111, 217602, 218130, 218600, 219110, 219616, 220125, 220613, 221123]","[209598, 210098, 210598, 211098, 211598, 212098, 212598, 213098, 213590, 214088, 214583, 215094, 215605, 216134, 216619, 217127, 217618, 218148, 218618, 219127, 219633, 220142, 220632, 221140]",89,EM,U,R,ITMSR,1.1,
2,600,trial,0,6,6,6,trial,"['S', 'S', 'S', 'S', 'S', 'S', 'S', 'C', 'C', 'C', 'C', 'C', 'C', 'C', 'C', 'C', 'C', 'C', 'C', 'C', 'C', 'C', 'C']","[312561, 313141, 313763, 314384, 315016, 315603, 316195, 316796, 317472, 318062, 318674, 319268, 319888, 320527, 321163, 321765, 322401, 323034, 323623, 324203, 324796, 325464, 326097]","[312634, 313250, 313860, 314486, 315124, 315739, 316312, 316922, 317578, 318164, 318757, 319363, 319986, 320648, 321260, 321873, 322497, 323132, 323731, 324320, 324916, 325569, 326206]","[1, 19, 29, 41, 55, 39, 31, 28, 22, 6, 15, 27, 12, 21, 8, 5, 246, 226, 235, 189, 209, 230, 241]","[312565, 313186, 313806, 314431, 315020, 315672, 316199, 316801, 317526, 318067, 318679, 319273, 319893, 320583, 321167, 321821, 322406, 323039, 323630, 324208, 324858, 325470, 326103]","[312038, 312638, 313238, 313838, 314438, 315038, 315638, 316238, 316816, 317492, 318082, 318694, 319288, 319908, 320547, 321183, 321785, 322421, 323054, 323643, 324224, 324816, 325484, 326117]",89,EM,U,R,ITMSR,1.1,
1,400,trial,0,7,7,7,trial,"['S', 'S', 'S', 'S', 'C', 'C', 'C', 'C', 'C', 'C', 'C', 'C', 'C', 'C', 'C', 'C', 'C', 'C', 'C', 'C']","[332953, 333346, 333767, 334173, 334574, 334966, 335345, 335726, 336103, 336480, 336886, 337255, 337654, 338030, 338410, 338793, 339155, 339544, 339917, 340289]","[333043, 333437, 333870, 334278, 334682, 335057, 335439, 335818, 336207, 336578, 336978, 337353, 337746, 338112, 338501, 338890, 339252, 339637, 340007, 340388]","[21, 251, 243, 4, 209, 211, 226, 231, 235, 252, 215, 4, 220, 0, 250, 5, 241, 225, 237, 244]","[332957, 333351, 333771, 334177, 334578, 334971, 335350, 335730, 336155, 336483, 336891, 337259, 337658, 338034, 338414, 338797, 339160, 339547, 339921, 340293]","[331425, 331825, 332225, 332625, 333025, 333425, 333826, 334226, 334594, 334986, 335365, 335746, 336123, 336500, 336906, 337275, 337674, 338050, 338430, 338813, 339175, 339564, 339937, 340310]",89,EM,U,R,ITMSR,1.1,
5,600,trial,0,8,8,8,trial,"['S', 'S', 'S', 'S', 'C', 'C', 'C', 'C', 'C', 'C', 'C', 'C', 'C', 'C', 'C', 'C', 'C', 'C', 'C', 'C']","[348154, 348762, 349361, 349967, 350538, 351174, 351752, 352293, 352841, 353462, 354021, 354577, 355158, 355734, 356307, 356881, 357439, 358019, 358584, 359134]","[348257, 348860, 349470, 350067, 350653, 351283, 351849, 352386, 352943, 353547, 354110, 354691, 355244, 355838, 356411, 356988, 357554, 358122, 358690, 359237]","[232, 10, 4, 254, 9, 232, 219, 250, 7, 1, 243, 16, 226, 250, 22, 250, 161, 229, 248, 232]","[348158, 348766, 349365, 349971, 350542, 351178, 351757, 352297, 352845, 353466, 354025, 354581, 355164, 355738, 356312, 356886, 357444, 358023, 358588, 359138]","[345796, 346395, 346995, 347595, 348195, 348795, 349395, 349996, 350558, 351194, 351772, 352313, 352861, 353482, 354041, 354597, 355178, 355755, 356327, 356901, 357459, 358039, 358604, 359154]",89,EM,U,R,ITMSR,1.1,
3,400,trial,0,9,9,9,trial,"['S', 'S', 'S', 'S', 'C', 'C', 'C', 'C', 'C', 'C', 'C', 'C', 'C', 'C', 'C', 'C', 'C', 'C', 'C', 'C']","[366173, 366565, 366973, 367388, 367793, 368190, 368589, 369013, 369394, 369809, 370191, 370619, 371005, 371424, 371810, 372233, 372585, 372986, 373389, 373787]","[366269, 366668, 367069, 367480, 367863, 368275, 368693, 369104, 369487, 369883, 370267, 370693, 371096, 371500, 371880, 372296, 372662, 373066, 373469, 373864]","[39, 1, 213, 201, 158, 203, 161, 214, 205, 195, 187, 167, 208, 173, 210, 236, 250, 3, 154, 144]","[366176, 366569, 366978, 367393, 367798, 368195, 368594, 369018, 369398, 369814, 370196, 370623, 371009, 371430, 371814, 372237, 372588, 372990, 373394, 373791]","[364601, 365001, 365401, 365801, 366201, 366601, 367001, 367401, 367813, 368210, 368609, 369033, 369414, 369829, 370211, 370639, 371025, 371444, 371830, 372253, 372605, 373006, 373409, 373807]",89,EM,U,R,ITMSR,1.1,
2,400,trial,0,10,10,10,trial,"['S', 'S', 'S', 'S', 'C', 'C', 'C', 'C', 'C', 'C', 'C', 'C', 'C', 'C', 'C', 'C', 'C', 'C', 'C', 'C']","[380829, 381187, 381608, 382018, 382438, 382821, 383256, 383639, 384038, 384440, 384818, 385218, 385579, 385982, 386367, 386774, 387153, 387527, 387901, 388292]","[380917, 381271, 381690, 382092, 382511, 382893, 383337, 383714, 384120, 384519, 384916, 385304, 385662, 386070, 386472, 386854, 387241, 387625, 387982, 388376]","[200, 155, 208, 242, 216, 158, 175, 210, 231, 187, 193, 225, 225, 236, 159, 231, 191, 193, 165, 183]","[380834, 381192, 381614, 382023, 382442, 382825, 383261, 383643, 384043, 384445, 384823, 385222, 385584, 385986, 386372, 386778, 387158, 387531, 387906, 388296]","[379270, 379670, 380070, 380470, 380870, 381271, 381670, 382070, 382458, 382841, 383277, 383660, 384058, 384460, 384838, 385239, 385599, 386002, 386387, 386794, 387173, 387547, 387921, 388312]",89,EM,U,R,ITMSR,1.1,
4,400,trial,0,11,11,11,trial,"['S', 'S', 'S', 'S', 'C', 'C', 'C', 'C', 'C', 'C', 'C', 'C', 'C', 'C', 'C', 'C', 'C', 'C', 'C', 'C']","[395609, 395993, 396428, 396836, 397199, 397563, 397989, 398368, 398772, 399156, 399556, 399953, 400345, 400773, 401130, 401564, 401975, 402353, 402755, 403142]","[395718, 396102, 396520, 396936, 397302, 397654, 398071, 398454, 398844, 399248, 399652, 400051, 400436, 400836, 401201, 401638, 402050, 402439, 402842, 403220]","[119, 83, 105, 35, 70, 53, 25, 27, 91, 93, 130, 138, 166, 125, 167, 145, 44, 17, 22, 105]","[395649, 395999, 396432, 396841, 397204, 397569, 397995, 398372, 398776, 399161, 399560, 399958, 400348, 400776, 401133, 401568, 401979, 402357, 402760, 403146]","[394041, 394441, 394841, 395241, 395641, 396041, 396441, 396841, 397219, 397583, 398009, 398388, 398792, 399176, 399576, 399973, 400365, 400793, 401150, 401584, 401995, 402373, 402776, 403162]",89,EM,U,R,ITMSR,1.1,
2,400,trial,0,12,12,12,trial,"['S', 'S', 'S', 'S', 'C', 'C', 'C', 'C', 'C', 'C', 'C', 'C', 'C', 'C', 'C', 'C', 'C', 'C', 'C', 'C']","[410297, 410660, 411077, 411486, 411874, 412280, 412703, 413091, 413477, 413870, 414271, 414670, 415044, 415448, 415858, 416240, 416627, 417005, 417404, 417785]","[410392, 410755, 411177, 411576, 411955, 412361, 412778, 413166, 413556, 413945, 414350, 414748, 415130, 415536, 415936, 416319, 416713, 417097, 417485, 417856]","[183, 53, 137, 136, 91, 68, 109, 200, 188, 144, 97, 178, 168, 138, 140, 107, 183, 158, 148, 114]","[410343, 410667, 411080, 411490, 411879, 412284, 412708, 413095, 413480, 413874, 414276, 414673, 415048, 415452, 415862, 416244, 416630, 417009, 417409, 417790]","[408708, 409107, 409507, 409907, 410307, 410707, 411107, 411507, 411894, 412300, 412723, 413111, 413497, 413890, 414291, 414690, 415064, 415468, 415878, 416260, 416647, 417026, 417424, 417805]",89,EM,U,R,ITMSR,1.1,
0,600,trial,0,13,13,13,trial,"['S', 'S', 'S', 'S', 'C', 'C', 'C', 'C', 'C', 'C', 'C', 'C', 'C', 'C', 'C', 'C', 'C', 'C', 'C', 'C']","[425643, 426288, 426881, 427488, 428056, 428669, 429204, 429769, 430369, 430981, 431526, 432084, 432650, 433215, 433777, 434311, 434824, 435361, 435909, 436487]","[425735, 426392, 427010, 427596, 428182, 428773, 429318, 429871, 430450, 431042, 431606, 432163, 432749, 433317, 433862, 434371, 434907, 435456, 435964, 436555]","[125, 64, 114, 162, 123, 151, 140, 107, 172, 209, 100, 18, 155, 37, 201, 162, 157, 149, 196, 24]","[425647, 426330, 426885, 427493, 428119, 428673, 429208, 429773, 430373, 430984, 431529, 432088, 432696, 433218, 433781, 434314, 434853, 435396, 435911, 436490]","[423299, 423899, 424499, 425099, 425699, 426299, 426899, 427499, 428077, 428689, 429224, 429789, 430389, 431001, 431546, 432104, 432670, 433235, 433797, 434331, 434844, 435381, 435929, 436507]",89,EM,U,R,ITMSR,1.1,
1,600,trial,0,14,14,14,trial,"['S', 'S', 'S', 'S', 'C', 'C', 'C', 'C', 'C', 'C', 'C', 'C', 'C', 'C', 'C', 'C', 'C', 'C', 'C', 'C']","[444249, 444877, 445509, 446088, 446703, 447288, 447865, 448427, 449009, 449579, 450156, 450763, 451332, 451928, 452540, 453126, 453752, 454329, 454905, 455456]","[444369, 445003, 445612, 446170, 446825, 447433, 447998, 448557, 449119, 449709, 450343, 450886, 451475, 452054, 452667, 453242, 453865, 454427, 455002, 455575]","[202, 160, 186, 53, 129, 209, 170, 165, 137, 94, 174, 217, 229, 244, 211, 206, 191, 189, 163, 227]","[444312, 444881, 445513, 446123, 446758, 447377, 447939, 448502, 449015, 449642, 450243, 450827, 451410, 451991, 452617, 453184, 453803, 454335, 454909, 455460]","[441933, 442533, 443133, 443734, 444333, 444933, 445533, 446133, 446723, 447308, 447885, 448447, 449029, 449599, 450177, 450783, 451352, 451948, 452560, 453146, 453772, 454349, 454925, 455476]",89,EM,U,R,ITMSR,1.1,
4,600,trial,0,15,15,15,trial,"['S', 'S', 'S', 'S', 'C', 'C', 'C', 'C', 'C', 'C', 'C', 'C', 'C', 'C', 'C', 'C', 'C', 'C', 'C', 'C']","[463469, 464103, 464709, 465313, 465872, 466476, 467067, 467649, 468264, 468832, 469429, 470029, 470586, 471176, 471772, 472397, 472986, 473608, 474251, 474780]","[463553, 464188, 464788, 465389, 465971, 466561, 467153, 467721, 468321, 468904, 469521, 470086, 470665, 471247, 471792, 472471, 473068, 473701, 474346, 474851]","[21, 56, 176, 172, 3, 249, 0, 231, 141, 36, 171, 218, 252, 185, 186, 41, 111, 81, 10, 198]","[463473, 464107, 464714, 465318, 465876, 466480, 467070, 467652, 468269, 468858, 469433, 470033, 470589, 471213, 471774, 472402, 472990, 473658, 474307, 474806]","[461117, 461717, 462317, 462917, 463517, 464117, 464717, 465317, 465892, 466496, 467087, 467670, 468284, 468852, 469449, 470049, 470606, 471196, 471792, 472417, 473006, 473628, 474271, 474800]",89,EM,U,R,ITMSR,1.1,
4,600,trial,0,16,16,16,trial,"['S', 'S', 'S', 'S', 'C', 'C', 'C', 'C', 'C', 'C', 'C', 'C', 'C', 'C', 'C', 'C', 'C', 'C', 'C', 'C']","[482957, 483536, 484135, 484746, 485330, 485909, 486525, 487121, 487710, 488332, 488887, 489465, 490072, 490651, 491265, 491882, 492418, 493006, 493575, 494162]","[483043, 483621, 484209, 484820, 485400, 485978, 486600, 487194, 487802, 488424, 488985, 489574, 490166, 490748, 491354, 491956, 492517, 493110, 493677, 494251]","[40, 3, 226, 203, 227, 254, 11, 192, 199, 240, 226, 219, 248, 214, 210, 139, 218, 229, 198, 253]","[482962, 483543, 484141, 484752, 485335, 485913, 486530, 487126, 487751, 488337, 488893, 489470, 490076, 490657, 491271, 491888, 492423, 493009, 493578, 494166]","[480567, 481167, 481767, 482367, 482967, 483567, 484167, 484767, 485350, 485929, 486545, 487141, 487730, 488352, 488907, 489485, 490092, 490671, 491285, 491902, 492438, 493026, 493595, 494182]",89,EM,U,R,ITMSR,1.1,
5,400,trial,0,17,17,17,trial,"['S', 'S', 'C', 'C', 'C', 'C', 'C', 'C', 'C', 'C', 'C', 'C', 'C', 'C', 'C', 'C', 'C', 'C']","[502166, 502600, 503021, 503425, 503834, 504269, 504650, 505080, 505466, 505901, 506274, 506691, 507092, 507513, 507901, 508281, 508669, 509059]","[502262, 502682, 503102, 503500, 503927, 504337, 504728, 505150, 505549, 505979, 506353, 506779, 507176, 507596, 507983, 508374, 508761, 509151]","[155, 32, 73, 83, 104, 85, 98, 90, 62, 89, 68, 86, 99, 74, 118, 136, 114, 81]","[502170, 502604, 503025, 503429, 503838, 504273, 504653, 505084, 505470, 505905, 506278, 506695, 507097, 507516, 507906, 508285, 508672, 509063]","[499820, 500220, 500620, 501020, 501421, 501821, 502221, 502621, 503042, 503445, 503854, 504289, 504670, 505100, 505486, 505921, 506294, 506712, 507112, 507533, 507921, 508301, 508689, 509079]",89,EM,U,R,ITMSR,1.1,
5,400,trial,0,18,18,18,trial,"['S', 'S', 'S', 'S', 'C', 'C', 'C', 'C', 'C', 'C', 'C', 'C', 'C', 'C', 'C', 'C', 'C', 'C', 'C', 'C']","[516387, 516790, 517179, 517606, 518029, 518405, 518827, 519211, 519619, 520008, 520402, 520787, 521198, 521582, 522030, 522414, 522838, 523257, 523634, 524047]","[516485, 516887, 517266, 517682, 518120, 518501, 518918, 519291, 519703, 520098, 520496, 520866, 521286, 521672, 522115, 522507, 522903, 523326, 523705, 524116]","[91, 35, 76, 94, 48, 91, 134, 100, 126, 117, 145, 81, 85, 65, 44, 34, 93, 69, 88, 80]","[516428, 516794, 517183, 517610, 518033, 518409, 518831, 519214, 519623, 520012, 520406, 520791, 521201, 521586, 522034, 522417, 522841, 523260, 523637, 524050]","[514826, 515226, 515627, 516026, 516426, 516826, 517226, 517626, 518049, 518425, 518847, 519231, 519640, 520028, 520422, 520807, 521218, 521602, 522050, 522434, 522858, 523277, 523654, 524067]",89,EM,U,R,ITMSR,1.1,
4,400,trial,0,19,19,19,trial,"['S', 'S', 'S', 'C', 'C', 'C', 'C', 'C', 'C', 'C', 'C', 'C', 'C', 'C', 'C', 'C', 'C', 'C', 'C']","[531270, 531673, 532491, 533431, 533833, 534240, 534589, 534943, 535340, 535732, 536115, 536486, 536847, 537316, 537672, 538075, 538408, 538757, 539153]","[531290, 531724, 532511, 533482, 533873, 534264, 534697, 535052, 535427, 535802, 536186, 536556, 536914, 537390, 537751, 538149, 538493, 538841, 539235]","[49, 151, 44, 82, 82, 107, 26, 220, 232, 75, 34, 249, 120, 143, 118, 104, 107, 118, 147]","[531272, 531708, 532492, 533457, 533850, 534246, 534677, 535000, 535380, 535738, 536122, 536493, 536854, 537345, 537676, 538082, 538414, 538762, 539158]","[529724, 530124, 530524, 530924, 531324, 531724, 532124, 532525, 533451, 533853, 534260, 534609, 534963, 535360, 535752, 536135, 536506, 536867, 537336, 537692, 538095, 538428, 538777, 539173]",89,EM,U,R,ITMSR,1.1,
0,600,trial,0,20,20,20,trial,"['S', 'S', 'S', 'S', 'C', 'C', 'C', 'C', 'C', 'C', 'C', 'C', 'C', 'C', 'C', 'C', 'C', 'C', 'C', 'C']","[547121, 547694, 548264, 548884, 549468, 550057, 550579, 551153, 551729, 552281, 552791, 553288, 553849, 554335, 554846, 555455, 555979, 556510, 557032, 557551]","[547204, 547786, 548353, 548967, 549567, 550148, 550667, 551229, 551813, 552363, 552901, 553383, 553912, 554427, 554932, 555572, 556065, 556602, 557124, 557627]","[241, 7, 185, 157, 225, 160, 134, 129, 22, 51, 145, 145, 33, 115, 193, 99, 236, 171, 59, 15]","[547126, 547699, 548308, 548890, 549518, 550097, 550585, 551159, 551769, 552287, 552854, 553338, 553857, 554341, 554851, 555534, 555985, 556569, 557037, 557557]","[544772, 545371, 545971, 546571, 547171, 547771, 548371, 548971, 549488, 550077, 550599, 551173, 551749, 552301, 552811, 553308, 553869, 554355, 554866, 555475, 555999, 556530, 557052, 557571]",89,EM,U,R,ITMSR,1.1,
1,600,trial,0,21,21,21,trial,"['S', 'S', 'S', 'S', 'C', 'C', 'C', 'C', 'C', 'C', 'C', 'C', 'C', 'C', 'C', 'C', 'C', 'C', 'C', 'C']","[565704, 566290, 566873, 567425, 568079, 568687, 569294, 569886, 570491, 571028, 571616, 572242, 572875, 573445, 574080, 574628, 575175, 575790, 576331, 576911]","[565789, 566382, 566960, 567529, 568147, 568762, 569356, 569966, 570561, 571105, 571707, 572315, 572931, 573520, 574137, 574704, 575253, 575857, 576414, 576985]","[117, 133, 114, 42, 97, 134, 60, 116, 19, 57, 24, 57, 233, 40, 186, 1, 160, 189, 255, 218]","[565710, 566296, 566878, 567430, 568083, 568691, 569299, 569891, 570499, 571033, 571621, 572248, 572880, 573450, 574085, 574633, 575180, 575795, 576335, 576915]","[563334, 563934, 564534, 565134, 565734, 566334, 566934, 567534, 568099, 568707, 569314, 569906, 570511, 571048, 571636, 572262, 572895, 573465, 574100, 574648, 575195, 575810, 576351, 576931]",89,EM,U,R,ITMSR,1.1,
3,600,trial,0,22,22,22,trial,"['S', 'S', 'S', 'S', 'C', 'C', 'C', 'C', 'C', 'C', 'C', 'C', 'C', 'C', 'C', 'C', 'C', 'C', 'C', 'C']","[584759, 585357, 585961, 586545, 587153, 587739, 588319, 588932, 589534, 590155, 590764, 591350, 591888, 592485, 593065, 593656, 594240, 594825, 595450, 596044]","[584853, 585462, 586059, 586624, 587246, 587863, 588426, 589010, 589625, 590246, 590859, 591505, 591990, 592570, 593160, 593756, 594333, 594902, 595531, 596129]","[178, 253, 104, 107, 109, 191, 27, 12, 62, 28, 99, 252, 245, 255, 2, 206, 240, 211, 206, 28]","[584764, 585362, 585965, 586549, 587158, 587807, 588324, 588936, 589539, 590160, 590768, 591460, 591893, 592489, 593070, 593662, 594245, 594830, 595456, 596049]","[582393, 582993, 583593, 584194, 584794, 585394, 585994, 586594, 587173, 587759, 588339, 588952, 589554, 590175, 590784, 591370, 591908, 592505, 593085, 593676, 594260, 594845, 595470, 596064]",89,EM,U,R,ITMSR,1.1,
3,400,trial,0,23,23,23,trial,"['S', 'S', 'S', 'S', 'C', 'C', 'C', 'C', 'C', 'C', 'C', 'C', 'C', 'C', 'C', 'C', 'C', 'C', 'C', 'C']","[603084, 603493, 603880, 604307, 604721, 605124, 605528, 605921, 606337, 606751, 607180, 607579, 608012, 608423, 608843, 609297, 609654, 610069, 610493, 610902]","[603173, 603576, 603964, 604394, 604800, 605214, 605623, 606010, 606456, 606848, 607290, 607679, 608092, 608505, 608933, 609412, 609777, 610164, 610575, 610984]","[63, 112, 152, 100, 212, 129, 127, 170, 211, 44, 30, 245, 29, 33, 103, 38, 228, 224, 103, 67]","[603090, 603498, 603885, 604312, 604727, 605129, 605532, 605926, 606402, 606757, 607186, 607625, 608019, 608430, 608848, 609374, 609733, 610120, 610546, 610907]","[601526, 601926, 602327, 602726, 603126, 603526, 603926, 604326, 604741, 605144, 605548, 605941, 606357, 606771, 607200, 607599, 608032, 608443, 608863, 609317, 609674, 610089, 610513, 610922]",89,EM,U,R,ITMSR,1.1,
1,400,trial,0,24,24,24,trial,"['S', 'S', 'S', 'S', 'C', 'C', 'C', 'C', 'C', 'C', 'C', 'C', 'C', 'C', 'C', 'C', 'C', 'C', 'C', 'C']","[618220, 618634, 619041, 619461, 619801, 620217, 620622, 621023, 621431, 621867, 622258, 622633, 623009, 623417, 623804, 624224, 624638, 625040, 625453, 625795]","[618312, 618713, 619147, 619564, 619938, 620306, 620728, 621112, 621522, 621937, 622341, 622711, 623090, 623489, 623885, 624294, 624709, 625119, 625540, 625894]","[73, 157, 154, 145, 118, 102, 16, 118, 234, 65, 134, 123, 114, 119, 105, 122, 109, 127, 128, 118]","[618264, 618639, 619045, 619465, 619807, 620223, 620628, 621028, 621436, 621871, 622263, 622639, 623014, 623422, 623809, 624228, 624643, 625045, 625458, 625800]","[616677, 617076, 617476, 617876, 618276, 618676, 619076, 619476, 619821, 620237, 620642, 621043, 621451, 621887, 622278, 622653, 623029, 623437, 623824, 624244, 624658, 625060, 625473, 625815]",89,EM,U,R,ITMSR,1.1,
0,400,trial,0,25,25,25,trial,"['S', 'S', 'S', 'S', 'C', 'C', 'C', 'C', 'C', 'C', 'C', 'C', 'C', 'C', 'C', 'C', 'C', 'C', 'C', 'C']","[632816, 633219, 633628, 634053, 634426, 634842, 635211, 635626, 636008, 636434, 636819, 637222, 637602, 638003, 638389, 638761, 639142, 639529, 639940, 640312]","[632919, 633315, 633728, 634162, 634517, 634920, 635304, 635694, 636102, 636495, 636926, 637294, 637676, 638063, 638466, 638830, 639225, 639608, 640016, 640408]","[134, 115, 147, 95, 189, 69, 24, 36, 21, 88, 231, 80, 156, 36, 135, 103, 55, 132, 134, 50]","[632822, 633224, 633633, 634116, 634431, 634848, 635254, 635632, 636050, 636438, 636888, 637228, 637606, 638008, 638395, 638767, 639148, 639534, 639944, 640316]","[631267, 631666, 632066, 632466, 632866, 633266, 633666, 634066, 634446, 634862, 635231, 635646, 636028, 636454, 636839, 637242, 637622, 638023, 638409, 638781, 639162, 639549, 639960, 640332]",89,EM,U,R,ITMSR,1.1,
0,400,trial,0,26,26,26,trial,"['S', 'S', 'S', 'S', 'C', 'C', 'C', 'C', 'C', 'C', 'C', 'C', 'C', 'C', 'C', 'C', 'C', 'C', 'C', 'C']","[647592, 648003, 648392, 648797, 649207, 649571, 650003, 650405, 650801, 651222, 651632, 652002, 652404, 652780, 653233, 653630, 654022, 654427, 654812, 655222]","[647673, 648081, 648489, 648921, 649271, 649662, 650083, 650491, 650894, 651303, 651715, 652069, 652462, 652875, 653306, 653689, 654091, 654494, 654903, 655289]","[103, 120, 154, 222, 118, 143, 61, 32, 79, 57, 84, 125, 79, 66, 92, 104, 133, 101, 74, 165]","[647598, 648008, 648396, 648876, 649212, 649575, 650008, 650411, 650806, 651228, 651637, 652007, 652409, 652785, 653238, 653634, 654026, 654432, 654817, 655226]","[646033, 646433, 646833, 647233, 647633, 648033, 648433, 648834, 649227, 649591, 650023, 650425, 650821, 651242, 651652, 652022, 652424, 652801, 653253, 653650, 654042, 654447, 654832, 655242]",89,EM,U,R,ITMSR,1.1,
2,600,trial,0,27,27,27,trial,"['S', 'S', 'S', 'S', 'C', 'C', 'C', 'C', 'C', 'C', 'C', 'C', 'C', 'C', 'C', 'C', 'C', 'C', 'C', 'C']","[662866, 663461, 664069, 664662, 665248, 665868, 666426, 667010, 667586, 668205, 668773, 669301, 669803, 670394, 670953, 671525, 672120, 672689, 673216, 673814]","[662985, 663562, 664160, 664762, 665371, 665982, 666536, 667097, 667691, 668251, 668890, 669410, 669942, 670499, 671060, 671627, 672214, 672798, 673323, 673906]","[1, 60, 55, 83, 56, 72, 55, 68, 56, 196, 33, 86, 104, 55, 73, 79, 54, 22, 6, 65]","[662932, 663467, 664075, 664668, 665312, 665874, 666431, 667016, 667592, 668211, 668837, 669306, 669808, 670399, 670958, 671531, 672126, 672694, 673222, 673819]","[660549, 661149, 661749, 662349, 662949, 663549, 664150, 664749, 665268, 665888, 666446, 667030, 667607, 668225, 668793, 669321, 669824, 670414, 670973, 671545, 672140, 672709, 673236, 673835]",89,EM,U,R,ITMSR,1.1,
5,600,trial,0,28,28,28,trial,"['S', 'S', 'S', 'S', 'C', 'C', 'C', 'C', 'C', 'C', 'C', 'C', 'C', 'C', 'C', 'C', 'C', 'C', 'C', 'C']","[681902, 682503, 683112, 683727, 684315, 684908, 685498, 686075, 686643, 687226, 687799, 688403, 689003, 689599, 690178, 690812, 691425, 692024, 692597, 693181]","[681978, 682601, 683207, 683816, 684396, 685025, 685597, 686171, 686780, 687364, 687945, 688532, 689085, 689719, 690311, 690909, 691509, 692098, 692716, 693276]","[170, 157, 80, 84, 96, 227, 36, 91, 77, 86, 118, 117, 96, 53, 48, 25, 43, 85, 92, 71]","[681909, 682558, 683119, 683732, 684321, 684976, 685504, 686081, 686648, 687232, 687804, 688408, 689009, 689604, 690184, 690819, 691431, 692028, 692603, 693186]","[679542, 680142, 680742, 681342, 681943, 682542, 683142, 683742, 684335, 684929, 685518, 686095, 686663, 687246, 687819, 688423, 689024, 689619, 690198, 690832, 691445, 692044, 692617, 693201]",89,EM,U,R,ITMSR,1.1,
3,600,trial,0,29,29,29,trial,"['S', 'S', 'S', 'S', 'C', 'C', 'C', 'C', 'C', 'C', 'C', 'C', 'C', 'C', 'C', 'C', 'C', 'C', 'C', 'C']","[701052, 701674, 702288, 702922, 703457, 704100, 704641, 705240, 705796, 706409, 706941, 707528, 708093, 708682, 709282, 709868, 710453, 711017, 711572, 712192]","[701149, 701775, 702367, 703010, 703584, 704202, 704763, 705333, 705885, 706478, 707026, 707618, 708174, 708751, 709353, 709956, 710567, 711128, 711678, 712274]","[118, 69, 209, 37, 99, 67, 114, 78, 109, 20, 126, 117, 114, 144, 143, 148, 127, 121, 117, 126]","[701059, 701715, 702328, 702957, 703520, 704157, 704700, 705290, 705803, 706416, 706948, 707533, 708100, 708686, 709286, 709873, 710523, 711023, 711577, 712197]","[698728, 699328, 699928, 700528, 701128, 701728, 702328, 702928, 703477, 704120, 704661, 705260, 705816, 706429, 706961, 707548, 708113, 708702, 709302, 709889, 710473, 711037, 711592, 712212]",89,EM,U,R,ITMSR,1.1,
0,600,trial,0,30,30,30,trial,"['S', 'S', 'S', 'S', 'S', 'C', 'C', 'C', 'C', 'C', 'C', 'C', 'C', 'C', 'C', 'C', 'C', 'C', 'C', 'C', 'C']","[738823, 739354, 739961, 740593, 741176, 741747, 742319, 742933, 743455, 744017, 744609, 745169, 745718, 746283, 746877, 747433, 748015, 748562, 749200, 749758, 750289]","[738927, 739462, 740070, 740679, 741267, 741847, 742428, 743025, 743562, 744109, 744678, 745286, 745808, 746375, 746962, 747524, 748093, 748649, 749259, 749837, 750403]","[173, 192, 186, 138, 149, 111, 152, 111, 118, 18, 62, 255, 47, 56, 233, 33, 43, 56, 17, 52, 209]","[738880, 739360, 739968, 740599, 741181, 741754, 742375, 742941, 743462, 744024, 744615, 745250, 745724, 746289, 746885, 747440, 748020, 748568, 749208, 749764, 750297]","[737008, 737608, 738208, 738808, 739408, 740008, 740609, 741208, 741767, 742339, 742953, 743475, 744037, 744629, 745189, 745738, 746303, 746897, 747453, 748035, 748582, 749220, 749778, 750309]",89,EM,U,R,ITMSR,1.1,
4,600,trial,0,31,31,31,trial,"['S', 'S', 'S', 'S', 'C', 'C', 'C', 'C', 'C', 'C', 'C', 'C', 'C', 'C', 'C', 'C', 'C', 'C', 'C', 'C']","[758292, 758931, 759525, 760137, 760749, 761365, 761970, 762546, 763154, 763746, 764381, 764967, 765549, 766158, 766739, 767316, 767924, 768476, 769120, 769701]","[758366, 759003, 759607, 760183, 760807, 761407, 762034, 762609, 763211, 763800, 764453, 765048, 765630, 766219, 766759, 767411, 768000, 768586, 769180, 769779]","[217, 90, 84, 128, 130, 6, 76, 114, 101, 114, 78, 66, 35, 13, 176, 39, 135, 206, 199, 195]","[758297, 758937, 759530, 760142, 760754, 761369, 761974, 762551, 763158, 763751, 764386, 764972, 765553, 766162, 766744, 767321, 767929, 768480, 769123, 769705]","[755936, 756536, 757136, 757736, 758336, 758936, 759536, 760136, 760769, 761385, 761990, 762566, 763174, 763766, 764401, 764987, 765570, 766178, 766759, 767336, 767944, 768496, 769140, 769721]",89,EM,U,R,ITMSR,1.1,
3,400,trial,0,32,32,32,trial,"['S', 'S', 'S', 'S', 'C', 'C', 'C', 'C', 'C', 'C', 'C', 'C', 'C', 'C', 'C', 'C', 'C', 'C', 'C', 'C']","[776790, 777185, 777582, 777967, 778382, 778812, 779202, 779603, 779990, 780368, 780803, 781236, 781672, 782133, 782538, 782926, 783355, 783759, 784115, 784534]","[776864, 777250, 777662, 778051, 778465, 778883, 779255, 779682, 780059, 780437, 780861, 781299, 781733, 782186, 782582, 782982, 783422, 783824, 784164, 784576]","[168, 198, 129, 98, 110, 108, 165, 157, 99, 39, 31, 56, 15, 59, 57, 20, 65, 12, 73, 0]","[776795, 777189, 777586, 777973, 778387, 778817, 779206, 779608, 779994, 780375, 780808, 781241, 781678, 782161, 782543, 782931, 783361, 783765, 784120, 784540]","[775203, 775603, 776003, 776403, 776803, 777203, 777603, 778003, 778402, 778832, 779223, 779623, 780010, 780388, 780823, 781256, 781692, 782153, 782558, 782946, 783375, 783779, 784135, 784555]",89,EM,U,R,ITMSR,1.1,
3,600,trial,0,33,33,33,trial,"['S', 'S', 'S', 'S', 'C', 'C', 'C', 'C', 'C', 'C', 'C', 'C', 'C', 'C', 'C', 'C', 'C', 'C', 'C', 'C']","[792629, 793214, 793857, 794432, 795000, 795587, 796192, 796786, 797369, 797985, 798596, 799171, 799799, 800434, 801000, 801614, 802242, 802803, 803474, 804084]","[792696, 793293, 793917, 794501, 795083, 795674, 796282, 796862, 797433, 798061, 798659, 799250, 799884, 800510, 801081, 801704, 802340, 802885, 803530, 804168]","[66, 251, 168, 38, 7, 62, 8, 133, 26, 249, 137, 223, 57, 50, 43, 50, 36, 170, 32, 6]","[792634, 793222, 793867, 794437, 795006, 795592, 796199, 796791, 797374, 797992, 798603, 799178, 799805, 800440, 801006, 801620, 802289, 802846, 803478, 804089]","[790305, 790904, 791504, 792104, 792705, 793304, 793904, 794504, 795020, 795608, 796212, 796806, 797389, 798005, 798616, 799192, 799819, 800454, 801020, 801634, 802263, 802823, 803494, 804104]",89,EM,U,R,ITMSR,1.1,
1,400,trial,0,34,34,34,trial,"['S', 'S', 'S', 'S', 'C', 'C', 'C', 'C', 'C', 'C', 'C', 'C', 'C', 'C', 'C', 'C', 'C', 'C', 'C', 'C']","[811228, 811644, 812061, 812495, 812903, 813302, 813652, 814111, 814563, 814967, 815342, 815728, 816153, 816559, 816956, 817384, 817759, 818164, 818536, 818937]","[811314, 811715, 812138, 812572, 812992, 813369, 813761, 814181, 814642, 815046, 815432, 815850, 816257, 816621, 817058, 817479, 817882, 818247, 818658, 819017]","[114, 99, 152, 99, 122, 168, 77, 137, 96, 251, 47, 19, 249, 78, 138, 117, 56, 166, 123, 171]","[811233, 811651, 812066, 812500, 812908, 813306, 813658, 814115, 814568, 814973, 815347, 815798, 816226, 816565, 816961, 817389, 817839, 818168, 818542, 818942]","[809713, 810114, 810514, 810914, 811314, 811714, 812114, 812514, 812923, 813322, 813672, 814131, 814583, 814987, 815362, 815748, 816173, 816579, 816976, 817404, 817779, 818184, 818556, 818957]",89,EM,U,R,ITMSR,1.1,
5,600,trial,0,35,35,35,trial,"['S', 'S', 'S', 'S', 'C', 'C', 'C', 'C', 'C', 'C', 'C', 'C', 'C', 'C', 'C', 'C', 'C', 'C', 'C', 'C']","[827077, 827660, 828291, 828866, 829425, 830015, 830624, 831223, 831813, 832451, 833031, 833564, 834067, 834580, 835183, 835728, 836291, 836844, 837342, 837885]","[827151, 827738, 828363, 828955, 829501, 830101, 830700, 831294, 831880, 832533, 833112, 833648, 834160, 834678, 835264, 835800, 836382, 836943, 837468, 837976]","[140, 109, 41, 86, 142, 129, 102, 32, 129, 68, 236, 107, 92, 125, 70, 88, 104, 82, 240, 87]","[827083, 827666, 828298, 828872, 829430, 830020, 830629, 831229, 831818, 832456, 833070, 833570, 834073, 834585, 835190, 835731, 836296, 836849, 837350, 837891]","[824706, 825304, 825904, 826504, 827104, 827704, 828304, 828904, 829445, 830035, 830644, 831243, 831833, 832472, 833051, 833584, 834087, 834600, 835203, 835748, 836312, 836865, 837362, 837905]",89,EM,U,R,ITMSR,1.1,
4,400,trial,0,36,36,36,trial,"['S', 'S', 'S', 'S', 'C', 'C', 'C', 'C', 'C', 'C', 'C', 'C', 'C', 'C', 'C', 'C', 'C', 'C', 'C', 'C']","[844857, 845237, 845631, 846030, 846467, 846850, 847270, 847687, 848067, 848461, 848864, 849267, 849654, 850046, 850434, 850845, 851245, 851667, 852043, 852460]","[844931, 845291, 845719, 846098, 846534, 846928, 847344, 847747, 848143, 848517, 848934, 849341, 849726, 850122, 850519, 850912, 851329, 851746, 852110, 852532]","[58, 91, 149, 132, 86, 86, 161, 123, 81, 138, 87, 159, 112, 99, 104, 146, 89, 89, 119, 113]","[844863, 845243, 845635, 846035, 846472, 846855, 847309, 847691, 848073, 848466, 848868, 849271, 849659, 850052, 850438, 850849, 851250, 851672, 852048, 852465]","[843283, 843683, 844083, 844483, 844883, 845283, 845683, 846083, 846487, 846870, 847290, 847707, 848088, 848481, 848884, 849287, 849674, 850066, 850454, 850865, 851265, 851687, 852063, 852481]",89,EM,U,R,ITMSR,1.1,
3,400,trial,0,37,37,37,trial,"['S', 'S', 'S', 'S', 'C', 'C', 'C', 'C', 'C', 'C', 'C', 'C', 'C', 'C', 'C', 'C', 'C', 'C', 'C', 'C']","[859463, 859850, 860284, 860668, 861077, 861484, 861892, 862313, 862743, 863136, 863544, 863894, 864323, 864739, 865137, 865562, 865970, 866343, 866749, 867178]","[859542, 859919, 860354, 860725, 861171, 861561, 861964, 862406, 862800, 863214, 863612, 863966, 864389, 864811, 865209, 865627, 866049, 866421, 866825, 867251]","[71, 119, 72, 115, 81, 134, 82, 206, 132, 103, 137, 177, 114, 32, 155, 103, 244, 70, 167, 134]","[859469, 859855, 860291, 860675, 861083, 861489, 861897, 862319, 862749, 863142, 863549, 863899, 864329, 864745, 865142, 865568, 865976, 866349, 866754, 867183]","[857900, 858299, 858699, 859099, 859499, 859899, 860299, 860699, 861097, 861504, 861912, 862333, 862764, 863156, 863564, 863915, 864344, 864759, 865157, 865582, 865990, 866363, 866769, 867198]",89,EM,U,R,ITMSR,1.1,
5,400,trial,0,38,38,38,trial,"['S', 'S', 'S', 'S', 'C', 'C', 'C', 'C', 'C', 'C', 'C', 'C', 'C', 'C', 'C', 'C', 'C', 'C', 'C', 'C']","[874155, 874539, 874940, 875352, 875759, 876154, 876575, 876956, 877388, 877794, 878201, 878595, 879007, 879396, 879802, 880187, 880563, 880967, 881378, 881763]","[874236, 874607, 875021, 875413, 875849, 876232, 876660, 877006, 877462, 877832, 878268, 878666, 879079, 879482, 879875, 880263, 880661, 881051, 881441, 881846]","[54, 104, 129, 171, 143, 146, 147, 127, 133, 27, 171, 145, 165, 173, 170, 176, 147, 202, 137, 93]","[874160, 874544, 874945, 875357, 875763, 876160, 876580, 876961, 877392, 877803, 878206, 878600, 879012, 879401, 879806, 880192, 880567, 880972, 881382, 881768]","[872569, 872969, 873369, 873769, 874169, 874569, 874969, 875369, 875779, 876174, 876595, 876976, 877408, 877814, 878221, 878615, 879027, 879416, 879822, 880207, 880583, 880987, 881398, 881783]",89,EM,U,R,ITMSR,1.1,
2,400,trial,0,39,39,39,trial,"['S', 'S', 'S', 'S', 'C', 'C', 'C', 'C', 'C', 'C', 'C', 'C', 'C', 'C', 'C', 'C', 'C', 'C', 'C', 'C']","[888716, 889103, 889494, 889915, 890315, 890710, 891112, 891496, 891864, 892284, 892666, 893081, 893472, 893879, 894283, 894662, 895080, 895474, 895849, 896248]","[888807, 889190, 889602, 890012, 890413, 890799, 891203, 891578, 891957, 892376, 892750, 893179, 893554, 893981, 894365, 894737, 895156, 895547, 895943, 896328]","[75, 69, 32, 41, 8, 94, 40, 38, 94, 91, 75, 143, 54, 72, 27, 22, 111, 144, 18, 27]","[888759, 889109, 889537, 889921, 890321, 890716, 891118, 891502, 891870, 892290, 892673, 893086, 893478, 893884, 894289, 894668, 895084, 895478, 895856, 896254]","[887175, 887575, 887975, 888375, 888775, 889176, 889576, 889976, 890335, 890730, 891132, 891516, 891884, 892304, 892686, 893101, 893492, 893899, 894303, 894682, 895100, 895494, 895869, 896268]",89,EM,U,R,ITMSR,1.1,
3,600,trial,0,40,40,40,trial,"['S', 'S', 'S', 'S', 'C', 'C', 'C', 'C', 'C', 'C', 'C', 'C', 'C', 'C', 'C', 'C', 'C', 'C', 'C', 'C']","[904033, 904608, 905237, 905860, 906449, 907059, 907655, 908276, 908854, 909462, 910104, 910671, 911229, 911850, 912459, 913097, 913742, 914386, 915002, 915637]","[904128, 904760, 905351, 905947, 906571, 907161, 907761, 908380, 908960, 909579, 910193, 910785, 911350, 911944, 912515, 913189, 913841, 914477, 915075, 915732]","[53, 60, 245, 249, 243, 219, 234, 0, 15, 181, 240, 250, 253, 125, 137, 22, 40, 15, 175, 28]","[904041, 904713, 905244, 905866, 906457, 907066, 907662, 908320, 908860, 909469, 910143, 910715, 911302, 911856, 912464, 913102, 913748, 914394, 915008, 915642]","[901668, 902268, 902868, 903469, 904069, 904669, 905269, 905869, 906469, 907079, 907675, 908296, 908874, 909483, 910125, 910691, 911249, 911870, 912479, 913117, 913762, 914406, 915022, 915657]",89,EM,U,R,ITMSR,1.1,
2,600,trial,0,41,41,41,trial,"['S', 'S', 'S', 'S', 'C', 'C', 'C', 'C', 'C', 'C', 'C', 'C', 'C', 'C', 'C', 'C', 'C', 'C', 'C', 'C']","[923725, 924367, 924994, 925592, 926167, 926780, 927368, 928013, 928649, 929255, 929847, 930557, 931126, 931718, 932346, 933003, 933660, 934330, 934896, 935555]","[923838, 924465, 925095, 925689, 926267, 926895, 927488, 928105, 928742, 929374, 930015, 930663, 931247, 931813, 932434, 933126, 933740, 934377, 935017, 935627]","[76, 56, 32, 57, 82, 72, 88, 242, 154, 121, 39, 16, 14, 57, 4, 1, 58, 249, 185, 14]","[923790, 924372, 925000, 925597, 926173, 926785, 927374, 928018, 928686, 929261, 929928, 930564, 931187, 931724, 932354, 933070, 933665, 934335, 934971, 935561]","[921376, 921976, 922576, 923176, 923777, 924376, 924976, 925576, 926187, 926800, 927388, 928033, 928669, 929275, 929867, 930577, 931146, 931738, 932366, 933023, 933680, 934350, 934916, 935575]",89,EM,U,R,ITMSR,1.1,
1,600,trial,0,42,42,42,trial,"['S', 'S', 'S', 'S', 'C', 'C', 'C', 'C', 'C', 'C', 'C', 'C', 'C', 'C', 'C', 'C', 'C', 'C', 'C', 'C']","[943757, 944328, 944922, 945533, 946116, 946693, 947252, 947834, 948458, 949008, 949594, 950157, 950692, 951249, 951830, 952425, 952990, 953619, 954175, 954741]","[943838, 944425, 945010, 945603, 946180, 946763, 947361, 947921, 948497, 949118, 949680, 950251, 950799, 951363, 951932, 952481, 953071, 953691, 954258, 954855]","[141, 69, 77, 64, 71, 95, 111, 98, 196, 130, 123, 129, 138, 94, 142, 20, 44, 19, 79, 18]","[943761, 944334, 944927, 945540, 946122, 946698, 947258, 947840, 948463, 949014, 949599, 950162, 950697, 951256, 951836, 952431, 952995, 953625, 954181, 954746]","[941360, 941960, 942560, 943160, 943760, 944360, 944960, 945560, 946136, 946713, 947272, 947854, 948478, 949028, 949614, 950177, 950712, 951269, 951851, 952445, 953010, 953639, 954195, 954761]",89,EM,U,R,ITMSR,1.1,
5,600,trial,0,43,43,43,trial,"['S', 'S', 'S', 'S', 'C', 'C', 'C', 'C', 'C', 'C', 'C', 'C', 'C', 'C', 'C', 'C', 'C', 'C', 'C', 'C']","[962673, 963257, 963862, 964433, 965001, 965579, 966170, 966754, 967323, 967904, 968501, 969023, 969632, 970190, 970699, 971292, 971851, 972412, 972994, 973594]","[962759, 963334, 963961, 964534, 965084, 965659, 966279, 966859, 967421, 967987, 968592, 969128, 969731, 970280, 970817, 971436, 971949, 972503, 973065, 973685]","[148, 108, 109, 105, 65, 252, 133, 111, 0, 73, 56, 11, 17, 83, 62, 247, 211, 255, 234, 132]","[962678, 963262, 963867, 964439, 965007, 965584, 966176, 966759, 967329, 967910, 968506, 969029, 969638, 970198, 970705, 971355, 971858, 972420, 973000, 973634]","[960254, 960855, 961454, 962054, 962654, 963254, 963854, 964454, 965021, 965599, 966190, 966774, 967343, 967924, 968521, 969043, 969652, 970210, 970719, 971312, 971871, 972432, 973015, 973614]",89,EM,U,R,ITMSR,1.1,
0,400,trial,0,44,44,44,trial,"['S', 'S', 'S', 'S', 'C', 'C', 'C', 'C', 'C', 'C', 'C', 'C', 'C', 'C', 'C', 'C', 'C', 'C', 'C', 'C', 'C']","[980943, 981338, 981731, 982119, 982524, 982950, 983328, 983428, 983762, 984170, 984584, 984964, 985406, 985815, 986218, 986600, 987033, 987461, 987895, 988264, 988660]","[981029, 981423, 981809, 982210, 982619, 983049, 983348, 983476, 983843, 984249, 984649, 985013, 985480, 985868, 986267, 986661, 987109, 987572, 987965, 988347, 988747]","[197, 201, 206, 214, 122, 175, 253, 191, 158, 175, 163, 101, 119, 173, 88, 150, 162, 15, 140, 75, 142]","[980948, 981343, 981735, 982122, 982531, 982956, 983334, 983444, 983768, 984174, 984589, 984968, 985410, 985820, 986223, 986605, 987038, 987543, 987900, 988270, 988665]","[979351, 979751, 980151, 980551, 980952, 981352, 981752, 982152, 982544, 982970, 983348, 983782, 984190, 984604, 984984, 985426, 985835, 986238, 986620, 987053, 987481, 987915, 988284, 988680]",89,EM,U,R,ITMSR,1.1,
1,600,trial,0,45,45,45,trial,"['S', 'S', 'S', 'S', 'C', 'C', 'C', 'C', 'C', 'C', 'C', 'C', 'C', 'C', 'C', 'C', 'C', 'C', 'C', 'C']","[996828, 997387, 997969, 998565, 999151, 999739, 1000307, 1000896, 1001468, 1002061, 1002603, 1003193, 1003751, 1004251, 1004860, 1005452, 1006031, 1006557, 1007143, 1007720]","[996926, 997489, 998072, 998682, 999293, 999859, 1000413, 1001046, 1001593, 1002165, 1002721, 1003310, 1003856, 1004365, 1004959, 1005557, 1006117, 1006667, 1007247, 1007809]","[253, 233, 197, 15, 219, 214, 184, 229, 237, 184, 218, 222, 244, 1, 235, 202, 23, 249, 49, 161]","[996833, 997392, 998012, 998625, 999219, 999784, 1000314, 1000962, 1001528, 1002110, 1002667, 1003250, 1003757, 1004257, 1004867, 1005497, 1006039, 1006602, 1007151, 1007728]","[994442, 995042, 995642, 996242, 996842, 997442, 998042, 998642, 999171, 999759, 1000327, 1000916, 1001488, 1002081, 1002624, 1003213, 1003771, 1004271, 1004880, 1005472, 1006051, 1006577, 1007163, 1007740]",89,EM,U,R,ITMSR,1.1,
4,400,trial,0,46,46,46,trial,"['S', 'S', 'S', 'S', 'C', 'C', 'C', 'C', 'C', 'C', 'C', 'C', 'C', 'C', 'C', 'C', 'C', 'C', 'C', 'C']","[1014883, 1015287, 1015647, 1016073, 1016427, 1016856, 1017252, 1017644, 1018079, 1018544, 1018933, 1019341, 1019678, 1020069, 1020446, 1020845, 1021230, 1021627, 1022021, 1022410]","[1014979, 1015366, 1015743, 1016155, 1016523, 1016910, 1017317, 1017712, 1018168, 1018594, 1018996, 1019419, 1019752, 1020144, 1020540, 1020926, 1021328, 1021725, 1022117, 1022503]","[8, 239, 221, 225, 155, 101, 166, 172, 113, 243, 48, 15, 33, 48, 63, 62, 57, 63, 77, 85]","[1014888, 1015294, 1015654, 1016079, 1016472, 1016862, 1017260, 1017651, 1018142, 1018554, 1018939, 1019350, 1019685, 1020076, 1020453, 1020851, 1021236, 1021633, 1022026, 1022416]","[1013307, 1013707, 1014107, 1014507, 1014907, 1015307, 1015707, 1016108, 1016448, 1016877, 1017272, 1017664, 1018099, 1018564, 1018953, 1019361, 1019698, 1020089, 1020466, 1020865, 1021250, 1021647, 1022041, 1022430]",89,EM,U,R,ITMSR,1.1,
2,400,trial,0,47,47,47,trial,"['S', 'S', 'S', 'S', 'C', 'C', 'C', 'C', 'C', 'C', 'C', 'C', 'C', 'C', 'C', 'C', 'C', 'C', 'C', 'C']","[1029584, 1029960, 1030348, 1030732, 1031130, 1031557, 1031975, 1032342, 1032743, 1033180, 1033563, 1033960, 1034349, 1034749, 1035149, 1035546, 1035944, 1036368, 1036765, 1037180]","[1029663, 1030039, 1030447, 1030829, 1031232, 1031660, 1032067, 1032451, 1032826, 1033254, 1033641, 1034058, 1034444, 1034832, 1035241, 1035643, 1036022, 1036475, 1036861, 1037267]","[72, 84, 41, 84, 69, 122, 106, 81, 104, 123, 160, 128, 135, 56, 98, 115, 111, 43, 122, 68]","[1029590, 1029965, 1030354, 1030737, 1031136, 1031563, 1031980, 1032347, 1032748, 1033185, 1033569, 1033965, 1034354, 1034756, 1035154, 1035552, 1035950, 1036375, 1036769, 1037187]","[1027957, 1028357, 1028757, 1029157, 1029557, 1029957, 1030358, 1030757, 1031150, 1031577, 1031995, 1032363, 1032763, 1033200, 1033583, 1033980, 1034370, 1034769, 1035169, 1035566, 1035964, 1036388, 1036785, 1037200]",89,EM,U,R,ITMSR,1.1,
1,400,trial,0,48,48,48,trial,"['S', 'S', 'S', 'S', 'C', 'C', 'C', 'C', 'C', 'C', 'C', 'C', 'C', 'C', 'C', 'C', 'C', 'C', 'C', 'C']","[1044145, 1044534, 1044942, 1045330, 1045739, 1046142, 1046524, 1046946, 1047334, 1047739, 1048120, 1048524, 1048916, 1049318, 1049738, 1050139, 1050541, 1050934, 1051367, 1051750]","[1044219, 1044616, 1045035, 1045428, 1045816, 1046217, 1046602, 1046966, 1047408, 1047826, 1048140, 1048623, 1049004, 1049392, 1049797, 1050159, 1050561, 1051021, 1051450, 1051832]","[171, 120, 78, 109, 66, 162, 138, 80, 106, 125, 105, 104, 106, 73, 95, 119, 113, 104, 93, 133]","[1044150, 1044540, 1044947, 1045336, 1045745, 1046147, 1046530, 1046951, 1047339, 1047743, 1048125, 1048528, 1048920, 1049322, 1049743, 1050144, 1050546, 1050937, 1051371, 1051755]","[1042556, 1042955, 1043355, 1043756, 1044155, 1044555, 1044955, 1045355, 1045760, 1046162, 1046544, 1046966, 1047354, 1047759, 1048140, 1048544, 1048936, 1049338, 1049758, 1050159, 1050561, 1050954, 1051387, 1051770]",89,EM,U,R,ITMSR,1.1,
4,600,trial,0,49,49,49,trial,"['S', 'S', 'S', 'S', 'C', 'C', 'C', 'C', 'C', 'C', 'C', 'C', 'C', 'C', 'C', 'C', 'C', 'C', 'C', 'C']","[1059901, 1060468, 1061072, 1061679, 1062327, 1062925, 1063500, 1064092, 1064684, 1065259, 1065847, 1066405, 1066986, 1067553, 1068181, 1068736, 1069307, 1069872, 1070439, 1070982]","[1059979, 1060549, 1061141, 1061734, 1062347, 1062945, 1063571, 1064162, 1064766, 1065346, 1065891, 1066425, 1067080, 1067631, 1068201, 1068821, 1069385, 1069969, 1070498, 1071086]","[60, 43, 224, 228, 78, 59, 20, 251, 42, 103, 112, 248, 96, 61, 129, 73, 33, 50, 95, 35]","[1059907, 1060474, 1061078, 1061685, 1062330, 1062930, 1063506, 1064097, 1064690, 1065264, 1065852, 1066411, 1066990, 1067558, 1068186, 1068740, 1069312, 1069877, 1070443, 1070987]","[1057534, 1058135, 1058734, 1059334, 1059934, 1060534, 1061134, 1061734, 1062347, 1062945, 1063520, 1064112, 1064705, 1065279, 1065867, 1066425, 1067006, 1067573, 1068201, 1068756, 1069327, 1069892, 1070459, 1071002]",89,EM,U,R,ITMSR,1.1,
0,400,trial,0,50,50,50,trial,"['S', 'S', 'C', 'C', 'C', 'C', 'C', 'C', 'C', 'C', 'C', 'C', 'C', 'C', 'C', 'C', 'C', 'C']","[1078914, 1079329, 1079771, 1080181, 1080573, 1080980, 1081367, 1081764, 1082156, 1082559, 1082954, 1083376, 1083762, 1084196, 1084581, 1085017, 1085433, 1085813]","[1078998, 1079349, 1079791, 1080231, 1080638, 1081000, 1081388, 1081827, 1082223, 1082627, 1083021, 1083456, 1083833, 1084263, 1084652, 1085101, 1085497, 1085890]","[7, 92, 127, 140, 125, 128, 102, 134, 139, 139, 89, 108, 74, 55, 52, 215, 215, 18]","[1078917, 1079332, 1079775, 1080186, 1080579, 1080984, 1081371, 1081768, 1082159, 1082563, 1082958, 1083380, 1083766, 1084199, 1084585, 1085021, 1085436, 1085818]","[1076556, 1076956, 1077356, 1077756, 1078156, 1078556, 1078957, 1079357, 1079791, 1080201, 1080593, 1081000, 1081388, 1081784, 1082176, 1082579, 1082974, 1083396, 1083782, 1084216, 1084601, 1085037, 1085453, 1085833]",89,EM,U,R,ITMSR,1.1,
0,600,trial,0,51,51,51,trial,"['S', 'S', 'S', 'S', 'C', 'C', 'C', 'C', 'C', 'C', 'C', 'C', 'C', 'C', 'C', 'C', 'C', 'C', 'C', 'C', 'C']","[1093767, 1094310, 1094908, 1095484, 1096092, 1096624, 1097213, 1097807, 1098345, 1098926, 1099026, 1099532, 1100110, 1100649, 1101168, 1101701, 1102262, 1102793, 1103357, 1103892, 1104451]","[1093838, 1094401, 1094977, 1095504, 1096112, 1096698, 1097284, 1097880, 1098456, 1098946, 1099046, 1099615, 1100200, 1100669, 1101286, 1101819, 1102353, 1102885, 1103449, 1103986, 1104523]","[30, 46, 86, 98, 236, 83, 144, 251, 246, 12, 206, 10, 138, 34, 172, 244, 9, 35, 216, 226, 1]","[1093772, 1094316, 1094913, 1095489, 1096096, 1096628, 1097218, 1097811, 1098350, 1098930, 1099026, 1099537, 1100115, 1100654, 1101173, 1101705, 1102266, 1102797, 1103362, 1103896, 1104454]","[1091377, 1091977, 1092577, 1093177, 1093777, 1094377, 1094977, 1095577, 1096112, 1096644, 1097233, 1097827, 1098365, 1098946, 1099552, 1100130, 1100669, 1101188, 1101721, 1102282, 1102813, 1103377, 1103912, 1104472]",89,EM,U,R,ITMSR,1.1,
2,600,trial,0,52,52,52,trial,"['S', 'S', 'S', 'S', 'C', 'C', 'C', 'C', 'C', 'C', 'C', 'C', 'C', 'C', 'C', 'C', 'C', 'C', 'C', 'C']","[1112180, 1112772, 1113380, 1113918, 1114534, 1115117, 1115673, 1116247, 1116793, 1117370, 1117907, 1118426, 1118978, 1119546, 1120055, 1120571, 1121105, 1121666, 1122225, 1122760]","[1112278, 1112865, 1113451, 1114000, 1114625, 1115194, 1115720, 1116308, 1116879, 1117450, 1118013, 1118505, 1119056, 1119614, 1120134, 1120646, 1121182, 1121744, 1122298, 1122850]","[244, 33, 39, 224, 21, 181, 167, 138, 202, 226, 243, 184, 154, 233, 222, 178, 129, 209, 71, 173]","[1112185, 1112778, 1113387, 1113925, 1114542, 1115123, 1115678, 1116254, 1116837, 1117412, 1117971, 1118465, 1119014, 1119553, 1120060, 1120577, 1121113, 1121672, 1122232, 1122801]","[1109790, 1110390, 1110990, 1111590, 1112190, 1112791, 1113390, 1113990, 1114554, 1115138, 1115693, 1116267, 1116813, 1117390, 1117927, 1118446, 1118998, 1119566, 1120075, 1120591, 1121125, 1121686, 1122245, 1122780]",89,EM,U,R,ITMSR,1.1,
5,400,trial,0,53,53,53,trial,"['S', 'S', 'S', 'S', 'C', 'C', 'C', 'C', 'C', 'C', 'C', 'C', 'C', 'C', 'C', 'C', 'C', 'C', 'C', 'C']","[1129890, 1130296, 1130688, 1131091, 1131504, 1131868, 1132264, 1132670, 1133113, 1133523, 1133924, 1134345, 1134718, 1135130, 1135520, 1135935, 1136347, 1136721, 1137117, 1137544]","[1129985, 1130394, 1130771, 1131179, 1131603, 1131960, 1132341, 1132763, 1133177, 1133601, 1134008, 1134422, 1134797, 1135221, 1135617, 1136018, 1136444, 1136821, 1137208, 1137641]","[152, 97, 119, 35, 4, 26, 123, 96, 116, 113, 214, 254, 196, 80, 16, 108, 108, 147, 100, 74]","[1129895, 1130301, 1130693, 1131099, 1131549, 1131922, 1132269, 1132676, 1133118, 1133528, 1133930, 1134350, 1134723, 1135135, 1135525, 1135939, 1136351, 1136727, 1137122, 1137549]","[1128312, 1128712, 1129112, 1129512, 1129912, 1130312, 1130712, 1131112, 1131524, 1131888, 1132284, 1132690, 1133133, 1133543, 1133944, 1134365, 1134738, 1135150, 1135540, 1135955, 1136367, 1136741, 1137137, 1137564]",89,EM,U,R,ITMSR,1.1,
5,600,trial,0,54,54,54,trial,"['S', 'S', 'S', 'S', 'S', 'S', 'C', 'C', 'C', 'C', 'C', 'C', 'C', 'C', 'C', 'C', 'C', 'C', 'C', 'C', 'C', 'C']","[1165402, 1165962, 1166560, 1167162, 1167746, 1168333, 1168926, 1169541, 1170112, 1170670, 1171246, 1171828, 1172398, 1172971, 1173542, 1174116, 1174673, 1175243, 1175820, 1176402, 1176980, 1177533]","[1165485, 1166047, 1166644, 1167247, 1167832, 1168428, 1169040, 1169617, 1170192, 1170749, 1171328, 1171920, 1172487, 1173050, 1173609, 1174194, 1174792, 1175350, 1175926, 1176483, 1177052, 1177618]","[119, 215, 217, 146, 174, 224, 248, 100, 54, 128, 86, 154, 97, 26, 20, 200, 229, 179, 35, 6, 8, 51]","[1165444, 1165968, 1166567, 1167206, 1167790, 1168378, 1168995, 1169582, 1170153, 1170714, 1171295, 1171876, 1172444, 1173012, 1173585, 1174123, 1174744, 1175304, 1175880, 1176439, 1177017, 1177568]","[1164211, 1164811, 1165411, 1166011, 1166611, 1167211, 1167811, 1168411, 1168946, 1169561, 1170132, 1170690, 1171266, 1171848, 1172418, 1172992, 1173562, 1174136, 1174693, 1175263, 1175840, 1176422, 1177000, 1177553]",89,EM,U,R,ITMSR,1.1,
2,400,trial,0,55,55,55,trial,"['S', 'S', 'S', 'S', 'C', 'C', 'C', 'C', 'C', 'C', 'C', 'C', 'C', 'C', 'C', 'C', 'C', 'C', 'C', 'C']","[1184494, 1184907, 1185331, 1185723, 1186123, 1186565, 1186952, 1187374, 1187763, 1188197, 1188612, 1189042, 1189454, 1189907, 1190335, 1190752, 1191170, 1191553, 1191984, 1192384]","[1184585, 1184989, 1185413, 1185805, 1186230, 1186643, 1187034, 1187454, 1187865, 1188284, 1188707, 1189144, 1189556, 1189999, 1190441, 1190872, 1191264, 1191670, 1192073, 1192475]","[131, 82, 177, 217, 232, 229, 47, 27, 14, 23, 72, 116, 103, 43, 127, 83, 94, 53, 74, 53]","[1184499, 1184913, 1185374, 1185730, 1186187, 1186566, 1186957, 1187381, 1187768, 1188202, 1188618, 1189047, 1189459, 1189914, 1190340, 1190758, 1191175, 1191559, 1191990, 1192390]","[1182923, 1183323, 1183723, 1184123, 1184523, 1184923, 1185324, 1185723, 1186143, 1186585, 1186972, 1187394, 1187783, 1188217, 1188632, 1189062, 1189474, 1189927, 1190355, 1190772, 1191190, 1191573, 1192004, 1192404]",89,EM,U,R,ITMSR,1.1,
3,400,trial,0,56,56,56,trial,"['S', 'S', 'S', 'S', 'C', 'C', 'C', 'C', 'C', 'C', 'C', 'C', 'C', 'C', 'C', 'C', 'C', 'C', 'C', 'C']","[1199698, 1200065, 1200477, 1200829, 1201292, 1201688, 1202102, 1202459, 1202889, 1203307, 1203721, 1204154, 1204529, 1204965, 1205390, 1205781, 1206160, 1206573, 1206973, 1207369]","[1199804, 1200177, 1200596, 1200979, 1201402, 1201803, 1202223, 1202566, 1202988, 1203402, 1203795, 1204235, 1204612, 1205048, 1205482, 1205854, 1206241, 1206645, 1207043, 1207444]","[51, 67, 55, 42, 240, 247, 252, 245, 24, 19, 115, 75, 102, 66, 61, 47, 53, 109, 85, 82]","[1199704, 1200071, 1200483, 1200921, 1201299, 1201747, 1202155, 1202514, 1202894, 1203313, 1203726, 1204159, 1204534, 1204969, 1205394, 1205786, 1206165, 1206576, 1206976, 1207374]","[1198109, 1198509, 1198909, 1199309, 1199709, 1200109, 1200509, 1200909, 1201312, 1201709, 1202122, 1202479, 1202909, 1203328, 1203741, 1204174, 1204549, 1204985, 1205410, 1205801, 1206180, 1206593, 1206993, 1207389]",89,EM,U,R,ITMSR,1.1,
2,600,trial,0,57,57,57,trial,"['S', 'S', 'S', 'S', 'C', 'C', 'C', 'C', 'C', 'C', 'C', 'C', 'C', 'C', 'C', 'C', 'C', 'C', 'C', 'C']","[1215327, 1215941, 1216541, 1217149, 1217786, 1218391, 1218945, 1219552, 1220170, 1220733, 1221352, 1221906, 1222491, 1223099, 1223690, 1224305, 1224930, 1225574, 1226166, 1226806]","[1215447, 1216047, 1216643, 1217247, 1217880, 1218513, 1219061, 1219660, 1220234, 1220851, 1221448, 1222022, 1222593, 1223186, 1223810, 1224409, 1225032, 1225671, 1226248, 1226892]","[40, 5, 71, 47, 41, 253, 53, 249, 0, 51, 246, 218, 233, 219, 19, 10, 16, 14, 37, 6]","[1215390, 1215946, 1216546, 1217155, 1217790, 1218396, 1218951, 1219557, 1220175, 1220740, 1221357, 1221912, 1222497, 1223106, 1223695, 1224313, 1224937, 1225580, 1226173, 1226813]","[1212999, 1213599, 1214199, 1214799, 1215399, 1216000, 1216600, 1217200, 1217806, 1218411, 1218965, 1219572, 1220190, 1220753, 1221372, 1221926, 1222511, 1223119, 1223710, 1224325, 1224950, 1225594, 1226186, 1226826]",89,EM,U,R,ITMSR,1.1,
3,600,trial,0,58,58,58,trial,"['S', 'S', 'S', 'S', 'C', 'C', 'C', 'C', 'C', 'C', 'C', 'C', 'C', 'C', 'C', 'C', 'C', 'C', 'C', 'C']","[1234581, 1235154, 1235750, 1236342, 1236908, 1237494, 1238084, 1238701, 1239283, 1239844, 1240435, 1241025, 1241647, 1242256, 1242836, 1243429, 1244000, 1244569, 1245171, 1245792]","[1234689, 1235273, 1235883, 1236458, 1237026, 1237605, 1238159, 1238789, 1239379, 1239950, 1240535, 1241116, 1241714, 1242349, 1242938, 1243521, 1244115, 1244701, 1245287, 1245914]","[247, 252, 213, 232, 242, 225, 63, 191, 112, 24, 231, 11, 149, 17, 1, 58, 186, 86, 64, 49]","[1234588, 1235201, 1235819, 1236348, 1236914, 1237500, 1238087, 1238707, 1239291, 1239851, 1240442, 1241032, 1241654, 1242262, 1242841, 1243435, 1244005, 1244634, 1245176, 1245797]","[1232176, 1232776, 1233376, 1233976, 1234576, 1235176, 1235776, 1236376, 1236928, 1237514, 1238104, 1238721, 1239303, 1239864, 1240455, 1241046, 1241667, 1242276, 1242856, 1243449, 1244020, 1244589, 1245191, 1245812]",89,EM,U,R,ITMSR,1.1,
3,400,trial,0,59,59,59,trial,"['S', 'S', 'S', 'S', 'C', 'C', 'C', 'C', 'C', 'C', 'C', 'C', 'C', 'C', 'C', 'C', 'C', 'C', 'C', 'C']","[1253167, 1253565, 1253949, 1254376, 1254777, 1255179, 1255569, 1255986, 1256359, 1256764, 1257157, 1257550, 1257945, 1258362, 1258770, 1259163, 1259589, 1259962, 1260388, 1260808]","[1253263, 1253670, 1254036, 1254474, 1254880, 1255268, 1255662, 1256079, 1256454, 1256846, 1257243, 1257636, 1258056, 1258429, 1258849, 1259242, 1259668, 1260064, 1260467, 1260906]","[91, 125, 114, 97, 95, 80, 32, 196, 27, 245, 182, 52, 74, 103, 175, 243, 20, 59, 191, 179]","[1253173, 1253570, 1253953, 1254378, 1254782, 1255182, 1255573, 1255991, 1256364, 1256769, 1257162, 1257555, 1258006, 1258366, 1258775, 1259169, 1259593, 1259968, 1260393, 1260813]","[1251576, 1251976, 1252376, 1252776, 1253176, 1253576, 1253976, 1254376, 1254797, 1255199, 1255589, 1256006, 1256379, 1256784, 1257177, 1257570, 1257965, 1258382, 1258790, 1259183, 1259609, 1259982, 1260408, 1260828]",89,EM,U,R,ITMSR,1.1,
1,600,trial,0,60,60,60,trial,"['S', 'S', 'S', 'S', 'C', 'C', 'C', 'C', 'C', 'C', 'C', 'C', 'C', 'C', 'C', 'C', 'C', 'C', 'C', 'C']","[1268969, 1269527, 1270135, 1270747, 1271326, 1271908, 1272531, 1273088, 1273641, 1274250, 1274809, 1275423, 1275980, 1276598, 1277191, 1277876, 1278471, 1279049, 1279594, 1280158]","[1269039, 1269640, 1270230, 1270836, 1271420, 1272018, 1272610, 1273199, 1273750, 1274352, 1274911, 1275533, 1276085, 1276707, 1277309, 1277978, 1278579, 1279174, 1279718, 1280260]","[122, 135, 204, 195, 238, 32, 237, 204, 58, 202, 221, 246, 247, 221, 240, 165, 243, 220, 233, 4]","[1268974, 1269534, 1270141, 1270754, 1271332, 1271914, 1272538, 1273095, 1273697, 1274255, 1274815, 1275429, 1275986, 1276604, 1277198, 1277883, 1278476, 1279113, 1279650, 1280164]","[1266574, 1267174, 1267774, 1268374, 1268974, 1269574, 1270174, 1270774, 1271346, 1271928, 1272551, 1273108, 1273661, 1274270, 1274829, 1275443, 1276000, 1276618, 1277211, 1277896, 1278491, 1279069, 1279614, 1280178]",89,EM,U,R,ITMSR,1.1,
2,400,trial,0,61,61,61,trial,"['S', 'S', 'S', 'S', 'C', 'C', 'C', 'C', 'C', 'C', 'C', 'C', 'C', 'C', 'C', 'C', 'C', 'C', 'C', 'C']","[1287078, 1287520, 1287933, 1288317, 1288734, 1289137, 1289567, 1289984, 1290379, 1290783, 1291205, 1291614, 1292013, 1292426, 1292814, 1293218, 1293637, 1294064, 1294471, 1294867]","[1287176, 1287597, 1288010, 1288409, 1288814, 1289224, 1289637, 1290036, 1290443, 1290883, 1291307, 1291702, 1292107, 1292513, 1292913, 1293334, 1293735, 1294158, 1294562, 1294966]","[244, 24, 167, 9, 240, 239, 242, 235, 11, 5, 12, 11, 23, 250, 15, 206, 251, 251, 9, 248]","[1287086, 1287525, 1287940, 1288323, 1288741, 1289144, 1289573, 1289989, 1290385, 1290790, 1291211, 1291620, 1292019, 1292431, 1292820, 1293224, 1293644, 1294071, 1294477, 1294872]","[1285549, 1285949, 1286349, 1286749, 1287149, 1287549, 1287949, 1288349, 1288754, 1289157, 1289587, 1290004, 1290399, 1290803, 1291225, 1291634, 1292034, 1292446, 1292834, 1293238, 1293657, 1294084, 1294491, 1294887]",89,EM,U,R,ITMSR,1.1,
1,400,trial,0,62,62,62,trial,"['S', 'S', 'S', 'S', 'C', 'C', 'C', 'C', 'C', 'C', 'C', 'C', 'C', 'C', 'C', 'C', 'C', 'C', 'C', 'C', 'C']","[1301875, 1302280, 1302674, 1303061, 1303470, 1303875, 1304267, 1304675, 1305042, 1305460, 1305799, 1305899, 1306207, 1306590, 1306996, 1307408, 1307827, 1308228, 1308608, 1308986, 1309393]","[1301942, 1302361, 1302768, 1303142, 1303540, 1303931, 1304361, 1304750, 1305123, 1305538, 1305819, 1305928, 1306287, 1306694, 1307080, 1307487, 1307948, 1308302, 1308679, 1309077, 1309468]","[26, 2, 3, 252, 4, 236, 223, 16, 191, 208, 110, 114, 214, 4, 238, 250, 173, 21, 254, 233, 194]","[1301881, 1302287, 1302679, 1303066, 1303476, 1303880, 1304272, 1304681, 1305048, 1305466, 1305805, 1305899, 1306213, 1306595, 1307001, 1307414, 1307916, 1308233, 1308612, 1308992, 1309400]","[1300286, 1300686, 1301086, 1301486, 1301886, 1302286, 1302686, 1303086, 1303490, 1303896, 1304287, 1304695, 1305062, 1305480, 1305819, 1306227, 1306610, 1307016, 1307428, 1307847, 1308248, 1308628, 1309006, 1309413]",89,EM,U,R,ITMSR,1.1,
0,400,trial,0,63,63,63,trial,"['S', 'S', 'S', 'S', 'C', 'C', 'C', 'C', 'C', 'C', 'C', 'C', 'C', 'C', 'C', 'C', 'C', 'C', 'C', 'C']","[1316348, 1316749, 1317166, 1317549, 1317946, 1318355, 1318749, 1319150, 1319548, 1319919, 1320300, 1320726, 1321126, 1321525, 1321912, 1322330, 1322727, 1323124, 1323525, 1323860]","[1316433, 1316838, 1317260, 1317641, 1318044, 1318441, 1318840, 1319248, 1319641, 1320015, 1320379, 1320812, 1321234, 1321618, 1322019, 1322404, 1322814, 1323228, 1323625, 1323976]","[247, 251, 239, 212, 199, 43, 12, 53, 247, 221, 239, 199, 179, 226, 219, 224, 202, 171, 236, 222]","[1316355, 1316754, 1317172, 1317555, 1317952, 1318361, 1318754, 1319155, 1319554, 1319924, 1320305, 1320732, 1321182, 1321530, 1321917, 1322335, 1322733, 1323165, 1323530, 1323867]","[1314796, 1315196, 1315596, 1315996, 1316397, 1316797, 1317197, 1317597, 1317966, 1318375, 1318769, 1319170, 1319568, 1319939, 1320321, 1320747, 1321146, 1321545, 1321932, 1322350, 1322747, 1323144, 1323545, 1323880]",89,EM,U,R,ITMSR,1.1,
4,400,trial,0,64,64,64,trial,"['S', 'S', 'S', 'S', 'C', 'C', 'C', 'C', 'C', 'C', 'C', 'C', 'C', 'C', 'C', 'C', 'C', 'C', 'C', 'C']","[1330825, 1331235, 1331645, 1332032, 1332408, 1332822, 1333250, 1333645, 1334020, 1334428, 1334832, 1335259, 1335671, 1336083, 1336482, 1336846, 1337244, 1337637, 1338030, 1338423]","[1330936, 1331317, 1331724, 1332121, 1332512, 1332920, 1333306, 1333710, 1334093, 1334526, 1334921, 1335350, 1335756, 1336164, 1336549, 1336945, 1337331, 1337721, 1338135, 1338525]","[15, 197, 254, 37, 18, 247, 124, 16, 22, 191, 234, 204, 60, 50, 3, 11, 24, 13, 38, 36]","[1330832, 1331243, 1331652, 1332040, 1332414, 1332828, 1333257, 1333651, 1334026, 1334434, 1334839, 1335265, 1335677, 1336089, 1336486, 1336850, 1337249, 1337643, 1338035, 1338428]","[1329274, 1329674, 1330074, 1330475, 1330874, 1331274, 1331674, 1332074, 1332428, 1332842, 1333270, 1333665, 1334040, 1334448, 1334852, 1335279, 1335691, 1336103, 1336502, 1336866, 1337264, 1337657, 1338050, 1338443]",89,EM,U,R,ITMSR,1.1,
1,400,trial,0,65,65,65,trial,"['S', 'S', 'S', 'S', 'C', 'C', 'C', 'C', 'C', 'C', 'C', 'C', 'C', 'C', 'C', 'C', 'C', 'C', 'C', 'C']","[1345358, 1345753, 1346140, 1346547, 1346925, 1347342, 1347726, 1348114, 1348490, 1348872, 1349255, 1349627, 1350033, 1350391, 1350799, 1351174, 1351562, 1352005, 1352422, 1352798]","[1345459, 1345843, 1346253, 1346659, 1347012, 1347421, 1347793, 1348189, 1348558, 1348963, 1349341, 1349718, 1350106, 1350461, 1350877, 1351271, 1351654, 1352099, 1352492, 1352894]","[225, 196, 178, 229, 53, 38, 34, 72, 4, 181, 216, 151, 223, 16, 240, 212, 210, 176, 200, 245]","[1345364, 1345759, 1346200, 1346552, 1346930, 1347346, 1347730, 1348119, 1348494, 1348878, 1349261, 1349662, 1350037, 1350395, 1350803, 1351179, 1351568, 1352010, 1352427, 1352803]","[1343768, 1344167, 1344567, 1344967, 1345368, 1345768, 1346168, 1346568, 1346946, 1347362, 1347746, 1348134, 1348510, 1348892, 1349275, 1349647, 1350053, 1350411, 1350819, 1351194, 1351582, 1352025, 1352442, 1352818]",89,EM,U,R,ITMSR,1.1,
4,400,trial,0,66,66,66,trial,"['S', 'S', 'S', 'S', 'S', 'S', 'S', 'C', 'C', 'C', 'C', 'C', 'C', 'C', 'C', 'C', 'C', 'C', 'C', 'C', 'C', 'C', 'C']","[1358655, 1359145, 1359594, 1359984, 1360388, 1360778, 1361167, 1361561, 1361952, 1362348, 1362760, 1363137, 1363522, 1363917, 1364322, 1364722, 1365128, 1365492, 1365891, 1366281, 1366689, 1367067, 1367464]","[1358746, 1359215, 1359666, 1360063, 1360481, 1360865, 1361283, 1361690, 1362060, 1362435, 1362850, 1363235, 1363624, 1364013, 1364417, 1364810, 1365206, 1365601, 1365978, 1366383, 1366781, 1367153, 1367552]","[78, 28, 8, 254, 17, 62, 34, 55, 98, 56, 233, 8, 255, 44, 23, 60, 170, 215, 26, 112, 20, 36, 56]","[1358659, 1359151, 1359599, 1359989, 1360392, 1360782, 1361171, 1361565, 1361956, 1362352, 1362764, 1363142, 1363527, 1363921, 1364327, 1364727, 1365134, 1365498, 1365896, 1366285, 1366693, 1367070, 1367468]","[1358391, 1358791, 1359192, 1359592, 1359992, 1360392, 1360792, 1361192, 1361581, 1361972, 1362368, 1362780, 1363158, 1363543, 1363937, 1364342, 1364742, 1365148, 1365512, 1365911, 1366301, 1366709, 1367087, 1367484]",89,EM,U,R,ITMSR,1.1,
5,400,trial,0,67,67,67,trial,"['S', 'S', 'S', 'S', 'C', 'C', 'C', 'C', 'C', 'C', 'C', 'C', 'C', 'C', 'C', 'C', 'C', 'C', 'C', 'C']","[1374838, 1375229, 1375621, 1376017, 1376427, 1376847, 1377214, 1377629, 1378082, 1378481, 1378876, 1379257, 1379658, 1380057, 1380457, 1380847, 1381266, 1381657, 1382066, 1382409]","[1374930, 1375324, 1375718, 1376120, 1376529, 1376930, 1377314, 1377724, 1378154, 1378574, 1378987, 1379374, 1379772, 1380163, 1380577, 1380981, 1381382, 1381765, 1382180, 1382535]","[3, 87, 21, 49, 85, 121, 50, 67, 115, 36, 38, 18, 94, 78, 54, 99, 119, 62, 82, 97]","[1374845, 1375236, 1375626, 1376022, 1376431, 1376851, 1377218, 1377633, 1378085, 1378485, 1378880, 1379262, 1379662, 1380061, 1380461, 1380851, 1381269, 1381662, 1382070, 1382413]","[1373265, 1373664, 1374064, 1374465, 1374864, 1375264, 1375664, 1376064, 1376447, 1376867, 1377234, 1377649, 1378102, 1378501, 1378896, 1379277, 1379678, 1380077, 1380477, 1380867, 1381286, 1381677, 1382086, 1382429]",89,EM,U,R,ITMSR,1.1,
4,600,trial,0,68,68,68,trial,"['S', 'S', 'S', 'S', 'S', 'S', 'S', 'C', 'C', 'C', 'C', 'C', 'C', 'C', 'C', 'C', 'C', 'C', 'C', 'C', 'C', 'C', 'C']","[1388490, 1389189, 1389796, 1390427, 1390988, 1391579, 1392203, 1392752, 1393337, 1393887, 1394464, 1395012, 1396754, 1397308, 1397859, 1398450, 1399023, 1399570, 1400133, 1400637, 1401158, 1401760, 1402309]","[1388575, 1389289, 1389898, 1390505, 1391096, 1391680, 1392280, 1392854, 1393428, 1394006, 1394562, 1395032, 1396830, 1397394, 1397952, 1398539, 1399127, 1399707, 1400248, 1400784, 1401262, 1401862, 1402407]","[207, 233, 185, 3, 203, 212, 159, 137, 247, 72, 146, 228, 177, 188, 207, 55, 195, 139, 56, 217, 56, 6, 34]","[1388494, 1389193, 1389800, 1390432, 1390992, 1391583, 1392207, 1392756, 1393342, 1393891, 1394516, 1395015, 1396760, 1397314, 1397863, 1398456, 1399067, 1399621, 1400192, 1400739, 1401163, 1401765, 1402314]","[1388056, 1388656, 1389256, 1389856, 1390456, 1391056, 1391656, 1392257, 1392772, 1393357, 1393907, 1394484, 1395032, 1396774, 1397328, 1397879, 1398470, 1399043, 1399590, 1400153, 1400657, 1401178, 1401780, 1402329]",89,EM,U,R,ITMSR,1.1,
5,600,trial,0,69,69,69,trial,"['S', 'S', 'S', 'S', 'C', 'C', 'C', 'C', 'C', 'C', 'C', 'C', 'C', 'C', 'C', 'C', 'C', 'C', 'C', 'C']","[1410468, 1411023, 1411623, 1412255, 1412804, 1413381, 1413929, 1414517, 1415081, 1415612, 1416203, 1416742, 1417298, 1417851, 1418404, 1418974, 1419504, 1420038, 1420611, 1421129]","[1410533, 1411093, 1411703, 1412319, 1412883, 1413438, 1414003, 1414591, 1415151, 1415685, 1416284, 1416826, 1417383, 1417951, 1418486, 1419060, 1419584, 1420123, 1420686, 1421204]","[13, 239, 224, 137, 174, 117, 113, 179, 148, 172, 185, 201, 244, 191, 211, 211, 141, 206, 124, 49]","[1410493, 1411059, 1411664, 1412286, 1412836, 1413405, 1413967, 1414553, 1415111, 1415617, 1416238, 1416781, 1417333, 1417895, 1418443, 1419010, 1419533, 1420080, 1420617, 1421158]","[1408093, 1408693, 1409293, 1409893, 1410493, 1411093, 1411693, 1412293, 1412824, 1413401, 1413949, 1414537, 1415101, 1415632, 1416223, 1416762, 1417318, 1417871, 1418424, 1418994, 1419524, 1420058, 1420632, 1421149]",89,EM,U,R,ITMSR,1.1,
0,600,trial,0,70,70,70,trial,"['S', 'S', 'S', 'S', 'C', 'C', 'C', 'C', 'C', 'C', 'C', 'C', 'C', 'C', 'C', 'C', 'C', 'C', 'C', 'C']","[1428843, 1429398, 1429984, 1430565, 1431145, 1431692, 1432263, 1432782, 1433316, 1433885, 1434430, 1434988, 1435552, 1436062, 1436623, 1437154, 1437662, 1438220, 1438735, 1439263]","[1428924, 1429478, 1430076, 1430652, 1431247, 1431781, 1432336, 1432865, 1433395, 1433971, 1434519, 1435053, 1435637, 1436155, 1436725, 1437243, 1437766, 1438301, 1438822, 1439350]","[187, 169, 232, 133, 132, 174, 139, 192, 169, 183, 227, 110, 191, 214, 196, 211, 252, 222, 3, 229]","[1428873, 1429431, 1430025, 1430606, 1431211, 1431734, 1432297, 1432820, 1433351, 1433919, 1434471, 1435015, 1435590, 1436102, 1436666, 1437188, 1437712, 1438249, 1438775, 1439300]","[1426467, 1427066, 1427666, 1428267, 1428866, 1429466, 1430066, 1430666, 1431165, 1431712, 1432283, 1432802, 1433336, 1433905, 1434450, 1435009, 1435572, 1436082, 1436643, 1437174, 1437682, 1438240, 1438755, 1439283]",89,EM,U,R,ITMSR,1.1,
4,600,trial,0,71,71,71,trial,"['S', 'S', 'S', 'S', 'C', 'C', 'C', 'C', 'C', 'C', 'C', 'C', 'C', 'C', 'C', 'C', 'C', 'C', 'C', 'C']","[1447310, 1447867, 1448460, 1449048, 1449630, 1450194, 1450747, 1451310, 1451897, 1452435, 1452953, 1453512, 1454020, 1454565, 1455137, 1455628, 1456142, 1456667, 1457245, 1457746]","[1447396, 1447959, 1448562, 1449143, 1449712, 1450286, 1450842, 1451394, 1451976, 1452514, 1453067, 1453604, 1454092, 1454638, 1455217, 1455711, 1456244, 1456745, 1457314, 1457809]","[201, 203, 173, 167, 90, 151, 147, 164, 138, 158, 212, 183, 144, 128, 67, 159, 150, 102, 164, 97]","[1447339, 1447911, 1448511, 1449099, 1449669, 1450241, 1450796, 1451350, 1451940, 1452473, 1453010, 1453553, 1454053, 1454590, 1455178, 1455667, 1456169, 1456708, 1457272, 1457773]","[1444914, 1445514, 1446114, 1446714, 1447314, 1447914, 1448514, 1449114, 1449650, 1450214, 1450767, 1451330, 1451917, 1452455, 1452973, 1453532, 1454040, 1454585, 1455157, 1455648, 1456162, 1456687, 1457265, 1457766]",89,EM,U,R,ITMSR,1.1,
0,600,trial,0,72,72,72,trial,"['S', 'S', 'S', 'S', 'C', 'C', 'C', 'C', 'C', 'C', 'C', 'C', 'C', 'C', 'C', 'C', 'C', 'C', 'C', 'C']","[1465969, 1466531, 1467087, 1467692, 1468301, 1468848, 1469403, 1469989, 1470518, 1471106, 1471660, 1472190, 1472710, 1473275, 1473794, 1474348, 1474912, 1475425, 1475976, 1476485]","[1466059, 1466604, 1467174, 1467747, 1468325, 1468939, 1469505, 1470089, 1470616, 1471194, 1471769, 1472269, 1472803, 1473352, 1473866, 1474439, 1475000, 1475509, 1476062, 1476576]","[130, 100, 159, 59, 94, 203, 217, 208, 154, 109, 204, 111, 120, 143, 81, 163, 169, 157, 181, 192]","[1466001, 1466562, 1467129, 1467696, 1468315, 1468890, 1469454, 1470034, 1470563, 1471143, 1471719, 1472228, 1472748, 1473309, 1473823, 1474387, 1474951, 1475464, 1476012, 1476532]","[1463546, 1464146, 1464747, 1465346, 1465946, 1466546, 1467146, 1467746, 1468321, 1468868, 1469423, 1470009, 1470538, 1471126, 1471680, 1472210, 1472730, 1473295, 1473814, 1474368, 1474932, 1475445, 1475996, 1476505]",89,EM,U,R,ITMSR,1.1,
2,600,trial,0,73,73,73,trial,"['S', 'S', 'S', 'S', 'C', 'C', 'C', 'C', 'C', 'C', 'C', 'C', 'C', 'C', 'C', 'C', 'C', 'C', 'C', 'C']","[1484404, 1484987, 1485576, 1486154, 1486750, 1487327, 1487864, 1488470, 1489013, 1489584, 1490156, 1490708, 1491272, 1491821, 1492434, 1493001, 1493585, 1494138, 1494677, 1495214]","[1484495, 1485087, 1485694, 1486267, 1486867, 1487435, 1487962, 1488566, 1489128, 1489703, 1490280, 1490855, 1491385, 1491938, 1492554, 1493103, 1493666, 1494225, 1494768, 1495316]","[235, 162, 213, 232, 221, 196, 117, 209, 7, 249, 222, 241, 193, 215, 195, 48, 103, 243, 134, 174]","[1484454, 1485044, 1485647, 1486211, 1486807, 1487380, 1487911, 1488521, 1489071, 1489645, 1490214, 1490779, 1491324, 1491878, 1492504, 1493059, 1493626, 1494170, 1494713, 1495271]","[1482052, 1482651, 1483251, 1483851, 1484451, 1485051, 1485651, 1486252, 1486770, 1487347, 1487884, 1488490, 1489033, 1489604, 1490177, 1490728, 1491292, 1491842, 1492454, 1493021, 1493605, 1494158, 1494697, 1495234]",89,EM,U,R,ITMSR,1.1,
0,400,trial,0,74,74,74,trial,"['S', 'S', 'S', 'S', 'C', 'C', 'C', 'C', 'C', 'C', 'C', 'C', 'C', 'C', 'C', 'C', 'C', 'C', 'C', 'C']","[1502504, 1502887, 1503323, 1503725, 1504086, 1504480, 1504900, 1505282, 1505702, 1506081, 1506527, 1506909, 1507319, 1507721, 1508106, 1508485, 1508905, 1509285, 1509706, 1510096]","[1502601, 1502977, 1503418, 1503812, 1504184, 1504575, 1504986, 1505380, 1505789, 1506161, 1506605, 1507003, 1507399, 1507812, 1508205, 1508576, 1508981, 1509369, 1509789, 1510170]","[200, 149, 202, 142, 163, 171, 251, 136, 38, 122, 205, 137, 96, 193, 169, 189, 243, 175, 168, 125]","[1502557, 1502934, 1503383, 1503763, 1504138, 1504521, 1504945, 1505328, 1505732, 1506109, 1506577, 1506949, 1507349, 1507761, 1508152, 1508525, 1508938, 1509315, 1509746, 1510128]","[1500947, 1501347, 1501747, 1502147, 1502547, 1502947, 1503347, 1503747, 1504106, 1504500, 1504920, 1505302, 1505722, 1506101, 1506547, 1506929, 1507339, 1507741, 1508126, 1508505, 1508925, 1509305, 1509726, 1510116]",89,EM,U,R,ITMSR,1.1,
1,600,trial,0,75,75,75,trial,"['S', 'S', 'S', 'S', 'C', 'C', 'C', 'C', 'C', 'C', 'C', 'C', 'C', 'C', 'C', 'C', 'C', 'C', 'C', 'C']","[1517859, 1518472, 1519045, 1519638, 1520202, 1520733, 1521283, 1521830, 1522292, 1522895, 1523421, 1523954, 1524456, 1525024, 1525581, 1526117, 1526680, 1527222, 1527720, 1528265]","[1517936, 1518564, 1519158, 1519755, 1520292, 1520859, 1521374, 1521941, 1522424, 1522992, 1523506, 1524044, 1524538, 1525123, 1525700, 1526272, 1526789, 1527331, 1527819, 1528357]","[141, 112, 138, 122, 120, 166, 231, 193, 206, 153, 109, 147, 237, 176, 191, 137, 149, 184, 137, 91]","[1517865, 1518477, 1519102, 1519702, 1520208, 1520808, 1521288, 1521836, 1522297, 1522951, 1523470, 1523997, 1524461, 1525030, 1525644, 1526233, 1526738, 1527280, 1527776, 1528270]","[1515558, 1516158, 1516759, 1517358, 1517958, 1518558, 1519158, 1519758, 1520222, 1520753, 1521303, 1521850, 1522312, 1522915, 1523441, 1523974, 1524476, 1525044, 1525601, 1526137, 1526701, 1527242, 1527740, 1528285]",89,EM,U,R,ITMSR,1.1,
3,600,trial,0,76,76,76,trial,"['S', 'S', 'S', 'S', 'C', 'C', 'C', 'C', 'C', 'C', 'C', 'C', 'C', 'C', 'C', 'C', 'C', 'C', 'C', 'C']","[1536313, 1536933, 1537542, 1538117, 1538704, 1539324, 1539876, 1540448, 1541055, 1541657, 1542202, 1542808, 1543344, 1543937, 1544531, 1545072, 1545677, 1546261, 1546846, 1547439]","[1536417, 1537024, 1537629, 1538196, 1538799, 1539426, 1539957, 1540509, 1541143, 1541745, 1542296, 1542910, 1543428, 1544025, 1544613, 1545166, 1545782, 1546349, 1546926, 1547535]","[164, 214, 233, 186, 94, 192, 174, 221, 156, 78, 89, 159, 151, 88, 247, 123, 241, 58, 5, 170]","[1536318, 1536937, 1537546, 1538121, 1538755, 1539330, 1539881, 1540454, 1541060, 1541663, 1542207, 1542813, 1543350, 1543942, 1544537, 1545077, 1545744, 1546267, 1546852, 1547445]","[1534011, 1534611, 1535211, 1535811, 1536411, 1537011, 1537611, 1538211, 1538724, 1539344, 1539896, 1540468, 1541075, 1541677, 1542222, 1542829, 1543364, 1543957, 1544551, 1545092, 1545697, 1546281, 1546866, 1547459]",89,EM,U,R,ITMSR,1.1,
5,400,trial,0,77,77,77,trial,"['S', 'S', 'S', 'S', 'C', 'C', 'C', 'C', 'C', 'C', 'C', 'C', 'C', 'C', 'C', 'C', 'C', 'C', 'C', 'C']","[1554727, 1555132, 1555516, 1555900, 1556279, 1556712, 1557090, 1557484, 1557857, 1558251, 1558639, 1559033, 1559433, 1559855, 1560229, 1560603, 1560981, 1561399, 1561804, 1562198]","[1554798, 1555209, 1555599, 1555978, 1556361, 1556792, 1557168, 1557556, 1557954, 1558333, 1558723, 1559115, 1559507, 1559933, 1560320, 1560683, 1561068, 1561482, 1561887, 1562289]","[152, 162, 177, 181, 150, 148, 135, 147, 128, 161, 129, 164, 193, 177, 189, 157, 126, 141, 104, 14]","[1554732, 1555137, 1555520, 1555904, 1556284, 1556717, 1557094, 1557488, 1557861, 1558256, 1558644, 1559037, 1559437, 1559859, 1560233, 1560608, 1560985, 1561404, 1561809, 1562202]","[1553123, 1553523, 1553923, 1554323, 1554723, 1555123, 1555523, 1555923, 1556299, 1556732, 1557110, 1557505, 1557877, 1558272, 1558659, 1559053, 1559453, 1559875, 1560249, 1560623, 1561001, 1561419, 1561824, 1562218]",89,EM,U,R,ITMSR,1.1,
5,600,trial,0,78,78,78,trial,"['S', 'S', 'S', 'S', 'C', 'C', 'C', 'C', 'C', 'C', 'C', 'C', 'C', 'C', 'C', 'C', 'C', 'C', 'C', 'C']","[1593196, 1593761, 1594324, 1594907, 1595500, 1596084, 1596650, 1597229, 1597812, 1598397, 1598965, 1599484, 1600037, 1600582, 1601148, 1601725, 1602308, 1602833, 1603330, 1603905]","[1593289, 1593844, 1594425, 1594995, 1595580, 1596167, 1596706, 1597294, 1597883, 1598468, 1599030, 1599548, 1600102, 1600661, 1601241, 1601796, 1602418, 1602936, 1603453, 1603999]","[7, 170, 84, 157, 164, 168, 142, 170, 174, 172, 137, 114, 130, 152, 156, 114, 157, 142, 118, 138]","[1593241, 1593768, 1594376, 1594912, 1595506, 1596088, 1596656, 1597235, 1597817, 1598403, 1598971, 1599490, 1600043, 1600587, 1601153, 1601730, 1602377, 1602889, 1603406, 1603955]","[1590823, 1591424, 1592024, 1592624, 1593224, 1593824, 1594424, 1595024, 1595521, 1596104, 1596670, 1597249, 1597832, 1598417, 1598985, 1599504, 1600057, 1600602, 1601168, 1601745, 1602328, 1602853, 1603350, 1603926]",89,EM,U,R,ITMSR,1.1,
5,400,trial,0,79,79,79,trial,"['S', 'S', 'S', 'S', 'C', 'C', 'C', 'C', 'C', 'C', 'C', 'C', 'C', 'C', 'C', 'C', 'C', 'C', 'C', 'C']","[1610933, 1611329, 1611761, 1612146, 1612516, 1612907, 1613277, 1613687, 1614063, 1614480, 1614874, 1615248, 1615653, 1616049, 1616416, 1616809, 1617197, 1617573, 1617993, 1618357]","[1611008, 1611404, 1611851, 1612210, 1612603, 1612982, 1613370, 1613762, 1614148, 1614563, 1614961, 1615352, 1615749, 1616140, 1616498, 1616889, 1617302, 1617659, 1618079, 1618459]","[228, 195, 78, 152, 140, 191, 114, 93, 153, 81, 128, 120, 142, 150, 149, 127, 93, 119, 82, 148]","[1610939, 1611335, 1611814, 1612151, 1612522, 1612912, 1613285, 1613694, 1614069, 1614489, 1614880, 1615300, 1615660, 1616055, 1616421, 1616817, 1617246, 1617579, 1618026, 1618363]","[1609354, 1609754, 1610155, 1610554, 1610954, 1611354, 1611754, 1612154, 1612536, 1612928, 1613297, 1613707, 1614083, 1614500, 1614894, 1615268, 1615673, 1616069, 1616436, 1616829, 1617217, 1617593, 1618013, 1618377]",89,EM,U,R,ITMSR,1.1,
3,600,trial,0,80,80,80,trial,"['S', 'S', 'S', 'S', 'C', 'C', 'C', 'C', 'C', 'C', 'C', 'C', 'C', 'C', 'C', 'C', 'C', 'C', 'C', 'C']","[1626120, 1626704, 1627318, 1627905, 1628483, 1629109, 1629664, 1630241, 1630843, 1631398, 1631974, 1632579, 1633156, 1633765, 1634343, 1634935, 1635525, 1636102, 1636705, 1637295]","[1626215, 1626787, 1627397, 1627990, 1628575, 1629185, 1629733, 1630327, 1630922, 1631476, 1632073, 1632674, 1633258, 1633849, 1634464, 1635043, 1635641, 1636213, 1636818, 1637397]","[101, 71, 84, 24, 1, 87, 41, 226, 157, 224, 214, 123, 233, 79, 162, 157, 159, 122, 147, 227]","[1626126, 1626711, 1627322, 1627911, 1628490, 1629113, 1629670, 1630275, 1630875, 1631404, 1632026, 1632626, 1633208, 1633802, 1634402, 1634991, 1635593, 1636160, 1636763, 1637331]","[1623784, 1624384, 1624984, 1625584, 1626184, 1626784, 1627384, 1627984, 1628504, 1629129, 1629684, 1630261, 1630863, 1631418, 1631994, 1632600, 1633176, 1633785, 1634363, 1634955, 1635545, 1636122, 1636725, 1637315]",89,EM,U,R,ITMSR,1.1,
4,600,trial,0,81,81,81,trial,"['S', 'S', 'S', 'S', 'C', 'C', 'C', 'C', 'C', 'C', 'C', 'C', 'C', 'C', 'C', 'C', 'C', 'C', 'C', 'C']","[1645424, 1645991, 1646560, 1647166, 1647753, 1648402, 1648971, 1649545, 1650128, 1650737, 1651328, 1651938, 1652550, 1653158, 1653747, 1654301, 1654870, 1655468, 1656005, 1656584]","[1645500, 1646078, 1646659, 1647264, 1647862, 1648472, 1649082, 1649679, 1650230, 1650820, 1651386, 1652031, 1652631, 1653239, 1653846, 1654404, 1654964, 1655552, 1656097, 1656683]","[4, 96, 36, 5, 142, 9, 34, 0, 4, 151, 66, 3, 144, 66, 19, 227, 232, 119, 99, 91]","[1645456, 1646025, 1646608, 1647201, 1647800, 1648407, 1649038, 1649616, 1650185, 1650770, 1651331, 1651979, 1652584, 1653191, 1653797, 1654356, 1654920, 1655500, 1656055, 1656637]","[1643004, 1643604, 1644205, 1644805, 1645405, 1646005, 1646605, 1647205, 1647773, 1648422, 1648991, 1649565, 1650148, 1650757, 1651348, 1651958, 1652570, 1653178, 1653767, 1654321, 1654890, 1655488, 1656025, 1656604]",89,EM,U,R,ITMSR,1.1,
1,400,trial,0,82,82,82,trial,"['S', 'S', 'S', 'S', 'C', 'C', 'C', 'C', 'C', 'C', 'C', 'C', 'C', 'C', 'C', 'C', 'C', 'C', 'C', 'C']","[1663605, 1664024, 1664396, 1664802, 1665210, 1665579, 1665990, 1666373, 1666777, 1667197, 1667579, 1667988, 1668363, 1668742, 1669108, 1669514, 1669909, 1670311, 1670721, 1671144]","[1663676, 1664088, 1664471, 1664868, 1665287, 1665649, 1666064, 1666464, 1666864, 1667266, 1667666, 1668062, 1668448, 1668844, 1669198, 1669598, 1670002, 1670406, 1670802, 1671225]","[123, 190, 100, 14, 14, 199, 76, 79, 51, 61, 69, 30, 43, 59, 41, 40, 59, 34, 29, 43]","[1663611, 1664029, 1664401, 1664809, 1665246, 1665585, 1665996, 1666379, 1666821, 1667204, 1667585, 1667993, 1668368, 1668798, 1669113, 1669519, 1669958, 1670362, 1670727, 1671150]","[1662029, 1662428, 1662828, 1663228, 1663628, 1664028, 1664429, 1664829, 1665230, 1665599, 1666010, 1666393, 1666797, 1667217, 1667599, 1668008, 1668383, 1668762, 1669128, 1669534, 1669929, 1670331, 1670742, 1671164]",89,EM,U,R,ITMSR,1.1,
0,600,trial,0,83,83,83,trial,"['S', 'S', 'S', 'S', 'C', 'C', 'C', 'C', 'C', 'C', 'C', 'C', 'C', 'C', 'C', 'C', 'C', 'C', 'C', 'C']","[1678936, 1679551, 1680118, 1680732, 1681270, 1681863, 1682381, 1682933, 1683482, 1684061, 1684582, 1685114, 1685619, 1686211, 1686723, 1687264, 1687749, 1688330, 1688850, 1689363]","[1679011, 1679626, 1680200, 1680791, 1681372, 1681947, 1682466, 1683041, 1683573, 1684166, 1684686, 1685208, 1685709, 1686288, 1686816, 1687340, 1687841, 1688406, 1688933, 1689454]","[59, 250, 223, 141, 22, 14, 41, 18, 47, 133, 99, 28, 76, 2, 114, 40, 41, 247, 215, 64]","[1678942, 1679558, 1680124, 1680736, 1681323, 1681903, 1682388, 1682995, 1683525, 1684114, 1684631, 1685166, 1685624, 1686239, 1686765, 1687269, 1687783, 1688336, 1688899, 1689393]","[1676567, 1677167, 1677767, 1678367, 1678967, 1679567, 1680167, 1680768, 1681290, 1681883, 1682401, 1682953, 1683502, 1684081, 1684602, 1685134, 1685639, 1686232, 1686744, 1687284, 1687769, 1688350, 1688870, 1689383]",89,EM,U,R,ITMSR,1.1,
3,400,trial,0,84,84,84,trial,"['S', 'S', 'S', 'S', 'C', 'C', 'C', 'C', 'C', 'C', 'C', 'C', 'C', 'C', 'C', 'C', 'C', 'C', 'C', 'C']","[1696495, 1696896, 1697264, 1697676, 1698101, 1698508, 1698918, 1699346, 1699726, 1700120, 1700512, 1700851, 1701279, 1701701, 1702072, 1702481, 1702849, 1703259, 1703662, 1704042]","[1696581, 1696968, 1697343, 1697745, 1698181, 1698570, 1698987, 1699411, 1699803, 1700193, 1700590, 1700942, 1701360, 1701773, 1702149, 1702562, 1702923, 1703326, 1703729, 1704125]","[135, 52, 7, 39, 23, 6, 39, 19, 56, 15, 21, 7, 24, 75, 66, 79, 52, 33, 56, 24]","[1696541, 1696902, 1697270, 1697681, 1698106, 1698514, 1698923, 1699354, 1699731, 1700126, 1700518, 1700892, 1701320, 1701707, 1702077, 1702486, 1702854, 1703264, 1703666, 1704047]","[1694939, 1695338, 1695738, 1696138, 1696538, 1696939, 1697338, 1697738, 1698121, 1698528, 1698938, 1699366, 1699746, 1700141, 1700532, 1700871, 1701299, 1701721, 1702092, 1702501, 1702870, 1703279, 1703682, 1704062]",89,EM,U,R,ITMSR,1.1,
4,400,trial,0,85,85,85,trial,"['S', 'S', 'S', 'S', 'C', 'C', 'C', 'C', 'C', 'C', 'C', 'C', 'C', 'C', 'C', 'C', 'C', 'C', 'C', 'C']","[1711175, 1711584, 1711997, 1712389, 1712787, 1713204, 1713593, 1713987, 1714386, 1714784, 1715181, 1715573, 1715969, 1716365, 1716731, 1717148, 1717537, 1717918, 1718345, 1718746]","[1711275, 1711679, 1712064, 1712467, 1712856, 1713295, 1713687, 1714069, 1714477, 1714875, 1715254, 1715620, 1716036, 1716434, 1716804, 1717250, 1717632, 1718009, 1718419, 1718819]","[99, 63, 56, 92, 201, 178, 232, 250, 21, 25, 6, 11, 23, 44, 9, 252, 78, 12, 225, 198]","[1711179, 1711588, 1712003, 1712392, 1712791, 1713207, 1713596, 1713990, 1714390, 1714787, 1715184, 1715576, 1715971, 1716368, 1716733, 1717150, 1717539, 1717920, 1718349, 1718749]","[1709619, 1710019, 1710419, 1710819, 1711219, 1711619, 1712019, 1712419, 1712807, 1713224, 1713613, 1714008, 1714406, 1714804, 1715202, 1715593, 1715989, 1716385, 1716751, 1717168, 1717557, 1717938, 1718365, 1718766]",89,EM,U,R,ITMSR,1.1,
2,400,trial,0,86,86,86,trial,"['S', 'S', 'S', 'S', 'C', 'C', 'C', 'C', 'C', 'C', 'C', 'C', 'C', 'C', 'C', 'C', 'C', 'C', 'C', 'C']","[1725606, 1726056, 1726454, 1726867, 1727263, 1727663, 1728081, 1728487, 1728870, 1729261, 1729672, 1730071, 1730471, 1730863, 1731288, 1731666, 1732060, 1732478, 1732913, 1733313]","[1725702, 1726120, 1726534, 1726945, 1727341, 1727733, 1728168, 1728552, 1728950, 1729331, 1729733, 1730140, 1730542, 1730931, 1731353, 1731723, 1732121, 1732558, 1732995, 1733402]","[244, 219, 4, 23, 220, 36, 118, 105, 156, 54, 253, 227, 77, 26, 23, 219, 254, 69, 198, 66]","[1725670, 1726061, 1726458, 1726870, 1727266, 1727667, 1728146, 1728491, 1728873, 1729265, 1729676, 1730104, 1730476, 1730867, 1731291, 1731670, 1732062, 1732482, 1732918, 1733316]","[1724085, 1724485, 1724886, 1725285, 1725685, 1726085, 1726485, 1726885, 1727283, 1727683, 1728101, 1728507, 1728890, 1729282, 1729692, 1730092, 1730491, 1730883, 1731308, 1731686, 1732080, 1732498, 1732933, 1733334]",89,EM,U,R,ITMSR,1.1,
3,600,trial,0,87,87,87,trial,"['S', 'S', 'S', 'S', 'C', 'C', 'C', 'C', 'C', 'C', 'C', 'C', 'C', 'C', 'C', 'C', 'C', 'C', 'C', 'C']","[1741060, 1741663, 1742300, 1742921, 1743458, 1744044, 1744654, 1745319, 1745890, 1746494, 1747109, 1747684, 1748251, 1748791, 1749380, 1749954, 1750557, 1751133, 1751698, 1752199]","[1741150, 1741761, 1742412, 1743045, 1743568, 1744206, 1744768, 1745397, 1746000, 1746578, 1747190, 1747771, 1748353, 1748887, 1749460, 1750063, 1750638, 1751213, 1751784, 1752340]","[74, 251, 248, 175, 229, 218, 249, 113, 167, 201, 129, 194, 124, 71, 92, 162, 159, 195, 120, 145]","[1741065, 1741668, 1742304, 1742990, 1743461, 1744048, 1744657, 1745324, 1745947, 1746530, 1747142, 1747688, 1748255, 1748843, 1749420, 1750012, 1750561, 1751136, 1751702, 1752255]","[1738742, 1739342, 1739942, 1740542, 1741143, 1741742, 1742342, 1742942, 1743478, 1744064, 1744674, 1745339, 1745910, 1746514, 1747129, 1747704, 1748271, 1748811, 1749400, 1749975, 1750577, 1751153, 1751718, 1752219]",89,EM,U,R,ITMSR,1.1,
4,400,trial,0,88,88,88,trial,"['S', 'S', 'S', 'S', 'C', 'C', 'C', 'C', 'C', 'C', 'C', 'C', 'C', 'C', 'C', 'C', 'C', 'C', 'C', 'C']","[1759293, 1759713, 1760129, 1760515, 1760926, 1761323, 1761734, 1762128, 1762536, 1762967, 1763361, 1763759, 1764148, 1764548, 1764958, 1765381, 1765760, 1766213, 1766618, 1767006]","[1759380, 1759782, 1760187, 1760576, 1760993, 1761390, 1761796, 1762213, 1762622, 1763049, 1763420, 1763845, 1764241, 1764657, 1765063, 1765476, 1765867, 1766287, 1766714, 1767111]","[61, 147, 91, 34, 204, 214, 217, 212, 243, 209, 248, 243, 16, 5, 16, 201, 5, 228, 8, 86]","[1759297, 1759718, 1760134, 1760519, 1760929, 1761326, 1761737, 1762131, 1762539, 1762971, 1763364, 1763763, 1764151, 1764551, 1764960, 1765385, 1765763, 1766217, 1766621, 1767009]","[1757756, 1758156, 1758556, 1758956, 1759356, 1759756, 1760156, 1760557, 1760946, 1761343, 1761754, 1762148, 1762556, 1762988, 1763381, 1763779, 1764168, 1764568, 1764978, 1765401, 1765780, 1766233, 1766638, 1767026]",89,EM,U,R,ITMSR,1.1,
5,600,trial,0,89,89,89,trial,"['S', 'S', 'S', 'S', 'C', 'C', 'C', 'C', 'C', 'C', 'C', 'C', 'C', 'C', 'C', 'C', 'C', 'C', 'C', 'C']","[1774792, 1775362, 1775993, 1776600, 1777159, 1777763, 1778357, 1778972, 1779523, 1780104, 1780685, 1781209, 1781755, 1782423, 1782994, 1783582, 1784168, 1784721, 1785298, 1785778]","[1774878, 1775448, 1776074, 1776676, 1777268, 1777857, 1778455, 1779070, 1779622, 1780186, 1780793, 1781325, 1781865, 1782505, 1783081, 1783686, 1784256, 1784839, 1785373, 1785902]","[138, 185, 72, 48, 67, 105, 238, 53, 60, 216, 12, 92, 190, 85, 126, 190, 122, 219, 22, 186]","[1774795, 1775365, 1775996, 1776603, 1777161, 1777766, 1778361, 1778975, 1779526, 1780107, 1780731, 1781212, 1781805, 1782454, 1783041, 1783642, 1784219, 1784791, 1785344, 1785842]","[1772404, 1773003, 1773603, 1774203, 1774803, 1775404, 1776003, 1776603, 1777179, 1777783, 1778377, 1778992, 1779544, 1780124, 1780705, 1781229, 1781775, 1782444, 1783014, 1783602, 1784188, 1784741, 1785318, 1785798]",89,EM,U,R,ITMSR,1.1,
1,600,trial,0,90,90,90,trial,"['S', 'S', 'S', 'S', 'C', 'C', 'C', 'C', 'C', 'C', 'C', 'C', 'C', 'C', 'C', 'C', 'C', 'C', 'C', 'C']","[1793780, 1794406, 1795006, 1795608, 1796175, 1797430, 1797971, 1798511, 1799122, 1799727, 1800314, 1800891, 1801470, 1802031, 1802578, 1803158, 1803779, 1804359, 1804878, 1805470]","[1793868, 1794484, 1795092, 1795705, 1796195, 1797505, 1798047, 1798593, 1799197, 1799845, 1800408, 1801011, 1801566, 1802124, 1802673, 1803262, 1803891, 1804440, 1804994, 1805585]","[111, 184, 179, 36, 91, 34, 142, 199, 26, 111, 70, 50, 241, 204, 31, 21, 6, 28, 239, 175]","[1793784, 1794410, 1795009, 1795611, 1796177, 1797434, 1797975, 1798516, 1799128, 1799732, 1800321, 1800950, 1801478, 1802037, 1802585, 1803163, 1803852, 1804364, 1804941, 1805474]","[1791442, 1792043, 1792642, 1793242, 1793842, 1794442, 1795042, 1795642, 1796195, 1797450, 1797991, 1798531, 1799142, 1799747, 1800334, 1800911, 1801490, 1802051, 1802598, 1803179, 1803799, 1804379, 1804898, 1805490]",89,EM,U,R,ITMSR,1.1,
0,600,trial,0,91,91,91,trial,"['S', 'S', 'S', 'S', 'C', 'C', 'C', 'C', 'C', 'C', 'C', 'C', 'C', 'C', 'C', 'C', 'C', 'C', 'C', 'C']","[1813223, 1813791, 1814385, 1815045, 1815587, 1816168, 1816728, 1817290, 1817862, 1818428, 1819011, 1819549, 1820125, 1820644, 1821161, 1821715, 1822308, 1822874, 1823373, 1823901]","[1813298, 1813863, 1814466, 1815133, 1815656, 1816262, 1816842, 1817375, 1817940, 1818511, 1819086, 1819639, 1820200, 1820748, 1821242, 1821794, 1822402, 1822946, 1823472, 1823960]","[142, 88, 89, 4, 12, 31, 116, 44, 21, 84, 180, 120, 7, 198, 135, 159, 41, 50, 115, 16]","[1813228, 1813819, 1814390, 1815079, 1815592, 1816172, 1816733, 1817322, 1817894, 1818432, 1819015, 1819552, 1820154, 1820691, 1821190, 1821736, 1822345, 1822879, 1823378, 1823906]","[1810882, 1811482, 1812082, 1812682, 1813282, 1813882, 1814482, 1815083, 1815607, 1816188, 1816749, 1817310, 1817882, 1818448, 1819031, 1819569, 1820145, 1820664, 1821181, 1821735, 1822328, 1822894, 1823393, 1823921]",89,EM,U,R,ITMSR,1.1,
1,400,trial,0,92,92,92,trial,"['S', 'S', 'S', 'S', 'C', 'C', 'C', 'C', 'C', 'C', 'C', 'C', 'C', 'C', 'C', 'C', 'C', 'C', 'C', 'C']","[1830844, 1831240, 1831620, 1832013, 1832434, 1832814, 1833194, 1833612, 1833971, 1834386, 1834747, 1835159, 1835518, 1835923, 1836293, 1836655, 1837018, 1837393, 1837755, 1838127]","[1830929, 1831315, 1831745, 1832117, 1832534, 1832922, 1833277, 1833682, 1834046, 1834474, 1834855, 1835236, 1835626, 1836023, 1836402, 1836781, 1837139, 1837502, 1837863, 1838222]","[153, 89, 131, 132, 133, 118, 56, 151, 32, 82, 125, 68, 119, 113, 120, 114, 138, 92, 93, 57]","[1830888, 1831278, 1831686, 1832065, 1832487, 1832865, 1833233, 1833647, 1834001, 1834428, 1834804, 1835165, 1835569, 1835971, 1836354, 1836713, 1837080, 1837446, 1837805, 1838167]","[1829293, 1829693, 1830093, 1830493, 1830893, 1831293, 1831693, 1832093, 1832454, 1832834, 1833214, 1833632, 1833991, 1834406, 1834767, 1835180, 1835538, 1835943, 1836313, 1836675, 1837038, 1837413, 1837775, 1838147]",89,EM,U,R,ITMSR,1.1,
2,600,trial,0,93,93,93,trial,"['S', 'S', 'S', 'S', 'C', 'C', 'C', 'C', 'C', 'C', 'C', 'C', 'C', 'C', 'C', 'C', 'C', 'C', 'C', 'C']","[1845902, 1846504, 1847068, 1847696, 1848298, 1848898, 1849472, 1850058, 1850599, 1851161, 1851728, 1852308, 1852871, 1853411, 1853969, 1854513, 1855112, 1855665, 1856216, 1856726]","[1845984, 1846574, 1847162, 1847787, 1848374, 1849006, 1849580, 1850169, 1850740, 1851253, 1851850, 1852434, 1852992, 1853575, 1854106, 1854616, 1855225, 1855794, 1856357, 1856867]","[117, 73, 148, 81, 67, 195, 96, 110, 157, 183, 151, 163, 144, 155, 114, 111, 107, 132, 118, 130]","[1845938, 1846532, 1847107, 1847734, 1848331, 1848946, 1849517, 1850110, 1850667, 1851202, 1851789, 1852364, 1852931, 1853473, 1854036, 1854559, 1855160, 1855726, 1856274, 1856780]","[1843523, 1844123, 1844723, 1845323, 1845923, 1846523, 1847123, 1847724, 1848318, 1848919, 1849492, 1850078, 1850619, 1851181, 1851748, 1852328, 1852891, 1853431, 1853989, 1854533, 1855132, 1855685, 1856236, 1856746]",89,EM,U,R,ITMSR,1.1,
0,400,trial,0,94,94,94,trial,"['S', 'S', 'S', 'S', 'C', 'C', 'C', 'C', 'C', 'C', 'C', 'C', 'C', 'C', 'C', 'C', 'C', 'C', 'C', 'C']","[1863992, 1864409, 1864764, 1865157, 1865552, 1865935, 1866335, 1866733, 1867124, 1867555, 1867947, 1868344, 1868741, 1869109, 1869513, 1869888, 1870291, 1870678, 1871076, 1871451]","[1864084, 1864486, 1864848, 1865239, 1865631, 1866028, 1866426, 1866824, 1867240, 1867657, 1868049, 1868453, 1868811, 1869207, 1869615, 1869993, 1870377, 1870784, 1871194, 1871577]","[91, 40, 80, 98, 38, 118, 38, 13, 155, 239, 120, 131, 11, 124, 78, 75, 49, 86, 112, 146]","[1864033, 1864441, 1864799, 1865194, 1865581, 1865973, 1866365, 1866768, 1867180, 1867589, 1867993, 1868395, 1868769, 1869147, 1869557, 1869925, 1870326, 1870722, 1871121, 1871502]","[1862421, 1862820, 1863220, 1863620, 1864020, 1864420, 1864820, 1865220, 1865572, 1865955, 1866355, 1866754, 1867144, 1867575, 1867967, 1868364, 1868761, 1869129, 1869533, 1869908, 1870311, 1870698, 1871096, 1871471]",89,EM,U,R,ITMSR,1.1,
3,400,trial,0,95,95,95,trial,"['S', 'S', 'S', 'S', 'C', 'C', 'C', 'C', 'C', 'C', 'C', 'C', 'C', 'C', 'C', 'C', 'C', 'C', 'C', 'C']","[1878566, 1878980, 1879375, 1879780, 1880200, 1880622, 1881016, 1881399, 1881785, 1882174, 1882567, 1882940, 1883352, 1883741, 1884153, 1884551, 1884958, 1885308, 1885718, 1886118]","[1878673, 1879055, 1879469, 1879853, 1880297, 1880711, 1881122, 1881503, 1881908, 1882300, 1882667, 1883073, 1883458, 1883863, 1884273, 1884666, 1885054, 1885423, 1885811, 1886231]","[212, 243, 85, 14, 56, 56, 74, 84, 83, 107, 76, 144, 70, 76, 83, 34, 38, 79, 26, 77]","[1878619, 1879015, 1879414, 1879811, 1880242, 1880654, 1881062, 1881433, 1881842, 1882234, 1882606, 1882998, 1883394, 1883781, 1884209, 1884604, 1884998, 1885360, 1885754, 1886159]","[1877043, 1877443, 1877843, 1878243, 1878643, 1879043, 1879443, 1879843, 1880220, 1880642, 1881036, 1881419, 1881805, 1882194, 1882587, 1882960, 1883372, 1883761, 1884173, 1884571, 1884978, 1885328, 1885739, 1886138]",89,EM,U,R,ITMSR,1.1,
2,600,trial,0,96,96,96,trial,"['S', 'S', 'S', 'S', 'C', 'C', 'C', 'C', 'C', 'C', 'C', 'C', 'C', 'C', 'C', 'C', 'C', 'C', 'C', 'C']","[1894289, 1894906, 1895530, 1896100, 1896689, 1897303, 1897884, 1898505, 1899118, 1899723, 1900282, 1900825, 1901474, 1902032, 1902662, 1903266, 1903908, 1904515, 1905053, 1905668]","[1894388, 1895003, 1895704, 1896252, 1896827, 1897421, 1898012, 1898613, 1899254, 1899889, 1900382, 1901004, 1901597, 1902141, 1902784, 1903376, 1904076, 1904659, 1905209, 1905764]","[40, 5, 73, 42, 228, 66, 27, 217, 39, 110, 3, 242, 58, 251, 68, 22, 128, 226, 229, 212]","[1894333, 1894953, 1895601, 1896174, 1896742, 1897356, 1897939, 1898561, 1899179, 1899792, 1900336, 1900890, 1901535, 1902083, 1902720, 1903316, 1903982, 1904567, 1905108, 1905710]","[1891919, 1892518, 1893118, 1893719, 1894318, 1894918, 1895518, 1896118, 1896709, 1897323, 1897904, 1898525, 1899138, 1899743, 1900302, 1900845, 1901494, 1902052, 1902682, 1903286, 1903928, 1904535, 1905073, 1905688]",89,EM,U,R,ITMSR,1.1,
2,400,trial,0,97,97,97,trial,"['S', 'S', 'S', 'S', 'C', 'C', 'C', 'C', 'C', 'C', 'C', 'C', 'C', 'C', 'C', 'C', 'C', 'C', 'C', 'C']","[1912994, 1913358, 1913730, 1914137, 1914560, 1914962, 1915342, 1915728, 1916143, 1916563, 1916953, 1917337, 1917751, 1918111, 1918528, 1918923, 1919273, 1919661, 1920037, 1920437]","[1913044, 1913423, 1913819, 1914230, 1914649, 1915058, 1915453, 1915854, 1916272, 1916684, 1917060, 1917459, 1917883, 1918241, 1918663, 1919112, 1919424, 1919748, 1920181, 1920570]","[120, 156, 92, 62, 22, 237, 240, 4, 78, 43, 35, 66, 52, 161, 128, 129, 141, 255, 105, 85]","[1912998, 1913363, 1913773, 1914142, 1914606, 1914968, 1915398, 1915792, 1916208, 1916619, 1917003, 1917396, 1917810, 1918175, 1918594, 1918991, 1919353, 1919703, 1920098, 1920497]","[1911393, 1911793, 1912194, 1912594, 1912994, 1913394, 1913794, 1914194, 1914580, 1914982, 1915362, 1915748, 1916163, 1916583, 1916973, 1917357, 1917771, 1918131, 1918548, 1918943, 1919293, 1919681, 1920057, 1920457]",89,EM,U,R,ITMSR,1.1,
1,600,trial,0,98,98,98,trial,"['S', 'S', 'S', 'S', 'C', 'C', 'C', 'C', 'C', 'C', 'C', 'C', 'C', 'C', 'C', 'C', 'C', 'C', 'C', 'C']","[1928390, 1929004, 1929611, 1930229, 1930835, 1931685, 1932195, 1932738, 1933277, 1933849, 1934433, 1934937, 1935454, 1936050, 1936582, 1937116, 1937668, 1938223, 1938725, 1939296]","[1928504, 1929095, 1929701, 1930310, 1930942, 1931787, 1932285, 1932848, 1933372, 1933972, 1934551, 1935089, 1935563, 1936141, 1936726, 1937288, 1937795, 1938420, 1938899, 1939434]","[86, 135, 96, 89, 203, 125, 134, 184, 91, 168, 12, 207, 160, 80, 248, 253, 235, 233, 245, 80]","[1928455, 1929050, 1929653, 1930262, 1930889, 1931738, 1932246, 1932791, 1933325, 1933914, 1934496, 1935026, 1935517, 1936103, 1936651, 1937216, 1937732, 1938290, 1938804, 1939356]","[1926077, 1926677, 1927277, 1927877, 1928477, 1929077, 1929677, 1930277, 1930855, 1931705, 1932215, 1932759, 1933297, 1933869, 1934453, 1934957, 1935474, 1936070, 1936602, 1937136, 1937688, 1938243, 1938745, 1939316]",89,EM,U,R,ITMSR,1.1,
5,400,trial,0,99,99,99,trial,"['S', 'S', 'S', 'S', 'C', 'C', 'C', 'C', 'C', 'C', 'C', 'C', 'C', 'C', 'C', 'C', 'C', 'C', 'C', 'C']","[1946358, 1946740, 1947125, 1947507, 1947917, 1948307, 1948707, 1949076, 1949497, 1949869, 1950289, 1950721, 1951116, 1951529, 1951930, 1952294, 1952699, 1953088, 1953508, 1953914]","[1946412, 1946796, 1947196, 1947583, 1947990, 1948368, 1948800, 1949155, 1949576, 1949964, 1950377, 1950839, 1951207, 1951636, 1952034, 1952411, 1952794, 1953193, 1953599, 1954004]","[141, 210, 189, 191, 84, 54, 102, 28, 91, 242, 37, 22, 112, 22, 6, 106, 142, 169, 168, 101]","[1946362, 1946746, 1947130, 1947511, 1947921, 1948312, 1948712, 1949080, 1949502, 1949873, 1950294, 1950781, 1951120, 1951535, 1951935, 1952301, 1952704, 1953092, 1953513, 1953921]","[1944748, 1945146, 1945546, 1945946, 1946346, 1946746, 1947146, 1947546, 1947937, 1948327, 1948727, 1949096, 1949517, 1949889, 1950309, 1950741, 1951136, 1951549, 1951950, 1952314, 1952719, 1953108, 1953528, 1953934]",89,EM,U,R,ITMSR,1.1,
