pitch,ioi,event,.thisRepN,.thisTrialN,.thisN,.thisIndex,event,tap_types,tap_times,release_times,peak_pressures,peak_times,tone_times,subject,experimenter,register,handedness,experiment,version,
,,SPR,0,-1,-1,0,SPR,"['P', 'P', 'P', 'P', 'P', 'P', 'P', 'P', 'P', 'P', 'P', 'P', 'P', 'P', 'P', 'P', 'P', 'P', 'P', 'P', 'P', 'P', 'P', 'P', 'P', 'P', 'P', 'P', 'P', 'P']","[34811, 35442, 36067, 36672, 37263, 37861, 38479, 39077, 39659, 40270, 40892, 41486, 42099, 42691, 43336, 43945, 44527, 45116, 45671, 46305, 46903, 47482, 48050, 48656, 49265, 49873, 50479, 51020, 51648, 52238]","[34852, 35464, 36094, 36701, 37294, 37931, 38555, 39134, 39736, 40346, 40965, 41570, 42159, 42766, 43423, 44008, 44601, 45200, 45765, 46377, 46973, 47559, 48126, 48723, 49337, 49928, 50539, 51127, 51718, 52316]","[148, 141, 169, 185, 206, 245, 20, 15, 19, 250, 15, 26, 36, 30, 56, 41, 59, 239, 46, 55, 44, 58, 44, 46, 51, 51, 58, 66, 52, 60]","[34816, 35445, 36071, 36675, 37266, 37863, 38482, 39079, 39662, 40273, 40894, 41488, 42102, 42693, 43338, 43948, 44529, 45119, 45674, 46307, 46905, 47485, 48052, 48658, 49268, 49875, 50481, 51022, 51650, 52240]",,57,SB,U,R,ITMSR,1.0,
1,500,practice,0,0,0,0,practice,"['S', 'S', 'S', 'S', 'S', 'S', 'C', 'C', 'C', 'C', 'C', 'C', 'C', 'C', 'C', 'C', 'C', 'C', 'C', 'C', 'C', 'C']","[120949, 121417, 121933, 122443, 122921, 123415, 123955, 124390, 124822, 125222, 125628, 126010, 126397, 126809, 127204, 127622, 128016, 128386, 128769, 129191, 129602, 129999]","[121024, 121516, 122021, 122523, 123011, 123506, 124038, 124488, 124920, 125310, 125730, 126103, 126489, 126891, 127280, 127691, 128103, 128491, 128869, 129273, 129692, 130094]","[155, 249, 244, 4, 211, 31, 224, 240, 253, 3, 10, 230, 0, 244, 30, 24, 4, 7, 28, 252, 239, 205]","[120955, 121421, 121938, 122447, 122926, 123419, 123959, 124395, 124826, 125225, 125633, 126014, 126401, 126812, 127208, 127626, 128019, 128390, 128772, 129195, 129606, 130003]","[120060, 120559, 121060, 121560, 122059, 122559, 123060, 123559, 123994, 124429, 124861, 125260, 125667, 126049, 126436, 126848, 127243, 127661, 128055, 128424, 128807, 129229, 129641, 130037]",57,SB,U,R,ITMSR,1.0,
4,500,practice,0,1,1,1,practice,"['S', 'S', 'S', 'S', 'S', 'S', 'C', 'C', 'C', 'C', 'C', 'C', 'C', 'C', 'C', 'C', 'C', 'C', 'C', 'C', 'C', 'C', 'C']","[136749, 137255, 137772, 138248, 138744, 139250, 139740, 140174, 140569, 140943, 141300, 141658, 142007, 142345, 142681, 142997, 143289, 143600, 143894, 144196, 144475, 157933, 158338]","[136847, 137340, 137850, 138332, 138819, 139320, 139807, 140272, 140656, 141031, 141391, 141751, 142098, 142436, 142773, 143092, 143381, 143680, 143980, 144275, 144568, 158003, 158430]","[47, 13, 43, 42, 31, 250, 202, 4, 241, 9, 20, 255, 18, 14, 220, 198, 180, 204, 194, 183, 191, 239, 22]","[136753, 137260, 137776, 138252, 138748, 139255, 139745, 140178, 140573, 140947, 141304, 141662, 142011, 142350, 142686, 143001, 143294, 143604, 143899, 144200, 144480, 157938, 158342]","[135821, 136320, 136819, 137320, 137820, 138319, 138819, 139320, 139781, 140215, 140609, 140984, 141340, 141699, 142048, 142386, 142722, 143038, 143330, 143640, 143935, 144236, 157974, 158379]",57,SB,U,R,ITMSR,1.0,
0,500,practice,0,2,2,2,practice,"['S', 'S', 'S', 'S', 'S', 'C', 'C', 'C', 'C', 'C', 'C', 'C', 'C', 'C', 'C', 'C', 'C', 'C', 'C', 'C', 'C']","[164924, 165517, 166030, 166567, 167049, 167568, 167974, 168337, 168693, 169042, 169382, 169711, 170032, 170358, 170688, 171025, 171363, 171664, 171982, 172308, 172613]","[164944, 165634, 166128, 166646, 167140, 167633, 168058, 168425, 168783, 169134, 169472, 169804, 170113, 170441, 170770, 171115, 171455, 171756, 172070, 172392, 172720]","[158, 34, 63, 72, 253, 21, 26, 66, 62, 48, 255, 220, 207, 2, 214, 251, 231, 228, 27, 248, 238]","[164928, 165522, 166034, 166572, 167054, 167573, 167980, 168341, 168697, 169047, 169388, 169716, 170037, 170363, 170692, 171029, 171367, 171668, 171986, 172313, 172617]","[163740, 164241, 164741, 165240, 165740, 166241, 166740, 167240, 167609, 168014, 168378, 168733, 169082, 169422, 169751, 170073, 170398, 170729, 171066, 171404, 171705, 172022, 172349, 172653]",57,SB,U,R,ITMSR,1.0,
5,500,practice,0,3,3,3,practice,"['S', 'S', 'S', 'S', 'S', 'S', 'C', 'C', 'C', 'C', 'C', 'C', 'C', 'C', 'C', 'C', 'C', 'C', 'C', 'C', 'C', 'C']","[179125, 179598, 180093, 180568, 181047, 181561, 182049, 182522, 183009, 183518, 183970, 184506, 184985, 185436, 185946, 186424, 186872, 187352, 187829, 188297, 188777, 189265]","[179177, 179661, 180116, 180617, 181120, 181636, 182135, 182628, 183088, 183577, 184052, 184571, 185062, 185523, 186000, 186482, 186947, 187410, 187883, 188374, 188865, 189348]","[64, 191, 168, 226, 7, 223, 243, 28, 194, 244, 212, 2, 220, 221, 36, 13, 238, 227, 234, 13, 29, 254]","[179130, 179603, 180100, 180573, 181051, 181565, 182053, 182525, 183013, 183522, 183974, 184510, 184989, 185440, 185950, 186428, 186876, 187356, 187833, 188300, 188781, 189270]","[178161, 178661, 179161, 179660, 180160, 180662, 181160, 181661, 182088, 182561, 183049, 183558, 184009, 184546, 185024, 185476, 185986, 186464, 186911, 187392, 187869, 188337, 188817, 189304]",57,SB,U,R,ITMSR,1.0,
3,500,practice,0,4,4,4,practice,"['S', 'S', 'S', 'S', 'S', 'S', 'C', 'C', 'C', 'C', 'C', 'C', 'C', 'C', 'C', 'C', 'C', 'C', 'C', 'C', 'C', 'C']","[195774, 196229, 196707, 197226, 197757, 198232, 198699, 199191, 199747, 200225, 200694, 201211, 201652, 202158, 202652, 203150, 203595, 204090, 204582, 205060, 205564, 206040]","[195812, 196312, 196811, 197311, 197814, 198311, 198799, 199291, 199822, 200306, 200788, 201263, 201724, 202227, 202715, 203224, 203688, 204180, 204665, 205164, 205669, 206142]","[235, 177, 173, 176, 96, 107, 175, 211, 209, 178, 207, 210, 252, 210, 222, 181, 212, 224, 236, 250, 39, 207]","[195780, 196233, 196712, 197230, 197763, 198237, 198703, 199195, 199751, 200229, 200697, 201216, 201655, 202162, 202656, 203154, 203599, 204093, 204587, 205064, 205568, 206043]","[194812, 195311, 195812, 196312, 196811, 197311, 197812, 198311, 198738, 199231, 199787, 200263, 200732, 201249, 201691, 202198, 202690, 203190, 203633, 204130, 204620, 205099, 205603, 206078]",57,SB,U,R,ITMSR,1.0,
2,500,practice,0,5,5,5,practice,"['S', 'S', 'S', 'S', 'S', 'S', 'C', 'C', 'C', 'C', 'C', 'C', 'C', 'C', 'C', 'C', 'C', 'C', 'C', 'C', 'C', 'C']","[212676, 213158, 213676, 214147, 214675, 215164, 215668, 216153, 216710, 217172, 217694, 218161, 218641, 219118, 219592, 220102, 220549, 221040, 221542, 222011, 222500, 222957]","[212737, 213246, 213780, 214230, 214740, 215234, 215727, 216244, 216759, 217240, 217753, 218218, 218696, 219183, 219632, 220167, 220634, 221122, 221624, 222093, 222587, 223052]","[57, 64, 28, 113, 113, 109, 85, 56, 92, 165, 144, 100, 98, 105, 26, 164, 222, 215, 231, 202, 202, 231]","[212681, 213164, 213682, 214151, 214679, 215169, 215673, 216158, 216714, 217177, 217699, 218166, 218646, 219124, 219599, 220107, 220552, 221044, 221546, 222015, 222504, 222962]","[211779, 212280, 212780, 213279, 213780, 214280, 214779, 215279, 215708, 216194, 216751, 217212, 217735, 218202, 218682, 219158, 219632, 220142, 220590, 221080, 221583, 222052, 222540, 222998]",57,SB,U,R,ITMSR,1.0,
5,400,trial,0,6,6,6,trial,"['S', 'S', 'S', 'S', 'S', 'S', 'C', 'C', 'C', 'C', 'C', 'C', 'C', 'C', 'C', 'C', 'C', 'C', 'C', 'C', 'C', 'C']","[255450, 255880, 256306, 256704, 257071, 257469, 257856, 258270, 258611, 259000, 259388, 259794, 260173, 260544, 260952, 261335, 261756, 262145, 262517, 262871, 263316, 263673]","[255539, 255966, 256372, 256729, 257141, 257529, 257925, 258325, 258669, 259067, 259475, 259854, 260245, 260629, 261015, 261412, 261805, 262220, 262588, 262960, 263362, 263737]","[112, 88, 224, 253, 206, 114, 158, 103, 55, 65, 87, 98, 204, 169, 201, 199, 57, 144, 161, 139, 158, 130]","[255454, 255883, 256306, 256704, 257076, 257473, 257861, 258276, 258616, 259007, 259394, 259800, 260178, 260549, 260955, 261339, 261761, 262149, 262521, 262876, 263320, 263678]","[254705, 255106, 255506, 255904, 256305, 256704, 257104, 257505, 257896, 258310, 258651, 259040, 259428, 259833, 260212, 260584, 260992, 261374, 261795, 262184, 262556, 262910, 263356, 263712]",57,SB,U,R,ITMSR,1.0,
5,600,trial,0,7,7,7,trial,"['S', 'S', 'S', 'S', 'C', 'C', 'C', 'C', 'C', 'C', 'C', 'C', 'C', 'C', 'C', 'C', 'C', 'C', 'C', 'C']","[271764, 272352, 272946, 273544, 274124, 274685, 275237, 275787, 276363, 276909, 277481, 278034, 278569, 279133, 279685, 280206, 280711, 281202, 281808, 282407]","[271845, 272423, 273029, 273626, 274206, 274769, 275326, 275898, 276472, 277004, 277561, 278125, 278679, 279217, 279772, 280309, 280821, 281319, 281913, 282511]","[242, 177, 190, 179, 133, 119, 112, 113, 223, 199, 196, 235, 219, 239, 158, 97, 195, 194, 212, 176]","[271768, 272357, 272952, 273550, 274130, 274692, 275243, 275794, 276368, 276914, 277485, 278038, 278574, 279137, 279689, 280259, 280715, 281206, 281814, 282413]","[269500, 270099, 270699, 271298, 271898, 272498, 273098, 273698, 274163, 274724, 275276, 275826, 276403, 276948, 277521, 278074, 278608, 279173, 279725, 280246, 280751, 281241, 281847, 282446]",57,SB,U,R,ITMSR,1.0,
3,600,trial,0,8,8,8,trial,"['S', 'S', 'S', 'S', 'S', 'C', 'C', 'C', 'C', 'C', 'C', 'C', 'C', 'C', 'C', 'C', 'C', 'C', 'C', 'C', 'C']","[289629, 290194, 290793, 291395, 291975, 292584, 293121, 293707, 294265, 294834, 295344, 295952, 296474, 297038, 297575, 298106, 298660, 299161, 299732, 300299, 300828]","[289728, 290328, 290928, 291503, 292088, 292691, 293263, 293830, 294379, 294926, 295471, 296078, 296608, 297145, 297693, 298242, 298843, 299345, 299914, 300457, 300949]","[143, 102, 183, 181, 66, 117, 145, 145, 177, 209, 153, 39, 141, 107, 68, 225, 1, 252, 7, 163, 234]","[289635, 290269, 290861, 291402, 292034, 292642, 293214, 293787, 294270, 294839, 295351, 296023, 296551, 297044, 297580, 298112, 298665, 299165, 299737, 300406, 300833]","[287930, 288529, 289129, 289728, 290328, 290928, 291528, 292128, 292624, 293159, 293745, 294303, 294874, 295383, 295992, 296513, 297077, 297614, 298145, 298698, 299200, 299770, 300338, 300867]",57,SB,U,R,ITMSR,1.0,
1,600,trial,0,9,9,9,trial,"['S', 'S', 'S', 'S', 'S', 'S', 'C', 'C', 'C', 'C', 'C', 'C', 'C', 'C', 'C', 'C', 'C', 'C', 'C', 'C', 'C', 'C']","[307584, 308160, 308758, 309353, 309965, 310544, 311137, 311703, 312295, 312904, 313485, 314018, 314614, 315173, 315750, 316313, 316924, 317464, 318048, 318633, 319193, 319813]","[307703, 308298, 308898, 309501, 310099, 310699, 311275, 311869, 312433, 313026, 313615, 314157, 314746, 315305, 315896, 316473, 317054, 317608, 318186, 318769, 319349, 319962]","[179, 243, 255, 235, 190, 185, 180, 211, 224, 231, 231, 236, 216, 167, 175, 218, 191, 201, 229, 201, 235, 250]","[307639, 308230, 308832, 309437, 309971, 310549, 311224, 311817, 312300, 312910, 313490, 314099, 314619, 315177, 315838, 316407, 316996, 317552, 318131, 318639, 319284, 319903]","[306499, 307098, 307698, 308298, 308898, 309498, 310098, 310699, 311176, 311742, 312334, 312942, 313524, 314056, 314652, 315211, 315789, 316351, 316962, 317503, 318087, 318671, 319232, 319851]",57,SB,U,R,ITMSR,1.0,
2,400,trial,0,10,10,10,trial,"['S', 'S', 'S', 'S', 'C', 'C', 'C', 'C', 'C', 'C', 'C', 'C', 'C', 'C', 'C', 'C', 'C', 'C', 'C', 'C']","[327195, 327575, 327971, 328387, 328780, 329174, 329575, 329966, 330358, 330737, 331130, 331520, 331912, 332284, 332693, 333070, 333446, 333832, 334225, 334623]","[327277, 327677, 328079, 328492, 328894, 329303, 329700, 330084, 330484, 330871, 331259, 331648, 332020, 332419, 332805, 333177, 333570, 333957, 334350, 334739]","[145, 230, 248, 155, 170, 148, 170, 172, 202, 176, 170, 129, 97, 231, 0, 35, 171, 160, 101, 170]","[327202, 327580, 327976, 328393, 328786, 329179, 329580, 329971, 330363, 330743, 331136, 331525, 331918, 332357, 332700, 333076, 333518, 333897, 334230, 334627]","[325679, 326078, 326477, 326878, 327277, 327677, 328078, 328477, 328820, 329214, 329616, 330006, 330398, 330777, 331170, 331560, 331953, 332324, 332734, 333111, 333487, 333873, 334266, 334663]",57,SB,U,R,ITMSR,1.0,
0,400,trial,0,11,11,11,trial,"['S', 'S', 'S', 'S', 'S', 'S', 'C', 'C', 'C', 'C', 'C', 'C', 'C', 'C', 'C', 'C', 'C', 'C', 'C', 'C', 'C', 'C']","[341006, 341355, 341757, 342164, 342583, 342920, 343353, 343723, 344142, 344522, 344897, 345305, 345686, 346082, 346470, 346863, 347244, 347606, 347990, 348379, 348759, 349139]","[341080, 341460, 341871, 342275, 342676, 343038, 343461, 343855, 344280, 344657, 345028, 345433, 345810, 346206, 346611, 346983, 347356, 347738, 348125, 348525, 348907, 349317]","[21, 250, 253, 0, 156, 161, 189, 195, 146, 157, 89, 120, 202, 209, 189, 114, 158, 125, 143, 166, 126, 136]","[341009, 341361, 341765, 342170, 342589, 342927, 343358, 343727, 344148, 344527, 344958, 345311, 345691, 346087, 346475, 346869, 347249, 347611, 347995, 348384, 348764, 349250]","[340233, 340632, 341032, 341433, 341832, 342233, 342633, 343032, 343394, 343763, 344182, 344562, 344938, 345346, 345726, 346123, 346511, 346903, 347285, 347646, 348030, 348420, 348800, 349179]",57,SB,U,R,ITMSR,1.0,
4,600,trial,0,12,12,12,trial,"['S', 'S', 'S', 'S', 'S', 'S', 'S', 'C', 'C', 'C', 'C', 'C', 'C', 'C', 'C', 'C', 'C', 'C', 'C', 'C', 'C', 'C', 'C']","[354975, 355616, 356228, 356841, 357437, 358054, 358649, 359268, 359865, 360435, 361039, 361592, 362221, 362791, 363368, 363952, 364554, 365100, 365777, 366406, 366961, 367571, 368150]","[355041, 355737, 356337, 356938, 357548, 358153, 358771, 359384, 359993, 360565, 361166, 361718, 362304, 362918, 363499, 364071, 364679, 365238, 365860, 366526, 367118, 367724, 368279]","[74, 217, 183, 206, 222, 193, 246, 238, 205, 185, 156, 172, 179, 211, 198, 206, 226, 7, 0, 1, 14, 19, 3]","[354981, 355622, 356235, 356846, 357442, 358060, 358654, 359274, 359933, 360441, 361046, 361597, 362226, 362799, 363374, 363957, 364559, 365179, 365783, 366411, 366966, 367656, 368154]","[354538, 355137, 355737, 356337, 356937, 357537, 358137, 358737, 359309, 359906, 360475, 361079, 361632, 362262, 362831, 363409, 363993, 364595, 365140, 365817, 366446, 367001, 367611, 368191]",57,SB,U,R,ITMSR,1.0,
2,400,trial,0,13,13,13,trial,"['S', 'S', 'S', 'S', 'S', 'S', 'C', 'C', 'C', 'C', 'C', 'C', 'C', 'C', 'C', 'C', 'C', 'C', 'C', 'C', 'C', 'C']","[374638, 375032, 375430, 375820, 376228, 376647, 377058, 377460, 377868, 378266, 378675, 379053, 379440, 379851, 380272, 380679, 381086, 381469, 381871, 382290, 382698, 383115]","[374738, 375139, 375541, 375939, 376353, 376770, 377195, 377613, 378023, 378437, 378846, 379238, 379640, 380038, 380441, 380854, 381253, 381665, 382064, 382459, 382863, 383273]","[139, 23, 17, 19, 9, 18, 29, 10, 15, 248, 242, 249, 240, 223, 6, 241, 247, 20, 2, 16, 11, 0]","[374677, 375038, 375435, 375824, 376233, 376651, 377062, 377464, 377872, 378371, 378681, 379057, 379445, 379951, 380276, 380684, 381090, 381474, 381875, 382295, 382702, 383119]","[373939, 374338, 374738, 375139, 375538, 375939, 376339, 376738, 377099, 377500, 377909, 378306, 378716, 379094, 379481, 379891, 380312, 380720, 381126, 381509, 381912, 382330, 382739, 383156]",57,SB,U,R,ITMSR,1.0,
5,400,trial,0,14,14,14,trial,"['S', 'S', 'S', 'S', 'S', 'S', 'C', 'C', 'C', 'C', 'C', 'C', 'C', 'C', 'C', 'C', 'C', 'C', 'C', 'C', 'C', 'C']","[389493, 389885, 390300, 390703, 391090, 391491, 391897, 392301, 392688, 393075, 393484, 393874, 394279, 394691, 395086, 395494, 395905, 396316, 396723, 397105, 397521, 397943]","[389598, 390006, 390431, 390838, 391240, 391639, 392046, 392455, 392833, 393239, 393655, 394049, 394450, 394851, 395256, 395642, 396049, 396449, 396861, 397259, 397663, 398060]","[225, 40, 27, 35, 46, 56, 40, 60, 50, 7, 40, 23, 1, 24, 26, 10, 254, 26, 47, 34, 222, 35]","[389499, 389890, 390305, 390707, 391094, 391496, 391902, 392305, 392692, 393079, 393488, 393878, 394284, 394694, 395090, 395498, 395909, 396320, 396727, 397110, 397608, 397948]","[388758, 389157, 389559, 389957, 390358, 390758, 391157, 391558, 391937, 392341, 392727, 393114, 393524, 393914, 394318, 394731, 395125, 395534, 395944, 396355, 396763, 397145, 397560, 397982]",57,SB,U,R,ITMSR,1.0,
1,400,trial,0,15,15,15,trial,"['S', 'S', 'S', 'S', 'S', 'S', 'S', 'C', 'C', 'C', 'C', 'C', 'C', 'C', 'C', 'C', 'C', 'C', 'C', 'C', 'C', 'C', 'C']","[404206, 404540, 404936, 405332, 405734, 406150, 406550, 406943, 407346, 407767, 408147, 408546, 408961, 409383, 409771, 410180, 410594, 410997, 411420, 411800, 412208, 412598, 413011]","[404282, 404665, 405072, 405467, 405875, 406301, 406684, 407105, 407502, 407885, 408269, 408685, 409094, 409504, 409892, 410312, 410713, 411106, 411506, 411926, 412336, 412735, 413138]","[203, 17, 14, 216, 32, 36, 5, 12, 6, 6, 214, 237, 0, 197, 238, 250, 226, 226, 216, 16, 211, 239, 13]","[404213, 404545, 404940, 405340, 405739, 406154, 406555, 406947, 407350, 407772, 408153, 408550, 408966, 409389, 409775, 410185, 410599, 411002, 411425, 411805, 412213, 412603, 413016]","[403785, 404186, 404586, 404986, 405387, 405786, 406187, 406587, 406981, 407385, 407805, 408185, 408585, 408999, 409421, 409809, 410218, 410633, 411035, 411458, 411839, 412247, 412637, 413049]",57,SB,U,R,ITMSR,1.0,
3,600,trial,0,16,16,16,trial,"['S', 'S', 'S', 'S', 'S', 'S', 'S', 'C', 'C', 'C', 'C', 'C', 'C', 'C', 'C', 'C', 'C', 'C', 'C', 'C', 'C', 'C', 'C']","[419512, 419916, 420464, 421079, 421683, 422290, 422893, 423498, 424089, 424687, 425220, 425846, 426436, 427037, 427603, 428186, 428827, 429462, 430051, 430664, 431269, 431889, 432517]","[419604, 420051, 420608, 421215, 421791, 422408, 423024, 423628, 424232, 424770, 425350, 425969, 426587, 427169, 427741, 428329, 428937, 429596, 430205, 430856, 431471, 432103, 432728]","[175, 51, 44, 41, 23, 43, 52, 44, 250, 203, 209, 6, 0, 160, 199, 220, 242, 251, 25, 22, 15, 35, 88]","[419519, 419920, 420469, 421084, 421687, 422294, 422898, 423502, 424094, 424691, 425284, 425851, 426441, 427109, 427679, 428266, 428831, 429466, 430056, 430782, 431376, 432012, 432520]","[418765, 419364, 419964, 420564, 421165, 421765, 422365, 422965, 423536, 424128, 424725, 425260, 425885, 426474, 427076, 427642, 428225, 428866, 429502, 430091, 430703, 431308, 431929, 432557]",57,SB,U,R,ITMSR,1.0,
0,400,trial,0,17,17,17,trial,"['S', 'S', 'S', 'S', 'S', 'S', 'S', 'C', 'C', 'C', 'C', 'C', 'C', 'C', 'C', 'C', 'C', 'C', 'C', 'C', 'C', 'C', 'C']","[438415, 438717, 439101, 439489, 439895, 440294, 440687, 441088, 441485, 441901, 442300, 442691, 443087, 443485, 443870, 444263, 444648, 445041, 445421, 445820, 446209, 446588, 446959]","[438494, 438814, 439208, 439610, 440020, 440440, 440835, 441243, 441658, 442058, 442458, 442839, 443233, 443608, 443969, 444372, 444788, 445181, 445574, 445942, 446328, 446683, 447073]","[213, 215, 240, 248, 229, 4, 23, 8, 13, 40, 20, 234, 227, 201, 238, 239, 245, 231, 223, 135, 173, 209, 232]","[438419, 438722, 439106, 439495, 439899, 440298, 440691, 441092, 441489, 441904, 442304, 442695, 443091, 443490, 443874, 444268, 444653, 445046, 445426, 445827, 446213, 446594, 446964]","[437967, 438368, 438767, 439168, 439568, 439967, 440368, 440768, 441128, 441526, 441942, 442341, 442732, 443127, 443526, 443911, 444304, 444689, 445081, 445462, 445860, 446249, 446628, 446999]",57,SB,U,R,ITMSR,1.0,
2,600,trial,0,18,18,18,trial,"['S', 'S', 'S', 'S', 'S', 'S', 'S', 'C', 'C', 'C', 'C', 'C', 'C', 'C', 'C', 'C', 'C', 'C', 'C', 'C', 'C', 'C', 'C']","[452840, 453436, 454009, 454581, 455206, 455810, 456412, 457041, 457661, 458250, 458821, 459433, 460006, 460595, 461194, 461761, 462351, 462939, 463508, 464097, 464666, 465274, 465860]","[452961, 453561, 454123, 454711, 455328, 455938, 456536, 457184, 457828, 458415, 458996, 459596, 460204, 460795, 461399, 461973, 462585, 463162, 463739, 464333, 464918, 465503, 466115]","[227, 219, 248, 235, 251, 247, 218, 7, 34, 42, 55, 34, 55, 45, 71, 71, 61, 66, 77, 66, 74, 80, 74]","[452846, 453504, 454016, 454641, 455212, 455866, 456472, 457114, 457749, 458339, 458929, 459517, 460106, 460726, 461318, 461893, 462500, 463069, 463648, 464245, 464844, 465403, 466049]","[452362, 452961, 453561, 454161, 454761, 455361, 455961, 456561, 457081, 457702, 458291, 458861, 459473, 460047, 460636, 461235, 461802, 462392, 462980, 463549, 464138, 464706, 465314, 465900]",57,SB,U,R,ITMSR,1.0,
2,600,trial,0,19,19,19,trial,"['S', 'S', 'S', 'S', 'S', 'S', 'S', 'C', 'C', 'C', 'C', 'C', 'C', 'C', 'C', 'C', 'C', 'C', 'C', 'C', 'C', 'C', 'C']","[472034, 472392, 472935, 473532, 474128, 474702, 475297, 475922, 476484, 477078, 477655, 478272, 478852, 479458, 480114, 480715, 481311, 481927, 482516, 483121, 483735, 484350, 484913]","[472126, 472545, 473108, 473697, 474307, 474886, 475462, 476052, 476667, 477286, 477857, 478485, 479060, 479679, 480303, 480930, 481555, 482149, 482749, 483394, 484017, 484596, 485156]","[129, 30, 47, 26, 40, 61, 28, 252, 43, 55, 50, 70, 64, 58, 45, 62, 80, 63, 59, 71, 83, 72, 81]","[472085, 472475, 473015, 473613, 474217, 474809, 475385, 475984, 476600, 477195, 477766, 478404, 478978, 479599, 480232, 480852, 481463, 482064, 482659, 483298, 483908, 484508, 485072]","[471263, 471863, 472463, 473063, 473663, 474262, 474862, 475462, 475963, 476524, 477119, 477696, 478313, 478893, 479499, 480154, 480755, 481351, 481968, 482556, 483162, 483776, 484390, 484954]",57,SB,U,R,ITMSR,1.0,
1,400,trial,0,20,20,20,trial,"['S', 'S', 'S', 'S', 'S', 'S', 'C', 'C', 'C', 'C', 'C', 'C', 'C', 'C', 'C', 'C', 'C', 'C', 'C', 'C', 'C', 'C']","[491304, 491680, 492071, 492455, 492880, 493255, 493671, 494081, 494494, 494876, 495291, 495687, 496074, 496486, 496848, 497250, 497637, 498032, 498459, 498845, 499256, 499643]","[491404, 491794, 492206, 492605, 493023, 493408, 493822, 494254, 494669, 495067, 495472, 495850, 496200, 496580, 496972, 497374, 497781, 498182, 498597, 499001, 499398, 499793]","[229, 23, 37, 26, 40, 11, 1, 36, 249, 9, 234, 197, 196, 29, 181, 3, 237, 206, 237, 220, 232, 196]","[491357, 491684, 492077, 492530, 492884, 493259, 493675, 494085, 494596, 494881, 495405, 495773, 496080, 496490, 496856, 497254, 497641, 498037, 498463, 498850, 499261, 499726]","[490558, 490956, 491357, 491756, 492156, 492557, 492956, 493357, 493710, 494119, 494532, 494914, 495330, 495725, 496112, 496525, 496886, 497289, 497676, 498070, 498497, 498883, 499295, 499682]",57,SB,U,R,ITMSR,1.0,
4,600,trial,0,21,21,21,trial,"['S', 'S', 'S', 'S', 'S', 'S', 'S', 'C', 'C', 'C', 'C', 'C', 'C', 'C', 'C', 'C', 'C', 'C', 'C', 'C', 'C', 'C', 'C']","[506117, 506555, 507111, 507715, 508307, 508920, 509511, 510114, 510725, 511303, 511927, 512485, 513101, 513670, 514234, 514833, 515408, 515990, 516558, 517140, 517722, 518312, 518896]","[506232, 506682, 507235, 507823, 508423, 509031, 509635, 510237, 510862, 511432, 512024, 512593, 513193, 513772, 514354, 514975, 515531, 516097, 516629, 517249, 517833, 518438, 519023]","[186, 8, 249, 174, 184, 170, 191, 186, 236, 135, 208, 168, 154, 157, 198, 225, 157, 98, 185, 142, 146, 127, 164]","[506172, 506560, 507117, 507721, 508344, 508925, 509518, 510173, 510731, 511365, 511933, 512490, 513108, 513675, 514239, 514914, 515481, 515997, 516562, 517197, 517728, 518353, 518943]","[505422, 506022, 506622, 507223, 507823, 508423, 509023, 509623, 510154, 510766, 511343, 511968, 512526, 513141, 513711, 514275, 514874, 515448, 516031, 516598, 517181, 517763, 518352, 518936]",57,SB,U,R,ITMSR,1.0,
1,600,trial,0,22,22,22,trial,"['S', 'S', 'S', 'S', 'S', 'S', 'S', 'C', 'C', 'C', 'C', 'C', 'C', 'C', 'C', 'C', 'C', 'C', 'C', 'C', 'C', 'C', 'C']","[525094, 525764, 526371, 526997, 527578, 528226, 528830, 529403, 530034, 530613, 531206, 531778, 532380, 532968, 533607, 534175, 534762, 535367, 535945, 536528, 537110, 537719, 538343]","[525198, 525883, 526497, 527082, 527694, 528306, 528908, 529512, 530131, 530727, 531335, 531902, 532508, 533112, 533741, 534321, 534931, 535548, 536102, 536726, 537313, 537921, 538522]","[109, 121, 199, 187, 185, 210, 216, 189, 187, 174, 183, 151, 195, 196, 156, 214, 186, 231, 176, 237, 237, 234, 206]","[525144, 525770, 526418, 527004, 527636, 528233, 528835, 529448, 530040, 530665, 531212, 531785, 532454, 533048, 533682, 534261, 534860, 535469, 536034, 536639, 537225, 537843, 538465]","[524759, 525358, 525958, 526558, 527158, 527758, 528358, 528958, 529441, 530072, 530652, 531245, 531817, 532418, 533007, 533646, 534213, 534801, 535405, 535984, 536566, 537149, 537757, 538382]",57,SB,U,R,ITMSR,1.0,
0,600,trial,0,23,23,23,trial,"['S', 'S', 'S', 'S', 'S', 'S', 'S', 'C', 'C', 'C', 'C', 'C', 'C', 'C', 'C', 'C', 'C', 'C', 'C', 'C', 'C', 'C', 'C']","[544292, 544968, 545574, 546188, 546749, 547367, 547953, 548577, 549190, 549767, 550354, 550958, 551543, 552152, 552754, 553331, 553939, 554597, 555203, 555759, 556390, 556952, 557541]","[544403, 545081, 545677, 546283, 546862, 547486, 548083, 548700, 549347, 549931, 550523, 551118, 551714, 552338, 552911, 553535, 554174, 554825, 555403, 555951, 556595, 557200, 557796]","[148, 239, 215, 188, 184, 170, 139, 178, 146, 165, 229, 209, 218, 201, 202, 8, 39, 45, 255, 19, 243, 20, 24]","[544340, 544973, 545581, 546195, 546803, 547424, 548007, 548631, 549262, 549861, 550454, 551040, 551638, 552270, 552839, 553454, 554090, 554744, 555319, 555873, 556503, 557100, 557682]","[543954, 544553, 545154, 545754, 546354, 546954, 547554, 548154, 548618, 549230, 549808, 550394, 550999, 551583, 552193, 552795, 553371, 553979, 554638, 555244, 555799, 556431, 556993, 557582]",57,SB,U,R,ITMSR,1.0,
5,600,trial,0,24,24,24,trial,"['S', 'S', 'S', 'S', 'S', 'S', 'C', 'C', 'C', 'C', 'C', 'C', 'C', 'C', 'C', 'C', 'C', 'C', 'C', 'C', 'C', 'C']","[564322, 564911, 565520, 566114, 566705, 567296, 567891, 568501, 569058, 569648, 570296, 570848, 571416, 572033, 572606, 573145, 573716, 574289, 574886, 575421, 576032, 576625]","[564411, 564984, 565577, 566174, 566779, 567386, 567982, 568613, 569187, 569764, 570362, 570946, 571512, 572100, 572690, 573251, 573834, 574422, 575014, 575549, 576155, 576749]","[186, 170, 52, 102, 147, 128, 163, 136, 162, 106, 8, 123, 111, 108, 43, 92, 169, 167, 124, 60, 97, 165]","[564328, 564917, 565528, 566121, 566711, 567330, 567898, 568560, 569131, 569718, 570302, 570854, 571421, 572038, 572612, 573203, 573789, 574361, 574961, 575425, 576106, 576697]","[563241, 563841, 564442, 565041, 565641, 566241, 566841, 567441, 567930, 568541, 569098, 569688, 570336, 570888, 571456, 572072, 572646, 573185, 573756, 574328, 574925, 575461, 576071, 576664]",57,SB,U,R,ITMSR,1.0,
4,400,trial,0,25,25,25,trial,"['S', 'S', 'S', 'S', 'S', 'S', 'C', 'C', 'C', 'C', 'C', 'C', 'C', 'C', 'C', 'C', 'C', 'C', 'C', 'C', 'C', 'C']","[582902, 583301, 583711, 584093, 584530, 584940, 585338, 585753, 586144, 586568, 586991, 587370, 587759, 588198, 588590, 589015, 589399, 589825, 590223, 590627, 591035, 591422]","[582981, 583404, 583804, 584205, 584624, 585014, 585423, 585840, 586252, 586653, 587074, 587453, 587856, 588268, 588681, 589104, 589508, 589915, 590318, 590718, 591123, 591514]","[154, 214, 149, 149, 130, 163, 161, 157, 145, 167, 145, 50, 88, 111, 144, 150, 144, 141, 189, 182, 56, 122]","[582938, 583334, 583718, 584135, 584537, 584946, 585345, 585759, 586149, 586575, 586998, 587378, 587800, 588206, 588596, 589021, 589453, 589830, 590228, 590633, 591077, 591428]","[582205, 582604, 583005, 583404, 583804, 584205, 584604, 585005, 585378, 585793, 586184, 586608, 587031, 587411, 587799, 588238, 588631, 589056, 589440, 589865, 590264, 590667, 591076, 591463]",57,SB,U,R,ITMSR,1.0,
0,600,trial,0,26,26,26,trial,"['S', 'S', 'S', 'S', 'S', 'S', 'S', 'S', 'C', 'C', 'C', 'C', 'C', 'C', 'C', 'C', 'C', 'C', 'C', 'C', 'C', 'C', 'C', 'C']","[597178, 597639, 597993, 598528, 599122, 599728, 600316, 600905, 601494, 602055, 602656, 603237, 603831, 604391, 604975, 605554, 606116, 606714, 607268, 607885, 608483, 609067, 609630, 610204]","[597274, 597697, 598074, 598623, 599208, 599837, 600431, 601019, 601612, 602210, 602770, 603344, 603932, 604509, 605095, 605679, 606265, 606868, 607414, 608013, 608626, 609207, 609817, 610416]","[198, 20, 171, 188, 175, 214, 218, 195, 184, 215, 162, 163, 137, 193, 189, 179, 210, 246, 241, 187, 221, 171, 2, 9]","[597226, 597648, 598028, 598564, 599157, 599775, 600374, 600948, 601539, 602131, 602663, 603278, 603872, 604432, 605016, 605612, 606186, 606799, 607349, 607950, 608561, 609133, 609730, 610304]","[596871, 597471, 598071, 598671, 599271, 599871, 600470, 601070, 601535, 602095, 602696, 603278, 603872, 604432, 605016, 605594, 606156, 606754, 607308, 607926, 608524, 609107, 609671, 610244]",57,SB,U,R,ITMSR,1.0,
3,400,trial,0,27,27,27,trial,"['S', 'S', 'S', 'S', 'S', 'S', 'S', 'C', 'C', 'C', 'C', 'C', 'C', 'C', 'C', 'C', 'C', 'C', 'C', 'C', 'C', 'C', 'C']","[616231, 616647, 617067, 617505, 617872, 618264, 618648, 619056, 619452, 619864, 620226, 620645, 621058, 621472, 621911, 622310, 622703, 623105, 623528, 623919, 624330, 624742, 625158]","[616334, 616754, 617159, 617573, 617942, 618327, 618730, 619140, 619547, 619947, 620331, 620739, 621145, 621551, 621983, 622397, 622806, 623197, 623596, 624011, 624416, 624831, 625242]","[192, 203, 244, 118, 141, 219, 129, 175, 159, 134, 155, 170, 130, 108, 162, 134, 149, 151, 148, 172, 202, 170, 200]","[616238, 616653, 617072, 617520, 617879, 618269, 618654, 619063, 619459, 619870, 620233, 620685, 621063, 621478, 621918, 622316, 622758, 623111, 623533, 623924, 624335, 624746, 625162]","[615907, 616305, 616706, 617106, 617505, 617906, 618305, 618705, 619096, 619491, 619904, 620266, 620684, 621096, 621511, 621949, 622349, 622741, 623144, 623566, 623959, 624369, 624782, 625197]",57,SB,U,R,ITMSR,1.0,
3,400,trial,0,28,28,28,trial,"['S', 'S', 'S', 'S', 'S', 'S', 'S', 'C', 'C', 'C', 'C', 'C', 'C', 'C', 'C', 'C', 'C', 'C', 'C', 'C', 'C', 'C', 'C']","[631164, 631554, 631947, 632360, 632728, 633140, 633519, 633972, 634336, 634757, 635130, 635534, 635927, 636334, 636713, 637124, 637496, 637900, 638279, 638707, 639122, 639529, 639939]","[631256, 631657, 632055, 632456, 632820, 633199, 633610, 634056, 634446, 634851, 635234, 635634, 636043, 636426, 636808, 637227, 637592, 637999, 638400, 638802, 639220, 639625, 640030]","[142, 244, 247, 232, 237, 243, 209, 226, 211, 220, 224, 222, 184, 216, 197, 245, 234, 182, 163, 200, 225, 185, 255]","[631199, 631599, 631984, 632366, 632734, 633145, 633524, 633978, 634376, 634763, 635137, 635539, 635971, 636340, 636719, 637128, 637502, 637939, 638322, 638712, 639127, 639536, 639944]","[630856, 631256, 631656, 632055, 632456, 632855, 633255, 633656, 634011, 634375, 634797, 635168, 635574, 635966, 636374, 636751, 637162, 637535, 637939, 638317, 638745, 639161, 639567, 639979]",57,SB,U,R,ITMSR,1.0,
4,400,trial,0,29,29,29,trial,"['S', 'S', 'S', 'S', 'S', 'S', 'S', 'C', 'C', 'C', 'C', 'C', 'C', 'C', 'C', 'C', 'C', 'C', 'C', 'C', 'C', 'C', 'C']","[645774, 646156, 646560, 646945, 647348, 647743, 648163, 648581, 648976, 649385, 649752, 650189, 650579, 650973, 651413, 651807, 652197, 652614, 653017, 653438, 653826, 654229, 654630]","[645860, 646268, 646647, 647031, 647422, 647837, 648247, 648669, 649064, 649453, 649847, 650256, 650644, 651042, 651482, 651873, 652280, 652680, 653094, 653491, 653896, 654304, 654692]","[138, 199, 185, 182, 141, 149, 185, 176, 171, 134, 126, 142, 141, 198, 148, 155, 170, 93, 158, 86, 157, 180, 160]","[645822, 646197, 646596, 646953, 647354, 647750, 648170, 648588, 648983, 649394, 649793, 650195, 650585, 650980, 651418, 651813, 652205, 652621, 653024, 653446, 653833, 654236, 654638]","[645422, 645822, 646221, 646622, 647021, 647421, 647822, 648221, 648622, 649017, 649425, 649793, 650229, 650619, 651014, 651454, 651847, 652237, 652654, 653058, 653478, 653867, 654270, 654670]",57,SB,U,R,ITMSR,1.0,
1,600,trial,0,30,30,30,trial,"['S', 'S', 'S', 'S', 'S', 'S', 'S', 'C', 'C', 'C', 'C', 'C', 'C', 'C', 'C', 'C', 'C', 'C', 'C', 'C', 'C', 'C', 'C']","[671284, 671953, 672549, 673147, 673734, 674328, 674916, 675531, 676085, 676653, 677220, 677817, 678389, 678970, 679571, 680173, 680717, 681359, 681917, 682533, 683081, 683634, 684237]","[671369, 672033, 672645, 673222, 673827, 674438, 675027, 675636, 676214, 676787, 677340, 677943, 678523, 679051, 679659, 680281, 680819, 681454, 682043, 682620, 683181, 683751, 684349]","[25, 242, 245, 189, 208, 185, 186, 143, 206, 177, 124, 215, 185, 118, 81, 101, 124, 161, 177, 152, 160, 182, 179]","[671321, 671959, 672556, 673155, 673740, 674335, 674963, 675594, 676156, 676705, 677227, 677867, 678458, 678977, 679578, 680228, 680783, 681366, 681997, 682539, 683086, 683700, 684242]","[670924, 671523, 672123, 672723, 673324, 673924, 674524, 675124, 675569, 676123, 676691, 677259, 677856, 678427, 679009, 679610, 680212, 680756, 681398, 681956, 682571, 683119, 683672, 684275]",57,SB,U,R,ITMSR,1.0,
5,400,trial,0,31,31,31,trial,"['S', 'S', 'S', 'S', 'S', 'S', 'S', 'C', 'C', 'C', 'C', 'C', 'C', 'C', 'C', 'C', 'C', 'C', 'C', 'C', 'C', 'C', 'C']","[690168, 690574, 690987, 691400, 691796, 692205, 692548, 692999, 693369, 693771, 694141, 694536, 694913, 695334, 695680, 696095, 696498, 696876, 697267, 697667, 698077, 698460, 698860]","[690274, 690682, 691091, 691490, 691887, 692295, 692673, 693102, 693493, 693881, 694270, 694656, 695046, 695408, 695790, 696211, 696590, 696980, 697358, 697759, 698170, 698558, 698978]","[172, 5, 216, 168, 111, 78, 122, 150, 133, 103, 122, 82, 100, 63, 159, 98, 86, 141, 121, 105, 153, 205, 175]","[690206, 690619, 691028, 691407, 691832, 692241, 692588, 693039, 693412, 693778, 694149, 694606, 694952, 695373, 695719, 696103, 696504, 696883, 697274, 697674, 698084, 698502, 698900]","[689874, 690274, 690674, 691075, 691474, 691874, 692274, 692673, 693039, 693408, 693811, 694180, 694576, 694952, 695373, 695719, 696134, 696538, 696915, 697307, 697707, 698117, 698500, 698900]",57,SB,U,R,ITMSR,1.0,
4,400,trial,0,32,32,32,trial,"['S', 'S', 'S', 'S', 'S', 'S', 'S', 'C', 'C', 'C', 'C', 'C', 'C', 'C', 'C', 'C', 'C', 'C', 'C', 'C', 'C', 'C', 'C']","[704606, 704982, 705380, 705762, 706147, 706545, 706946, 707347, 707774, 708161, 708563, 708961, 709349, 709762, 710151, 710561, 710937, 711337, 711737, 712163, 712553, 712951, 713341]","[704705, 705087, 705497, 705890, 706277, 706670, 707074, 707475, 707887, 708275, 708669, 709065, 709460, 709860, 710263, 710672, 711071, 711467, 711872, 712287, 712679, 713065, 713463]","[241, 23, 251, 204, 195, 133, 170, 168, 150, 133, 195, 143, 121, 121, 145, 118, 133, 129, 201, 88, 105, 116, 112]","[704648, 704987, 705411, 705808, 706188, 706607, 707011, 707388, 707815, 708202, 708606, 708969, 709395, 709803, 710210, 710601, 710994, 711378, 711784, 712209, 712559, 712991, 713410]","[704235, 704634, 705035, 705434, 705835, 706235, 706634, 707035, 707388, 707815, 708202, 708603, 709002, 709390, 709803, 710192, 710601, 710977, 711377, 711778, 712204, 712594, 712991, 713381]",57,SB,U,R,ITMSR,1.0,
4,400,trial,0,33,33,33,trial,"['S', 'S', 'S', 'S', 'S', 'S', 'S', 'C', 'C', 'C', 'C', 'C', 'C', 'C', 'C', 'C', 'C', 'C', 'C', 'C', 'C', 'C', 'C']","[718998, 719410, 719794, 720207, 720574, 721002, 721433, 721810, 722197, 722624, 723022, 723439, 723828, 724221, 724618, 725013, 725402, 725755, 726131, 726533, 726945, 727362, 727774]","[719109, 719518, 719911, 720330, 720716, 721125, 721553, 721957, 722359, 722767, 723159, 723573, 723969, 724373, 724744, 725136, 725502, 725856, 726249, 726669, 727079, 727499, 727910]","[225, 210, 198, 236, 206, 197, 173, 184, 195, 196, 187, 151, 160, 164, 78, 41, 28, 241, 63, 91, 147, 142, 186]","[719045, 719449, 719834, 720265, 720643, 721042, 721470, 721868, 722287, 722693, 723087, 723513, 723895, 724289, 724686, 725074, 725442, 725801, 726185, 726590, 727012, 727404, 727840]","[718709, 719109, 719509, 719908, 720309, 720708, 721108, 721509, 721851, 722238, 722665, 723062, 723479, 723868, 724261, 724659, 725054, 725442, 725795, 726171, 726574, 726985, 727403, 727815]",57,SB,U,R,ITMSR,1.0,
5,600,trial,0,34,34,34,trial,"['S', 'S', 'S', 'S', 'S', 'S', 'S', 'S', 'C', 'C', 'C', 'C', 'C', 'C', 'C', 'C', 'C', 'C', 'C', 'C', 'C', 'C', 'C', 'C']","[733550, 733971, 734465, 735007, 735597, 736189, 736820, 737440, 738017, 738648, 739234, 739852, 740452, 741067, 741663, 742251, 742831, 743400, 744010, 744604, 745190, 745816, 746404, 747032]","[733652, 734036, 734543, 735105, 735682, 736305, 736919, 737541, 738106, 738728, 739339, 739905, 740537, 741153, 741766, 742344, 742943, 743533, 744110, 744721, 745319, 745923, 746549, 747194]","[127, 254, 2, 202, 206, 246, 245, 235, 0, 223, 235, 187, 230, 254, 216, 196, 248, 222, 64, 99, 8, 25, 43, 72]","[733586, 733975, 734468, 735011, 735601, 736193, 736824, 737444, 738020, 738653, 739238, 739855, 740456, 741070, 741668, 742256, 742834, 743405, 744061, 744607, 745193, 745819, 746407, 747035]","[733305, 733904, 734505, 735105, 735706, 736305, 736905, 737505, 738057, 738688, 739273, 739892, 740492, 741106, 741702, 742291, 742871, 743440, 744049, 744643, 745230, 745856, 746443, 747072]",57,SB,U,R,ITMSR,1.0,
2,400,trial,0,35,35,35,trial,"['S', 'S', 'S', 'S', 'S', 'S', 'S', 'C', 'C', 'C', 'C', 'C', 'C', 'C', 'C', 'C', 'C', 'C', 'C', 'C', 'C', 'C', 'C']","[752918, 753259, 753600, 753995, 754411, 754859, 755225, 755620, 756036, 756431, 756824, 757225, 757635, 758002, 758448, 758849, 759250, 759671, 760039, 760482, 760896, 761313, 761722]","[752985, 753332, 753686, 754096, 754509, 754923, 755336, 755697, 756117, 756507, 756930, 757325, 757714, 758089, 758521, 758967, 759363, 759764, 760153, 760600, 761004, 761416, 761829]","[116, 163, 210, 205, 195, 91, 184, 196, 164, 153, 117, 151, 161, 164, 236, 183, 212, 122, 212, 31, 190, 161, 231]","[752923, 753264, 753604, 754000, 754415, 754859, 755230, 755624, 756041, 756436, 756828, 757229, 757639, 758006, 758451, 758852, 759254, 759675, 760043, 760486, 760899, 761317, 761725]","[752459, 752859, 753259, 753658, 754059, 754458, 754859, 755259, 755660, 756076, 756471, 756865, 757266, 757676, 758042, 758489, 758890, 759290, 759711, 760080, 760522, 760937, 761354, 761762]",57,SB,U,R,ITMSR,1.0,
2,600,trial,0,36,36,36,trial,"['S', 'S', 'S', 'S', 'S', 'S', 'S', 'S', 'C', 'C', 'C', 'C', 'C', 'C', 'C', 'C', 'C', 'C', 'C', 'C', 'C', 'C', 'C', 'C']","[767403, 767749, 768245, 768839, 769430, 770039, 770650, 771237, 771812, 772387, 772982, 773547, 774107, 774654, 775213, 775772, 776371, 776944, 777539, 778127, 778703, 779304, 779879, 780453]","[767495, 767851, 768360, 768948, 769541, 770148, 770737, 771341, 771938, 772506, 773099, 773686, 774253, 774814, 775413, 776007, 776612, 777199, 777784, 778378, 778937, 779505, 780139, 780710]","[125, 96, 138, 140, 188, 143, 84, 79, 179, 201, 191, 147, 139, 123, 149, 175, 183, 196, 204, 213, 214, 241, 7, 237]","[767458, 767755, 768251, 768896, 769490, 770044, 770657, 771245, 771818, 772392, 772988, 773553, 774113, 774661, 775333, 775889, 776508, 776948, 777543, 778251, 778829, 779309, 779883, 780457]","[767132, 767732, 768332, 768932, 769532, 770132, 770733, 771333, 771853, 772427, 773022, 773587, 774148, 774694, 775254, 775813, 776412, 776984, 777580, 778168, 778743, 779344, 779920, 780493]",57,SB,U,R,ITMSR,1.0,
3,600,trial,0,37,37,37,trial,"['S', 'S', 'S', 'S', 'S', 'S', 'S', 'C', 'C', 'C', 'C', 'C', 'C', 'C', 'C', 'C', 'C', 'C', 'C', 'C', 'C', 'C', 'C']","[786487, 787073, 787670, 788295, 788873, 789470, 790080, 790650, 791277, 791856, 792494, 793042, 793604, 794187, 794745, 795289, 795886, 796454, 796984, 797583, 798120, 798730, 799287]","[786607, 787154, 787779, 788414, 789007, 789607, 790207, 790800, 791421, 791991, 792592, 793163, 793720, 794310, 794866, 795402, 796013, 796555, 797089, 797711, 798294, 798909, 799490]","[140, 58, 128, 100, 98, 123, 97, 92, 116, 166, 24, 38, 120, 67, 115, 90, 116, 90, 58, 156, 170, 86, 141]","[786531, 787081, 787729, 788359, 788879, 789477, 790087, 790656, 791282, 791860, 792538, 793048, 793608, 794193, 794750, 795295, 795892, 796460, 796990, 797588, 798125, 798736, 799292]","[786008, 786607, 787207, 787807, 788407, 789007, 789607, 790207, 790688, 791317, 791896, 792534, 793081, 793644, 794226, 794784, 795328, 795925, 796493, 797024, 797623, 798158, 798769, 799326]",57,SB,U,R,ITMSR,1.0,
1,400,trial,0,38,38,38,trial,"['S', 'S', 'S', 'S', 'S', 'S', 'S', 'C', 'C', 'C', 'C', 'C', 'C', 'C', 'C', 'C', 'C', 'C', 'C', 'C', 'C', 'C', 'C']","[805311, 805683, 806044, 806451, 806835, 807243, 807609, 808034, 808444, 808860, 809269, 809650, 810033, 810429, 810819, 811228, 811630, 812044, 812443, 812865, 813238, 813632, 814036]","[805385, 805750, 806112, 806546, 806934, 807343, 807721, 808121, 808549, 808937, 809344, 809751, 810120, 810509, 810919, 811308, 811731, 812136, 812555, 812971, 813343, 813734, 814142]","[20, 43, 210, 175, 231, 194, 198, 239, 215, 114, 232, 156, 214, 168, 163, 158, 158, 190, 161, 203, 68, 9, 223]","[805320, 805683, 806049, 806456, 806840, 807247, 807613, 808037, 808449, 808865, 809272, 809656, 810038, 810433, 810822, 811232, 811633, 812047, 812447, 812868, 813242, 813635, 814042]","[804884, 805282, 805683, 806082, 806482, 806883, 807282, 807683, 808073, 808482, 808898, 809308, 809689, 810072, 810468, 810858, 811267, 811668, 812083, 812481, 812904, 813277, 813671, 814074]",57,SB,U,R,ITMSR,1.0,
3,600,trial,0,39,39,39,trial,"['S', 'S', 'S', 'S', 'S', 'S', 'S', 'S', 'C', 'C', 'C', 'C', 'C', 'C', 'C', 'C', 'C', 'C', 'C', 'C', 'C', 'C', 'C', 'C']","[819709, 820021, 820567, 821150, 821731, 822341, 822976, 823583, 824154, 824780, 825358, 825936, 826555, 827115, 827728, 828318, 828892, 829471, 830120, 830699, 831268, 831844, 832415, 832978]","[819764, 820100, 820665, 821218, 821814, 822445, 823045, 823678, 824258, 824891, 825463, 826039, 826658, 827255, 827867, 828463, 829043, 829634, 830229, 830865, 831429, 832023, 832612, 833234]","[70, 90, 127, 12, 76, 109, 40, 159, 168, 164, 125, 124, 151, 131, 162, 190, 189, 160, 152, 170, 174, 140, 158, 178]","[819714, 820023, 820572, 821156, 821738, 822347, 822982, 823623, 824160, 824784, 825362, 825942, 826559, 827192, 827732, 828324, 828896, 829475, 830125, 830799, 831369, 831847, 832518, 832982]","[819445, 820044, 820644, 821244, 821844, 822445, 823045, 823645, 824194, 824818, 825397, 825974, 826595, 827155, 827767, 828356, 828932, 829510, 830158, 830738, 831307, 831884, 832454, 833017]",57,SB,U,R,ITMSR,1.0,
4,600,trial,0,40,40,40,trial,"['S', 'S', 'S', 'S', 'S', 'S', 'S', 'S', 'C', 'C', 'C', 'C', 'C', 'C', 'C', 'C', 'C', 'C', 'C', 'C', 'C', 'C', 'C', 'C']","[839105, 839503, 839948, 840500, 841113, 841717, 842333, 842925, 843480, 844056, 844633, 845202, 845768, 846353, 846908, 847489, 848052, 848666, 849211, 849766, 850301, 850906, 851440, 852067]","[839204, 839592, 840046, 840587, 841231, 841822, 842429, 843041, 843586, 844163, 844749, 845330, 845899, 846462, 847031, 847621, 848207, 848823, 849389, 849942, 850466, 851088, 851682, 852293]","[101, 73, 154, 122, 139, 102, 63, 103, 83, 41, 110, 127, 157, 174, 180, 166, 222, 182, 203, 125, 147, 140, 172, 199]","[839153, 839542, 839989, 840544, 841167, 841766, 842339, 842987, 843523, 844061, 844636, 845207, 845773, 846357, 846911, 847493, 848056, 848671, 849215, 849869, 850307, 850910, 851444, 852070]","[838822, 839421, 840022, 840622, 841222, 841822, 842422, 843022, 843521, 844097, 844674, 845243, 845808, 846394, 846949, 847529, 848093, 848706, 849252, 849807, 850341, 850947, 851480, 852108]",57,SB,U,R,ITMSR,1.0,
2,600,trial,0,41,41,41,trial,"['S', 'S', 'S', 'S', 'S', 'S', 'S', 'S', 'C', 'C', 'C', 'C', 'C', 'C', 'C', 'C', 'C', 'C', 'C', 'C', 'C', 'C', 'C', 'C']","[857921, 858293, 858733, 859270, 859860, 860455, 861063, 861641, 862255, 862806, 863366, 863909, 864493, 865083, 865641, 866234, 866770, 867325, 867891, 868445, 869021, 869574, 870116, 870718]","[858011, 858392, 858807, 859363, 859965, 860571, 861161, 861757, 862373, 862929, 863501, 864060, 864651, 865218, 865772, 866411, 866975, 867521, 868096, 868685, 869266, 869837, 870360, 870914]","[241, 68, 10, 35, 59, 87, 74, 113, 121, 153, 127, 76, 166, 94, 163, 177, 189, 186, 156, 142, 85, 123, 126, 118]","[857966, 858339, 858740, 859277, 859908, 860520, 861110, 861646, 862324, 862810, 863370, 863913, 864496, 865160, 865646, 866239, 866776, 867330, 867896, 868575, 869114, 869578, 870274, 870836]","[857604, 858204, 858804, 859404, 860004, 860604, 861204, 861804, 862296, 862846, 863407, 863949, 864534, 865124, 865682, 866275, 866810, 867365, 867932, 868486, 869061, 869614, 870157, 870759]",57,SB,U,R,ITMSR,1.0,
4,600,trial,0,42,42,42,trial,"['S', 'S', 'S', 'S', 'S', 'S', 'S', 'S', 'C', 'C', 'C', 'C', 'C', 'C', 'C', 'C', 'C', 'C', 'C', 'C', 'C', 'C', 'C', 'C']","[876661, 876948, 877456, 878083, 878683, 879291, 879839, 880432, 881080, 881647, 882207, 882766, 883335, 883855, 884407, 884972, 885512, 886076, 886668, 887246, 887803, 888361, 888907, 889507]","[876742, 877071, 877560, 878196, 878796, 879404, 879996, 880596, 881203, 881786, 882337, 882918, 883471, 884006, 884581, 885153, 885701, 886294, 886891, 887434, 888027, 888596, 889168, 889742]","[246, 101, 140, 102, 118, 124, 103, 54, 91, 16, 130, 52, 182, 69, 135, 83, 146, 185, 178, 136, 207, 120, 76, 248]","[876698, 877017, 877460, 878131, 878689, 879298, 879917, 880506, 881087, 881654, 882211, 882770, 883341, 883859, 884411, 884976, 885516, 886080, 886672, 887250, 887806, 888480, 888912, 889511]","[876396, 876996, 877596, 878196, 878796, 879396, 879996, 880596, 881121, 881687, 882247, 882806, 883376, 883896, 884448, 885013, 885553, 886117, 886709, 887286, 887843, 888401, 888947, 889547]",57,SB,U,R,ITMSR,1.0,
2,400,trial,0,43,43,43,trial,"['S', 'S', 'S', 'S', 'S', 'S', 'S', 'C', 'C', 'C', 'C', 'C', 'C', 'C', 'C', 'C', 'C', 'C', 'C', 'C', 'C', 'C', 'C']","[895329, 895759, 896122, 896505, 896903, 897291, 897689, 898099, 898526, 898921, 899331, 899727, 900131, 900540, 900932, 901339, 901719, 902138, 902550, 902980, 903382, 903794, 904201]","[895426, 895850, 896215, 896601, 896990, 897391, 897785, 898196, 898619, 899033, 899434, 899842, 900245, 900640, 901041, 901440, 901846, 902257, 902663, 903077, 903500, 903873, 904313]","[157, 101, 132, 158, 235, 220, 209, 210, 123, 25, 246, 240, 203, 219, 237, 227, 179, 155, 214, 184, 136, 198, 195]","[895371, 895763, 896126, 896509, 896906, 897295, 897692, 898102, 898530, 898924, 899334, 899730, 900135, 900543, 900936, 901343, 901724, 902141, 902554, 902984, 903385, 903799, 904205]","[894954, 895353, 895754, 896153, 896553, 896954, 897353, 897754, 898140, 898567, 898962, 899372, 899768, 900171, 900581, 900972, 901380, 901760, 902178, 902591, 903020, 903422, 903834, 904242]",57,SB,U,R,ITMSR,1.0,
1,400,trial,0,44,44,44,trial,"['S', 'S', 'S', 'S', 'S', 'S', 'S', 'C', 'C', 'C', 'C', 'C', 'C', 'C', 'C', 'C', 'C', 'C', 'C', 'C', 'C', 'C', 'C']","[909971, 910397, 910782, 911199, 911605, 911997, 912406, 912818, 913223, 913617, 913979, 914413, 914818, 915214, 915631, 916031, 916448, 916823, 917219, 917654, 918054, 918446, 918873]","[910044, 910492, 910879, 911293, 911705, 912112, 912512, 912931, 913334, 913739, 914102, 914528, 914944, 915358, 915769, 916188, 916587, 916980, 917390, 917793, 918214, 918604, 918990]","[43, 114, 250, 5, 253, 254, 9, 252, 207, 222, 191, 194, 192, 212, 244, 16, 201, 12, 224, 12, 26, 2, 234]","[909978, 910402, 910785, 911202, 911608, 912001, 912410, 912821, 913226, 913622, 913982, 914418, 914823, 915217, 915635, 916033, 916451, 916826, 917223, 917658, 918057, 918450, 918877]","[909674, 910074, 910475, 910874, 911275, 911675, 912074, 912475, 912857, 913261, 913655, 914018, 914452, 914856, 915253, 915670, 916070, 916487, 916861, 917258, 917693, 918092, 918484, 918912]",57,SB,U,R,ITMSR,1.0,
0,400,trial,0,45,45,45,trial,"['S', 'S', 'S', 'S', 'S', 'S', 'S', 'C', 'C', 'C', 'C', 'C', 'C', 'C', 'C', 'C', 'C', 'C', 'C', 'C', 'C', 'C', 'C']","[924817, 925200, 925574, 925982, 926369, 926809, 927194, 927603, 928007, 928389, 928811, 929208, 929604, 929995, 930385, 930799, 931191, 931565, 931958, 932379, 932767, 933168, 933591]","[924906, 925287, 925684, 926093, 926495, 926928, 927321, 927729, 928119, 928524, 928927, 929331, 929733, 930129, 930522, 930922, 931318, 931702, 932108, 932514, 932910, 933326, 933738]","[28, 191, 237, 236, 17, 226, 242, 234, 208, 206, 179, 226, 193, 204, 139, 184, 210, 220, 206, 245, 224, 2, 238]","[924867, 925205, 925577, 925985, 926372, 926812, 927197, 927606, 928011, 928392, 928815, 929212, 929608, 929999, 930390, 930803, 931194, 931570, 931963, 932382, 932770, 933171, 933595]","[924454, 924854, 925253, 925654, 926054, 926453, 926854, 927254, 927643, 928048, 928430, 928851, 929249, 929644, 930035, 930425, 930839, 931231, 931606, 931998, 932419, 932807, 933209, 933632]",57,SB,U,R,ITMSR,1.0,
5,400,trial,0,46,46,46,trial,"['S', 'S', 'S', 'S', 'S', 'S', 'S', 'C', 'C', 'C', 'C', 'C', 'C', 'C', 'C', 'C', 'C', 'C', 'C', 'C', 'C', 'C', 'C']","[939426, 939882, 940283, 940696, 941087, 941504, 941882, 942305, 942688, 943107, 943491, 943897, 944291, 944692, 945104, 945500, 945915, 946300, 946695, 947089, 947481, 947876, 948316]","[939508, 939966, 940370, 940775, 941173, 941585, 941977, 942376, 942798, 943209, 943605, 944004, 944427, 944837, 945231, 945622, 946033, 946446, 946822, 947207, 947602, 947989, 948427]","[243, 200, 249, 2, 248, 190, 248, 197, 236, 224, 215, 252, 5, 223, 239, 246, 255, 202, 189, 216, 235, 13, 226]","[939433, 939886, 940286, 940699, 941091, 941508, 941886, 942309, 942691, 943110, 943495, 943900, 944294, 944695, 945108, 945503, 945918, 946305, 946699, 947092, 947484, 947880, 948319]","[939164, 939564, 939965, 940363, 940764, 941163, 941563, 941964, 942345, 942728, 943147, 943531, 943936, 944330, 944732, 945143, 945540, 945954, 946339, 946735, 947129, 947520, 947915, 948356]",57,SB,U,R,ITMSR,1.0,
5,600,trial,0,47,47,47,trial,"['S', 'S', 'S', 'S', 'S', 'S', 'S', 'S', 'C', 'C', 'C', 'C', 'C', 'C', 'C', 'C', 'C', 'C', 'C', 'C', 'C', 'C', 'C', 'C']","[954080, 954447, 954942, 955492, 956109, 956708, 957303, 957932, 958533, 959119, 959714, 960264, 960857, 961461, 962079, 962677, 963246, 963827, 964427, 964987, 965558, 966155, 966718, 967276]","[954128, 954537, 955042, 955563, 956163, 956803, 957401, 958026, 958650, 959260, 959826, 960363, 960974, 961580, 962209, 962827, 963448, 964035, 964649, 965259, 965828, 966412, 966973, 967522]","[208, 203, 164, 201, 190, 232, 219, 233, 251, 220, 167, 154, 191, 251, 220, 10, 27, 239, 26, 41, 39, 25, 50, 63]","[954086, 954452, 954947, 955495, 956114, 956711, 957306, 957935, 958536, 959122, 959718, 960268, 960861, 961464, 962083, 962679, 963249, 963830, 964430, 964990, 965561, 966158, 966720, 967279]","[953794, 954393, 954993, 955594, 956193, 956793, 957393, 957993, 958572, 959159, 959754, 960304, 960897, 961501, 962118, 962716, 963286, 963866, 964466, 965026, 965598, 966195, 966758, 967316]",57,SB,U,R,ITMSR,1.0,
1,600,trial,0,48,48,48,trial,"['S', 'S', 'S', 'S', 'S', 'S', 'S', 'S', 'C', 'C', 'C', 'C', 'C', 'C', 'C', 'C', 'C', 'C', 'C', 'C', 'C', 'C', 'C', 'C']","[973207, 973621, 974069, 974558, 975149, 975764, 976381, 977011, 977622, 978253, 978844, 979438, 980016, 980614, 981286, 981889, 982429, 983021, 983576, 984189, 984773, 985347, 985979, 986555]","[973286, 973721, 974166, 974695, 975308, 975937, 976547, 977141, 977755, 978362, 978970, 979571, 980143, 980770, 981415, 982026, 982596, 983166, 983733, 984346, 984960, 985523, 986081, 986716]","[197, 148, 43, 220, 227, 203, 235, 225, 224, 23, 236, 25, 32, 3, 172, 214, 42, 166, 159, 198, 47, 21, 186, 56]","[973212, 973625, 974100, 974562, 975152, 975768, 976385, 977015, 977625, 978256, 978849, 979440, 980019, 980616, 981292, 981892, 982431, 983025, 983579, 984193, 984776, 985350, 985985, 986558]","[972870, 973469, 974069, 974669, 975269, 975869, 976470, 977070, 977660, 978291, 978882, 979476, 980055, 980653, 981324, 981927, 982467, 983060, 983615, 984227, 984811, 985385, 986017, 986594]",57,SB,U,R,ITMSR,1.0,
0,400,trial,0,49,49,49,trial,"['S', 'S', 'S', 'S', 'S', 'S', 'C', 'C', 'C', 'C', 'C', 'C', 'C', 'C', 'C', 'C', 'C', 'C', 'C', 'C', 'C', 'C']","[992707, 993067, 993468, 993887, 994291, 994705, 995105, 995492, 995890, 996267, 996666, 997047, 997452, 997827, 998250, 998637, 999031, 999409, 999801, 1000178, 1000558, 1000961]","[992789, 993175, 993594, 994034, 994469, 994889, 995273, 995664, 996065, 996444, 996850, 997237, 997639, 998032, 998424, 998819, 999186, 999559, 999944, 1000318, 1000719, 1001118]","[69, 24, 79, 87, 89, 96, 64, 45, 46, 54, 56, 67, 41, 65, 72, 74, 59, 254, 24, 45, 4, 23]","[992746, 993072, 993472, 993890, 994294, 994709, 995108, 995495, 995894, 996270, 996670, 997050, 997455, 997830, 998253, 998640, 999034, 999413, 999803, 1000181, 1000561, 1000964]","[991974, 992372, 992773, 993173, 993572, 993973, 994372, 994772, 995145, 995532, 995931, 996307, 996707, 997088, 997492, 997868, 998291, 998678, 999071, 999449, 999841, 1000218, 1000598, 1001001]",57,SB,U,R,ITMSR,1.0,
3,400,trial,0,50,50,50,trial,"['S', 'S', 'S', 'S', 'S', 'S', 'S', 'C', 'C', 'C', 'C', 'C', 'C', 'C', 'C', 'C', 'C', 'C', 'C', 'C', 'C', 'C', 'C']","[1006929, 1007349, 1007764, 1008166, 1008567, 1008974, 1009377, 1009785, 1010193, 1010584, 1010981, 1011397, 1011790, 1012196, 1012558, 1013000, 1013373, 1013781, 1014181, 1014585, 1014988, 1015392, 1015799]","[1007030, 1007444, 1007857, 1008295, 1008723, 1009152, 1009534, 1009930, 1010347, 1010766, 1011168, 1011576, 1011958, 1012303, 1012697, 1013076, 1013494, 1013919, 1014319, 1014715, 1015110, 1015511, 1015932]","[126, 240, 55, 86, 91, 84, 77, 46, 82, 70, 66, 62, 60, 63, 64, 98, 104, 106, 95, 118, 106, 108, 121]","[1006974, 1007353, 1007767, 1008169, 1008571, 1008977, 1009381, 1009787, 1010195, 1010586, 1010984, 1011400, 1011793, 1012199, 1012561, 1013003, 1013377, 1013783, 1014183, 1014588, 1014990, 1015394, 1015802]","[1006630, 1007030, 1007429, 1007830, 1008230, 1008629, 1009030, 1009429, 1009824, 1010232, 1010624, 1011020, 1011436, 1011828, 1012236, 1012597, 1013039, 1013412, 1013821, 1014219, 1014625, 1015027, 1015432, 1015838]",57,SB,U,R,ITMSR,1.0,
0,600,trial,0,51,51,51,trial,"['S', 'S', 'S', 'S', 'S', 'S', 'S', 'S', 'C', 'C', 'C', 'C', 'C', 'C', 'C', 'C', 'C', 'C', 'C', 'C', 'C', 'C', 'C', 'C']","[1021553, 1021821, 1022416, 1022995, 1023580, 1024184, 1024824, 1025409, 1026031, 1026608, 1027201, 1027799, 1028392, 1028973, 1029569, 1030178, 1030767, 1031347, 1031926, 1032558, 1033122, 1033679, 1034234, 1034822]","[1021634, 1021960, 1022523, 1023087, 1023664, 1024266, 1024920, 1025519, 1026142, 1026752, 1027347, 1027963, 1028538, 1029155, 1029785, 1030411, 1031033, 1031624, 1032214, 1032797, 1033318, 1033924, 1034489, 1035090]","[82, 39, 211, 164, 207, 45, 29, 5, 47, 247, 28, 27, 31, 31, 43, 47, 56, 16, 30, 12, 219, 244, 214, 34]","[1021558, 1021826, 1022420, 1023000, 1023584, 1024187, 1024828, 1025412, 1026035, 1026612, 1027204, 1027803, 1028396, 1028977, 1029572, 1030180, 1030770, 1031350, 1031930, 1032561, 1033225, 1033682, 1034237, 1034825]","[1021360, 1021960, 1022560, 1023160, 1023760, 1024360, 1024960, 1025559, 1026071, 1026649, 1027241, 1027840, 1028432, 1029014, 1029610, 1030218, 1030807, 1031388, 1031966, 1032598, 1033162, 1033719, 1034274, 1034862]",57,SB,U,R,ITMSR,1.0,
0,600,trial,0,52,52,52,trial,"['S', 'S', 'S', 'S', 'S', 'S', 'S', 'C', 'C', 'C', 'C', 'C', 'C', 'C', 'C', 'C', 'C', 'C', 'C', 'C', 'C', 'C', 'C']","[1040760, 1041295, 1041885, 1042525, 1043095, 1043736, 1044305, 1044920, 1045493, 1046057, 1046626, 1047201, 1047777, 1048360, 1048892, 1049503, 1050107, 1050660, 1051208, 1051730, 1052324, 1052882, 1053450]","[1040809, 1041363, 1041963, 1042597, 1043193, 1043826, 1044421, 1045025, 1045604, 1046172, 1046744, 1047321, 1047898, 1048457, 1049022, 1049616, 1050198, 1050747, 1051301, 1051845, 1052413, 1053000, 1053538]","[93, 164, 190, 224, 191, 7, 204, 203, 197, 231, 192, 239, 155, 220, 26, 20, 225, 155, 210, 249, 236, 20, 23]","[1040764, 1041299, 1041889, 1042529, 1043100, 1043739, 1044308, 1044924, 1045497, 1046061, 1046629, 1047205, 1047782, 1048364, 1048895, 1049506, 1050110, 1050664, 1051212, 1051734, 1052327, 1052886, 1053452]","[1040288, 1040888, 1041488, 1042088, 1042689, 1043289, 1043889, 1044489, 1044961, 1045533, 1046097, 1046667, 1047241, 1047818, 1048400, 1048933, 1049543, 1050147, 1050700, 1051248, 1051770, 1052364, 1052922, 1053491]",57,SB,U,R,ITMSR,1.0,
3,400,trial,0,53,53,53,trial,"['S', 'S', 'S', 'S', 'S', 'S', 'S', 'C', 'C', 'C', 'C', 'C', 'C', 'C', 'C', 'C', 'C', 'C', 'C', 'C', 'C', 'C', 'C']","[1059582, 1060014, 1060416, 1060823, 1061225, 1061643, 1062028, 1062436, 1062856, 1063255, 1063642, 1064020, 1064426, 1064823, 1065235, 1065620, 1066010, 1066406, 1066812, 1067218, 1067609, 1068001, 1068405]","[1059658, 1060110, 1060509, 1060910, 1061310, 1061732, 1062113, 1062518, 1062963, 1063365, 1063755, 1064185, 1064589, 1064975, 1065357, 1065771, 1066170, 1066590, 1066987, 1067402, 1067722, 1068139, 1068613]","[18, 113, 98, 129, 98, 122, 171, 184, 137, 172, 175, 149, 133, 145, 161, 175, 166, 136, 160, 166, 161, 166, 201]","[1059619, 1060019, 1060421, 1060828, 1061232, 1061648, 1062033, 1062440, 1062861, 1063258, 1063645, 1064025, 1064429, 1064827, 1065239, 1065624, 1066014, 1066411, 1066816, 1067223, 1067613, 1068005, 1068409]","[1059310, 1059709, 1060110, 1060509, 1060910, 1061310, 1061709, 1062110, 1062474, 1062895, 1063293, 1063682, 1064059, 1064466, 1064861, 1065274, 1065659, 1066049, 1066445, 1066851, 1067256, 1067649, 1068041, 1068443]",57,SB,U,R,ITMSR,1.0,
2,600,trial,0,54,54,54,trial,"['S', 'S', 'S', 'S', 'S', 'S', 'S', 'S', 'C', 'C', 'C', 'C', 'C', 'C', 'C', 'C', 'C', 'C', 'C', 'C', 'C', 'C', 'C', 'C']","[1108853, 1109091, 1109698, 1110276, 1110851, 1111434, 1112049, 1112629, 1113264, 1113852, 1114409, 1115008, 1115585, 1116179, 1116753, 1117337, 1117905, 1118508, 1119096, 1119662, 1120219, 1120802, 1121409, 1121951]","[1108927, 1109177, 1109777, 1110325, 1110931, 1111501, 1112123, 1112719, 1113349, 1113924, 1114513, 1115111, 1115688, 1116257, 1116865, 1117452, 1118022, 1118640, 1119227, 1119801, 1120356, 1120955, 1121607, 1122215]","[144, 243, 186, 86, 151, 66, 40, 19, 85, 252, 31, 10, 8, 63, 103, 57, 147, 89, 93, 106, 60, 95, 160, 154]","[1108889, 1109096, 1109704, 1110281, 1110857, 1111441, 1112056, 1112636, 1113270, 1113860, 1114417, 1115016, 1115592, 1116184, 1116759, 1117344, 1117910, 1118513, 1119100, 1119741, 1120225, 1120807, 1121414, 1121956]","[1108578, 1109177, 1109777, 1110377, 1110977, 1111577, 1112177, 1112777, 1113305, 1113892, 1114449, 1115048, 1115626, 1116220, 1116793, 1117377, 1117945, 1118548, 1119136, 1119703, 1120260, 1120842, 1121449, 1121991]",57,SB,U,R,ITMSR,1.0,
1,400,trial,0,55,55,55,trial,"['S', 'S', 'S', 'S', 'S', 'S', 'S', 'C', 'C', 'C', 'C', 'C', 'C', 'C', 'C', 'C', 'C', 'C', 'C', 'C', 'C', 'C', 'C']","[1127604, 1128037, 1128419, 1128858, 1129251, 1129648, 1130087, 1130464, 1130847, 1131261, 1131636, 1132035, 1132433, 1132828, 1133244, 1133645, 1134023, 1134445, 1134832, 1135227, 1135617, 1136027, 1136428]","[1127704, 1128144, 1128523, 1128948, 1129351, 1129757, 1130169, 1130578, 1130953, 1131356, 1131757, 1132157, 1132542, 1132946, 1133343, 1133752, 1134155, 1134553, 1134943, 1135333, 1135700, 1136119, 1136526]","[57, 102, 202, 61, 69, 70, 116, 90, 108, 89, 44, 36, 57, 44, 71, 53, 60, 85, 84, 82, 38, 97, 88]","[1127610, 1128042, 1128424, 1128864, 1129257, 1129652, 1130092, 1130469, 1130853, 1131267, 1131640, 1132041, 1132438, 1132833, 1133248, 1133650, 1134028, 1134449, 1134837, 1135232, 1135622, 1136031, 1136433]","[1127346, 1127744, 1128144, 1128545, 1128944, 1129345, 1129745, 1130144, 1130503, 1130886, 1131299, 1131674, 1132073, 1132472, 1132866, 1133283, 1133683, 1134061, 1134484, 1134870, 1135265, 1135655, 1136065, 1136466]",57,SB,U,R,ITMSR,1.0,
0,600,trial,0,56,56,56,trial,"['S', 'S', 'S', 'S', 'S', 'S', 'S', 'S', 'C', 'C', 'C', 'C', 'C', 'C', 'C', 'C', 'C', 'C', 'C', 'C', 'C', 'C', 'C', 'C']","[1142656, 1143014, 1143417, 1143963, 1144570, 1145136, 1145766, 1146349, 1146958, 1147528, 1148118, 1148652, 1149214, 1149743, 1150310, 1150839, 1151409, 1151956, 1152537, 1153088, 1153657, 1154204, 1154782, 1155306]","[1142752, 1143102, 1143507, 1144034, 1144620, 1145211, 1145836, 1146447, 1147039, 1147642, 1148207, 1148753, 1149299, 1149861, 1150400, 1150948, 1151490, 1152057, 1152642, 1153214, 1153768, 1154330, 1154908, 1155449]","[90, 88, 126, 95, 50, 66, 26, 64, 33, 252, 104, 89, 75, 62, 71, 105, 86, 157, 105, 82, 76, 110, 127, 59]","[1142662, 1143021, 1143422, 1143969, 1144577, 1145141, 1145772, 1146354, 1146966, 1147536, 1148122, 1148657, 1149220, 1149749, 1150316, 1150845, 1151416, 1151961, 1152542, 1153094, 1153662, 1154209, 1154787, 1155310]","[1142281, 1142881, 1143481, 1144081, 1144681, 1145281, 1145881, 1146481, 1146998, 1147569, 1148158, 1148693, 1149254, 1149784, 1150351, 1150879, 1151450, 1151996, 1152577, 1153129, 1153697, 1154244, 1154823, 1155347]",57,SB,U,R,ITMSR,1.0,
3,400,trial,0,57,57,57,trial,"['S', 'S', 'S', 'S', 'S', 'S', 'S', 'C', 'C', 'C', 'C', 'C', 'C', 'C', 'C', 'C', 'C', 'C', 'C', 'C', 'C', 'C', 'C']","[1160911, 1161316, 1161742, 1162151, 1162543, 1162981, 1163387, 1163805, 1164209, 1164608, 1165008, 1165393, 1165793, 1166203, 1166583, 1166984, 1167397, 1167777, 1168184, 1168582, 1168968, 1169342, 1169741]","[1161000, 1161410, 1161824, 1162224, 1162631, 1163070, 1163475, 1163891, 1164304, 1164713, 1165103, 1165516, 1165915, 1166315, 1166692, 1167110, 1167502, 1167902, 1168307, 1168698, 1169075, 1169471, 1169881]","[37, 123, 177, 216, 205, 193, 223, 167, 206, 176, 161, 195, 188, 196, 241, 175, 241, 207, 172, 203, 182, 71, 254]","[1160960, 1161322, 1161746, 1162157, 1162548, 1162985, 1163392, 1163810, 1164213, 1164612, 1165014, 1165398, 1165797, 1166208, 1166587, 1166988, 1167401, 1167780, 1168189, 1168585, 1168972, 1169347, 1169745]","[1160657, 1161057, 1161456, 1161857, 1162257, 1162656, 1163057, 1163456, 1163844, 1164248, 1164648, 1165047, 1165432, 1165832, 1166242, 1166621, 1167023, 1167435, 1167815, 1168223, 1168621, 1169006, 1169382, 1169780]",57,SB,U,R,ITMSR,1.0,
4,600,trial,0,58,58,58,trial,"['S', 'S', 'S', 'S', 'S', 'S', 'S', 'S', 'C', 'C', 'C', 'C', 'C', 'C', 'C', 'C', 'C', 'C', 'C', 'C', 'C', 'C', 'C', 'C']","[1175593, 1175918, 1176504, 1177091, 1177688, 1178278, 1178867, 1179487, 1180097, 1180678, 1181294, 1181880, 1182475, 1183062, 1183645, 1184240, 1184833, 1185441, 1186058, 1186627, 1187235, 1187837, 1188408, 1188943]","[1175669, 1176016, 1176586, 1177166, 1177769, 1178364, 1178957, 1179556, 1180170, 1180769, 1181371, 1181965, 1182561, 1183157, 1183748, 1184327, 1184930, 1185536, 1186167, 1186717, 1187322, 1187927, 1188492, 1189016]","[84, 212, 207, 185, 160, 161, 156, 216, 121, 201, 165, 229, 218, 210, 222, 21, 26, 54, 14, 34, 59, 216, 22, 72]","[1175600, 1175923, 1176509, 1177096, 1177692, 1178284, 1178871, 1179491, 1180101, 1180682, 1181298, 1181884, 1182478, 1183066, 1183649, 1184244, 1184836, 1185444, 1186062, 1186631, 1187238, 1187841, 1188411, 1188946]","[1175356, 1175956, 1176556, 1177156, 1177756, 1178356, 1178956, 1179556, 1180138, 1180719, 1181334, 1181921, 1182516, 1183102, 1183685, 1184280, 1184874, 1185481, 1186099, 1186668, 1187275, 1187877, 1188449, 1188983]",57,SB,U,R,ITMSR,1.0,
0,400,trial,0,59,59,59,trial,"['S', 'S', 'S', 'S', 'S', 'S', 'S', 'S', 'C', 'C', 'C', 'C', 'C', 'C', 'C', 'C', 'C', 'C', 'C', 'C', 'C', 'C', 'C', 'C']","[1194668, 1194998, 1195285, 1195637, 1196057, 1196424, 1196797, 1197196, 1197595, 1197967, 1198372, 1198764, 1199154, 1199547, 1199926, 1200335, 1200750, 1201164, 1201546, 1201941, 1202335, 1202738, 1203121, 1203519]","[1194740, 1195081, 1195365, 1195727, 1196124, 1196522, 1196894, 1197285, 1197704, 1198092, 1198503, 1198887, 1199265, 1199646, 1200046, 1200438, 1200865, 1201287, 1201666, 1202062, 1202470, 1202837, 1203229, 1203642]","[29, 147, 135, 247, 213, 221, 214, 14, 192, 175, 243, 201, 35, 240, 30, 14, 247, 5, 233, 2, 3, 207, 230, 234]","[1194711, 1195002, 1195289, 1195640, 1196060, 1196428, 1196801, 1197199, 1197598, 1197971, 1198376, 1198767, 1199157, 1199551, 1199928, 1200338, 1200753, 1201168, 1201549, 1201944, 1202339, 1202740, 1203125, 1203522]","[1194484, 1194885, 1195285, 1195684, 1196085, 1196484, 1196884, 1197285, 1197635, 1198008, 1198412, 1198804, 1199195, 1199588, 1199967, 1200375, 1200790, 1201205, 1201587, 1201982, 1202375, 1202779, 1203162, 1203560]",57,SB,U,R,ITMSR,1.0,
2,400,trial,0,60,60,60,trial,"['S', 'S', 'S', 'S', 'S', 'S', 'S', 'C', 'C', 'C', 'C', 'C', 'C', 'C', 'C', 'C', 'C', 'C', 'C', 'C', 'C', 'C', 'C']","[1209410, 1209805, 1210199, 1210598, 1210990, 1211394, 1211797, 1212205, 1212633, 1213050, 1213450, 1213853, 1214241, 1214661, 1215069, 1215496, 1215881, 1216293, 1216697, 1217089, 1217515, 1217917, 1218332]","[1209519, 1209887, 1210256, 1210676, 1211068, 1211478, 1211885, 1212307, 1212745, 1213150, 1213541, 1213937, 1214320, 1214754, 1215174, 1215590, 1215974, 1216402, 1216797, 1217193, 1217601, 1218009, 1218441]","[116, 193, 168, 226, 145, 213, 152, 193, 208, 4, 191, 158, 220, 190, 159, 180, 187, 211, 226, 215, 9, 26, 13]","[1209415, 1209810, 1210204, 1210601, 1210994, 1211398, 1211800, 1212209, 1212637, 1213053, 1213454, 1213857, 1214244, 1214665, 1215073, 1215500, 1215885, 1216299, 1216700, 1217093, 1217518, 1217921, 1218335]","[1209119, 1209519, 1209919, 1210318, 1210719, 1211118, 1211518, 1211919, 1212246, 1212674, 1213090, 1213491, 1213893, 1214281, 1214701, 1215110, 1215537, 1215922, 1216333, 1216738, 1217130, 1217556, 1217957, 1218372]",57,SB,U,R,ITMSR,1.0,
3,600,trial,0,61,61,61,trial,"['S', 'S', 'S', 'S', 'S', 'S', 'S', 'S', 'C', 'C', 'C', 'C', 'C', 'C', 'C', 'C', 'C', 'C', 'C', 'C', 'C', 'C', 'C', 'C']","[1224095, 1224357, 1224985, 1225570, 1226192, 1226767, 1227374, 1227971, 1228577, 1229192, 1229787, 1230416, 1231020, 1231619, 1232236, 1232840, 1233447, 1234055, 1234677, 1235299, 1235912, 1236516, 1237154, 1237738]","[1224180, 1224476, 1225086, 1225676, 1226276, 1226876, 1227476, 1228053, 1228696, 1229318, 1229904, 1230490, 1231142, 1231722, 1232334, 1232946, 1233557, 1234153, 1234789, 1235423, 1236044, 1236646, 1237286, 1237899]","[25, 172, 153, 138, 133, 163, 139, 192, 80, 73, 103, 178, 91, 205, 179, 123, 68, 192, 222, 1, 249, 2, 10, 7]","[1224137, 1224361, 1224990, 1225574, 1226199, 1226772, 1227379, 1227975, 1228582, 1229198, 1229791, 1230422, 1231025, 1231623, 1232241, 1232845, 1233453, 1234060, 1234681, 1235303, 1235916, 1236520, 1237158, 1237742]","[1223877, 1224476, 1225076, 1225676, 1226276, 1226876, 1227476, 1228077, 1228616, 1229231, 1229827, 1230454, 1231058, 1231657, 1232275, 1232879, 1233486, 1234095, 1234716, 1235338, 1235951, 1236555, 1237193, 1237778]",57,SB,U,R,ITMSR,1.0,
3,600,trial,0,62,62,62,trial,"['S', 'S', 'S', 'S', 'S', 'S', 'S', 'S', 'C', 'C', 'C', 'C', 'C', 'C', 'C', 'C', 'C', 'C', 'C', 'C', 'C', 'C', 'C', 'C']","[1243476, 1243870, 1244340, 1244902, 1245514, 1246115, 1246712, 1247286, 1247891, 1248495, 1249105, 1249667, 1250226, 1250864, 1251436, 1252011, 1252575, 1253132, 1253794, 1254384, 1254977, 1255548, 1256131, 1256727]","[1243514, 1243953, 1244433, 1245008, 1245569, 1246169, 1246809, 1247378, 1247989, 1248590, 1249188, 1249707, 1250306, 1250948, 1251534, 1252103, 1252664, 1253266, 1253898, 1254491, 1255059, 1255655, 1256256, 1256820]","[52, 255, 235, 194, 229, 252, 247, 237, 182, 209, 61, 118, 2, 156, 233, 158, 71, 231, 177, 168, 239, 246, 232, 45]","[1243484, 1243873, 1244344, 1244906, 1245518, 1246118, 1246716, 1247289, 1247895, 1248499, 1249112, 1249671, 1250233, 1250868, 1251441, 1252016, 1252580, 1253212, 1253798, 1254388, 1254980, 1255552, 1256134, 1256730]","[1243209, 1243808, 1244408, 1245008, 1245608, 1246209, 1246809, 1247409, 1247930, 1248533, 1249144, 1249705, 1250266, 1250903, 1251475, 1252049, 1252614, 1253172, 1253832, 1254422, 1255016, 1255586, 1256170, 1256767]",57,SB,U,R,ITMSR,1.0,
5,600,trial,0,63,63,63,trial,"['S', 'S', 'S', 'S', 'S', 'S', 'S', 'S', 'C', 'C', 'C', 'C', 'C', 'C', 'C', 'C', 'C', 'C', 'C', 'C', 'C', 'C', 'C', 'C']","[1262492, 1262869, 1263380, 1263968, 1264572, 1265202, 1265841, 1266407, 1266998, 1267614, 1268187, 1268777, 1269360, 1269962, 1270560, 1271152, 1271737, 1272328, 1272941, 1273498, 1274124, 1274688, 1275278, 1275817]","[1262567, 1262943, 1263464, 1264060, 1264665, 1265289, 1265910, 1266490, 1267083, 1267700, 1268257, 1268877, 1269447, 1270048, 1270629, 1271232, 1271817, 1272440, 1273046, 1273614, 1274212, 1274803, 1275374, 1275899]","[99, 226, 213, 196, 206, 218, 16, 239, 22, 7, 38, 220, 39, 16, 255, 20, 11, 11, 239, 35, 251, 19, 28, 42]","[1262498, 1262873, 1263384, 1263972, 1264576, 1265206, 1265867, 1266411, 1267001, 1267617, 1268191, 1268781, 1269363, 1269965, 1270563, 1271155, 1271740, 1272331, 1272944, 1273501, 1274127, 1274691, 1275281, 1275821]","[1262240, 1262839, 1263439, 1264039, 1264640, 1265240, 1265841, 1266440, 1267038, 1267653, 1268227, 1268816, 1269399, 1270001, 1270599, 1271191, 1271777, 1272368, 1272981, 1273537, 1274164, 1274728, 1275318, 1275856]",57,SB,U,R,ITMSR,1.0,
1,600,trial,0,64,64,64,trial,"['S', 'S', 'S', 'S', 'S', 'S', 'S', 'S', 'C', 'C', 'C', 'C', 'C', 'C', 'C', 'C', 'C', 'C', 'C', 'C', 'C', 'C', 'C', 'C']","[1281650, 1281916, 1282500, 1283101, 1283704, 1284297, 1284924, 1285524, 1286134, 1286742, 1287323, 1287923, 1288500, 1289096, 1289677, 1290262, 1290840, 1291447, 1292038, 1292616, 1293217, 1293794, 1294391, 1294917]","[1281739, 1282003, 1282595, 1283190, 1283789, 1284359, 1285014, 1285588, 1286203, 1286813, 1287436, 1288010, 1288611, 1289206, 1289776, 1290364, 1290949, 1291557, 1292121, 1292743, 1293329, 1293919, 1294466, 1295039]","[130, 8, 227, 211, 254, 233, 252, 220, 244, 231, 140, 219, 206, 230, 251, 247, 11, 229, 236, 224, 235, 233, 232, 230]","[1281656, 1281920, 1282504, 1283106, 1283708, 1284300, 1284927, 1285528, 1286137, 1286745, 1287328, 1287927, 1288506, 1289099, 1289680, 1290265, 1290845, 1291451, 1292040, 1292619, 1293220, 1293798, 1294394, 1294921]","[1281389, 1281988, 1282588, 1283188, 1283788, 1284388, 1284988, 1285588, 1286172, 1286780, 1287361, 1287961, 1288539, 1289135, 1289715, 1290301, 1290878, 1291486, 1292077, 1292654, 1293255, 1293833, 1294430, 1294955]",57,SB,U,R,ITMSR,1.0,
5,600,trial,0,65,65,65,trial,"['S', 'S', 'S', 'S', 'S', 'S', 'S', 'S', 'C', 'C', 'C', 'C', 'C', 'C', 'C', 'C', 'C', 'C', 'C', 'C', 'C', 'C', 'C', 'C']","[1300747, 1301108, 1301525, 1302100, 1302717, 1303328, 1303922, 1304509, 1305111, 1305667, 1306233, 1306811, 1307398, 1307997, 1308570, 1309127, 1309721, 1310306, 1310866, 1311438, 1311992, 1312578, 1313087, 1313678]","[1300826, 1301169, 1301586, 1302163, 1302796, 1303409, 1304004, 1304594, 1305223, 1305763, 1306336, 1306863, 1307492, 1308084, 1308648, 1309224, 1309793, 1310407, 1310977, 1311542, 1312055, 1312650, 1313201, 1313763]","[113, 137, 239, 185, 214, 189, 211, 175, 152, 140, 156, 230, 219, 243, 109, 181, 193, 242, 243, 255, 222, 219, 233, 20]","[1300753, 1301113, 1301530, 1302106, 1302721, 1303333, 1303927, 1304512, 1305115, 1305671, 1306240, 1306815, 1307402, 1308000, 1308574, 1309131, 1309725, 1310310, 1310870, 1311442, 1311995, 1312581, 1313091, 1313681]","[1300458, 1301056, 1301656, 1302256, 1302856, 1303457, 1304056, 1304656, 1305151, 1305707, 1306272, 1306851, 1307438, 1308037, 1308609, 1309166, 1309760, 1310346, 1310906, 1311477, 1312031, 1312618, 1313127, 1313718]",57,SB,U,R,ITMSR,1.0,
4,400,trial,0,66,66,66,trial,"['S', 'S', 'S', 'S', 'S', 'S', 'S', 'S', 'C', 'C', 'C', 'C', 'C', 'C', 'C', 'C', 'C', 'C', 'C', 'C', 'C', 'C', 'C', 'C']","[1319278, 1319526, 1319895, 1320231, 1320606, 1320992, 1321411, 1321800, 1322235, 1322625, 1323012, 1323406, 1323801, 1324179, 1324555, 1324962, 1325369, 1325733, 1326154, 1326531, 1326937, 1327364, 1327760, 1328162]","[1319321, 1319609, 1319980, 1320320, 1320706, 1321098, 1321508, 1321920, 1322318, 1322731, 1323130, 1323524, 1323916, 1324294, 1324674, 1325084, 1325440, 1325856, 1326265, 1326653, 1327064, 1327476, 1327868, 1328286]","[127, 132, 173, 205, 219, 217, 221, 220, 244, 207, 210, 176, 231, 185, 149, 161, 76, 101, 108, 156, 191, 195, 15, 14]","[1319282, 1319529, 1319901, 1320237, 1320610, 1320996, 1321414, 1321804, 1322238, 1322629, 1323016, 1323411, 1323805, 1324184, 1324559, 1324966, 1325375, 1325740, 1326160, 1326536, 1326941, 1327369, 1327764, 1328166]","[1319067, 1319467, 1319867, 1320266, 1320667, 1321067, 1321466, 1321867, 1322275, 1322665, 1323053, 1323447, 1323841, 1324220, 1324596, 1325002, 1325410, 1325773, 1326194, 1326572, 1326978, 1327405, 1327801, 1328202]",57,SB,U,R,ITMSR,1.0,
1,600,trial,0,67,67,67,trial,"['S', 'S', 'S', 'S', 'S', 'S', 'S', 'S', 'C', 'C', 'C', 'C', 'C', 'C', 'C', 'C', 'C', 'C', 'C', 'C', 'C', 'C', 'C', 'C']","[1334075, 1334333, 1334896, 1335496, 1336111, 1336689, 1337312, 1337895, 1338490, 1339066, 1339727, 1340296, 1340884, 1341410, 1341975, 1342498, 1343081, 1343641, 1344253, 1344815, 1345355, 1345890, 1346486, 1347044]","[1334157, 1334440, 1334992, 1335582, 1336183, 1336791, 1337391, 1337995, 1338546, 1339191, 1339807, 1340402, 1340987, 1341528, 1342097, 1342622, 1343204, 1343774, 1344366, 1344934, 1345502, 1346071, 1346637, 1347275]","[22, 157, 152, 156, 203, 210, 155, 172, 164, 192, 7, 223, 210, 187, 42, 108, 202, 152, 19, 227, 254, 11, 242, 73]","[1334083, 1334339, 1334900, 1335501, 1336115, 1336693, 1337317, 1337901, 1338494, 1339071, 1339730, 1340299, 1340889, 1341414, 1341981, 1342572, 1343085, 1343645, 1344258, 1344818, 1345359, 1345893, 1346490, 1347047]","[1333822, 1334420, 1335020, 1335620, 1336220, 1336820, 1337420, 1338020, 1338528, 1339105, 1339765, 1340335, 1340922, 1341449, 1342014, 1342536, 1343120, 1343679, 1344291, 1344854, 1345393, 1345929, 1346525, 1347083]",57,SB,U,R,ITMSR,1.0,
4,600,trial,0,68,68,68,trial,"['S', 'S', 'S', 'S', 'S', 'S', 'S', 'S', 'C', 'C', 'C', 'C', 'C', 'C', 'C', 'C', 'C', 'C', 'C', 'C', 'C', 'C', 'C', 'C']","[1352951, 1353245, 1353719, 1354346, 1354969, 1355560, 1356186, 1356767, 1357378, 1357967, 1358564, 1359135, 1359713, 1360291, 1360824, 1361441, 1362001, 1362582, 1363176, 1363731, 1364331, 1364915, 1365516, 1366104]","[1353028, 1353355, 1353845, 1354445, 1355059, 1355670, 1356305, 1356870, 1357505, 1358093, 1358691, 1359248, 1359844, 1360415, 1360960, 1361538, 1362127, 1362711, 1363289, 1363832, 1364456, 1365061, 1365683, 1366232]","[54, 87, 124, 177, 183, 98, 122, 162, 118, 100, 128, 129, 42, 39, 61, 87, 207, 96, 80, 169, 54, 154, 177, 156]","[1352990, 1353271, 1353726, 1354353, 1354974, 1355566, 1356192, 1356772, 1357384, 1357974, 1358570, 1359142, 1359720, 1360358, 1360893, 1361447, 1362009, 1362588, 1363183, 1363736, 1364337, 1364920, 1365520, 1366109]","[1352646, 1353245, 1353845, 1354445, 1355045, 1355645, 1356246, 1356846, 1357419, 1358008, 1358605, 1359175, 1359754, 1360331, 1360865, 1361481, 1362041, 1362623, 1363217, 1363772, 1364372, 1364956, 1365557, 1366145]",57,SB,U,R,ITMSR,1.0,
4,400,trial,0,69,69,69,trial,"['S', 'S', 'S', 'S', 'S', 'S', 'S', 'S', 'C', 'C', 'C', 'C', 'C', 'C', 'C', 'C', 'C', 'C', 'C', 'C', 'C', 'C', 'C', 'C']","[1372194, 1372446, 1372738, 1373114, 1373520, 1373926, 1374333, 1374728, 1375150, 1375551, 1375950, 1376333, 1376728, 1377104, 1377502, 1377921, 1378316, 1378710, 1379123, 1379531, 1379924, 1380339, 1380719, 1381139]","[1372263, 1372535, 1372826, 1373194, 1373589, 1374002, 1374407, 1374817, 1375235, 1375635, 1376040, 1376435, 1376832, 1377217, 1377615, 1378032, 1378427, 1378845, 1379239, 1379663, 1380047, 1380443, 1380842, 1381262]","[22, 147, 174, 222, 225, 179, 238, 219, 218, 135, 166, 170, 153, 219, 177, 217, 194, 77, 12, 186, 220, 247, 252, 3]","[1372204, 1372450, 1372742, 1373118, 1373527, 1373930, 1374338, 1374732, 1375154, 1375556, 1375956, 1376338, 1376733, 1377108, 1377506, 1377926, 1378321, 1378714, 1379128, 1379535, 1379930, 1380344, 1380723, 1381143]","[1371988, 1372389, 1372788, 1373189, 1373589, 1373988, 1374389, 1374788, 1375191, 1375592, 1375990, 1376373, 1376769, 1377144, 1377543, 1377961, 1378357, 1378751, 1379164, 1379571, 1379964, 1380379, 1380759, 1381180]",57,SB,U,R,ITMSR,1.0,
0,400,trial,0,70,70,70,trial,"['S', 'S', 'S', 'S', 'S', 'S', 'S', 'S', 'C', 'C', 'C', 'C', 'C', 'C', 'C', 'C', 'C', 'C', 'C', 'C', 'C', 'C', 'C', 'C']","[1387302, 1387549, 1387856, 1388157, 1388565, 1388944, 1389350, 1389732, 1390133, 1390522, 1390916, 1391310, 1391707, 1392105, 1392482, 1392889, 1393265, 1393657, 1394073, 1394453, 1394876, 1395252, 1395631, 1396020]","[1387373, 1387659, 1387941, 1388268, 1388675, 1389057, 1389464, 1389853, 1390208, 1390617, 1391031, 1391433, 1391834, 1392231, 1392618, 1393017, 1393411, 1393816, 1394219, 1394611, 1394988, 1395375, 1395769, 1396177]","[2, 53, 180, 209, 218, 210, 198, 179, 210, 142, 116, 45, 95, 109, 74, 4, 98, 33, 108, 151, 134, 134, 132, 158]","[1387311, 1387556, 1387863, 1388162, 1388568, 1388947, 1389356, 1389736, 1390137, 1390527, 1390921, 1391316, 1391711, 1392109, 1392488, 1392897, 1393270, 1393738, 1394077, 1394457, 1394881, 1395258, 1395636, 1396026]","[1387016, 1387415, 1387815, 1388216, 1388615, 1389016, 1389416, 1389815, 1390174, 1390563, 1390956, 1391350, 1391748, 1392146, 1392523, 1392929, 1393305, 1393697, 1394113, 1394494, 1394917, 1395293, 1395672, 1396061]",57,SB,U,R,ITMSR,1.0,
2,600,trial,0,71,71,71,trial,"['S', 'S', 'S', 'S', 'S', 'S', 'S', 'S', 'C', 'C', 'C', 'C', 'C', 'C', 'C', 'C', 'C', 'C', 'C', 'C', 'C', 'C', 'C', 'C']","[1401623, 1401863, 1402489, 1403075, 1403677, 1404280, 1404895, 1405504, 1406089, 1406691, 1407271, 1407860, 1408452, 1409038, 1409646, 1410230, 1410809, 1411400, 1411989, 1412555, 1413177, 1413784, 1414354, 1414944]","[1401698, 1401969, 1402567, 1403141, 1403762, 1404377, 1405019, 1405619, 1406221, 1406855, 1407421, 1408007, 1408603, 1409202, 1409828, 1410428, 1411024, 1411615, 1412188, 1412719, 1413285, 1413949, 1414507, 1415087]","[40, 149, 169, 47, 236, 118, 106, 152, 146, 183, 55, 50, 105, 163, 107, 139, 66, 108, 117, 114, 34, 186, 78, 137]","[1401663, 1401867, 1402494, 1403081, 1403683, 1404286, 1404900, 1405509, 1406094, 1406696, 1407340, 1407912, 1408457, 1409044, 1409746, 1410234, 1410814, 1411525, 1412119, 1412560, 1413183, 1413788, 1414431, 1414949]","[1401419, 1402018, 1402618, 1403218, 1403819, 1404419, 1405019, 1405619, 1406130, 1406732, 1407311, 1407900, 1408492, 1409079, 1409686, 1410271, 1410849, 1411440, 1412030, 1412595, 1413218, 1413825, 1414394, 1414984]",57,SB,U,R,ITMSR,1.0,
2,400,trial,0,72,72,72,trial,"['S', 'S', 'S', 'S', 'S', 'S', 'S', 'C', 'C', 'C', 'C', 'C', 'C', 'C', 'C', 'C', 'C', 'C', 'C', 'C', 'C', 'C', 'C']","[1420855, 1421239, 1421630, 1422025, 1422449, 1422855, 1423290, 1423688, 1424096, 1424507, 1424913, 1425298, 1425696, 1426067, 1426462, 1426898, 1427294, 1427701, 1428089, 1428486, 1428874, 1429285, 1429712]","[1420962, 1421363, 1421733, 1422132, 1422563, 1422980, 1423401, 1423812, 1424228, 1424632, 1425028, 1425427, 1425788, 1426203, 1426601, 1427001, 1427431, 1427854, 1428244, 1428643, 1429040, 1429456, 1429894]","[159, 55, 81, 45, 21, 12, 104, 79, 68, 90, 135, 104, 106, 199, 202, 237, 73, 49, 113, 112, 79, 119, 131]","[1420903, 1421246, 1421637, 1422030, 1422455, 1422896, 1423295, 1423694, 1424101, 1424512, 1424918, 1425303, 1425701, 1426073, 1426542, 1426905, 1427299, 1427707, 1428094, 1428491, 1428878, 1429291, 1429719]","[1420564, 1420962, 1421363, 1421762, 1422162, 1422563, 1422962, 1423363, 1423728, 1424137, 1424547, 1424954, 1425339, 1425736, 1426108, 1426502, 1426938, 1427335, 1427741, 1428129, 1428527, 1428915, 1429325, 1429752]",57,SB,U,R,ITMSR,1.0,
1,400,trial,0,73,73,73,trial,"['S', 'S', 'S', 'S', 'S', 'S', 'S', 'C', 'C', 'C', 'C', 'C', 'C', 'C', 'C', 'C', 'C', 'C', 'C', 'C', 'C', 'C', 'C']","[1435481, 1435855, 1436211, 1436600, 1436998, 1437391, 1437807, 1438184, 1438573, 1438946, 1439339, 1439732, 1440148, 1440525, 1440915, 1441321, 1441717, 1442082, 1442483, 1442876, 1443256, 1443651, 1444049]","[1435583, 1435938, 1436295, 1436685, 1437093, 1437522, 1437923, 1438318, 1438710, 1439079, 1439472, 1439865, 1440230, 1440643, 1441053, 1441466, 1441832, 1442224, 1442630, 1443036, 1443420, 1443810, 1444231]","[89, 80, 134, 1, 19, 252, 42, 65, 16, 80, 25, 46, 240, 32, 37, 48, 50, 55, 85, 79, 58, 78, 88]","[1435529, 1435860, 1436216, 1436608, 1437003, 1437399, 1437812, 1438189, 1438578, 1438951, 1439343, 1439739, 1440154, 1440531, 1440920, 1441328, 1441723, 1442088, 1442488, 1442881, 1443262, 1443656, 1444054]","[1435122, 1435523, 1435923, 1436322, 1436723, 1437122, 1437522, 1437923, 1438223, 1438612, 1438985, 1439378, 1439770, 1440187, 1440564, 1440954, 1441359, 1441756, 1442120, 1442522, 1442915, 1443295, 1443690, 1444087]",57,SB,U,R,ITMSR,1.0,
0,600,trial,0,74,74,74,trial,"['S', 'S', 'S', 'S', 'S', 'S', 'S', 'S', 'C', 'C', 'C', 'C', 'C', 'C', 'C', 'C', 'C', 'C', 'C', 'C', 'C', 'C', 'C', 'C']","[1450131, 1450378, 1450956, 1451542, 1452164, 1452762, 1453341, 1453936, 1454525, 1455108, 1455697, 1456256, 1456865, 1457425, 1458018, 1458584, 1459153, 1459743, 1460324, 1460886, 1461481, 1462013, 1462633, 1463206]","[1450215, 1450514, 1451046, 1451641, 1452240, 1452853, 1453436, 1454049, 1454627, 1455240, 1455826, 1456381, 1456991, 1457557, 1458139, 1458701, 1459289, 1459889, 1460475, 1461060, 1461621, 1462206, 1462792, 1463407]","[24, 102, 76, 73, 9, 17, 83, 105, 52, 89, 64, 37, 5, 38, 75, 111, 23, 93, 88, 133, 55, 99, 153, 200]","[1450159, 1450446, 1450963, 1451549, 1452173, 1452803, 1453347, 1453941, 1454530, 1455115, 1455744, 1456316, 1456925, 1457433, 1458024, 1458588, 1459225, 1459748, 1460329, 1460971, 1461488, 1462135, 1462636, 1463211]","[1449909, 1450509, 1451109, 1451709, 1452309, 1452908, 1453508, 1454108, 1454566, 1455149, 1455737, 1456296, 1456906, 1457466, 1458059, 1458625, 1459193, 1459783, 1460365, 1460927, 1461522, 1462053, 1462674, 1463246]",57,SB,U,R,ITMSR,1.0,
5,400,trial,0,75,75,75,trial,"['S', 'S', 'S', 'S', 'S', 'S', 'S', 'C', 'C', 'C', 'C', 'C', 'C', 'C', 'C', 'C', 'C', 'C', 'C', 'C', 'C', 'C', 'C']","[1469295, 1469635, 1470036, 1470449, 1470885, 1471307, 1471711, 1472119, 1472529, 1472949, 1473348, 1473757, 1474153, 1474545, 1474956, 1475365, 1475762, 1476172, 1476554, 1476975, 1477380, 1477780, 1478202]","[1469374, 1469742, 1470120, 1470537, 1470965, 1471403, 1471803, 1472209, 1472623, 1473049, 1473459, 1473858, 1474260, 1474652, 1475063, 1475476, 1475891, 1476290, 1476691, 1477102, 1477502, 1477907, 1478335]","[111, 103, 99, 88, 88, 91, 115, 121, 74, 105, 66, 77, 70, 93, 109, 88, 88, 95, 65, 119, 85, 77, 86]","[1469338, 1469679, 1470043, 1470454, 1470892, 1471313, 1471715, 1472124, 1472535, 1472954, 1473353, 1473764, 1474159, 1474551, 1474960, 1475371, 1475766, 1476177, 1476558, 1476980, 1477386, 1477784, 1478207]","[1469002, 1469402, 1469802, 1470202, 1470604, 1471002, 1471403, 1471803, 1472158, 1472569, 1472989, 1473387, 1473797, 1474193, 1474584, 1474996, 1475404, 1475802, 1476211, 1476593, 1477014, 1477420, 1477820, 1478242]",57,SB,U,R,ITMSR,1.0,
5,400,trial,0,76,76,76,trial,"['S', 'S', 'S', 'S', 'S', 'S', 'S', 'S', 'C', 'C', 'C', 'C', 'C', 'C', 'C', 'C', 'C', 'C', 'C', 'C', 'C', 'C', 'C', 'C']","[1484275, 1484536, 1484816, 1485190, 1485576, 1485980, 1486382, 1486750, 1487164, 1487571, 1488002, 1488395, 1488787, 1489191, 1489598, 1490012, 1490437, 1490826, 1491243, 1491653, 1492055, 1492492, 1492869, 1493286]","[1484348, 1484635, 1484921, 1485295, 1485686, 1486081, 1486504, 1486898, 1487292, 1487742, 1488152, 1488551, 1488925, 1489327, 1489732, 1490154, 1490568, 1490979, 1491405, 1491827, 1492224, 1492585, 1492981, 1493424]","[190, 44, 133, 140, 139, 94, 98, 73, 55, 50, 49, 46, 80, 77, 77, 78, 63, 54, 94, 55, 36, 46, 138, 151]","[1484282, 1484542, 1484820, 1485194, 1485581, 1485985, 1486388, 1486755, 1487170, 1487666, 1488008, 1488401, 1488793, 1489197, 1489603, 1490018, 1490441, 1490831, 1491247, 1491659, 1492061, 1492497, 1492873, 1493292]","[1484048, 1484446, 1484848, 1485247, 1485647, 1486048, 1486448, 1486848, 1487204, 1487610, 1488041, 1488435, 1488827, 1489230, 1489638, 1490052, 1490477, 1490866, 1491282, 1491692, 1492094, 1492532, 1492909, 1493325]",57,SB,U,R,ITMSR,1.0,
3,400,trial,0,77,77,77,trial,"['S', 'S', 'S', 'S', 'S', 'S', 'S', 'C', 'C', 'C', 'C', 'C', 'C', 'C', 'C', 'C', 'C', 'C', 'C', 'C', 'C', 'C', 'C']","[1499425, 1499801, 1500173, 1500600, 1500961, 1501380, 1501754, 1502163, 1502575, 1502967, 1503374, 1503763, 1504161, 1504558, 1504945, 1505350, 1505774, 1506153, 1506528, 1506931, 1507320, 1507710, 1508114]","[1499522, 1499891, 1500270, 1500659, 1501052, 1501463, 1501857, 1502267, 1502662, 1503063, 1503467, 1503875, 1504283, 1504679, 1505067, 1505473, 1505891, 1506289, 1506677, 1507058, 1507460, 1507857, 1508290]","[33, 40, 76, 244, 106, 96, 80, 222, 152, 7, 230, 238, 5, 213, 28, 244, 233, 12, 238, 214, 189, 49, 255]","[1499430, 1499808, 1500179, 1500606, 1500965, 1501385, 1501760, 1502170, 1502582, 1502973, 1503381, 1503770, 1504167, 1504564, 1504951, 1505357, 1505781, 1506158, 1506535, 1506935, 1507326, 1507717, 1508121]","[1499053, 1499453, 1499852, 1500253, 1500652, 1501052, 1501453, 1501852, 1502202, 1502613, 1503005, 1503413, 1503803, 1504199, 1504598, 1504984, 1505389, 1505812, 1506193, 1506567, 1506969, 1507359, 1507749, 1508154]",57,SB,U,R,ITMSR,1.0,
5,600,trial,0,78,78,78,trial,"['S', 'S', 'S', 'S', 'S', 'S', 'S', 'S', 'C', 'C', 'C', 'C', 'C', 'C', 'C', 'C', 'C', 'C', 'C', 'C', 'C', 'C', 'C', 'C']","[1559405, 1559785, 1560221, 1560758, 1561387, 1561960, 1562578, 1563189, 1563823, 1564365, 1564948, 1565518, 1566116, 1566673, 1567265, 1567881, 1568461, 1569044, 1569602, 1570190, 1570765, 1571356, 1571936, 1572524]","[1559499, 1559883, 1560312, 1560816, 1561481, 1562052, 1562648, 1563287, 1563872, 1564453, 1565021, 1565612, 1566219, 1566773, 1567353, 1567959, 1568560, 1569124, 1569707, 1570307, 1570883, 1571453, 1572030, 1572619]","[104, 119, 153, 63, 104, 81, 40, 17, 157, 144, 46, 28, 71, 66, 51, 72, 243, 60, 102, 158, 175, 68, 132, 116]","[1559442, 1559791, 1560226, 1560766, 1561395, 1561969, 1562587, 1563197, 1563830, 1564375, 1564951, 1565526, 1566124, 1566729, 1567305, 1567889, 1568471, 1569053, 1569607, 1570196, 1570772, 1571363, 1571942, 1572530]","[1559080, 1559680, 1560280, 1560881, 1561480, 1562081, 1562680, 1563281, 1563863, 1564404, 1564988, 1565557, 1566155, 1566712, 1567304, 1567921, 1568500, 1569084, 1569642, 1570230, 1570804, 1571395, 1571976, 1572563]",57,SB,U,R,ITMSR,1.0,
4,600,trial,0,79,79,79,trial,"['S', 'S', 'S', 'S', 'S', 'S', 'S', 'S', 'C', 'C', 'C', 'C', 'C', 'C', 'C', 'C', 'C', 'C', 'C', 'C', 'C', 'C', 'C', 'C']","[1578741, 1579110, 1579510, 1580045, 1580637, 1581219, 1581807, 1582398, 1583002, 1583561, 1584149, 1584692, 1585286, 1585863, 1586426, 1586989, 1587547, 1588142, 1588739, 1589308, 1589883, 1590436, 1591012, 1591560]","[1578851, 1579202, 1579613, 1580109, 1580727, 1581320, 1581880, 1582510, 1583097, 1583686, 1584240, 1584806, 1585390, 1585967, 1586539, 1587101, 1587689, 1588261, 1588857, 1589426, 1590013, 1590584, 1591148, 1591665]","[108, 97, 138, 84, 199, 159, 2, 103, 220, 255, 195, 227, 36, 108, 126, 114, 77, 200, 129, 184, 86, 24, 54, 100]","[1578791, 1579116, 1579517, 1580052, 1580642, 1581227, 1581815, 1582404, 1583010, 1583626, 1584190, 1584740, 1585327, 1585870, 1586434, 1586996, 1587621, 1588193, 1588746, 1589314, 1589929, 1590525, 1591090, 1591567]","[1578386, 1578986, 1579585, 1580185, 1580785, 1581385, 1581985, 1582585, 1583042, 1583601, 1584190, 1584733, 1585327, 1585903, 1586466, 1587030, 1587588, 1588183, 1588780, 1589349, 1589923, 1590476, 1591053, 1591601]",57,SB,U,R,ITMSR,1.0,
2,400,trial,0,80,80,80,trial,"['S', 'S', 'S', 'S', 'S', 'S', 'S', 'C', 'C', 'C', 'C', 'C', 'C', 'C', 'C', 'C', 'C', 'C', 'C', 'C', 'C', 'C', 'C']","[1597455, 1597842, 1598238, 1598642, 1599053, 1599483, 1599919, 1600319, 1600777, 1601189, 1601586, 1602002, 1602399, 1602813, 1603217, 1603622, 1604019, 1604438, 1604834, 1605242, 1605628, 1606056, 1606454]","[1597574, 1597949, 1598341, 1598740, 1599174, 1599583, 1600008, 1600440, 1600874, 1601292, 1601703, 1602108, 1602503, 1602924, 1603346, 1603733, 1604145, 1604562, 1604940, 1605358, 1605747, 1606178, 1606584]","[52, 77, 34, 24, 247, 241, 40, 20, 10, 204, 230, 5, 253, 29, 247, 23, 46, 18, 197, 16, 2, 74, 87]","[1597494, 1597874, 1598282, 1598678, 1599113, 1599492, 1599951, 1600362, 1600786, 1601196, 1601645, 1602043, 1602452, 1602854, 1603264, 1603662, 1604077, 1604483, 1604875, 1605292, 1605694, 1606096, 1606504]","[1597173, 1597574, 1597974, 1598374, 1598775, 1599174, 1599575, 1599975, 1600360, 1600818, 1601229, 1601627, 1602042, 1602440, 1602853, 1603258, 1603662, 1604060, 1604478, 1604875, 1605282, 1605668, 1606096, 1606495]",57,SB,U,R,ITMSR,1.0,
2,600,trial,0,81,81,81,trial,"['S', 'S', 'S', 'S', 'S', 'S', 'S', 'S', 'C', 'C', 'C', 'C', 'C', 'C', 'C', 'C', 'C', 'C', 'C', 'C', 'C', 'C', 'C', 'C']","[1612484, 1612817, 1613346, 1613989, 1614589, 1615200, 1615801, 1616399, 1617031, 1617636, 1618233, 1618809, 1619441, 1620008, 1620631, 1621203, 1621810, 1622379, 1622972, 1623602, 1624187, 1624770, 1625363, 1625900]","[1612604, 1612911, 1613429, 1614084, 1614696, 1615290, 1615890, 1616502, 1617121, 1617737, 1618339, 1618889, 1619552, 1620075, 1620729, 1621292, 1621912, 1622487, 1623092, 1623733, 1624316, 1624890, 1625472, 1626022]","[88, 114, 151, 107, 136, 92, 139, 126, 36, 75, 70, 69, 116, 113, 74, 56, 236, 8, 35, 30, 223, 172, 126, 9]","[1612557, 1612825, 1613352, 1613996, 1614632, 1615207, 1615808, 1616405, 1617072, 1617641, 1618240, 1618817, 1619449, 1620017, 1620639, 1621211, 1621851, 1622420, 1623013, 1623664, 1624253, 1624833, 1625418, 1625966]","[1612284, 1612883, 1613484, 1614084, 1614684, 1615284, 1615884, 1616484, 1617072, 1617677, 1618274, 1618849, 1619481, 1620048, 1620672, 1621243, 1621851, 1622420, 1623013, 1623643, 1624227, 1624811, 1625404, 1625940]",57,SB,U,R,ITMSR,1.0,
3,600,trial,0,82,82,82,trial,"['S', 'S', 'S', 'S', 'S', 'S', 'S', 'S', 'C', 'C', 'C', 'C', 'C', 'C', 'C', 'C', 'C', 'C', 'C', 'C', 'C', 'C', 'C', 'C']","[1631576, 1631865, 1632421, 1632990, 1633587, 1634192, 1634801, 1635443, 1636046, 1636635, 1637246, 1637862, 1638426, 1638991, 1639572, 1640154, 1640744, 1641305, 1641914, 1642446, 1643054, 1643611, 1644225, 1644763]","[1631650, 1631997, 1632568, 1633130, 1633654, 1634330, 1634930, 1635547, 1636142, 1636782, 1637383, 1637952, 1638540, 1639117, 1639670, 1640287, 1640893, 1641441, 1642060, 1642565, 1643168, 1643768, 1644394, 1644981]","[148, 69, 82, 134, 190, 159, 86, 90, 102, 130, 94, 137, 128, 141, 236, 130, 98, 59, 40, 81, 73, 80, 128, 142]","[1631606, 1631873, 1632429, 1633032, 1633595, 1634241, 1634846, 1635450, 1636052, 1636641, 1637253, 1637867, 1638431, 1638996, 1639581, 1640159, 1640825, 1641377, 1641985, 1642514, 1643060, 1643696, 1644302, 1644768]","[1631332, 1631931, 1632531, 1633130, 1633730, 1634330, 1634930, 1635530, 1636084, 1636674, 1637285, 1637901, 1638465, 1639030, 1639611, 1640194, 1640782, 1641345, 1641953, 1642484, 1643092, 1643650, 1644265, 1644803]",57,SB,U,R,ITMSR,1.0,
1,600,trial,0,83,83,83,trial,"['S', 'S', 'S', 'S', 'S', 'S', 'S', 'S', 'C', 'C', 'C', 'C', 'C', 'C', 'C', 'C', 'C', 'C', 'C', 'C', 'C', 'C', 'C', 'C']","[1650440, 1650733, 1651247, 1651819, 1652425, 1653008, 1653559, 1654177, 1654799, 1655387, 1656001, 1656566, 1657191, 1657769, 1658369, 1658980, 1659546, 1660095, 1660673, 1661267, 1661843, 1662447, 1663036, 1663651]","[1650516, 1650844, 1651377, 1651890, 1652527, 1653094, 1653678, 1654311, 1654930, 1655587, 1656167, 1656787, 1657424, 1658017, 1658601, 1659208, 1659779, 1660323, 1660921, 1661514, 1662105, 1662715, 1663318]","[247, 108, 104, 101, 137, 126, 82, 69, 118, 154, 142, 151, 168, 190, 183, 204, 163, 121, 178, 158, 197, 150, 166]","[1650477, 1650740, 1651255, 1651825, 1652431, 1653014, 1653566, 1654248, 1654804, 1655508, 1656007, 1656715, 1657290, 1657774, 1658373, 1658984, 1659657, 1660101, 1660677, 1661272, 1662026, 1662451, 1663039]","[1650178, 1650777, 1651377, 1651977, 1652577, 1653177, 1653777, 1654377, 1654838, 1655426, 1656040, 1656604, 1657230, 1657807, 1658407, 1659019, 1659584, 1660134, 1660711, 1661305, 1661882, 1662485, 1663075, 1663689]",57,SB,U,R,ITMSR,1.0,
5,400,trial,0,84,84,84,trial,"['S', 'S', 'S', 'S', 'S', 'S', 'S', 'C', 'C', 'C', 'C', 'C', 'C', 'C', 'C', 'C', 'C', 'C', 'C', 'C', 'C', 'C', 'C']","[1669417, 1669823, 1670215, 1670623, 1671009, 1671410, 1671790, 1672195, 1672594, 1672993, 1673396, 1673783, 1674179, 1674570, 1674983, 1675374, 1675778, 1676172, 1676591, 1676995, 1677406, 1677821, 1678212]","[1669519, 1669908, 1670317, 1670733, 1671133, 1671517, 1671902, 1672294, 1672690, 1673103, 1673502, 1673874, 1674291, 1674689, 1675100, 1675503, 1675897, 1676302, 1676707, 1677123, 1677531, 1677942, 1678324]","[181, 44, 254, 251, 192, 5, 156, 146, 188, 186, 109, 133, 162, 202, 141, 228, 182, 177, 180, 176, 153, 203, 205]","[1669422, 1669826, 1670220, 1670627, 1671014, 1671413, 1671793, 1672199, 1672598, 1672997, 1673402, 1673788, 1674184, 1674575, 1674988, 1675378, 1675783, 1676176, 1676597, 1676999, 1677411, 1677827, 1678215]","[1669069, 1669469, 1669868, 1670268, 1670669, 1671068, 1671469, 1671869, 1672235, 1672634, 1673032, 1673436, 1673823, 1674219, 1674609, 1675023, 1675413, 1675817, 1676212, 1676631, 1677035, 1677446, 1677860, 1678252]",57,SB,U,R,ITMSR,1.0,
5,600,trial,0,85,85,85,trial,"['S', 'S', 'S', 'S', 'S', 'S', 'S', 'S', 'C', 'C', 'C', 'C', 'C', 'C', 'C', 'C', 'C', 'C', 'C', 'C', 'C', 'C', 'C', 'C']","[1684019, 1684360, 1684891, 1685484, 1686072, 1686652, 1687243, 1687869, 1688505, 1689093, 1689689, 1690270, 1690872, 1691453, 1692068, 1692643, 1693208, 1693846, 1694426, 1695010, 1695579, 1696181, 1696795, 1697380]","[1684120, 1684480, 1685024, 1685613, 1686175, 1686760, 1687327, 1687974, 1688572, 1689198, 1689779, 1690371, 1690949, 1691555, 1692166, 1692742, 1693356, 1694000, 1694610, 1695166, 1695777, 1696420, 1697026, 1697635]","[132, 73, 214, 226, 213, 188, 198, 203, 164, 157, 121, 190, 195, 252, 194, 227, 251, 236, 223, 166, 239, 239, 241, 231]","[1684058, 1684387, 1684895, 1685489, 1686076, 1686658, 1687248, 1687874, 1688511, 1689099, 1689693, 1690275, 1690877, 1691457, 1692073, 1692648, 1693213, 1693852, 1694430, 1695015, 1695585, 1696186, 1696800, 1697384]","[1683760, 1684360, 1684959, 1685559, 1686159, 1686759, 1687360, 1687959, 1688545, 1689133, 1689729, 1690309, 1690911, 1691493, 1692107, 1692683, 1693248, 1693886, 1694466, 1695049, 1695619, 1696221, 1696834, 1697420]",57,SB,U,R,ITMSR,1.0,
1,400,trial,0,86,86,86,trial,"['S', 'S', 'S', 'S', 'S', 'S', 'S', 'S', 'C', 'C', 'C', 'C', 'C', 'C', 'C', 'C', 'C', 'C', 'C', 'C', 'C', 'C', 'C', 'C']","[1703160, 1703402, 1703689, 1704062, 1704438, 1704839, 1705233, 1705650, 1706063, 1706487, 1706887, 1707262, 1707645, 1708044, 1708435, 1708852, 1709248, 1709657, 1710060, 1710469, 1710858, 1711270, 1711654, 1712076]","[1703249, 1703485, 1703779, 1704171, 1704574, 1704997, 1705407, 1705819, 1706225, 1706635, 1707020, 1707355, 1707763, 1708157, 1708564, 1708981, 1709385, 1709772, 1710170, 1710580, 1710961, 1711379, 1711775, 1712195]","[31, 94, 50, 217, 225, 237, 235, 237, 232, 242, 250, 238, 145, 243, 254, 233, 193, 245, 246, 223, 229, 179, 225, 254]","[1703216, 1703408, 1703729, 1704066, 1704442, 1704843, 1705237, 1705654, 1706066, 1706491, 1706891, 1707268, 1707651, 1708048, 1708439, 1708857, 1709254, 1709663, 1710065, 1710474, 1710862, 1711278, 1711660, 1712080]","[1702913, 1703312, 1703711, 1704112, 1704511, 1704911, 1705312, 1705711, 1706101, 1706525, 1706926, 1707300, 1707683, 1708083, 1708474, 1708891, 1709287, 1709696, 1710099, 1710508, 1710897, 1711308, 1711692, 1712114]",57,SB,U,R,ITMSR,1.0,
1,400,trial,0,87,87,87,trial,"['S', 'S', 'S', 'S', 'S', 'S', 'S', 'S', 'C', 'C', 'C', 'C', 'C', 'C', 'C', 'C', 'C', 'C', 'C', 'C', 'C', 'C', 'C', 'C']","[1718037, 1718311, 1718619, 1719008, 1719387, 1719790, 1720187, 1720589, 1720993, 1721412, 1721806, 1722210, 1722579, 1722981, 1723396, 1723801, 1724218, 1724606, 1724994, 1725398, 1725777, 1726210, 1726617, 1727037]","[1718122, 1718420, 1718728, 1719114, 1719528, 1719939, 1720350, 1720743, 1721153, 1721544, 1721943, 1722301, 1722698, 1723086, 1723521, 1723922, 1724320, 1724719, 1725119, 1725490, 1725884, 1726338, 1726756, 1727178]","[84, 163, 209, 236, 33, 28, 230, 240, 239, 213, 212, 226, 176, 188, 204, 206, 192, 67, 96, 136, 205, 219, 218, 243]","[1718078, 1718318, 1718624, 1719012, 1719391, 1719794, 1720192, 1720594, 1720998, 1721416, 1721811, 1722215, 1722585, 1722986, 1723401, 1723805, 1724224, 1724611, 1724999, 1725405, 1725784, 1726215, 1726622, 1727042]","[1717854, 1718252, 1718652, 1719053, 1719452, 1719853, 1720253, 1720652, 1721031, 1721450, 1721844, 1722249, 1722617, 1723020, 1723435, 1723839, 1724257, 1724645, 1725033, 1725436, 1725815, 1726248, 1726655, 1727076]",57,SB,U,R,ITMSR,1.0,
2,400,trial,0,88,88,88,trial,"['S', 'S', 'S', 'S', 'S', 'S', 'S', 'C', 'C', 'C', 'C', 'C', 'C', 'C', 'C', 'C', 'C', 'C', 'C', 'C', 'C', 'C', 'C']","[1732708, 1733117, 1733535, 1733948, 1734345, 1734760, 1735183, 1735587, 1736006, 1736417, 1736813, 1737210, 1737611, 1737996, 1738388, 1738820, 1739235, 1739622, 1740033, 1740432, 1740830, 1741216, 1741649]","[1732798, 1733221, 1733664, 1734065, 1734465, 1734866, 1735297, 1735709, 1736103, 1736514, 1736919, 1737317, 1737716, 1738115, 1738513, 1738928, 1739344, 1739742, 1740123, 1740544, 1740938, 1741359, 1741853]","[115, 146, 173, 157, 202, 243, 218, 204, 202, 196, 194, 201, 188, 231, 251, 25, 193, 195, 161, 160, 192, 202, 243]","[1732714, 1733123, 1733541, 1733952, 1734349, 1734765, 1735188, 1735591, 1736010, 1736421, 1736817, 1737216, 1737616, 1738000, 1738392, 1738824, 1739240, 1739626, 1740038, 1740438, 1740835, 1741221, 1741654]","[1732464, 1732865, 1733265, 1733664, 1734065, 1734465, 1734865, 1735266, 1735627, 1736046, 1736458, 1736854, 1737250, 1737652, 1738037, 1738429, 1738860, 1739276, 1739663, 1740073, 1740473, 1740870, 1741256, 1741689]",57,SB,U,R,ITMSR,1.0,
3,400,trial,0,89,89,89,trial,"['S', 'S', 'S', 'S', 'S', 'S', 'S', 'C', 'C', 'C', 'C', 'C', 'C', 'C', 'C', 'C', 'C', 'C', 'C', 'C', 'C', 'C', 'C']","[1747441, 1747858, 1748284, 1748656, 1749076, 1749477, 1749886, 1750312, 1750721, 1751145, 1751544, 1751944, 1752332, 1752721, 1753101, 1753512, 1753896, 1754306, 1754736, 1755098, 1755496, 1755914, 1756308]","[1747535, 1747962, 1748383, 1748784, 1749183, 1749599, 1750017, 1750421, 1750865, 1751275, 1751659, 1752066, 1752455, 1752861, 1753251, 1753671, 1754058, 1754450, 1754861, 1755277, 1755672, 1756070, 1756523]","[210, 223, 211, 242, 224, 206, 219, 159, 130, 128, 132, 170, 154, 133, 138, 146, 116, 192, 211, 191, 157, 190, 205]","[1747491, 1747863, 1748288, 1748660, 1749081, 1749482, 1749891, 1750317, 1750726, 1751150, 1751548, 1751949, 1752337, 1752726, 1753106, 1753518, 1753902, 1754310, 1754740, 1755103, 1755502, 1755919, 1756313]","[1747184, 1747584, 1747984, 1748383, 1748784, 1749183, 1749583, 1749984, 1750351, 1750760, 1751185, 1751583, 1751984, 1752372, 1752760, 1753141, 1753551, 1753934, 1754345, 1754774, 1755137, 1755536, 1755954, 1756348]",57,SB,U,R,ITMSR,1.0,
1,600,trial,0,90,90,90,trial,"['S', 'S', 'S', 'S', 'S', 'S', 'S', 'S', 'C', 'C', 'C', 'C', 'C', 'C', 'C', 'C', 'C', 'C', 'C', 'C', 'C', 'C', 'C', 'C']","[1762428, 1762818, 1763264, 1763835, 1764424, 1764999, 1765600, 1766193, 1766790, 1767334, 1767877, 1768428, 1769001, 1769568, 1770148, 1770724, 1771276, 1771883, 1772444, 1773023, 1773586, 1774150, 1774704, 1775242]","[1762522, 1762929, 1763365, 1763946, 1764546, 1765060, 1765666, 1766269, 1766897, 1767443, 1768000, 1768553, 1769160, 1769716, 1770292, 1770850, 1771490, 1772079, 1772669, 1773242, 1773815, 1774358, 1774911, 1775486]","[80, 216, 254, 22, 36, 16, 2, 215, 240, 5, 238, 226, 227, 226, 193, 185, 239, 231, 214, 216, 218, 241, 180, 248]","[1762470, 1762821, 1763268, 1763840, 1764428, 1765003, 1765605, 1766198, 1766795, 1767340, 1767882, 1768432, 1769006, 1769573, 1770155, 1770730, 1771280, 1771971, 1772450, 1773148, 1773592, 1774155, 1774711, 1775246]","[1762147, 1762747, 1763347, 1763946, 1764546, 1765146, 1765746, 1766346, 1766829, 1767372, 1767915, 1768467, 1769039, 1769607, 1770186, 1770763, 1771315, 1771922, 1772482, 1773062, 1773625, 1774188, 1774742, 1775281]",57,SB,U,R,ITMSR,1.0,
