pitch,ioi,event,.thisRepN,.thisTrialN,.thisN,.thisIndex,event,tap_types,tap_times,release_times,peak_pressures,peak_times,tone_times,subject,experimenter,register,handedness,experiment,version,
,,SPR,0,-1,-1,0,SPR,"['P', 'P', 'P', 'P', 'P', 'P', 'P', 'P', 'P', 'P', 'P', 'P', 'P', 'P', 'P', 'P', 'P', 'P', 'P', 'P', 'P', 'P', 'P', 'P', 'P', 'P', 'P', 'P', 'P', 'P']","[47479, 47724, 50103, 50590, 51127, 51653, 52123, 52620, 53092, 53533, 53998, 54472, 54938, 55384, 55843, 56301, 56727, 57200, 57688, 58174, 58650, 59102, 59574, 60036, 60534, 61004, 61430, 61952, 62417, 62869]","[47644, 49812, 50353, 50837, 51291, 51715, 52196, 52665, 53141, 53575, 54055, 54520, 54988, 55422, 55887, 56348, 56783, 57260, 57742, 58230, 58717, 59165, 59643, 60118, 60585, 61054, 61500, 61972, 62467, 62942]","[19, 228, 140, 157, 93, 75, 73, 35, 55, 78, 1, 248, 225, 2, 27, 78, 94, 88, 53, 45, 105, 82, 116, 64, 98, 203, 39, 178, 247, 64]","[47488, 47870, 50110, 50596, 51135, 51660, 52130, 52631, 53103, 53542, 54006, 54482, 54946, 55394, 55852, 56308, 56734, 57208, 57696, 58185, 58657, 59111, 59583, 60045, 60540, 61015, 61442, 61958, 62427, 62877]",,96,OR,U,R,ITMSR,1.1,
2,500,practice,0,0,0,0,practice,"['S', 'S', 'S', 'S', 'S', 'S', 'S', 'C', 'C', 'C', 'C', 'C', 'C', 'C', 'C', 'C', 'C', 'C', 'C', 'C', 'C', 'C', 'C', 'C']","[137872, 138704, 139233, 139756, 140249, 140739, 141220, 141747, 142187, 142547, 142828, 143070, 144743, 145411, 146002, 146546, 147098, 147647, 148161, 148695, 149214, 149735, 150260, 150776]","[137969, 138791, 139301, 139817, 140304, 140788, 141266, 141810, 142244, 142606, 142884, 143129, 144819, 145468, 146058, 146603, 147154, 147700, 148222, 148756, 149260, 149805, 150327, 150852]","[122, 195, 173, 172, 171, 87, 235, 165, 225, 144, 74, 149, 125, 32, 9, 21, 220, 23, 230, 220, 155, 9, 232, 45]","[137920, 138713, 139242, 139766, 140262, 140751, 141233, 141760, 142196, 142561, 142836, 143104, 144787, 145441, 146018, 146572, 147130, 147667, 148196, 148727, 149240, 149768, 150292, 150810]","[137840, 138340, 138840, 139340, 139840, 140340, 140840, 141340, 141767, 142208, 142567, 142849, 144763, 145431, 146022, 146566, 147118, 147667, 148182, 148715, 149234, 149755, 150280, 150796]",96,OR,U,R,ITMSR,1.1,
1,500,practice,0,1,1,1,practice,"['S', 'S', 'S', 'S', 'S', 'S', 'S', 'C', 'C', 'C', 'C', 'C', 'C', 'C', 'C', 'C', 'C', 'C', 'C', 'C', 'C', 'C', 'C']","[156795, 157287, 157764, 158262, 158772, 159256, 159747, 160273, 160762, 161324, 161841, 162323, 162814, 163311, 163764, 164271, 164769, 165255, 165739, 166223, 166749, 167207, 167706]","[156886, 157345, 157807, 158318, 158834, 159304, 159827, 160326, 160821, 161384, 161902, 162410, 162893, 163376, 163837, 164355, 164843, 165334, 165810, 166308, 166800, 167285, 167789]","[183, 160, 92, 216, 124, 88, 120, 23, 9, 102, 19, 141, 247, 244, 58, 128, 161, 209, 92, 8, 243, 138, 170]","[156803, 157295, 157771, 158273, 158778, 159268, 159801, 160296, 160772, 161331, 161873, 162369, 162855, 163346, 163805, 164313, 164810, 165293, 165783, 166268, 166764, 167246, 167748]","[156345, 156845, 157345, 157845, 158345, 158845, 159345, 159845, 160293, 160782, 161344, 161861, 162343, 162834, 163331, 163784, 164291, 164789, 165275, 165760, 166243, 166769, 167227, 167726]",96,OR,U,R,ITMSR,1.1,
3,500,practice,0,2,2,2,practice,"['S', 'S', 'S', 'S', 'S', 'S', 'S', 'C', 'C', 'C', 'C', 'C', 'C', 'C', 'C', 'C', 'C', 'C', 'C', 'C', 'C', 'C', 'C']","[173832, 174466, 174937, 175434, 175955, 176424, 176943, 177466, 177988, 178481, 178963, 179453, 179947, 180398, 180870, 181390, 181889, 182386, 182928, 183387, 183884, 184377, 184866]","[173905, 174504, 174973, 175473, 175997, 176486, 176990, 177514, 178056, 178560, 179061, 179555, 180003, 180482, 180923, 181459, 181980, 182515, 182973, 183564, 184091, 184550, 184991]","[93, 156, 76, 46, 218, 245, 170, 201, 118, 207, 77, 17, 179, 35, 193, 225, 87, 242, 90, 51, 11, 227, 229]","[173839, 174474, 174946, 175443, 175966, 176462, 176946, 177473, 177995, 178489, 179000, 179506, 179970, 180438, 180874, 181424, 181922, 182422, 182931, 183490, 183890, 184382, 184900]","[173501, 174001, 174501, 175001, 175501, 176002, 176502, 177002, 177486, 178008, 178501, 178983, 179473, 179968, 180418, 180890, 181410, 181909, 182406, 182948, 183407, 183904, 184397, 184886]",96,OR,U,R,ITMSR,1.1,
5,500,practice,0,3,3,3,practice,"['S', 'S', 'S', 'S', 'S', 'S', 'S', 'C', 'C', 'C', 'C', 'C', 'C', 'C', 'C', 'C', 'C', 'C', 'C', 'C', 'C', 'C', 'C']","[191076, 191536, 192012, 192491, 192989, 193464, 193968, 194454, 194913, 195368, 195823, 196297, 196737, 197218, 197673, 198130, 198601, 199108, 199561, 200008, 200461, 200947, 201413]","[191152, 191596, 192074, 192540, 193048, 193532, 194032, 194534, 194977, 195437, 195881, 196353, 196793, 197274, 197719, 198197, 198684, 199165, 199628, 200118, 200520, 200967, 201460]","[41, 27, 125, 195, 200, 94, 249, 251, 54, 234, 188, 205, 167, 196, 147, 191, 10, 254, 253, 211, 135, 61, 160]","[191084, 191544, 192022, 192499, 193022, 193473, 194003, 194490, 194920, 195405, 195831, 196303, 196769, 197252, 197678, 198164, 198638, 199143, 199596, 200044, 200464, 200948, 201418]","[190572, 191072, 191572, 192072, 192572, 193072, 193572, 194072, 194475, 194933, 195388, 195843, 196317, 196757, 197238, 197693, 198150, 198621, 199128, 199581, 200028, 200481, 200967, 201433]",96,OR,U,R,ITMSR,1.1,
4,500,practice,0,4,4,4,practice,"['S', 'S', 'S', 'S', 'S', 'S', 'S', 'C', 'C', 'C', 'C', 'C', 'C', 'C', 'C', 'C', 'C', 'C', 'C', 'C', 'C', 'C', 'C']","[207836, 208171, 208609, 209079, 209573, 210084, 210572, 211102, 212132, 212510, 212964, 213466, 213944, 214423, 214902, 215392, 215857, 216337, 216807, 217274, 217774, 218226, 218701]","[207886, 208211, 208629, 209134, 209636, 210136, 210637, 211169, 212178, 212620, 213091, 213526, 213998, 214482, 214992, 215474, 215926, 216436, 216948, 217461, 217869, 218355, 218785]","[6, 88, 60, 163, 198, 119, 185, 84, 25, 74, 101, 34, 115, 110, 102, 26, 82, 134, 161, 175, 87, 165, 129]","[207843, 208180, 208611, 209086, 209606, 210087, 210576, 211131, 212152, 212546, 212965, 213492, 213970, 214450, 214930, 215407, 215885, 216367, 216812, 217334, 217806, 218230, 218730]","[207144, 207644, 208144, 208644, 209144, 209644, 210144, 210644, 211122, 212152, 212530, 212984, 213486, 213964, 214444, 214922, 215412, 215877, 216357, 216827, 217294, 217794, 218246, 218721]",96,OR,U,R,ITMSR,1.1,
0,500,practice,0,5,5,5,practice,"['S', 'S', 'S', 'S', 'S', 'S', 'S', 'C', 'C', 'C', 'C', 'C', 'C', 'C', 'C', 'C', 'C', 'C', 'C', 'C', 'C', 'C', 'C', 'C']","[224549, 225074, 225592, 226086, 226593, 227101, 227571, 228066, 228541, 229064, 229558, 230042, 230517, 230999, 231456, 231952, 232444, 232953, 233426, 233911, 234378, 234863, 235393, 235493]","[224614, 225165, 225679, 226213, 226749, 227202, 227692, 228192, 228678, 229180, 229663, 230122, 230634, 231133, 231604, 232078, 232574, 233090, 233537, 234033, 234619, 235181, 235413, 235546]","[51, 110, 56, 167, 139, 175, 190, 236, 138, 215, 66, 29, 212, 11, 53, 235, 140, 250, 144, 174, 128, 53, 129, 82]","[224557, 225107, 225628, 226122, 226647, 227152, 227605, 228106, 228574, 229101, 229593, 230051, 230552, 231033, 231495, 231985, 232451, 232987, 233432, 233919, 234384, 234897, 235399, 235503]","[224179, 224678, 225178, 225678, 226178, 226678, 227178, 227678, 228086, 228561, 229084, 229578, 230062, 230537, 231019, 231476, 231972, 232464, 232973, 233446, 233931, 234398, 234883, 235413]",96,OR,U,R,ITMSR,1.1,
1,600,trial,0,6,6,6,trial,"['S', 'S', 'S', 'S', 'S', 'S', 'S', 'C', 'C', 'C', 'C', 'C', 'C', 'C', 'C', 'C', 'C', 'C', 'C', 'C', 'C', 'C', 'C']","[284436, 285123, 285697, 286340, 286932, 287589, 288201, 288795, 289312, 289846, 290394, 290951, 291476, 292023, 292580, 293135, 293694, 294220, 294738, 295262, 295787, 296321, 296868]","[284488, 285172, 285752, 286420, 287016, 287666, 288281, 288875, 289430, 289979, 290523, 291038, 291576, 292105, 292649, 293211, 293771, 294340, 294888, 295474, 296034, 296563, 297018]","[43, 119, 132, 248, 28, 181, 146, 40, 255, 4, 210, 71, 250, 18, 217, 215, 227, 45, 5, 254, 62, 46, 101]","[284446, 285131, 285705, 286349, 286942, 287596, 288208, 288805, 289327, 289882, 290404, 290962, 291485, 292032, 292590, 293145, 293701, 294228, 294796, 295268, 295794, 296329, 296903]","[284040, 284640, 285240, 285840, 286440, 287040, 287640, 288240, 288815, 289332, 289866, 290414, 290971, 291496, 292043, 292600, 293155, 293714, 294240, 294758, 295282, 295808, 296341, 296888]",96,OR,U,R,ITMSR,1.1,
3,400,trial,0,7,7,7,trial,"['S', 'S', 'S', 'S', 'C', 'C', 'C', 'C', 'C', 'C', 'C', 'C', 'C', 'C', 'C', 'C', 'C', 'C', 'C', 'C']","[304207, 304564, 304979, 305389, 305842, 306229, 306609, 306969, 307371, 307758, 308152, 308534, 308967, 309326, 309725, 310131, 310521, 310939, 311336, 311724]","[304279, 304641, 305059, 305476, 305920, 306296, 306689, 307054, 307439, 307849, 308240, 308631, 309020, 309404, 309842, 310212, 310589, 311006, 311388, 311754]","[167, 157, 86, 60, 53, 229, 115, 2, 193, 99, 238, 25, 85, 169, 41, 248, 149, 155, 60, 231]","[304218, 304599, 305013, 305427, 305851, 306241, 306618, 307005, 307401, 307766, 308185, 308571, 309000, 309364, 309762, 310165, 310559, 310968, 311359, 311730]","[302676, 303075, 303475, 303875, 304275, 304675, 305075, 305475, 305862, 306249, 306629, 306989, 307391, 307778, 308172, 308554, 308987, 309346, 309745, 310151, 310541, 310959, 311356, 311744]",96,OR,U,R,ITMSR,1.1,
0,400,trial,0,8,8,8,trial,"['S', 'S', 'S', 'S', 'C', 'C', 'C', 'C', 'C', 'C', 'C', 'C', 'C', 'C', 'C', 'C', 'C', 'C', 'C', 'C']","[318701, 319035, 319442, 319825, 320257, 320641, 321038, 321427, 321790, 322159, 322535, 322906, 323279, 323673, 324044, 324411, 324798, 325196, 325570, 325944]","[318743, 319106, 319510, 319930, 320344, 320704, 321117, 321486, 321852, 322217, 322604, 322965, 323360, 323731, 324111, 324473, 324851, 325246, 325626, 325982]","[104, 61, 27, 60, 236, 153, 189, 102, 134, 83, 110, 59, 53, 226, 108, 240, 110, 137, 222, 100]","[318713, 319067, 319476, 319869, 320290, 320652, 321046, 321440, 321798, 322179, 322569, 322919, 323312, 323702, 324076, 324440, 324805, 325228, 325601, 325964]","[317128, 317528, 317928, 318328, 318728, 319128, 319528, 319928, 320277, 320661, 321058, 321447, 321810, 322179, 322555, 322926, 323299, 323693, 324064, 324431, 324818, 325216, 325591, 325964]",96,OR,U,R,ITMSR,1.1,
3,600,trial,0,9,9,9,trial,"['S', 'S', 'S', 'S', 'S', 'S', 'S', 'C', 'C', 'C', 'C', 'C', 'C', 'C', 'C', 'C', 'C', 'C', 'C', 'C', 'C', 'C', 'C']","[332184, 332782, 333337, 333913, 334529, 335145, 335730, 336306, 336874, 337422, 337964, 338512, 339100, 339648, 340197, 340730, 341280, 341830, 342331, 342879, 343405, 343970, 344505]","[332251, 332874, 333418, 334006, 334622, 335246, 335848, 336429, 336988, 337541, 338069, 338632, 339202, 339768, 340334, 340909, 341488, 342063, 342586, 343160, 343730, 344224, 344760]","[211, 212, 118, 151, 54, 130, 15, 192, 146, 211, 199, 16, 223, 33, 221, 215, 242, 160, 226, 248, 21, 127, 221]","[332189, 332806, 333350, 333923, 334548, 335173, 335780, 336313, 336905, 337457, 338008, 338529, 339122, 339663, 340230, 340763, 341307, 341848, 342347, 342889, 343414, 344056, 344517]","[331592, 332192, 332792, 333392, 333992, 334593, 335192, 335792, 336326, 336894, 337442, 337984, 338532, 339120, 339668, 340217, 340750, 341300, 341850, 342351, 342899, 343426, 343990, 344525]",96,OR,U,R,ITMSR,1.1,
2,400,trial,0,10,10,10,trial,"['S', 'S', 'S', 'S', 'C', 'C', 'C', 'C', 'C', 'C', 'C', 'C', 'C', 'C', 'C', 'C', 'C', 'C', 'C', 'C']","[351584, 351950, 352370, 352778, 353188, 353599, 354016, 354384, 354771, 355194, 355594, 355982, 356359, 356762, 357155, 357541, 357922, 358325, 358684, 359092]","[351655, 352046, 352489, 352900, 353334, 353731, 354130, 354462, 354906, 355313, 355714, 356067, 356444, 356857, 357255, 357658, 358035, 358405, 358809, 359201]","[73, 251, 62, 233, 218, 162, 123, 218, 223, 122, 222, 123, 130, 236, 186, 169, 170, 70, 141, 181]","[351592, 351982, 352407, 352815, 353228, 353639, 354057, 354405, 354807, 355221, 355609, 356017, 356374, 356770, 357181, 357585, 357957, 358354, 358714, 359109]","[350028, 350428, 350828, 351228, 351628, 352028, 352429, 352829, 353208, 353619, 354036, 354404, 354791, 355214, 355614, 356002, 356379, 356782, 357175, 357561, 357942, 358345, 358704, 359112]",96,OR,U,R,ITMSR,1.1,
2,400,trial,0,11,11,11,trial,"['S', 'S', 'S', 'S', 'C', 'C', 'C', 'C', 'C', 'C', 'C', 'C', 'C', 'C', 'C', 'C', 'C', 'C', 'C', 'C']","[366180, 366573, 366963, 367361, 367779, 368177, 368588, 368980, 369332, 369746, 370138, 370498, 370877, 371270, 371658, 372049, 372386, 372820, 373224, 373623]","[366261, 366654, 367070, 367459, 367881, 368296, 368704, 369078, 369461, 369852, 370216, 370579, 370977, 371369, 371764, 372105, 372530, 372900, 373304, 373682]","[103, 38, 215, 226, 226, 67, 255, 9, 45, 37, 52, 242, 209, 221, 235, 239, 218, 231, 47, 52]","[366214, 366608, 366996, 367405, 367813, 368209, 368621, 369008, 369366, 369781, 370165, 370513, 370914, 371298, 371667, 372070, 372438, 372862, 373250, 373651]","[364646, 365046, 365446, 365846, 366246, 366646, 367046, 367447, 367799, 368197, 368608, 369000, 369352, 369766, 370158, 370519, 370897, 371290, 371678, 372069, 372406, 372840, 373244, 373643]",96,OR,U,R,ITMSR,1.1,
4,600,trial,0,12,12,12,trial,"['S', 'S', 'S', 'S', 'C', 'C', 'C', 'C', 'C', 'C', 'C', 'C', 'C', 'C', 'C', 'C', 'C', 'C', 'C', 'C']","[381431, 382040, 382650, 383222, 383857, 384475, 385051, 385685, 386264, 386854, 387487, 388064, 388602, 389215, 389761, 390312, 390900, 391465, 392043, 392604]","[381599, 382200, 382792, 383413, 384064, 384696, 385362, 385712, 386487, 387158, 387756, 388328, 388919, 389485, 390070, 390596, 391183, 391748, 392320, 392859]","[15, 156, 109, 120, 142, 87, 36, 57, 137, 95, 42, 253, 92, 2, 73, 8, 108, 63, 73, 95]","[381479, 382075, 382669, 383228, 383862, 384483, 385081, 385692, 386270, 386886, 387493, 388104, 388632, 389223, 389942, 390417, 391010, 391576, 392127, 392617]","[379090, 379691, 380290, 380890, 381490, 382090, 382690, 383290, 383877, 384495, 385071, 385705, 386284, 386874, 387507, 388084, 388622, 389235, 389781, 390332, 390920, 391485, 392064, 392624]",96,OR,U,R,ITMSR,1.1,
3,400,trial,0,13,13,13,trial,"['C', 'C', 'C', 'C', 'C', 'C', 'C', 'C', 'C', 'C', 'C', 'C', 'C', 'C', 'C', 'C']","[401405, 401775, 402151, 402548, 402954, 403354, 403756, 404169, 404567, 404963, 405404, 405808, 406204, 406643, 407054, 407420]","[401521, 401911, 402312, 402719, 403135, 403527, 403910, 404326, 404748, 405173, 405591, 405994, 406415, 406838, 407229, 407612]","[228, 151, 208, 134, 191, 116, 112, 126, 115, 76, 98, 144, 212, 103, 148, 124]","[401413, 401781, 402159, 402556, 402962, 403361, 403765, 404176, 404575, 404973, 405413, 405816, 406211, 406753, 407151, 407498]","[398262, 398661, 399062, 399461, 399861, 400261, 400661, 401061, 401425, 401795, 402171, 402568, 402974, 403374, 403776, 404189, 404587, 404983, 405424, 405828, 406224, 406663, 407074, 407440]",96,OR,U,R,ITMSR,1.1,
5,600,trial,0,14,14,14,trial,"['S', 'S', 'S', 'S', 'C', 'C', 'C', 'C', 'C', 'C', 'C', 'C', 'C', 'C', 'C', 'C', 'C', 'C', 'C', 'C']","[415253, 415865, 416479, 417076, 417673, 418297, 418906, 419522, 420132, 420765, 421381, 421980, 422531, 423134, 423746, 424327, 424893, 425487, 426071, 426648]","[415378, 416016, 416628, 417200, 417884, 418519, 419189, 419764, 420357, 421040, 421637, 422191, 422871, 423476, 424056, 424607, 425192, 425786, 426365, 426893]","[32, 222, 178, 205, 236, 5, 8, 218, 251, 230, 182, 182, 11, 241, 46, 29, 14, 248, 236, 211]","[415258, 415873, 416485, 417084, 417680, 418305, 418914, 419529, 420139, 420773, 421388, 421989, 422538, 423141, 423862, 424334, 424900, 425493, 426079, 426656]","[412888, 413488, 414088, 414688, 415288, 415888, 416488, 417088, 417693, 418317, 418926, 419543, 420152, 420785, 421401, 422000, 422551, 423154, 423767, 424347, 424913, 425507, 426091, 426669]",96,OR,U,R,ITMSR,1.1,
0,400,trial,0,15,15,15,trial,"['S', 'S', 'S', 'S', 'C', 'C', 'C', 'C', 'C', 'C', 'C', 'C', 'C', 'C', 'C', 'C', 'C', 'C', 'C', 'C']","[433952, 434277, 434655, 435063, 435447, 435811, 436217, 436621, 437054, 437446, 437838, 438237, 438668, 439078, 439455, 439846, 440243, 440650, 441039, 441451]","[434045, 434394, 434771, 435128, 435561, 435956, 436389, 436793, 437238, 437647, 438033, 438411, 438875, 439267, 439651, 440031, 440448, 440837, 441262, 441623]","[207, 211, 168, 0, 63, 236, 235, 49, 56, 77, 100, 66, 117, 31, 121, 103, 50, 29, 24, 195]","[433960, 434310, 434662, 435076, 435459, 435850, 436229, 436662, 437064, 437455, 437848, 438247, 438677, 439119, 439553, 439896, 440252, 440693, 441143, 441462]","[432323, 432723, 433123, 433523, 433923, 434323, 434723, 435123, 435467, 435831, 436237, 436641, 437074, 437466, 437858, 438257, 438688, 439098, 439475, 439866, 440263, 440670, 441059, 441472]",96,OR,U,R,ITMSR,1.1,
1,400,trial,0,16,16,16,trial,"['S', 'S', 'S', 'S', 'C', 'C', 'C', 'C', 'C', 'C', 'C', 'C', 'C', 'C', 'C', 'C', 'C', 'C', 'C', 'C']","[448492, 448884, 449267, 449646, 450076, 450460, 450856, 451232, 451650, 452018, 452398, 452815, 453211, 453601, 453986, 454353, 454759, 455150, 455500, 455865]","[448612, 449015, 449406, 449798, 450225, 450643, 450999, 451373, 451783, 452169, 452559, 452988, 453363, 453763, 454147, 454526, 454951, 455293, 455668, 456079]","[187, 95, 39, 30, 226, 206, 254, 233, 210, 225, 234, 183, 242, 25, 202, 233, 248, 235, 1, 254]","[448501, 448889, 449276, 449655, 450087, 450500, 450895, 451266, 451686, 452051, 452408, 452826, 453221, 453632, 454030, 454388, 454794, 455158, 455538, 455875]","[446930, 447329, 447729, 448130, 448530, 448930, 449330, 449730, 450096, 450480, 450876, 451252, 451671, 452038, 452418, 452835, 453231, 453621, 454006, 454373, 454779, 455170, 455520, 455885]",96,OR,U,R,ITMSR,1.1,
5,400,trial,0,17,17,17,trial,"['S', 'S', 'S', 'S', 'C', 'C', 'C', 'C', 'C', 'C', 'C', 'C', 'C', 'C', 'C', 'C', 'C', 'C', 'C', 'C']","[462973, 463398, 463806, 464202, 464637, 465026, 465442, 465842, 466235, 466628, 467053, 467443, 467818, 468237, 468640, 469035, 469438, 469788, 470254, 470633]","[463100, 463539, 463962, 464340, 464762, 465166, 465571, 465955, 466327, 466713, 467169, 467528, 467909, 468304, 468721, 469113, 469501, 469879, 470274, 470737]","[34, 221, 9, 206, 218, 143, 154, 62, 218, 100, 77, 59, 253, 49, 138, 39, 12, 172, 23, 225]","[463035, 463408, 463844, 464212, 464652, 465074, 465480, 465890, 466273, 466664, 467087, 467476, 467863, 468268, 468676, 469071, 469473, 469825, 470258, 470675]","[461433, 461832, 462232, 462632, 463032, 463432, 463832, 464232, 464657, 465046, 465462, 465862, 466255, 466648, 467074, 467463, 467838, 468257, 468660, 469055, 469458, 469808, 470274, 470653]",96,OR,U,R,ITMSR,1.1,
3,600,trial,0,18,18,18,trial,"['S', 'S', 'S', 'S', 'C', 'C', 'C', 'C', 'C', 'C', 'C', 'C', 'C', 'C', 'C', 'C', 'C', 'C', 'C', 'C']","[478458, 479050, 479684, 480265, 480898, 481478, 482070, 482653, 483207, 483785, 484382, 484929, 485497, 486050, 486616, 487163, 487709, 488236, 488833, 489374]","[478546, 479223, 479883, 480452, 481118, 481796, 482399, 482879, 483433, 484069, 484620, 485048, 485665, 486293, 486866, 487323, 487984, 488603, 489122, 489513]","[220, 29, 68, 158, 168, 36, 179, 192, 205, 221, 216, 185, 134, 208, 190, 7, 64, 178, 200, 229]","[478470, 479083, 479721, 480303, 480908, 481516, 482187, 482703, 483214, 483907, 484391, 484972, 485509, 486159, 486715, 487216, 487746, 488504, 488886, 489383]","[476129, 476729, 477329, 477929, 478529, 479129, 479729, 480329, 480918, 481498, 482091, 482673, 483227, 483805, 484402, 484950, 485517, 486070, 486636, 487183, 487729, 488256, 488853, 489394]",96,OR,U,R,ITMSR,1.1,
0,600,trial,0,19,19,19,trial,"['C', 'C', 'C', 'C', 'C', 'C', 'C', 'C', 'C', 'C', 'C', 'C', 'C', 'C', 'C', 'C']","[499441, 500003, 500598, 501175, 501763, 502349, 502984, 503528, 504095, 504650, 505161, 505707, 506235, 506726, 507287, 507830]","[499528, 500257, 500855, 501353, 501997, 502681, 503205, 503651, 504292, 504974, 505552, 505949, 506431, 507062, 507588, 508067]","[30, 175, 180, 204, 6, 10, 69, 9, 68, 13, 117, 61, 53, 41, 154, 14]","[499479, 500118, 500635, 501283, 501873, 502464, 503102, 503570, 504105, 504775, 505406, 505836, 506348, 506996, 507506, 507959]","[494765, 495365, 495965, 496565, 497165, 497765, 498365, 498965, 499461, 500023, 500618, 501195, 501783, 502369, 503004, 503548, 504115, 504670, 505181, 505728, 506255, 506746, 507308, 507850]",96,OR,U,R,ITMSR,1.1,
1,400,trial,0,20,20,20,trial,"['S', 'S', 'S', 'S', 'C', 'C', 'C', 'C', 'C', 'C', 'C', 'C', 'C', 'C', 'C', 'C', 'C', 'C', 'C', 'C']","[515133, 515531, 515944, 516340, 516758, 517158, 517568, 517985, 518398, 518800, 519214, 519617, 520080, 520499, 520918, 521292, 521731, 522109, 522572, 522996]","[515232, 515700, 516127, 516515, 516925, 517331, 517764, 518188, 518589, 518993, 519411, 519790, 520230, 520691, 521088, 521461, 521924, 522291, 522790, 523128]","[205, 20, 9, 113, 222, 247, 202, 165, 255, 146, 107, 170, 4, 205, 173, 254, 221, 140, 159, 38]","[515145, 515573, 516058, 516454, 516771, 517197, 517662, 517993, 518407, 518809, 519298, 519678, 520094, 520509, 520958, 521355, 521839, 522178, 522699, 523060]","[513559, 513959, 514359, 514759, 515160, 515560, 515960, 516360, 516779, 517178, 517588, 518005, 518418, 518820, 519234, 519638, 520100, 520519, 520938, 521312, 521751, 522129, 522592, 523016]",96,OR,U,R,ITMSR,1.1,
2,600,trial,0,21,21,21,trial,"['S', 'S', 'S', 'S', 'C', 'C', 'C', 'C', 'C', 'C', 'C', 'C', 'C', 'C', 'C', 'C', 'C', 'C', 'C', 'C']","[530812, 531446, 532080, 532634, 533246, 533819, 534401, 534959, 535498, 536045, 536612, 537184, 537752, 538301, 538862, 539388, 539920, 540496, 541032, 541571]","[531070, 531803, 532381, 532944, 533505, 534070, 534637, 535158, 535739, 536360, 536891, 537421, 537971, 538561, 539126, 539533, 540120, 540762, 541324, 541805]","[46, 20, 122, 103, 173, 38, 106, 148, 194, 156, 210, 245, 120, 154, 244, 199, 211, 6, 15, 73]","[530860, 531632, 532196, 532750, 533355, 533937, 534408, 534966, 535507, 536115, 536737, 537348, 537788, 538337, 538972, 539428, 539927, 540611, 541184, 541700]","[528478, 529077, 529677, 530277, 530877, 531477, 532077, 532677, 533266, 533839, 534421, 534979, 535518, 536066, 536632, 537204, 537773, 538321, 538882, 539408, 539940, 540516, 541052, 541591]",96,OR,U,R,ITMSR,1.1,
0,600,trial,0,22,22,22,trial,"['C', 'C', 'C', 'C', 'C', 'C', 'C', 'C', 'C', 'C', 'C', 'C', 'C', 'C', 'C', 'C']","[551710, 552253, 552872, 553459, 554058, 554628, 555248, 555799, 556382, 556957, 557563, 558145, 558713, 559282, 559913, 560463]","[551873, 552517, 553102, 553666, 554293, 554914, 555531, 556057, 556638, 557280, 557871, 558415, 559047, 559665, 560232, 560726]","[226, 74, 216, 3, 47, 145, 6, 83, 240, 183, 85, 71, 75, 248, 7, 107]","[551746, 552356, 552981, 553585, 554068, 554737, 555258, 555808, 556391, 557083, 557670, 558264, 558821, 559398, 560154, 560600]","[547097, 547697, 548297, 548897, 549497, 550097, 550697, 551298, 551730, 552273, 552892, 553479, 554078, 554648, 555268, 555820, 556402, 556977, 557583, 558166, 558733, 559302, 559933, 560483]",96,OR,U,R,ITMSR,1.1,
4,400,trial,0,23,23,23,trial,"['C', 'C', 'C', 'C', 'C', 'C', 'C', 'C', 'C', 'C', 'C', 'C', 'C', 'C', 'C', 'C']","[569101, 569531, 569961, 570383, 570786, 571194, 571577, 571981, 572378, 572798, 573219, 573624, 574007, 574440, 574831, 575249]","[569207, 569664, 570133, 570542, 570963, 571378, 571757, 572118, 572552, 572981, 573390, 573734, 574133, 574563, 574938, 575364]","[7, 133, 241, 238, 160, 165, 219, 112, 179, 118, 58, 193, 153, 217, 244, 90]","[569107, 569538, 569967, 570391, 570793, 571203, 571584, 572018, 572386, 572807, 573258, 573634, 574016, 574448, 574841, 575299]","[566030, 566430, 566830, 567230, 567630, 568030, 568430, 568830, 569121, 569551, 569981, 570403, 570806, 571214, 571597, 572001, 572398, 572818, 573239, 573644, 574027, 574460, 574851, 575269]",96,OR,U,R,ITMSR,1.1,
4,400,trial,0,24,24,24,trial,"['C', 'C', 'C', 'C', 'C', 'C', 'C', 'C', 'C', 'C', 'C', 'C', 'C', 'C', 'C', 'C']","[584029, 584445, 584822, 585221, 585604, 586008, 586378, 586773, 587181, 587597, 587970, 588339, 588755, 589128, 589533, 589929]","[584150, 584578, 584991, 585358, 585776, 586186, 586539, 586887, 587331, 587758, 588118, 588453, 588906, 589290, 589703, 590103]","[152, 52, 206, 247, 239, 103, 170, 38, 136, 199, 243, 83, 54, 136, 17, 134]","[584042, 584488, 584930, 585308, 585613, 586115, 586478, 586782, 587220, 587607, 588023, 588386, 588767, 589167, 589611, 590006]","[580896, 581296, 581696, 582096, 582496, 582896, 583297, 583696, 584049, 584465, 584842, 585241, 585624, 586029, 586398, 586793, 587201, 587617, 587991, 588359, 588775, 589148, 589553, 589949]",96,OR,U,R,ITMSR,1.1,
4,600,trial,0,25,25,25,trial,"['C', 'C', 'C', 'C', 'C', 'C', 'C', 'C', 'C', 'C', 'C', 'C', 'C', 'C', 'C', 'C']","[599999, 600587, 601182, 601847, 602514, 603119, 603790, 604385, 604966, 605547, 606167, 606786, 607344, 607901, 608497, 609075]","[600171, 600863, 601449, 601988, 602693, 603417, 604029, 604617, 605301, 605908, 606462, 606954, 607674, 608246, 608773, 609162]","[105, 105, 160, 222, 176, 174, 232, 87, 62, 214, 44, 162, 17, 140, 47, 195]","[600097, 600698, 601298, 601891, 602558, 603252, 603902, 604531, 605173, 605794, 606294, 606851, 607357, 608053, 608613, 609112]","[595289, 595889, 596489, 597089, 597689, 598289, 598889, 599489, 600019, 600607, 601202, 601867, 602534, 603139, 603810, 604405, 604986, 605568, 606187, 606807, 607364, 607921, 608517, 609095]",96,OR,U,R,ITMSR,1.1,
5,600,trial,0,26,26,26,trial,"['S', 'S', 'S', 'S', 'C', 'C', 'C', 'C', 'C', 'C', 'C', 'C', 'C', 'C', 'C', 'C', 'C', 'C', 'C', 'C']","[616888, 617509, 618145, 618742, 619366, 619951, 620541, 621172, 621797, 622401, 622995, 623571, 624159, 624740, 625348, 625917, 626492, 627044, 627607, 628239]","[617191, 617911, 618506, 619069, 619680, 620363, 620908, 621338, 622059, 622767, 623363, 623809, 624527, 625148, 625722, 626172, 626839, 627439, 628025]","[205, 45, 248, 5, 117, 212, 133, 60, 215, 32, 133, 179, 109, 198, 245, 66, 182, 21, 226]","[617013, 617737, 618268, 618975, 619476, 620069, 620848, 621284, 621975, 622516, 623184, 623691, 624420, 624864, 625702, 626048, 626609, 627251, 627942]","[614566, 615165, 615766, 616365, 616965, 617565, 618165, 618765, 619386, 619971, 620561, 621192, 621817, 622422, 623015, 623591, 624179, 624760, 625368, 625937, 626512, 627064, 627628, 628259]",96,OR,U,R,ITMSR,1.1,
1,600,trial,0,27,27,27,trial,"['C', 'C', 'C', 'C', 'C', 'C', 'C', 'C', 'C', 'C', 'C', 'C', 'C', 'C', 'C', 'C']","[638424, 638988, 639597, 640210, 640806, 641409, 641989, 642526, 643103, 643739, 644352, 644862, 645436, 645985, 646565, 647130]","[638683, 639369, 639965, 640480, 641093, 641737, 642295, 642808, 643537, 644081, 644605, 645107, 645809, 646350, 646895]","[79, 57, 207, 173, 198, 156, 184, 253, 82, 178, 243, 44, 55, 163, 165]","[638540, 639122, 639894, 640254, 640929, 641449, 642177, 642748, 643396, 644019, 644444, 644979, 645763, 646142, 646764]","[633705, 634305, 634905, 635505, 636105, 636705, 637305, 637905, 638444, 639008, 639618, 640230, 640826, 641429, 642009, 642546, 643123, 643759, 644372, 644882, 645456, 646005, 646585, 647150]",96,OR,U,R,ITMSR,1.1,
5,400,trial,0,28,28,28,trial,"['C', 'C', 'C', 'C', 'C', 'C', 'C', 'C', 'C', 'C', 'C', 'C', 'C', 'C', 'C', 'C']","[655708, 656110, 656494, 656908, 657320, 657720, 658125, 658504, 658947, 659346, 659755, 660123, 660537, 660919, 661317, 661691]","[655898, 656322, 656716, 657119, 657542, 657938, 658357, 658760, 659098, 659593, 660003, 660404, 660762, 661161, 661558]","[185, 77, 14, 20, 154, 241, 103, 157, 147, 250, 189, 195, 240, 2, 180]","[655747, 656218, 656603, 657011, 657326, 657728, 658241, 658513, 658956, 659353, 659792, 660132, 660545, 660926, 661326]","[652563, 652963, 653363, 653763, 654163, 654563, 654963, 655363, 655728, 656130, 656514, 656928, 657340, 657740, 658145, 658524, 658967, 659366, 659775, 660143, 660557, 660939, 661337, 661711]",96,OR,U,R,ITMSR,1.1,
2,600,trial,0,29,29,29,trial,"['S', 'S', 'S', 'S', 'C', 'C', 'C', 'C', 'C', 'C', 'C', 'C', 'C', 'C', 'C', 'C', 'C', 'C', 'C', 'C']","[669603, 670247, 670810, 671384, 671964, 672601, 673162, 673741, 674308, 674878, 675424, 675952, 676459, 677018, 677520, 678049, 678550, 679095, 679606, 680114]","[669861, 670474, 671122, 671684, 672326, 672876, 673459, 674000, 674546, 675116, 675665, 676191, 676712, 677294, 677774, 678258, 678859, 679373, 679866, 680347]","[105, 173, 180, 169, 110, 202, 140, 160, 108, 171, 144, 72, 179, 21, 47, 222, 219, 131, 185, 78]","[669648, 670372, 670950, 671614, 672248, 672775, 673348, 673875, 674465, 675036, 675519, 675988, 676573, 677185, 677646, 678165, 678758, 679310, 679721, 680255]","[667273, 667873, 668473, 669073, 669673, 670273, 670873, 671473, 671984, 672621, 673182, 673761, 674328, 674898, 675444, 675972, 676480, 677038, 677540, 678069, 678571, 679115, 679626, 680134]",96,OR,U,R,ITMSR,1.1,
3,600,trial,0,30,30,30,trial,"['S', 'S', 'S', 'S', 'C', 'C', 'C', 'C', 'C', 'C', 'C', 'C', 'C', 'C', 'C', 'C', 'C', 'C', 'C', 'C', 'C', 'C']","[771847, 772455, 773032, 773696, 774273, 774864, 775452, 775558, 776016, 776605, 777172, 777746, 778343, 778929, 779038, 779480, 780066, 780637, 781174, 781771, 782311, 782859]","[772017, 772738, 773371, 773948, 774591, 775205, 775478, 775771, 776357, 776941, 777507, 778065, 778607, 778958, 779225, 779825, 780391, 780929, 781526, 782063, 782637]","[136, 14, 200, 20, 52, 89, 66, 2, 56, 131, 101, 43, 219, 167, 167, 62, 98, 235, 27, 184, 5]","[771852, 772463, 773040, 773703, 774279, 774872, 775458, 775558, 776024, 776612, 777180, 777752, 778350, 778934, 779128, 779486, 780071, 780645, 781181, 781778, 782318]","[769471, 770070, 770670, 771270, 771870, 772470, 773070, 773670, 774293, 774884, 775472, 776036, 776625, 777192, 777766, 778363, 778949, 779500, 780086, 780657, 781194, 781791, 782331, 782879]",96,OR,U,R,ITMSR,1.1,
5,600,trial,0,31,31,31,trial,"['S', 'S', 'S', 'S', 'C', 'C', 'C', 'C', 'C', 'C', 'C', 'C', 'C', 'C', 'C', 'C', 'C', 'C', 'C', 'C', 'C']","[790678, 791296, 791913, 792512, 793090, 793197, 793705, 794316, 794919, 795496, 796124, 796735, 797320, 797927, 798539, 799062, 799671, 800265, 800860, 801433, 801985]","[790913, 791578, 792229, 792788, 793117, 793374, 794010, 794624, 795195, 795850, 796476, 797031, 797630, 798231, 798845, 799437, 799979, 800609, 801208, 801740]","[122, 68, 254, 156, 55, 68, 23, 70, 141, 31, 98, 9, 118, 124, 81, 140, 246, 186, 7, 51]","[790685, 791303, 791920, 792519, 793096, 793198, 793711, 794324, 794926, 795501, 796131, 796743, 797326, 797933, 798778, 799183, 799679, 800272, 800868, 801438]","[788312, 788912, 789512, 790112, 790712, 791312, 791912, 792512, 793110, 793725, 794336, 794939, 795516, 796144, 796755, 797340, 797947, 798559, 799082, 799691, 800285, 800880, 801453, 802006]",96,OR,U,R,ITMSR,1.1,
3,400,trial,0,32,32,32,trial,"['C', 'C', 'C', 'C', 'C', 'C', 'C', 'C', 'C', 'C', 'C', 'C', 'C', 'C', 'C', 'C', 'C', 'C', 'C', 'C', 'C']","[810732, 811105, 811529, 811631, 811905, 812271, 812372, 812689, 813086, 813467, 813853, 813953, 814230, 814671, 814773, 815023, 815441, 815544, 815851, 816212, 816610]","[810823, 811254, 811551, 811669, 812066, 812291, 812462, 812864, 813266, 813659, 813873, 814002, 814460, 814693, 814815, 815237, 815464, 815628, 816035, 816410, 816818]","[90, 46, 141, 171, 14, 208, 105, 121, 126, 121, 172, 25, 102, 33, 160, 108, 112, 173, 119, 159, 7]","[810737, 811112, 811536, 811636, 811911, 812276, 812420, 812699, 813092, 813473, 813859, 813989, 814236, 814675, 814774, 815029, 815447, 815591, 815857, 816221, 816616]","[807604, 808004, 808404, 808804, 809204, 809604, 810004, 810404, 810753, 811125, 811549, 811925, 812291, 812709, 813106, 813487, 813873, 814251, 814691, 815043, 815461, 815872, 816232, 816630]",96,OR,U,R,ITMSR,1.1,
1,600,trial,0,33,33,33,trial,"['B', 'C', 'C', 'C', 'C', 'C', 'C', 'C', 'C', 'C', 'C', 'C', 'C', 'C', 'C', 'C', 'C', 'C', 'C']","[822343, 827010, 827613, 828235, 828853, 829417, 829517, 830021, 830663, 831237, 831821, 831921, 832381, 832988, 833579, 834188, 834779, 835396, 835950]","[825559, 827341, 827959, 828552, 829101, 829437, 829744, 830368, 830916, 831518, 831841, 832161, 832790, 833307, 833829, 834487, 835110, 835661, 836174]","[132, 211, 186, 181, 118, 78, 233, 96, 47, 32, 76, 227, 28, 4, 173, 87, 150, 255, 141]","[824441, 827020, 827620, 828242, 828857, 829421, 829638, 830028, 830669, 831241, 831826, 832107, 832390, 832996, 833774, 834194, 834787, 835399, 836066]","[822354, 822955, 823554, 824154, 824754, 825354, 825954, 826554, 827030, 827633, 828255, 828873, 829437, 830041, 830683, 831257, 831841, 832401, 833008, 833599, 834208, 834799, 835416, 835970]",96,OR,U,R,ITMSR,1.1,
5,400,trial,0,34,34,34,trial,"['C', 'C', 'C', 'C', 'C', 'C', 'C', 'C', 'C', 'C', 'C', 'C', 'C', 'C', 'C', 'C']","[844739, 845122, 845532, 845933, 846326, 846747, 847130, 847511, 847900, 848295, 848698, 849102, 849507, 849911, 850304, 850665]","[844874, 845345, 845711, 846074, 846511, 846921, 847301, 847698, 848077, 848479, 848890, 849255, 849700, 850111, 850490]","[154, 9, 246, 9, 130, 64, 45, 117, 76, 103, 15, 81, 228, 41, 35]","[844748, 845163, 845546, 845944, 846337, 846757, 847139, 847552, 847910, 848306, 848739, 849111, 849637, 849921, 850314]","[841542, 841943, 842342, 842742, 843142, 843542, 843942, 844342, 844760, 845143, 845552, 845954, 846346, 846767, 847150, 847532, 847920, 848315, 848718, 849122, 849527, 849931, 850324, 850685]",96,OR,U,R,ITMSR,1.1,
1,400,trial,0,35,35,35,trial,"['C', 'C', 'C', 'C', 'C', 'C', 'C', 'C', 'C', 'C', 'C', 'C', 'C', 'C', 'C', 'C']","[859231, 859629, 860013, 860416, 860807, 861232, 861619, 862007, 862409, 862828, 863253, 863616, 864025, 864440, 864809, 865178]","[859370, 859801, 860197, 860561, 860997, 861369, 861769, 862153, 862552, 862971, 863380, 863774, 864181, 864573, 864960, 865392]","[162, 102, 118, 77, 133, 197, 20, 66, 248, 48, 27, 174, 205, 208, 214, 155]","[859241, 859670, 860054, 860426, 860852, 861279, 861658, 862015, 862418, 862866, 863261, 863624, 864062, 864451, 864818, 865274]","[856062, 856462, 856862, 857262, 857662, 858062, 858462, 858862, 859251, 859650, 860034, 860436, 860827, 861252, 861639, 862027, 862429, 862849, 863273, 863636, 864045, 864460, 864829, 865198]",96,OR,U,R,ITMSR,1.1,
4,600,trial,0,36,36,36,trial,"['C', 'C', 'C', 'C', 'C', 'C', 'C', 'C', 'C', 'C', 'C', 'C', 'C', 'C', 'C', 'C']","[875726, 876284, 876868, 877454, 878042, 878617, 879234, 879771, 880350, 880929, 881487, 882048, 882612, 883165, 883707, 884261]","[875973, 876619, 877200, 877790, 878371, 878961, 879513, 880140, 880697, 881260, 881795, 882358, 882945, 883506, 884032]","[128, 70, 148, 187, 237, 184, 136, 169, 172, 228, 212, 248, 238, 169, 197]","[875746, 876299, 876890, 877577, 878161, 878627, 879247, 879781, 880359, 880941, 881497, 882058, 882733, 883178, 883858]","[870966, 871566, 872166, 872766, 873366, 873966, 874566, 875166, 875746, 876304, 876888, 877474, 878062, 878637, 879254, 879791, 880370, 880949, 881507, 882068, 882632, 883185, 883727, 884281]",96,OR,U,R,ITMSR,1.1,
4,400,trial,0,37,37,37,trial,"['C', 'C', 'C', 'C', 'C', 'C', 'C', 'C', 'C', 'C', 'C', 'C', 'C', 'C', 'C', 'C']","[892958, 893347, 893732, 894158, 894559, 894936, 895285, 895685, 896087, 896463, 896869, 897282, 897674, 898065, 898494, 898878]","[893124, 893536, 893914, 894313, 894759, 895131, 895492, 895899, 896306, 896673, 897041, 897485, 897902, 898276, 898694]","[139, 161, 130, 120, 114, 160, 169, 95, 108, 64, 230, 92, 78, 86, 129]","[892965, 893357, 893742, 894170, 894570, 895044, 895312, 895695, 896212, 896474, 896890, 897291, 897683, 898072, 898501]","[889811, 890210, 890610, 891010, 891410, 891810, 892210, 892610, 892978, 893367, 893752, 894178, 894579, 894956, 895305, 895705, 896107, 896483, 896889, 897302, 897694, 898085, 898514, 898898]",96,OR,U,R,ITMSR,1.1,
1,400,trial,0,38,38,38,trial,"['C', 'C', 'C', 'C', 'C', 'C', 'C', 'C', 'C', 'C', 'C', 'C', 'C', 'C', 'C', 'C']","[907464, 907843, 908213, 908591, 909001, 909384, 909755, 910123, 910507, 910882, 911267, 911660, 912000, 912414, 912768, 913124]","[907639, 908023, 908416, 908815, 909212, 909597, 909977, 910353, 910641, 911100, 911481, 911834, 912279, 912621, 912974, 913354]","[74, 97, 120, 105, 163, 181, 148, 155, 98, 113, 130, 133, 137, 180, 205, 170]","[907472, 907856, 908221, 908600, 909115, 909392, 909763, 910131, 910515, 910897, 911278, 911670, 912012, 912419, 912772, 913132]","[904297, 904696, 905096, 905496, 905896, 906296, 906696, 907096, 907484, 907864, 908233, 908611, 909021, 909404, 909775, 910143, 910527, 910902, 911287, 911680, 912020, 912434, 912788, 913144]",96,OR,U,R,ITMSR,1.1,
2,400,trial,0,39,39,39,trial,"['C', 'C', 'C', 'C', 'C', 'C', 'C', 'C', 'C', 'C', 'C', 'C', 'C', 'C', 'C', 'C']","[921838, 922214, 922609, 923002, 923405, 923790, 924207, 924610, 924995, 925377, 925760, 926124, 926517, 926883, 927272, 927613]","[922009, 922417, 922824, 923244, 923662, 924040, 924452, 924831, 925232, 925570, 925906, 926355, 926740, 927075, 927443]","[205, 143, 168, 183, 201, 172, 199, 215, 206, 121, 114, 142, 192, 132, 135]","[921852, 922226, 922624, 923018, 923420, 923807, 924218, 924617, 925002, 925387, 925804, 926133, 926526, 926896, 927306]","[918693, 919093, 919493, 919894, 920293, 920693, 921093, 921493, 921858, 922234, 922629, 923022, 923425, 923810, 924227, 924631, 925016, 925398, 925780, 926144, 926537, 926903, 927292, 927633]",96,OR,U,R,ITMSR,1.1,
2,600,trial,0,40,40,40,trial,"['B', 'C', 'C', 'C', 'C', 'C', 'C', 'C', 'C', 'C', 'C', 'C', 'C', 'C', 'C', 'C', 'C']","[932918, 937603, 938189, 938785, 939403, 940015, 940577, 941143, 941721, 942332, 942896, 943526, 944095, 944668, 945263, 945843, 946403]","[934452, 937949, 938546, 939150, 939752, 940354, 940981, 941524, 942082, 942698, 943362, 943875, 944460, 945029, 945698, 946234]","[49, 219, 183, 223, 243, 236, 194, 137, 152, 225, 165, 91, 132, 231, 184, 57]","[933869, 937626, 938204, 938797, 939538, 940028, 940590, 941227, 941867, 942343, 943056, 943713, 944210, 944824, 945403, 945954]","[932930, 933530, 934130, 934730, 935330, 935930, 936530, 937131, 937623, 938209, 938805, 939423, 940035, 940597, 941163, 941741, 942352, 942916, 943546, 944115, 944688, 945283, 945863, 946423]",96,OR,U,R,ITMSR,1.1,
4,600,trial,0,41,41,41,trial,"['C', 'C', 'C', 'C', 'C', 'C', 'C', 'C', 'C', 'C', 'C', 'C', 'C', 'C', 'C', 'C']","[956784, 957414, 958033, 958666, 959322, 959983, 960622, 961263, 961891, 962501, 963080, 963708, 964349, 964954, 965509, 966082]","[957170, 957784, 958397, 959044, 959692, 960309, 960961, 961595, 962221, 962898, 963538, 964102, 964745, 965311, 965889]","[204, 191, 213, 243, 172, 143, 165, 138, 147, 128, 153, 123, 118, 173, 171]","[956807, 957428, 958046, 958682, 959339, 959997, 960631, 961274, 961900, 962528, 963100, 963730, 964362, 965089, 965520]","[952061, 952662, 953261, 953861, 954461, 955061, 955661, 956261, 956804, 957434, 958053, 958686, 959342, 960003, 960642, 961283, 961911, 962521, 963100, 963728, 964369, 964974, 965529, 966103]",96,OR,U,R,ITMSR,1.1,
5,400,trial,0,42,42,42,trial,"['C', 'C', 'C', 'C', 'C', 'C', 'C', 'C', 'C', 'C', 'C', 'C', 'C', 'C', 'C', 'C']","[974674, 975067, 975450, 975861, 976274, 976672, 977093, 977502, 977893, 978309, 978718, 979116, 979549, 979908, 980350, 980710]","[974895, 975297, 975703, 976122, 976526, 976950, 977353, 977758, 978167, 978569, 978984, 979412, 979737, 980210, 980581]","[8, 119, 101, 133, 166, 162, 129, 108, 70, 118, 178, 163, 67, 83, 107]","[974698, 975078, 975470, 975869, 976282, 976676, 977098, 977506, 978046, 978330, 978732, 979133, 979577, 980143, 980353]","[971488, 971888, 972289, 972688, 973088, 973488, 973888, 974288, 974694, 975087, 975470, 975881, 976294, 976692, 977113, 977522, 977913, 978329, 978738, 979136, 979569, 979928, 980370, 980730]",96,OR,U,R,ITMSR,1.1,
2,600,trial,0,43,43,43,trial,"['C', 'C', 'C', 'C', 'C', 'C', 'C', 'C', 'C', 'C', 'C', 'C', 'C', 'C', 'C', 'C', 'C']","[991485, 992078, 992660, 993228, 993805, 994386, 994968, 995494, 996042, 996590, 996713, 997111, 997663, 998213, 998761, 999284, 1000972]","[991853, 992422, 992999, 993584, 994203, 994728, 995300, 995872, 996427, 996633, 996853, 997449, 997964, 998508, 999057, 1000145]","[237, 50, 96, 100, 10, 43, 33, 35, 233, 24, 60, 11, 172, 174, 204, 189]","[991492, 992082, 992664, 993231, 993808, 994390, 994976, 995499, 996047, 996592, 996715, 997116, 997670, 998217, 998766, 999289]","[986164, 986764, 987364, 987964, 988564, 989164, 989764, 990364, 991505, 992098, 992680, 993248, 993825, 994406, 994989, 995514, 996062, 996610, 997131, 997683, 998233, 998781, 999304, 1000992]",96,OR,U,R,ITMSR,1.1,
0,600,trial,0,44,44,44,trial,"['C', 'C', 'C', 'C', 'C', 'C', 'C', 'C', 'C', 'C', 'C', 'C', 'C', 'C', 'C', 'C']","[1011366, 1011942, 1012539, 1013111, 1013666, 1014227, 1014822, 1015368, 1015923, 1016523, 1017044, 1017616, 1018169, 1018731, 1019292, 1019840]","[1011716, 1012338, 1012904, 1013409, 1014054, 1014626, 1015169, 1015669, 1016296, 1016859, 1017440, 1017893, 1018508, 1019108, 1019651]","[89, 59, 183, 215, 32, 212, 217, 139, 193, 117, 191, 82, 225, 121, 206]","[1011376, 1011949, 1012546, 1013117, 1013694, 1014243, 1014836, 1015373, 1015938, 1016698, 1017159, 1017691, 1018180, 1019009, 1019504]","[1006627, 1007226, 1007826, 1008427, 1009026, 1009626, 1010226, 1010826, 1011386, 1011962, 1012559, 1013131, 1013686, 1014247, 1014842, 1015388, 1015943, 1016543, 1017064, 1017636, 1018189, 1018752, 1019312, 1019860]",96,OR,U,R,ITMSR,1.1,
0,400,trial,0,45,45,45,trial,"['C', 'C', 'C', 'C', 'C', 'C', 'C', 'C', 'C', 'C', 'C', 'C', 'C', 'C', 'C', 'C']","[1028932, 1029298, 1029663, 1030037, 1030415, 1030784, 1031153, 1031538, 1032055, 1032438, 1032793, 1033169, 1033549, 1033926, 1034691, 1035068]","[1029083, 1029502, 1029881, 1030245, 1030626, 1030998, 1031333, 1031728, 1032222, 1032617, 1032994, 1033315, 1033701, 1034041, 1034895, 1035244]","[75, 59, 69, 235, 38, 203, 245, 177, 86, 57, 93, 152, 210, 28, 31, 249]","[1028936, 1029318, 1029671, 1030053, 1030424, 1030790, 1031161, 1031602, 1032140, 1032454, 1032808, 1033179, 1033618, 1034013, 1034704, 1035081]","[1025271, 1025670, 1026070, 1026470, 1026870, 1027270, 1027671, 1028070, 1028952, 1029318, 1029683, 1030057, 1030435, 1030804, 1031173, 1031558, 1032075, 1032458, 1032813, 1033189, 1033569, 1033946, 1034712, 1035088]",96,OR,U,R,ITMSR,1.1,
3,400,trial,0,46,46,46,trial,"['S', 'C', 'C', 'C', 'C', 'C', 'C', 'C', 'C', 'C', 'C', 'C', 'C', 'C', 'C', 'C', 'C']","[1043485, 1043845, 1044213, 1044621, 1045009, 1045406, 1045790, 1046173, 1046579, 1047635, 1048128, 1048437, 1048739, 1049064, 1049623, 1049927, 1050273]","[1043596, 1044019, 1044432, 1044833, 1045228, 1045606, 1046008, 1046403, 1046926, 1047742, 1048284, 1048576, 1048911, 1049251, 1049710, 1050070, 1050479]","[77, 174, 215, 189, 225, 138, 150, 129, 208, 169, 168, 213, 152, 132, 40, 210, 79]","[1043491, 1043851, 1044220, 1044627, 1045015, 1045415, 1045798, 1046182, 1046586, 1047643, 1048135, 1048443, 1048747, 1049070, 1049637, 1049933, 1050279]","[1040677, 1041077, 1041477, 1041878, 1042277, 1042677, 1043077, 1043477, 1043865, 1044233, 1044641, 1045029, 1045426, 1045810, 1046193, 1046599, 1047655, 1048148, 1048457, 1048759, 1049084, 1049644, 1049947, 1050293]",96,OR,U,R,ITMSR,1.1,
2,400,trial,0,47,47,47,trial,"['S', 'S', 'S', 'C', 'C', 'C', 'C', 'C', 'C', 'C', 'C', 'C', 'C', 'C', 'C', 'C', 'C', 'C', 'C']","[1057522, 1057949, 1058318, 1058719, 1059143, 1059555, 1059947, 1060370, 1060796, 1061200, 1061624, 1062060, 1062435, 1062896, 1063294, 1063708, 1064098, 1064565, 1064958]","[1057657, 1058103, 1058519, 1058947, 1059361, 1059785, 1060217, 1060620, 1061046, 1061470, 1061899, 1062308, 1062751, 1063163, 1063578, 1063969, 1064418, 1064791, 1065207]","[41, 16, 174, 94, 103, 113, 68, 43, 126, 69, 15, 53, 119, 104, 47, 50, 118, 227, 100]","[1057530, 1057959, 1058325, 1058725, 1059149, 1059563, 1059955, 1060379, 1060803, 1061209, 1061635, 1062068, 1062443, 1062903, 1063302, 1063717, 1064107, 1064572, 1064966]","[1055605, 1056005, 1056405, 1056805, 1057205, 1057605, 1058006, 1058405, 1058739, 1059163, 1059575, 1059968, 1060390, 1060816, 1061220, 1061644, 1062080, 1062455, 1062916, 1063314, 1063728, 1064118, 1064585, 1064978]",96,OR,U,R,ITMSR,1.1,
0,400,trial,0,48,48,48,trial,"['C', 'C', 'C', 'C', 'C', 'C', 'C', 'C', 'C', 'C', 'C', 'C', 'C', 'C', 'C', 'C']","[1073565, 1073921, 1074314, 1074752, 1075176, 1075544, 1075954, 1076302, 1076702, 1077100, 1077445, 1077842, 1078230, 1078625, 1078981, 1079372]","[1073696, 1074128, 1074583, 1074989, 1075375, 1075794, 1076151, 1076538, 1076928, 1077299, 1077653, 1078055, 1078415, 1078792, 1079177, 1079605]","[95, 234, 69, 11, 71, 51, 154, 211, 247, 49, 28, 13, 169, 172, 173, 73]","[1073573, 1073932, 1074321, 1074760, 1075183, 1075552, 1075963, 1076314, 1076711, 1077110, 1077452, 1077850, 1078238, 1078635, 1078991, 1079382]","[1070373, 1070773, 1071173, 1071574, 1071973, 1072373, 1072773, 1073173, 1073585, 1073941, 1074334, 1074772, 1075196, 1075564, 1075974, 1076322, 1076722, 1077121, 1077465, 1077862, 1078250, 1078645, 1079001, 1079392]",96,OR,U,R,ITMSR,1.1,
1,600,trial,0,49,49,49,trial,"['C', 'C', 'C', 'C', 'C', 'C', 'C', 'C', 'C', 'C', 'C', 'C', 'C', 'C', 'C', 'C', 'C']","[1089491, 1090066, 1090644, 1091233, 1091858, 1092382, 1092985, 1093551, 1094124, 1094680, 1095236, 1095805, 1096370, 1096937, 1097524, 1097633, 1098094]","[1089595, 1090196, 1090718, 1091335, 1091933, 1092531, 1093133, 1093705, 1094233, 1094767, 1095364, 1095917, 1096512, 1097122, 1097553, 1097662, 1098132]","[175, 235, 136, 99, 111, 151, 159, 234, 140, 100, 167, 82, 142, 181, 184, 58, 203]","[1089497, 1090072, 1090653, 1091239, 1091864, 1092388, 1092992, 1093556, 1094129, 1094686, 1095241, 1095812, 1096375, 1096942, 1097529, 1097633, 1098097]","[1084780, 1085380, 1085980, 1086580, 1087180, 1087780, 1088380, 1088980, 1089511, 1090086, 1090664, 1091253, 1091878, 1092402, 1093005, 1093571, 1094145, 1094701, 1095256, 1095825, 1096390, 1096957, 1097544, 1098114]",96,OR,U,R,ITMSR,1.1,
3,600,trial,0,50,50,50,trial,"['C', 'C', 'C', 'C', 'C', 'C', 'C', 'C', 'C', 'C', 'C', 'C', 'C', 'C', 'C', 'C']","[1108511, 1109120, 1109698, 1110280, 1110873, 1111471, 1112040, 1112570, 1113142, 1113732, 1114299, 1114915, 1115461, 1115978, 1116489, 1117044]","[1108687, 1109306, 1109932, 1110565, 1111174, 1111718, 1112294, 1112880, 1113457, 1113988, 1114549, 1115106, 1115685, 1116216, 1116749]","[85, 123, 113, 185, 211, 114, 170, 168, 202, 125, 225, 180, 145, 179, 213]","[1108518, 1109128, 1109705, 1110287, 1110879, 1111479, 1112046, 1112578, 1113147, 1113739, 1114304, 1114921, 1115595, 1115985, 1116496]","[1103781, 1104381, 1104982, 1105581, 1106181, 1106781, 1107381, 1107981, 1108531, 1109140, 1109719, 1110300, 1110893, 1111491, 1112060, 1112590, 1113162, 1113752, 1114319, 1114935, 1115481, 1115998, 1116509, 1117064]",96,OR,U,R,ITMSR,1.1,
0,600,trial,0,51,51,51,trial,"['C', 'C', 'C', 'C', 'C', 'C', 'C', 'C', 'C', 'C', 'C', 'C', 'C', 'C', 'C', 'C']","[1127314, 1127909, 1128472, 1129052, 1129659, 1130237, 1130818, 1131389, 1131988, 1132594, 1133144, 1133701, 1134283, 1134869, 1135433, 1135983]","[1127468, 1128064, 1128644, 1129210, 1129938, 1130559, 1131114, 1131713, 1132336, 1132895, 1133462, 1134049, 1134622, 1135187, 1135721]","[192, 173, 181, 125, 52, 165, 224, 11, 1, 225, 249, 187, 225, 194, 235]","[1127337, 1127939, 1128498, 1129081, 1129682, 1130342, 1130907, 1131480, 1132154, 1132678, 1133228, 1133894, 1134525, 1134952, 1135536]","[1122630, 1123230, 1123830, 1124430, 1125030, 1125630, 1126231, 1126830, 1127334, 1127929, 1128493, 1129072, 1129679, 1130257, 1130839, 1131409, 1132008, 1132614, 1133164, 1133721, 1134303, 1134889, 1135453, 1136003]",96,OR,U,R,ITMSR,1.1,
4,400,trial,0,52,52,52,trial,"['C', 'C', 'C', 'C', 'C', 'C', 'C', 'C', 'C', 'C', 'C', 'C', 'C', 'C', 'C', 'C']","[1144814, 1145228, 1145622, 1146020, 1146436, 1146813, 1147229, 1147608, 1148037, 1148428, 1148831, 1149222, 1149604, 1150029, 1150396, 1150792]","[1144884, 1145359, 1145795, 1146193, 1146609, 1146993, 1147385, 1147763, 1148209, 1148635, 1149030, 1149424, 1149827, 1150218, 1150603]","[35, 117, 168, 31, 243, 15, 59, 41, 80, 146, 105, 139, 168, 153, 238]","[1144841, 1145253, 1145704, 1146047, 1146456, 1146899, 1147249, 1147638, 1148051, 1148441, 1148853, 1149339, 1149688, 1150109, 1150518]","[1141659, 1142059, 1142458, 1142858, 1143258, 1143658, 1144058, 1144458, 1144834, 1145248, 1145643, 1146040, 1146456, 1146833, 1147249, 1147628, 1148057, 1148448, 1148851, 1149242, 1149624, 1150049, 1150416, 1150812]",96,OR,U,R,ITMSR,1.1,
5,600,trial,0,53,53,53,trial,"['C', 'C', 'C', 'C', 'C', 'C', 'C', 'C', 'C', 'C', 'C', 'C', 'C', 'C', 'C', 'C']","[1160843, 1161420, 1162011, 1162596, 1163153, 1163696, 1164247, 1164774, 1165338, 1165893, 1166429, 1166985, 1167580, 1168094, 1168596, 1169134]","[1160899, 1161498, 1162101, 1162685, 1163309, 1163893, 1164473, 1165061, 1165673, 1166224, 1166786, 1167321, 1167883, 1168441, 1168940]","[175, 100, 134, 182, 161, 249, 24, 37, 211, 35, 254, 211, 177, 195, 200]","[1160860, 1161443, 1162024, 1162608, 1163230, 1163777, 1164339, 1164913, 1165502, 1166009, 1166510, 1167055, 1167607, 1168226, 1168792]","[1156130, 1156730, 1157330, 1157931, 1158530, 1159130, 1159730, 1160330, 1160863, 1161440, 1162031, 1162616, 1163173, 1163716, 1164267, 1164794, 1165358, 1165913, 1166449, 1167005, 1167600, 1168114, 1168616, 1169154]",96,OR,U,R,ITMSR,1.1,
0,600,trial,0,54,54,54,trial,"['S', 'S', 'S', 'S', 'S', 'C', 'C', 'C', 'C', 'C', 'C', 'C', 'C', 'C', 'C', 'C', 'C', 'C', 'C', 'C', 'C']","[1205100, 1205529, 1206053, 1206677, 1207250, 1207853, 1208412, 1209009, 1209569, 1210179, 1210726, 1211270, 1211817, 1212366, 1212918, 1213447, 1213945, 1214510, 1214998, 1215566, 1216075]","[1205226, 1205726, 1206376, 1206992, 1207599, 1208207, 1208787, 1209354, 1209958, 1210461, 1211024, 1211613, 1212155, 1212708, 1213256, 1213778, 1214315, 1214813, 1215347, 1215888]","[90, 178, 126, 173, 251, 185, 132, 145, 117, 164, 90, 98, 73, 111, 166, 167, 254, 175, 120, 191]","[1205109, 1205536, 1206061, 1206684, 1207257, 1207859, 1208416, 1209015, 1209575, 1210184, 1210732, 1211277, 1211823, 1212371, 1212924, 1213453, 1213950, 1214516, 1215003, 1215572]","[1203159, 1203757, 1204357, 1204957, 1205557, 1206157, 1206757, 1207357, 1207873, 1208432, 1209029, 1209589, 1210200, 1210746, 1211290, 1211837, 1212386, 1212938, 1213467, 1213965, 1214530, 1215019, 1215586, 1216095]",96,OR,U,R,ITMSR,1.1,
2,400,trial,0,55,55,55,trial,"['S', 'S', 'S', 'S', 'C', 'C', 'C', 'C', 'C', 'C', 'C', 'C', 'C', 'C', 'C', 'C', 'C', 'C', 'C', 'C']","[1223093, 1223462, 1223884, 1224295, 1224707, 1225116, 1225540, 1225924, 1226364, 1226785, 1227201, 1227621, 1228003, 1228405, 1228797, 1229203, 1229644, 1230060, 1230439, 1230879]","[1223246, 1223687, 1224060, 1224454, 1224905, 1225371, 1225763, 1226199, 1226609, 1227037, 1227479, 1227817, 1228259, 1228618, 1229031, 1229484, 1229880, 1230256, 1230728]","[155, 115, 111, 218, 75, 56, 62, 50, 21, 64, 247, 55, 103, 126, 199, 17, 40, 209, 160]","[1223099, 1223470, 1223892, 1224300, 1224713, 1225122, 1225547, 1225933, 1226372, 1226790, 1227206, 1227624, 1228007, 1228411, 1228950, 1229208, 1229649, 1230066, 1230445]","[1221524, 1221923, 1222323, 1222723, 1223123, 1223523, 1223923, 1224323, 1224727, 1225136, 1225560, 1225944, 1226384, 1226805, 1227222, 1227641, 1228023, 1228425, 1228817, 1229223, 1229664, 1230081, 1230459, 1230899]",96,OR,U,R,ITMSR,1.1,
3,600,trial,0,56,56,56,trial,"['S', 'S', 'S', 'S', 'C', 'C', 'C', 'C', 'C', 'C', 'C', 'C', 'C', 'C', 'C', 'C', 'C', 'C', 'C', 'C']","[1239005, 1239589, 1240194, 1240804, 1241382, 1241971, 1242568, 1243113, 1243655, 1244217, 1244763, 1245292, 1245885, 1246435, 1247022, 1247589, 1248139, 1248717, 1249262, 1249802]","[1239229, 1239894, 1240495, 1241108, 1241733, 1242284, 1242845, 1243381, 1244008, 1244556, 1245071, 1245657, 1246221, 1246781, 1247296, 1247911, 1248483, 1249041, 1249565]","[22, 215, 174, 136, 254, 18, 86, 57, 170, 105, 217, 158, 28, 166, 70, 4, 115, 168, 207]","[1239014, 1239599, 1240203, 1240813, 1241391, 1241978, 1242574, 1243120, 1243663, 1244225, 1244771, 1245297, 1246192, 1246443, 1247030, 1247597, 1248415, 1248724, 1249268]","[1236654, 1237254, 1237854, 1238454, 1239054, 1239654, 1240254, 1240854, 1241402, 1241991, 1242588, 1243133, 1243675, 1244237, 1244783, 1245313, 1245905, 1246455, 1247042, 1247609, 1248159, 1248737, 1249282, 1249822]",96,OR,U,R,ITMSR,1.1,
0,400,trial,0,57,57,57,trial,"['C', 'C', 'C', 'C', 'C', 'C', 'C', 'C', 'C', 'C', 'C', 'C', 'C', 'C', 'C', 'C', 'C']","[1258441, 1258805, 1259212, 1259642, 1260067, 1260445, 1260856, 1261262, 1261674, 1262053, 1262430, 1262845, 1263249, 1263659, 1263762, 1264034, 1264382]","[1258578, 1259014, 1259440, 1259870, 1260262, 1260689, 1261065, 1261488, 1261883, 1262269, 1262696, 1263069, 1263495, 1263682, 1263856, 1264203, 1264652]","[232, 252, 178, 168, 192, 9, 62, 233, 16, 177, 185, 43, 199, 227, 42, 119, 220]","[1258449, 1258814, 1259219, 1259651, 1260076, 1260452, 1260865, 1261271, 1261681, 1262061, 1262439, 1262854, 1263256, 1263668, 1263762, 1264039, 1264390]","[1255257, 1255656, 1256056, 1256456, 1256856, 1257256, 1257656, 1258056, 1258461, 1258825, 1259232, 1259662, 1260087, 1260465, 1260876, 1261282, 1261694, 1262073, 1262450, 1262865, 1263269, 1263679, 1264054, 1264402]",96,OR,U,R,ITMSR,1.1,
2,600,trial,0,58,58,58,trial,"['B', 'S', 'S', 'S', 'S', 'C', 'C', 'C', 'C', 'C', 'C', 'C', 'C', 'C', 'C', 'C', 'C', 'C', 'C', 'C', 'C']","[1269880, 1272187, 1272819, 1273403, 1274031, 1274640, 1275232, 1275802, 1276355, 1276941, 1277464, 1278010, 1278583, 1279173, 1279685, 1280269, 1280823, 1281409, 1282012, 1282573, 1283113]","[1269922, 1272352, 1273077, 1273781, 1274373, 1275004, 1275557, 1276136, 1276728, 1277280, 1277828, 1278404, 1278923, 1279493, 1280099, 1280663, 1281141, 1281763, 1282344, 1282883]","[149, 50, 213, 204, 93, 45, 78, 150, 127, 171, 5, 160, 39, 26, 155, 8, 183, 47, 237, 231]","[1269880, 1272195, 1272827, 1273411, 1274036, 1274647, 1275240, 1275811, 1276522, 1276948, 1277471, 1278018, 1278590, 1279433, 1279811, 1280279, 1280919, 1281714, 1282112, 1282581]","[1269893, 1270493, 1271093, 1271693, 1272293, 1272893, 1273493, 1274093, 1274660, 1275252, 1275822, 1276376, 1276961, 1277485, 1278030, 1278603, 1279193, 1279705, 1280289, 1280843, 1281429, 1282032, 1282593, 1283133]",96,OR,U,R,ITMSR,1.1,
5,400,trial,0,59,59,59,trial,"['C', 'C', 'C', 'C', 'C', 'C', 'C', 'C', 'C', 'C', 'C', 'C', 'C', 'C', 'C', 'C', 'C', 'C', 'C', 'C']","[1291765, 1292146, 1292541, 1292923, 1293318, 1293673, 1294117, 1294503, 1294897, 1295002, 1295315, 1295677, 1295779, 1296084, 1296496, 1296866, 1296966, 1297275, 1297620, 1297722]","[1291785, 1292314, 1292736, 1293122, 1293498, 1293942, 1294310, 1294735, 1294922, 1295118, 1295514, 1295699, 1295896, 1296294, 1296700, 1296886, 1297105, 1297446, 1297641, 1297882]","[20, 44, 57, 177, 128, 19, 205, 32, 200, 17, 5, 163, 12, 255, 141, 119, 255, 132, 31, 204]","[1291772, 1292152, 1292549, 1292933, 1293325, 1293680, 1294123, 1294511, 1294902, 1295064, 1295324, 1295684, 1295856, 1296092, 1296504, 1296874, 1297038, 1297284, 1297626, 1297759]","[1288531, 1288930, 1289330, 1289730, 1290130, 1290530, 1290930, 1291330, 1291785, 1292166, 1292561, 1292943, 1293338, 1293693, 1294137, 1294523, 1294917, 1295335, 1295697, 1296104, 1296516, 1296886, 1297295, 1297640]",96,OR,U,R,ITMSR,1.1,
1,400,trial,0,60,60,60,trial,"['S', 'S', 'S', 'S', 'S', 'S', 'C', 'C', 'C', 'C', 'C', 'C', 'C', 'C', 'C', 'C', 'C', 'C', 'C', 'C', 'C', 'C', 'C', 'C', 'C', 'C']","[1304882, 1305260, 1305643, 1305746, 1306050, 1306151, 1306502, 1306884, 1307266, 1307624, 1308039, 1308141, 1308406, 1308770, 1309134, 1309544, 1309644, 1309912, 1310015, 1310279, 1310630, 1311017, 1311397, 1311727, 1311828, 1312095]","[1304978, 1305418, 1305666, 1305816, 1306071, 1306208, 1306663, 1307079, 1307446, 1307836, 1308060, 1308187, 1308590, 1308944, 1309345, 1309564, 1309705, 1309935, 1310063, 1310450, 1310768, 1311172, 1311526, 1311747, 1311889]","[235, 227, 213, 82, 188, 26, 154, 191, 244, 17, 10, 51, 5, 79, 171, 138, 252, 138, 22, 197, 125, 145, 174, 74, 225]","[1304889, 1305267, 1305650, 1305776, 1306057, 1306153, 1306509, 1306888, 1307273, 1307630, 1308046, 1308141, 1308411, 1308778, 1309143, 1309552, 1309646, 1309921, 1310034, 1310287, 1310638, 1311029, 1311495, 1311732, 1311828]","[1303335, 1303735, 1304135, 1304536, 1304936, 1305336, 1305736, 1306136, 1306522, 1306904, 1307286, 1307644, 1308059, 1308426, 1308790, 1309154, 1309564, 1309932, 1310299, 1310650, 1311037, 1311417, 1311747, 1312115]",96,OR,U,R,ITMSR,1.1,
0,400,trial,0,61,61,61,trial,"['C', 'C', 'C', 'C', 'C', 'C', 'C', 'C', 'C', 'C', 'C', 'C', 'C', 'C', 'C', 'C']","[1320700, 1321068, 1321415, 1321800, 1322225, 1322600, 1322976, 1323366, 1323782, 1324191, 1324601, 1324957, 1325365, 1325746, 1326176, 1326575]","[1320819, 1321226, 1321626, 1322058, 1322412, 1322752, 1323177, 1323573, 1323949, 1324347, 1324765, 1325153, 1325548, 1325923, 1326328, 1326735]","[231, 171, 182, 160, 147, 140, 38, 162, 181, 122, 146, 7, 158, 240, 48, 170]","[1320707, 1321073, 1321421, 1321806, 1322231, 1322605, 1322983, 1323372, 1323792, 1324197, 1324609, 1324963, 1325377, 1325754, 1326183, 1326582]","[1317510, 1317910, 1318310, 1318710, 1319110, 1319511, 1319910, 1320310, 1320720, 1321089, 1321435, 1321820, 1322245, 1322620, 1322996, 1323386, 1323802, 1324211, 1324621, 1324977, 1325385, 1325766, 1326196, 1326595]",96,OR,U,R,ITMSR,1.1,
3,400,trial,0,62,62,62,trial,"['C', 'C', 'C', 'C', 'C', 'C', 'C', 'C', 'C', 'C', 'C', 'C', 'C', 'C', 'C', 'C', 'C']","[1335521, 1335901, 1336305, 1336705, 1337113, 1337488, 1337878, 1338292, 1338683, 1339026, 1339406, 1339788, 1340175, 1340536, 1340957, 1341063, 1341327]","[1335655, 1336084, 1336470, 1336865, 1337284, 1337657, 1338062, 1338483, 1338826, 1339171, 1339564, 1339945, 1340315, 1340716, 1340983, 1341084]","[156, 74, 7, 164, 129, 82, 106, 101, 90, 13, 1, 64, 207, 62, 197, 100]","[1335527, 1335909, 1336312, 1336709, 1337119, 1337492, 1337883, 1338298, 1338689, 1339033, 1339413, 1339794, 1340181, 1340542, 1340963, 1341063]","[1332377, 1332777, 1333177, 1333577, 1333977, 1334377, 1334777, 1335177, 1335541, 1335921, 1336325, 1336725, 1337133, 1337508, 1337899, 1338312, 1338703, 1339046, 1339426, 1339808, 1340195, 1340556, 1340977, 1341347]",96,OR,U,R,ITMSR,1.1,
4,400,trial,0,63,63,63,trial,"['C', 'C', 'C', 'C', 'C', 'C', 'C', 'C', 'C', 'C', 'C', 'C', 'C', 'C', 'C', 'C', 'C']","[1350202, 1350578, 1350974, 1351343, 1351746, 1352089, 1352473, 1352823, 1353194, 1353564, 1353926, 1354318, 1354675, 1355102, 1355455, 1355555, 1355833]","[1350285, 1350680, 1351052, 1351421, 1351795, 1352162, 1352540, 1352983, 1353357, 1353722, 1354065, 1354447, 1354793, 1355122, 1355475, 1355575, 1356008]","[104, 101, 180, 223, 106, 198, 209, 48, 30, 191, 196, 132, 168, 121, 77, 66, 123]","[1350208, 1350586, 1350979, 1351349, 1351753, 1352095, 1352480, 1352828, 1353199, 1353571, 1353931, 1354324, 1354682, 1355109, 1355459, 1355555, 1355838]","[1347039, 1347439, 1347840, 1348239, 1348639, 1349039, 1349439, 1349839, 1350222, 1350598, 1350994, 1351363, 1351767, 1352109, 1352493, 1352843, 1353214, 1353584, 1353946, 1354338, 1354695, 1355122, 1355475, 1355853]",96,OR,U,R,ITMSR,1.1,
4,600,trial,0,64,64,64,trial,"['C', 'C', 'C', 'C', 'C', 'C', 'C', 'C', 'C', 'C', 'C', 'C', 'C', 'C', 'C', 'C', 'C', 'C', 'C']","[1365969, 1366591, 1367195, 1367783, 1368371, 1368471, 1368909, 1369496, 1370076, 1370178, 1370658, 1371231, 1371791, 1372407, 1372981, 1373585, 1374158, 1374260, 1374751]","[1366171, 1366796, 1367425, 1368052, 1368391, 1368631, 1369178, 1369755, 1370098, 1370439, 1370996, 1371580, 1372178, 1372725, 1373293, 1373884, 1374179, 1374452]","[151, 105, 105, 13, 4, 213, 114, 93, 184, 164, 213, 210, 153, 182, 162, 148, 159, 25]","[1365974, 1366599, 1367201, 1367894, 1368379, 1368583, 1368915, 1369501, 1370082, 1370219, 1370663, 1371236, 1371797, 1372411, 1372986, 1373589, 1374162, 1374350]","[1361246, 1361845, 1362445, 1363045, 1363645, 1364245, 1364845, 1365445, 1365989, 1366611, 1367215, 1367803, 1368391, 1368929, 1369517, 1370096, 1370678, 1371251, 1371811, 1372427, 1373001, 1373605, 1374178, 1374771]",96,OR,U,R,ITMSR,1.1,
1,600,trial,0,65,65,65,trial,"['S', 'S', 'S', 'C', 'C', 'C', 'C', 'C', 'C', 'C', 'C', 'C', 'C', 'C', 'C', 'C', 'C', 'C', 'C', 'C', 'C']","[1383139, 1383727, 1384284, 1384885, 1385472, 1386076, 1386635, 1387212, 1387786, 1388388, 1388941, 1389522, 1390103, 1390693, 1391321, 1391421, 1391869, 1392434, 1392976, 1393532, 1393632]","[1383232, 1383829, 1384375, 1385042, 1385635, 1386248, 1386866, 1387503, 1388102, 1388666, 1389241, 1389832, 1390412, 1391007, 1391341, 1391541, 1392186, 1392726, 1393259, 1393552]","[192, 146, 58, 3, 249, 232, 194, 25, 177, 122, 115, 65, 171, 166, 100, 128, 221, 242, 57, 57]","[1383146, 1383733, 1384291, 1384892, 1385479, 1386084, 1386642, 1387219, 1387793, 1388394, 1388946, 1389530, 1390109, 1390699, 1391327, 1391455, 1391877, 1392440, 1392985, 1393534]","[1380122, 1380722, 1381322, 1381922, 1382522, 1383122, 1383723, 1384322, 1384905, 1385492, 1386096, 1386655, 1387232, 1387806, 1388408, 1388961, 1389542, 1390124, 1390713, 1391341, 1391889, 1392454, 1392996, 1393552]",96,OR,U,R,ITMSR,1.1,
4,600,trial,0,66,66,66,trial,"['C', 'C', 'C', 'C', 'C', 'C', 'C', 'C', 'C', 'C', 'C', 'C', 'C', 'C', 'C', 'C', 'C', 'C', 'C', 'C']","[1403765, 1404380, 1404966, 1405578, 1406157, 1406257, 1406748, 1406848, 1407355, 1407887, 1408447, 1409061, 1409634, 1409736, 1410179, 1410279, 1410724, 1411321, 1411857, 1412415]","[1403972, 1404644, 1405242, 1405885, 1406177, 1406482, 1406768, 1407024, 1407586, 1408229, 1408769, 1409267, 1409655, 1409868, 1410199, 1410417, 1411087, 1411599, 1412120]","[201, 130, 231, 150, 219, 181, 45, 196, 211, 156, 235, 227, 8, 196, 121, 175, 20, 100, 70]","[1403776, 1404388, 1404974, 1405588, 1406166, 1406406, 1406753, 1406908, 1407364, 1407895, 1408649, 1409068, 1409642, 1409804, 1410184, 1410381, 1410808, 1411557, 1411978]","[1399041, 1399640, 1400240, 1400840, 1401440, 1402040, 1402640, 1403240, 1403785, 1404400, 1404986, 1405598, 1406177, 1406768, 1407375, 1407907, 1408467, 1409081, 1409654, 1410199, 1410744, 1411341, 1411877, 1412435]",96,OR,U,R,ITMSR,1.1,
1,400,trial,0,67,67,67,trial,"['S', 'S', 'S', 'S', 'C', 'C', 'C', 'C', 'C', 'C', 'C', 'C', 'C', 'C', 'C', 'C', 'C', 'C', 'C', 'C', 'C', 'C', 'C']","[1419550, 1419928, 1420300, 1420703, 1421131, 1421540, 1421912, 1422322, 1422422, 1422714, 1423139, 1423239, 1423519, 1423938, 1424040, 1424331, 1424782, 1425140, 1425543, 1425961, 1426392, 1426734, 1427172]","[1419646, 1420029, 1420440, 1420807, 1421157, 1421657, 1422121, 1422342, 1422455, 1422918, 1423159, 1423311, 1423737, 1423959, 1424099, 1424584, 1424935, 1425339, 1425750, 1426103, 1426496, 1426899, 1427333]","[62, 147, 178, 80, 109, 77, 61, 121, 107, 75, 22, 189, 93, 129, 112, 138, 194, 200, 105, 6, 63, 98, 253]","[1419555, 1419932, 1420307, 1420711, 1421138, 1421547, 1421923, 1422329, 1422436, 1422725, 1423145, 1423273, 1423525, 1423947, 1424041, 1424337, 1424788, 1425300, 1425650, 1425968, 1426400, 1426822, 1427179]","[1417968, 1418369, 1418768, 1419168, 1419568, 1419968, 1420368, 1420768, 1421151, 1421560, 1421932, 1422342, 1422734, 1423159, 1423539, 1423959, 1424351, 1424802, 1425160, 1425563, 1425981, 1426412, 1426754, 1427192]",96,OR,U,R,ITMSR,1.1,
3,600,trial,0,68,68,68,trial,"['S', 'S', 'S', 'S', 'S', 'S', 'S', 'C', 'C', 'C', 'C', 'C', 'C', 'C', 'C', 'C', 'C', 'C', 'C', 'C', 'C', 'C', 'C', 'C']","[1433676, 1433779, 1434286, 1434828, 1435424, 1436010, 1436601, 1437184, 1437774, 1438367, 1438910, 1439469, 1440001, 1440553, 1441087, 1441619, 1442147, 1442652, 1443184, 1443728, 1444214, 1444760, 1444862, 1445286]","[1433699, 1433799, 1434306, 1434855, 1435463, 1436058, 1436658, 1437275, 1437884, 1438435, 1438962, 1439538, 1440066, 1440624, 1441136, 1441697, 1442209, 1442728, 1443267, 1443845, 1444411, 1444781, 1444908, 1445514]","[45, 52, 59, 141, 87, 120, 32, 109, 80, 147, 128, 138, 85, 244, 29, 69, 92, 20, 114, 50, 242, 53, 12, 156]","[1433683, 1433779, 1434292, 1434833, 1435431, 1436016, 1436606, 1437191, 1437779, 1438373, 1438916, 1439475, 1440008, 1440561, 1441093, 1441627, 1442153, 1442659, 1443191, 1443736, 1444221, 1444768, 1444862, 1445293]","[1432492, 1433090, 1433690, 1434290, 1434890, 1435490, 1436090, 1436690, 1437204, 1437794, 1438387, 1438930, 1439490, 1440021, 1440573, 1441107, 1441639, 1442167, 1442672, 1443204, 1443748, 1444234, 1444781, 1445306]",96,OR,U,R,ITMSR,1.1,
5,600,trial,0,69,69,69,trial,"['S', 'S', 'S', 'S', 'S', 'S', 'C', 'C', 'C', 'C', 'C', 'C', 'C', 'C', 'C', 'C', 'C', 'C', 'C', 'C', 'C', 'C']","[1452153, 1452703, 1453264, 1453885, 1454505, 1455098, 1455680, 1456280, 1456880, 1457476, 1458040, 1458646, 1459229, 1459802, 1460387, 1460957, 1461537, 1462140, 1462736, 1463293, 1463862, 1464419]","[1452178, 1452725, 1453288, 1453922, 1454548, 1455158, 1455766, 1456344, 1456945, 1457549, 1458115, 1458721, 1459302, 1459877, 1460473, 1461018, 1461619, 1462213, 1462812, 1463390, 1463960, 1464546]","[23, 118, 113, 70, 42, 74, 51, 81, 86, 33, 65, 100, 75, 70, 58, 45, 15, 23, 73, 67, 68, 84]","[1452158, 1452706, 1453267, 1453889, 1454511, 1455104, 1455685, 1456284, 1456884, 1457481, 1458045, 1458651, 1459233, 1459807, 1460392, 1460962, 1461543, 1462145, 1462740, 1463299, 1463867, 1464424]","[1450948, 1451548, 1452148, 1452748, 1453348, 1453948, 1454548, 1455149, 1455700, 1456301, 1456900, 1457496, 1458060, 1458666, 1459249, 1459822, 1460407, 1460977, 1461557, 1462160, 1462756, 1463313, 1463882, 1464439]",96,OR,U,R,ITMSR,1.1,
1,600,trial,0,70,70,70,trial,"['S', 'S', 'S', 'S', 'S', 'S', 'C', 'C', 'C', 'C', 'C', 'C', 'C', 'C', 'C', 'C', 'C', 'C', 'C', 'C', 'C', 'C']","[1471059, 1471649, 1472244, 1472878, 1473441, 1474039, 1474657, 1475278, 1475851, 1476443, 1477073, 1477694, 1478283, 1478864, 1479475, 1480034, 1480622, 1481209, 1481792, 1482377, 1482958, 1483497]","[1471107, 1471677, 1472283, 1472934, 1473507, 1474098, 1474753, 1475378, 1475934, 1476510, 1477143, 1477786, 1478303, 1478929, 1479644, 1480300, 1480898, 1481490, 1482077, 1482681, 1483206]","[53, 36, 41, 238, 207, 170, 28, 247, 28, 71, 195, 2, 226, 176, 215, 208, 38, 234, 46, 41, 55]","[1471065, 1471654, 1472249, 1472883, 1473447, 1474045, 1474662, 1475284, 1475856, 1476448, 1477081, 1477700, 1478290, 1478872, 1479481, 1480040, 1480627, 1481214, 1481796, 1482381, 1482962]","[1469894, 1470494, 1471094, 1471694, 1472294, 1472894, 1473495, 1474094, 1474677, 1475298, 1475871, 1476463, 1477093, 1477714, 1478303, 1478884, 1479495, 1480054, 1480642, 1481229, 1481812, 1482397, 1482978, 1483517]",96,OR,U,R,ITMSR,1.1,
5,400,trial,0,71,71,71,trial,"['S', 'S', 'S', 'S', 'S', 'S', 'C', 'C', 'C', 'C', 'C', 'C', 'C', 'C', 'C', 'C', 'C', 'C', 'C', 'C', 'C', 'C']","[1489768, 1490169, 1490587, 1490970, 1491372, 1491766, 1492173, 1492549, 1492965, 1493373, 1493795, 1494185, 1494587, 1494973, 1495393, 1495836, 1496187, 1496603, 1496992, 1497418, 1497815, 1498234]","[1489816, 1490204, 1490607, 1491013, 1491393, 1491807, 1492222, 1492627, 1493010, 1493445, 1493858, 1494238, 1494634, 1495047, 1495482, 1495896, 1496294, 1496728, 1497133, 1497489, 1497932, 1498316]","[102, 75, 219, 86, 21, 56, 28, 76, 64, 82, 61, 247, 204, 8, 252, 226, 51, 234, 43, 222, 112, 244]","[1489771, 1490172, 1490592, 1490975, 1491377, 1491771, 1492179, 1492553, 1492969, 1493378, 1493800, 1494191, 1494592, 1494977, 1495398, 1495841, 1496193, 1496608, 1496997, 1497424, 1497820, 1498240]","[1488987, 1489387, 1489787, 1490187, 1490587, 1490988, 1491387, 1491787, 1492193, 1492569, 1492985, 1493393, 1493815, 1494205, 1494607, 1494993, 1495413, 1495856, 1496207, 1496623, 1497012, 1497438, 1497835, 1498254]",96,OR,U,R,ITMSR,1.1,
0,600,trial,0,72,72,72,trial,"['S', 'S', 'S', 'S', 'S', 'S', 'C', 'C', 'C', 'C', 'C', 'C', 'C', 'C', 'C', 'C', 'C', 'C', 'C', 'C', 'C', 'C']","[1504976, 1505541, 1506176, 1506805, 1507374, 1507954, 1508511, 1509058, 1509649, 1510235, 1510824, 1511414, 1511976, 1512558, 1513129, 1513703, 1514297, 1514875, 1515414, 1516027, 1516537, 1517110]","[1505020, 1505564, 1506198, 1506854, 1507449, 1508032, 1508672, 1509336, 1510000, 1510603, 1511134, 1511755, 1512305, 1512878, 1513466, 1514016, 1514590, 1515202, 1515773, 1516331, 1516896]","[255, 167, 80, 137, 178, 39, 46, 220, 63, 190, 210, 207, 200, 56, 183, 243, 8, 214, 173, 124, 131]","[1504982, 1505548, 1506182, 1506812, 1507380, 1507959, 1508516, 1509064, 1509656, 1510241, 1510831, 1511419, 1511982, 1512562, 1513135, 1513708, 1514302, 1514881, 1515419, 1516032, 1516542]","[1503817, 1504417, 1505017, 1505617, 1506217, 1506818, 1507418, 1508018, 1508531, 1509079, 1509669, 1510255, 1510844, 1511434, 1511996, 1512578, 1513149, 1513723, 1514317, 1514895, 1515435, 1516047, 1516557, 1517130]",96,OR,U,R,ITMSR,1.1,
2,400,trial,0,73,73,73,trial,"['B', 'S', 'S', 'S', 'S', 'S', 'S', 'S', 'C', 'C', 'C', 'C', 'C', 'C', 'C', 'C', 'C', 'C', 'C', 'C', 'C', 'C', 'C', 'C']","[1522417, 1522939, 1523277, 1523616, 1523970, 1524369, 1524770, 1525166, 1525567, 1525965, 1526370, 1526767, 1527170, 1527572, 1527995, 1528395, 1528829, 1529211, 1529618, 1529981, 1530379, 1530796, 1531163, 1531579]","[1522666, 1523079, 1523368, 1523654, 1524011, 1524404, 1524818, 1525213, 1525666, 1526075, 1526496, 1526897, 1527355, 1527758, 1528185, 1528606, 1529037, 1529423, 1529780, 1530143, 1530592, 1530918, 1531355, 1531763]","[140, 111, 54, 106, 230, 182, 203, 104, 226, 84, 102, 113, 127, 12, 180, 79, 159, 168, 68, 148, 167, 50, 82, 181]","[1522417, 1522945, 1523282, 1523620, 1523974, 1524373, 1524774, 1525171, 1525572, 1525970, 1526376, 1526771, 1527176, 1527579, 1528001, 1528400, 1528835, 1529217, 1529624, 1529988, 1530385, 1530802, 1531169, 1531583]","[1522430, 1522830, 1523230, 1523630, 1524030, 1524430, 1524830, 1525230, 1525587, 1525985, 1526390, 1526787, 1527190, 1527592, 1528015, 1528415, 1528849, 1529231, 1529638, 1530001, 1530399, 1530816, 1531183, 1531599]",96,OR,U,R,ITMSR,1.1,
5,600,trial,0,74,74,74,trial,"['S', 'S', 'S', 'S', 'S', 'S', 'C', 'C', 'C', 'C', 'C', 'C', 'C', 'C', 'C', 'C', 'C', 'C', 'C', 'C', 'C', 'C', 'C', 'C', 'C']","[1538489, 1539069, 1539702, 1540242, 1540833, 1541443, 1542036, 1542591, 1543177, 1543751, 1544307, 1544857, 1545402, 1545502, 1545987, 1546536, 1547027, 1547570, 1548101, 1548203, 1548610, 1548712, 1549128, 1549679, 1550193]","[1538548, 1539089, 1539722, 1540262, 1540877, 1541492, 1542085, 1542654, 1543258, 1543855, 1544438, 1544987, 1545422, 1545525, 1546037, 1546642, 1547213, 1547730, 1548121, 1548234, 1548631, 1548765, 1549246, 1549795, 1550287]","[14, 12, 186, 193, 209, 9, 8, 21, 205, 232, 77, 11, 9, 10, 214, 32, 238, 14, 44, 57, 233, 145, 197, 17, 255]","[1538492, 1539074, 1539707, 1540247, 1540839, 1541448, 1542038, 1542596, 1543182, 1543756, 1544311, 1544862, 1545406, 1545502, 1545991, 1546542, 1547032, 1547574, 1548106, 1548203, 1548614, 1548712, 1549133, 1549684, 1550197]","[1537290, 1537889, 1538489, 1539089, 1539689, 1540289, 1540889, 1541489, 1542056, 1542611, 1543197, 1543771, 1544327, 1544877, 1545422, 1546007, 1546556, 1547047, 1547590, 1548121, 1548631, 1549148, 1549699, 1550213]",96,OR,U,R,ITMSR,1.1,
3,400,trial,0,75,75,75,trial,"['S', 'S', 'S', 'S', 'S', 'S', 'C', 'C', 'C', 'C', 'C', 'C', 'C', 'C', 'C', 'C', 'C', 'C', 'C', 'C', 'C', 'C', 'C', 'C', 'C']","[1556536, 1556888, 1557304, 1557688, 1558074, 1558478, 1558877, 1559229, 1559639, 1560045, 1560449, 1560864, 1561273, 1561373, 1561662, 1562090, 1562190, 1562502, 1562914, 1563311, 1563738, 1564136, 1564565, 1564924, 1565024]","[1556590, 1556940, 1557335, 1557708, 1558094, 1558498, 1558897, 1559290, 1559659, 1560133, 1560469, 1560994, 1561293, 1561393, 1561774, 1562110, 1562218, 1562522, 1563001, 1563331, 1563758, 1564156, 1564585, 1564944, 1565044]","[174, 169, 221, 233, 147, 217, 9, 248, 160, 219, 162, 188, 141, 233, 201, 95, 102, 250, 61, 221, 219, 103, 166, 65, 17]","[1556542, 1556894, 1557309, 1557693, 1558078, 1558483, 1558882, 1559233, 1559644, 1560050, 1560454, 1560870, 1561279, 1561373, 1561668, 1562095, 1562190, 1562509, 1562919, 1563318, 1563743, 1564140, 1564569, 1564930, 1565024]","[1555772, 1556172, 1556572, 1556972, 1557372, 1557772, 1558172, 1558573, 1558897, 1559249, 1559659, 1560066, 1560469, 1560884, 1561293, 1561682, 1562110, 1562522, 1562934, 1563331, 1563758, 1564156, 1564585, 1564944]",96,OR,U,R,ITMSR,1.1,
2,600,trial,0,76,76,76,trial,"['S', 'S', 'S', 'S', 'C', 'C', 'C', 'C', 'C', 'C', 'C', 'C', 'C', 'C', 'C', 'C', 'C', 'C', 'C', 'C', 'C', 'C', 'C', 'C', 'C']","[1573046, 1573623, 1574232, 1574813, 1575442, 1576037, 1576582, 1577198, 1577764, 1578312, 1578918, 1579522, 1579622, 1580064, 1580630, 1580730, 1581203, 1581774, 1581874, 1582357, 1582884, 1582984, 1583482, 1584034, 1584136]","[1573133, 1573742, 1574383, 1574979, 1575614, 1576262, 1576843, 1577348, 1577944, 1578587, 1579156, 1579542, 1579664, 1580339, 1580650, 1580862, 1581460, 1581794, 1582027, 1582681, 1582904, 1583281, 1583827, 1584055]","[22, 213, 41, 175, 251, 167, 240, 115, 127, 183, 70, 196, 97, 38, 198, 30, 39, 162, 186, 231, 148, 178, 197, 244]","[1573055, 1573629, 1574238, 1574818, 1575449, 1576044, 1576588, 1577204, 1577771, 1578317, 1578925, 1579526, 1579624, 1580069, 1580636, 1580734, 1581209, 1581779, 1581877, 1582363, 1582891, 1582986, 1583490, 1584039]","[1570719, 1571318, 1571918, 1572518, 1573118, 1573719, 1574318, 1574918, 1575462, 1576057, 1576602, 1577218, 1577784, 1578332, 1578938, 1579542, 1580084, 1580650, 1581223, 1581794, 1582377, 1582904, 1583502, 1584054]",96,OR,U,R,ITMSR,1.1,
4,400,trial,0,77,77,77,trial,"['C', 'C', 'C', 'C', 'C', 'C', 'C', 'C', 'C', 'C', 'C', 'C', 'C', 'C', 'C', 'C', 'C', 'C', 'C', 'C', 'C']","[1592479, 1592888, 1593266, 1593687, 1594101, 1594491, 1594870, 1595276, 1595378, 1595693, 1596106, 1596484, 1596889, 1597292, 1597433, 1597696, 1597796, 1598099, 1598203, 1598491, 1598593]","[1592538, 1592971, 1593379, 1593829, 1594272, 1594686, 1595043, 1595298, 1595453, 1595913, 1596286, 1596680, 1597034, 1597313, 1597458, 1597716, 1597821, 1598123, 1598223, 1598512, 1598614]","[58, 188, 26, 27, 137, 21, 68, 43, 247, 224, 132, 57, 82, 175, 85, 85, 128, 145, 160, 28, 89]","[1592487, 1592895, 1593271, 1593692, 1594107, 1594499, 1594876, 1595282, 1595378, 1595699, 1596112, 1596492, 1596894, 1597297, 1597451, 1597702, 1597796, 1598106, 1598203, 1598496, 1598598]","[1589358, 1589758, 1590158, 1590558, 1590958, 1591358, 1591758, 1592158, 1592499, 1592908, 1593286, 1593707, 1594121, 1594511, 1594890, 1595296, 1595713, 1596126, 1596504, 1596909, 1597313, 1597716, 1598119, 1598511]",96,OR,U,R,ITMSR,1.1,
2,600,trial,0,78,78,78,trial,"['S', 'S', 'C', 'C', 'C', 'C', 'C', 'C', 'C', 'C', 'C', 'C', 'C', 'C', 'C', 'C', 'C', 'C']","[1721026, 1721554, 1722128, 1722706, 1723228, 1723821, 1724379, 1724947, 1725516, 1726066, 1726644, 1727178, 1727708, 1728267, 1728830, 1729372, 1729882, 1730397]","[1721110, 1721659, 1722254, 1722912, 1723513, 1724128, 1724732, 1725294, 1725870, 1726439, 1726981, 1727540, 1728063, 1728594, 1729149, 1729676, 1730191]","[199, 5, 223, 235, 188, 132, 4, 45, 70, 31, 40, 253, 176, 180, 126, 194, 185]","[1721041, 1721568, 1722140, 1722721, 1723248, 1723960, 1724549, 1725050, 1725540, 1726073, 1726652, 1727207, 1727813, 1728346, 1728858, 1729398, 1729955]","[1717423, 1718023, 1718623, 1719223, 1719823, 1720423, 1721023, 1721623, 1722148, 1722726, 1723248, 1723841, 1724399, 1724967, 1725536, 1726086, 1726664, 1727198, 1727728, 1728287, 1728850, 1729392, 1729902, 1730417]",96,OR,U,R,ITMSR,1.1,
2,400,trial,0,79,79,79,trial,"['S', 'S', 'S', 'S', 'S', 'S', 'C', 'C', 'C', 'C', 'C', 'C', 'C', 'C', 'C', 'C', 'C', 'C', 'C', 'C', 'C', 'C']","[1736939, 1737313, 1737700, 1738093, 1738445, 1738855, 1739236, 1739624, 1740062, 1740477, 1740875, 1741284, 1741704, 1742111, 1742520, 1742887, 1743316, 1743735, 1744143, 1744534, 1744929, 1745339]","[1736975, 1737339, 1737740, 1738126, 1738511, 1738901, 1739417, 1739854, 1740303, 1740730, 1741135, 1741522, 1741949, 1742362, 1742744, 1743171, 1743581, 1743976, 1744373, 1744777, 1745189]","[167, 118, 102, 81, 99, 89, 120, 142, 105, 188, 147, 43, 47, 167, 153, 106, 106, 51, 89, 252, 63]","[1736943, 1737318, 1737703, 1738097, 1738455, 1738859, 1739253, 1739651, 1740082, 1740582, 1741031, 1741307, 1741706, 1742205, 1742618, 1742990, 1743472, 1743840, 1744146, 1744700, 1744943]","[1736113, 1736513, 1736913, 1737313, 1737713, 1738114, 1738514, 1738914, 1739256, 1739644, 1740082, 1740497, 1740895, 1741304, 1741724, 1742131, 1742540, 1742907, 1743336, 1743755, 1744163, 1744555, 1744949, 1745359]",96,OR,U,R,ITMSR,1.1,
5,400,trial,0,80,80,80,trial,"['S', 'S', 'S', 'S', 'C', 'C', 'C', 'C', 'C', 'C', 'C', 'C', 'C', 'C', 'C', 'C', 'C', 'C', 'C', 'C']","[1752192, 1752591, 1752993, 1753400, 1753848, 1754237, 1754655, 1755054, 1755458, 1755888, 1756256, 1756645, 1757052, 1757449, 1757832, 1758241, 1758662, 1759040, 1759426, 1759809]","[1752300, 1752788, 1753216, 1753630, 1754066, 1754478, 1754882, 1755296, 1755726, 1756072, 1756475, 1756864, 1757261, 1757660, 1758088, 1758485, 1758880, 1759262, 1759641]","[167, 59, 13, 3, 81, 74, 38, 56, 246, 226, 33, 195, 251, 234, 43, 108, 219, 236, 84]","[1752199, 1752599, 1752998, 1753404, 1753872, 1754243, 1754658, 1755057, 1755530, 1755894, 1756363, 1756653, 1757122, 1757469, 1757835, 1758243, 1758682, 1759057, 1759510]","[1750664, 1751064, 1751464, 1751864, 1752264, 1752664, 1753064, 1753464, 1753868, 1754257, 1754675, 1755074, 1755479, 1755908, 1756276, 1756665, 1757072, 1757469, 1757852, 1758261, 1758682, 1759060, 1759447, 1759830]",96,OR,U,R,ITMSR,1.1,
1,400,trial,0,81,81,81,trial,"['S', 'S', 'S', 'S', 'C', 'C', 'C', 'C', 'C', 'C', 'C', 'C', 'C', 'C', 'C', 'C', 'C', 'C', 'C', 'C']","[1766743, 1767102, 1767501, 1767884, 1768284, 1768723, 1769097, 1769501, 1769894, 1770289, 1770668, 1771051, 1771450, 1771871, 1772250, 1772621, 1773027, 1773441, 1773812, 1774204]","[1766900, 1767341, 1767714, 1768122, 1768546, 1768937, 1769339, 1769725, 1770108, 1770516, 1770882, 1771290, 1771665, 1772094, 1772482, 1772881, 1773263, 1773652, 1774068, 1774459]","[148, 155, 230, 163, 116, 145, 41, 20, 16, 56, 29, 233, 2, 237, 18, 123, 134, 94, 48, 202]","[1766748, 1767108, 1767605, 1767889, 1768378, 1768740, 1769102, 1769507, 1769899, 1770302, 1770673, 1771058, 1771467, 1771891, 1772347, 1772718, 1773031, 1773445, 1773817, 1774321]","[1765147, 1765547, 1765946, 1766346, 1766746, 1767146, 1767546, 1767946, 1768304, 1768743, 1769117, 1769521, 1769914, 1770309, 1770688, 1771071, 1771470, 1771891, 1772270, 1772641, 1773047, 1773461, 1773832, 1774224]",96,OR,U,R,ITMSR,1.1,
4,400,trial,0,82,82,82,trial,"['S', 'S', 'S', 'S', 'C', 'C', 'C', 'C', 'C', 'C', 'C', 'C', 'C', 'C', 'C', 'C', 'C', 'C', 'C', 'C']","[1781258, 1781628, 1782066, 1782510, 1782907, 1783322, 1783699, 1784079, 1784476, 1784878, 1785279, 1785694, 1786084, 1786496, 1786887, 1787289, 1787701, 1788103, 1788478, 1788896]","[1781441, 1781872, 1782295, 1782730, 1783128, 1783535, 1783929, 1784316, 1784719, 1785135, 1785519, 1785925, 1786314, 1786721, 1787129, 1787525, 1787956, 1788327, 1788733, 1789116]","[153, 159, 151, 121, 145, 167, 157, 138, 151, 137, 80, 49, 40, 50, 107, 105, 117, 42, 12, 254]","[1781269, 1781635, 1782171, 1782514, 1782912, 1783330, 1783703, 1784181, 1784499, 1784980, 1785295, 1785836, 1786190, 1786502, 1786899, 1787294, 1787716, 1788107, 1788480, 1788983]","[1779690, 1780089, 1780489, 1780889, 1781289, 1781689, 1782089, 1782489, 1782927, 1783342, 1783719, 1784099, 1784496, 1784898, 1785299, 1785714, 1786104, 1786516, 1786907, 1787309, 1787721, 1788123, 1788498, 1788916]",96,OR,U,R,ITMSR,1.1,
3,400,trial,0,83,83,83,trial,"['S', 'S', 'S', 'S', 'C', 'C', 'C', 'C', 'C', 'C', 'C', 'C', 'C', 'C', 'C', 'C', 'C', 'C', 'C', 'C']","[1796134, 1796513, 1796934, 1797363, 1797763, 1798159, 1798572, 1798977, 1799377, 1799786, 1800174, 1800590, 1801003, 1801401, 1801757, 1802178, 1802562, 1802947, 1803341, 1803754]","[1796345, 1796770, 1797195, 1797600, 1798008, 1798401, 1798807, 1799191, 1799613, 1799993, 1800436, 1800840, 1801248, 1801609, 1802037, 1802388, 1802802, 1803196, 1803602]","[157, 158, 211, 150, 136, 80, 56, 10, 235, 206, 216, 243, 26, 226, 191, 217, 42, 232, 19]","[1796142, 1796632, 1797030, 1797367, 1797836, 1798179, 1798575, 1798993, 1799389, 1799801, 1800184, 1800655, 1801017, 1801416, 1801779, 1802195, 1802564, 1802949, 1803448]","[1794546, 1794946, 1795346, 1795746, 1796146, 1796546, 1796946, 1797346, 1797783, 1798179, 1798592, 1798998, 1799397, 1799806, 1800194, 1800610, 1801023, 1801421, 1801777, 1802199, 1802583, 1802968, 1803361, 1803774]",96,OR,U,R,ITMSR,1.1,
4,400,trial,0,84,84,84,trial,"['S', 'S', 'S', 'S', 'S', 'C', 'C', 'C', 'C', 'C', 'C', 'C', 'C', 'C', 'C', 'C', 'C', 'C', 'C', 'C', 'C']","[1810300, 1810708, 1811073, 1811485, 1811877, 1812313, 1812676, 1813074, 1813488, 1813891, 1814265, 1814663, 1815063, 1815491, 1815846, 1816260, 1816643, 1817057, 1817449, 1817825, 1818208]","[1810406, 1810874, 1811295, 1811701, 1812106, 1812516, 1812921, 1813331, 1813723, 1814105, 1814501, 1814912, 1815340, 1815710, 1816098, 1816457, 1816882, 1817285, 1817645, 1818041]","[94, 112, 133, 174, 134, 58, 229, 27, 229, 250, 2, 27, 124, 72, 64, 115, 92, 95, 92, 44]","[1810305, 1810712, 1811094, 1811489, 1811881, 1812329, 1812679, 1813078, 1813492, 1813894, 1814269, 1814675, 1815081, 1815495, 1815862, 1816276, 1816769, 1817074, 1817470, 1817839]","[1809108, 1809508, 1809908, 1810308, 1810708, 1811108, 1811508, 1811908, 1812333, 1812696, 1813094, 1813508, 1813911, 1814285, 1814683, 1815084, 1815512, 1815866, 1816280, 1816664, 1817077, 1817469, 1817845, 1818228]",96,OR,U,R,ITMSR,1.1,
1,400,trial,0,85,85,85,trial,"['S', 'S', 'S', 'S', 'C', 'C', 'C', 'C', 'C', 'C', 'C', 'C', 'C', 'C', 'C', 'C', 'C', 'C', 'C', 'C']","[1825227, 1825592, 1826035, 1826433, 1826829, 1827249, 1827655, 1828035, 1828454, 1828870, 1829272, 1829690, 1830089, 1830509, 1830883, 1831333, 1831717, 1832114, 1832470, 1832875]","[1825399, 1825856, 1826263, 1826665, 1827103, 1827495, 1827893, 1828299, 1828702, 1829121, 1829529, 1829921, 1830359, 1830743, 1831193, 1831576, 1831949, 1832325, 1832708]","[201, 147, 151, 133, 138, 156, 150, 169, 122, 94, 48, 230, 58, 34, 24, 25, 253, 25, 242]","[1825232, 1825600, 1826040, 1826447, 1826842, 1827253, 1827660, 1828043, 1828458, 1828951, 1829367, 1829707, 1830161, 1830512, 1831018, 1831355, 1831838, 1832185, 1832473]","[1823630, 1824030, 1824430, 1824830, 1825230, 1825630, 1826030, 1826430, 1826849, 1827269, 1827675, 1828056, 1828474, 1828890, 1829293, 1829710, 1830109, 1830530, 1830903, 1831353, 1831737, 1832134, 1832491, 1832895]",96,OR,U,R,ITMSR,1.1,
5,600,trial,0,86,86,86,trial,"['S', 'S', 'S', 'S', 'S', 'S', 'C', 'C', 'C', 'C', 'C', 'C', 'C', 'C', 'C', 'C', 'C', 'C', 'C', 'C', 'C', 'C']","[1839709, 1840249, 1840842, 1841456, 1842052, 1842634, 1843232, 1843842, 1844438, 1844975, 1845514, 1846069, 1846628, 1847184, 1847809, 1848361, 1848901, 1849457, 1850047, 1850604, 1851132, 1851637]","[1839953, 1840634, 1841233, 1841830, 1842407, 1842979, 1843582, 1844186, 1844738, 1845318, 1845907, 1846453, 1847000, 1847596, 1848166, 1848731, 1849263, 1849886, 1850340, 1850959, 1851462]","[33, 96, 108, 100, 87, 210, 124, 136, 111, 97, 75, 255, 58, 153, 105, 86, 59, 87, 80, 66, 164]","[1839712, 1840252, 1840855, 1841481, 1842055, 1842637, 1843236, 1843846, 1844443, 1844981, 1845520, 1846083, 1846777, 1847188, 1847813, 1848366, 1848905, 1849461, 1850072, 1850747, 1851138]","[1838461, 1839062, 1839661, 1840261, 1840861, 1841461, 1842061, 1842661, 1843252, 1843862, 1844458, 1844995, 1845534, 1846089, 1846648, 1847204, 1847829, 1848381, 1848921, 1849477, 1850067, 1850625, 1851152, 1851657]",96,OR,U,R,ITMSR,1.1,
3,400,trial,0,87,87,87,trial,"['S', 'S', 'S', 'S', 'S', 'C', 'C', 'C', 'C', 'C', 'C', 'C', 'C', 'C', 'C', 'C', 'C', 'C', 'C', 'C', 'C']","[1858186, 1858601, 1859022, 1859441, 1859829, 1860276, 1860660, 1861059, 1861459, 1861882, 1862286, 1862630, 1863017, 1863462, 1863818, 1864217, 1864616, 1865029, 1865396, 1865781, 1866172]","[1858402, 1858852, 1859249, 1859633, 1860066, 1860491, 1860909, 1861314, 1861713, 1862128, 1862478, 1862865, 1863291, 1863673, 1864053, 1864446, 1864861, 1865227, 1865627, 1866005, 1866419]","[181, 176, 119, 104, 185, 206, 111, 31, 90, 163, 154, 177, 76, 145, 132, 135, 145, 147, 198, 173, 104]","[1858209, 1858632, 1859031, 1859444, 1859897, 1860390, 1860663, 1861062, 1861464, 1861899, 1862307, 1862650, 1863113, 1863487, 1863998, 1864328, 1864718, 1865031, 1865400, 1865901, 1866288]","[1857058, 1857458, 1857858, 1858258, 1858658, 1859058, 1859458, 1859858, 1860296, 1860680, 1861080, 1861479, 1861902, 1862306, 1862650, 1863037, 1863482, 1863838, 1864237, 1864636, 1865049, 1865416, 1865801, 1866192]",96,OR,U,R,ITMSR,1.1,
2,400,trial,0,88,88,88,trial,"['S', 'S', 'S', 'S', 'S', 'C', 'C', 'C', 'C', 'C', 'C', 'C', 'C', 'C', 'C', 'C', 'C', 'C', 'C', 'C', 'C']","[1872800, 1873234, 1873622, 1874028, 1874428, 1874841, 1875216, 1875629, 1876021, 1876426, 1876825, 1877227, 1877607, 1878026, 1878387, 1878807, 1879194, 1879597, 1879989, 1880373, 1880762]","[1872983, 1873431, 1873823, 1874253, 1874647, 1875047, 1875452, 1875849, 1876264, 1876653, 1877021, 1877415, 1877819, 1878224, 1878624, 1879016, 1879412, 1879827, 1880219, 1880593, 1881005]","[171, 102, 154, 121, 182, 249, 177, 235, 253, 20, 51, 208, 199, 200, 235, 203, 101, 175, 190, 175, 118]","[1872805, 1873239, 1873624, 1874029, 1874430, 1874844, 1875219, 1875632, 1876025, 1876430, 1876830, 1877230, 1877610, 1878031, 1878390, 1878810, 1879196, 1879602, 1879993, 1880377, 1880766]","[1871612, 1872012, 1872412, 1872813, 1873213, 1873613, 1874013, 1874413, 1874861, 1875236, 1875649, 1876041, 1876446, 1876845, 1877248, 1877627, 1878046, 1878407, 1878828, 1879214, 1879617, 1880009, 1880393, 1880782]",96,OR,U,R,ITMSR,1.1,
4,600,trial,0,89,89,89,trial,"['S', 'S', 'S', 'S', 'S', 'S', 'C', 'C', 'C', 'C', 'C', 'C', 'C', 'C', 'C', 'C', 'C', 'C', 'C', 'C', 'C', 'C']","[1887444, 1888031, 1888645, 1889241, 1889830, 1890401, 1891014, 1891603, 1892164, 1892736, 1893343, 1893878, 1894413, 1894978, 1895535, 1896104, 1896658, 1897217, 1897768, 1898318, 1898843, 1899338]","[1887740, 1888407, 1889012, 1889601, 1890179, 1890774, 1891366, 1891939, 1892499, 1893059, 1893676, 1894220, 1894747, 1895307, 1895890, 1896426, 1896987, 1897508, 1898023, 1898637, 1899158]","[49, 78, 88, 128, 136, 167, 97, 48, 32, 154, 62, 246, 235, 19, 242, 38, 62, 44, 56, 29, 72]","[1887464, 1888037, 1888655, 1889245, 1889835, 1890404, 1891018, 1891608, 1892168, 1892762, 1893346, 1893881, 1894416, 1894982, 1895540, 1896107, 1896662, 1897219, 1897771, 1898322, 1898846]","[1886249, 1886849, 1887448, 1888048, 1888648, 1889248, 1889848, 1890448, 1891034, 1891623, 1892184, 1892756, 1893363, 1893898, 1894433, 1894999, 1895555, 1896124, 1896678, 1897237, 1897788, 1898338, 1898863, 1899358]",96,OR,U,R,ITMSR,1.1,
1,600,trial,0,90,90,90,trial,"['S', 'S', 'S', 'S', 'C', 'C', 'C', 'C', 'C', 'C', 'C', 'C', 'C', 'C', 'C', 'C', 'C', 'C', 'C', 'C']","[1907360, 1907966, 1908514, 1909112, 1909716, 1910306, 1910894, 1911462, 1912049, 1912632, 1913246, 1913796, 1914363, 1914924, 1915490, 1916060, 1916616, 1917159, 1917708, 1918266]","[1907602, 1908297, 1908878, 1909462, 1910100, 1910699, 1911266, 1911851, 1912424, 1912987, 1913621, 1914183, 1914705, 1915302, 1915865, 1916413, 1917002, 1917551, 1918082]","[30, 7, 32, 40, 44, 49, 98, 88, 68, 12, 179, 11, 74, 10, 54, 50, 230, 250, 217]","[1907430, 1907977, 1908528, 1909124, 1909734, 1910310, 1910897, 1911465, 1912052, 1912636, 1913252, 1913799, 1914368, 1914927, 1915492, 1916066, 1916618, 1917218, 1917721]","[1905000, 1905599, 1906199, 1906799, 1907399, 1907999, 1908599, 1909199, 1909736, 1910326, 1910914, 1911482, 1912069, 1912652, 1913266, 1913816, 1914383, 1914944, 1915510, 1916080, 1916636, 1917179, 1917728, 1918286]",96,OR,U,R,ITMSR,1.1,
0,600,trial,0,91,91,91,trial,"['S', 'S', 'S', 'S', 'S', 'S', 'C', 'C', 'C', 'C', 'C', 'C', 'C', 'C', 'C', 'C', 'C', 'C', 'C', 'C', 'C', 'C']","[1924835, 1925429, 1926067, 1926641, 1927219, 1927851, 1928469, 1929071, 1929702, 1930338, 1930953, 1931574, 1932172, 1932720, 1933250, 1933891, 1934459, 1935055, 1935679, 1936207, 1936773, 1937318]","[1925183, 1925816, 1926408, 1926995, 1927617, 1928187, 1928829, 1929442, 1930073, 1930679, 1931282, 1931936, 1932526, 1933093, 1933681, 1934206, 1934838, 1935380, 1936009, 1936566, 1937092]","[61, 97, 118, 252, 114, 108, 98, 82, 71, 96, 28, 36, 92, 92, 250, 240, 83, 53, 21, 0, 204]","[1924841, 1925433, 1926069, 1926663, 1927222, 1927854, 1928473, 1929073, 1929705, 1930340, 1930955, 1931580, 1932174, 1932722, 1933255, 1933893, 1934460, 1935056, 1935682, 1936208, 1936793]","[1923665, 1924265, 1924866, 1925466, 1926066, 1926666, 1927266, 1927866, 1928489, 1929091, 1929722, 1930358, 1930973, 1931594, 1932192, 1932740, 1933271, 1933912, 1934479, 1935075, 1935699, 1936227, 1936793, 1937338]",96,OR,U,R,ITMSR,1.1,
2,600,trial,0,92,92,92,trial,"['S', 'S', 'S', 'S', 'S', 'S', 'C', 'C', 'C', 'C', 'C', 'C', 'C', 'C', 'C', 'C', 'C', 'C', 'C', 'C', 'C', 'C']","[1944227, 1944790, 1945367, 1945990, 1946614, 1947216, 1947817, 1948410, 1949021, 1949609, 1950214, 1950832, 1951403, 1951976, 1952521, 1953167, 1953742, 1954294, 1954844, 1955391, 1955965, 1956492]","[1944509, 1945103, 1945725, 1946313, 1946934, 1947525, 1948163, 1948736, 1949361, 1949926, 1950573, 1951193, 1951775, 1952282, 1952921, 1953463, 1954007, 1954561, 1955150, 1955699, 1956240]","[30, 59, 85, 82, 71, 55, 92, 84, 80, 102, 93, 75, 92, 92, 229, 123, 96, 122, 61, 96, 110]","[1944233, 1944793, 1945369, 1945992, 1946617, 1947218, 1947820, 1948412, 1949023, 1949612, 1950215, 1950835, 1951406, 1951977, 1952525, 1953169, 1953744, 1954296, 1954846, 1955394, 1955968]","[1943036, 1943636, 1944237, 1944837, 1945437, 1946037, 1946637, 1947237, 1947837, 1948430, 1949041, 1949629, 1950234, 1950852, 1951423, 1951996, 1952541, 1953187, 1953762, 1954314, 1954864, 1955411, 1955985, 1956512]",96,OR,U,R,ITMSR,1.1,
5,600,trial,0,93,93,93,trial,"['S', 'S', 'S', 'S', 'S', 'S', 'C', 'C', 'C', 'C', 'C', 'C', 'C', 'C', 'C', 'C', 'C', 'C', 'C', 'C', 'C', 'C']","[1963397, 1963952, 1964534, 1965123, 1965728, 1966299, 1966886, 1967494, 1968097, 1968650, 1969220, 1969780, 1970340, 1970931, 1971505, 1972121, 1972711, 1973261, 1973761, 1974320, 1974890, 1975447]","[1963487, 1964192, 1964850, 1965462, 1966053, 1966653, 1967222, 1967825, 1968390, 1968953, 1969520, 1970076, 1970632, 1971219, 1971798, 1972320, 1972959, 1973545, 1974129, 1974659, 1975217]","[213, 64, 24, 56, 78, 172, 59, 110, 59, 29, 38, 194, 101, 52, 69, 34, 49, 44, 16, 34, 66]","[1963403, 1963958, 1964547, 1965126, 1965729, 1966301, 1966889, 1967496, 1968100, 1968651, 1969222, 1969789, 1970344, 1970937, 1971509, 1972125, 1972716, 1973266, 1973765, 1974324, 1974894]","[1962138, 1962738, 1963338, 1963938, 1964538, 1965138, 1965739, 1966338, 1966906, 1967514, 1968117, 1968670, 1969240, 1969800, 1970360, 1970951, 1971525, 1972141, 1972731, 1973281, 1973781, 1974340, 1974910, 1975468]",96,OR,U,R,ITMSR,1.1,
0,400,trial,0,94,94,94,trial,"['S', 'S', 'S', 'S', 'S', 'S', 'C', 'C', 'C', 'C', 'C', 'C', 'C', 'C', 'C', 'C', 'C', 'C', 'C', 'C', 'C', 'C']","[1981714, 1982104, 1982494, 1982928, 1983329, 1983704, 1984117, 1984526, 1984964, 1985356, 1985785, 1986177, 1986572, 1986958, 1987393, 1987787, 1988174, 1988591, 1988977, 1989363, 1989718, 1990113]","[1981890, 1982308, 1982729, 1983130, 1983495, 1983932, 1984352, 1984783, 1985178, 1985619, 1985985, 1986394, 1986797, 1987226, 1987616, 1988014, 1988404, 1988749, 1989132, 1989515, 1989924, 1990360]","[169, 189, 190, 179, 164, 233, 179, 127, 125, 115, 63, 22, 243, 239, 13, 46, 223, 235, 73, 41, 79, 48]","[1981721, 1982107, 1982496, 1982930, 1983332, 1983707, 1984120, 1984528, 1984968, 1985359, 1985788, 1986179, 1986574, 1986971, 1987396, 1987790, 1988176, 1988597, 1988978, 1989366, 1989720, 1990116]","[1980913, 1981314, 1981714, 1982114, 1982514, 1982914, 1983314, 1983714, 1984137, 1984546, 1984984, 1985376, 1985805, 1986197, 1986592, 1986978, 1987414, 1987807, 1988194, 1988611, 1988997, 1989383, 1989738, 1990133]",96,OR,U,R,ITMSR,1.1,
3,600,trial,0,95,95,95,trial,"['S', 'S', 'S', 'S', 'S', 'S', 'C', 'C', 'C', 'C', 'C', 'C', 'C', 'C', 'C', 'C', 'C', 'C', 'C', 'C', 'C', 'C']","[1996701, 1997395, 1997975, 1998529, 1999145, 1999714, 2000304, 2000870, 2001413, 2001991, 2002581, 2003132, 2003683, 2004219, 2004792, 2005310, 2005859, 2006384, 2006910, 2007456, 2007969, 2008475]","[1997122, 1997707, 1998266, 1998864, 1999469, 2000021, 2000607, 2001203, 2001780, 2002307, 2002888, 2003451, 2003979, 2004507, 2005048, 2005619, 2006154, 2006641, 2007169, 2007730, 2008258, 2008731]","[233, 13, 174, 212, 166, 159, 119, 140, 102, 106, 107, 163, 120, 101, 93, 105, 101, 201, 118, 42, 106, 100]","[1996727, 1997401, 1997979, 1998533, 1999162, 1999722, 2000327, 2000885, 2001427, 2001994, 2002586, 2003138, 2003686, 2004226, 2004915, 2005491, 2005863, 2006396, 2006924, 2007464, 2007973, 2008482]","[1995537, 1996137, 1996737, 1997337, 1997937, 1998537, 1999137, 1999737, 2000324, 2000890, 2001433, 2002011, 2002601, 2003152, 2003703, 2004239, 2004812, 2005330, 2005879, 2006404, 2006930, 2007476, 2007989, 2008495]",96,OR,U,R,ITMSR,1.1,
4,600,trial,0,96,96,96,trial,"['S', 'S', 'S', 'S', 'C', 'C', 'C', 'C', 'C', 'C', 'C', 'C', 'C', 'C', 'C', 'C', 'C', 'C', 'C', 'C']","[2016515, 2017146, 2017751, 2018341, 2018945, 2019464, 2020008, 2020547, 2021053, 2021614, 2022114, 2022565, 2023083, 2023635, 2024137, 2024620, 2025114, 2025638, 2026135, 2026650]","[2016695, 2017305, 2017997, 2018617, 2019222, 2019784, 2020294, 2020828, 2021384, 2021876, 2022344, 2022842, 2023371, 2023905, 2024413, 2024897, 2025390, 2025863, 2026379, 2026866]","[179, 192, 65, 103, 136, 143, 132, 90, 128, 136, 110, 69, 109, 128, 68, 61, 93, 38, 53, 52]","[2016531, 2017174, 2017763, 2018352, 2018956, 2019474, 2020016, 2020555, 2021135, 2021626, 2022127, 2022758, 2023097, 2023649, 2024205, 2024755, 2025294, 2025705, 2026270, 2026733]","[2014220, 2014820, 2015420, 2016020, 2016620, 2017220, 2017820, 2018420, 2018965, 2019484, 2020028, 2020568, 2021073, 2021634, 2022134, 2022585, 2023103, 2023655, 2024157, 2024640, 2025134, 2025658, 2026156, 2026670]",96,OR,U,R,ITMSR,1.1,
1,600,trial,0,97,97,97,trial,"['S', 'S', 'S', 'S', 'S', 'S', 'C', 'C', 'C', 'C', 'C', 'C', 'C', 'C', 'C', 'C', 'C', 'C', 'C', 'C', 'C', 'C']","[2033481, 2034099, 2034693, 2035295, 2035931, 2036508, 2037113, 2037743, 2038306, 2038878, 2039488, 2040083, 2040659, 2041250, 2041831, 2042389, 2042990, 2043537, 2044114, 2044652, 2045198, 2045735]","[2033681, 2034299, 2034936, 2035565, 2036165, 2036767, 2037432, 2038000, 2038640, 2039163, 2039749, 2040357, 2040984, 2041488, 2042040, 2042668, 2043259, 2043769, 2044300, 2044954, 2045459]","[56, 29, 29, 67, 14, 54, 27, 10, 42, 25, 34, 70, 57, 75, 55, 35, 13, 159, 137, 46, 250]","[2033503, 2034115, 2034701, 2035302, 2035936, 2036513, 2037187, 2037754, 2038312, 2038886, 2039570, 2040090, 2040666, 2041256, 2041845, 2042397, 2043005, 2043619, 2044131, 2044669, 2045341]","[2032359, 2032959, 2033559, 2034159, 2034759, 2035359, 2035959, 2036559, 2037133, 2037763, 2038326, 2038898, 2039508, 2040103, 2040679, 2041270, 2041851, 2042409, 2043010, 2043557, 2044134, 2044673, 2045218, 2045755]",96,OR,U,R,ITMSR,1.1,
0,600,trial,0,98,98,98,trial,"['S', 'S', 'S', 'S', 'S', 'S', 'C', 'C', 'C', 'C', 'C', 'C', 'C', 'C', 'C', 'C', 'C', 'C', 'C', 'C', 'C', 'C']","[2052502, 2053051, 2053638, 2054241, 2054824, 2055442, 2056027, 2056613, 2057209, 2057806, 2058389, 2058994, 2059594, 2060148, 2060674, 2061252, 2061837, 2062374, 2062952, 2063502, 2064046, 2064570]","[2052604, 2053216, 2053781, 2054461, 2055067, 2055632, 2056281, 2056867, 2057497, 2058061, 2058689, 2059286, 2059829, 2060437, 2061033, 2061490, 2062053, 2062636, 2063140, 2063756, 2064233, 2064766]","[86, 102, 79, 31, 39, 49, 29, 235, 228, 35, 87, 64, 235, 17, 33, 214, 49, 41, 202, 230, 13, 1]","[2052510, 2053056, 2053642, 2054243, 2054829, 2055446, 2056030, 2056617, 2057223, 2057820, 2058392, 2059008, 2059598, 2060162, 2060746, 2061260, 2061853, 2062381, 2062962, 2063574, 2064051, 2064586]","[2051246, 2051846, 2052446, 2053046, 2053646, 2054246, 2054846, 2055446, 2056047, 2056633, 2057229, 2057826, 2058409, 2059014, 2059614, 2060168, 2060694, 2061272, 2061857, 2062394, 2062972, 2063522, 2064066, 2064590]",96,OR,U,R,ITMSR,1.1,
5,400,trial,0,99,99,99,trial,"['S', 'S', 'S', 'S', 'S', 'S', 'S', 'C', 'C', 'C', 'C', 'C', 'C', 'C', 'C', 'C', 'C', 'C', 'C', 'C', 'C', 'C', 'C']","[2070444, 2070842, 2071231, 2071628, 2072043, 2072438, 2072829, 2073241, 2073631, 2074030, 2074414, 2074814, 2075222, 2075623, 2076011, 2076406, 2076817, 2077178, 2077579, 2077955, 2078337, 2078737, 2079130]","[2070530, 2070961, 2071392, 2071851, 2072247, 2072619, 2073011, 2073434, 2073792, 2074212, 2074576, 2074960, 2075352, 2075735, 2076153, 2076557, 2076928, 2077344, 2077693, 2078086, 2078467, 2078883, 2079301]","[176, 64, 115, 117, 89, 70, 50, 111, 75, 45, 32, 69, 33, 26, 79, 10, 254, 60, 63, 21, 16, 42, 46]","[2070450, 2070847, 2071236, 2071631, 2072047, 2072443, 2072835, 2073246, 2073635, 2074035, 2074418, 2074818, 2075226, 2075628, 2076016, 2076411, 2076822, 2077184, 2077583, 2077961, 2078341, 2078742, 2079136]","[2070090, 2070490, 2070890, 2071290, 2071690, 2072090, 2072491, 2072890, 2073261, 2073651, 2074050, 2074434, 2074834, 2075242, 2075643, 2076032, 2076426, 2076837, 2077198, 2077599, 2077975, 2078357, 2078757, 2079150]",96,OR,U,R,ITMSR,1.1,
3,600,trial,0,100,100,100,trial,"['S', 'S', 'S', 'S', 'S', 'S', 'S', 'C', 'C', 'C', 'C', 'C', 'C', 'C', 'C', 'C', 'C', 'C', 'C', 'C', 'C', 'C', 'C']","[2085353, 2085848, 2086361, 2086965, 2087566, 2088143, 2088704, 2089335, 2089893, 2090472, 2091047, 2091576, 2092160, 2092677, 2093191, 2093725, 2094211, 2094739, 2095293, 2095808, 2096280, 2096785, 2097308]","[2085441, 2085907, 2086553, 2087145, 2087814, 2088402, 2089005, 2089602, 2090163, 2090738, 2091309, 2091940, 2092476, 2092979, 2093444, 2094007, 2094518, 2094941, 2095442, 2095981, 2096479, 2097036, 2097544]","[143, 80, 87, 90, 90, 112, 115, 113, 111, 128, 121, 103, 99, 109, 77, 110, 77, 80, 52, 85, 79, 72, 65]","[2085364, 2085852, 2086367, 2086973, 2087585, 2088166, 2088710, 2089341, 2089900, 2090479, 2091056, 2091584, 2092170, 2092689, 2093203, 2093732, 2094222, 2094747, 2095300, 2095817, 2096294, 2096793, 2097328]","[2084596, 2085196, 2085796, 2086396, 2086996, 2087597, 2088197, 2088797, 2089355, 2089913, 2090492, 2091067, 2091596, 2092180, 2092697, 2093211, 2093745, 2094231, 2094759, 2095313, 2095828, 2096301, 2096805, 2097328]",96,OR,U,R,ITMSR,1.1,
0,400,trial,0,101,101,101,trial,"['S', 'S', 'S', 'S', 'C', 'C', 'C', 'C', 'C', 'C', 'C', 'C', 'C', 'C', 'C', 'C', 'C', 'C', 'C', 'C']","[2104643, 2105025, 2105405, 2105797, 2106211, 2106632, 2107045, 2107442, 2107853, 2108219, 2108625, 2109019, 2109448, 2109856, 2110269, 2110655, 2111060, 2111463, 2111873, 2112258]","[2104779, 2105222, 2105624, 2106020, 2106468, 2106875, 2107271, 2107678, 2108048, 2108462, 2108840, 2109272, 2109679, 2110042, 2110458, 2110852, 2111248, 2111618, 2112071, 2112471]","[92, 87, 95, 101, 105, 86, 110, 77, 52, 42, 50, 7, 42, 37, 74, 61, 80, 228, 70, 235]","[2104657, 2105039, 2105423, 2105814, 2106231, 2106649, 2107061, 2107456, 2107867, 2108236, 2108646, 2109135, 2109465, 2109873, 2110342, 2110754, 2111080, 2111485, 2111979, 2112340]","[2103103, 2103502, 2103902, 2104302, 2104702, 2105102, 2105502, 2105902, 2106231, 2106652, 2107065, 2107462, 2107873, 2108239, 2108645, 2109039, 2109468, 2109876, 2110289, 2110675, 2111080, 2111483, 2111893, 2112278]",96,OR,U,R,ITMSR,1.1,
