pitch,ioi,event,.thisRepN,.thisTrialN,.thisN,.thisIndex,event,tap_types,tap_times,release_times,peak_pressures,peak_times,tone_times,subject,experimenter,register,handedness,experiment,version,
,,SPR,0,-1,-1,0,SPR,"['P', 'P', 'P', 'P', 'P', 'P', 'P', 'P', 'P', 'P', 'P', 'P', 'P', 'P', 'P', 'P', 'P', 'P', 'P', 'P', 'P', 'P', 'P', 'P', 'P', 'P', 'P', 'P', 'P', 'P']","[35867, 36597, 37368, 38166, 38990, 39731, 40463, 41202, 41887, 42582, 43285, 43976, 44648, 45307, 45998, 46649, 47361, 47998, 48673, 49366, 50033, 50704, 51379, 52013, 52686, 53344, 53994, 54673, 55321, 56006]","[36225, 36960, 37772, 38566, 39324, 40060, 40794, 41503, 42198, 42906, 43589, 44288, 44946, 45654, 46330, 46989, 47665, 48372, 49056, 49658, 50343, 50994, 51649, 52346, 53011, 53644, 54321, 54936, 55620, 56298]","[100, 126, 135, 88, 4, 21, 97, 51, 71, 93, 89, 101, 68, 142, 83, 68, 64, 101, 46, 35, 35, 82, 68, 71, 53, 83, 105, 100, 30, 88]","[35870, 36600, 37371, 38169, 38993, 39734, 40465, 41205, 41890, 42584, 43288, 43978, 44651, 45309, 46000, 46651, 47364, 48002, 48676, 49369, 50036, 50707, 51382, 52016, 52689, 53346, 53996, 54676, 55324, 56008]",,97,EM,U,R,ITMSR,1.1,
1,500,practice,0,0,0,0,practice,"['S', 'S', 'S', 'S', 'S', 'S', 'S', 'C', 'C', 'C', 'C', 'C', 'C', 'C', 'C', 'C', 'C', 'C', 'C', 'C', 'C', 'C', 'C']","[164372, 164823, 165253, 165756, 166251, 166748, 167241, 167751, 168244, 168726, 169214, 169716, 170277, 170752, 171233, 171721, 172198, 172657, 173164, 173659, 174149, 174642, 175122]","[164543, 165043, 165485, 165981, 166457, 166986, 167482, 167973, 168458, 168945, 169444, 169968, 170493, 170954, 171437, 171921, 172439, 172949, 173413, 173878, 174380, 174853, 175352]","[21, 94, 32, 85, 59, 92, 70, 88, 79, 101, 89, 88, 93, 138, 80, 76, 44, 65, 28, 68, 73, 82, 72]","[164375, 164826, 165256, 165760, 166255, 166751, 167244, 167753, 168247, 168729, 169218, 169719, 170280, 170754, 171236, 171724, 172201, 172660, 173167, 173662, 174152, 174644, 175126]","[163731, 164231, 164731, 165231, 165731, 166232, 166732, 167232, 167771, 168264, 168747, 169234, 169736, 170297, 170772, 171253, 171741, 172218, 172677, 173185, 173679, 174169, 174662, 175142]",97,EM,U,R,ITMSR,1.1,
5,500,practice,0,1,1,1,practice,"['S', 'S', 'S', 'S', 'S', 'S', 'C', 'C', 'C', 'C', 'C', 'C', 'C', 'C', 'C', 'C', 'C', 'C', 'C', 'C', 'C', 'C']","[181430, 181945, 182452, 182947, 183452, 183958, 184459, 184972, 185432, 185930, 186420, 186907, 187397, 187866, 188350, 188827, 189288, 189795, 190292, 190728, 191204, 191669]","[181627, 182146, 182646, 183172, 183657, 184170, 184657, 185133, 185606, 186101, 186593, 186976, 187479, 187996, 188491, 188952, 189449, 189948, 190364, 190816, 191290, 191771]","[36, 71, 15, 37, 6, 253, 243, 170, 197, 96, 175, 35, 126, 211, 51, 158, 225, 203, 173, 224, 185, 224]","[181434, 181949, 182456, 182950, 183455, 183961, 184462, 184975, 185434, 185935, 186425, 186911, 187400, 187870, 188354, 188831, 189293, 189798, 190299, 190732, 191209, 191673]","[180540, 181040, 181540, 182040, 182540, 183041, 183540, 184040, 184479, 184992, 185452, 185950, 186440, 186927, 187417, 187886, 188370, 188847, 189308, 189815, 190312, 190748, 191224, 191689]",97,EM,U,R,ITMSR,1.1,
4,500,practice,0,2,2,2,practice,"['S', 'S', 'S', 'S', 'S', 'S', 'C', 'C', 'C', 'C', 'C', 'C', 'C', 'C', 'C', 'C', 'C', 'C', 'C', 'C', 'C', 'C', 'C', 'C']","[198020, 198478, 198937, 199427, 199927, 200390, 200884, 201482, 201958, 202439, 202900, 203370, 203474, 203868, 204325, 204429, 204875, 205415, 205850, 206353, 206836, 207312, 207812, 208274]","[198115, 198602, 199083, 199600, 200053, 200559, 201053, 201502, 201978, 202564, 203018, 203394, 203570, 204080, 204349, 204539, 205005, 205509, 205930, 206436, 206950, 207332, 207896, 208294]","[244, 254, 22, 229, 189, 210, 109, 76, 99, 219, 216, 111, 105, 172, 74, 170, 113, 64, 119, 151, 97, 98, 105, 91]","[198024, 198481, 198940, 199431, 199930, 200393, 200889, 201485, 201963, 202444, 202904, 203374, 203474, 203872, 204331, 204429, 204879, 205420, 205855, 206359, 206839, 207315, 207816, 208277]","[197082, 197582, 198082, 198582, 199083, 199582, 200082, 200582, 200904, 201502, 201978, 202459, 202920, 203390, 203888, 204345, 204895, 205435, 205870, 206373, 206856, 207332, 207832, 208294]",97,EM,U,R,ITMSR,1.1,
0,500,practice,0,3,3,3,practice,"['S', 'S', 'S', 'S', 'S', 'S', 'S', 'S', 'C', 'C', 'C', 'C', 'C', 'C', 'C', 'C', 'C', 'C', 'C', 'C', 'C', 'C', 'C', 'C']","[214306, 214623, 215034, 215526, 216004, 216484, 216955, 217492, 218008, 218519, 218982, 219456, 219948, 220433, 220895, 221393, 221867, 222331, 222831, 223305, 223755, 224267, 224749, 225218]","[214426, 214825, 215269, 215746, 216239, 216711, 217229, 217717, 218207, 218707, 219203, 219646, 220161, 220663, 221181, 221668, 222113, 222631, 223094, 223532, 223998, 224501, 224984, 225438]","[112, 43, 230, 193, 203, 187, 206, 116, 132, 147, 173, 77, 98, 193, 223, 183, 162, 140, 140, 100, 201, 110, 191, 172]","[214377, 214626, 215037, 215531, 216008, 216488, 216960, 217612, 218012, 218523, 218986, 219462, 219953, 220437, 220899, 221399, 222012, 222336, 222834, 223410, 223758, 224408, 224753, 225317]","[214082, 214582, 215083, 215582, 216082, 216582, 217082, 217582, 218029, 218540, 219002, 219476, 219968, 220453, 220915, 221413, 221887, 222351, 222851, 223325, 223775, 224287, 224770, 225239]",97,EM,U,R,ITMSR,1.1,
2,500,practice,0,4,4,4,practice,"['S', 'S', 'S', 'S', 'S', 'S', 'S', 'S', 'C', 'C', 'C', 'C', 'C', 'C', 'C', 'C', 'C', 'C', 'C', 'C', 'C', 'C', 'C', 'C']","[231117, 231492, 231913, 232391, 232848, 233312, 233805, 234303, 234815, 235304, 235784, 236286, 236779, 237235, 237732, 238226, 238729, 239206, 239724, 240145, 240698, 241217, 241704, 242183]","[231263, 231743, 232175, 232654, 233111, 233592, 234124, 234589, 235099, 235582, 236098, 236493, 237009, 237473, 237923, 238388, 238879, 239348, 239844, 240338, 240859, 241334, 241824, 242327]","[173, 213, 205, 197, 203, 209, 161, 183, 132, 206, 213, 178, 169, 187, 128, 89, 122, 148, 163, 245, 28, 79, 60, 24]","[231121, 231496, 231918, 232396, 232853, 233315, 234042, 234307, 234819, 235309, 235788, 236291, 236783, 237239, 237736, 238231, 238733, 239211, 239729, 240150, 240705, 241222, 241710, 242190]","[230948, 231448, 231948, 232449, 232948, 233448, 233948, 234448, 234835, 235324, 235804, 236306, 236800, 237255, 237752, 238246, 238749, 239226, 239745, 240165, 240718, 241238, 241724, 242203]",97,EM,U,R,ITMSR,1.1,
3,500,practice,0,5,5,5,practice,"['S', 'S', 'S', 'S', 'S', 'S', 'S', 'S', 'C', 'C', 'C', 'C', 'C', 'C', 'C', 'C', 'C', 'C', 'C', 'C', 'C', 'C', 'C', 'C', 'C', 'C']","[247783, 248160, 248605, 249078, 249576, 250045, 250520, 250974, 251476, 251990, 252447, 252963, 253441, 253918, 254409, 254877, 255364, 255464, 255874, 255974, 256352, 256845, 257353, 257841, 258293, 258835]","[247940, 248391, 248832, 249325, 249787, 250302, 250788, 251245, 251736, 252252, 252727, 253188, 253686, 254144, 254594, 255008, 255384, 255528, 255894, 255994, 256519, 256958, 257425, 257863, 258383, 258855]","[215, 110, 173, 210, 15, 200, 175, 179, 158, 172, 162, 105, 133, 140, 137, 37, 110, 162, 222, 55, 95, 3, 192, 189, 54, 202]","[247787, 248165, 248609, 249082, 249580, 250049, 250524, 251151, 251480, 251994, 252451, 252968, 253445, 253923, 254413, 254882, 255369, 255477, 255878, 255974, 256357, 256849, 257358, 257846, 258297, 258839]","[247608, 248109, 248609, 249109, 249609, 250109, 250609, 251109, 251496, 252010, 252467, 252983, 253461, 253938, 254429, 254897, 255384, 255894, 256372, 256865, 257373, 257861, 258313, 258855]",97,EM,U,R,ITMSR,1.1,
0,400,trial,0,6,6,6,trial,"['S', 'S', 'S', 'S', 'S', 'S', 'S', 'C', 'C', 'C', 'C', 'C', 'C', 'C', 'C', 'C', 'C', 'C', 'C', 'C', 'C', 'C', 'C']","[320181, 320538, 320925, 321292, 321654, 322030, 322419, 322827, 323194, 323559, 323927, 324300, 324688, 325057, 325439, 325828, 326194, 326590, 326980, 327354, 327737, 328123, 328491]","[320290, 320723, 321108, 321471, 321847, 322187, 322607, 322973, 323345, 323708, 324096, 324456, 324806, 325183, 325530, 325885, 326259, 326677, 327044, 327428, 327858, 328202, 328597]","[106, 197, 3, 24, 59, 65, 34, 53, 234, 11, 12, 208, 100, 167, 219, 64, 210, 22, 25, 29, 204, 78, 4]","[320188, 320543, 320929, 321295, 321658, 322033, 322422, 322830, 323198, 323563, 323931, 324304, 324694, 325063, 325444, 325836, 326200, 326597, 326988, 327361, 327743, 328130, 328498]","[319700, 320099, 320499, 320899, 321299, 321699, 322099, 322499, 322847, 323214, 323579, 323947, 324320, 324708, 325078, 325459, 325848, 326214, 326610, 327000, 327374, 327757, 328143, 328511]",97,EM,U,R,ITMSR,1.1,
2,400,trial,0,7,7,7,trial,"['S', 'S', 'S', 'S', 'S', 'S', 'S', 'C', 'C', 'C', 'C', 'C', 'C', 'C', 'C', 'C', 'C', 'C', 'C', 'C', 'C', 'C', 'C', 'C']","[334420, 334815, 335210, 335622, 336028, 336442, 336838, 337245, 337619, 337992, 338388, 338788, 339151, 339557, 339918, 340300, 340671, 340771, 341079, 341465, 341835, 342211, 342554, 342919]","[334586, 335063, 335471, 335855, 336239, 336633, 336971, 337383, 337792, 338140, 338540, 338941, 339276, 339667, 340029, 340404, 340691, 340791, 341163, 341552, 341914, 342263, 342617, 342941]","[202, 52, 116, 144, 146, 95, 145, 214, 3, 222, 59, 85, 49, 240, 251, 116, 10, 195, 225, 58, 40, 4, 234, 32]","[334428, 334821, 335215, 335627, 336032, 336446, 336842, 337250, 337624, 337996, 338396, 338792, 339156, 339562, 339922, 340304, 340677, 340771, 341082, 341469, 341838, 342215, 342557, 342924]","[334075, 334475, 334875, 335276, 335675, 336075, 336475, 336875, 337265, 337639, 338012, 338408, 338808, 339171, 339577, 339938, 340320, 340691, 341099, 341485, 341855, 342232, 342574, 342939]",97,EM,U,R,ITMSR,1.1,
0,400,trial,0,8,8,8,trial,"['S', 'S', 'S', 'S', 'S', 'S', 'S', 'C', 'C', 'C', 'C', 'C', 'C', 'C', 'C', 'C', 'C', 'C', 'C', 'C', 'C', 'C', 'C']","[349014, 349399, 349825, 350251, 350678, 351111, 351512, 351873, 352257, 352691, 353103, 353486, 353921, 354295, 354696, 355082, 355468, 355841, 356219, 356626, 357023, 357415, 357842]","[349034, 349560, 350074, 350505, 350945, 351330, 351712, 352120, 352532, 352916, 353320, 353713, 354117, 354468, 354810, 355203, 355585, 355946, 356318, 356646, 357131, 357512, 357922]","[14, 26, 104, 227, 174, 208, 200, 219, 246, 198, 187, 232, 138, 168, 127, 141, 75, 30, 184, 182, 36, 111, 244]","[349018, 349404, 349829, 350254, 350681, 351114, 351517, 351876, 352261, 352694, 353107, 353489, 353925, 354298, 354700, 355086, 355472, 355845, 356222, 356629, 357027, 357420, 357848]","[348676, 349075, 349475, 349875, 350275, 350675, 351075, 351475, 351893, 352277, 352711, 353123, 353506, 353941, 354315, 354716, 355102, 355488, 355861, 356239, 356646, 357043, 357435, 357862]",97,EM,U,R,ITMSR,1.1,
4,600,trial,0,9,9,9,trial,"['S', 'S', 'S', 'S', 'S', 'S', 'S', 'S', 'C', 'C', 'C', 'C', 'C', 'C', 'C', 'C', 'C', 'C', 'C', 'C', 'C', 'C', 'C', 'C', 'C', 'C', 'C', 'C', 'C', 'C', 'C', 'C', 'C', 'C', 'C']","[363583, 363911, 364572, 365187, 365820, 366443, 367064, 367652, 368282, 368861, 368964, 369497, 370080, 370675, 370775, 371293, 371895, 371995, 372499, 373055, 373155, 373573, 373675, 374220, 374320, 374847, 374947, 375444, 375544, 376028, 376128, 376592, 376692, 377174, 377274]","[363689, 364183, 364850, 365533, 366182, 366797, 367429, 367989, 368518, 368884, 369177, 369733, 370334, 370695, 370922, 371543, 371915, 372156, 372722, 373075, 373253, 373593, 373849, 374240, 374496, 374867, 375077, 375464, 375620, 376048, 376238, 376612, 376830, 377194, 377393]","[222, 2, 176, 190, 167, 126, 33, 56, 42, 181, 79, 221, 27, 207, 74, 3, 192, 78, 86, 106, 75, 143, 242, 80, 53, 254, 210, 224, 159, 232, 184, 14, 176, 209, 182]","[363588, 363914, 364575, 365190, 365824, 366446, 367069, 367655, 368286, 368864, 369060, 369500, 370084, 370679, 370881, 371297, 371899, 371995, 372504, 373060, 373188, 373578, 373783, 374225, 374391, 374853, 374962, 375450, 375544, 376034, 376139, 376594, 376751, 377179, 377274]","[363443, 364043, 364643, 365243, 365843, 366443, 367043, 367643, 368302, 368881, 369517, 370100, 370695, 371313, 371915, 372519, 373075, 373593, 374240, 374867, 375464, 376048, 376612, 377194]",97,EM,U,R,ITMSR,1.1,
1,600,trial,0,10,10,10,trial,"['S', 'S', 'S', 'S', 'S', 'S', 'S', 'S', 'C', 'C', 'C', 'C', 'C', 'C', 'C', 'C', 'C', 'C', 'C', 'C', 'C', 'C', 'C', 'C', 'C', 'C', 'C', 'C', 'C', 'C']","[382688, 383181, 383689, 384266, 384854, 385468, 386060, 386660, 387258, 387844, 388474, 388574, 389062, 389164, 389632, 390204, 390756, 391373, 391962, 392064, 392535, 393174, 393274, 393793, 393895, 394379, 394980, 395470, 395570, 396103]","[382903, 383494, 384014, 384600, 385163, 385766, 386374, 386984, 387561, 388189, 388494, 388794, 389082, 389355, 389937, 390506, 391079, 391655, 391982, 392247, 392786, 393194, 393412, 393814, 393996, 394577, 395117, 395490, 395607, 396123]","[115, 251, 154, 231, 34, 224, 33, 211, 172, 194, 164, 193, 189, 218, 88, 221, 171, 129, 5, 235, 239, 150, 10, 162, 48, 150, 252, 221, 120, 56]","[382694, 383183, 383692, 384270, 384858, 385472, 386064, 386664, 387263, 387849, 388480, 388654, 389068, 389240, 389637, 390208, 390762, 391379, 391967, 392174, 392733, 393178, 393354, 393799, 393912, 394384, 394984, 395475, 395570, 396108]","[382495, 383095, 383695, 384295, 384896, 385496, 386096, 386696, 387278, 387864, 388494, 389082, 389652, 390224, 390776, 391393, 391982, 392555, 393194, 393814, 394399, 395000, 395490, 396123]",97,EM,U,R,ITMSR,1.1,
4,600,trial,0,11,11,11,trial,"['S', 'S', 'S', 'S', 'S', 'S', 'S', 'S', 'S', 'S', 'S', 'C', 'C', 'C', 'C', 'C', 'C', 'C', 'C', 'C', 'C', 'C', 'C', 'C', 'C', 'C', 'C', 'C', 'C', 'C', 'C', 'C']","[402041, 402448, 402998, 403592, 404190, 404290, 404776, 404876, 405409, 405509, 405980, 406607, 406707, 407246, 407346, 407884, 408460, 409025, 409127, 409654, 409754, 410244, 410800, 410900, 411368, 411970, 412569, 413110, 413761, 414369, 414929, 415449]","[402182, 402662, 403276, 403861, 404210, 404467, 404796, 405043, 405429, 405634, 406240, 406627, 406825, 407266, 407458, 408000, 408488, 409046, 409156, 409674, 409774, 410372, 410820, 410920, 411388, 411991, 412643, 413130, 413829, 414433, 414997, 415576]","[9, 99, 61, 79, 86, 219, 3, 188, 121, 219, 29, 146, 220, 22, 178, 19, 23, 101, 127, 246, 79, 249, 126, 92, 25, 60, 64, 70, 235, 119, 123, 100]","[402049, 402452, 403002, 403595, 404193, 404373, 404781, 404935, 405415, 405586, 405984, 406612, 406707, 407250, 407350, 407888, 408464, 409029, 409127, 409659, 409754, 410248, 410804, 410911, 411374, 411975, 412575, 413116, 413767, 414374, 414934, 415455]","[401821, 402421, 403021, 403621, 404221, 404822, 405421, 406021, 406627, 407266, 407904, 408480, 409046, 409674, 410264, 410820, 411388, 411991, 412589, 413130, 413782, 414389, 414949, 415469]",97,EM,U,R,ITMSR,1.1,
1,400,trial,0,12,12,12,trial,"['S', 'S', 'S', 'S', 'S', 'S', 'S', 'S', 'C', 'C', 'C', 'C', 'C', 'C', 'C', 'C', 'C', 'C', 'C', 'C', 'C', 'C', 'C', 'C']","[421435, 421535, 421798, 422201, 422594, 422992, 423408, 423822, 424200, 424605, 425005, 425395, 425765, 426163, 426552, 426940, 427314, 427723, 428097, 428486, 428889, 429258, 429634, 430045]","[421455, 421583, 421908, 422333, 422734, 423138, 423518, 423939, 424297, 424705, 425115, 425483, 425840, 426236, 426572, 426960, 427334, 427743, 428118, 428506, 428952, 429278, 429655, 430067]","[157, 137, 137, 5, 7, 30, 34, 40, 28, 184, 135, 49, 52, 115, 17, 45, 176, 103, 49, 101, 88, 113, 205, 32]","[421438, 421539, 421803, 422204, 422597, 422995, 423411, 423824, 424202, 424608, 425008, 425399, 425769, 426166, 426556, 426944, 427317, 427727, 428102, 428489, 428894, 429262, 429638, 430049]","[421085, 421484, 421884, 422284, 422684, 423085, 423485, 423885, 424220, 424625, 425025, 425415, 425785, 426183, 426572, 426960, 427334, 427743, 428118, 428506, 428909, 429278, 429655, 430065]",97,EM,U,R,ITMSR,1.1,
1,400,trial,0,13,13,13,trial,"['S', 'S', 'S', 'S', 'S', 'S', 'S', 'S', 'C', 'C', 'C', 'C', 'C', 'C', 'C', 'C', 'C', 'C', 'C', 'C', 'C', 'C', 'C', 'C']","[435773, 436133, 436411, 436751, 437130, 437512, 437891, 438307, 438657, 438995, 439383, 439749, 440142, 440507, 440915, 441318, 441706, 442066, 442469, 442864, 443232, 443631, 444020, 444443]","[435890, 436238, 436562, 436920, 437296, 437691, 438073, 438451, 438813, 439127, 439495, 439874, 440227, 440636, 441028, 441413, 441799, 442147, 442566, 442942, 443334, 443746, 444141, 444549]","[7, 50, 57, 86, 72, 45, 58, 29, 57, 192, 184, 164, 53, 175, 126, 70, 21, 192, 76, 173, 73, 95, 118, 22]","[435820, 436177, 436470, 436823, 437211, 437595, 437967, 438356, 438727, 439060, 439424, 439805, 440148, 440571, 440956, 441359, 441745, 442103, 442525, 442900, 443274, 443695, 444078, 444508]","[435598, 435998, 436398, 436798, 437198, 437598, 437998, 438398, 438677, 439015, 439403, 439769, 440162, 440527, 440935, 441338, 441726, 442086, 442489, 442884, 443252, 443651, 444040, 444463]",97,EM,U,R,ITMSR,1.1,
3,600,trial,0,14,14,14,trial,"['S', 'S', 'S', 'S', 'S', 'S', 'S', 'S', 'C', 'C', 'C', 'C', 'C', 'C', 'C', 'C', 'C', 'C', 'C', 'C', 'C', 'C', 'C', 'C']","[449943, 450306, 450904, 451521, 452108, 452695, 453309, 453965, 454521, 455099, 455641, 456236, 456773, 457338, 457877, 458436, 458953, 459535, 460080, 460646, 461225, 461741, 462321, 462858]","[450074, 450614, 451247, 451833, 452416, 452998, 453591, 454209, 454832, 455393, 455924, 456477, 457033, 457590, 458151, 458686, 459235, 459792, 460348, 460922, 461477, 462003, 462567, 463108]","[187, 217, 231, 39, 49, 23, 49, 41, 244, 217, 193, 171, 158, 193, 194, 186, 137, 141, 146, 189, 196, 219, 128, 154]","[449946, 450384, 451136, 451619, 452256, 452875, 453450, 454107, 454644, 455271, 455784, 456365, 456892, 457452, 458040, 458561, 459078, 459668, 460190, 460804, 461356, 461879, 462448, 462989]","[449779, 450379, 450979, 451579, 452179, 452780, 453379, 453979, 454541, 455119, 455661, 456256, 456793, 457358, 457897, 458456, 458973, 459555, 460100, 460666, 461245, 461761, 462341, 462878]",97,EM,U,R,ITMSR,1.1,
1,600,trial,0,15,15,15,trial,"['S', 'S', 'S', 'S', 'S', 'S', 'S', 'S', 'C', 'C', 'C', 'C', 'C', 'C', 'C', 'C', 'C', 'C', 'C', 'C', 'C', 'C', 'C', 'C']","[468760, 469177, 469707, 470311, 470929, 471522, 472139, 472715, 473330, 473966, 474530, 475072, 475616, 476134, 476715, 477259, 477793, 478363, 478878, 479395, 479924, 480507, 481022, 481606]","[468894, 469426, 470029, 470583, 471205, 471802, 472413, 472983, 473565, 474189, 474764, 475309, 475830, 476368, 476922, 477447, 478012, 478581, 479161, 479653, 480210, 480764, 481291, 481841]","[239, 140, 128, 182, 121, 155, 189, 254, 238, 215, 194, 2, 166, 200, 71, 110, 107, 175, 193, 98, 161, 212, 223, 143]","[468764, 469286, 469924, 470464, 471090, 471676, 472296, 472867, 473444, 474085, 474644, 475188, 475720, 476244, 476822, 477350, 477886, 478466, 479040, 479509, 480089, 480626, 481180, 481747]","[468600, 469200, 469800, 470401, 471000, 471600, 472200, 472800, 473350, 473986, 474550, 475092, 475636, 476154, 476735, 477279, 477813, 478383, 478898, 479415, 479944, 480527, 481042, 481626]",97,EM,U,R,ITMSR,1.1,
0,600,trial,0,16,16,16,trial,"['S', 'S', 'S', 'S', 'S', 'S', 'S', 'S', 'C', 'C', 'C', 'C', 'C', 'C', 'C', 'C', 'C', 'C', 'C', 'C', 'C', 'C', 'C', 'C']","[487599, 488062, 488551, 489129, 489708, 490300, 490928, 491505, 492123, 492698, 493279, 493839, 494404, 494964, 495491, 496050, 496618, 497169, 497696, 498236, 498769, 499336, 499888, 500421]","[487760, 488266, 488804, 489396, 489966, 490548, 491128, 491722, 492313, 492943, 493490, 494032, 494612, 495168, 495702, 496245, 496790, 497324, 497880, 498405, 498950, 499527, 500107, 500637]","[251, 115, 83, 183, 222, 237, 165, 165, 95, 96, 203, 85, 122, 106, 74, 86, 87, 47, 253, 237, 60, 251, 30, 158]","[487605, 488161, 488647, 489266, 489872, 490432, 491054, 491640, 492223, 492812, 493370, 493916, 494503, 495049, 495596, 496134, 496695, 497241, 497778, 498311, 498837, 499412, 499993, 500511]","[487411, 488011, 488611, 489211, 489811, 490412, 491011, 491611, 492143, 492718, 493299, 493859, 494424, 494984, 495511, 496070, 496638, 497189, 497716, 498256, 498789, 499356, 499908, 500441]",97,EM,U,R,ITMSR,1.1,
4,400,trial,0,17,17,17,trial,"['S', 'S', 'S', 'S', 'S', 'S', 'S', 'C', 'C', 'C', 'C', 'C', 'C', 'C', 'C', 'C', 'C', 'C', 'C', 'C', 'C', 'C', 'C']","[506429, 506856, 507256, 507653, 508039, 508448, 508860, 509280, 509647, 510022, 510400, 510766, 511147, 511526, 511924, 512308, 512672, 513061, 513425, 513816, 514201, 514583, 514950]","[506604, 507009, 507365, 507740, 508114, 508534, 508945, 509356, 509729, 510107, 510486, 510861, 511223, 511588, 512003, 512375, 512733, 513139, 513501, 513913, 514272, 514668, 515009]","[144, 148, 195, 131, 124, 113, 106, 71, 116, 233, 32, 96, 227, 127, 121, 164, 35, 204, 202, 21, 141, 247, 78]","[506529, 506925, 507316, 507658, 508044, 508489, 508908, 509315, 509685, 510060, 510439, 510803, 511184, 511535, 511960, 512315, 512681, 513098, 513463, 513857, 514231, 514624, 514978]","[506183, 506584, 506984, 507384, 507784, 508184, 508584, 508984, 509300, 509667, 510042, 510420, 510786, 511167, 511546, 511944, 512328, 512692, 513081, 513445, 513837, 514221, 514604, 514970]",97,EM,U,R,ITMSR,1.1,
2,400,trial,0,18,18,18,trial,"['S', 'S', 'S', 'S', 'S', 'S', 'S', 'S', 'C', 'C', 'C', 'C', 'C', 'C', 'C', 'C', 'C', 'C', 'C', 'C', 'C', 'C', 'C', 'C']","[520836, 521163, 521467, 521789, 522176, 522549, 522953, 523339, 523763, 524151, 524568, 524948, 525360, 525735, 526119, 526524, 526899, 527294, 527697, 528086, 528483, 528847, 529241, 529649]","[520943, 521284, 521612, 521930, 522307, 522704, 523122, 523497, 523882, 524291, 524697, 525050, 525444, 525837, 526232, 526631, 527001, 527386, 527781, 528151, 528547, 528907, 529306, 529704]","[241, 73, 187, 183, 128, 120, 147, 62, 0, 31, 36, 197, 204, 163, 46, 206, 96, 29, 82, 147, 85, 100, 234, 0]","[520871, 521217, 521535, 521834, 522181, 522620, 523035, 523405, 523808, 524219, 524624, 524952, 525364, 525740, 526163, 526528, 526939, 527334, 527733, 528090, 528489, 528854, 529246, 529654]","[520602, 521003, 521402, 521802, 522202, 522602, 523002, 523402, 523783, 524171, 524589, 524968, 525380, 525755, 526139, 526544, 526919, 527314, 527717, 528106, 528503, 528867, 529261, 529669]",97,EM,U,R,ITMSR,1.1,
2,600,trial,0,19,19,19,trial,"['S', 'S', 'S', 'S', 'S', 'S', 'S', 'S', 'C', 'C', 'C', 'C', 'C', 'C', 'C', 'C', 'C', 'C', 'C', 'C', 'C', 'C', 'C', 'C']","[535445, 535920, 536357, 536900, 537437, 538024, 538607, 539208, 539822, 540395, 540934, 541490, 542030, 542595, 543159, 543683, 544305, 544805, 545330, 545888, 546449, 547006, 547579, 548088]","[535534, 536048, 536556, 537164, 537722, 538265, 538860, 539456, 539951, 540535, 541109, 541618, 542144, 542713, 543281, 543795, 544437, 544961, 545448, 546033, 546581, 547108, 547670, 548190]","[207, 241, 172, 228, 156, 228, 214, 92, 81, 207, 27, 240, 246, 64, 241, 54, 50, 38, 34, 68, 9, 234, 52, 242]","[535451, 535924, 536453, 537043, 537518, 538027, 538703, 539329, 539827, 540463, 540939, 541560, 542034, 542642, 543224, 543725, 544354, 544896, 545372, 545968, 546452, 547048, 547621, 548129]","[535146, 535745, 536345, 536945, 537545, 538145, 538745, 539345, 539842, 540416, 540954, 541510, 542050, 542615, 543179, 543704, 544325, 544825, 545350, 545908, 546469, 547026, 547599, 548108]",97,EM,U,R,ITMSR,1.1,
4,400,trial,0,20,20,20,trial,"['S', 'S', 'S', 'S', 'S', 'S', 'S', 'S', 'C', 'C', 'C', 'C', 'C', 'C', 'C', 'C', 'C', 'C', 'C', 'C', 'C', 'C', 'C', 'C']","[553615, 553987, 554289, 554611, 554984, 555374, 555763, 556184, 556569, 556982, 557342, 557749, 558125, 558484, 558870, 559261, 559652, 560030, 560412, 560780, 561202, 561567, 561950, 562341]","[553744, 554107, 554433, 554737, 555094, 555463, 555864, 556263, 556655, 557069, 557421, 557820, 558189, 558552, 558950, 559351, 559725, 560116, 560479, 560843, 561298, 561660, 562042, 562432]","[40, 67, 80, 147, 72, 209, 99, 158, 95, 32, 64, 40, 229, 36, 211, 74, 160, 229, 150, 154, 227, 251, 35, 184]","[553679, 553990, 554292, 554613, 554987, 555376, 555813, 556186, 556572, 556985, 557345, 557752, 558129, 558487, 558873, 559263, 559655, 560033, 560416, 560783, 561204, 561569, 561953, 562344]","[553451, 553851, 554251, 554651, 555052, 555451, 555851, 556251, 556589, 557002, 557362, 557769, 558145, 558504, 558891, 559281, 559672, 560050, 560432, 560800, 561222, 561587, 561970, 562361]",97,EM,U,R,ITMSR,1.1,
5,600,trial,0,21,21,21,trial,"['S', 'S', 'S', 'S', 'S', 'S', 'S', 'S', 'C', 'C', 'C', 'C', 'C', 'C', 'C', 'C', 'C', 'C', 'C', 'C', 'C', 'C', 'C', 'C']","[568209, 568689, 569105, 569679, 570270, 570843, 571441, 572005, 572592, 573167, 573775, 574347, 574868, 575429, 576005, 576569, 577119, 577683, 578222, 578784, 579365, 579864, 580440, 580983]","[568283, 568777, 569253, 569879, 570479, 571136, 571634, 572207, 572713, 573305, 573935, 574504, 575012, 575591, 576181, 576741, 577288, 577810, 578345, 578911, 579478, 579985, 580532, 581069]","[139, 251, 159, 118, 218, 30, 60, 35, 58, 37, 216, 193, 92, 165, 156, 200, 179, 60, 207, 167, 221, 199, 66, 69]","[568214, 568734, 569108, 569681, 570273, 570846, 571443, 572114, 572596, 573170, 573850, 574349, 574945, 575505, 576111, 576655, 577213, 577767, 578224, 578786, 579367, 579865, 580509, 581035]","[567922, 568522, 569122, 569722, 570322, 570923, 571522, 572122, 572612, 573187, 573795, 574367, 574888, 575449, 576025, 576589, 577139, 577703, 578242, 578804, 579385, 579885, 580460, 581003]",97,EM,U,R,ITMSR,1.1,
5,400,trial,0,22,22,22,trial,"['S', 'S', 'S', 'S', 'S', 'S', 'S', 'S', 'C', 'C', 'C', 'C', 'C', 'C', 'C', 'C', 'C', 'C', 'C', 'C', 'C', 'C', 'C', 'C']","[586594, 586937, 587374, 587704, 587979, 588318, 588687, 589096, 589511, 589901, 590290, 590696, 591041, 591499, 591889, 592281, 592665, 593051, 593415, 593794, 594170, 594573, 594944, 595337]","[586675, 587055, 587470, 587802, 588064, 588401, 588777, 589198, 589606, 590004, 590389, 590782, 591126, 591595, 591995, 592373, 592748, 593118, 593500, 593889, 594275, 594630, 594964, 595357]","[84, 112, 21, 57, 149, 140, 38, 119, 226, 155, 91, 236, 212, 165, 158, 127, 76, 138, 125, 244, 112, 35, 173, 123]","[586597, 586982, 587377, 587707, 587982, 588321, 588691, 589100, 589514, 589904, 590296, 590699, 591045, 591503, 591894, 592286, 592669, 593056, 593419, 593798, 594178, 594576, 594946, 595339]","[586402, 586801, 587201, 587601, 588001, 588401, 588802, 589202, 589531, 589921, 590310, 590716, 591062, 591519, 591909, 592301, 592685, 593071, 593435, 593814, 594190, 594593, 594964, 595357]",97,EM,U,R,ITMSR,1.1,
3,600,trial,0,23,23,23,trial,"['S', 'S', 'S', 'S', 'S', 'S', 'S', 'S', 'S', 'S', 'S', 'S', 'C', 'C', 'C', 'C', 'C', 'C', 'C', 'C', 'C', 'C', 'C', 'C', 'C', 'C', 'C', 'C', 'C', 'C', 'C', 'C', 'C', 'C', 'C', 'C', 'C']","[601311, 601622, 602258, 602858, 602958, 603465, 603565, 604029, 604129, 604637, 604737, 605220, 605845, 606410, 606510, 607014, 607114, 607585, 607685, 608131, 608669, 609251, 609388, 609759, 610286, 610387, 610866, 611417, 611950, 612473, 612573, 613030, 613130, 613538, 613638, 614029, 614129]","[601398, 601731, 602381, 602878, 602978, 603485, 603585, 604049, 604151, 604657, 604830, 605401, 605974, 606430, 606559, 607034, 607183, 607605, 607757, 608357, 608947, 609308, 609412, 609927, 610306, 610533, 611077, 611602, 611970, 612493, 612705, 613050, 613170, 613558, 613689, 614049, 614193]","[188, 254, 37, 159, 30, 134, 44, 158, 64, 205, 98, 167, 215, 86, 69, 172, 178, 58, 73, 82, 116, 31, 133, 148, 95, 150, 147, 234, 53, 50, 86, 132, 64, 132, 54, 95, 88]","[601313, 601626, 602260, 602860, 602958, 603466, 603565, 604035, 604129, 604639, 604800, 605222, 605848, 606412, 606514, 607019, 607118, 607589, 607711, 608234, 608852, 609265, 609388, 609785, 610290, 610425, 610871, 611422, 611952, 612474, 612686, 613032, 613134, 613541, 613638, 614033, 614129]","[601144, 601744, 602344, 602944, 603544, 604144, 604744, 605344, 605865, 606430, 607034, 607605, 608151, 608689, 609271, 609779, 610306, 610886, 611437, 611970, 612493, 613050, 613558, 614049]",97,EM,U,R,ITMSR,1.1,
5,600,trial,0,24,24,24,trial,"['S', 'S', 'S', 'S', 'S', 'S', 'S', 'S', 'S', 'S', 'C', 'C', 'C', 'C', 'C', 'C', 'C', 'C', 'C', 'C', 'C', 'C', 'C', 'C', 'C', 'C', 'C']","[620041, 620423, 620953, 621551, 621654, 622186, 622768, 623354, 623458, 623940, 624522, 625106, 625208, 625719, 626234, 626800, 627340, 627959, 628527, 629018, 629618, 630157, 630689, 631259, 631778, 632365, 632902]","[620130, 620570, 621095, 621572, 621706, 622318, 622905, 623378, 623478, 624031, 624544, 625128, 625228, 625824, 626352, 627036, 627595, 628112, 628643, 629169, 629776, 630394, 630867, 631399, 631974, 632507, 633051]","[112, 189, 164, 146, 39, 153, 187, 198, 42, 183, 24, 244, 25, 28, 75, 80, 167, 193, 50, 64, 192, 43, 2, 152, 77, 87, 163]","[620080, 620511, 620957, 621554, 621654, 622189, 622771, 623357, 623458, 623941, 624525, 625108, 625208, 625722, 626237, 626803, 627343, 627964, 628531, 629022, 629622, 630162, 630693, 631262, 631781, 632369, 632906]","[619817, 620418, 621018, 621618, 622218, 622818, 623418, 624018, 624542, 625126, 625739, 626254, 626820, 627360, 627979, 628547, 629038, 629638, 630177, 630709, 631279, 631798, 632385, 632922]",97,EM,U,R,ITMSR,1.1,
2,600,trial,0,25,25,25,trial,"['S', 'S', 'S', 'S', 'S', 'S', 'S', 'S', 'C', 'C', 'C', 'C', 'C', 'C', 'C', 'C', 'C', 'C', 'C', 'C', 'C', 'C', 'C', 'C']","[638679, 639111, 639552, 640088, 640698, 641297, 641875, 642492, 643066, 643618, 644195, 644736, 645302, 645864, 646421, 646963, 647489, 648043, 648546, 649147, 649644, 650251, 650753, 651249]","[638778, 639224, 639685, 640249, 640917, 641568, 642159, 642721, 643224, 643900, 644411, 644968, 645514, 646017, 646593, 647132, 647589, 648169, 648713, 649238, 649779, 650309, 650773, 651328]","[106, 144, 204, 223, 237, 185, 24, 13, 152, 73, 68, 115, 57, 73, 12, 246, 217, 44, 83, 4, 230, 175, 114, 246]","[638735, 639166, 639556, 640091, 640701, 641301, 641879, 642495, 643069, 643622, 644198, 644740, 645307, 645868, 646426, 646966, 647494, 648048, 648549, 649150, 649648, 650254, 650757, 651253]","[638411, 639011, 639611, 640211, 640812, 641411, 642011, 642611, 643086, 643638, 644215, 644756, 645322, 645884, 646441, 646983, 647510, 648064, 648566, 649167, 649664, 650271, 650773, 651269]",97,EM,U,R,ITMSR,1.1,
3,400,trial,0,26,26,26,trial,"['S', 'S', 'S', 'S', 'S', 'S', 'S', 'C', 'C', 'C', 'C', 'C', 'C', 'C', 'C', 'C', 'C', 'C', 'C', 'C', 'C', 'C', 'C']","[656890, 657276, 657687, 658122, 658537, 658948, 659334, 659760, 660168, 660569, 660944, 661370, 661747, 662100, 662487, 662898, 663272, 663646, 664023, 664417, 664812, 665233, 665629]","[657024, 657388, 657798, 658184, 658558, 658971, 659387, 659836, 660246, 660592, 660971, 661432, 661817, 662122, 662509, 662918, 663293, 663666, 664043, 664437, 664833, 665253, 665650]","[15, 92, 234, 125, 90, 227, 99, 92, 229, 150, 246, 174, 58, 168, 112, 123, 203, 115, 103, 105, 17, 156, 163]","[656894, 657281, 657753, 658127, 658539, 658950, 659337, 659763, 660171, 660573, 660947, 661374, 661750, 662105, 662492, 662901, 663276, 663649, 664027, 664422, 664816, 665237, 665633]","[656704, 657104, 657504, 657904, 658305, 658704, 659104, 659504, 659780, 660188, 660589, 660964, 661390, 661767, 662120, 662507, 662918, 663292, 663666, 664043, 664437, 664833, 665253, 665649]",97,EM,U,R,ITMSR,1.1,
5,400,trial,0,27,27,27,trial,"['S', 'S', 'S', 'S', 'S', 'S', 'S', 'S', 'C', 'C', 'C', 'C', 'C', 'C', 'C', 'C', 'C', 'C', 'C', 'C', 'C', 'C', 'C', 'C']","[671549, 671867, 672183, 672535, 672936, 673351, 673742, 674113, 674495, 674874, 675300, 675748, 676131, 676488, 676849, 677261, 677652, 678056, 678413, 678813, 679175, 679563, 679906, 680291]","[671645, 671944, 672266, 672605, 673031, 673411, 673802, 674185, 674563, 674894, 675320, 675768, 676188, 676508, 676869, 677281, 677672, 678076, 678484, 678833, 679195, 679583, 679926, 680311]","[162, 188, 252, 28, 93, 98, 86, 147, 78, 134, 244, 88, 33, 168, 181, 152, 192, 168, 98, 195, 199, 142, 204, 133]","[671556, 671873, 672187, 672540, 672942, 673355, 673746, 674119, 674500, 674880, 675306, 675751, 676136, 676491, 676853, 677269, 677656, 678062, 678419, 678818, 679178, 679564, 679913, 680296]","[671366, 671766, 672166, 672566, 672966, 673367, 673766, 674166, 674515, 674894, 675320, 675768, 676151, 676508, 676869, 677281, 677672, 678076, 678433, 678833, 679195, 679583, 679926, 680311]",97,EM,U,R,ITMSR,1.1,
3,400,trial,0,28,28,28,trial,"['S', 'S', 'S', 'S', 'S', 'S', 'S', 'S', 'S', 'C', 'C', 'C', 'C', 'C', 'C', 'C', 'C', 'C', 'C', 'C', 'C', 'C', 'C', 'C', 'C']","[686173, 686480, 686801, 687126, 687499, 687890, 688252, 688648, 689035, 689417, 689763, 690106, 690459, 690796, 691174, 691549, 691920, 692357, 692714, 693083, 693500, 693903, 694264, 694651, 695034]","[686275, 686570, 686880, 687193, 687569, 687950, 688337, 688668, 689055, 689516, 689783, 690170, 690481, 690817, 691194, 691569, 691942, 692377, 692737, 693103, 693520, 693923, 694289, 694671, 695054]","[210, 176, 131, 41, 4, 203, 198, 16, 159, 192, 3, 137, 88, 138, 181, 121, 171, 173, 32, 28, 177, 185, 223, 23, 38]","[686178, 686485, 686808, 687131, 687504, 687895, 688258, 688653, 689041, 689422, 689768, 690112, 690463, 690801, 691180, 691556, 691929, 692361, 692719, 693088, 693507, 693910, 694270, 694657, 695042]","[685986, 686386, 686786, 687186, 687586, 687986, 688386, 688786, 689437, 689783, 690126, 690479, 690817, 691194, 691569, 691940, 692377, 692734, 693103, 693520, 693923, 694284, 694671, 695054]",97,EM,U,R,ITMSR,1.1,
0,600,trial,0,29,29,29,trial,"['S', 'S', 'S', 'S', 'S', 'S', 'S', 'S', 'S', 'S', 'S', 'C', 'C', 'C', 'C', 'C', 'C', 'C', 'C', 'C', 'C', 'C', 'C', 'C', 'C', 'C', 'C', 'C', 'C', 'C', 'C', 'C', 'C', 'C', 'C', 'C', 'C', 'C']","[700600, 700980, 701477, 701578, 702094, 702689, 703316, 703939, 704041, 704534, 704635, 705111, 705665, 706231, 706333, 706789, 707059, 707320, 708306, 708877, 708977, 709380, 709480, 709917, 710017, 710427, 710529, 711019, 711188, 711617, 712183, 712283, 712704, 712804, 713263, 713363, 713828, 713928]","[700620, 701119, 701498, 701765, 702409, 702977, 703595, 703961, 704195, 704555, 704784, 705358, 705940, 706253, 706479, 706944, 707079, 707649, 708503, 708897, 709038, 709400, 709664, 709937, 710224, 710447, 710733, 711040, 711243, 711638, 712203, 712374, 712724, 712913, 713283, 713397, 713848, 714015]","[65, 38, 63, 50, 247, 205, 54, 240, 83, 229, 172, 156, 70, 79, 126, 201, 44, 218, 178, 190, 51, 55, 64, 226, 59, 148, 83, 146, 62, 129, 184, 52, 154, 77, 168, 67, 96, 50]","[700607, 700984, 701483, 701659, 702099, 702695, 703321, 703944, 704091, 704537, 704635, 705116, 705669, 706236, 706413, 706795, 707074, 707328, 708395, 708883, 708979, 709385, 709480, 709921, 710017, 710434, 710553, 711023, 711215, 711621, 712189, 712317, 712710, 712804, 713265, 713363, 713836, 713989]","[700375, 700974, 701574, 702174, 702774, 703374, 703974, 704574, 705131, 705685, 706251, 706809, 707079, 708326, 708897, 709400, 709937, 710447, 711040, 711638, 712203, 712724, 713283, 713848]",97,EM,U,R,ITMSR,1.1,
0,400,trial,0,30,30,30,trial,"['S', 'S', 'S', 'S', 'S', 'S', 'S', 'S', 'C', 'C', 'C', 'C', 'C', 'C', 'C', 'C', 'C', 'C', 'C', 'C', 'C', 'C', 'C', 'C']","[735589, 735924, 736291, 736746, 737130, 737529, 737931, 738340, 738763, 739138, 739497, 739861, 740227, 740620, 740976, 741350, 741734, 742114, 742487, 742877, 743306, 743621, 744015, 744378]","[735704, 736041, 736418, 736831, 737210, 737616, 738013, 738422, 738786, 739213, 739577, 739957, 740312, 740703, 741067, 741464, 741813, 742234, 742614, 742983, 743326, 743717, 744035, 744398]","[200, 22, 17, 7, 250, 164, 141, 114, 45, 121, 138, 110, 116, 47, 83, 22, 12, 224, 101, 80, 83, 99, 92, 67]","[735595, 735928, 736294, 736750, 737134, 737533, 737936, 738344, 738766, 739143, 739503, 739866, 740232, 740625, 740982, 741355, 741740, 742120, 742493, 742881, 743309, 743627, 744020, 744384]","[735328, 735728, 736129, 736528, 736928, 737328, 737728, 738128, 738783, 739159, 739517, 739881, 740247, 740640, 740996, 741370, 741754, 742134, 742507, 742897, 743326, 743641, 744035, 744398]",97,EM,U,R,ITMSR,1.1,
4,400,trial,0,31,31,31,trial,"['S', 'S', 'S', 'S', 'S', 'S', 'S', 'S', 'C', 'C', 'C', 'C', 'C', 'C', 'C', 'C', 'C', 'C', 'C', 'C', 'C', 'C', 'C', 'C']","[750200, 750580, 750983, 751263, 751549, 751924, 752303, 752733, 753127, 753464, 753832, 754259, 754633, 755013, 755349, 755700, 756063, 756423, 756746, 757083, 757427, 757825, 758149, 758488]","[750292, 750665, 751054, 751331, 751632, 751944, 752323, 752795, 753195, 753487, 753852, 754332, 754695, 755033, 755374, 755720, 756083, 756443, 756766, 757103, 757447, 757846, 758169, 758508]","[156, 227, 161, 18, 214, 182, 217, 147, 142, 204, 186, 254, 91, 106, 189, 85, 75, 41, 13, 180, 211, 70, 58, 7]","[750206, 750586, 750987, 751269, 751553, 751930, 752307, 752739, 753132, 753469, 753836, 754267, 754638, 755018, 755354, 755705, 756067, 756430, 756751, 757087, 757431, 757830, 758150, 758494]","[750010, 750410, 750810, 751210, 751610, 752010, 752410, 752811, 753147, 753484, 753852, 754279, 754653, 755033, 755369, 755720, 756083, 756443, 756766, 757103, 757447, 757846, 758169, 758508]",97,EM,U,R,ITMSR,1.1,
2,600,trial,0,32,32,32,trial,"['S', 'S', 'S', 'S', 'S', 'S', 'S', 'S', 'C', 'C', 'C', 'C', 'C', 'C', 'C', 'C', 'C', 'C', 'C', 'C', 'C', 'C', 'C', 'C']","[764141, 764445, 765018, 765602, 766232, 766828, 767432, 768037, 768643, 769223, 769769, 770324, 770861, 771404, 771941, 772470, 772990, 773498, 774021, 774542, 775045, 775555, 776043, 776528]","[764241, 764746, 765340, 765928, 766553, 767130, 767759, 768332, 768958, 769499, 770044, 770579, 771106, 771656, 772183, 772711, 773237, 773764, 774252, 774772, 775313, 775794, 776304]","[193, 25, 55, 244, 191, 100, 2, 29, 223, 180, 163, 247, 215, 220, 134, 108, 167, 128, 151, 6, 194, 184, 225]","[764145, 764449, 765021, 765605, 766235, 766832, 767436, 768040, 768646, 769391, 769927, 770457, 770978, 771534, 772078, 772581, 772995, 773651, 774132, 774642, 775156, 775693, 776177]","[763965, 764565, 765165, 765765, 766365, 766965, 767565, 768165, 768663, 769243, 769789, 770344, 770881, 771424, 771961, 772490, 773010, 773518, 774041, 774562, 775065, 775575, 776064, 776548]",97,EM,U,R,ITMSR,1.1,
2,400,trial,0,33,33,33,trial,"['S', 'S', 'S', 'S', 'S', 'S', 'S', 'S', 'C', 'C', 'C', 'C', 'C', 'C', 'C', 'C', 'C', 'C', 'C', 'C', 'C', 'C', 'C', 'C']","[782402, 782748, 783074, 783409, 783773, 784109, 784505, 784932, 785376, 785732, 786086, 786454, 786852, 787227, 787604, 787963, 788338, 788730, 789104, 789483, 789860, 790260, 790620, 790992]","[782511, 782884, 783191, 783504, 783868, 784233, 784652, 785044, 785478, 785842, 786184, 786542, 786940, 787311, 787686, 788037, 788411, 788832, 789191, 789565, 789925, 790336, 790692, 791072]","[7, 236, 61, 236, 14, 12, 129, 198, 26, 107, 110, 42, 224, 42, 52, 40, 25, 147, 63, 72, 181, 193, 115, 95]","[782407, 782828, 783076, 783413, 783776, 784112, 784509, 784936, 785381, 785736, 786091, 786458, 786854, 787230, 787607, 787966, 788340, 788733, 789107, 789486, 789866, 790263, 790623, 790995]","[782238, 782638, 783038, 783438, 783838, 784238, 784638, 785038, 785396, 785752, 786106, 786475, 786872, 787247, 787624, 787983, 788358, 788750, 789124, 789504, 789880, 790280, 790640, 791012]",97,EM,U,R,ITMSR,1.1,
3,600,trial,0,34,34,34,trial,"['S', 'S', 'S', 'S', 'S', 'S', 'S', 'S', 'C', 'C', 'C', 'C', 'C', 'C', 'C', 'C', 'C', 'C', 'C', 'C', 'C', 'C', 'C', 'C']","[796760, 797081, 797693, 798305, 798917, 799513, 800125, 800728, 801337, 801855, 802409, 802978, 803499, 804034, 804583, 805128, 805666, 806184, 806686, 807219, 807752, 808253, 808754, 809251]","[796876, 797408, 798054, 798683, 799251, 799850, 800433, 801031, 801643, 802202, 802727, 803277, 803751, 804279, 804827, 805361, 805878, 806439, 806962, 807508, 807987, 808515, 809004, 809498]","[182, 116, 102, 102, 114, 2, 232, 235, 255, 1, 1, 5, 250, 220, 212, 136, 91, 153, 198, 191, 224, 186, 109, 236]","[796764, 797177, 797697, 798308, 798920, 799516, 800129, 800932, 801510, 802004, 802594, 803138, 803638, 804153, 804733, 805242, 805670, 806317, 806870, 807411, 807873, 808432, 808882, 809377]","[796588, 797187, 797787, 798387, 798987, 799587, 800187, 800787, 801357, 801875, 802429, 802998, 803519, 804055, 804603, 805148, 805686, 806204, 806706, 807239, 807772, 808273, 808774, 809271]",97,EM,U,R,ITMSR,1.1,
3,600,trial,0,35,35,35,trial,"['S', 'S', 'S', 'S', 'S', 'S', 'S', 'S', 'C', 'C', 'C', 'C', 'C', 'C', 'C', 'C', 'C', 'C', 'C', 'C', 'C', 'C', 'C', 'C']","[814947, 815372, 815960, 816545, 817122, 817681, 818256, 818844, 819464, 820006, 820537, 821033, 821581, 822147, 822671, 823198, 823708, 824279, 824764, 825289, 825828, 826338, 826900, 827409]","[815107, 815724, 816311, 816872, 817421, 817992, 818549, 819124, 819652, 820264, 820759, 821321, 821855, 822377, 822876, 823411, 823955, 824467, 825024, 825532, 826014, 826539, 827109, 827635]","[137, 176, 166, 188, 175, 177, 163, 211, 161, 203, 126, 74, 195, 194, 97, 169, 237, 61, 237, 215, 183, 248, 205, 135]","[814950, 815375, 815963, 816548, 817124, 817845, 818259, 818847, 819572, 820011, 820541, 821037, 821585, 822150, 822675, 823202, 823712, 824282, 824767, 825292, 825831, 826341, 826903, 827412]","[814757, 815357, 815958, 816557, 817157, 817757, 818357, 818957, 819484, 820026, 820557, 821053, 821601, 822167, 822691, 823218, 823728, 824299, 824784, 825309, 825848, 826358, 826920, 827429]",97,EM,U,R,ITMSR,1.1,
5,400,trial,0,36,36,36,trial,"['B', 'S', 'S', 'S', 'S', 'S', 'S', 'S', 'C', 'C', 'C', 'C', 'C', 'C', 'C', 'C', 'C', 'C', 'C', 'C', 'C', 'C', 'C', 'C']","[833018, 833378, 833738, 834197, 834610, 834966, 835351, 835743, 836110, 836475, 836867, 837284, 837675, 838030, 838440, 838810, 839232, 839613, 840006, 840367, 840770, 841123, 841524, 841902]","[833173, 833551, 833997, 834422, 834785, 835151, 835526, 835907, 836293, 836667, 837029, 837436, 837817, 838169, 838602, 838973, 839365, 839732, 840137, 840493, 840884, 841240, 841610, 841993]","[77, 3, 69, 192, 220, 205, 190, 225, 214, 136, 182, 53, 98, 162, 24, 33, 102, 71, 255, 69, 31, 114, 134, 181]","[833030, 833381, 833741, 834201, 834613, 834969, 835353, 835746, 836113, 836480, 836870, 837286, 837678, 838033, 838444, 838813, 839235, 839616, 840009, 840370, 840774, 841126, 841528, 841906]","[833030, 833430, 833830, 834230, 834630, 835031, 835430, 835830, 836130, 836495, 836887, 837304, 837695, 838050, 838460, 838830, 839252, 839633, 840026, 840387, 840791, 841143, 841544, 841922]",97,EM,U,R,ITMSR,1.1,
0,600,trial,0,37,37,37,trial,"['S', 'S', 'S', 'S', 'S', 'S', 'S', 'S', 'C', 'C', 'C', 'C', 'C', 'C', 'C', 'C', 'C', 'C', 'C', 'C', 'C', 'C', 'C', 'C', 'C']","[847647, 847996, 848534, 849121, 849712, 850371, 850976, 851566, 852110, 852651, 853201, 853769, 854274, 854799, 855346, 855912, 856433, 856918, 857431, 857949, 858441, 858541, 858969, 859525, 860068]","[847764, 848287, 848857, 849423, 850066, 850650, 851266, 851847, 852434, 852984, 853512, 854020, 854542, 855049, 855610, 856133, 856642, 857125, 857632, 858168, 858461, 858593, 859227, 859773, 860314]","[216, 252, 64, 56, 48, 45, 148, 183, 140, 141, 126, 89, 80, 104, 170, 163, 76, 19, 55, 95, 106, 12, 223, 232, 251]","[847651, 848002, 848537, 849124, 849715, 850374, 850979, 851570, 852113, 852654, 853204, 853772, 854277, 854932, 855349, 855914, 856435, 856921, 857434, 857952, 858444, 858543, 858974, 859529, 860071]","[847491, 848091, 848691, 849291, 849891, 850491, 851091, 851691, 852130, 852671, 853221, 853789, 854294, 854819, 855366, 855932, 856453, 856938, 857451, 857969, 858461, 858989, 859545, 860088]",97,EM,U,R,ITMSR,1.1,
5,400,trial,0,38,38,38,trial,"['S', 'S', 'S', 'S', 'S', 'S', 'S', 'S', 'C', 'C', 'C', 'C', 'C', 'C', 'C', 'C', 'C', 'C', 'C', 'C', 'C', 'C', 'C', 'C']","[865992, 866349, 866670, 867017, 867381, 867771, 868163, 868564, 868973, 869381, 869781, 870180, 870592, 870989, 871375, 871769, 872161, 872544, 872939, 873347, 873747, 874139, 874531, 874964]","[866138, 866516, 866853, 867203, 867557, 867951, 868353, 868761, 869145, 869529, 869949, 870331, 870740, 871145, 871520, 871900, 872294, 872711, 873109, 873484, 873899, 874299, 874679, 875055]","[192, 43, 51, 52, 67, 96, 106, 78, 56, 96, 103, 117, 109, 83, 100, 112, 36, 43, 25, 214, 27, 234, 246, 48]","[865995, 866352, 866672, 867020, 867384, 867773, 868165, 868567, 868976, 869384, 869783, 870183, 870594, 870991, 871377, 871772, 872163, 872547, 872941, 873350, 873750, 874143, 874534, 874967]","[865785, 866184, 866584, 866984, 867384, 867784, 868184, 868584, 868994, 869401, 869801, 870200, 870612, 871009, 871395, 871789, 872181, 872564, 872960, 873367, 873767, 874159, 874551, 874984]",97,EM,U,R,ITMSR,1.1,
4,400,trial,0,39,39,39,trial,"['S', 'S', 'S', 'S', 'S', 'S', 'S', 'S', 'C', 'C', 'C', 'C', 'C', 'C', 'C', 'C', 'C', 'C', 'C', 'C', 'C', 'C', 'C', 'C']","[880929, 881282, 881598, 881937, 882318, 882711, 883099, 883482, 883875, 884267, 884635, 885048, 885426, 885816, 886211, 886597, 886992, 887366, 887770, 888174, 888582, 888964, 889364, 889708]","[881032, 881392, 881734, 882075, 882444, 882824, 883237, 883635, 884024, 884431, 884795, 885189, 885571, 885936, 886340, 886699, 887104, 887491, 887891, 888273, 888693, 889080, 889463, 889796]","[47, 96, 125, 136, 124, 140, 141, 118, 89, 111, 85, 85, 106, 65, 86, 51, 56, 69, 79, 82, 58, 39, 87, 42]","[880932, 881285, 881600, 881939, 882320, 882713, 883101, 883485, 883877, 884270, 884637, 885050, 885429, 885818, 886214, 886600, 886994, 887369, 887773, 888176, 888585, 888967, 889366, 889711]","[880724, 881124, 881524, 881924, 882324, 882724, 883124, 883524, 883895, 884287, 884655, 885068, 885446, 885836, 886232, 886617, 887012, 887386, 887790, 888194, 888602, 888984, 889384, 889729]",97,EM,U,R,ITMSR,1.1,
0,600,trial,0,40,40,40,trial,"['S', 'S', 'S', 'S', 'S', 'S', 'S', 'S', 'C', 'C', 'C', 'C', 'C', 'C', 'C', 'C', 'C', 'C', 'C', 'C', 'C', 'C', 'C', 'C']","[895471, 895787, 896362, 896961, 897600, 898198, 898776, 899357, 899977, 900547, 901114, 901629, 902210, 902796, 903370, 903887, 904464, 905019, 905582, 906169, 906757, 907290, 907845, 908377]","[895596, 896096, 896695, 897287, 897889, 898483, 899080, 899666, 900254, 900853, 901376, 901884, 902486, 903053, 903624, 904179, 904748, 905300, 905873, 906422, 906991, 907485, 908067, 908619]","[31, 39, 98, 117, 133, 95, 68, 51, 71, 51, 232, 150, 19, 12, 1, 31, 64, 72, 29, 8, 49, 37, 180, 215]","[895474, 895791, 896364, 896964, 897603, 898200, 898779, 899360, 899979, 900550, 901262, 901633, 902213, 902800, 903373, 903891, 904467, 905021, 905586, 906173, 906759, 907293, 907967, 908381]","[895272, 895873, 896472, 897072, 897672, 898272, 898872, 899472, 899997, 900568, 901134, 901649, 902231, 902816, 903390, 903907, 904484, 905039, 905602, 906189, 906777, 907310, 907865, 908397]",97,EM,U,R,ITMSR,1.1,
3,400,trial,0,41,41,41,trial,"['S', 'S', 'S', 'S', 'S', 'S', 'S', 'C', 'C', 'C', 'C', 'C', 'C', 'C', 'C', 'C', 'C', 'C', 'C', 'C', 'C', 'C', 'C']","[914460, 914843, 915206, 915621, 916066, 916467, 916882, 917321, 917742, 918159, 918520, 918931, 919322, 919712, 920074, 920466, 920853, 921244, 921637, 922030, 922451, 922855, 923238]","[914651, 914967, 915359, 915767, 916215, 916659, 917060, 917495, 917902, 918267, 918657, 919096, 919449, 919812, 920179, 920586, 920921, 921367, 921748, 922137, 922523, 922964, 923329]","[176, 3, 23, 69, 76, 63, 36, 17, 55, 175, 69, 69, 141, 11, 97, 224, 202, 208, 80, 209, 221, 53, 146]","[914465, 914846, 915210, 915623, 916069, 916470, 916885, 917324, 917744, 918162, 918523, 918934, 919325, 919717, 920078, 920471, 920857, 921249, 921639, 922035, 922455, 922859, 923243]","[914152, 914552, 914952, 915352, 915752, 916152, 916552, 916952, 917341, 917762, 918179, 918540, 918951, 919342, 919732, 920094, 920486, 920873, 921264, 921657, 922050, 922471, 922875, 923258]",97,EM,U,R,ITMSR,1.1,
5,600,trial,0,42,42,42,trial,"['S', 'S', 'S', 'S', 'S', 'S', 'S', 'S', 'C', 'C', 'C', 'C', 'C', 'C', 'C', 'C', 'C', 'C', 'C', 'C', 'C', 'C', 'C', 'C']","[929021, 929372, 929949, 930595, 931173, 931764, 932390, 933002, 933607, 934211, 934806, 935363, 935925, 936526, 937091, 937670, 938222, 938779, 939328, 939897, 940464, 941039, 941600, 942192]","[929095, 929598, 930244, 930845, 931449, 932051, 932665, 933259, 933877, 934475, 935074, 935610, 936221, 936778, 937376, 937897, 938465, 939006, 939596, 940153, 940686, 941258, 941784, 942382]","[65, 30, 143, 111, 130, 134, 88, 109, 81, 86, 50, 73, 56, 31, 232, 27, 29, 54, 95, 92, 112, 94, 114, 223]","[929025, 929376, 929951, 930597, 931175, 931766, 932393, 933004, 933610, 934214, 934809, 935365, 935928, 936529, 937095, 937673, 938225, 938782, 939330, 939900, 940466, 941041, 941602, 942194]","[928823, 929423, 930023, 930623, 931223, 931823, 932423, 933023, 933627, 934232, 934827, 935384, 935945, 936546, 937111, 937690, 938242, 938799, 939348, 939917, 940484, 941059, 941620, 942212]",97,EM,U,R,ITMSR,1.1,
3,400,trial,0,43,43,43,trial,"['S', 'S', 'S', 'S', 'S', 'S', 'S', 'S', 'C', 'C', 'C', 'C', 'C', 'C', 'C', 'C', 'C', 'C', 'C', 'C', 'C', 'C', 'C', 'C']","[947803, 948193, 948555, 948847, 949196, 949575, 949945, 950362, 950745, 951113, 951489, 951864, 952239, 952617, 953006, 953388, 953789, 954168, 954576, 954957, 955325, 955689, 956072, 956488]","[947938, 948350, 948685, 948953, 949283, 949638, 950049, 950436, 950840, 951215, 951617, 951990, 952372, 952758, 953124, 953492, 953903, 954301, 954659, 955047, 955425, 955807, 956180, 956599]","[105, 120, 154, 105, 163, 123, 55, 102, 39, 37, 46, 60, 39, 70, 250, 62, 26, 234, 5, 52, 50, 100, 16, 53]","[947806, 948196, 948557, 948849, 949198, 949577, 949948, 950364, 950749, 951115, 951491, 951867, 952242, 952620, 953008, 953390, 953791, 954171, 954579, 954960, 955328, 955692, 956075, 956491]","[947624, 948024, 948424, 948824, 949224, 949624, 950024, 950424, 950765, 951133, 951510, 951884, 952259, 952637, 953026, 953408, 953809, 954188, 954596, 954977, 955345, 955709, 956092, 956508]",97,EM,U,R,ITMSR,1.1,
5,600,trial,0,44,44,44,trial,"['S', 'S', 'S', 'S', 'S', 'S', 'S', 'S', 'C', 'C', 'C', 'C', 'C', 'C', 'C', 'C', 'C', 'C', 'C', 'C', 'C', 'C', 'C', 'C']","[962251, 962618, 963209, 963816, 964423, 965065, 965651, 966226, 966795, 967376, 967920, 968446, 969006, 969560, 970101, 970659, 971222, 971777, 972325, 972868, 973416, 973979, 974505, 975077]","[962354, 962868, 963486, 964107, 964680, 965297, 965880, 966456, 967036, 967640, 968185, 968765, 969214, 969781, 970297, 970871, 971418, 971951, 972509, 973060, 973617, 974198, 974724, 975251]","[61, 64, 144, 140, 117, 91, 91, 92, 48, 51, 22, 89, 225, 73, 2, 55, 143, 148, 174, 255, 4, 239, 245, 133]","[962254, 962621, 963211, 963818, 964425, 965068, 965653, 966230, 966798, 967378, 967923, 968449, 969008, 969563, 970104, 970663, 971226, 971781, 972328, 972871, 973419, 973981, 974510, 975081]","[962086, 962686, 963287, 963886, 964486, 965086, 965686, 966286, 966815, 967396, 967940, 968466, 969026, 969580, 970121, 970679, 971242, 971797, 972345, 972888, 973436, 973999, 974525, 975097]",97,EM,U,R,ITMSR,1.1,
4,600,trial,0,45,45,45,trial,"['S', 'S', 'S', 'S', 'S', 'S', 'S', 'S', 'C', 'C', 'C', 'C', 'C', 'C', 'C', 'C', 'C', 'C', 'C', 'C', 'C', 'C', 'C', 'C']","[980805, 981203, 981701, 982289, 982868, 983485, 984101, 984690, 985293, 985866, 986486, 987085, 987669, 988302, 988901, 989447, 990010, 990581, 991187, 991765, 992315, 992906, 993503, 994017]","[980939, 981434, 981992, 982565, 983150, 983737, 984341, 984939, 985539, 986146, 986736, 987353, 987934, 988510, 989103, 989715, 990247, 990838, 991415, 991990, 992534, 993164, 993717, 994268]","[190, 26, 118, 72, 79, 0, 8, 50, 17, 180, 158, 21, 33, 152, 162, 8, 203, 2, 20, 250, 13, 210, 186, 191]","[980806, 981207, 981704, 982292, 982873, 983488, 984215, 984693, 985403, 986042, 986660, 987088, 987672, 988404, 988904, 989570, 990131, 990708, 991297, 991868, 992430, 992909, 993506, 994134]","[980622, 981222, 981822, 982422, 983022, 983622, 984222, 984822, 985313, 985886, 986506, 987105, 987689, 988322, 988921, 989467, 990030, 990601, 991207, 991785, 992335, 992926, 993523, 994037]",97,EM,U,R,ITMSR,1.1,
0,400,trial,0,46,46,46,trial,"['S', 'S', 'S', 'S', 'S', 'S', 'S', 'S', 'C', 'C', 'C', 'C', 'C', 'C', 'C', 'C', 'C', 'C', 'C', 'C', 'C', 'C', 'C', 'C']","[999832, 1000221, 1000544, 1000856, 1001234, 1001573, 1001973, 1002349, 1002733, 1003087, 1003474, 1003874, 1004266, 1004610, 1004967, 1005349, 1005708, 1006120, 1006491, 1006898, 1007275, 1007655, 1008045, 1008435]","[1000024, 1000395, 1000711, 1001021, 1001371, 1001754, 1002114, 1002490, 1002868, 1003215, 1003595, 1003990, 1004374, 1004732, 1005092, 1005468, 1005873, 1006242, 1006631, 1007024, 1007420, 1007790, 1008199, 1008540]","[209, 53, 86, 122, 162, 113, 126, 40, 50, 42, 171, 201, 48, 75, 16, 20, 45, 143, 174, 179, 227, 238, 11, 4]","[999914, 1000225, 1000547, 1000858, 1001236, 1001576, 1001975, 1002352, 1002733, 1003090, 1003478, 1003877, 1004269, 1004613, 1004972, 1005351, 1005711, 1006123, 1006494, 1006901, 1007278, 1007659, 1008048, 1008438]","[999680, 1000078, 1000478, 1000878, 1001278, 1001678, 1002078, 1002478, 1002754, 1003107, 1003494, 1003894, 1004286, 1004631, 1004987, 1005369, 1005728, 1006140, 1006511, 1006918, 1007295, 1007675, 1008065, 1008455]",97,EM,U,R,ITMSR,1.1,
1,400,trial,0,47,47,47,trial,"['S', 'S', 'S', 'S', 'S', 'S', 'S', 'S', 'C', 'C', 'C', 'C', 'C', 'C', 'C', 'C', 'C', 'C', 'C', 'C', 'C', 'C', 'C', 'C']","[1014240, 1014547, 1014865, 1015235, 1015622, 1016010, 1016406, 1016804, 1017238, 1017624, 1017994, 1018385, 1018806, 1019207, 1019598, 1019973, 1020376, 1020801, 1021189, 1021554, 1021907, 1022263, 1022668, 1022987]","[1014353, 1014704, 1015024, 1015405, 1015802, 1016223, 1016634, 1017013, 1017440, 1017817, 1018216, 1018610, 1018990, 1019345, 1019735, 1020133, 1020487, 1020917, 1021287, 1021654, 1022035, 1022415, 1022806, 1023116]","[47, 12, 46, 119, 105, 133, 154, 140, 131, 81, 108, 74, 48, 98, 73, 83, 214, 50, 58, 75, 56, 33, 112, 76]","[1014242, 1014550, 1014868, 1015237, 1015625, 1016012, 1016408, 1016806, 1017240, 1017626, 1017997, 1018388, 1018809, 1019209, 1019601, 1019975, 1020379, 1020803, 1021191, 1021557, 1021910, 1022265, 1022671, 1022989]","[1014076, 1014476, 1014876, 1015276, 1015676, 1016076, 1016476, 1016877, 1017259, 1017645, 1018014, 1018405, 1018826, 1019227, 1019618, 1019993, 1020396, 1020821, 1021209, 1021574, 1021927, 1022283, 1022688, 1023007]",97,EM,U,R,ITMSR,1.1,
4,600,trial,0,48,48,48,trial,"['S', 'S', 'S', 'S', 'S', 'S', 'S', 'S', 'C', 'C', 'C', 'C', 'C', 'C', 'C', 'C', 'C', 'C', 'C', 'C', 'C', 'C', 'C', 'C']","[1028697, 1029000, 1029544, 1030133, 1030762, 1031370, 1031997, 1032589, 1033176, 1033729, 1034276, 1034831, 1035347, 1035822, 1036326, 1036814, 1037326, 1037802, 1038268, 1038765, 1039238, 1039720, 1040197, 1040672]","[1028810, 1029254, 1029865, 1030458, 1031065, 1031649, 1032274, 1032877, 1033432, 1034012, 1034579, 1035140, 1035635, 1036043, 1036538, 1037072, 1037594, 1038109, 1038592, 1039067, 1039538, 1039996, 1040492]","[82, 99, 183, 105, 84, 92, 105, 154, 115, 117, 106, 109, 87, 23, 94, 86, 108, 94, 26, 73, 26, 9, 95]","[1028700, 1029002, 1029547, 1030135, 1030764, 1031373, 1031999, 1032591, 1033178, 1033731, 1034278, 1034833, 1035350, 1035825, 1036329, 1036817, 1037329, 1037804, 1038271, 1038767, 1039241, 1039723, 1040199]","[1028471, 1029071, 1029671, 1030272, 1030872, 1031472, 1032072, 1032672, 1033196, 1033749, 1034296, 1034851, 1035367, 1035842, 1036346, 1036834, 1037346, 1037822, 1038288, 1038785, 1039258, 1039740, 1040217, 1040692]",97,EM,U,R,ITMSR,1.1,
1,600,trial,0,49,49,49,trial,"['S', 'S', 'S', 'S', 'S', 'S', 'S', 'S', 'C', 'C', 'C', 'C', 'C', 'C', 'C', 'C', 'C', 'C', 'C', 'C', 'C', 'C', 'C', 'C']","[1046588, 1046983, 1047543, 1048139, 1048770, 1049364, 1049952, 1050532, 1051143, 1051734, 1052319, 1052869, 1053462, 1054009, 1054582, 1055145, 1055684, 1056246, 1056783, 1057367, 1057911, 1058398, 1058910, 1059525]","[1046714, 1047216, 1047840, 1048445, 1049057, 1049649, 1050237, 1050823, 1051441, 1052000, 1052569, 1053143, 1053716, 1054288, 1054829, 1055413, 1055971, 1056536, 1057088, 1057644, 1058185, 1058729, 1059233, 1059749]","[66, 148, 179, 172, 132, 98, 102, 77, 59, 54, 229, 21, 251, 41, 19, 252, 86, 85, 85, 112, 81, 94, 75, 60]","[1046591, 1046985, 1047545, 1048140, 1048772, 1049367, 1049955, 1050535, 1051146, 1051736, 1052322, 1052872, 1053628, 1054012, 1054749, 1055322, 1055849, 1056248, 1056972, 1057369, 1057914, 1058401, 1059111, 1059650]","[1046469, 1047069, 1047669, 1048269, 1048869, 1049469, 1050070, 1050669, 1051163, 1051754, 1052339, 1052889, 1053483, 1054029, 1054602, 1055165, 1055704, 1056266, 1056803, 1057387, 1057931, 1058418, 1058930, 1059545]",97,EM,U,R,ITMSR,1.1,
1,400,trial,0,50,50,50,trial,"['S', 'S', 'S', 'S', 'S', 'S', 'S', 'S', 'C', 'C', 'C', 'C', 'C', 'C', 'C', 'C', 'C', 'C', 'C', 'C', 'C', 'C', 'C', 'C']","[1065254, 1065629, 1065986, 1066352, 1066691, 1067035, 1067398, 1067780, 1068170, 1068537, 1068917, 1069309, 1069703, 1070086, 1070459, 1070828, 1071227, 1071596, 1071973, 1072338, 1072739, 1073132, 1073542, 1073896]","[1065410, 1065807, 1066158, 1066526, 1066857, 1067217, 1067569, 1067965, 1068327, 1068705, 1069089, 1069469, 1069835, 1070202, 1070579, 1070970, 1071355, 1071750, 1072075, 1072463, 1072886, 1073256, 1073665, 1074015]","[247, 99, 87, 87, 106, 134, 128, 129, 143, 88, 105, 122, 116, 95, 126, 111, 111, 89, 78, 84, 37, 92, 80, 64]","[1065259, 1065630, 1065989, 1066354, 1066694, 1067038, 1067401, 1067782, 1068172, 1068539, 1068920, 1069312, 1069706, 1070088, 1070461, 1070830, 1071230, 1071599, 1071976, 1072342, 1072743, 1073135, 1073545, 1073899]","[1065067, 1065466, 1065866, 1066266, 1066667, 1067066, 1067466, 1067866, 1068190, 1068557, 1068937, 1069329, 1069723, 1070106, 1070479, 1070849, 1071247, 1071617, 1071993, 1072358, 1072759, 1073153, 1073562, 1073916]",97,EM,U,R,ITMSR,1.1,
2,400,trial,0,51,51,51,trial,"['S', 'S', 'S', 'S', 'S', 'S', 'S', 'S', 'C', 'C', 'C', 'C', 'C', 'C', 'C', 'C', 'C', 'C', 'C', 'C', 'C', 'C', 'C', 'C']","[1079575, 1079979, 1080339, 1080750, 1081111, 1081495, 1081892, 1082316, 1082729, 1083114, 1083479, 1083858, 1084249, 1084618, 1084960, 1085337, 1085706, 1086083, 1086453, 1086832, 1087190, 1087588, 1087904, 1088280]","[1079697, 1080101, 1080489, 1080872, 1081286, 1081682, 1082092, 1082494, 1082891, 1083247, 1083653, 1084022, 1084366, 1084756, 1085065, 1085445, 1085836, 1086229, 1086568, 1086935, 1087303, 1087673, 1088017, 1088384]","[239, 116, 144, 126, 104, 131, 137, 28, 62, 77, 88, 94, 38, 109, 97, 101, 89, 102, 80, 196, 11, 9, 6, 20]","[1079578, 1079981, 1080341, 1080752, 1081114, 1081496, 1081895, 1082321, 1082731, 1083117, 1083481, 1083862, 1084252, 1084621, 1084963, 1085340, 1085709, 1086086, 1086455, 1086836, 1087194, 1087591, 1087909, 1088284]","[1079266, 1079665, 1080066, 1080466, 1080866, 1081266, 1081666, 1082066, 1082749, 1083134, 1083499, 1083878, 1084269, 1084638, 1084980, 1085357, 1085726, 1086103, 1086473, 1086852, 1087210, 1087608, 1087924, 1088301]",97,EM,U,R,ITMSR,1.1,
2,600,trial,0,52,52,52,trial,"['S', 'S', 'S', 'S', 'S', 'S', 'S', 'S', 'C', 'C', 'C', 'C', 'C', 'C', 'C', 'C', 'C', 'C', 'C', 'C', 'C', 'C', 'C', 'C']","[1093889, 1094232, 1094850, 1095501, 1096075, 1096622, 1097444, 1097918, 1098444, 1099040, 1099554, 1100052, 1100520, 1100992, 1101455, 1101920, 1102383, 1102842, 1103309, 1103773, 1104165, 1104603, 1105036, 1105500]","[1094016, 1094574, 1095213, 1095811, 1096329, 1096996, 1097564, 1098090, 1098611, 1099174, 1099686, 1100226, 1100727, 1101207, 1101650, 1102146, 1102573, 1103072, 1103485, 1103976, 1104424, 1104842, 1105226, 1105684]","[98, 95, 147, 178, 143, 144, 171, 161, 118, 144, 132, 145, 130, 106, 127, 99, 110, 145, 122, 132, 87, 46, 39, 51]","[1093892, 1094234, 1094853, 1095503, 1096078, 1096624, 1097444, 1097920, 1098447, 1099042, 1099556, 1100055, 1100522, 1100995, 1101458, 1101923, 1102386, 1102844, 1103312, 1103775, 1104167, 1104700, 1105039, 1105504]","[1093727, 1094327, 1094927, 1095527, 1096127, 1096727, 1097327, 1097927, 1098464, 1099060, 1099574, 1100072, 1100540, 1101012, 1101475, 1101940, 1102403, 1102862, 1103329, 1103793, 1104185, 1104623, 1105056, 1105520]",97,EM,U,R,ITMSR,1.1,
1,600,trial,0,53,53,53,trial,"['S', 'S', 'S', 'S', 'S', 'S', 'S', 'S', 'C', 'C', 'C', 'C', 'C', 'C', 'C', 'C', 'C', 'C', 'C', 'C', 'C', 'C', 'C', 'C']","[1111203, 1111589, 1112142, 1112736, 1113380, 1114025, 1114598, 1115199, 1115816, 1116385, 1116968, 1117559, 1118117, 1118689, 1119228, 1119793, 1120312, 1120871, 1121416, 1121921, 1122471, 1123006, 1123507, 1123994]","[1111365, 1111878, 1112480, 1113075, 1113680, 1114318, 1114900, 1115478, 1116090, 1116653, 1117222, 1117843, 1118347, 1118936, 1119489, 1120032, 1120572, 1121106, 1121655, 1122173, 1122716, 1123221, 1123708, 1124207]","[50, 55, 108, 119, 139, 94, 95, 75, 44, 109, 81, 63, 43, 60, 79, 61, 63, 86, 93, 57, 78, 254, 76, 201]","[1111282, 1111702, 1112144, 1112739, 1113381, 1114208, 1114786, 1115352, 1115949, 1116388, 1117099, 1117562, 1118187, 1118816, 1119371, 1119907, 1120461, 1120988, 1121523, 1122013, 1122591, 1123097, 1123607, 1124113]","[1111044, 1111643, 1112243, 1112843, 1113443, 1114043, 1114643, 1115243, 1115836, 1116405, 1116988, 1117579, 1118137, 1118709, 1119248, 1119813, 1120332, 1120891, 1121436, 1121941, 1122491, 1123026, 1123527, 1124014]",97,EM,U,R,ITMSR,1.1,
2,600,trial,0,54,54,54,trial,"['S', 'S', 'S', 'S', 'S', 'S', 'S', 'S', 'C', 'C', 'C', 'C', 'C', 'C', 'C', 'C', 'C', 'C', 'C', 'C', 'C', 'C', 'C', 'C']","[1141595, 1142025, 1142390, 1142895, 1143490, 1144050, 1144653, 1145255, 1145865, 1146405, 1146981, 1147497, 1148012, 1148526, 1149059, 1149579, 1150117, 1150625, 1151171, 1151771, 1152302, 1152836, 1153370, 1153863]","[1141727, 1142168, 1142641, 1143189, 1143739, 1144328, 1144892, 1145477, 1146044, 1146624, 1147138, 1147669, 1148201, 1148744, 1149257, 1149764, 1150344, 1150879, 1151405, 1151981, 1152540, 1153054, 1153603]","[4, 107, 140, 150, 107, 69, 55, 18, 77, 46, 57, 27, 43, 247, 43, 39, 36, 59, 51, 42, 77, 58, 79]","[1141599, 1142028, 1142392, 1142898, 1143493, 1144209, 1144802, 1145387, 1145961, 1146556, 1147073, 1147501, 1148103, 1148635, 1149164, 1149661, 1150248, 1150771, 1151275, 1151868, 1152432, 1152950, 1153492]","[1141245, 1141846, 1142445, 1143045, 1143645, 1144245, 1144845, 1145445, 1145885, 1146425, 1147001, 1147517, 1148033, 1148546, 1149079, 1149599, 1150137, 1150645, 1151192, 1151791, 1152322, 1152856, 1153390, 1153883]",97,EM,U,R,ITMSR,1.1,
1,400,trial,0,55,55,55,trial,"['S', 'S', 'S', 'S', 'S', 'S', 'S', 'C', 'C', 'C', 'C', 'C', 'C', 'C', 'C', 'C', 'C', 'C', 'C', 'C', 'C', 'C', 'C']","[1159956, 1160407, 1160774, 1161156, 1161571, 1161978, 1162332, 1162729, 1163108, 1163485, 1163880, 1164263, 1164617, 1164998, 1165392, 1165757, 1166168, 1166540, 1166956, 1167361, 1167736, 1168130, 1168525]","[1160080, 1160509, 1160871, 1161257, 1161653, 1162049, 1162420, 1162826, 1163225, 1163591, 1163987, 1164358, 1164722, 1165106, 1165503, 1165894, 1166296, 1166681, 1167090, 1167446, 1167849, 1168262, 1168647]","[42, 180, 37, 106, 26, 57, 28, 69, 43, 246, 61, 27, 25, 236, 237, 34, 5, 28, 40, 23, 9, 13, 38]","[1160030, 1160411, 1160777, 1161158, 1161575, 1161982, 1162336, 1162733, 1163111, 1163490, 1163882, 1164266, 1164621, 1165002, 1165398, 1165760, 1166172, 1166544, 1166960, 1167364, 1167740, 1168134, 1168528]","[1159667, 1160067, 1160467, 1160867, 1161267, 1161667, 1162067, 1162467, 1162749, 1163128, 1163505, 1163900, 1164283, 1164637, 1165018, 1165412, 1165777, 1166188, 1166560, 1166977, 1167381, 1167756, 1168150, 1168545]",97,EM,U,R,ITMSR,1.1,
5,400,trial,0,56,56,56,trial,"['S', 'S', 'S', 'S', 'S', 'S', 'S', 'S', 'C', 'C', 'C', 'C', 'C', 'C', 'C', 'C', 'C', 'C', 'C', 'C', 'C', 'C', 'C', 'C']","[1174282, 1174646, 1174959, 1175298, 1175689, 1176053, 1176427, 1176825, 1177227, 1177606, 1177969, 1178345, 1178702, 1179102, 1179457, 1179857, 1180191, 1180587, 1180983, 1181371, 1181762, 1182109, 1182523, 1182904]","[1174416, 1174743, 1175079, 1175402, 1175789, 1176169, 1176547, 1176930, 1177326, 1177713, 1178079, 1178439, 1178781, 1179190, 1179569, 1179961, 1180305, 1180700, 1181096, 1181476, 1181868, 1182211, 1182617, 1182993]","[214, 79, 77, 111, 147, 118, 141, 144, 98, 98, 85, 77, 63, 37, 99, 68, 200, 33, 27, 37, 45, 12, 203, 207]","[1174287, 1174649, 1174962, 1175301, 1175689, 1176056, 1176429, 1176828, 1177230, 1177609, 1177972, 1178348, 1178706, 1179105, 1179459, 1179862, 1180195, 1180591, 1180986, 1181375, 1181765, 1182112, 1182527, 1182908]","[1174076, 1174476, 1174876, 1175276, 1175676, 1176076, 1176476, 1176877, 1177247, 1177626, 1177989, 1178365, 1178722, 1179122, 1179478, 1179877, 1180211, 1180607, 1181003, 1181391, 1181783, 1182129, 1182543, 1182924]",97,EM,U,R,ITMSR,1.1,
5,600,trial,0,57,57,57,trial,"['S', 'S', 'S', 'S', 'S', 'S', 'S', 'S', 'C', 'C', 'C', 'C', 'C', 'C', 'C', 'C', 'C', 'C', 'C', 'C', 'C', 'C', 'C', 'C', 'C', 'C']","[1188493, 1188914, 1189364, 1189992, 1190580, 1191173, 1191756, 1192350, 1192922, 1193477, 1194072, 1194627, 1195181, 1195741, 1195843, 1196285, 1196833, 1197356, 1197895, 1198449, 1198968, 1199070, 1199512, 1200034, 1200561, 1201098]","[1188576, 1189048, 1189597, 1190277, 1190825, 1191411, 1191995, 1192601, 1193224, 1193787, 1194305, 1194858, 1195345, 1195762, 1195923, 1196472, 1197017, 1197523, 1198114, 1198615, 1198989, 1199174, 1199664, 1200121, 1200744, 1201223]","[126, 16, 135, 118, 120, 84, 22, 39, 161, 126, 4, 222, 246, 255, 131, 21, 222, 236, 200, 30, 186, 77, 216, 237, 196, 192]","[1188499, 1188917, 1189366, 1189994, 1190582, 1191176, 1191759, 1192353, 1192926, 1193481, 1194076, 1194630, 1195185, 1195744, 1195843, 1196289, 1196836, 1197359, 1197898, 1198452, 1198971, 1199076, 1199516, 1200037, 1200564, 1201101]","[1188243, 1188843, 1189443, 1190043, 1190643, 1191243, 1191843, 1192443, 1192942, 1193497, 1194092, 1194647, 1195201, 1195761, 1196305, 1196853, 1197376, 1197915, 1198469, 1198988, 1199533, 1200054, 1200581, 1201118]",97,EM,U,R,ITMSR,1.1,
0,400,trial,0,58,58,58,trial,"['S', 'S', 'S', 'S', 'S', 'S', 'S', 'S', 'C', 'C', 'C', 'C', 'C', 'C', 'C', 'C', 'C', 'C', 'C', 'C', 'C', 'C', 'C', 'C']","[1207024, 1207334, 1207603, 1207959, 1208355, 1208770, 1209169, 1209572, 1209971, 1210339, 1210739, 1211138, 1211547, 1211901, 1212306, 1212673, 1213047, 1213450, 1213840, 1214219, 1214598, 1214996, 1215377, 1215751]","[1207138, 1207448, 1207724, 1208083, 1208478, 1208876, 1209195, 1209682, 1209994, 1210443, 1210764, 1211245, 1211640, 1212007, 1212403, 1212752, 1213137, 1213527, 1213910, 1214301, 1214666, 1215094, 1215437, 1215848]","[10, 45, 90, 173, 158, 152, 73, 77, 65, 71, 225, 227, 236, 207, 148, 150, 159, 42, 83, 63, 110, 129, 117, 100]","[1207081, 1207340, 1207606, 1207961, 1208357, 1208773, 1209172, 1209575, 1209974, 1210342, 1210743, 1211142, 1211550, 1211905, 1212310, 1212676, 1213050, 1213453, 1213843, 1214223, 1214601, 1214999, 1215380, 1215755]","[1206816, 1207216, 1207616, 1208016, 1208416, 1208816, 1209217, 1209616, 1209991, 1210359, 1210759, 1211158, 1211567, 1211921, 1212326, 1212693, 1213067, 1213470, 1213860, 1214239, 1214618, 1215016, 1215397, 1215771]",97,EM,U,R,ITMSR,1.1,
4,400,trial,0,59,59,59,trial,"['S', 'S', 'S', 'S', 'S', 'S', 'S', 'S', 'C', 'C', 'C', 'C', 'C', 'C', 'C', 'C', 'C', 'C', 'C', 'C', 'C', 'C', 'C', 'C']","[1221708, 1222040, 1222323, 1222687, 1223057, 1223441, 1223845, 1224251, 1224681, 1225076, 1225469, 1225869, 1226264, 1226607, 1226997, 1227405, 1227806, 1228206, 1228582, 1228934, 1229339, 1229716, 1230069, 1230447]","[1221792, 1222125, 1222462, 1222814, 1223190, 1223589, 1224000, 1224417, 1224829, 1225212, 1225587, 1225996, 1226418, 1226760, 1227129, 1227525, 1227916, 1228282, 1228667, 1229021, 1229420, 1229787, 1230155, 1230548]","[61, 72, 159, 124, 89, 134, 103, 119, 109, 55, 52, 244, 57, 70, 208, 173, 151, 180, 210, 220, 180, 154, 185, 241]","[1221711, 1222043, 1222325, 1222690, 1223060, 1223444, 1223848, 1224254, 1224684, 1225079, 1225473, 1225873, 1226268, 1226610, 1227001, 1227407, 1227809, 1228209, 1228585, 1228938, 1229342, 1229718, 1230071, 1230450]","[1221516, 1221915, 1222316, 1222715, 1223115, 1223515, 1223915, 1224315, 1224701, 1225096, 1225489, 1225889, 1226285, 1226627, 1227017, 1227425, 1227826, 1228226, 1228602, 1228954, 1229359, 1229736, 1230089, 1230467]",97,EM,U,R,ITMSR,1.1,
1,600,trial,0,60,60,60,trial,"['S', 'S', 'S', 'S', 'S', 'S', 'S', 'S', 'C', 'C', 'C', 'C', 'C', 'C', 'C', 'C', 'C', 'C', 'C', 'C', 'C', 'C', 'C', 'C']","[1236029, 1236316, 1236907, 1237535, 1238161, 1238786, 1239384, 1239968, 1240589, 1241175, 1241745, 1242310, 1242918, 1243522, 1244082, 1244661, 1245235, 1245796, 1246371, 1246950, 1247519, 1248091, 1248640, 1249189]","[1236132, 1236393, 1237018, 1237694, 1238366, 1239004, 1239545, 1240172, 1240799, 1241402, 1241961, 1242521, 1243114, 1243723, 1244318, 1244881, 1245461, 1246021, 1246613, 1247169, 1247762, 1248319, 1248873, 1249434]","[134, 95, 19, 47, 119, 86, 48, 12, 26, 43, 26, 8, 172, 145, 116, 125, 213, 201, 216, 218, 49, 163, 210, 60]","[1236034, 1236318, 1236909, 1237537, 1238164, 1238789, 1239386, 1239971, 1240592, 1241178, 1241748, 1242313, 1242923, 1243525, 1244085, 1244664, 1245238, 1245799, 1246375, 1246953, 1247523, 1248094, 1248642, 1249192]","[1235859, 1236458, 1237058, 1237658, 1238258, 1238858, 1239458, 1240058, 1240609, 1241195, 1241765, 1242330, 1242938, 1243542, 1244102, 1244681, 1245255, 1245816, 1246391, 1246970, 1247539, 1248111, 1248660, 1249209]",97,EM,U,R,ITMSR,1.1,
1,400,trial,0,61,61,61,trial,"['S', 'S', 'S', 'S', 'S', 'S', 'S', 'S', 'C', 'C', 'C', 'C', 'C', 'C', 'C', 'C', 'C', 'C', 'C', 'C', 'C', 'C', 'C', 'C']","[1255234, 1255559, 1255974, 1256329, 1256565, 1256927, 1257330, 1257760, 1258164, 1258552, 1258942, 1259338, 1259767, 1260129, 1260531, 1260957, 1261363, 1261757, 1262159, 1262578, 1262981, 1263405, 1263803, 1264217]","[1255360, 1255694, 1256089, 1256416, 1256655, 1257030, 1257450, 1257880, 1258270, 1258678, 1259083, 1259486, 1259947, 1260327, 1260727, 1261146, 1261553, 1261931, 1262344, 1262703, 1263108, 1263519, 1263929, 1264352]","[200, 25, 98, 82, 121, 100, 148, 123, 135, 155, 93, 113, 103, 71, 45, 23, 55, 72, 66, 52, 38, 252, 33, 44]","[1255238, 1255563, 1255976, 1256332, 1256568, 1256930, 1257333, 1257762, 1258166, 1258554, 1258945, 1259340, 1259770, 1260132, 1260535, 1260960, 1261366, 1261761, 1262162, 1262581, 1262985, 1263409, 1263806, 1264221]","[1254988, 1255388, 1255788, 1256188, 1256588, 1256988, 1257389, 1257789, 1258184, 1258572, 1258962, 1259358, 1259787, 1260149, 1260551, 1260977, 1261383, 1261777, 1262179, 1262598, 1263001, 1263425, 1263823, 1264237]",97,EM,U,R,ITMSR,1.1,
5,600,trial,0,62,62,62,trial,"['S', 'S', 'S', 'S', 'S', 'S', 'S', 'S', 'C', 'C', 'C', 'C', 'C', 'C', 'C', 'C', 'C', 'C', 'C', 'C', 'C', 'C', 'C', 'C']","[1269929, 1270238, 1270854, 1271508, 1272107, 1272702, 1273285, 1273853, 1274466, 1275023, 1275606, 1276138, 1276699, 1277257, 1277818, 1278402, 1278982, 1279567, 1280096, 1280649, 1281185, 1281699, 1282227, 1282798]","[1270005, 1270463, 1271141, 1271763, 1272340, 1272905, 1273513, 1274095, 1274634, 1275216, 1275767, 1276327, 1276906, 1277468, 1278024, 1278585, 1279149, 1279707, 1280286, 1280813, 1281342, 1281883, 1282434, 1282914]","[151, 139, 159, 161, 163, 159, 155, 158, 137, 123, 172, 73, 55, 247, 87, 93, 123, 88, 152, 126, 159, 130, 130, 126]","[1269931, 1270241, 1270856, 1271511, 1272109, 1272705, 1273287, 1273856, 1274469, 1275025, 1275608, 1276140, 1276701, 1277260, 1277820, 1278404, 1278984, 1279570, 1280098, 1280651, 1281187, 1281701, 1282229, 1282800]","[1269742, 1270342, 1270942, 1271542, 1272142, 1272742, 1273342, 1273943, 1274486, 1275043, 1275626, 1276158, 1276719, 1277277, 1277838, 1278423, 1279002, 1279587, 1280116, 1280669, 1281205, 1281719, 1282247, 1282818]",97,EM,U,R,ITMSR,1.1,
3,400,trial,0,63,63,63,trial,"['S', 'S', 'S', 'S', 'S', 'S', 'S', 'S', 'C', 'C', 'C', 'C', 'C', 'C', 'C', 'C', 'C', 'C', 'C', 'C', 'C', 'C', 'C', 'C']","[1288457, 1288825, 1289128, 1289462, 1289830, 1290225, 1290625, 1291047, 1291449, 1291845, 1292228, 1292639, 1293032, 1293428, 1293808, 1294199, 1294593, 1294979, 1295362, 1295761, 1296133, 1296540, 1296949, 1297345]","[1288562, 1288932, 1289234, 1289593, 1289997, 1290396, 1290777, 1291173, 1291579, 1291968, 1292362, 1292779, 1293146, 1293537, 1293919, 1294310, 1294695, 1295105, 1295503, 1295892, 1296282, 1296671, 1297037, 1297424]","[61, 107, 112, 157, 132, 151, 127, 127, 115, 123, 97, 82, 84, 95, 72, 82, 56, 106, 126, 105, 55, 122, 56, 32]","[1288460, 1288826, 1289131, 1289464, 1289832, 1290227, 1290627, 1291049, 1291451, 1291846, 1292230, 1292641, 1293034, 1293430, 1293810, 1294201, 1294595, 1294981, 1295364, 1295763, 1296135, 1296542, 1296952, 1297347]","[1288300, 1288700, 1289100, 1289500, 1289901, 1290301, 1290701, 1291101, 1291469, 1291865, 1292248, 1292659, 1293052, 1293448, 1293828, 1294219, 1294613, 1294999, 1295382, 1295781, 1296153, 1296560, 1296969, 1297366]",97,EM,U,R,ITMSR,1.1,
2,600,trial,0,64,64,64,trial,"['S', 'S', 'S', 'S', 'S', 'S', 'S', 'S', 'C', 'C', 'C', 'C', 'C', 'C', 'C', 'C', 'C', 'C', 'C', 'C', 'C', 'C', 'C', 'C']","[1302931, 1303352, 1303832, 1304416, 1305009, 1305644, 1306204, 1306825, 1307411, 1307965, 1308517, 1309078, 1309670, 1310229, 1310785, 1311325, 1311891, 1312492, 1313054, 1313585, 1314150, 1314673, 1315219, 1315764]","[1303031, 1303505, 1304047, 1304673, 1305228, 1305858, 1306452, 1307059, 1307615, 1308230, 1308793, 1309370, 1309883, 1310439, 1310954, 1311471, 1312071, 1312696, 1313254, 1313727, 1314299, 1314830, 1315340, 1315915]","[80, 105, 164, 165, 169, 146, 145, 142, 142, 128, 135, 87, 74, 242, 39, 20, 47, 10, 48, 31, 49, 188, 78, 77]","[1302933, 1303354, 1303834, 1304418, 1305011, 1305646, 1306206, 1306827, 1307413, 1307967, 1308519, 1309080, 1309672, 1310232, 1310787, 1311328, 1311893, 1312494, 1313057, 1313587, 1314152, 1314675, 1315221, 1315766]","[1302710, 1303310, 1303910, 1304510, 1305110, 1305710, 1306310, 1306910, 1307431, 1307985, 1308537, 1309099, 1309690, 1310249, 1310806, 1311345, 1311911, 1312513, 1313074, 1313605, 1314170, 1314693, 1315239, 1315784]",97,EM,U,R,ITMSR,1.1,
2,400,trial,0,65,65,65,trial,"['S', 'S', 'S', 'S', 'S', 'S', 'S', 'S', 'C', 'C', 'C', 'C', 'C', 'C', 'C', 'C', 'C', 'C', 'C', 'C', 'C', 'C', 'C', 'C']","[1321592, 1321969, 1322264, 1322559, 1322907, 1323285, 1323671, 1324070, 1324476, 1324850, 1325222, 1325618, 1326009, 1326405, 1326790, 1327179, 1327559, 1327934, 1328317, 1328696, 1329078, 1329481, 1329836, 1330225]","[1321684, 1322077, 1322372, 1322665, 1323009, 1323404, 1323800, 1324190, 1324593, 1324961, 1325347, 1325729, 1326108, 1326498, 1326885, 1327265, 1327641, 1328036, 1328344, 1328799, 1329182, 1329571, 1329946, 1330328]","[82, 113, 131, 163, 120, 165, 151, 154, 148, 125, 121, 133, 67, 121, 120, 60, 93, 51, 253, 37, 8, 18, 56, 19]","[1321594, 1321972, 1322266, 1322561, 1322910, 1323287, 1323673, 1324071, 1324478, 1324852, 1325224, 1325620, 1326011, 1326407, 1326792, 1327182, 1327562, 1327936, 1328320, 1328699, 1329081, 1329484, 1329839, 1330228]","[1321380, 1321780, 1322180, 1322580, 1322980, 1323380, 1323780, 1324180, 1324496, 1324870, 1325242, 1325638, 1326029, 1326425, 1326810, 1327199, 1327579, 1327954, 1328337, 1328716, 1329098, 1329501, 1329856, 1330245]",97,EM,U,R,ITMSR,1.1,
0,600,trial,0,66,66,66,trial,"['S', 'S', 'S', 'S', 'S', 'S', 'S', 'S', 'C', 'C', 'C', 'C', 'C', 'C', 'C', 'C', 'C', 'C', 'C', 'C', 'C', 'C', 'C', 'C', 'C', 'C', 'C', 'C', 'C', 'C']","[1336244, 1336634, 1337075, 1337645, 1338233, 1338825, 1339402, 1340048, 1340642, 1341263, 1341844, 1342440, 1343045, 1343147, 1343648, 1344224, 1344770, 1344870, 1345340, 1345953, 1346551, 1347090, 1347190, 1347629, 1347729, 1348212, 1348314, 1348761, 1348862, 1349383]","[1336340, 1336791, 1337305, 1337914, 1338503, 1339086, 1339683, 1340307, 1340918, 1341509, 1342097, 1342682, 1343065, 1343190, 1343857, 1344377, 1344790, 1344919, 1345451, 1346074, 1346704, 1347110, 1347255, 1347649, 1347749, 1348233, 1348334, 1348781, 1348882, 1349403]","[18, 64, 107, 115, 112, 76, 26, 5, 5, 178, 237, 251, 118, 189, 202, 225, 159, 0, 4, 111, 169, 214, 142, 128, 73, 131, 89, 149, 45, 172]","[1336305, 1336637, 1337077, 1337647, 1338235, 1338827, 1339404, 1340051, 1340644, 1341266, 1341846, 1342443, 1343047, 1343147, 1343651, 1344226, 1344773, 1344870, 1345343, 1345956, 1346554, 1347093, 1347190, 1347632, 1347734, 1348215, 1348314, 1348764, 1348862, 1349385]","[1335973, 1336573, 1337174, 1337773, 1338373, 1338973, 1339573, 1340173, 1340662, 1341283, 1341864, 1342460, 1343065, 1343668, 1344244, 1344790, 1345360, 1345973, 1346571, 1347110, 1347649, 1348232, 1348781, 1349403]",97,EM,U,R,ITMSR,1.1,
5,400,trial,0,67,67,67,trial,"['S', 'S', 'S', 'S', 'S', 'S', 'S', 'S', 'C', 'C', 'C', 'C', 'C', 'C', 'C', 'C', 'C', 'C', 'C', 'C', 'C', 'C', 'C', 'C']","[1355232, 1355580, 1355875, 1356227, 1356607, 1356984, 1357392, 1357803, 1358213, 1358608, 1358998, 1359397, 1359804, 1360199, 1360599, 1360997, 1361410, 1361827, 1362219, 1362608, 1363007, 1363404, 1363815, 1364216]","[1355352, 1355686, 1355972, 1356327, 1356713, 1357091, 1357500, 1357923, 1358324, 1358745, 1359136, 1359526, 1359927, 1360327, 1360730, 1361100, 1361522, 1361940, 1362326, 1362702, 1363109, 1363517, 1363933, 1364337]","[44, 95, 62, 118, 101, 105, 105, 79, 74, 78, 79, 72, 78, 71, 78, 48, 56, 20, 46, 18, 5, 22, 39, 32]","[1355291, 1355583, 1355878, 1356231, 1356611, 1356987, 1357396, 1357862, 1358216, 1358612, 1359001, 1359400, 1359807, 1360202, 1360602, 1361000, 1361413, 1361830, 1362222, 1362611, 1363009, 1363407, 1363818, 1364218]","[1355057, 1355457, 1355857, 1356257, 1356657, 1357058, 1357458, 1357858, 1358233, 1358628, 1359019, 1359417, 1359824, 1360219, 1360619, 1361017, 1361430, 1361847, 1362239, 1362628, 1363027, 1363424, 1363835, 1364236]",97,EM,U,R,ITMSR,1.1,
0,400,trial,0,68,68,68,trial,"['S', 'S', 'S', 'S', 'S', 'S', 'S', 'S', 'C', 'C', 'C', 'C', 'C', 'C', 'C', 'C', 'C', 'C', 'C', 'C', 'C', 'C', 'C', 'C']","[1369817, 1370055, 1370384, 1370777, 1371154, 1371520, 1371915, 1372293, 1372699, 1373065, 1373437, 1373815, 1374208, 1374581, 1374971, 1375357, 1375750, 1376158, 1376549, 1376919, 1377314, 1377668, 1378066, 1378451]","[1369899, 1370159, 1370471, 1370860, 1371226, 1371616, 1372009, 1372385, 1372793, 1373173, 1373543, 1373940, 1374340, 1374710, 1375097, 1375508, 1375884, 1376272, 1376646, 1377018, 1377411, 1377762, 1378177, 1378562]","[210, 75, 135, 112, 115, 101, 101, 114, 69, 45, 66, 47, 46, 70, 16, 55, 80, 104, 75, 29, 43, 69, 20, 21]","[1369861, 1370058, 1370388, 1370780, 1371156, 1371523, 1371919, 1372296, 1372702, 1373069, 1373442, 1373818, 1374211, 1374584, 1374974, 1375361, 1375753, 1376160, 1376551, 1376922, 1377317, 1377671, 1378069, 1378454]","[1369597, 1369996, 1370396, 1370797, 1371197, 1371597, 1371997, 1372397, 1372719, 1373085, 1373457, 1373835, 1374228, 1374601, 1374991, 1375377, 1375770, 1376178, 1376569, 1376940, 1377334, 1377688, 1378086, 1378471]",97,EM,U,R,ITMSR,1.1,
3,600,trial,0,69,69,69,trial,"['S', 'S', 'S', 'S', 'S', 'S', 'S', 'S', 'C', 'C', 'C', 'C', 'C', 'C', 'C', 'C', 'C', 'C', 'C', 'C', 'C', 'C', 'C', 'C']","[1384298, 1384588, 1385180, 1385774, 1386372, 1387001, 1387633, 1388236, 1388843, 1389452, 1390023, 1390583, 1391170, 1391768, 1392338, 1392929, 1393526, 1394081, 1394636, 1395207, 1395806, 1396334, 1396862, 1397436]","[1384409, 1384853, 1385486, 1386071, 1386680, 1387255, 1387868, 1388471, 1389074, 1389643, 1390234, 1390808, 1391392, 1391984, 1392494, 1393117, 1393698, 1394280, 1394832, 1395402, 1395996, 1396544, 1397111, 1397668]","[225, 201, 90, 135, 104, 109, 58, 120, 61, 41, 253, 0, 49, 45, 50, 31, 252, 26, 15, 30, 238, 225, 12, 236]","[1384300, 1384591, 1385183, 1385777, 1386373, 1387003, 1387636, 1388239, 1388846, 1389454, 1390025, 1390585, 1391173, 1391771, 1392342, 1392932, 1393530, 1394084, 1394638, 1395286, 1395809, 1396336, 1396866, 1397517]","[1384112, 1384711, 1385311, 1385911, 1386511, 1387111, 1387711, 1388311, 1388863, 1389472, 1390043, 1390603, 1391191, 1391789, 1392358, 1392949, 1393546, 1394101, 1394656, 1395227, 1395826, 1396354, 1396882, 1397456]",97,EM,U,R,ITMSR,1.1,
4,600,trial,0,70,70,70,trial,"['S', 'S', 'S', 'S', 'S', 'S', 'S', 'S', 'C', 'C', 'C', 'C', 'C', 'C', 'C', 'C', 'C', 'C', 'C', 'C', 'C', 'C', 'C', 'C']","[1403053, 1403432, 1403979, 1404574, 1405214, 1405804, 1406390, 1406969, 1407602, 1408185, 1408697, 1409261, 1409872, 1410422, 1410926, 1411482, 1412014, 1412520, 1413079, 1413603, 1414180, 1414726, 1415265, 1415780]","[1403194, 1403666, 1404249, 1404838, 1405488, 1406081, 1406653, 1407244, 1407908, 1408468, 1408973, 1409512, 1410074, 1410619, 1411123, 1411648, 1412198, 1412759, 1413327, 1413795, 1414372, 1414915, 1415433, 1415960]","[242, 86, 76, 77, 109, 25, 31, 9, 39, 28, 127, 36, 112, 215, 18, 239, 9, 251, 166, 87, 117, 139, 4, 236]","[1403056, 1403435, 1403981, 1404577, 1405360, 1405806, 1406392, 1406972, 1407604, 1408343, 1408699, 1409263, 1409874, 1410528, 1410929, 1411486, 1412094, 1412524, 1413210, 1413606, 1414242, 1414808, 1415267, 1415782]","[1402874, 1403473, 1404073, 1404674, 1405274, 1405874, 1406474, 1407074, 1407622, 1408205, 1408717, 1409282, 1409892, 1410442, 1410946, 1411502, 1412034, 1412540, 1413099, 1413623, 1414200, 1414746, 1415285, 1415800]",97,EM,U,R,ITMSR,1.1,
4,400,trial,0,71,71,71,trial,"['S', 'S', 'S', 'S', 'S', 'S', 'S', 'S', 'C', 'C', 'C', 'C', 'C', 'C', 'C', 'C', 'C', 'C', 'C', 'C', 'C', 'C', 'C', 'C']","[1421436, 1421799, 1422154, 1422437, 1422748, 1423123, 1423515, 1423923, 1424329, 1424729, 1425115, 1425517, 1425906, 1426310, 1426720, 1427096, 1427491, 1427880, 1428247, 1428669, 1429072, 1429452, 1429843, 1430246]","[1421596, 1421945, 1422273, 1422548, 1422857, 1423249, 1423651, 1424077, 1424474, 1424867, 1425264, 1425657, 1426042, 1426437, 1426839, 1427211, 1427605, 1427993, 1428361, 1428787, 1429198, 1429569, 1429971, 1430358]","[39, 31, 83, 111, 142, 129, 111, 84, 83, 77, 80, 82, 67, 45, 45, 58, 64, 66, 55, 52, 15, 22, 49, 42]","[1421440, 1421802, 1422157, 1422440, 1422750, 1423125, 1423517, 1423925, 1424332, 1424732, 1425118, 1425520, 1425908, 1426313, 1426723, 1427099, 1427494, 1427884, 1428251, 1428672, 1429076, 1429456, 1429847, 1430249]","[1421201, 1421601, 1422001, 1422401, 1422801, 1423201, 1423601, 1424002, 1424349, 1424749, 1425135, 1425538, 1425926, 1426330, 1426740, 1427117, 1427511, 1427900, 1428268, 1428689, 1429092, 1429472, 1429863, 1430266]",97,EM,U,R,ITMSR,1.1,
1,600,trial,0,72,72,72,trial,"['S', 'S', 'S', 'S', 'S', 'S', 'S', 'S', 'C', 'C', 'C', 'C', 'C', 'C', 'C', 'C', 'C', 'C', 'C', 'C', 'C', 'C', 'C', 'C', 'C']","[1436104, 1436434, 1436991, 1437600, 1438181, 1438809, 1439416, 1440008, 1440596, 1441140, 1441649, 1442188, 1442700, 1443216, 1443733, 1444234, 1444759, 1445274, 1445782, 1446303, 1446817, 1447362, 1447464, 1447838, 1448371]","[1436198, 1436655, 1437247, 1437870, 1438457, 1439074, 1439674, 1440236, 1440791, 1441384, 1441885, 1442424, 1442941, 1443470, 1443964, 1444458, 1445001, 1445533, 1446019, 1446470, 1447029, 1447383, 1447516, 1448047, 1448512]","[92, 92, 103, 101, 86, 54, 99, 11, 28, 22, 58, 8, 30, 6, 118, 180, 251, 243, 194, 94, 212, 61, 110, 7, 94]","[1436107, 1436437, 1436993, 1437603, 1438184, 1438812, 1439419, 1440011, 1440599, 1441142, 1441757, 1442190, 1442703, 1443218, 1443840, 1444343, 1444761, 1445430, 1445784, 1446304, 1446819, 1447363, 1447473, 1447840, 1448435]","[1435926, 1436526, 1437126, 1437726, 1438326, 1438926, 1439526, 1440126, 1440616, 1441160, 1441669, 1442208, 1442720, 1443236, 1443753, 1444254, 1444780, 1445294, 1445803, 1446323, 1446837, 1447383, 1447858, 1448391]",97,EM,U,R,ITMSR,1.1,
3,400,trial,0,73,73,73,trial,"['S', 'S', 'S', 'S', 'S', 'S', 'S', 'S', 'C', 'C', 'C', 'C', 'C', 'C', 'C', 'C', 'C', 'C', 'C', 'C', 'C', 'C', 'C', 'C']","[1454267, 1454604, 1454910, 1455272, 1455659, 1456068, 1456481, 1456871, 1457246, 1457656, 1458057, 1458458, 1458874, 1459260, 1459700, 1460078, 1460485, 1460882, 1461304, 1461686, 1462071, 1462486, 1462854, 1463312]","[1454377, 1454716, 1455032, 1455420, 1455825, 1456223, 1456615, 1457031, 1457431, 1457822, 1458245, 1458614, 1459023, 1459388, 1459820, 1460229, 1460640, 1461025, 1461434, 1461805, 1462226, 1462650, 1463021, 1463431]","[81, 79, 84, 131, 117, 107, 94, 108, 101, 104, 101, 106, 111, 83, 60, 96, 85, 72, 75, 63, 71, 67, 60, 46]","[1454270, 1454607, 1454914, 1455276, 1455662, 1456072, 1456483, 1456874, 1457315, 1457660, 1458060, 1458462, 1458876, 1459263, 1459703, 1460081, 1460488, 1460885, 1461307, 1461689, 1462074, 1462489, 1462857, 1463315]","[1454090, 1454490, 1454891, 1455290, 1455690, 1456090, 1456490, 1456890, 1457266, 1457676, 1458077, 1458478, 1458894, 1459280, 1459720, 1460098, 1460505, 1460902, 1461324, 1461706, 1462091, 1462506, 1462874, 1463332]",97,EM,U,R,ITMSR,1.1,
4,600,trial,0,74,74,74,trial,"['S', 'S', 'S', 'S', 'S', 'S', 'S', 'S', 'C', 'C', 'C', 'C', 'C', 'C', 'C', 'C', 'C', 'C', 'C', 'C', 'C', 'C', 'C', 'C', 'C']","[1468831, 1469250, 1469813, 1470458, 1471077, 1471659, 1472216, 1472813, 1473400, 1473997, 1474546, 1475139, 1475772, 1476292, 1476815, 1477365, 1477465, 1477885, 1478406, 1478888, 1479414, 1479911, 1480845, 1481269, 1481778]","[1468940, 1469493, 1470117, 1470755, 1471340, 1471919, 1472497, 1473064, 1473636, 1474177, 1474783, 1475329, 1475918, 1476478, 1477019, 1477385, 1477513, 1478076, 1478592, 1479107, 1479632, 1480108, 1480986, 1481501, 1481967]","[66, 108, 132, 87, 137, 237, 78, 82, 67, 85, 230, 254, 132, 228, 27, 70, 185, 207, 237, 11, 46, 212, 37, 25, 56]","[1468833, 1469252, 1469815, 1470458, 1471080, 1471660, 1472318, 1472816, 1473402, 1473998, 1474677, 1475141, 1475846, 1476294, 1476816, 1477366, 1477465, 1477976, 1478509, 1478968, 1479416, 1479913, 1480903, 1481353, 1481782]","[1468658, 1469258, 1469858, 1470458, 1471058, 1471659, 1472258, 1472858, 1473420, 1474017, 1474566, 1475160, 1475792, 1476312, 1476835, 1477385, 1477905, 1478426, 1478908, 1479434, 1479931, 1480865, 1481289, 1481798]",97,EM,U,R,ITMSR,1.1,
2,400,trial,0,75,75,75,trial,"['S', 'S', 'S', 'S', 'S', 'S', 'S', 'S', 'C', 'C', 'C', 'C', 'C', 'C', 'C', 'C', 'C', 'C', 'C', 'C', 'C', 'C', 'C', 'C']","[1487435, 1487810, 1488155, 1488551, 1488912, 1489292, 1489699, 1490083, 1490464, 1490860, 1491258, 1491662, 1492056, 1492464, 1492868, 1493273, 1493695, 1494102, 1494472, 1494893, 1495264, 1495699, 1496105, 1496513]","[1487564, 1487951, 1488323, 1488711, 1489063, 1489451, 1489850, 1490242, 1490619, 1491022, 1491434, 1491840, 1492225, 1492622, 1493032, 1493430, 1493836, 1494245, 1494650, 1495060, 1495404, 1495841, 1496226, 1496635]","[11, 91, 49, 47, 57, 60, 30, 46, 36, 19, 35, 30, 32, 45, 5, 31, 44, 43, 38, 52, 30, 49, 35, 44]","[1487501, 1487813, 1488222, 1488555, 1488916, 1489296, 1489703, 1490087, 1490467, 1490863, 1491350, 1491666, 1492123, 1492467, 1492872, 1493275, 1493698, 1494106, 1494543, 1494897, 1495267, 1495703, 1496108, 1496516]","[1487280, 1487679, 1488079, 1488479, 1488879, 1489280, 1489679, 1490079, 1490484, 1490880, 1491278, 1491682, 1492076, 1492484, 1492888, 1493293, 1493715, 1494122, 1494492, 1494914, 1495284, 1495719, 1496125, 1496534]",97,EM,U,R,ITMSR,1.1,
0,600,trial,0,76,76,76,trial,"['S', 'S', 'S', 'S', 'S', 'S', 'S', 'S', 'C', 'C', 'C', 'C', 'C', 'C', 'C', 'C', 'C', 'C', 'C', 'C', 'C', 'C', 'C', 'C']","[1502233, 1502533, 1503080, 1503726, 1504312, 1504905, 1505481, 1506067, 1506703, 1507269, 1507809, 1508364, 1508901, 1509463, 1509985, 1510519, 1511094, 1511622, 1512122, 1512627, 1513100, 1513605, 1514060, 1514556]","[1502360, 1502803, 1503388, 1504033, 1504615, 1505184, 1505774, 1506353, 1507015, 1507550, 1508085, 1508639, 1509167, 1509719, 1510260, 1510758, 1511286, 1511871, 1512372, 1512779, 1513350, 1513802, 1514297, 1514780]","[228, 42, 83, 88, 94, 65, 112, 170, 150, 122, 93, 67, 111, 102, 126, 121, 143, 114, 124, 88, 99, 27, 65, 84]","[1502237, 1502601, 1503083, 1503729, 1504314, 1504907, 1505483, 1506068, 1506705, 1507271, 1507811, 1508366, 1508904, 1509465, 1509987, 1510521, 1511096, 1511624, 1512124, 1512629, 1513103, 1513608, 1514063, 1514559]","[1501995, 1502594, 1503194, 1503794, 1504394, 1504994, 1505594, 1506194, 1506723, 1507289, 1507829, 1508384, 1508921, 1509483, 1510005, 1510539, 1511114, 1511642, 1512142, 1512647, 1513120, 1513625, 1514080, 1514576]",97,EM,U,R,ITMSR,1.1,
3,600,trial,0,77,77,77,trial,"['S', 'S', 'S', 'S', 'S', 'S', 'S', 'S', 'C', 'C', 'C', 'C', 'C', 'C', 'C', 'C', 'C', 'C', 'C', 'C', 'C', 'C', 'C', 'C']","[1520258, 1520634, 1521166, 1521743, 1522377, 1522950, 1523565, 1524198, 1524832, 1525423, 1526007, 1526604, 1527184, 1527747, 1528311, 1528897, 1529541, 1530083, 1530638, 1531283, 1531819, 1532378, 1532908, 1533467]","[1520405, 1520874, 1521451, 1522049, 1522656, 1523210, 1523837, 1524456, 1525049, 1525678, 1526245, 1526834, 1527414, 1528005, 1528568, 1529123, 1529754, 1530339, 1530902, 1531457, 1532005, 1532642, 1533194, 1533704]","[32, 54, 54, 77, 45, 53, 50, 65, 50, 63, 67, 58, 68, 105, 28, 46, 52, 34, 47, 237, 12, 12, 2, 210]","[1520262, 1520739, 1521168, 1521746, 1522380, 1523104, 1523568, 1524201, 1524835, 1525426, 1526011, 1526607, 1527187, 1527750, 1528313, 1528900, 1529543, 1530086, 1530640, 1531285, 1531821, 1532380, 1533023, 1533470]","[1520045, 1520645, 1521245, 1521845, 1522445, 1523045, 1523645, 1524245, 1524852, 1525443, 1526027, 1526624, 1527204, 1527768, 1528331, 1528918, 1529561, 1530103, 1530658, 1531303, 1531839, 1532398, 1532929, 1533487]",97,EM,U,R,ITMSR,1.1,
3,400,trial,0,78,78,78,trial,"['S', 'S', 'S', 'S', 'S', 'S', 'S', 'C', 'C', 'C', 'C', 'C', 'C', 'C', 'C', 'C', 'C', 'C', 'C', 'C', 'C', 'C', 'C']","[1556851, 1557164, 1557522, 1557910, 1558300, 1558735, 1559135, 1559531, 1559896, 1560276, 1560670, 1561052, 1561437, 1561826, 1562214, 1562586, 1562976, 1563364, 1563747, 1564149, 1564511, 1564919, 1565278]","[1556984, 1557275, 1557656, 1558035, 1558468, 1558896, 1559304, 1559652, 1560022, 1560419, 1560819, 1561205, 1561597, 1561948, 1562355, 1562720, 1563084, 1563466, 1563843, 1564240, 1564604, 1565000, 1565361]","[198, 101, 147, 133, 142, 145, 138, 141, 68, 107, 110, 110, 140, 136, 158, 128, 108, 89, 115, 72, 121, 45, 246]","[1556929, 1557167, 1557522, 1557912, 1558302, 1558737, 1559137, 1559533, 1559899, 1560279, 1560674, 1561055, 1561440, 1561828, 1562216, 1562588, 1562979, 1563368, 1563750, 1564152, 1564514, 1564922, 1565282]","[1556468, 1556868, 1557268, 1557668, 1558068, 1558468, 1558868, 1559268, 1559552, 1559916, 1560296, 1560690, 1561072, 1561457, 1561846, 1562234, 1562606, 1562996, 1563384, 1563767, 1564169, 1564531, 1564939, 1565298]",97,EM,U,R,ITMSR,1.1,
0,600,trial,0,79,79,79,trial,"['S', 'S', 'S', 'S', 'S', 'S', 'S', 'S', 'C', 'C', 'C', 'C', 'C', 'C', 'C', 'C', 'C', 'C', 'C', 'C', 'C', 'C', 'C', 'C']","[1570870, 1571255, 1571793, 1572374, 1572992, 1573584, 1574136, 1574773, 1575319, 1575863, 1576395, 1576970, 1577481, 1578013, 1578520, 1579060, 1579561, 1580088, 1580579, 1581148, 1581641, 1582157, 1582618, 1583083]","[1570985, 1571512, 1572070, 1572646, 1573236, 1573824, 1574437, 1575027, 1575569, 1576107, 1576641, 1577167, 1577711, 1578224, 1578747, 1579259, 1579749, 1580327, 1580827, 1581337, 1581843, 1582361, 1582868, 1583343]","[77, 119, 111, 106, 68, 6, 63, 72, 88, 4, 83, 234, 62, 59, 97, 75, 56, 38, 59, 43, 43, 28, 22, 243]","[1570871, 1571258, 1571798, 1572375, 1572994, 1573702, 1574138, 1574776, 1575322, 1575972, 1576396, 1577073, 1577483, 1578116, 1578660, 1579170, 1579667, 1580171, 1580725, 1581246, 1581724, 1582254, 1582738, 1583174]","[1570695, 1571295, 1571895, 1572495, 1573095, 1573695, 1574295, 1574895, 1575340, 1575883, 1576415, 1576990, 1577501, 1578033, 1578541, 1579080, 1579581, 1580108, 1580599, 1581168, 1581661, 1582177, 1582638, 1583104]",97,EM,U,R,ITMSR,1.1,
5,400,trial,0,80,80,80,trial,"['S', 'S', 'S', 'S', 'S', 'S', 'S', 'C', 'C', 'C', 'C', 'C', 'C', 'C', 'C', 'C', 'C', 'C', 'C', 'C', 'C', 'C', 'C']","[1588747, 1589037, 1589518, 1589949, 1590373, 1590800, 1591207, 1591606, 1591989, 1592381, 1592779, 1593163, 1593537, 1593926, 1594301, 1594685, 1595065, 1595430, 1595812, 1596190, 1596573, 1596938, 1597310]","[1588823, 1589120, 1589596, 1590030, 1590463, 1590891, 1591291, 1591684, 1592075, 1592467, 1592863, 1593247, 1593626, 1594019, 1594389, 1594768, 1595153, 1595525, 1595896, 1596268, 1596650, 1597015, 1597394]","[50, 111, 78, 99, 118, 120, 94, 44, 50, 28, 58, 20, 39, 41, 59, 254, 13, 38, 29, 19, 208, 190, 226]","[1588752, 1589041, 1589522, 1589953, 1590377, 1590804, 1591212, 1591610, 1591993, 1592386, 1592784, 1593167, 1593541, 1593931, 1594305, 1594690, 1595070, 1595437, 1595817, 1596194, 1596578, 1596973, 1597316]","[1588478, 1588878, 1589278, 1589678, 1590078, 1590478, 1590878, 1591278, 1591626, 1592009, 1592401, 1592799, 1593183, 1593558, 1593946, 1594321, 1594705, 1595085, 1595450, 1595832, 1596210, 1596593, 1596958, 1597330]",97,EM,U,R,ITMSR,1.1,
1,600,trial,0,81,81,81,trial,"['S', 'S', 'S', 'S', 'S', 'S', 'S', 'S', 'C', 'C', 'C', 'C', 'C', 'C', 'C', 'C', 'C', 'C', 'C', 'C', 'C', 'C', 'C', 'C']","[1602828, 1603148, 1603698, 1604334, 1604910, 1605512, 1606122, 1606723, 1607279, 1607861, 1608411, 1608970, 1609513, 1610068, 1610594, 1611136, 1611663, 1612195, 1612730, 1613245, 1613763, 1614286, 1614828, 1615341]","[1602910, 1603230, 1603779, 1604411, 1604981, 1605598, 1606201, 1606786, 1607361, 1607947, 1608504, 1609043, 1609609, 1610153, 1610675, 1611238, 1611748, 1612275, 1612817, 1613340, 1613872, 1614386, 1614909, 1615440]","[4, 61, 251, 81, 80, 70, 61, 8, 17, 61, 92, 22, 54, 17, 11, 245, 224, 207, 3, 27, 240, 244, 5, 24]","[1602830, 1603151, 1603733, 1604338, 1604914, 1605516, 1606126, 1606729, 1607308, 1607865, 1608416, 1609000, 1609552, 1610101, 1610598, 1611174, 1611691, 1612199, 1612755, 1613275, 1613766, 1614318, 1614831, 1615370]","[1602639, 1603239, 1603840, 1604440, 1605040, 1605640, 1606240, 1606840, 1607299, 1607881, 1608431, 1608990, 1609533, 1610088, 1610614, 1611156, 1611683, 1612215, 1612750, 1613265, 1613784, 1614306, 1614849, 1615362]",97,EM,U,R,ITMSR,1.1,
3,600,trial,0,82,82,82,trial,"['S', 'S', 'S', 'S', 'S', 'S', 'S', 'S', 'C', 'C', 'C', 'C', 'C', 'C', 'C', 'C', 'C', 'C', 'C', 'C', 'C', 'C', 'C', 'C']","[1621233, 1621682, 1622234, 1622838, 1623433, 1624025, 1624594, 1625192, 1625760, 1626327, 1626873, 1627458, 1628017, 1628569, 1629064, 1629621, 1630154, 1630729, 1631259, 1631818, 1632343, 1632893, 1633425, 1633960]","[1621338, 1621816, 1622351, 1622931, 1623504, 1624093, 1624673, 1625259, 1625828, 1626383, 1626938, 1627518, 1628084, 1628632, 1629140, 1629688, 1630227, 1630799, 1631333, 1631892, 1632430, 1632985, 1633513, 1634053]","[35, 69, 48, 92, 79, 59, 97, 34, 67, 247, 27, 51, 57, 45, 87, 72, 100, 91, 67, 68, 74, 129, 99, 53]","[1621268, 1621721, 1622269, 1622840, 1623437, 1624028, 1624597, 1625197, 1625786, 1626332, 1626902, 1627485, 1628044, 1628573, 1629092, 1629644, 1630180, 1630755, 1631287, 1631845, 1632378, 1632928, 1633460, 1633995]","[1621046, 1621646, 1622246, 1622846, 1623446, 1624046, 1624646, 1625246, 1625780, 1626347, 1626893, 1627479, 1628037, 1628589, 1629084, 1629641, 1630174, 1630749, 1631279, 1631838, 1632363, 1632913, 1633445, 1633980]",97,EM,U,R,ITMSR,1.1,
2,600,trial,0,83,83,83,trial,"['S', 'S', 'S', 'S', 'S', 'S', 'S', 'S', 'C', 'C', 'C', 'C', 'C', 'C', 'C', 'C', 'C', 'C', 'C', 'C', 'C', 'C', 'C', 'C']","[1639953, 1640374, 1640867, 1641449, 1642029, 1642601, 1643191, 1643799, 1644410, 1644951, 1645491, 1646024, 1646525, 1647071, 1647631, 1648183, 1648711, 1649246, 1649763, 1650300, 1650794, 1651316, 1651807, 1652337]","[1640051, 1640470, 1640966, 1641528, 1642110, 1642687, 1643274, 1643895, 1644493, 1645044, 1645598, 1646120, 1646645, 1647208, 1647744, 1648286, 1648845, 1649377, 1649884, 1650408, 1650908, 1651411, 1651907, 1652432]","[118, 145, 140, 139, 121, 107, 87, 64, 60, 67, 133, 112, 112, 106, 100, 74, 130, 125, 115, 91, 89, 67, 6, 44]","[1639958, 1640378, 1640871, 1641478, 1642062, 1642637, 1643222, 1643835, 1644443, 1644988, 1645523, 1646056, 1646559, 1647112, 1647671, 1648218, 1648748, 1649276, 1649793, 1650329, 1650824, 1651348, 1651836, 1652369]","[1639742, 1640341, 1640941, 1641541, 1642141, 1642741, 1643341, 1643941, 1644430, 1644972, 1645511, 1646044, 1646545, 1647091, 1647651, 1648203, 1648731, 1649266, 1649783, 1650320, 1650814, 1651336, 1651827, 1652357]",97,EM,U,R,ITMSR,1.1,
4,400,trial,0,84,84,84,trial,"['S', 'S', 'S', 'S', 'S', 'S', 'S', 'S', 'C', 'C', 'C', 'C', 'C', 'C', 'C', 'C', 'C', 'C', 'C', 'C', 'C', 'C', 'C', 'C']","[1658062, 1658449, 1658732, 1659084, 1659469, 1659850, 1660230, 1660608, 1661023, 1661420, 1661808, 1662195, 1662567, 1662955, 1663345, 1663751, 1664134, 1664537, 1664930, 1665327, 1665725, 1666124, 1666536, 1666942]","[1658150, 1658543, 1658828, 1659174, 1659560, 1659936, 1660320, 1660699, 1661105, 1661511, 1661896, 1662287, 1662672, 1663059, 1663441, 1663833, 1664225, 1664619, 1665015, 1665408, 1665816, 1666205, 1666616, 1667026]","[68, 116, 129, 148, 162, 177, 175, 148, 178, 171, 165, 170, 151, 183, 151, 157, 151, 151, 158, 124, 174, 178, 162, 158]","[1658098, 1658479, 1658767, 1659112, 1659469, 1659852, 1660232, 1660610, 1661025, 1661422, 1661809, 1662197, 1662568, 1662957, 1663347, 1663753, 1664136, 1664539, 1664932, 1665330, 1665726, 1666125, 1666538, 1666945]","[1657868, 1658268, 1658669, 1659069, 1659469, 1659869, 1660269, 1660669, 1661043, 1661441, 1661828, 1662215, 1662587, 1662976, 1663365, 1663771, 1664154, 1664557, 1664950, 1665347, 1665745, 1666144, 1666556, 1666962]",97,EM,U,R,ITMSR,1.1,
0,400,trial,0,85,85,85,trial,"['S', 'S', 'S', 'S', 'S', 'S', 'S', 'S', 'C', 'C', 'C', 'C', 'C', 'C', 'C', 'C', 'C', 'C', 'C', 'C', 'C', 'C', 'C', 'C']","[1672808, 1673119, 1673426, 1673798, 1674162, 1674562, 1674951, 1675320, 1675709, 1676073, 1676464, 1676865, 1677257, 1677655, 1678048, 1678437, 1678829, 1679223, 1679610, 1680003, 1680386, 1680755, 1681125, 1681519]","[1672919, 1673217, 1673515, 1673878, 1674257, 1674644, 1675036, 1675407, 1675801, 1676176, 1676561, 1676962, 1677370, 1677747, 1678159, 1678542, 1678936, 1679331, 1679712, 1680090, 1680490, 1680864, 1681223, 1681639]","[115, 139, 146, 172, 155, 172, 174, 161, 139, 134, 131, 143, 139, 137, 123, 133, 105, 126, 130, 129, 87, 106, 125, 132]","[1672854, 1673157, 1673430, 1673800, 1674164, 1674565, 1674953, 1675322, 1675712, 1676077, 1676500, 1676867, 1677292, 1677658, 1678084, 1678439, 1678868, 1679255, 1679639, 1680006, 1680414, 1680794, 1681159, 1681556]","[1672624, 1673024, 1673424, 1673824, 1674224, 1674625, 1675024, 1675424, 1675729, 1676093, 1676484, 1676886, 1677277, 1677675, 1678068, 1678457, 1678850, 1679243, 1679630, 1680023, 1680406, 1680775, 1681145, 1681539]",97,EM,U,R,ITMSR,1.1,
3,600,trial,0,86,86,86,trial,"['S', 'S', 'S', 'S', 'S', 'S', 'S', 'S', 'C', 'C', 'C', 'C', 'C', 'C', 'C', 'C', 'C', 'C', 'C', 'C', 'C', 'C', 'C', 'C']","[1687366, 1687685, 1688232, 1688852, 1689465, 1690054, 1690639, 1691252, 1691845, 1692430, 1692994, 1693561, 1694098, 1694653, 1695185, 1695719, 1696284, 1696857, 1697374, 1697903, 1698444, 1698995, 1699509, 1700041]","[1687443, 1687762, 1688320, 1688941, 1689551, 1690142, 1690725, 1691346, 1691933, 1692523, 1693096, 1693660, 1694194, 1694759, 1695300, 1695836, 1696411, 1696997, 1697528, 1698067, 1698607, 1699175, 1699701, 1700251]","[56, 157, 124, 133, 131, 86, 93, 102, 67, 84, 79, 45, 66, 76, 90, 37, 79, 87, 60, 80, 67, 92, 102, 98]","[1687372, 1687688, 1688263, 1688885, 1689467, 1690084, 1690672, 1691283, 1691878, 1692465, 1693028, 1693590, 1694131, 1694684, 1695215, 1695754, 1696313, 1696886, 1697403, 1697935, 1698467, 1699024, 1699550, 1700081]","[1687189, 1687788, 1688388, 1688988, 1689588, 1690188, 1690788, 1691388, 1691865, 1692450, 1693015, 1693581, 1694118, 1694673, 1695205, 1695739, 1696304, 1696877, 1697394, 1697923, 1698464, 1699015, 1699529, 1700061]",97,EM,U,R,ITMSR,1.1,
