pitch,ioi,event,.thisRepN,.thisTrialN,.thisN,.thisIndex,event,tap_types,tap_times,release_times,peak_pressures,peak_times,tone_times,subject,experimenter,register,handedness,experiment,version,
,,SPR,0,-1,-1,0,SPR,"['P', 'P', 'P', 'P', 'P', 'P', 'P', 'P', 'P', 'P', 'P', 'P', 'P', 'P', 'P', 'P', 'P', 'P', 'P', 'P', 'P', 'P', 'P', 'P', 'P', 'P', 'P', 'P', 'P', 'P']","[13137, 13361, 13579, 13794, 14021, 14240, 14449, 14678, 14894, 15123, 15320, 15537, 15729, 15943, 16148, 16363, 16585, 16801, 17004, 17205, 17405, 17613, 17810, 18007, 18204, 18411, 18597, 18786, 18965, 19165]","[13240, 13458, 13673, 13888, 14100, 14330, 14539, 14783, 15002, 15221, 15428, 15636, 15824, 16039, 16235, 16459, 16674, 16897, 17100, 17298, 17491, 17691, 17882, 18083, 18275, 18490, 18678, 18855, 19052, 19247]","[35, 33, 231, 241, 178, 209, 187, 233, 26, 213, 10, 243, 7, 0, 186, 225, 201, 214, 254, 242, 229, 184, 141, 223, 150, 169, 131, 126, 238, 246]","[13192, 13396, 13616, 13832, 14056, 14245, 14487, 14733, 14943, 15161, 15374, 15580, 15776, 15985, 16185, 16399, 16621, 16839, 17041, 17244, 17439, 17651, 17840, 18011, 18210, 18448, 18633, 18821, 19003, 19201]",,81,EM,U,R,ITMSR,1.1,
1,500,practice,0,0,0,0,practice,"['B', 'S', 'S', 'S', 'S', 'S', 'S', 'S', 'C', 'C', 'C', 'C', 'C', 'C', 'C', 'C', 'C', 'C', 'C', 'C', 'C', 'C', 'C', 'C']","[91042, 91211, 91862, 92431, 92951, 93478, 94011, 94488, 94967, 95446, 95994, 96503, 97037, 97556, 98101, 98583, 99088, 99609, 100098, 100581, 101079, 101555, 102075, 102555]","[91074, 91333, 92012, 92560, 93102, 93639, 94161, 94657, 95129, 95607, 96146, 96680, 97198, 97679, 98230, 98726, 99243, 99787, 100258, 100747, 101285, 101788, 102275, 102778]","[181, 243, 191, 16, 31, 104, 55, 69, 94, 43, 83, 91, 92, 68, 56, 32, 63, 97, 74, 56, 63, 64, 60, 59]","[91042, 91252, 91923, 92508, 93031, 93555, 94095, 94569, 95060, 95538, 96086, 96596, 97128, 97619, 98174, 98655, 99180, 99696, 100178, 100684, 101177, 101653, 102169, 102558]","[91054, 91554, 92054, 92554, 93054, 93554, 94054, 94554, 94987, 95466, 96014, 96523, 97057, 97576, 98121, 98604, 99108, 99629, 100118, 100601, 101099, 101575, 102095, 102575]",81,EM,U,R,ITMSR,1.1,
4,500,practice,0,1,1,1,practice,"['S', 'S', 'S', 'S', 'S', 'S', 'S', 'C', 'C', 'C', 'C', 'C', 'C', 'C', 'C', 'C', 'C', 'C', 'C', 'C', 'C', 'C', 'C']","[108242, 108826, 109351, 109870, 110393, 110883, 111410, 111942, 112420, 112995, 113504, 114020, 114504, 115018, 115544, 116013, 116526, 117065, 117572, 118099, 118542, 119183, 119750]","[108401, 108975, 109508, 110025, 110543, 111030, 111529, 112070, 112591, 113121, 113657, 114153, 114656, 115154, 115673, 116162, 116681, 117216, 117718, 118248, 118721, 119356, 119890]","[149, 122, 137, 113, 103, 97, 61, 93, 95, 104, 93, 92, 104, 73, 74, 66, 100, 70, 72, 99, 123, 108, 61]","[108335, 108896, 109440, 109944, 110459, 110956, 111467, 112002, 112503, 113056, 113577, 114083, 114580, 115082, 115606, 116089, 116608, 117140, 117640, 118179, 118635, 119269, 119821]","[107908, 108408, 108908, 109408, 109908, 110408, 110908, 111408, 111962, 112440, 113015, 113524, 114040, 114524, 115038, 115564, 116033, 116546, 117085, 117592, 118119, 118562, 119203, 119770]",81,EM,U,R,ITMSR,1.1,
2,500,practice,0,2,2,2,practice,"['S', 'S', 'S', 'S', 'S', 'S', 'S', 'C', 'C', 'C', 'C', 'C', 'C', 'C', 'C', 'C', 'C', 'C', 'C', 'C', 'C', 'C', 'C']","[125744, 126282, 126815, 127352, 127836, 128400, 128867, 129428, 129910, 130410, 130920, 131459, 131977, 132490, 132988, 133477, 134018, 134550, 135060, 135596, 136082, 136631, 137179]","[125850, 126411, 126947, 127458, 127978, 128523, 129030, 129550, 130061, 130563, 131074, 131579, 132118, 132644, 133160, 133707, 134207, 134787, 135284, 135815, 136347, 136912, 137381]","[124, 118, 133, 61, 97, 88, 151, 99, 109, 104, 117, 93, 107, 102, 122, 104, 110, 121, 126, 127, 124, 119, 119]","[125793, 126350, 126883, 127400, 127903, 128466, 128950, 129485, 129984, 130484, 131000, 131515, 132042, 132557, 133080, 133572, 134097, 134638, 135182, 135683, 136214, 136811, 137278]","[125383, 125882, 126382, 126882, 127382, 127882, 128382, 128882, 129448, 129930, 130430, 130940, 131479, 131997, 132510, 133008, 133497, 134038, 134571, 135080, 135616, 136102, 136651, 137199]",81,EM,U,R,ITMSR,1.1,
0,500,practice,0,3,3,3,practice,"['S', 'S', 'S', 'S', 'S', 'S', 'S', 'S', 'C', 'C', 'C', 'C', 'C', 'C', 'C', 'C', 'C', 'C', 'C', 'C', 'C', 'C', 'C', 'C']","[143078, 143528, 143939, 144420, 144915, 145426, 145896, 146378, 146856, 147456, 148015, 148534, 149071, 149571, 150135, 150660, 151183, 151739, 152289, 152868, 153443, 153988, 154555, 155090]","[143197, 143671, 144090, 144541, 145037, 145583, 146078, 146553, 147075, 147631, 148187, 148721, 149312, 149877, 150394, 150938, 151529, 152104, 152647, 153203, 153802, 154347, 154880]","[127, 172, 145, 89, 71, 92, 133, 133, 159, 154, 141, 150, 142, 146, 151, 114, 112, 137, 154, 126, 82, 116, 128]","[143138, 143596, 144028, 144477, 144979, 145504, 145981, 146465, 146960, 147535, 148096, 148615, 149189, 149719, 150246, 150834, 151333, 151960, 152499, 153007, 153569, 154161, 154733]","[142926, 143426, 143926, 144427, 144926, 145426, 145926, 146426, 146876, 147476, 148035, 148554, 149091, 149592, 150155, 150680, 151203, 151759, 152309, 152888, 153463, 154008, 154575, 155110]",81,EM,U,R,ITMSR,1.1,
3,500,practice,0,4,4,4,practice,"['S', 'S', 'S', 'S', 'S', 'S', 'S', 'S', 'C', 'C', 'C', 'C', 'C', 'C', 'C', 'C', 'C', 'C', 'C', 'C', 'C', 'C', 'C', 'C']","[160576, 161035, 161451, 161909, 162417, 162934, 163433, 163935, 164438, 164962, 165476, 166008, 166520, 167023, 167552, 168061, 168582, 169098, 169645, 170188, 170713, 171225, 171730, 172240]","[160740, 161185, 161610, 162096, 162669, 163207, 163719, 164236, 164739, 165268, 165809, 166335, 166853, 167358, 167866, 168414, 168915, 169456, 169878, 170506, 170946, 171478, 172022]","[162, 170, 150, 172, 175, 189, 194, 187, 189, 132, 148, 125, 133, 122, 95, 93, 67, 28, 153, 207, 175, 246, 162]","[160648, 161100, 161519, 161999, 162531, 163024, 163536, 164055, 164608, 165085, 165638, 166182, 166654, 167152, 167703, 168201, 168696, 169182, 169755, 170284, 170835, 171317, 171731]","[160424, 160924, 161424, 161924, 162424, 162924, 163424, 163924, 164458, 164982, 165496, 166028, 166540, 167043, 167572, 168081, 168602, 169118, 169665, 170208, 170733, 171245, 171750, 172260]",81,EM,U,R,ITMSR,1.1,
5,500,practice,0,5,5,5,practice,"['S', 'S', 'S', 'S', 'S', 'S', 'S', 'C', 'C', 'C', 'C', 'C', 'C', 'C', 'C', 'C', 'C', 'C', 'C', 'C', 'C', 'C', 'C']","[178316, 178847, 179333, 179834, 180369, 180886, 181377, 181955, 182445, 182961, 183448, 183969, 184474, 184983, 185512, 186029, 186517, 187061, 187552, 188059, 188590, 189083, 189554]","[178465, 179080, 179587, 180081, 180657, 181199, 181729, 182236, 182757, 183277, 183753, 184268, 184761, 185333, 185798, 186270, 186803, 187303, 187833, 188346, 188833, 189319, 189813]","[47, 125, 143, 121, 153, 127, 161, 168, 141, 125, 101, 86, 38, 242, 4, 174, 223, 234, 215, 148, 220, 201, 167]","[178382, 178937, 179417, 179938, 180464, 180987, 181497, 182038, 182555, 183113, 183602, 184083, 184626, 185123, 185680, 186121, 186632, 187187, 187692, 188145, 188700, 189167, 189652]","[177899, 178399, 178899, 179399, 179899, 180399, 180899, 181399, 181976, 182465, 182981, 183469, 183989, 184494, 185004, 185532, 186049, 186537, 187081, 187572, 188079, 188610, 189103, 189574]",81,EM,U,R,ITMSR,1.1,
5,600,trial,0,6,6,6,trial,"['S', 'S', 'S', 'S', 'S', 'S', 'S', 'C', 'C', 'C', 'C', 'C', 'C', 'C', 'C', 'C', 'C', 'C', 'C', 'C', 'C', 'C', 'C']","[263641, 264263, 264878, 265457, 266029, 266653, 267295, 267987, 268560, 269157, 269721, 270273, 270891, 271515, 272119, 272734, 273282, 273922, 274453, 275127, 275679, 276251, 276816]","[263785, 264418, 265023, 265617, 266188, 266807, 267448, 268089, 268728, 269301, 269876, 270457, 271068, 271671, 272274, 272879, 273474, 274110, 274662, 275346, 275940, 276500, 277076]","[162, 175, 167, 155, 161, 165, 161, 121, 153, 139, 146, 144, 156, 137, 130, 145, 141, 173, 168, 162, 156, 141, 138]","[263706, 264339, 264941, 265538, 266107, 266735, 267372, 268037, 268653, 269239, 269803, 270360, 270973, 271590, 272194, 272798, 273376, 274027, 274547, 275219, 275785, 276377, 276915]","[263281, 263880, 264480, 265080, 265680, 266280, 266881, 267480, 268007, 268580, 269177, 269741, 270294, 270911, 271535, 272139, 272754, 273302, 273942, 274473, 275147, 275699, 276271, 276836]",81,EM,U,R,ITMSR,1.1,
0,400,trial,0,7,7,7,trial,"['S', 'S', 'S', 'S', 'S', 'S', 'S', 'C', 'C', 'C', 'C', 'C', 'C', 'C', 'C', 'C', 'C', 'C', 'C', 'C', 'C', 'C', 'C']","[282700, 283070, 283494, 283811, 284187, 284590, 285017, 285393, 285773, 286199, 286580, 286999, 287423, 287806, 288231, 288592, 289080, 289478, 289938, 290300, 290782, 291238, 291666]","[282856, 283175, 283597, 283930, 284317, 284700, 285126, 285537, 285959, 286351, 286748, 287183, 287584, 287973, 288374, 288785, 289218, 289611, 290053, 290445, 290942, 291391, 291850]","[138, 89, 117, 133, 139, 115, 139, 138, 131, 119, 124, 123, 127, 122, 119, 128, 122, 115, 118, 103, 124, 123, 143]","[282784, 283125, 283549, 283873, 284256, 284638, 285065, 285465, 285865, 286282, 286666, 287090, 287500, 287897, 288300, 288685, 289161, 289552, 289991, 290383, 290855, 291318, 291752]","[282218, 282617, 283017, 283417, 283817, 284217, 284617, 285017, 285413, 285793, 286219, 286600, 287020, 287443, 287826, 288251, 288612, 289100, 289498, 289958, 290320, 290802, 291258, 291686]",81,EM,U,R,ITMSR,1.1,
3,600,trial,0,8,8,8,trial,"['S', 'S', 'S', 'S', 'S', 'S', 'S', 'S', 'C', 'C', 'C', 'C', 'C', 'C', 'C', 'C', 'C', 'C', 'C', 'C', 'C', 'C', 'C', 'C']","[297878, 298319, 298791, 299235, 299742, 300316, 300987, 301562, 302159, 302721, 303324, 303882, 304457, 305062, 305640, 306251, 306849, 307451, 308051, 308680, 309315, 309987, 310526, 311150]","[297922, 298452, 298926, 299389, 299863, 300462, 301109, 301719, 302311, 302879, 303477, 304024, 304599, 305207, 305781, 306404, 306967, 307565, 308145, 308820, 309500, 310148, 310684, 311362]","[226, 91, 143, 147, 127, 137, 147, 143, 70, 38, 78, 54, 197, 210, 98, 115, 209, 121, 13, 147, 107, 89, 113, 159]","[297883, 298403, 298869, 299321, 299811, 300397, 301038, 301636, 302241, 302795, 303397, 303958, 304530, 305069, 305722, 306254, 306853, 307454, 308055, 308684, 309321, 309990, 310530, 311154]","[297462, 298061, 298661, 299261, 299862, 300461, 301061, 301661, 302179, 302741, 303344, 303902, 304477, 305082, 305660, 306271, 306869, 307471, 308071, 308700, 309336, 310007, 310546, 311170]",81,EM,U,R,ITMSR,1.1,
5,600,trial,0,9,9,9,trial,"['S', 'S', 'S', 'S', 'S', 'S', 'S', 'C', 'C', 'C', 'C', 'C', 'C', 'C', 'C', 'C', 'C', 'C', 'C', 'C', 'C', 'C', 'C', 'C', 'C']","[317214, 317704, 318320, 318908, 319508, 320088, 320747, 321381, 321931, 322564, 323159, 323723, 324308, 324891, 325467, 326049, 326668, 327269, 327837, 328343, 328446, 329024, 329126, 329628, 330220]","[317350, 317877, 318469, 319073, 319682, 320271, 320872, 321500, 322096, 322706, 323258, 323838, 324417, 325023, 325604, 326221, 326782, 327395, 328073, 328366, 328486, 329046, 329152, 329771, 330427]","[79, 107, 91, 63, 73, 127, 35, 172, 42, 160, 93, 93, 98, 55, 82, 211, 12, 10, 99, 5, 32, 229, 128, 225, 228]","[317292, 317790, 318402, 319007, 319616, 320193, 320823, 321438, 322014, 322649, 323162, 323725, 324312, 324894, 325471, 326051, 326671, 327273, 327840, 328347, 328446, 329029, 329126, 329634, 330225]","[316717, 317315, 317915, 318515, 319115, 319715, 320315, 320915, 321401, 321951, 322584, 323179, 323743, 324328, 324911, 325487, 326069, 326688, 327289, 327857, 328364, 329044, 329648, 330241]",81,EM,U,R,ITMSR,1.1,
1,600,trial,0,10,10,10,trial,"['S', 'S', 'S', 'S', 'S', 'S', 'S', 'C', 'C', 'C', 'C', 'C', 'C', 'C', 'C', 'C', 'C', 'C', 'C', 'C', 'C', 'C', 'C']","[336471, 336917, 337516, 338115, 338725, 339338, 339927, 340530, 341122, 341719, 342323, 342898, 343569, 344218, 344892, 345481, 346098, 346692, 347346, 347968, 348557, 349151, 349730]","[336567, 337074, 337632, 338220, 338805, 339419, 340009, 340619, 341230, 341807, 342421, 343020, 343696, 344339, 344967, 345645, 346286, 346985, 347627, 348292, 348909, 349460]","[67, 104, 70, 58, 13, 60, 14, 56, 57, 80, 57, 77, 64, 73, 26, 77, 117, 139, 121, 110, 104, 78]","[336538, 336985, 337575, 338168, 338731, 339341, 339931, 340533, 341126, 341723, 342327, 342902, 343650, 344223, 344896, 345573, 346204, 346788, 347480, 348080, 348561, 349284]","[335769, 336368, 336968, 337568, 338168, 338768, 339368, 339969, 340550, 341142, 341739, 342343, 342918, 343589, 344238, 344912, 345501, 346118, 346712, 347366, 347988, 348577, 349171, 349750]",81,EM,U,R,ITMSR,1.1,
3,400,trial,0,11,11,11,trial,"['S', 'S', 'S', 'S', 'S', 'S', 'S', 'C', 'C', 'C', 'C', 'C', 'C', 'C', 'C', 'C', 'C', 'C', 'C', 'C', 'C', 'C', 'C']","[355505, 355940, 356277, 356687, 357054, 357481, 357882, 358279, 358761, 359196, 359640, 360073, 360515, 360933, 361373, 361781, 362211, 362641, 363078, 363591, 364045, 364479, 364907]","[355634, 356063, 356406, 356822, 357183, 357597, 358004, 358423, 358858, 359328, 359748, 360213, 360653, 361097, 361482, 361901, 362334, 362780, 363214, 363691, 364143, 364591, 365014]","[207, 121, 219, 169, 73, 165, 124, 170, 243, 116, 27, 58, 110, 122, 104, 174, 107, 107, 74, 105, 49, 247, 94]","[355509, 356018, 356281, 356690, 357058, 357485, 357885, 358282, 358765, 359200, 359644, 360077, 360518, 360937, 361377, 361785, 362214, 362644, 363081, 363594, 364049, 364484, 364910]","[355140, 355540, 355940, 356340, 356740, 357140, 357540, 357940, 358299, 358781, 359216, 359660, 360093, 360536, 360953, 361393, 361801, 362231, 362661, 363098, 363611, 364065, 364499, 364928]",81,EM,U,R,ITMSR,1.1,
2,400,trial,0,12,12,12,trial,"['S', 'S', 'S', 'S', 'S', 'S', 'S', 'C', 'C', 'C', 'C', 'C', 'C', 'C', 'C', 'C', 'C', 'C', 'C', 'C', 'C', 'C', 'C']","[370790, 371289, 371734, 372168, 372549, 372965, 373372, 373774, 374192, 374626, 375019, 375460, 375931, 376354, 376757, 377199, 377568, 378002, 378454, 378928, 379361, 379784, 380205]","[370925, 371415, 371851, 372298, 372707, 373115, 373539, 373915, 374353, 374769, 375176, 375633, 376064, 376542, 376973, 377389, 377805, 378255, 378650, 379175, 379588, 380003, 380446]","[136, 104, 206, 118, 126, 110, 145, 116, 64, 159, 16, 89, 7, 63, 105, 254, 2, 223, 53, 231, 253, 43, 3]","[370795, 371292, 371739, 372170, 372553, 372969, 373376, 373777, 374196, 374629, 375114, 375464, 375936, 376358, 376760, 377202, 377574, 378007, 378458, 378933, 379364, 379788, 380211]","[370532, 370932, 371332, 371732, 372132, 372532, 372932, 373332, 373794, 374212, 374646, 375040, 375480, 375951, 376374, 376777, 377219, 377588, 378022, 378474, 378948, 379381, 379804, 380225]",81,EM,U,R,ITMSR,1.1,
4,400,trial,0,13,13,13,trial,"['S', 'S', 'S', 'S', 'S', 'C', 'C', 'C', 'C', 'C', 'C', 'C', 'C', 'C', 'C', 'C', 'C', 'C', 'C', 'C', 'C']","[386934, 387317, 387735, 388144, 388539, 388951, 389411, 389837, 390211, 390693, 391173, 391577, 392024, 392469, 392945, 393358, 393783, 394232, 394662, 395040, 395509]","[387045, 387472, 387885, 388274, 388676, 389137, 389573, 390061, 390475, 390866, 391355, 391766, 392204, 392688, 393122, 393590, 394029, 394440, 394836, 395264, 395708]","[242, 85, 73, 85, 95, 113, 121, 105, 105, 51, 63, 72, 70, 94, 66, 73, 91, 79, 79, 57, 60]","[387002, 387320, 387739, 388147, 388542, 388954, 389514, 389840, 390343, 390697, 391177, 391581, 392028, 392473, 392948, 393361, 393786, 394235, 394665, 395042, 395512]","[385720, 386119, 386520, 386920, 387320, 387720, 388120, 388520, 388971, 389431, 389857, 390232, 390713, 391193, 391597, 392044, 392489, 392965, 393378, 393803, 394252, 394682, 395060, 395529]",81,EM,U,R,ITMSR,1.1,
2,600,trial,0,14,14,14,trial,"['S', 'S', 'S', 'S', 'S', 'S', 'S', 'S', 'C', 'C', 'C', 'C', 'C', 'C', 'C', 'C', 'C', 'C', 'C', 'C', 'C', 'C', 'C', 'C', 'C', 'C', 'C', 'C', 'C', 'C', 'C', 'C', 'C', 'C', 'C', 'C', 'C']","[401522, 402167, 402720, 403411, 404118, 404666, 405327, 405432, 405857, 406553, 407185, 407285, 407816, 407916, 408402, 409006, 409106, 409600, 409700, 410206, 410306, 410814, 410914, 411393, 411493, 411964, 412064, 412601, 412701, 413195, 413295, 413841, 413941, 414477, 414577, 415039, 415139]","[401645, 402345, 402910, 403599, 404260, 404893, 405351, 405502, 406162, 406748, 407205, 407472, 407836, 408055, 408663, 409026, 409313, 409620, 409899, 410226, 410509, 410834, 411117, 411413, 411713, 411984, 412223, 412621, 412934, 413215, 413532, 413861, 414139, 414497, 414630, 415059, 415299]","[78, 128, 90, 92, 45, 240, 81, 224, 55, 80, 181, 212, 250, 145, 67, 225, 151, 194, 172, 98, 160, 220, 159, 201, 157, 136, 159, 240, 165, 246, 158, 192, 162, 120, 230, 105, 158]","[401600, 402260, 402826, 403415, 404122, 404671, 405331, 405432, 405863, 406558, 407189, 407287, 407821, 408000, 408407, 409010, 409282, 409605, 409857, 410211, 410449, 410817, 411059, 411398, 411672, 411966, 412178, 412604, 412812, 413200, 413434, 413845, 414017, 414484, 414593, 415044, 415206]","[401115, 401715, 402315, 402915, 403515, 404115, 404715, 405315, 405877, 406573, 407205, 407836, 408422, 409026, 409620, 410226, 410834, 411413, 411984, 412621, 413215, 413861, 414497, 415059]",81,EM,U,R,ITMSR,1.1,
5,400,trial,0,15,15,15,trial,"['S', 'S', 'S', 'S', 'S', 'S', 'S', 'C', 'C', 'C', 'C', 'C', 'C', 'C', 'C', 'C', 'C', 'C', 'C', 'C', 'C', 'C', 'C']","[421234, 421572, 421952, 422391, 422780, 423209, 423617, 424046, 424455, 424901, 425340, 425771, 426264, 426665, 427133, 427590, 428022, 428435, 428861, 429282, 429711, 430130, 430566]","[421318, 421692, 422104, 422578, 422985, 423449, 423867, 424254, 424708, 425152, 425610, 426021, 426456, 426889, 427400, 427832, 428284, 428688, 429137, 429456, 429963, 430360, 430791]","[48, 100, 124, 74, 149, 203, 220, 207, 205, 200, 252, 252, 66, 37, 70, 59, 71, 50, 78, 239, 48, 69, 35]","[421240, 421576, 421954, 422395, 422782, 423212, 423621, 424051, 424555, 425027, 425347, 425778, 426270, 426672, 427139, 427697, 428027, 428511, 428866, 429362, 429716, 430135, 430572]","[420795, 421195, 421595, 421995, 422395, 422795, 423195, 423596, 424066, 424475, 424921, 425360, 425791, 426285, 426685, 427153, 427610, 428042, 428455, 428881, 429302, 429731, 430150, 430586]",81,EM,U,R,ITMSR,1.1,
5,400,trial,0,16,16,16,trial,"['S', 'S', 'S', 'S', 'S', 'S', 'S', 'C', 'C', 'C', 'C', 'C', 'C', 'C', 'C', 'C', 'C', 'C', 'C', 'C', 'C', 'C', 'C']","[436357, 436747, 437175, 437571, 438003, 438415, 438843, 439254, 439682, 440136, 440527, 440947, 441333, 441786, 442207, 442609, 443073, 443509, 443885, 444370, 444830, 445270, 445686]","[436486, 436913, 437362, 437739, 438189, 438587, 439047, 439485, 439851, 440342, 440730, 441154, 441541, 441951, 442409, 442815, 443278, 443645, 444082, 444511, 444949, 445438, 445862]","[23, 14, 247, 240, 163, 212, 220, 18, 24, 19, 13, 57, 54, 8, 3, 181, 4, 200, 241, 32, 186, 242, 255]","[436423, 436855, 437274, 437575, 438096, 438421, 438938, 439259, 439688, 440239, 440532, 441050, 441437, 441790, 442295, 442714, 443176, 443588, 444012, 444459, 444836, 445277, 445692]","[436020, 436419, 436819, 437219, 437619, 438019, 438419, 438819, 439274, 439702, 440156, 440547, 440967, 441353, 441806, 442227, 442629, 443094, 443529, 443906, 444390, 444850, 445290, 445706]",81,EM,U,R,ITMSR,1.1,
2,400,trial,0,17,17,17,trial,"['S', 'S', 'S', 'S', 'S', 'S', 'S', 'C', 'C', 'C', 'C', 'C', 'C', 'C', 'C', 'C', 'C', 'C', 'C', 'C', 'C', 'C', 'C']","[451648, 452020, 452413, 452794, 453178, 453597, 454012, 454456, 454863, 455288, 455686, 456085, 456488, 456891, 457289, 457717, 458121, 458572, 458991, 459421, 459837, 460274, 460693]","[451757, 452219, 452615, 452986, 453429, 453858, 454286, 454709, 455077, 455530, 455951, 456306, 456719, 457110, 457548, 457893, 458412, 458797, 459256, 459655, 460069, 460513, 460931]","[170, 56, 52, 25, 10, 165, 91, 1, 254, 31, 70, 50, 72, 70, 103, 65, 133, 113, 119, 109, 107, 109, 85]","[451715, 452114, 452507, 452881, 453275, 453737, 454115, 454622, 454977, 455415, 455828, 456220, 456638, 456965, 457452, 457791, 458265, 458682, 459137, 459537, 459944, 460384, 460807]","[451184, 451585, 451984, 452384, 452784, 453184, 453584, 453984, 454476, 454883, 455308, 455706, 456105, 456508, 456911, 457309, 457737, 458141, 458592, 459011, 459441, 459857, 460294, 460713]",81,EM,U,R,ITMSR,1.1,
0,400,trial,0,18,18,18,trial,"['S', 'S', 'S', 'S', 'S', 'S', 'C', 'C', 'C', 'C', 'C', 'C', 'C', 'C', 'C', 'C', 'C', 'C', 'C', 'C', 'C', 'C']","[467088, 467508, 467911, 468308, 468717, 469133, 469519, 469954, 470374, 470806, 471233, 471686, 472087, 472528, 472939, 473352, 473803, 474221, 474631, 475081, 475532, 475958]","[467271, 467734, 468173, 468525, 469016, 469380, 469794, 470212, 470658, 471076, 471522, 471911, 472382, 472791, 473230, 473568, 474087, 474458, 474912, 475374, 475779, 476218]","[67, 111, 129, 143, 165, 161, 157, 164, 185, 198, 185, 182, 187, 182, 191, 171, 194, 173, 186, 197, 167, 189]","[467162, 467591, 468029, 468431, 468809, 469249, 469608, 470092, 470540, 470968, 471384, 471792, 472254, 472662, 473091, 473446, 473968, 474301, 474785, 475223, 475616, 476056]","[466288, 466689, 467088, 467488, 467888, 468288, 468688, 469088, 469539, 469975, 470394, 470827, 471254, 471706, 472108, 472548, 472960, 473372, 473823, 474242, 474651, 475101, 475552, 475978]",81,EM,U,R,ITMSR,1.1,
3,600,trial,0,19,19,19,trial,"['S', 'S', 'S', 'S', 'S', 'S', 'S', 'C', 'C', 'C', 'C', 'C', 'C', 'C', 'C', 'C', 'C', 'C', 'C', 'C', 'C', 'C', 'C']","[481921, 482539, 483141, 483780, 484306, 484998, 485634, 486214, 486842, 487406, 487964, 488532, 489149, 489725, 490287, 490863, 491428, 492033, 492573, 493169, 493779, 494346, 494935]","[482222, 482752, 483428, 484130, 484742, 485398, 486008, 486618, 487217, 487792, 488352, 488957, 489540, 490081, 490678, 491236, 491827, 492406, 492986, 493572, 494162, 494728]","[132, 151, 162, 177, 173, 170, 176, 177, 185, 176, 165, 149, 117, 137, 115, 124, 141, 114, 90, 95, 67, 39]","[482041, 482651, 483268, 483889, 484588, 485206, 485752, 486424, 487073, 487613, 488093, 488832, 489350, 489951, 490555, 491067, 491663, 492243, 492837, 493299, 493786, 494352]","[481544, 482144, 482744, 483344, 483944, 484544, 485144, 485744, 486234, 486862, 487426, 487984, 488552, 489169, 489745, 490307, 490883, 491448, 492053, 492593, 493189, 493799, 494366, 494955]",81,EM,U,R,ITMSR,1.1,
0,600,trial,0,20,20,20,trial,"['S', 'S', 'S', 'S', 'S', 'S', 'S', 'C', 'C', 'C', 'C', 'C', 'C', 'C', 'C', 'C', 'C', 'C', 'C', 'C', 'C', 'C', 'C']","[501049, 501702, 502321, 502940, 503532, 504178, 504788, 505420, 505997, 506593, 507215, 507779, 508376, 508969, 509576, 510175, 510773, 511343, 511905, 512523, 513107, 513703, 514274]","[501393, 502118, 502702, 503331, 503939, 504615, 505232, 505810, 506358, 506981, 507603, 508138, 508767, 509406, 509969, 510594, 511185, 511652, 512262, 512875, 513468, 513922]","[129, 151, 159, 147, 112, 120, 124, 132, 126, 142, 138, 138, 125, 109, 97, 52, 91, 71, 132, 109, 122, 111]","[501148, 501864, 502449, 503086, 503632, 504336, 504968, 505652, 506207, 506850, 507419, 507948, 508630, 509099, 509784, 510359, 511015, 511492, 512061, 512674, 513376, 513806]","[500660, 501260, 501860, 502460, 503060, 503660, 504260, 504860, 505440, 506017, 506613, 507235, 507799, 508396, 508989, 509596, 510195, 510793, 511363, 511925, 512543, 513127, 513723, 514294]",81,EM,U,R,ITMSR,1.1,
1,600,trial,0,21,21,21,trial,"['S', 'S', 'S', 'S', 'S', 'S', 'S', 'C', 'C', 'C', 'C', 'C', 'C', 'C', 'C', 'C', 'C', 'C', 'C', 'C', 'C', 'C', 'C', 'C', 'C', 'C', 'C', 'C', 'C']","[520371, 520976, 521584, 522182, 522809, 523398, 523981, 524574, 525181, 525714, 526294, 526854, 527392, 527997, 528478, 529134, 529235, 529687, 529789, 530198, 530776, 531284, 531384, 531911, 532011, 532480, 532580, 533005, 533105]","[520700, 521374, 521902, 522568, 523126, 523762, 524321, 524857, 525455, 526042, 526624, 527192, 527718, 528263, 528813, 529154, 529363, 529708, 529917, 530485, 531017, 531304, 531576, 531931, 532100, 532500, 532606, 533025, 533251]","[85, 67, 48, 38, 247, 2, 172, 163, 209, 237, 200, 181, 85, 60, 53, 118, 102, 121, 172, 164, 24, 0, 200, 171, 104, 142, 22, 185, 102]","[520445, 520980, 521799, 522186, 522813, 523402, 523985, 524578, 525186, 525717, 526298, 526858, 527395, 528003, 528483, 529138, 529235, 529692, 529789, 530202, 530781, 531291, 531444, 531916, 532014, 532482, 532580, 533011, 533107]","[519991, 520591, 521191, 521791, 522391, 522991, 523591, 524191, 524594, 525201, 525734, 526314, 526874, 527412, 528017, 528498, 529154, 529708, 530219, 530796, 531304, 531931, 532500, 533025]",81,EM,U,R,ITMSR,1.1,
4,600,trial,0,22,22,22,trial,"['S', 'S', 'S', 'S', 'S', 'S', 'C', 'C', 'C', 'C', 'C', 'C', 'C', 'C', 'C', 'C', 'C', 'C', 'C', 'C', 'C', 'C']","[539886, 540477, 541000, 541642, 542279, 542842, 543442, 544070, 544600, 545243, 545824, 546468, 547039, 547627, 548286, 548874, 549493, 550081, 550632, 551251, 551817, 552422]","[540095, 540713, 541249, 541908, 542533, 543116, 543688, 544365, 544880, 545519, 546130, 546718, 547299, 547905, 548544, 549131, 549769, 550339, 550915, 551567, 552127]","[79, 131, 147, 120, 135, 146, 133, 155, 144, 147, 158, 154, 163, 173, 163, 158, 169, 161, 159, 158, 156]","[539985, 540620, 541101, 541745, 542394, 542956, 543544, 544195, 544711, 545328, 545916, 546539, 547113, 547731, 548360, 548955, 549549, 550146, 550714, 551327, 551967]","[538743, 539343, 539943, 540544, 541144, 541744, 542344, 542944, 543462, 544090, 544620, 545263, 545844, 546488, 547059, 547647, 548306, 548894, 549513, 550102, 550652, 551271, 551837, 552442]",81,EM,U,R,ITMSR,1.1,
0,600,trial,0,23,23,23,trial,"['S', 'S', 'S', 'S', 'S', 'S', 'S', 'C', 'C', 'C', 'C', 'C', 'C', 'C', 'C', 'C', 'C', 'C', 'C', 'C', 'C', 'C', 'C']","[558607, 559121, 559664, 560302, 560897, 561486, 562091, 562677, 563321, 563935, 564543, 565144, 565727, 566348, 566973, 567562, 568138, 568781, 569361, 569868, 570523, 571132, 571729]","[558859, 559475, 560119, 560695, 561288, 561881, 562450, 563091, 563721, 564327, 564887, 565542, 566142, 566762, 567389, 567970, 568506, 569121, 569717, 570263, 570919, 571511]","[116, 146, 107, 94, 63, 56, 41, 59, 104, 134, 131, 135, 144, 136, 147, 107, 75, 109, 139, 143, 131, 116]","[558687, 559252, 559737, 560389, 560983, 561685, 562163, 562946, 563548, 564089, 564696, 565404, 565871, 566581, 567219, 567753, 568280, 568881, 569610, 570112, 570781, 571304]","[557918, 558518, 559118, 559718, 560318, 560918, 561518, 562118, 562697, 563341, 563955, 564563, 565165, 565747, 566368, 566993, 567582, 568158, 568801, 569381, 569888, 570543, 571152, 571749]",81,EM,U,R,ITMSR,1.1,
2,600,trial,0,24,24,24,trial,"['S', 'S', 'S', 'S', 'S', 'S', 'S', 'C', 'C', 'C', 'C', 'C', 'C', 'C', 'C', 'C', 'C', 'C', 'C', 'C', 'C', 'C', 'C', 'C']","[577871, 578413, 579031, 579579, 580183, 580852, 581422, 582049, 582699, 583319, 583888, 584568, 585226, 585804, 586434, 587046, 587656, 588265, 588901, 589496, 590087, 590672, 591341, 591514]","[578170, 578728, 579299, 579922, 580456, 581061, 581675, 582302, 583005, 583597, 584226, 584912, 585524, 586150, 586735, 587394, 588006, 588607, 589232, 589846, 590451, 591033, 591376]","[114, 119, 139, 135, 134, 139, 137, 135, 145, 155, 151, 141, 142, 117, 1, 101, 120, 150, 141, 140, 145, 86, 3]","[577940, 578506, 579119, 579713, 580293, 580939, 581550, 582144, 582773, 583402, 583981, 584650, 585376, 585920, 586526, 587219, 587763, 588407, 589097, 589712, 590300, 590896, 591350]","[577299, 577899, 578499, 579099, 579699, 580299, 580899, 581499, 582069, 582719, 583340, 583908, 584588, 585246, 585824, 586455, 587066, 587676, 588285, 588921, 589516, 590107, 590692, 591362]",81,EM,U,R,ITMSR,1.1,
4,600,trial,0,25,25,25,trial,"['S', 'S', 'S', 'S', 'S', 'S', 'S', 'C', 'C', 'C', 'C', 'C', 'C', 'C', 'C', 'C', 'C', 'C', 'C', 'C', 'C', 'C', 'C']","[597739, 598206, 598805, 599388, 599968, 600606, 601204, 601838, 602436, 603068, 603695, 604335, 604880, 605599, 606258, 606820, 607464, 608107, 608720, 609350, 609995, 610660, 611279]","[597900, 598450, 599040, 599623, 600217, 600811, 601427, 602056, 602674, 603303, 603949, 604590, 605163, 605935, 606633, 607255, 607921, 608553, 609162, 609782, 610436, 611055]","[113, 105, 127, 139, 137, 135, 152, 138, 141, 147, 161, 147, 151, 147, 151, 151, 125, 157, 87, 52, 80, 109]","[597805, 598305, 598893, 599513, 600085, 600705, 601338, 601935, 602577, 603164, 603816, 604456, 604989, 605751, 606372, 606938, 607556, 608192, 608837, 609428, 610088, 610748]","[597045, 597645, 598245, 598845, 599445, 600045, 600645, 601245, 601858, 602456, 603088, 603715, 604355, 604900, 605619, 606278, 606840, 607484, 608128, 608740, 609370, 610015, 610680, 611299]",81,EM,U,R,ITMSR,1.1,
3,400,trial,0,26,26,26,trial,"['S', 'S', 'S', 'S', 'S', 'S', 'C', 'C', 'C', 'C', 'C', 'C', 'C', 'C', 'C', 'C', 'C', 'C', 'C', 'C', 'C', 'C']","[617771, 618151, 618536, 618944, 619331, 619766, 620155, 620575, 620960, 621352, 621756, 622123, 622552, 622934, 623355, 623761, 624174, 624569, 624978, 625431, 625845, 626225]","[617879, 618288, 618689, 619087, 619504, 619951, 620308, 620727, 621113, 621518, 621905, 622318, 622692, 623109, 623533, 623922, 624365, 624776, 625170, 625577, 626017, 626405]","[38, 79, 103, 133, 129, 149, 137, 127, 133, 124, 123, 127, 124, 142, 138, 125, 127, 130, 141, 142, 139, 133]","[617841, 618156, 618540, 618946, 619412, 619844, 620158, 620658, 621032, 621356, 621759, 622126, 622554, 623020, 623357, 623763, 624267, 624661, 625061, 625433, 625847, 626228]","[616934, 617334, 617734, 618134, 618534, 618934, 619334, 619735, 620175, 620595, 620980, 621372, 621776, 622143, 622572, 622954, 623375, 623781, 624194, 624589, 624998, 625452, 625865, 626245]",81,EM,U,R,ITMSR,1.1,
4,400,trial,0,27,27,27,trial,"['S', 'S', 'S', 'S', 'S', 'S', 'S', 'C', 'C', 'C', 'C', 'C', 'C', 'C', 'C', 'C', 'C', 'C', 'C', 'C', 'C', 'C', 'C']","[632457, 632835, 633191, 633566, 634012, 634397, 634781, 635152, 635550, 635894, 636305, 636715, 637138, 637541, 637979, 638345, 638770, 639173, 639594, 640008, 640434, 640841, 641236]","[632571, 632960, 633323, 633718, 634117, 634482, 634886, 635249, 635640, 636030, 636431, 636844, 637258, 637674, 638095, 638505, 638926, 639294, 639734, 640149, 640555, 640998, 641392]","[108, 103, 100, 79, 86, 95, 17, 62, 32, 109, 67, 123, 120, 125, 81, 107, 91, 83, 68, 80, 7, 50, 43]","[632460, 632838, 633194, 633569, 634066, 634400, 634853, 635156, 635554, 635898, 636308, 636718, 637142, 637608, 637983, 638427, 638773, 639177, 639597, 640010, 640437, 640844, 641240]","[632008, 632408, 632808, 633208, 633608, 634008, 634408, 634808, 635172, 635570, 635914, 636325, 636735, 637158, 637561, 637999, 638365, 638790, 639193, 639614, 640028, 640454, 640861, 641256]",81,EM,U,R,ITMSR,1.1,
1,400,trial,0,28,28,28,trial,"['S', 'S', 'S', 'S', 'S', 'S', 'C', 'C', 'C', 'C', 'C', 'C', 'C', 'C', 'C', 'C', 'C', 'C', 'C', 'C', 'C', 'C']","[647655, 648032, 648416, 648819, 649232, 649651, 650015, 650413, 650778, 651140, 651555, 651960, 652349, 652745, 653130, 653507, 653893, 654304, 654685, 655086, 655430, 655900]","[647759, 648154, 648566, 648936, 649350, 649733, 650126, 650513, 650903, 651275, 651684, 652099, 652499, 652934, 653297, 653704, 654095, 654477, 654862, 655217, 655588, 656036]","[89, 116, 127, 128, 125, 92, 70, 72, 79, 46, 24, 208, 191, 158, 48, 29, 88, 49, 225, 76, 33, 100]","[647658, 648035, 648419, 648822, 649297, 649654, 650083, 650416, 650781, 651213, 651626, 652044, 652355, 652845, 653134, 653514, 653895, 654307, 654760, 655093, 655434, 655902]","[646830, 647230, 647630, 648030, 648430, 648830, 649230, 649630, 650035, 650433, 650798, 651160, 651575, 651980, 652369, 652765, 653150, 653528, 653913, 654324, 654705, 655106, 655450, 655920]",81,EM,U,R,ITMSR,1.1,
1,400,trial,0,29,29,29,trial,"['S', 'S', 'S', 'S', 'S', 'S', 'S', 'C', 'C', 'C', 'C', 'C', 'C', 'C', 'C', 'C', 'C', 'C', 'C', 'C', 'C', 'C', 'C']","[661663, 662045, 662462, 662847, 663298, 663640, 664054, 664456, 664934, 665335, 665740, 666124, 666554, 666925, 667302, 667677, 668065, 668466, 668855, 669258, 669656, 670035, 670422]","[661793, 662181, 662579, 662976, 663410, 663797, 664190, 664600, 665042, 665483, 665894, 666265, 666692, 667088, 667435, 667808, 668190, 668566, 668940, 669349, 669772, 670162, 670554]","[205, 36, 4, 175, 199, 249, 240, 12, 249, 250, 253, 236, 5, 168, 179, 205, 231, 133, 194, 47, 142, 15, 118]","[661735, 662046, 662464, 662849, 663301, 663642, 664056, 664547, 664936, 665337, 665742, 666126, 666556, 667010, 667304, 667682, 668066, 668467, 668857, 669260, 669657, 670089, 670424]","[661323, 661722, 662122, 662522, 662922, 663322, 663723, 664122, 664476, 664954, 665355, 665760, 666144, 666574, 666945, 667322, 667697, 668085, 668486, 668875, 669278, 669676, 670055, 670442]",81,EM,U,R,ITMSR,1.1,
3,600,trial,0,30,30,30,trial,"['S', 'S', 'S', 'S', 'S', 'S', 'S', 'S', 'C', 'C', 'C', 'C', 'C', 'C', 'C', 'C', 'C', 'C', 'C', 'C', 'C', 'C', 'C', 'C']","[685355, 685618, 686214, 686798, 687405, 688021, 688679, 689274, 689905, 690501, 691078, 691651, 692240, 692818, 693399, 693987, 694580, 695140, 695693, 696264, 696837, 697454, 698059, 698641]","[685460, 685784, 686387, 686944, 687564, 688163, 688814, 689422, 690076, 690686, 691338, 691917, 692514, 693102, 693726, 694283, 694875, 695457, 696013, 696574, 697233, 697793, 698401]","[44, 114, 145, 139, 141, 132, 117, 98, 113, 79, 116, 90, 36, 30, 248, 189, 205, 193, 191, 123, 133, 94, 124]","[685418, 685700, 686299, 686888, 687492, 688108, 688743, 689358, 689996, 690612, 691195, 691803, 692380, 693005, 693527, 694085, 694683, 695247, 695811, 696266, 696839, 697456, 698061]","[685164, 685763, 686363, 686963, 687563, 688163, 688763, 689363, 689925, 690521, 691098, 691672, 692260, 692838, 693420, 694007, 694600, 695160, 695713, 696284, 696857, 697474, 698079, 698661]",81,EM,U,R,ITMSR,1.1,
5,600,trial,0,31,31,31,trial,"['S', 'S', 'S', 'S', 'S', 'S', 'S', 'C', 'C', 'C', 'C', 'C', 'C', 'C', 'C', 'C', 'C', 'C', 'C', 'C', 'C', 'C', 'C']","[704742, 705373, 705996, 706608, 707191, 707795, 708452, 709017, 709638, 710204, 710789, 711345, 711937, 712538, 713150, 713748, 714354, 714974, 715558, 716156, 716750, 717312, 717920]","[704880, 705507, 706118, 706737, 707323, 707934, 708579, 709184, 709858, 710473, 711090, 711690, 712279, 712903, 713503, 714133, 714734, 715325, 715910, 716534, 717076, 717688]","[44, 63, 83, 79, 44, 65, 77, 70, 109, 88, 81, 16, 173, 140, 201, 216, 179, 117, 177, 208, 135, 147]","[704744, 705437, 706000, 706673, 707262, 707868, 708508, 709093, 709730, 710337, 710896, 711444, 711939, 712540, 713156, 713754, 714355, 714976, 715559, 716157, 716751, 717313]","[704318, 704918, 705518, 706118, 706718, 707318, 707918, 708518, 709037, 709658, 710224, 710809, 711365, 711957, 712558, 713170, 713768, 714374, 714994, 715578, 716176, 716770, 717332, 717940]",81,EM,U,R,ITMSR,1.1,
4,400,trial,0,32,32,32,trial,"['S', 'S', 'S', 'S', 'S', 'S', 'S', 'C', 'C', 'C', 'C', 'C', 'C', 'C', 'C', 'C', 'C', 'C', 'C', 'C', 'C', 'C', 'C']","[723931, 724318, 724675, 725075, 725507, 725903, 726315, 726713, 727155, 727586, 728000, 728424, 728836, 729248, 729670, 730103, 730511, 730901, 731321, 731794, 732197, 732635, 733064]","[724050, 724453, 724843, 725248, 725679, 726050, 726482, 726898, 727343, 727715, 728173, 728561, 728958, 729394, 729837, 730263, 730680, 731125, 731523, 731942, 732408, 732841, 733262]","[123, 241, 5, 239, 232, 163, 123, 224, 254, 199, 243, 196, 255, 23, 22, 20, 21, 3, 231, 158, 252, 227, 253]","[723998, 724320, 724677, 725154, 725596, 725905, 726317, 726804, 727235, 727661, 728086, 728427, 728892, 729331, 729751, 730188, 730594, 730908, 731323, 731879, 732299, 732731, 733156]","[723543, 723942, 724342, 724742, 725142, 725542, 725942, 726342, 726733, 727175, 727606, 728020, 728444, 728856, 729268, 729690, 730123, 730531, 730921, 731341, 731814, 732217, 732655, 733084]",81,EM,U,R,ITMSR,1.1,
1,400,trial,0,33,33,33,trial,"['S', 'S', 'S', 'S', 'S', 'S', 'S', 'C', 'C', 'C', 'C', 'C', 'C', 'C', 'C', 'C', 'C', 'C', 'C', 'C', 'C', 'C', 'C']","[739166, 739537, 739926, 740310, 740773, 741149, 741571, 741975, 742427, 742820, 743266, 743671, 744076, 744442, 744887, 745286, 745654, 746073, 746472, 746851, 747289, 747655, 748039]","[739274, 739679, 740067, 740449, 740885, 741283, 741677, 742094, 742523, 742938, 743401, 743804, 744206, 744591, 745013, 745461, 745820, 746216, 746633, 747024, 747444, 747831, 748214]","[190, 19, 1, 211, 222, 244, 15, 168, 165, 213, 237, 189, 187, 189, 196, 214, 142, 197, 145, 240, 185, 177, 228]","[739168, 739607, 740012, 740396, 740776, 741227, 741615, 742040, 742473, 742888, 743334, 743673, 744078, 744444, 744888, 745382, 745734, 746074, 746549, 746931, 747357, 747738, 748113]","[738776, 739176, 739576, 739976, 740376, 740776, 741176, 741576, 741995, 742447, 742840, 743286, 743691, 744096, 744462, 744907, 745306, 745674, 746093, 746492, 746871, 747309, 747675, 748059]",81,EM,U,R,ITMSR,1.1,
3,400,trial,0,34,34,34,trial,"['S', 'S', 'S', 'S', 'S', 'S', 'S', 'C', 'C', 'C', 'C', 'C', 'C', 'C', 'C', 'C', 'C', 'C', 'C', 'C', 'C', 'C', 'C']","[753856, 754184, 754581, 754993, 755351, 755765, 756173, 756575, 757001, 757384, 757807, 758173, 758594, 758999, 759393, 759783, 760180, 760567, 761022, 761383, 761782, 762186, 762571]","[753952, 754320, 754706, 755118, 755493, 755915, 756328, 756742, 757159, 757560, 757975, 758365, 758779, 759150, 759548, 759998, 760372, 760793, 761151, 761606, 761965, 762353, 762746]","[185, 243, 16, 8, 38, 87, 64, 106, 31, 34, 12, 14, 30, 35, 246, 37, 33, 33, 251, 70, 17, 3, 53]","[753899, 754186, 754643, 755054, 755427, 755847, 756257, 756666, 757082, 757476, 757886, 758263, 758680, 759075, 759399, 759881, 760275, 760649, 761092, 761479, 761873, 762269, 762661]","[753471, 753870, 754270, 754670, 755070, 755470, 755870, 756270, 756595, 757021, 757404, 757827, 758193, 758615, 759019, 759413, 759803, 760200, 760587, 761042, 761403, 761802, 762206, 762591]",81,EM,U,R,ITMSR,1.1,
0,400,trial,0,35,35,35,trial,"['S', 'S', 'S', 'S', 'S', 'S', 'S', 'S', 'C', 'C', 'C', 'C', 'C', 'C', 'C', 'C', 'C', 'C', 'C', 'C', 'C', 'C', 'C', 'C']","[768560, 768903, 769247, 769619, 769996, 770390, 770807, 771211, 771613, 772062, 772480, 772841, 773271, 773702, 774123, 774517, 774936, 775362, 775755, 776167, 776593, 777013, 777419, 777794]","[768691, 769040, 769371, 769794, 770229, 770650, 771053, 771451, 771867, 772205, 772684, 773010, 773455, 773949, 774319, 774785, 775182, 775597, 776008, 776364, 776847, 777232, 777655, 778053]","[93, 105, 75, 121, 121, 101, 99, 67, 103, 86, 121, 90, 113, 98, 90, 106, 111, 93, 106, 101, 120, 112, 107, 99]","[768609, 768962, 769317, 769690, 770070, 770466, 770811, 771326, 771616, 772146, 772571, 772935, 773357, 773704, 774214, 774519, 774939, 775365, 775759, 776249, 776667, 777015, 777537, 777899]","[768385, 768784, 769184, 769584, 769984, 770384, 770784, 771184, 771633, 772082, 772500, 772861, 773292, 773722, 774144, 774537, 774957, 775383, 775775, 776187, 776613, 777033, 777439, 777815]",81,EM,U,R,ITMSR,1.1,
5,400,trial,0,36,36,36,trial,"['S', 'S', 'S', 'S', 'S', 'S', 'S', 'C', 'C', 'C', 'C', 'C', 'C', 'C', 'C', 'C', 'C', 'C', 'C', 'C', 'C', 'C', 'C']","[783753, 784103, 784486, 784880, 785280, 785640, 786058, 786488, 786925, 787339, 787726, 788133, 788567, 788993, 789410, 789824, 790247, 790642, 791075, 791475, 791881, 792284, 792682]","[783864, 784284, 784712, 785119, 785467, 785896, 786314, 786762, 787178, 787553, 787979, 788407, 788792, 789212, 789632, 790028, 790457, 790889, 791301, 791700, 792126, 792471, 792892]","[33, 93, 83, 105, 85, 98, 103, 108, 83, 69, 109, 100, 106, 123, 101, 114, 107, 108, 84, 99, 79, 81, 79]","[783757, 784106, 784488, 784883, 785364, 785643, 786060, 786491, 786928, 787342, 787729, 788136, 788570, 788996, 789413, 789827, 790250, 790645, 791078, 791478, 791884, 792287, 792685]","[783344, 783745, 784144, 784544, 784944, 785344, 785744, 786144, 786508, 786946, 787359, 787746, 788153, 788587, 789013, 789430, 789844, 790267, 790662, 791095, 791495, 791901, 792304, 792702]",81,EM,U,R,ITMSR,1.1,
2,600,trial,0,37,37,37,trial,"['S', 'S', 'S', 'S', 'S', 'S', 'S', 'S', 'C', 'C', 'C', 'C', 'C', 'C', 'C', 'C', 'C', 'C', 'C', 'C', 'C', 'C', 'C', 'C']","[798456, 798744, 799202, 799861, 800445, 801032, 801681, 802309, 802974, 803560, 804165, 804770, 805351, 805991, 806555, 807140, 807690, 808296, 808840, 809441, 810005, 810604, 811160, 811752]","[798585, 798911, 799443, 800224, 800814, 801487, 802093, 802799, 803372, 803976, 804582, 805166, 805774, 806376, 806931, 807500, 808085, 808660, 809239, 809825, 810441, 810957, 811547]","[66, 91, 84, 103, 76, 81, 21, 67, 59, 6, 53, 37, 18, 23, 232, 20, 55, 30, 29, 237, 25, 8, 37]","[798459, 798747, 799205, 799864, 800448, 801035, 801797, 802312, 802977, 803564, 804169, 804773, 805354, 805995, 806560, 807143, 807692, 808299, 808844, 809444, 810009, 810702, 811164]","[798218, 798818, 799418, 800018, 800618, 801218, 801818, 802418, 802994, 803580, 804185, 804790, 805371, 806011, 806575, 807160, 807710, 808316, 808860, 809461, 810025, 810625, 811181, 811772]",81,EM,U,R,ITMSR,1.1,
1,600,trial,0,38,38,38,trial,"['S', 'S', 'S', 'S', 'S', 'S', 'S', 'C', 'C', 'C', 'C', 'C', 'C', 'C', 'C', 'C', 'C', 'C', 'C', 'C', 'C', 'C', 'C']","[817892, 818481, 819105, 819697, 820276, 820877, 821489, 822160, 822778, 823329, 823933, 824521, 825072, 825665, 826271, 826818, 827378, 827985, 828569, 829200, 829762, 830321, 830925]","[818106, 818673, 819278, 819883, 820481, 821104, 821695, 822355, 823067, 823661, 824297, 824863, 825473, 826045, 826580, 827155, 827795, 828370, 828966, 829556, 830064, 830628]","[8, 11, 204, 33, 66, 89, 35, 220, 190, 170, 166, 129, 142, 130, 167, 167, 116, 57, 171, 32, 41, 16]","[817964, 818573, 819201, 819790, 820377, 820976, 821603, 822255, 822962, 823332, 823936, 824624, 825074, 825667, 826273, 826880, 827381, 827990, 828571, 829203, 829764, 830325]","[817537, 818136, 818736, 819336, 819936, 820536, 821136, 821736, 822180, 822798, 823349, 823953, 824541, 825092, 825686, 826291, 826839, 827398, 828005, 828589, 829220, 829783, 830341, 830945]",81,EM,U,R,ITMSR,1.1,
2,400,trial,0,39,39,39,trial,"['S', 'S', 'S', 'S', 'S', 'S', 'S', 'C', 'C', 'C', 'C', 'C', 'C', 'C', 'C', 'C', 'C', 'C', 'C', 'C', 'C', 'C', 'C']","[836953, 837297, 837768, 838187, 838597, 839021, 839431, 839824, 840244, 840641, 841057, 841453, 841853, 842237, 842683, 843081, 843483, 843923, 844333, 844736, 845124, 845522, 845931]","[837075, 837484, 837928, 838381, 838790, 839186, 839632, 840070, 840448, 840839, 841250, 841637, 842029, 842405, 842855, 843284, 843661, 844057, 844531, 844915, 845334, 845722, 846130]","[170, 230, 227, 231, 65, 229, 191, 218, 233, 228, 197, 203, 171, 213, 218, 236, 218, 248, 206, 229, 172, 229, 187]","[837011, 837380, 837847, 838288, 838684, 839093, 839531, 839942, 840250, 840646, 841059, 841455, 841856, 842240, 842685, 843083, 843485, 843928, 844335, 844738, 845126, 845615, 845937]","[836711, 837110, 837510, 837910, 838310, 838710, 839110, 839511, 839844, 840264, 840662, 841077, 841474, 841873, 842257, 842703, 843101, 843503, 843943, 844353, 844756, 845144, 845542, 845952]",81,EM,U,R,ITMSR,1.1,
2,600,trial,0,40,40,40,trial,"['S', 'S', 'S', 'S', 'S', 'S', 'S', 'C', 'C', 'C', 'C', 'C', 'C', 'C', 'C', 'C', 'C', 'C', 'C', 'C', 'C', 'C', 'C']","[851714, 852124, 852811, 853464, 854072, 854652, 855315, 855931, 857204, 857942, 858704, 859380, 860059, 860659, 861194, 861721, 862235, 862725, 863230, 863761, 864316, 864782, 865276]","[851810, 852362, 852995, 853652, 854293, 854917, 855608, 856349, 857465, 858172, 858867, 859537, 860225, 860868, 861431, 861978, 862468, 863030, 863517, 864013, 864517, 865080]","[20, 222, 39, 26, 75, 5, 214, 14, 225, 207, 215, 195, 246, 207, 198, 199, 179, 227, 216, 210, 151, 186]","[851717, 852227, 852891, 853544, 854153, 854779, 855404, 855933, 857329, 857944, 858706, 859463, 860061, 860764, 861309, 861819, 862236, 862856, 863396, 863884, 864322, 864784]","[851345, 851945, 852545, 853145, 853745, 854345, 854945, 855545, 855951, 857224, 857962, 858724, 859400, 860079, 860679, 861214, 861741, 862255, 862745, 863250, 863781, 864336, 864802, 865296]",81,EM,U,R,ITMSR,1.1,
5,600,trial,0,41,41,41,trial,"['S', 'S', 'S', 'S', 'S', 'S', 'S', 'C', 'C', 'C', 'C', 'C', 'C', 'C', 'C', 'C', 'C', 'C', 'C', 'C', 'C', 'C', 'C']","[871396, 871979, 872619, 873242, 873852, 874349, 874995, 875629, 876264, 876926, 877643, 878443, 879206, 879911, 880562, 881188, 881886, 882465, 883109, 883714, 884360, 884994, 885615]","[871497, 872138, 872780, 873430, 874157, 874688, 875367, 875951, 876650, 877220, 877895, 878764, 879422, 880193, 880926, 881520, 882131, 882837, 883479, 884113, 884771, 885400]","[10, 73, 93, 127, 129, 99, 135, 148, 91, 121, 118, 130, 117, 110, 109, 91, 89, 100, 111, 86, 79, 75]","[871401, 871983, 872709, 873245, 873856, 874352, 875095, 875631, 876361, 876930, 877646, 878446, 879321, 879915, 880566, 881191, 881889, 882467, 883111, 883717, 884363, 884997]","[871047, 871647, 872247, 872847, 873447, 874047, 874647, 875247, 875650, 876284, 876946, 877663, 878464, 879226, 879931, 880582, 881208, 881906, 882485, 883129, 883734, 884380, 885014, 885635]",81,EM,U,R,ITMSR,1.1,
3,400,trial,0,42,42,42,trial,"['S', 'S', 'S', 'S', 'S', 'S', 'S', 'C', 'C', 'C', 'C', 'C', 'C', 'C', 'C', 'C', 'C', 'C', 'C', 'C', 'C', 'C', 'C']","[891330, 891874, 892235, 892602, 893002, 893407, 893832, 894257, 894666, 895074, 895505, 895965, 896365, 896776, 897196, 897577, 898003, 898399, 898799, 899194, 899577, 900008, 900452]","[891473, 892004, 892366, 892761, 893207, 893659, 894066, 894514, 894904, 895322, 895794, 896168, 896603, 896978, 897400, 897766, 898187, 898629, 899019, 899402, 899816, 900238, 900653]","[56, 59, 77, 99, 102, 116, 110, 101, 109, 114, 95, 87, 97, 91, 102, 87, 98, 81, 103, 95, 85, 78, 99]","[891334, 891877, 892239, 892606, 893005, 893410, 893835, 894260, 894669, 895077, 895508, 895968, 896369, 896779, 897199, 897581, 898007, 898402, 898802, 899197, 899579, 900012, 900454]","[891062, 891461, 891862, 892261, 892661, 893061, 893461, 893861, 894277, 894686, 895094, 895525, 895985, 896386, 896796, 897216, 897597, 898023, 898419, 898819, 899214, 899597, 900028, 900472]",81,EM,U,R,ITMSR,1.1,
0,600,trial,0,43,43,43,trial,"['S', 'S', 'S', 'S', 'S', 'S', 'C', 'C', 'C', 'C', 'C', 'C', 'C', 'C', 'C', 'C', 'C', 'C', 'C', 'C', 'C', 'C']","[907243, 907745, 908342, 908982, 909620, 910171, 910810, 911373, 911938, 912512, 913085, 913641, 914213, 914777, 915392, 915957, 916532, 917091, 917645, 918207, 918779, 919380]","[907479, 908196, 908814, 909459, 910007, 910662, 911226, 911759, 912336, 912920, 913500, 914048, 914622, 915191, 915810, 916368, 916942, 917488, 918047, 918629, 919206]","[82, 114, 127, 121, 124, 120, 96, 122, 127, 112, 105, 101, 105, 82, 57, 76, 62, 77, 52, 69, 57]","[907336, 907904, 908344, 908985, 909622, 910289, 910812, 911598, 912048, 912676, 913088, 913644, 914215, 914780, 915565, 915960, 916535, 917335, 917648, 918441, 918782]","[906064, 906664, 907265, 907864, 908464, 909064, 909664, 910264, 910830, 911393, 911959, 912532, 913105, 913661, 914233, 914797, 915412, 915977, 916552, 917111, 917665, 918227, 918799, 919400]",81,EM,U,R,ITMSR,1.1,
1,400,trial,0,44,44,44,trial,"['S', 'S', 'S', 'S', 'C', 'C', 'C', 'C', 'C', 'C', 'C', 'C', 'C', 'C', 'C', 'C', 'C', 'C', 'C', 'C']","[926486, 926928, 927334, 927711, 928133, 928491, 928874, 929266, 929632, 930021, 930410, 930826, 931181, 931586, 931973, 932362, 932784, 933167, 933554, 933923]","[926625, 927059, 927479, 927883, 928278, 928688, 929032, 929445, 929800, 930205, 930627, 931014, 931404, 931792, 932203, 932573, 932954, 933386, 933755, 934139]","[84, 102, 102, 115, 70, 122, 51, 85, 83, 51, 87, 86, 24, 38, 56, 36, 85, 45, 49, 62]","[926490, 926931, 927337, 927713, 928136, 928494, 928876, 929268, 929635, 930024, 930413, 930829, 931184, 931589, 931976, 932365, 932787, 933170, 933556, 933926]","[924963, 925362, 925762, 926162, 926562, 926962, 927362, 927762, 928153, 928512, 928894, 929286, 929652, 930041, 930430, 930846, 931202, 931606, 931993, 932382, 932804, 933187, 933574, 933943]",81,EM,U,R,ITMSR,1.1,
4,400,trial,0,45,45,45,trial,"['S', 'S', 'S', 'S', 'S', 'S', 'C', 'C', 'C', 'C', 'C', 'C', 'C', 'C', 'C', 'C', 'C', 'C', 'C', 'C', 'C', 'C']","[940462, 940849, 941259, 941683, 942070, 942511, 942922, 943318, 943731, 944147, 944544, 944964, 945394, 945783, 946204, 946639, 947016, 947490, 947958, 948387, 948842, 949278]","[940609, 941072, 941477, 941867, 942245, 942656, 943058, 943507, 943953, 944394, 944785, 945256, 945635, 946048, 946506, 946889, 947333, 947756, 948226, 948617, 949026, 949543]","[65, 111, 115, 117, 81, 86, 110, 115, 112, 96, 75, 108, 110, 92, 104, 102, 94, 80, 99, 123, 119, 126]","[940539, 940851, 941261, 941685, 942072, 942515, 942925, 943321, 943733, 944150, 944547, 944966, 945476, 945941, 946206, 946642, 947172, 947492, 947960, 948390, 948844, 949393]","[939715, 940115, 940515, 940915, 941315, 941715, 942115, 942515, 942942, 943338, 943751, 944167, 944564, 944984, 945414, 945803, 946224, 946659, 947036, 947510, 947978, 948407, 948862, 949298]",81,EM,U,R,ITMSR,1.1,
4,600,trial,0,46,46,46,trial,"['S', 'S', 'S', 'S', 'S', 'S', 'S', 'C', 'C', 'C', 'C', 'C', 'C', 'C', 'C', 'C', 'C', 'C', 'C', 'C', 'C', 'C', 'C']","[955144, 955801, 956454, 957068, 957657, 958327, 958972, 959566, 960184, 960802, 961404, 962038, 962652, 963230, 963827, 964423, 965048, 965656, 966225, 966902, 967473, 968055, 968628]","[955292, 956041, 956744, 957417, 958071, 958725, 959343, 959985, 960619, 961186, 961866, 962446, 963001, 963620, 964239, 964845, 965452, 966004, 966633, 967255, 967824, 968444]","[63, 127, 137, 124, 120, 116, 151, 143, 108, 127, 113, 119, 122, 119, 109, 103, 116, 116, 113, 119, 103, 104]","[955147, 955908, 956456, 957252, 957843, 958489, 959128, 959801, 960187, 960804, 961406, 962040, 962654, 963483, 963830, 964425, 965051, 965659, 966227, 966904, 967660, 968057]","[954804, 955404, 956004, 956604, 957204, 957804, 958404, 959004, 959586, 960204, 960822, 961424, 962058, 962672, 963250, 963847, 964443, 965068, 965677, 966245, 966922, 967493, 968075, 968648]",81,EM,U,R,ITMSR,1.1,
0,600,trial,0,47,47,47,trial,"['S', 'S', 'S', 'S', 'S', 'S', 'C', 'C', 'C', 'C', 'C', 'C', 'C', 'C', 'C', 'C', 'C', 'C', 'C', 'C', 'C', 'C']","[975408, 975989, 976606, 977183, 977797, 978411, 978980, 979636, 980233, 980817, 981400, 982036, 982642, 983231, 983819, 984492, 985098, 985716, 986318, 986916, 987523, 988107]","[975723, 976348, 976937, 977552, 978184, 978775, 979434, 979999, 980614, 981181, 981818, 982404, 982989, 983590, 984260, 984861, 985467, 986102, 986663, 987298, 987900]","[105, 117, 102, 126, 115, 117, 45, 49, 65, 63, 47, 239, 4, 219, 214, 206, 253, 0, 223, 254, 166]","[975411, 975992, 976609, 977186, 977800, 978414, 978983, 979638, 980236, 980819, 981403, 982038, 982647, 983234, 983823, 984495, 985100, 985718, 986321, 986919, 987527]","[974266, 974865, 975465, 976065, 976665, 977265, 977865, 978465, 979000, 979656, 980253, 980837, 981421, 982056, 982662, 983251, 983839, 984512, 985118, 985736, 986338, 986936, 987543, 988127]",81,EM,U,R,ITMSR,1.1,
1,600,trial,0,48,48,48,trial,"['S', 'S', 'S', 'S', 'S', 'S', 'S', 'C', 'C', 'C', 'C', 'C', 'C', 'C', 'C', 'C', 'C', 'C', 'C', 'C', 'C', 'C', 'C']","[994058, 994577, 995161, 995809, 996465, 997097, 997715, 998315, 998978, 999552, 1000145, 1000747, 1001388, 1002010, 1002606, 1003222, 1003823, 1004423, 1005002, 1005581, 1006168, 1006756, 1007355]","[994269, 994895, 995590, 996253, 996876, 997452, 998062, 998649, 999222, 999882, 1000535, 1001159, 1001759, 1002373, 1003017, 1003633, 1004193, 1004775, 1005384, 1005986, 1006544, 1007114]","[50, 250, 223, 136, 145, 148, 132, 160, 150, 158, 223, 119, 143, 115, 157, 30, 206, 207, 208, 247, 254, 29]","[994060, 994579, 995289, 995814, 996470, 997100, 997720, 998318, 998980, 999726, 1000148, 1001005, 1001391, 1002014, 1002609, 1003513, 1004000, 1004560, 1005186, 1005761, 1006433, 1007020]","[993537, 994136, 994736, 995336, 995936, 996536, 997136, 997736, 998335, 998999, 999572, 1000165, 1000767, 1001408, 1002030, 1002626, 1003242, 1003843, 1004443, 1005022, 1005601, 1006188, 1006776, 1007375]",81,EM,U,R,ITMSR,1.1,
3,600,trial,0,49,49,49,trial,"['S', 'S', 'S', 'S', 'S', 'S', 'S', 'C', 'C', 'C', 'C', 'C', 'C', 'C', 'C', 'C', 'C', 'C', 'C', 'C', 'C', 'C', 'C', 'C']","[1013482, 1014136, 1014810, 1015386, 1015998, 1016607, 1017201, 1017793, 1018419, 1019016, 1019600, 1020167, 1020775, 1021379, 1022006, 1022567, 1023197, 1023788, 1024380, 1024983, 1025575, 1026135, 1026744, 1026844]","[1013889, 1014637, 1015182, 1015775, 1016371, 1016983, 1017546, 1018199, 1018793, 1019414, 1020006, 1020590, 1021195, 1021780, 1022397, 1023025, 1023596, 1024238, 1024732, 1025391, 1025963, 1026560, 1026764]","[206, 218, 16, 137, 212, 215, 248, 243, 211, 226, 244, 250, 219, 242, 32, 27, 24, 253, 60, 169, 142, 7, 2]","[1013566, 1014142, 1014811, 1015485, 1016003, 1016609, 1017203, 1017794, 1018689, 1019018, 1019845, 1020346, 1020780, 1021522, 1022012, 1022704, 1023452, 1024023, 1024523, 1024989, 1025681, 1026426, 1026744]","[1013083, 1013682, 1014282, 1014882, 1015482, 1016082, 1016682, 1017282, 1017814, 1018439, 1019036, 1019620, 1020187, 1020795, 1021400, 1022026, 1022587, 1023217, 1023808, 1024400, 1025003, 1025595, 1026155, 1026764]",81,EM,U,R,ITMSR,1.1,
5,400,trial,0,50,50,50,trial,"['S', 'S', 'S', 'S', 'S', 'S', 'S', 'C', 'C', 'C', 'C', 'C', 'C', 'C', 'C', 'C', 'C', 'C', 'C', 'C', 'C', 'C', 'C']","[1032579, 1032989, 1033383, 1033766, 1034148, 1034530, 1034948, 1035344, 1035766, 1036172, 1036570, 1036972, 1037383, 1037797, 1038205, 1038629, 1039113, 1039500, 1039925, 1040358, 1040772, 1041203, 1041630]","[1032767, 1033233, 1033617, 1034010, 1034377, 1034800, 1035181, 1035596, 1036027, 1036436, 1036831, 1037246, 1037637, 1038063, 1038494, 1038876, 1039340, 1039724, 1040212, 1040580, 1041051, 1041442, 1041878]","[205, 40, 90, 94, 53, 79, 39, 63, 106, 127, 131, 131, 125, 118, 149, 143, 161, 149, 172, 132, 161, 154, 158]","[1032671, 1033071, 1033472, 1033856, 1034226, 1034637, 1034954, 1035431, 1035848, 1036303, 1036675, 1037123, 1037532, 1037928, 1038345, 1038749, 1039253, 1039604, 1040082, 1040446, 1040907, 1041308, 1041726]","[1032200, 1032600, 1033000, 1033400, 1033800, 1034200, 1034600, 1035000, 1035364, 1035786, 1036192, 1036590, 1036992, 1037403, 1037817, 1038225, 1038649, 1039133, 1039520, 1039945, 1040378, 1040792, 1041223, 1041650]",81,EM,U,R,ITMSR,1.1,
0,400,trial,0,51,51,51,trial,"['S', 'S', 'S', 'S', 'S', 'S', 'C', 'C', 'C', 'C', 'C', 'C', 'C', 'C', 'C', 'C', 'C', 'C', 'C', 'C', 'C', 'C']","[1048150, 1048561, 1048999, 1049407, 1049822, 1050232, 1050642, 1051085, 1051460, 1051855, 1052277, 1052665, 1053083, 1053493, 1053876, 1054277, 1054655, 1055076, 1055460, 1055825, 1056244, 1056658]","[1048340, 1048826, 1049182, 1049604, 1050083, 1050426, 1050901, 1051253, 1051637, 1052061, 1052473, 1052895, 1053328, 1053683, 1054115, 1054475, 1054862, 1055287, 1055669, 1056082, 1056474, 1056889]","[84, 125, 124, 129, 135, 112, 127, 121, 86, 127, 131, 132, 116, 103, 118, 128, 122, 134, 125, 131, 138, 135]","[1048154, 1048564, 1049003, 1049409, 1049824, 1050235, 1050644, 1051088, 1051464, 1051858, 1052280, 1052667, 1053085, 1053494, 1053879, 1054279, 1054658, 1055078, 1055463, 1055827, 1056247, 1056661]","[1047428, 1047828, 1048228, 1048628, 1049028, 1049428, 1049828, 1050228, 1050662, 1051105, 1051480, 1051875, 1052297, 1052685, 1053103, 1053513, 1053896, 1054297, 1054675, 1055096, 1055480, 1055845, 1056264, 1056678]",81,EM,U,R,ITMSR,1.1,
4,600,trial,0,52,52,52,trial,"['S', 'S', 'S', 'S', 'S', 'S', 'S', 'C', 'C', 'C', 'C', 'C', 'C', 'C', 'C', 'C', 'C', 'C', 'C', 'C', 'C', 'C', 'C']","[1062718, 1063141, 1063911, 1064566, 1065153, 1065804, 1066378, 1067011, 1067668, 1068307, 1068902, 1069438, 1070051, 1070594, 1071113, 1071719, 1072272, 1072815, 1073377, 1073937, 1074488, 1075040, 1075599]","[1062897, 1063458, 1064097, 1064744, 1065349, 1065953, 1066583, 1067224, 1067908, 1068532, 1069090, 1069665, 1070330, 1070928, 1071456, 1072049, 1072635, 1073135, 1073704, 1074275, 1074830, 1075375]","[69, 105, 119, 129, 129, 99, 118, 137, 132, 87, 98, 130, 126, 125, 95, 107, 129, 139, 145, 149, 145, 152]","[1062786, 1063268, 1064010, 1064671, 1065253, 1065874, 1066480, 1067130, 1067787, 1068416, 1069006, 1069566, 1070160, 1070770, 1071310, 1071722, 1072510, 1072970, 1073603, 1074083, 1074663, 1075219]","[1062378, 1062978, 1063578, 1064178, 1064778, 1065378, 1065978, 1066578, 1067031, 1067688, 1068327, 1068922, 1069458, 1070071, 1070614, 1071133, 1071739, 1072292, 1072835, 1073397, 1073957, 1074508, 1075060, 1075619]",81,EM,U,R,ITMSR,1.1,
2,400,trial,0,53,53,53,trial,"['S', 'S', 'S', 'S', 'S', 'S', 'S', 'C', 'C', 'C', 'C', 'C', 'C', 'C', 'C', 'C', 'C', 'C', 'C', 'C', 'C', 'C', 'C']","[1081693, 1082046, 1082422, 1082819, 1083199, 1083624, 1084006, 1084413, 1084754, 1085156, 1085552, 1085967, 1086375, 1086749, 1087172, 1087578, 1087977, 1088373, 1088765, 1089206, 1089603, 1090036, 1090422]","[1081874, 1082231, 1082688, 1083042, 1083495, 1083862, 1084237, 1084624, 1085012, 1085418, 1085835, 1086243, 1086601, 1087049, 1087426, 1087834, 1088232, 1088649, 1089059, 1089425, 1089903, 1090251]","[79, 100, 107, 138, 123, 150, 136, 150, 157, 155, 151, 152, 146, 140, 152, 143, 157, 148, 151, 115, 165, 164]","[1081786, 1082132, 1082500, 1082906, 1083311, 1083734, 1084096, 1084508, 1084858, 1085295, 1085663, 1086062, 1086477, 1086929, 1087298, 1087673, 1088097, 1088512, 1088928, 1089302, 1089794, 1090152]","[1081257, 1081656, 1082056, 1082456, 1082856, 1083256, 1083656, 1084056, 1084433, 1084774, 1085176, 1085572, 1085987, 1086395, 1086769, 1087192, 1087598, 1087997, 1088393, 1088785, 1089226, 1089624, 1090056, 1090442]",81,EM,U,R,ITMSR,1.1,
0,400,trial,0,54,54,54,trial,"['S', 'S', 'S', 'S', 'S', 'S', 'S', 'C', 'C', 'C', 'C', 'C', 'C', 'C', 'C', 'C', 'C', 'C', 'C', 'C', 'C', 'C', 'C']","[1134441, 1134796, 1135209, 1135609, 1136040, 1136420, 1136835, 1137236, 1137660, 1138079, 1138485, 1138877, 1139317, 1139743, 1140139, 1140538, 1140973, 1141372, 1141763, 1142148, 1142567, 1142960, 1143412]","[1134579, 1134992, 1135448, 1135853, 1136264, 1136690, 1137080, 1137499, 1137912, 1138344, 1138716, 1139182, 1139512, 1139990, 1140378, 1140762, 1141147, 1141613, 1141982, 1142412, 1142828, 1143223, 1143642]","[131, 142, 155, 148, 121, 134, 99, 100, 83, 105, 113, 81, 61, 87, 77, 79, 89, 112, 107, 103, 116, 85, 117]","[1134522, 1134920, 1135299, 1135700, 1136149, 1136423, 1136924, 1137374, 1137664, 1138265, 1138603, 1139087, 1139412, 1139849, 1140260, 1140660, 1141044, 1141500, 1141859, 1142262, 1142740, 1143063, 1143526]","[1134070, 1134470, 1134870, 1135270, 1135670, 1136070, 1136471, 1136870, 1137256, 1137680, 1138099, 1138505, 1138897, 1139337, 1139763, 1140159, 1140558, 1140994, 1141392, 1141783, 1142168, 1142587, 1142980, 1143432]",81,EM,U,R,ITMSR,1.1,
2,400,trial,0,55,55,55,trial,"['S', 'S', 'S', 'S', 'S', 'S', 'S', 'C', 'C', 'C', 'C', 'C', 'C', 'C', 'C', 'C', 'C', 'C', 'C', 'C', 'C', 'C', 'C']","[1149211, 1149554, 1149978, 1150352, 1150757, 1151162, 1151571, 1151964, 1152388, 1152802, 1153196, 1153599, 1154020, 1154426, 1154836, 1155265, 1155663, 1156081, 1156485, 1156870, 1157271, 1157678, 1158112]","[1149363, 1149790, 1150191, 1150602, 1151020, 1151418, 1151823, 1152247, 1152664, 1153057, 1153464, 1153881, 1154287, 1154688, 1155142, 1155507, 1155945, 1156316, 1156730, 1157133, 1157524, 1157914, 1158335]","[79, 112, 134, 157, 139, 148, 153, 157, 148, 160, 159, 153, 97, 121, 135, 131, 140, 136, 136, 137, 115, 135, 149]","[1149287, 1149662, 1150063, 1150491, 1150866, 1151295, 1151681, 1152080, 1152518, 1152928, 1153316, 1153744, 1154183, 1154576, 1154983, 1155357, 1155801, 1156184, 1156589, 1157010, 1157393, 1157800, 1158219]","[1148826, 1149227, 1149626, 1150026, 1150426, 1150826, 1151226, 1151626, 1151984, 1152408, 1152822, 1153216, 1153619, 1154040, 1154446, 1154856, 1155286, 1155683, 1156101, 1156505, 1156890, 1157292, 1157698, 1158132]",81,EM,U,R,ITMSR,1.1,
2,600,trial,0,56,56,56,trial,"['S', 'S', 'S', 'S', 'S', 'S', 'S', 'C', 'C', 'C', 'C', 'C', 'C', 'C', 'C', 'C', 'C', 'C', 'C', 'C', 'C', 'C', 'C']","[1164345, 1164777, 1165483, 1166072, 1166688, 1167361, 1167992, 1168579, 1169270, 1169812, 1170418, 1170950, 1171486, 1172044, 1172603, 1173137, 1173672, 1174207, 1174745, 1175283, 1175803, 1176354, 1176884]","[1164489, 1165019, 1165699, 1166271, 1166857, 1167549, 1168174, 1168768, 1169441, 1170024, 1170638, 1171236, 1171768, 1172350, 1172898, 1173446, 1174047, 1174537, 1175100, 1175588, 1176212, 1176675]","[115, 155, 139, 150, 127, 138, 125, 138, 137, 127, 113, 109, 93, 47, 57, 62, 77, 81, 72, 83, 105, 73]","[1164406, 1164930, 1165595, 1166194, 1166790, 1167478, 1168084, 1168713, 1169350, 1169933, 1170503, 1171055, 1171593, 1172178, 1172729, 1173291, 1173807, 1174385, 1174921, 1175428, 1175981, 1176494]","[1163922, 1164522, 1165122, 1165722, 1166322, 1166922, 1167522, 1168122, 1168600, 1169290, 1169832, 1170438, 1170970, 1171506, 1172064, 1172623, 1173157, 1173692, 1174227, 1174765, 1175303, 1175823, 1176374, 1176904]",81,EM,U,R,ITMSR,1.1,
2,600,trial,0,57,57,57,trial,"['S', 'S', 'S', 'S', 'S', 'S', 'S', 'C', 'C', 'C', 'C', 'C', 'C', 'C', 'C', 'C', 'C', 'C', 'C', 'C', 'C', 'C', 'C', 'C', 'C', 'C', 'C', 'C', 'C', 'C']","[1182551, 1183117, 1183703, 1184361, 1184947, 1185641, 1186257, 1186864, 1187525, 1188108, 1188208, 1188683, 1189255, 1189848, 1190476, 1191048, 1191550, 1191650, 1192202, 1192302, 1192767, 1192867, 1193330, 1193430, 1193879, 1194553, 1194653, 1195191, 1195776, 1195876]","[1182849, 1183511, 1183928, 1184532, 1185132, 1185783, 1186391, 1187011, 1187708, 1188128, 1188359, 1188967, 1189573, 1190113, 1190734, 1191337, 1191570, 1191906, 1192222, 1192542, 1192787, 1193089, 1193350, 1193666, 1194231, 1194573, 1194804, 1195410, 1195796, 1195944]","[68, 68, 191, 7, 162, 195, 141, 200, 231, 138, 16, 202, 223, 224, 217, 194, 122, 100, 162, 38, 131, 83, 76, 51, 166, 71, 224, 125, 148, 203]","[1182633, 1183239, 1183791, 1184459, 1185058, 1185727, 1186262, 1186867, 1187528, 1188113, 1188230, 1188688, 1189259, 1189851, 1190480, 1191052, 1191556, 1191660, 1192207, 1192324, 1192771, 1193013, 1193335, 1193583, 1193884, 1194558, 1194715, 1195354, 1195780, 1195879]","[1182198, 1182798, 1183398, 1183998, 1184599, 1185198, 1185798, 1186398, 1186884, 1187545, 1188128, 1188703, 1189275, 1189868, 1190496, 1191068, 1191570, 1192222, 1192787, 1193350, 1193900, 1194573, 1195211, 1195796]",81,EM,U,R,ITMSR,1.1,
5,600,trial,0,58,58,58,trial,"['S', 'S', 'S', 'S', 'S', 'S', 'S', 'C', 'C', 'C', 'C', 'C', 'C', 'C', 'C', 'C', 'C', 'C', 'C', 'C', 'C', 'C', 'C']","[1201893, 1202424, 1202985, 1203584, 1204150, 1204724, 1205348, 1205992, 1206605, 1207187, 1207725, 1208275, 1208835, 1209384, 1209927, 1210489, 1210984, 1211545, 1212064, 1212595, 1213117, 1213655, 1214181]","[1202102, 1202581, 1203120, 1203708, 1204299, 1204883, 1205498, 1206132, 1206767, 1207322, 1207894, 1208494, 1209109, 1209676, 1210268, 1210758, 1211308, 1211843, 1212388, 1212913, 1213445, 1213978]","[22, 203, 214, 3, 52, 40, 19, 13, 30, 190, 233, 245, 191, 29, 209, 165, 39, 12, 35, 1, 37, 255]","[1201994, 1202501, 1203065, 1203589, 1204154, 1204812, 1205437, 1206061, 1206696, 1207192, 1207728, 1208280, 1208839, 1209389, 1210010, 1210496, 1210987, 1211548, 1212069, 1212700, 1213122, 1213660]","[1201447, 1202048, 1202648, 1203248, 1203848, 1204448, 1205048, 1205648, 1206012, 1206625, 1207207, 1207745, 1208295, 1208855, 1209404, 1209947, 1210509, 1211004, 1211565, 1212084, 1212615, 1213137, 1213675, 1214201]",81,EM,U,R,ITMSR,1.1,
5,400,trial,0,59,59,59,trial,"['S', 'S', 'S', 'S', 'S', 'S', 'S', 'C', 'C', 'C', 'C', 'C', 'C', 'C', 'C', 'C', 'C', 'C', 'C', 'C', 'C', 'C', 'C']","[1219844, 1220241, 1220764, 1221174, 1221588, 1221981, 1222362, 1222747, 1223197, 1223559, 1223957, 1224336, 1224709, 1225124, 1225489, 1225885, 1226263, 1226664, 1227059, 1227442, 1227808, 1228194, 1228591]","[1219996, 1220433, 1220958, 1221356, 1221794, 1222171, 1222577, 1222977, 1223380, 1223780, 1224177, 1224550, 1224931, 1225324, 1225692, 1226091, 1226488, 1226897, 1227287, 1227652, 1228039, 1228431, 1228850]","[76, 66, 79, 94, 135, 100, 109, 113, 62, 83, 58, 36, 69, 55, 56, 242, 58, 29, 59, 61, 83, 82, 105]","[1219907, 1220327, 1220838, 1221274, 1221697, 1222083, 1222452, 1222847, 1223288, 1223673, 1224055, 1224416, 1224841, 1225230, 1225582, 1225972, 1226267, 1226782, 1227174, 1227533, 1227929, 1228314, 1228709]","[1219680, 1220080, 1220481, 1220880, 1221280, 1221680, 1222080, 1222480, 1222767, 1223217, 1223579, 1223977, 1224356, 1224729, 1225144, 1225509, 1225905, 1226284, 1226684, 1227079, 1227462, 1227828, 1228214, 1228611]",81,EM,U,R,ITMSR,1.1,
5,400,trial,0,60,60,60,trial,"['S', 'S', 'S', 'S', 'S', 'S', 'S', 'C', 'C', 'C', 'C', 'C', 'C', 'C', 'C', 'C', 'C', 'C', 'C', 'C', 'C', 'C', 'C']","[1234390, 1234675, 1235088, 1235487, 1235945, 1236305, 1236852, 1237242, 1237708, 1238131, 1238555, 1238978, 1239368, 1239776, 1240168, 1240583, 1240960, 1241376, 1241776, 1242162, 1242561, 1242936, 1243343]","[1234532, 1234874, 1235268, 1235694, 1236111, 1236530, 1237013, 1237472, 1237917, 1238346, 1238738, 1239142, 1239586, 1240009, 1240347, 1240756, 1241161, 1241569, 1241979, 1242331, 1242737, 1243104, 1243524]","[29, 83, 82, 67, 81, 70, 76, 68, 229, 48, 250, 177, 33, 39, 244, 8, 142, 117, 86, 140, 253, 188, 251]","[1234448, 1234751, 1235175, 1235593, 1236036, 1236416, 1236944, 1237367, 1237826, 1238246, 1238658, 1239064, 1239467, 1239904, 1240259, 1240667, 1241046, 1241464, 1241868, 1242168, 1242566, 1242942, 1243433]","[1234182, 1234582, 1234982, 1235382, 1235782, 1236183, 1236582, 1236982, 1237262, 1237728, 1238151, 1238575, 1238999, 1239388, 1239796, 1240188, 1240603, 1240980, 1241396, 1241796, 1242182, 1242582, 1242956, 1243363]",81,EM,U,R,ITMSR,1.1,
4,400,trial,0,61,61,61,trial,"['S', 'S', 'S', 'S', 'S', 'S', 'S', 'S', 'C', 'C', 'C', 'C', 'C', 'C', 'C', 'C', 'C', 'C', 'C', 'C', 'C', 'C', 'C', 'C']","[1248856, 1249171, 1249533, 1249907, 1250262, 1250663, 1251055, 1251489, 1251886, 1252302, 1252709, 1253111, 1253508, 1253898, 1254309, 1254702, 1255096, 1255487, 1255866, 1256285, 1256669, 1257077, 1257479, 1257850]","[1248945, 1249321, 1249686, 1250088, 1250465, 1250862, 1251256, 1251674, 1252088, 1252505, 1252951, 1253306, 1253718, 1254112, 1254521, 1254922, 1255322, 1255697, 1256101, 1256512, 1256884, 1257266, 1257651, 1258062]","[20, 58, 34, 110, 76, 36, 63, 39, 24, 12, 81, 48, 59, 67, 83, 87, 90, 68, 87, 113, 99, 100, 83, 80]","[1248863, 1249176, 1249618, 1249981, 1250360, 1250668, 1251158, 1251495, 1251979, 1252308, 1252814, 1253208, 1253624, 1254016, 1254413, 1254810, 1255211, 1255602, 1255983, 1256400, 1256773, 1257172, 1257572, 1257972]","[1248686, 1249086, 1249486, 1249886, 1250286, 1250686, 1251086, 1251486, 1251906, 1252322, 1252729, 1253131, 1253528, 1253918, 1254329, 1254722, 1255116, 1255507, 1255886, 1256305, 1256689, 1257097, 1257499, 1257870]",81,EM,U,R,ITMSR,1.1,
1,600,trial,0,62,62,62,trial,"['S', 'S', 'S', 'S', 'S', 'S', 'S', 'C', 'C', 'C', 'C', 'C', 'C', 'C', 'C', 'C', 'C', 'C', 'C', 'C', 'C', 'C', 'C']","[1263860, 1264411, 1265003, 1265612, 1266230, 1266813, 1267422, 1268054, 1268658, 1269223, 1269804, 1270373, 1270970, 1271538, 1272118, 1272712, 1273290, 1273868, 1274437, 1275023, 1275600, 1276200, 1276762]","[1264052, 1264740, 1265390, 1266001, 1266629, 1267237, 1267867, 1268489, 1269026, 1269614, 1270193, 1270779, 1271349, 1271948, 1272508, 1273100, 1273649, 1274274, 1274841, 1275410, 1275985, 1276562]","[214, 216, 217, 241, 33, 15, 20, 243, 255, 8, 255, 4, 223, 236, 183, 139, 180, 219, 167, 184, 194, 215]","[1263934, 1264507, 1265007, 1265617, 1266236, 1266925, 1267428, 1268151, 1268844, 1269414, 1270016, 1270538, 1271079, 1271712, 1272373, 1272719, 1273296, 1274087, 1274558, 1275239, 1275778, 1276311]","[1263353, 1263953, 1264553, 1265154, 1265754, 1266354, 1266954, 1267554, 1268074, 1268678, 1269243, 1269824, 1270393, 1270990, 1271558, 1272138, 1272732, 1273310, 1273888, 1274457, 1275043, 1275620, 1276220, 1276782]",81,EM,U,R,ITMSR,1.1,
3,600,trial,0,63,63,63,trial,"['S', 'S', 'S', 'S', 'S', 'S', 'S', 'S', 'C', 'C', 'C', 'C', 'C', 'C', 'C', 'C', 'C', 'C', 'C', 'C', 'C', 'C', 'C', 'C']","[1282681, 1283033, 1283534, 1284118, 1284725, 1285341, 1285939, 1286535, 1287176, 1287822, 1288420, 1289010, 1289609, 1290168, 1290778, 1291338, 1291905, 1292483, 1293067, 1293647, 1294153, 1294777, 1295367, 1295959]","[1282836, 1283309, 1283905, 1284526, 1285209, 1285718, 1286347, 1286960, 1287643, 1288197, 1288813, 1289402, 1289966, 1290622, 1291138, 1291723, 1292316, 1292853, 1293463, 1294015, 1294605, 1295166, 1295789]","[2, 27, 10, 244, 243, 255, 237, 228, 252, 11, 7, 253, 9, 234, 19, 24, 28, 24, 23, 33, 24, 35, 39]","[1282747, 1283146, 1283628, 1284214, 1284833, 1285463, 1286091, 1286687, 1287478, 1288030, 1288593, 1289191, 1289804, 1290354, 1290982, 1291524, 1292101, 1292705, 1293323, 1293899, 1294407, 1295039, 1295635]","[1282471, 1283072, 1283672, 1284272, 1284872, 1285472, 1286072, 1286672, 1287196, 1287842, 1288440, 1289030, 1289629, 1290188, 1290798, 1291358, 1291925, 1292504, 1293087, 1293667, 1294173, 1294797, 1295387, 1295979]",81,EM,U,R,ITMSR,1.1,
0,600,trial,0,64,64,64,trial,"['S', 'S', 'S', 'S', 'S', 'S', 'S', 'C', 'C', 'C', 'C', 'C', 'C', 'C', 'C', 'C', 'C', 'C', 'C', 'C', 'C', 'C', 'C']","[1302124, 1302608, 1303199, 1303839, 1304450, 1305044, 1305637, 1306240, 1306855, 1307410, 1307999, 1308561, 1309136, 1309696, 1310300, 1310874, 1311455, 1312035, 1312636, 1313235, 1313810, 1314406, 1315017]","[1302301, 1302985, 1303632, 1304256, 1304826, 1305476, 1306012, 1306674, 1307216, 1307819, 1308402, 1308973, 1309537, 1310104, 1310636, 1311236, 1311865, 1312450, 1313059, 1313640, 1314199, 1314782]","[111, 118, 114, 115, 77, 108, 122, 136, 120, 142, 123, 140, 133, 134, 110, 135, 143, 110, 118, 131, 139, 101]","[1302192, 1302705, 1303202, 1303842, 1304453, 1305048, 1305640, 1306243, 1306858, 1307576, 1308002, 1308765, 1309411, 1309919, 1310528, 1311127, 1311686, 1312039, 1312782, 1313467, 1313813, 1314410]","[1301504, 1302104, 1302704, 1303304, 1303904, 1304504, 1305104, 1305704, 1306260, 1306875, 1307430, 1308019, 1308581, 1309156, 1309716, 1310320, 1310894, 1311475, 1312055, 1312656, 1313255, 1313830, 1314426, 1315037]",81,EM,U,R,ITMSR,1.1,
1,600,trial,0,65,65,65,trial,"['S', 'S', 'S', 'S', 'S', 'S', 'S', 'S', 'C', 'C', 'C', 'C', 'C', 'C', 'C', 'C', 'C', 'C', 'C', 'C', 'C', 'C', 'C', 'C']","[1320660, 1321005, 1321539, 1322144, 1322796, 1323383, 1323983, 1324596, 1325169, 1325785, 1326357, 1326941, 1327524, 1328108, 1328690, 1329301, 1329890, 1330452, 1331027, 1331640, 1332245, 1332835, 1333381, 1333999]","[1320806, 1321313, 1321962, 1322556, 1323212, 1323756, 1324354, 1324958, 1325573, 1326180, 1326759, 1327371, 1327927, 1328528, 1329092, 1329721, 1330282, 1330866, 1331462, 1332072, 1332680, 1333194, 1333773]","[123, 124, 96, 106, 50, 30, 76, 101, 119, 76, 114, 78, 75, 119, 129, 122, 122, 114, 98, 123, 77, 79, 141]","[1320721, 1321094, 1321543, 1322147, 1322800, 1323385, 1323986, 1324598, 1325172, 1325788, 1326360, 1326944, 1327643, 1328111, 1328856, 1329304, 1329893, 1330455, 1331030, 1331642, 1332247, 1333047, 1333580]","[1320457, 1321057, 1321657, 1322257, 1322857, 1323457, 1324057, 1324657, 1325189, 1325805, 1326377, 1326961, 1327544, 1328129, 1328710, 1329321, 1329910, 1330472, 1331047, 1331660, 1332265, 1332855, 1333401, 1334019]",81,EM,U,R,ITMSR,1.1,
3,400,trial,0,66,66,66,trial,"['S', 'S', 'S', 'S', 'S', 'S', 'S', 'C', 'C', 'C', 'C', 'C', 'C', 'C', 'C', 'C', 'C', 'C', 'C', 'C', 'C', 'C', 'C']","[1339751, 1340143, 1340536, 1340952, 1341348, 1341730, 1342126, 1342531, 1342959, 1343356, 1343775, 1344151, 1344600, 1345024, 1345437, 1345868, 1346248, 1346667, 1347108, 1347533, 1347947, 1348372, 1348834]","[1339909, 1340367, 1340791, 1341188, 1341554, 1341958, 1342346, 1342789, 1343211, 1343634, 1344005, 1344465, 1344894, 1345273, 1345707, 1346077, 1346501, 1346961, 1347391, 1347807, 1348248, 1348705, 1349099]","[51, 57, 36, 51, 38, 45, 35, 102, 118, 102, 47, 95, 82, 71, 110, 62, 64, 96, 117, 117, 104, 134, 104]","[1339825, 1340145, 1340542, 1341043, 1341437, 1341844, 1342220, 1342630, 1343091, 1343496, 1343877, 1344318, 1344755, 1345157, 1345603, 1345988, 1346355, 1346842, 1347270, 1347690, 1348091, 1348581, 1348975]","[1339395, 1339794, 1340194, 1340594, 1340994, 1341394, 1341794, 1342194, 1342552, 1342979, 1343376, 1343795, 1344172, 1344620, 1345044, 1345457, 1345888, 1346268, 1346688, 1347128, 1347553, 1347968, 1348392, 1348854]",81,EM,U,R,ITMSR,1.1,
4,400,trial,0,67,67,67,trial,"['S', 'S', 'S', 'S', 'S', 'S', 'S', 'C', 'C', 'C', 'C', 'C', 'C', 'C', 'C', 'C', 'C', 'C', 'C', 'C', 'C', 'C', 'C']","[1354558, 1354877, 1355285, 1355699, 1356081, 1356455, 1356872, 1357274, 1357684, 1358069, 1358468, 1358828, 1359265, 1359639, 1360060, 1360462, 1360847, 1361265, 1361661, 1362068, 1362430, 1362796, 1363204]","[1354675, 1355140, 1355509, 1355898, 1356271, 1356689, 1357052, 1357517, 1357921, 1358283, 1358674, 1359067, 1359496, 1359851, 1360280, 1360658, 1361042, 1361500, 1361873, 1362270, 1362618, 1363064, 1363449]","[30, 30, 69, 91, 76, 105, 53, 35, 22, 49, 34, 32, 97, 139, 210, 42, 222, 180, 218, 41, 37, 161, 100]","[1354603, 1354957, 1355375, 1355766, 1356154, 1356569, 1356962, 1357389, 1357830, 1358169, 1358561, 1358934, 1359379, 1359745, 1360153, 1360577, 1360886, 1361430, 1361768, 1362172, 1362510, 1362911, 1363330]","[1354166, 1354566, 1354967, 1355366, 1355766, 1356166, 1356566, 1356966, 1357294, 1357704, 1358089, 1358488, 1358849, 1359285, 1359660, 1360080, 1360482, 1360867, 1361285, 1361681, 1362088, 1362450, 1362817, 1363224]",81,EM,U,R,ITMSR,1.1,
1,400,trial,0,68,68,68,trial,"['S', 'S', 'S', 'S', 'S', 'S', 'S', 'C', 'C', 'C', 'C', 'C', 'C', 'C', 'C', 'C', 'C', 'C', 'C', 'C', 'C', 'C', 'C']","[1369261, 1369638, 1370018, 1370396, 1370796, 1371188, 1371569, 1372001, 1372445, 1372868, 1373303, 1373700, 1374075, 1374515, 1374946, 1375351, 1375797, 1376245, 1376603, 1377038, 1377489, 1377907, 1378324]","[1369421, 1369837, 1370205, 1370575, 1370978, 1371401, 1371825, 1372275, 1372677, 1373117, 1373530, 1373933, 1374360, 1374792, 1375188, 1375597, 1376004, 1376412, 1376852, 1377308, 1377703, 1378111, 1378497]","[223, 253, 196, 244, 184, 46, 242, 230, 180, 185, 121, 185, 183, 177, 82, 51, 31, 15, 251, 14, 227, 25, 8]","[1369329, 1369722, 1370106, 1370485, 1370897, 1371291, 1371679, 1372140, 1372579, 1372982, 1373393, 1373807, 1374249, 1374670, 1375065, 1375355, 1375803, 1376250, 1376609, 1377044, 1377495, 1377913, 1378330]","[1368943, 1369342, 1369742, 1370142, 1370542, 1370942, 1371342, 1371742, 1372021, 1372465, 1372888, 1373323, 1373720, 1374095, 1374535, 1374966, 1375371, 1375817, 1376265, 1376623, 1377058, 1377509, 1377927, 1378344]",81,EM,U,R,ITMSR,1.1,
1,400,trial,0,69,69,69,trial,"['S', 'S', 'S', 'S', 'S', 'S', 'S', 'C', 'C', 'C', 'C', 'C', 'C', 'C', 'C', 'C', 'C', 'C', 'C', 'C', 'C', 'C', 'C']","[1384143, 1384516, 1384952, 1385342, 1385741, 1386168, 1386561, 1386963, 1387379, 1387770, 1388153, 1388538, 1388977, 1389364, 1389771, 1390189, 1390541, 1390954, 1391375, 1391796, 1392195, 1392623, 1393005]","[1384264, 1384721, 1385159, 1385543, 1385986, 1386385, 1386796, 1387183, 1387625, 1387979, 1388367, 1388726, 1389177, 1389585, 1389957, 1390369, 1390752, 1391233, 1391555, 1392008, 1392379, 1392843, 1393260]","[34, 58, 80, 47, 244, 35, 62, 41, 101, 30, 61, 39, 231, 229, 221, 136, 151, 187, 53, 192, 169, 68, 191]","[1384197, 1384517, 1385051, 1385439, 1385863, 1386274, 1386674, 1387071, 1387505, 1387879, 1388260, 1388630, 1389065, 1389486, 1389873, 1390275, 1390628, 1391124, 1391468, 1391887, 1392302, 1392774, 1393149]","[1383838, 1384238, 1384638, 1385038, 1385438, 1385838, 1386238, 1386638, 1386983, 1387399, 1387790, 1388173, 1388558, 1388997, 1389384, 1389791, 1390210, 1390561, 1390974, 1391395, 1391816, 1392216, 1392643, 1393026]",81,EM,U,R,ITMSR,1.1,
0,600,trial,0,70,70,70,trial,"['B', 'S', 'S', 'S', 'S', 'S', 'S', 'S', 'C', 'C', 'C', 'C', 'C', 'C', 'C', 'C', 'C', 'C', 'C', 'C', 'C', 'C', 'C', 'C']","[1398765, 1399149, 1399733, 1400373, 1400986, 1401581, 1402261, 1402864, 1403485, 1404096, 1404676, 1405245, 1405806, 1406399, 1406941, 1407486, 1408050, 1408605, 1409159, 1409740, 1410280, 1410843, 1411391, 1411969]","[1398915, 1399489, 1400124, 1400729, 1401358, 1401960, 1402615, 1403226, 1403910, 1404422, 1405029, 1405627, 1406214, 1406707, 1407318, 1407876, 1408397, 1408979, 1409557, 1410080, 1410665, 1411183, 1411762]","[240, 21, 85, 15, 160, 181, 165, 59, 60, 34, 56, 77, 87, 10, 55, 73, 134, 104, 125, 117, 152, 152, 162]","[1398765, 1399242, 1399887, 1400542, 1401164, 1401778, 1402383, 1402978, 1403754, 1404305, 1404840, 1405372, 1406051, 1406508, 1407055, 1407654, 1408292, 1408790, 1409442, 1409967, 1410550, 1411016, 1411576]","[1398778, 1399377, 1399977, 1400578, 1401178, 1401778, 1402378, 1402978, 1403505, 1404116, 1404696, 1405265, 1405826, 1406419, 1406961, 1407506, 1408070, 1408625, 1409179, 1409760, 1410300, 1410863, 1411411, 1411989]",81,EM,U,R,ITMSR,1.1,
3,600,trial,0,71,71,71,trial,"['S', 'S', 'S', 'S', 'S', 'S', 'S', 'S', 'C', 'C', 'C', 'C', 'C', 'C', 'C', 'C', 'C', 'C', 'C', 'C', 'C', 'C', 'C', 'C', 'C']","[1417954, 1418322, 1418886, 1419483, 1420090, 1420725, 1421262, 1421865, 1422505, 1423147, 1423728, 1424284, 1424936, 1425562, 1426118, 1426695, 1427282, 1427852, 1428482, 1429129, 1429812, 1430298, 1430400, 1431049, 1431670]","[1418048, 1418558, 1419128, 1419702, 1420346, 1420931, 1421512, 1422136, 1422821, 1423443, 1424053, 1424634, 1425272, 1425890, 1426473, 1427064, 1427644, 1428246, 1428856, 1429466, 1430078, 1430319, 1430673, 1431270]","[215, 49, 22, 254, 247, 235, 234, 145, 54, 31, 209, 148, 149, 187, 174, 248, 250, 16, 196, 247, 62, 160, 9, 4]","[1417958, 1418433, 1418972, 1419574, 1420096, 1420808, 1421379, 1421868, 1422509, 1423288, 1423854, 1424288, 1424939, 1425565, 1426120, 1426697, 1427284, 1427854, 1428484, 1429132, 1429914, 1430303, 1430558, 1431052]","[1417794, 1418394, 1418994, 1419594, 1420194, 1420794, 1421394, 1421995, 1422525, 1423167, 1423748, 1424304, 1424956, 1425582, 1426138, 1426715, 1427302, 1427872, 1428502, 1429149, 1429832, 1430318, 1431069, 1431690]",81,EM,U,R,ITMSR,1.1,
2,400,trial,0,72,72,72,trial,"['S', 'S', 'S', 'S', 'S', 'S', 'S', 'C', 'C', 'C', 'C', 'C', 'C', 'C', 'C', 'C', 'C', 'C', 'C', 'C', 'C', 'C', 'C']","[1437626, 1438036, 1438518, 1438971, 1439409, 1439827, 1440221, 1440617, 1441036, 1441413, 1441803, 1442196, 1442594, 1442989, 1443382, 1443766, 1444186, 1444578, 1444928, 1445357, 1445754, 1446147, 1446553]","[1437803, 1438225, 1438672, 1439117, 1439545, 1439962, 1440357, 1440766, 1441198, 1441594, 1441977, 1442370, 1442785, 1443161, 1443557, 1443944, 1444330, 1444701, 1445095, 1445520, 1445927, 1446351, 1446736]","[122, 73, 73, 97, 91, 95, 79, 86, 76, 34, 58, 39, 52, 48, 246, 76, 219, 225, 170, 249, 253, 36, 38]","[1437629, 1438120, 1438601, 1438976, 1439413, 1439898, 1440225, 1440620, 1441040, 1441417, 1441806, 1442200, 1442597, 1442992, 1443385, 1443769, 1444190, 1444581, 1444933, 1445361, 1445757, 1446150, 1446556]","[1437480, 1437879, 1438279, 1438680, 1439080, 1439480, 1439880, 1440280, 1440637, 1441056, 1441433, 1441823, 1442216, 1442614, 1443009, 1443402, 1443786, 1444206, 1444598, 1444948, 1445378, 1445774, 1446167, 1446573]",81,EM,U,R,ITMSR,1.1,
5,600,trial,0,73,73,73,trial,"['S', 'S', 'S', 'S', 'S', 'S', 'S', 'S', 'C', 'C', 'C', 'C', 'C', 'C', 'C', 'C', 'C', 'C', 'C', 'C', 'C', 'C', 'C', 'C']","[1452143, 1452474, 1453041, 1453641, 1454247, 1454844, 1455453, 1456044, 1456647, 1457260, 1457816, 1458363, 1458878, 1459432, 1459996, 1460541, 1461038, 1461601, 1462151, 1462707, 1463238, 1463738, 1464273, 1464802]","[1452267, 1452730, 1453399, 1454024, 1454629, 1455233, 1455818, 1456431, 1457034, 1457590, 1458187, 1458718, 1459236, 1459757, 1460363, 1460895, 1461386, 1461979, 1462551, 1463078, 1463579, 1464118, 1464643]","[83, 59, 98, 117, 102, 104, 95, 105, 116, 101, 82, 64, 53, 60, 83, 91, 87, 89, 103, 66, 48, 67, 72]","[1452146, 1452477, 1453044, 1453644, 1454249, 1454848, 1455575, 1456259, 1456812, 1457479, 1457819, 1458366, 1458881, 1459436, 1459999, 1460544, 1461041, 1461603, 1462153, 1462710, 1463452, 1463959, 1464275]","[1451997, 1452597, 1453197, 1453797, 1454397, 1454997, 1455597, 1456197, 1456667, 1457281, 1457837, 1458383, 1458898, 1459452, 1460016, 1460561, 1461058, 1461621, 1462171, 1462727, 1463258, 1463758, 1464293, 1464822]",81,EM,U,R,ITMSR,1.1,
4,600,trial,0,74,74,74,trial,"['S', 'S', 'S', 'S', 'S', 'S', 'S', 'S', 'C', 'C', 'C', 'C', 'C', 'C', 'C', 'C', 'C', 'C', 'C', 'C', 'C', 'C', 'C', 'C']","[1470479, 1470901, 1471416, 1472007, 1472572, 1473180, 1473768, 1474375, 1474980, 1475521, 1476017, 1476583, 1477128, 1477669, 1478169, 1478723, 1479269, 1479792, 1480258, 1480758, 1481316, 1481876, 1482363, 1482893]","[1470721, 1471247, 1471766, 1472352, 1472924, 1473571, 1474158, 1474755, 1475360, 1475843, 1476447, 1476965, 1477524, 1478011, 1478565, 1479088, 1479638, 1480111, 1480590, 1481175, 1481750, 1482187, 1482725]","[129, 120, 87, 134, 125, 75, 81, 78, 82, 42, 68, 76, 50, 46, 70, 58, 71, 72, 56, 55, 72, 106, 114]","[1470482, 1470903, 1471587, 1472163, 1472765, 1473409, 1473915, 1474497, 1475201, 1475525, 1476155, 1476692, 1477131, 1477673, 1478309, 1478727, 1479272, 1479945, 1480433, 1480762, 1481611, 1482034, 1482558]","[1470348, 1470948, 1471548, 1472148, 1472748, 1473348, 1473948, 1474548, 1475000, 1475542, 1476037, 1476603, 1477148, 1477689, 1478189, 1478744, 1479289, 1479812, 1480279, 1480778, 1481336, 1481896, 1482383, 1482913]",81,EM,U,R,ITMSR,1.1,
0,400,trial,0,75,75,75,trial,"['S', 'S', 'S', 'S', 'S', 'S', 'S', 'C', 'C', 'C', 'C', 'C', 'C', 'C', 'C', 'C', 'C', 'C', 'C', 'C', 'C', 'C', 'C']","[1488859, 1489230, 1489589, 1489989, 1490369, 1490755, 1491164, 1491552, 1491959, 1492335, 1492723, 1493107, 1493492, 1493882, 1494270, 1494653, 1495036, 1495415, 1495802, 1496200, 1496616, 1497030, 1497405]","[1489031, 1489421, 1489819, 1490213, 1490592, 1490941, 1491346, 1491779, 1492177, 1492538, 1492957, 1493344, 1493727, 1494092, 1494471, 1494904, 1495268, 1495610, 1496008, 1496379, 1496787, 1497214, 1497590]","[30, 18, 39, 26, 35, 149, 255, 24, 20, 22, 30, 63, 86, 83, 74, 118, 120, 117, 115, 94, 97, 121, 117]","[1488934, 1489234, 1489695, 1489992, 1490467, 1490760, 1491168, 1491672, 1492099, 1492430, 1492845, 1493237, 1493619, 1494004, 1494378, 1494803, 1495163, 1495527, 1495916, 1496295, 1496702, 1497129, 1497490]","[1488421, 1488820, 1489220, 1489620, 1490020, 1490420, 1490820, 1491220, 1491572, 1491979, 1492355, 1492743, 1493127, 1493512, 1493902, 1494290, 1494673, 1495056, 1495435, 1495822, 1496220, 1496636, 1497050, 1497425]",81,EM,U,R,ITMSR,1.1,
4,600,trial,0,76,76,76,trial,"['S', 'S', 'S', 'S', 'S', 'S', 'S', 'C', 'C', 'C', 'C', 'C', 'C', 'C', 'C', 'C', 'C', 'C', 'C', 'C', 'C', 'C', 'C']","[1503105, 1503555, 1504147, 1504893, 1505587, 1506288, 1506922, 1507521, 1508038, 1508604, 1509176, 1509703, 1510296, 1510843, 1511378, 1511894, 1512445, 1512994, 1513493, 1514014, 1514511, 1515010, 1515524]","[1503255, 1503858, 1504463, 1505136, 1505819, 1506511, 1507117, 1507710, 1508318, 1508915, 1509356, 1510008, 1510592, 1511083, 1511704, 1512208, 1512768, 1513279, 1513825, 1514344, 1514880, 1515324]","[241, 88, 112, 118, 132, 137, 110, 132, 109, 119, 57, 135, 111, 63, 81, 42, 13, 50, 70, 91, 82, 80]","[1503168, 1503633, 1504299, 1505031, 1505714, 1506408, 1507019, 1507601, 1508145, 1508768, 1509281, 1509829, 1510474, 1510971, 1511545, 1512033, 1512613, 1513146, 1513736, 1514205, 1514732, 1515207]","[1502783, 1503383, 1503983, 1504583, 1505183, 1505783, 1506383, 1506983, 1507542, 1508058, 1508624, 1509196, 1509723, 1510317, 1510863, 1511398, 1511914, 1512465, 1513014, 1513513, 1514034, 1514531, 1515030, 1515544]",81,EM,U,R,ITMSR,1.1,
3,400,trial,0,77,77,77,trial,"['S', 'S', 'S', 'S', 'S', 'S', 'S', 'C', 'C', 'C', 'C', 'C', 'C', 'C', 'C', 'C', 'C', 'C', 'C', 'C', 'C', 'C', 'C']","[1521203, 1521586, 1521999, 1522387, 1522809, 1523217, 1523629, 1523999, 1524399, 1524784, 1525179, 1525561, 1525962, 1526347, 1526747, 1527146, 1527520, 1527914, 1528320, 1528727, 1529126, 1529541, 1529946]","[1521329, 1521716, 1522145, 1522558, 1522970, 1523381, 1523834, 1524185, 1524621, 1525008, 1525409, 1525789, 1526192, 1526580, 1526990, 1527349, 1527744, 1528130, 1528538, 1528950, 1529384, 1529745, 1530142]","[159, 36, 42, 40, 39, 93, 97, 83, 88, 102, 86, 86, 114, 78, 112, 97, 99, 83, 100, 82, 89, 98, 86]","[1521266, 1521590, 1522002, 1522494, 1522906, 1523312, 1523732, 1524091, 1524487, 1524886, 1525265, 1525642, 1525964, 1526451, 1526749, 1527149, 1527523, 1527918, 1528322, 1528730, 1529129, 1529544, 1529949]","[1520879, 1521280, 1521679, 1522079, 1522479, 1522879, 1523279, 1523679, 1524019, 1524419, 1524804, 1525199, 1525581, 1525982, 1526367, 1526767, 1527166, 1527540, 1527934, 1528340, 1528748, 1529146, 1529561, 1529966]",81,EM,U,R,ITMSR,1.1,
1,400,trial,0,78,78,78,trial,"['S', 'S', 'S', 'S', 'S', 'S', 'S', 'C', 'C', 'C', 'C', 'C', 'C', 'C', 'C', 'C', 'C', 'C', 'C', 'C', 'C', 'C', 'C']","[1687720, 1688118, 1688660, 1689103, 1689538, 1689952, 1690363, 1690776, 1691206, 1691625, 1692037, 1692450, 1692889, 1693289, 1693700, 1694110, 1694541, 1694954, 1695368, 1695822, 1696239, 1696657, 1697096]","[1687838, 1688290, 1688793, 1689268, 1689706, 1690133, 1690578, 1690996, 1691441, 1691855, 1692261, 1692710, 1693108, 1693539, 1693946, 1694354, 1694771, 1695199, 1695598, 1696003, 1696449, 1696881, 1697292]","[146, 129, 108, 117, 117, 95, 119, 99, 67, 46, 18, 4, 38, 43, 33, 238, 246, 14, 241, 229, 12, 247, 227]","[1687770, 1688199, 1688735, 1689182, 1689614, 1690048, 1690469, 1690882, 1691327, 1691740, 1692158, 1692590, 1692998, 1693423, 1693828, 1694231, 1694671, 1695087, 1695479, 1695908, 1696357, 1696774, 1697190]","[1687589, 1687989, 1688389, 1688790, 1689189, 1689589, 1689989, 1690389, 1690797, 1691226, 1691645, 1692057, 1692470, 1692909, 1693309, 1693720, 1694130, 1694561, 1694974, 1695388, 1695842, 1696259, 1696677, 1697116]",81,EM,U,R,ITMSR,1.1,
0,400,trial,0,79,79,79,trial,"['S', 'S', 'S', 'S', 'S', 'S', 'S', 'S', 'C', 'C', 'C', 'C', 'C', 'C', 'C', 'C', 'C', 'C', 'C', 'C', 'C', 'C', 'C', 'C']","[1702699, 1703051, 1703425, 1703806, 1704198, 1704607, 1704992, 1705372, 1705781, 1706220, 1706614, 1706990, 1707426, 1707806, 1708225, 1708641, 1709059, 1709437, 1709847, 1710258, 1710683, 1711087, 1711482, 1711894]","[1702811, 1703245, 1703623, 1704008, 1704383, 1704752, 1705195, 1705583, 1705979, 1706397, 1706836, 1707276, 1707644, 1708059, 1708474, 1708895, 1709274, 1709685, 1710109, 1710508, 1710958, 1711309, 1711735, 1712117]","[120, 123, 105, 88, 50, 20, 87, 102, 68, 71, 72, 53, 42, 14, 1, 254, 251, 32, 15, 247, 40, 15, 169, 147]","[1702738, 1703122, 1703518, 1703899, 1704287, 1704610, 1705088, 1705500, 1705892, 1706317, 1706720, 1707116, 1707541, 1707922, 1708346, 1708791, 1709146, 1709563, 1709987, 1710399, 1710833, 1711198, 1711634, 1712032]","[1702534, 1702934, 1703334, 1703734, 1704134, 1704535, 1704934, 1705334, 1705801, 1706241, 1706634, 1707010, 1707446, 1707826, 1708246, 1708661, 1709079, 1709457, 1709868, 1710278, 1710703, 1711107, 1711502, 1711915]",81,EM,U,R,ITMSR,1.1,
1,400,trial,0,80,80,80,trial,"['S', 'S', 'S', 'S', 'S', 'S', 'S', 'C', 'C', 'C', 'C', 'C', 'C', 'C', 'C', 'C', 'C', 'C', 'C', 'C', 'C', 'C', 'C']","[1717648, 1718050, 1718418, 1718839, 1719264, 1719680, 1720084, 1720508, 1720923, 1721328, 1721723, 1722095, 1722513, 1722918, 1723331, 1723737, 1724130, 1724521, 1724937, 1725343, 1725729, 1726136, 1726559]","[1717758, 1718177, 1718583, 1719005, 1719459, 1719875, 1720288, 1720682, 1721110, 1721510, 1721910, 1722334, 1722743, 1723163, 1723564, 1723971, 1724342, 1724783, 1725216, 1725580, 1726010, 1726410, 1726807]","[114, 6, 197, 174, 217, 229, 152, 84, 209, 166, 161, 188, 224, 230, 229, 34, 27, 70, 57, 58, 111, 143, 130]","[1717708, 1718114, 1718492, 1718843, 1719267, 1719684, 1720086, 1720511, 1720927, 1721431, 1721811, 1722227, 1722653, 1723056, 1723457, 1723886, 1724250, 1724679, 1725097, 1725485, 1725890, 1726292, 1726698]","[1717355, 1717754, 1718154, 1718554, 1718955, 1719354, 1719754, 1720154, 1720528, 1720943, 1721348, 1721743, 1722115, 1722533, 1722938, 1723352, 1723757, 1724150, 1724541, 1724957, 1725363, 1725749, 1726156, 1726579]",81,EM,U,R,ITMSR,1.1,
5,600,trial,0,81,81,81,trial,"['S', 'S', 'S', 'S', 'S', 'S', 'S', 'S', 'C', 'C', 'C', 'C', 'C', 'C', 'C', 'C', 'C', 'C', 'C', 'C', 'C', 'C', 'C', 'C']","[1732132, 1732413, 1733008, 1733602, 1734178, 1734806, 1735444, 1736032, 1736639, 1737257, 1737831, 1738422, 1739012, 1739602, 1740149, 1740741, 1741260, 1741867, 1742437, 1743009, 1743582, 1744165, 1744732, 1745306]","[1732252, 1732680, 1733265, 1733929, 1734597, 1735244, 1735832, 1736428, 1737086, 1737650, 1738265, 1738827, 1739430, 1739972, 1740583, 1741100, 1741736, 1742286, 1742844, 1743426, 1744038, 1744573, 1745180]","[10, 59, 69, 106, 118, 132, 150, 121, 133, 129, 123, 79, 77, 249, 48, 74, 95, 91, 125, 123, 141, 135, 143]","[1732198, 1732489, 1733117, 1733723, 1734358, 1734994, 1735620, 1736192, 1736776, 1737431, 1738047, 1738602, 1739165, 1739835, 1740334, 1740945, 1741468, 1742124, 1742632, 1743241, 1743808, 1744418, 1744970]","[1731943, 1732543, 1733143, 1733743, 1734343, 1734943, 1735543, 1736143, 1736659, 1737277, 1737851, 1738442, 1739032, 1739622, 1740169, 1740761, 1741280, 1741887, 1742457, 1743029, 1743602, 1744185, 1744752, 1745326]",81,EM,U,R,ITMSR,1.1,
5,400,trial,0,82,82,82,trial,"['S', 'S', 'S', 'S', 'S', 'S', 'S', 'C', 'C', 'C', 'C', 'C', 'C', 'C', 'C', 'C', 'C', 'C', 'C', 'C', 'C', 'C', 'C']","[1751053, 1751377, 1751745, 1752117, 1752516, 1752911, 1753309, 1753749, 1754131, 1754517, 1754875, 1755256, 1755680, 1756063, 1756424, 1756786, 1757175, 1757577, 1757964, 1758349, 1758725, 1759086, 1759482]","[1751169, 1751533, 1751949, 1752304, 1752724, 1753117, 1753560, 1753969, 1754368, 1754749, 1755105, 1755508, 1755864, 1756264, 1756655, 1756996, 1757440, 1757843, 1758215, 1758608, 1758940, 1759373, 1759682]","[204, 221, 251, 65, 252, 36, 51, 61, 71, 66, 70, 75, 57, 47, 57, 46, 83, 75, 67, 93, 64, 68, 46]","[1751123, 1751461, 1751840, 1752222, 1752628, 1753023, 1753452, 1753865, 1754269, 1754634, 1754985, 1755398, 1755783, 1756169, 1756527, 1756920, 1757324, 1757721, 1758097, 1758476, 1758834, 1759259, 1759575]","[1750675, 1751074, 1751474, 1751874, 1752274, 1752674, 1753074, 1753474, 1753769, 1754151, 1754537, 1754895, 1755276, 1755700, 1756083, 1756444, 1756806, 1757195, 1757597, 1757984, 1758369, 1758745, 1759106, 1759502]",81,EM,U,R,ITMSR,1.1,
0,600,trial,0,83,83,83,trial,"['S', 'S', 'S', 'S', 'S', 'S', 'S', 'S', 'C', 'C', 'C', 'C', 'C', 'C', 'C', 'C', 'C', 'C', 'C', 'C', 'C', 'C', 'C', 'C']","[1765340, 1765632, 1766109, 1766602, 1767245, 1767865, 1768432, 1769051, 1769682, 1770208, 1770722, 1771273, 1771804, 1772314, 1772887, 1773396, 1773952, 1774484, 1774998, 1775519, 1776002, 1776508, 1776974, 1777536]","[1765484, 1765842, 1766311, 1766836, 1767449, 1768082, 1768704, 1769332, 1769909, 1770531, 1771105, 1771637, 1772142, 1772726, 1773227, 1773771, 1774336, 1774828, 1775354, 1775853, 1776374, 1776834, 1777405]","[29, 26, 104, 102, 103, 111, 105, 99, 105, 94, 63, 67, 55, 25, 247, 224, 205, 253, 27, 247, 72, 81, 96]","[1765405, 1765721, 1766215, 1766731, 1767347, 1767979, 1768577, 1769181, 1769810, 1770407, 1770944, 1771488, 1772039, 1772550, 1773139, 1773627, 1774221, 1774699, 1775178, 1775746, 1776182, 1776716, 1777164]","[1765141, 1765741, 1766341, 1766941, 1767541, 1768141, 1768741, 1769341, 1769702, 1770228, 1770742, 1771293, 1771824, 1772334, 1772907, 1773416, 1773972, 1774504, 1775019, 1775539, 1776022, 1776528, 1776994, 1777556]",81,EM,U,R,ITMSR,1.1,
1,600,trial,0,84,84,84,trial,"['S', 'S', 'S', 'S', 'S', 'S', 'S', 'C', 'C', 'C', 'C', 'C', 'C', 'C', 'C', 'C', 'C', 'C', 'C', 'C', 'C', 'C', 'C']","[1783329, 1783762, 1784426, 1785093, 1785739, 1786359, 1787051, 1787651, 1788292, 1788867, 1789414, 1789955, 1790476, 1791047, 1791598, 1792084, 1792633, 1793154, 1793713, 1794263, 1794792, 1795301, 1795837]","[1783453, 1783993, 1784600, 1785248, 1785937, 1786605, 1787209, 1787941, 1788492, 1789177, 1789697, 1790257, 1790849, 1791446, 1791899, 1792434, 1792967, 1793520, 1794058, 1794583, 1795133, 1795640]","[235, 68, 20, 197, 220, 138, 99, 211, 20, 89, 106, 110, 121, 116, 63, 66, 106, 90, 248, 90, 99, 113]","[1783388, 1783845, 1784512, 1785178, 1785854, 1786484, 1787115, 1787768, 1788385, 1789022, 1789563, 1789958, 1790478, 1791223, 1791672, 1792199, 1792635, 1793327, 1793799, 1794461, 1794953, 1795419]","[1783057, 1783657, 1784257, 1784857, 1785457, 1786057, 1786657, 1787257, 1787671, 1788312, 1788888, 1789434, 1789975, 1790496, 1791067, 1791618, 1792104, 1792653, 1793174, 1793733, 1794283, 1794812, 1795321, 1795857]",81,EM,U,R,ITMSR,1.1,
0,600,trial,0,85,85,85,trial,"['S', 'S', 'S', 'S', 'S', 'S', 'S', 'C', 'C', 'C', 'C', 'C', 'C', 'C', 'C', 'C', 'C', 'C', 'C', 'C', 'C', 'C', 'C']","[1801831, 1802188, 1802765, 1803469, 1804178, 1804751, 1805448, 1806040, 1806637, 1807175, 1807772, 1808319, 1808883, 1809475, 1810060, 1810622, 1811193, 1811717, 1812287, 1812861, 1813429, 1813979, 1814535]","[1801950, 1802509, 1803013, 1803675, 1804354, 1805037, 1805643, 1806343, 1806979, 1807552, 1808128, 1808696, 1809321, 1809863, 1810450, 1811026, 1811530, 1812117, 1812706, 1813270, 1813820, 1814383]","[128, 127, 80, 72, 63, 188, 218, 150, 80, 100, 73, 135, 88, 128, 137, 204, 193, 238, 242, 238, 1, 29]","[1801870, 1802189, 1802881, 1803473, 1804273, 1804896, 1805543, 1806147, 1806640, 1807178, 1807775, 1808497, 1808886, 1809479, 1810339, 1810869, 1811367, 1811939, 1812596, 1813136, 1813698, 1814268]","[1801437, 1802037, 1802637, 1803237, 1803837, 1804437, 1805037, 1805637, 1806060, 1806657, 1807195, 1807792, 1808339, 1808903, 1809496, 1810080, 1810642, 1811213, 1811737, 1812307, 1812881, 1813449, 1813999, 1814555]",81,EM,U,R,ITMSR,1.1,
0,400,trial,0,86,86,86,trial,"['S', 'S', 'S', 'S', 'S', 'S', 'S', 'C', 'C', 'C', 'C', 'C', 'C', 'C', 'C', 'C', 'C', 'C', 'C', 'C', 'C', 'C', 'C']","[1820443, 1820823, 1821257, 1821704, 1822138, 1822560, 1822979, 1823361, 1823784, 1824173, 1824576, 1824965, 1825359, 1825763, 1826157, 1826556, 1826951, 1827338, 1827755, 1828145, 1828562, 1828960, 1829335]","[1820631, 1821084, 1821471, 1821907, 1822329, 1822841, 1823211, 1823653, 1824039, 1824458, 1824806, 1825232, 1825650, 1826027, 1826424, 1826822, 1827192, 1827635, 1828019, 1828426, 1828817, 1829235, 1829565]","[94, 100, 98, 121, 77, 131, 108, 141, 88, 74, 59, 102, 79, 129, 136, 154, 140, 163, 119, 153, 148, 141, 132]","[1820516, 1820957, 1821383, 1821803, 1822246, 1822709, 1823111, 1823506, 1823929, 1824287, 1824713, 1825128, 1825509, 1825901, 1826272, 1826717, 1827075, 1827478, 1827888, 1828294, 1828683, 1829052, 1829438]","[1820271, 1820672, 1821071, 1821471, 1821871, 1822271, 1822671, 1823071, 1823381, 1823804, 1824193, 1824596, 1824985, 1825379, 1825783, 1826178, 1826576, 1826971, 1827358, 1827775, 1828165, 1828582, 1828980, 1829355]",81,EM,U,R,ITMSR,1.1,
4,400,trial,0,87,87,87,trial,"['S', 'S', 'S', 'S', 'S', 'S', 'S', 'C', 'C', 'C', 'C', 'C', 'C', 'C', 'C', 'C', 'C', 'C', 'C', 'C', 'C', 'C', 'C']","[1834966, 1835302, 1835715, 1836168, 1836642, 1837064, 1837495, 1837917, 1838341, 1838745, 1839129, 1839517, 1839918, 1840314, 1840708, 1841111, 1841480, 1841869, 1842268, 1842658, 1843067, 1843461, 1843822]","[1835115, 1835540, 1835911, 1836362, 1836816, 1837284, 1837737, 1838154, 1838565, 1838958, 1839358, 1839741, 1840154, 1840558, 1840928, 1841332, 1841726, 1842117, 1842519, 1842885, 1843263, 1843637, 1844043]","[79, 115, 64, 69, 56, 67, 56, 29, 52, 25, 30, 24, 210, 255, 249, 11, 18, 4, 27, 235, 213, 197, 5]","[1835021, 1835394, 1835809, 1836267, 1836732, 1837150, 1837617, 1838044, 1838458, 1838844, 1839236, 1839643, 1840028, 1840451, 1840809, 1841220, 1841600, 1841979, 1842403, 1842775, 1843181, 1843548, 1843950]","[1834802, 1835202, 1835602, 1836002, 1836402, 1836802, 1837202, 1837602, 1837937, 1838361, 1838765, 1839149, 1839537, 1839938, 1840334, 1840728, 1841131, 1841500, 1841889, 1842288, 1842678, 1843087, 1843481, 1843842]",81,EM,U,R,ITMSR,1.1,
5,600,trial,0,88,88,88,trial,"['S', 'S', 'S', 'S', 'S', 'S', 'S', 'S', 'C', 'C', 'C', 'C', 'C', 'C', 'C', 'C', 'C', 'C', 'C', 'C', 'C', 'C', 'C', 'C']","[1849539, 1849842, 1850373, 1850900, 1851488, 1852072, 1852672, 1853332, 1853902, 1854510, 1855081, 1855659, 1856257, 1856845, 1857470, 1858081, 1858668, 1859227, 1859821, 1860424, 1861017, 1861576, 1862190, 1862727]","[1849672, 1850103, 1850700, 1851309, 1851878, 1852496, 1853144, 1853734, 1854319, 1854908, 1855489, 1856124, 1856648, 1857293, 1857880, 1858470, 1859049, 1859633, 1860248, 1860797, 1861392, 1861989, 1862539]","[42, 32, 10, 11, 172, 195, 95, 114, 63, 228, 5, 95, 254, 47, 65, 250, 10, 21, 9, 9, 12, 238, 88]","[1849603, 1849923, 1850379, 1851021, 1851620, 1852176, 1852675, 1853334, 1853908, 1854515, 1855087, 1855661, 1856377, 1856848, 1857473, 1858085, 1858672, 1859233, 1859825, 1860429, 1861023, 1861581, 1862195]","[1849348, 1849948, 1850548, 1851148, 1851748, 1852348, 1852948, 1853548, 1853922, 1854530, 1855101, 1855679, 1856277, 1856865, 1857490, 1858101, 1858689, 1859247, 1859842, 1860444, 1861037, 1861596, 1862210, 1862747]",81,EM,U,R,ITMSR,1.1,
2,600,trial,0,89,89,89,trial,"['S', 'S', 'S', 'S', 'S', 'S', 'S', 'S', 'C', 'C', 'C', 'C', 'C', 'C', 'C', 'C', 'C', 'C', 'C', 'C', 'C', 'C', 'C', 'C']","[1868590, 1868944, 1869352, 1869846, 1870419, 1871057, 1871657, 1872144, 1872896, 1873536, 1874067, 1874590, 1875182, 1875718, 1876271, 1876851, 1877393, 1877988, 1878543, 1879050, 1879638, 1880209, 1880761, 1881300]","[1868685, 1869130, 1869598, 1870093, 1870627, 1871217, 1871886, 1872382, 1873033, 1873777, 1874380, 1874979, 1875497, 1876064, 1876639, 1877198, 1877777, 1878323, 1878873, 1879456, 1880009, 1880583, 1881113]","[222, 35, 39, 26, 223, 192, 28, 149, 94, 20, 55, 241, 70, 243, 71, 92, 23, 48, 0, 88, 140, 127, 253]","[1868595, 1868947, 1869357, 1869849, 1870522, 1871144, 1871661, 1872277, 1872900, 1873541, 1874071, 1874595, 1875186, 1875932, 1876275, 1876855, 1877398, 1877992, 1878548, 1879054, 1879643, 1880214, 1880767]","[1868273, 1868873, 1869473, 1870073, 1870673, 1871273, 1871874, 1872474, 1872916, 1873556, 1874087, 1874610, 1875202, 1875738, 1876291, 1876871, 1877413, 1878008, 1878563, 1879070, 1879658, 1880229, 1880781, 1881320]",81,EM,U,R,ITMSR,1.1,
2,600,trial,0,90,90,90,trial,"['S', 'S', 'S', 'S', 'S', 'S', 'S', 'S', 'C', 'C', 'C', 'C', 'C', 'C', 'C', 'C', 'C', 'C', 'C', 'C', 'C', 'C', 'C', 'C']","[1887284, 1887578, 1888020, 1888568, 1889168, 1889772, 1890395, 1891067, 1891638, 1892198, 1892727, 1893319, 1893832, 1894362, 1894929, 1895474, 1896015, 1896569, 1897079, 1897620, 1898218, 1898791, 1899309, 1899891]","[1887386, 1887820, 1888371, 1889003, 1889572, 1890192, 1890814, 1891423, 1891997, 1892539, 1893102, 1893659, 1894188, 1894754, 1895311, 1895846, 1896388, 1896919, 1897447, 1898032, 1898588, 1899118, 1899717]","[63, 76, 69, 32, 7, 102, 187, 232, 33, 105, 150, 187, 167, 133, 141, 150, 154, 59, 79, 80, 135, 97, 54]","[1887332, 1887582, 1888023, 1888571, 1889172, 1889853, 1890401, 1891072, 1891642, 1892204, 1892731, 1893323, 1893837, 1894499, 1895136, 1895479, 1896175, 1896760, 1897340, 1897626, 1898223, 1898797, 1899315]","[1886983, 1887582, 1888182, 1888782, 1889382, 1889982, 1890582, 1891182, 1891658, 1892218, 1892747, 1893339, 1893852, 1894382, 1894949, 1895494, 1896035, 1896589, 1897099, 1897640, 1898238, 1898811, 1899329, 1899911]",81,EM,U,R,ITMSR,1.1,
