pitch,ioi,event,.thisRepN,.thisTrialN,.thisN,.thisIndex,event,tap_types,tap_times,release_times,peak_pressures,peak_times,tone_times,subject,experimenter,register,handedness,experiment,version,
,,SPR,0,-1,-1,0,SPR,"['P', 'P', 'P', 'P', 'P', 'P', 'P', 'P', 'P', 'P', 'P', 'P', 'P', 'P', 'P', 'P', 'P', 'P', 'P', 'P', 'P', 'P', 'P', 'P', 'P', 'P', 'P', 'P', 'P', 'P']","[40871, 41496, 41917, 42314, 42746, 43153, 43583, 43997, 44409, 44836, 45246, 45668, 46102, 46518, 46935, 47352, 47790, 48209, 48614, 49047, 49462, 49876, 50311, 50719, 51122, 51563, 52012, 52429, 52847, 53308]","[41237, 41594, 42018, 42427, 42851, 43262, 43682, 44085, 44485, 44912, 45325, 45751, 46169, 46601, 47002, 47434, 47859, 48290, 48680, 49114, 49521, 49954, 50379, 50795, 51203, 51631, 52068, 52488, 52912, 53364]","[169, 201, 200, 200, 198, 196, 199, 193, 193, 185, 190, 195, 195, 189, 190, 195, 194, 200, 192, 192, 188, 194, 194, 194, 193, 197, 196, 187, 196, 195]","[41194, 41500, 41921, 42318, 42750, 43157, 43587, 44001, 44413, 44840, 45251, 45672, 46106, 46522, 46940, 47356, 47795, 48214, 48618, 49051, 49466, 49881, 50316, 50723, 51127, 51567, 52016, 52433, 52851, 53312]",,88,EM,L,R,ITMSR,1.1,
0,500,practice,0,0,0,0,practice,"['S', 'S', 'S', 'S', 'S', 'S', 'S', 'S', 'C', 'C', 'C', 'C', 'C', 'C', 'C', 'C', 'C', 'C', 'C', 'C', 'C', 'C', 'C', 'C']","[133507, 133918, 134407, 134916, 135428, 135939, 136417, 136910, 137420, 137926, 138414, 138924, 139425, 139916, 140409, 140937, 141429, 141907, 142398, 142887, 143384, 143875, 144384, 144888]","[133622, 134035, 134502, 135014, 135512, 136023, 136504, 137004, 137500, 138017, 138493, 139013, 139512, 140004, 140495, 141018, 141509, 141981, 142474, 142987, 143472, 143973, 144477, 144974]","[200, 205, 212, 213, 215, 214, 216, 213, 213, 209, 213, 214, 214, 214, 213, 213, 214, 210, 215, 217, 214, 213, 208, 205]","[133512, 133959, 134411, 134920, 135432, 135942, 136420, 136914, 137423, 137930, 138418, 138927, 139429, 139919, 140413, 140940, 141433, 141911, 142401, 142889, 143388, 143878, 144388, 144892]","[133455, 133955, 134455, 134956, 135455, 135955, 136455, 136955, 137440, 137946, 138434, 138944, 139445, 139936, 140429, 140957, 141449, 141927, 142418, 142907, 143405, 143895, 144404, 144908]",88,EM,L,R,ITMSR,1.1,
3,500,practice,0,1,1,1,practice,"['B', 'S', 'S', 'S', 'S', 'S', 'S', 'S', 'C', 'C', 'C', 'C', 'C', 'C', 'C', 'C', 'C', 'C', 'C', 'C', 'C', 'C', 'C', 'C']","[150501, 150957, 151440, 151939, 152449, 152948, 153462, 153982, 154486, 154970, 155468, 155950, 156454, 156954, 157422, 157893, 158377, 158870, 159325, 159797, 160262, 160731, 161226, 161725]","[150686, 151025, 151530, 152042, 152523, 153025, 153543, 154056, 154551, 155037, 155539, 156024, 156530, 157033, 157502, 157969, 158471, 158942, 159409, 159885, 160359, 160819, 161318, 161829]","[16, 206, 208, 207, 206, 207, 209, 206, 208, 206, 205, 209, 207, 210, 212, 211, 209, 207, 211, 211, 207, 209, 208, 204]","[150579, 150960, 151444, 151944, 152453, 152952, 153466, 153986, 154490, 154974, 155472, 155954, 156460, 156958, 157425, 157897, 158382, 158874, 159329, 159802, 160266, 160735, 161229, 161729]","[150514, 151013, 151513, 152013, 152513, 153013, 153513, 154013, 154506, 154990, 155488, 155970, 156474, 156974, 157442, 157913, 158397, 158891, 159345, 159817, 160282, 160751, 161246, 161745]",88,EM,L,R,ITMSR,1.1,
4,500,practice,0,2,2,2,practice,"['S', 'S', 'S', 'S', 'S', 'S', 'S', 'C', 'C', 'C', 'C', 'C', 'C', 'C', 'C', 'C', 'C', 'C', 'C', 'C', 'C', 'C', 'C']","[167812, 168269, 168795, 169288, 169826, 170324, 170817, 171333, 171811, 172289, 172764, 173211, 173748, 174263, 174778, 175281, 175777, 176277, 176792, 177291, 177790, 178294, 178789]","[167909, 168360, 168873, 169375, 169899, 170408, 170887, 171403, 171880, 172363, 172841, 173284, 173829, 174349, 174873, 175361, 175860, 176376, 176883, 177383, 177882, 178380, 178878]","[187, 207, 196, 202, 204, 204, 200, 195, 201, 199, 192, 201, 200, 193, 198, 201, 201, 203, 205, 205, 203, 203, 205]","[167842, 168273, 168799, 169292, 169831, 170329, 170821, 171337, 171815, 172293, 172769, 173215, 173753, 174269, 174783, 175286, 175782, 176282, 176797, 177296, 177796, 178299, 178793]","[167385, 167885, 168385, 168885, 169385, 169885, 170385, 170885, 171353, 171831, 172309, 172784, 173231, 173768, 174283, 174798, 175301, 175797, 176297, 176813, 177311, 177810, 178314, 178809]",88,EM,L,R,ITMSR,1.1,
2,500,practice,0,3,3,3,practice,"['S', 'S', 'S', 'S', 'S', 'S', 'C', 'C', 'C', 'C', 'C', 'C', 'C', 'C', 'C', 'C', 'C', 'C', 'C', 'C', 'C', 'C']","[185266, 185786, 186284, 186780, 187290, 187823, 188290, 188932, 189468, 189986, 190513, 191041, 191562, 192087, 192608, 193153, 193651, 194221, 194734, 195255, 195809, 196342]","[185365, 185880, 186370, 186881, 187378, 187900, 188372, 189019, 189563, 190088, 190599, 191141, 191657, 192201, 192702, 193260, 193756, 194321, 194822, 195353, 195922, 196440]","[190, 197, 185, 197, 201, 184, 194, 198, 196, 199, 187, 186, 182, 182, 175, 148, 171, 167, 187, 167, 180, 157]","[185300, 185791, 186290, 186785, 187294, 187828, 188295, 188936, 189473, 189992, 190519, 191047, 191567, 192093, 192613, 193159, 193656, 194226, 194740, 195261, 195814, 196348]","[184365, 184863, 185363, 185863, 186363, 186863, 187363, 187864, 188310, 188952, 189488, 190006, 190533, 191062, 191582, 192107, 192628, 193173, 193671, 194241, 194754, 195275, 195829, 196362]",88,EM,L,R,ITMSR,1.1,
1,500,practice,0,4,4,4,practice,"['S', 'S', 'S', 'S', 'S', 'C', 'C', 'C', 'C', 'C', 'C', 'C', 'C', 'C', 'C', 'C', 'C', 'C', 'C', 'C', 'C']","[203366, 203875, 204390, 204890, 205399, 205916, 206440, 206925, 207549, 208067, 208595, 209085, 209615, 210126, 210658, 211188, 211704, 212228, 212761, 213284, 213812]","[203507, 203977, 204494, 204990, 205487, 206013, 206532, 207024, 207640, 208159, 208668, 209176, 209695, 210222, 210731, 211279, 211785, 212314, 212828, 213384, 213903]","[160, 140, 160, 164, 131, 166, 143, 158, 161, 157, 149, 175, 155, 154, 147, 157, 159, 148, 107, 168, 156]","[203416, 203881, 204396, 204896, 205404, 205921, 206446, 206931, 207554, 208073, 208601, 209090, 209620, 210132, 210663, 211193, 211708, 212233, 212767, 213289, 213817]","[201958, 202458, 202958, 203458, 203958, 204459, 204958, 205458, 205936, 206460, 206945, 207569, 208088, 208615, 209105, 209635, 210146, 210678, 211208, 211724, 212248, 212781, 213304, 213832]",88,EM,L,R,ITMSR,1.1,
5,500,practice,0,5,5,5,practice,"['S', 'S', 'S', 'S', 'S', 'S', 'S', 'S', 'C', 'C', 'C', 'C', 'C', 'C', 'C', 'C', 'C', 'C', 'C', 'C', 'C', 'C', 'C', 'C']","[219488, 219868, 220294, 220770, 221253, 221743, 222259, 222787, 223288, 223792, 224320, 224842, 225328, 225867, 226365, 226918, 227430, 227952, 228504, 229029, 229533, 230125, 230652, 231166]","[219583, 219960, 220382, 220850, 221343, 221826, 222346, 222872, 223380, 223894, 224411, 224926, 225411, 225963, 226456, 226999, 227514, 228045, 228588, 229114, 229645, 230193, 230745, 231263]","[108, 136, 162, 135, 171, 163, 175, 166, 178, 182, 179, 164, 174, 182, 180, 163, 174, 175, 153, 157, 149, 137, 158, 162]","[219532, 219911, 220298, 220774, 221257, 221748, 222263, 222791, 223292, 223796, 224325, 224847, 225333, 225872, 226370, 226923, 227435, 227957, 228509, 229035, 229539, 230131, 230659, 231173]","[219273, 219773, 220273, 220773, 221273, 221773, 222273, 222773, 223308, 223812, 224340, 224862, 225348, 225887, 226385, 226938, 227450, 227972, 228525, 229049, 229553, 230146, 230672, 231186]",88,EM,L,R,ITMSR,1.1,
0,400,trial,0,6,6,6,trial,"['B', 'S', 'S', 'S', 'S', 'S', 'S', 'S', 'S', 'C', 'C', 'C', 'C', 'C', 'C', 'C', 'C', 'C', 'C', 'C', 'C', 'C', 'C', 'C', 'C']","[331737, 332048, 332361, 332567, 332894, 333264, 333661, 334049, 334470, 334901, 335279, 335664, 336048, 336405, 336798, 337180, 337590, 337981, 338372, 338734, 339137, 339519, 339900, 340277, 340694]","[331884, 332178, 332438, 332678, 332981, 333366, 333735, 334137, 334550, 334968, 335346, 335732, 336110, 336468, 336854, 337242, 337639, 338037, 338433, 338798, 339183, 339565, 339948, 340327, 340738]","[191, 209, 184, 214, 218, 205, 197, 207, 212, 211, 211, 215, 213, 212, 213, 214, 211, 211, 207, 196, 191, 205, 204, 203, 192]","[331837, 332052, 332366, 332571, 332897, 333268, 333671, 334053, 334473, 334904, 335283, 335667, 336052, 336408, 336801, 337184, 337593, 337984, 338376, 338737, 339140, 339523, 339904, 340281, 340697]","[331748, 332148, 332548, 332948, 333348, 333748, 334148, 334548, 334921, 335299, 335684, 336068, 336425, 336818, 337200, 337610, 338001, 338392, 338754, 339158, 339539, 339920, 340297, 340714]",88,EM,L,R,ITMSR,1.1,
1,400,trial,0,7,7,7,trial,"['S', 'S', 'S', 'S', 'S', 'S', 'S', 'S', 'C', 'C', 'C', 'C', 'C', 'C', 'C', 'C', 'C', 'C', 'C', 'C', 'C', 'C', 'C', 'C']","[346541, 346759, 347112, 347484, 347891, 348308, 348696, 349081, 349499, 349895, 350275, 350666, 351060, 351476, 351870, 352259, 352658, 353047, 353436, 353836, 354238, 354651, 355062, 355464]","[346625, 346822, 347171, 347545, 347957, 348366, 348745, 349143, 349555, 349959, 350336, 350728, 351127, 351528, 351939, 352331, 352712, 353110, 353495, 353905, 354294, 354698, 355107, 355514]","[179, 191, 194, 202, 204, 191, 189, 201, 202, 203, 208, 207, 208, 200, 209, 210, 209, 208, 206, 209, 211, 205, 199, 188]","[346578, 346765, 347116, 347488, 347896, 348313, 348701, 349085, 349504, 349900, 350279, 350670, 351066, 351480, 351875, 352263, 352661, 353051, 353440, 353839, 354241, 354654, 355065, 355467]","[346329, 346729, 347129, 347529, 347929, 348329, 348729, 349129, 349519, 349915, 350296, 350686, 351080, 351496, 351890, 352279, 352678, 353068, 353456, 353856, 354258, 354671, 355082, 355484]",88,EM,L,R,ITMSR,1.1,
0,600,trial,0,8,8,8,trial,"['S', 'S', 'S', 'S', 'S', 'S', 'S', 'S', 'C', 'C', 'C', 'C', 'C', 'C', 'C', 'C', 'C', 'C', 'C', 'C', 'C', 'C', 'C', 'C']","[361445, 361758, 362337, 362949, 363545, 364130, 364721, 365309, 365927, 366564, 367158, 367738, 368379, 369003, 369607, 370220, 370852, 371433, 372057, 372687, 373304, 373903, 374481, 375062]","[361521, 361844, 362428, 363016, 363615, 364196, 364792, 365369, 365989, 366613, 367215, 367805, 368451, 369064, 369671, 370287, 370904, 371496, 372124, 372740, 373367, 373971, 374549, 375133]","[188, 191, 206, 198, 209, 203, 202, 195, 203, 200, 200, 204, 201, 194, 193, 201, 183, 196, 196, 192, 190, 187, 189, 191]","[361461, 361764, 362341, 362953, 363547, 364134, 364725, 365314, 365932, 366568, 367162, 367741, 368385, 369008, 369611, 370224, 370857, 371437, 372062, 372691, 373308, 373908, 374487, 375065]","[361133, 361733, 362333, 362933, 363533, 364133, 364733, 365333, 365947, 366584, 367178, 367758, 368399, 369024, 369627, 370240, 370872, 371453, 372077, 372707, 373324, 373923, 374501, 375083]",88,EM,L,R,ITMSR,1.1,
1,600,trial,0,9,9,9,trial,"['S', 'S', 'S', 'S', 'S', 'S', 'S', 'C', 'C', 'C', 'C', 'C', 'C', 'C', 'C', 'C', 'C', 'C', 'C', 'C', 'C', 'C', 'C']","[381565, 381818, 382295, 382872, 383494, 384110, 384713, 385291, 385894, 386478, 387118, 387714, 388301, 388898, 389507, 390094, 390697, 391290, 391886, 392522, 393114, 393701, 394271]","[381660, 381923, 382386, 382963, 383588, 384206, 384808, 385370, 385980, 386555, 387198, 387794, 388379, 388975, 389575, 390178, 390753, 391346, 391951, 392578, 393181, 393768, 394340]","[182, 188, 198, 188, 198, 192, 190, 184, 158, 161, 152, 149, 134, 171, 171, 185, 154, 176, 173, 167, 184, 176, 145]","[381572, 381847, 382300, 382876, 383499, 384115, 384718, 385295, 385900, 386484, 387123, 387720, 388307, 388902, 389512, 390099, 390704, 391297, 391892, 392527, 393119, 393706, 394276]","[380514, 381113, 381713, 382313, 382913, 383513, 384113, 384713, 385311, 385914, 386498, 387138, 387734, 388321, 388918, 389527, 390114, 390717, 391310, 391906, 392542, 393134, 393721, 394291]",88,EM,L,R,ITMSR,1.1,
0,600,trial,0,10,10,10,trial,"['S', 'S', 'S', 'S', 'S', 'S', 'S', 'S', 'C', 'C', 'C', 'C', 'C', 'C', 'C', 'C', 'C', 'C', 'C', 'C', 'C', 'C', 'C', 'C']","[400096, 400495, 401030, 401619, 402213, 402780, 403420, 404030, 404669, 405295, 405934, 406598, 407225, 407879, 408497, 409157, 409820, 410454, 411082, 411725, 412354, 413004, 413627, 414254]","[400184, 400619, 401162, 401756, 402417, 403091, 403675, 404302, 404912, 405596, 406242, 406857, 407488, 408133, 408820, 409436, 410045, 410714, 411314, 411927, 412584, 413210, 413857, 414516]","[166, 167, 178, 168, 158, 173, 130, 116, 91, 134, 140, 108, 126, 99, 109, 106, 117, 43, 60, 74, 2, 30, 30, 7]","[400126, 400502, 401035, 401625, 402220, 402785, 403426, 404036, 404676, 405301, 405940, 406605, 407231, 407887, 408504, 409163, 409826, 410461, 411089, 411732, 412407, 413010, 413633, 414260]","[399843, 400442, 401042, 401642, 402242, 402842, 403442, 404042, 404689, 405315, 405954, 406618, 407245, 407899, 408517, 409177, 409840, 410474, 411102, 411745, 412375, 413024, 413647, 414274]",88,EM,L,R,ITMSR,1.1,
3,400,trial,0,11,11,11,trial,"['S', 'S', 'S', 'S', 'S', 'S', 'C', 'C', 'C', 'C', 'C', 'C', 'C', 'C', 'C', 'C', 'C', 'C', 'C', 'C', 'C', 'C']","[420856, 421219, 421615, 422040, 422441, 422831, 423239, 423642, 424043, 424457, 424861, 425272, 425666, 426074, 426478, 426911, 427314, 427719, 428112, 428549, 428972, 429376]","[420955, 421303, 421706, 422124, 422518, 422913, 423323, 423727, 424125, 424532, 424935, 425339, 425739, 426147, 426543, 426989, 427393, 427793, 428206, 428617, 429037, 429435]","[139, 185, 181, 172, 185, 174, 179, 186, 186, 193, 193, 192, 193, 182, 164, 178, 168, 161, 184, 169, 170, 176]","[420893, 421223, 421620, 422045, 422446, 422835, 423243, 423647, 424048, 424462, 424865, 425276, 425670, 426078, 426482, 426915, 427318, 427723, 428116, 428553, 428976, 429380]","[420056, 420456, 420856, 421256, 421656, 422056, 422456, 422856, 423259, 423662, 424064, 424477, 424881, 425292, 425687, 426094, 426498, 426931, 427334, 427739, 428132, 428569, 428992, 429396]",88,EM,L,R,ITMSR,1.1,
4,600,trial,0,12,12,12,trial,"['S', 'S', 'S', 'S', 'S', 'S', 'S', 'S', 'C', 'C', 'C', 'C', 'C', 'C', 'C', 'C', 'C', 'C', 'C', 'C', 'C', 'C', 'C', 'C']","[435312, 435676, 436155, 436727, 437302, 437894, 438470, 439055, 439644, 440239, 440807, 441379, 441974, 442565, 443175, 443762, 444341, 444942, 445515, 446113, 446686, 447279, 447850, 448449]","[435374, 435750, 436224, 436795, 437372, 437960, 438534, 439114, 439685, 440306, 440877, 441452, 442046, 442638, 443253, 443841, 444414, 445009, 445587, 446167, 446755, 447333, 447918, 448503]","[98, 174, 191, 196, 192, 188, 192, 188, 182, 192, 195, 191, 178, 182, 171, 187, 182, 176, 167, 139, 156, 133, 157, 100]","[435320, 435681, 436160, 436731, 437306, 437898, 438474, 439059, 439648, 440243, 440811, 441383, 441978, 442569, 443180, 443766, 444345, 444946, 445519, 446117, 446690, 447283, 447854, 448453]","[434924, 435524, 436124, 436724, 437324, 437924, 438524, 439124, 439664, 440259, 440827, 441399, 441994, 442585, 443195, 443782, 444361, 444962, 445535, 446133, 446706, 447299, 447870, 448470]",88,EM,L,R,ITMSR,1.1,
5,400,trial,0,13,13,13,trial,"['S', 'S', 'S', 'S', 'S', 'S', 'S', 'S', 'C', 'C', 'C', 'C', 'C', 'C', 'C', 'C', 'C', 'C', 'C', 'C', 'C', 'C', 'C', 'C']","[454505, 454838, 455212, 455372, 455658, 456055, 456486, 456896, 457300, 457736, 458123, 458532, 458932, 459354, 459751, 460177, 460589, 461010, 461420, 461845, 462240, 462693, 463093, 463510]","[454587, 454920, 455263, 455446, 455730, 456125, 456557, 456973, 457370, 457793, 458203, 458615, 459002, 459425, 459824, 460240, 460661, 461083, 461508, 461925, 462334, 462738, 463163, 463571]","[128, 183, 190, 192, 205, 202, 204, 197, 187, 188, 201, 193, 185, 197, 183, 175, 179, 171, 179, 141, 171, 144, 171, 151]","[454543, 454842, 455216, 455376, 455662, 456059, 456489, 456900, 457305, 457741, 458126, 458535, 458936, 459357, 459755, 460181, 460593, 461015, 461424, 461850, 462244, 462698, 463097, 463514]","[454156, 454555, 454956, 455355, 455755, 456155, 456555, 456955, 457320, 457756, 458143, 458552, 458952, 459374, 459771, 460197, 460609, 461030, 461441, 461865, 462260, 462713, 463113, 463531]",88,EM,L,R,ITMSR,1.1,
3,600,trial,0,14,14,14,trial,"['S', 'S', 'S', 'S', 'S', 'S', 'S', 'S', 'C', 'C', 'C', 'C', 'C', 'C', 'C', 'C', 'C', 'C', 'C', 'C', 'C', 'C', 'C', 'C']","[469610, 469902, 470440, 471004, 471613, 472193, 472781, 473396, 473996, 474594, 475189, 475819, 476406, 477050, 477635, 478261, 478838, 479430, 480018, 480617, 481231, 481867, 482485, 483109]","[469697, 470000, 470535, 471094, 471676, 472260, 472867, 473468, 474077, 474698, 475284, 475883, 476516, 477160, 477742, 478340, 478920, 479512, 480114, 480694, 481318, 481958, 482609, 483216]","[131, 181, 171, 183, 159, 169, 186, 147, 173, 201, 189, 133, 176, 131, 147, 138, 157, 158, 154, 160, 148, 149, 142, 127]","[469644, 469906, 470445, 471007, 471617, 472197, 472785, 473400, 473999, 474597, 475192, 475823, 476409, 477054, 477638, 478265, 478842, 479434, 480022, 480621, 481234, 481870, 482489, 483113]","[469240, 469840, 470440, 471041, 471640, 472240, 472840, 473440, 474016, 474614, 475209, 475839, 476426, 477070, 477656, 478281, 478858, 479450, 480038, 480637, 481251, 481887, 482505, 483129]",88,EM,L,R,ITMSR,1.1,
0,400,trial,0,15,15,15,trial,"['S', 'S', 'S', 'S', 'S', 'S', 'S', 'S', 'C', 'C', 'C', 'C', 'C', 'C', 'C', 'C', 'C', 'C', 'C', 'C', 'C', 'C', 'C', 'C']","[489229, 489590, 489877, 490050, 490368, 490782, 491198, 491604, 492023, 492446, 492852, 493259, 493678, 494102, 494487, 494887, 495318, 495734, 496133, 496545, 496951, 497373, 497788, 498200]","[489355, 489670, 489952, 490130, 490462, 490869, 491281, 491684, 492104, 492534, 492934, 493347, 493764, 494181, 494570, 494968, 495393, 495813, 496218, 496636, 497043, 497483, 497884, 498300]","[161, 181, 198, 184, 199, 202, 211, 215, 214, 212, 213, 211, 201, 202, 200, 203, 205, 204, 198, 199, 203, 195, 189, 197]","[489272, 489595, 489881, 490077, 490372, 490786, 491202, 491607, 492027, 492449, 492856, 493263, 493683, 494106, 494491, 494892, 495322, 495738, 496137, 496549, 496954, 497376, 497793, 498204]","[488844, 489244, 489645, 490045, 490445, 490845, 491245, 491645, 492043, 492466, 492872, 493279, 493698, 494123, 494508, 494907, 495338, 495754, 496153, 496565, 496971, 497393, 497808, 498221]",88,EM,L,R,ITMSR,1.1,
5,400,trial,0,16,16,16,trial,"['S', 'S', 'S', 'S', 'S', 'S', 'S', 'S', 'C', 'C', 'C', 'C', 'C', 'C', 'C', 'C', 'C', 'C', 'C', 'C', 'C', 'C', 'C', 'C']","[504119, 504371, 504679, 505056, 505470, 505883, 506265, 506660, 507058, 507467, 507868, 508274, 508688, 509114, 509513, 509902, 510307, 510747, 511180, 511596, 512003, 512424, 512834, 513254]","[504222, 504456, 504771, 505148, 505570, 505980, 506351, 506757, 507156, 507565, 507965, 508370, 508790, 509209, 509607, 509998, 510396, 510850, 511271, 511698, 512095, 512513, 512919, 513350]","[199, 201, 207, 207, 210, 208, 207, 216, 211, 210, 206, 205, 203, 191, 198, 205, 190, 195, 199, 196, 191, 192, 189, 196]","[504153, 504375, 504683, 505061, 505475, 505887, 506268, 506663, 507062, 507470, 507871, 508278, 508692, 509118, 509517, 509905, 510311, 510752, 511184, 511599, 512008, 512429, 512839, 513258]","[503895, 504293, 504693, 505093, 505493, 505893, 506293, 506693, 507078, 507487, 507888, 508294, 508708, 509134, 509533, 509922, 510327, 510767, 511200, 511617, 512023, 512444, 512855, 513274]",88,EM,L,R,ITMSR,1.1,
3,600,trial,0,17,17,17,trial,"['S', 'S', 'S', 'S', 'S', 'S', 'S', 'S', 'C', 'C', 'C', 'C', 'C', 'C', 'C', 'C', 'C', 'C', 'C', 'C', 'C', 'C', 'C', 'C']","[519098, 519582, 520032, 520597, 521178, 521783, 522376, 522980, 523579, 524194, 524781, 525394, 526026, 526641, 527295, 527913, 528571, 529169, 529817, 530446, 531084, 531707, 532332, 532973]","[519199, 519672, 520123, 520688, 521270, 521876, 522467, 523060, 523667, 524284, 524892, 525496, 526116, 526713, 527411, 528038, 528679, 529290, 529933, 530541, 531189, 531786, 532413, 533050]","[188, 206, 206, 200, 201, 196, 196, 183, 196, 192, 191, 183, 188, 162, 171, 164, 122, 159, 151, 181, 165, 168, 151, 121]","[519130, 519586, 520036, 520601, 521182, 521786, 522380, 522984, 523582, 524198, 524785, 525399, 526030, 526645, 527299, 527919, 528576, 529173, 529823, 530450, 531089, 531712, 532336, 532977]","[518829, 519429, 520029, 520629, 521229, 521829, 522429, 523029, 523599, 524214, 524802, 525414, 526046, 526661, 527315, 527933, 528591, 529189, 529837, 530466, 531104, 531727, 532353, 532994]",88,EM,L,R,ITMSR,1.1,
2,600,trial,0,18,18,18,trial,"['S', 'S', 'S', 'S', 'S', 'S', 'S', 'S', 'C', 'C', 'C', 'C', 'C', 'C', 'C', 'C', 'C', 'C', 'C', 'C', 'C', 'C', 'C', 'C']","[538973, 539307, 539825, 540409, 540994, 541584, 542206, 542839, 543443, 544072, 544690, 545309, 545957, 546626, 547252, 547860, 548492, 549130, 549753, 550397, 551032, 551640, 552295, 552947]","[539081, 539446, 539955, 540580, 541291, 541898, 542530, 543135, 543707, 544377, 544993, 545641, 546270, 546879, 547489, 548134, 548757, 549354, 549997, 550612, 551228, 551862, 552516, 553178]","[173, 196, 191, 184, 199, 176, 181, 177, 187, 179, 191, 185, 185, 190, 187, 197, 205, 204, 200, 199, 197, 173, 206, 203]","[539016, 539311, 539829, 540413, 540998, 541588, 542211, 542842, 543447, 544075, 544693, 545312, 545960, 546630, 547256, 547864, 548496, 549134, 549756, 550401, 551036, 551644, 552298, 552950]","[538622, 539222, 539821, 540421, 541021, 541621, 542221, 542821, 543463, 544092, 544710, 545329, 545977, 546647, 547272, 547880, 548512, 549150, 549773, 550417, 551052, 551660, 552315, 552967]",88,EM,L,R,ITMSR,1.1,
4,400,trial,0,19,19,19,trial,"['S', 'S', 'S', 'S', 'S', 'S', 'S', 'S', 'C', 'C', 'C', 'C', 'C', 'C', 'C', 'C', 'C', 'C', 'C', 'C', 'C', 'C', 'C', 'C']","[559094, 559371, 559566, 559891, 560295, 560707, 561122, 561547, 561909, 562295, 562654, 563083, 563470, 563890, 564273, 564706, 565132, 565537, 565956, 566379, 566796, 567204, 567608, 568031]","[559223, 559455, 559660, 560010, 560429, 560826, 561244, 561674, 562032, 562397, 562776, 563201, 563589, 564012, 564405, 564820, 565239, 565655, 566078, 566487, 566900, 567313, 567710, 568130]","[149, 188, 204, 207, 202, 201, 203, 195, 203, 199, 197, 191, 198, 203, 190, 191, 174, 183, 194, 188, 193, 189, 195, 179]","[559139, 559376, 559571, 559894, 560300, 560711, 561125, 561550, 561913, 562300, 562659, 563087, 563474, 563894, 564278, 564710, 565136, 565542, 565960, 566384, 566800, 567208, 567612, 568036]","[558743, 559143, 559543, 559943, 560344, 560744, 561144, 561544, 561929, 562315, 562674, 563103, 563490, 563910, 564293, 564726, 565152, 565557, 565976, 566400, 566816, 567224, 567628, 568051]",88,EM,L,R,ITMSR,1.1,
5,600,trial,0,20,20,20,trial,"['S', 'S', 'S', 'S', 'S', 'S', 'S', 'S', 'C', 'C', 'C', 'C', 'C', 'C', 'C', 'C', 'C', 'C', 'C', 'C', 'C', 'C', 'C', 'C']","[573977, 574273, 574929, 575555, 576124, 576719, 577341, 577960, 578541, 579119, 579723, 580364, 580988, 581590, 582204, 582817, 583405, 584026, 584634, 585243, 585861, 586477, 587064, 587741]","[574071, 574415, 575104, 575712, 576291, 576857, 577498, 578081, 578668, 579253, 579865, 580532, 581199, 581801, 582423, 583035, 583699, 584288, 584919, 585549, 586165, 586763, 587387]","[175, 213, 208, 210, 210, 201, 196, 194, 197, 201, 203, 210, 204, 209, 207, 191, 203, 195, 200, 201, 200, 185, 196]","[573981, 574276, 574934, 575559, 576129, 576724, 577344, 577966, 578545, 579123, 579727, 580367, 580993, 581593, 582208, 582822, 583409, 584031, 584638, 585247, 585866, 586483, 587069]","[573764, 574363, 574963, 575563, 576163, 576763, 577363, 577964, 578562, 579139, 579743, 580384, 581008, 581610, 582224, 582837, 583426, 584046, 584654, 585263, 585881, 586498, 587084, 587761]",88,EM,L,R,ITMSR,1.1,
1,400,trial,0,21,21,21,trial,"['S', 'S', 'S', 'S', 'S', 'S', 'S', 'S', 'C', 'C', 'C', 'C', 'C', 'C', 'C', 'C', 'C', 'C', 'C', 'C', 'C', 'C', 'C', 'C']","[593426, 593765, 594031, 594287, 594634, 595061, 595462, 595857, 596262, 596672, 597075, 597489, 597906, 598332, 598747, 599173, 599606, 600022, 600458, 600868, 601311, 601725, 602158, 602576]","[593531, 593876, 594122, 594394, 594844, 595237, 595629, 596032, 596446, 596818, 597251, 597664, 598074, 598470, 598887, 599297, 599727, 600138, 600572, 600987, 601431, 601853, 602293, 602711]","[147, 202, 198, 200, 204, 198, 204, 204, 206, 209, 211, 210, 209, 198, 198, 208, 204, 207, 200, 207, 204, 201, 202, 192]","[593432, 593769, 594036, 594291, 594638, 595065, 595467, 595861, 596267, 596676, 597080, 597493, 597911, 598336, 598751, 599177, 599609, 600026, 600462, 600871, 601315, 601729, 602161, 602579]","[593073, 593473, 593873, 594273, 594673, 595074, 595474, 595874, 596282, 596692, 597095, 597509, 597926, 598352, 598767, 599193, 599626, 600042, 600478, 600888, 601331, 601745, 602178, 602596]",88,EM,L,R,ITMSR,1.1,
2,400,trial,0,22,22,22,trial,"['S', 'S', 'S', 'S', 'S', 'S', 'S', 'C', 'C', 'C', 'C', 'C', 'C', 'C', 'C', 'C', 'C', 'C', 'C', 'C', 'C', 'C', 'C']","[608345, 608652, 609065, 609443, 609872, 610281, 610671, 611074, 611465, 611871, 612252, 612699, 613116, 613517, 613909, 614341, 614746, 615158, 615575, 615974, 616432, 616867, 617274]","[608466, 608771, 609189, 609572, 609992, 610405, 610796, 611185, 611573, 611982, 612366, 612825, 613224, 613620, 614023, 614443, 614864, 615268, 615672, 616084, 616516, 616946, 617345]","[161, 201, 202, 215, 210, 212, 204, 202, 206, 208, 203, 205, 200, 201, 197, 196, 188, 192, 185, 203, 197, 183, 186]","[608387, 608656, 609070, 609447, 609876, 610284, 610675, 611079, 611469, 611875, 612255, 612702, 613120, 613520, 613912, 614344, 614750, 615161, 615579, 615977, 616435, 616871, 617279]","[607895, 608295, 608695, 609095, 609496, 609896, 610296, 610696, 611094, 611485, 611891, 612272, 612719, 613136, 613537, 613929, 614361, 614766, 615178, 615596, 615994, 616452, 616887, 617294]",88,EM,L,R,ITMSR,1.1,
2,600,trial,0,23,23,23,trial,"['B', 'S', 'S', 'S', 'S', 'S', 'S', 'S', 'S', 'C', 'C', 'C', 'C', 'C', 'C', 'C', 'C', 'C', 'C', 'C', 'C', 'C', 'C', 'C', 'C']","[622968, 623265, 623508, 624126, 624726, 625356, 625950, 626565, 627171, 627758, 628346, 628973, 629561, 630167, 630771, 631391, 632001, 632619, 633240, 633853, 634470, 635081, 635700, 636322, 636968]","[623125, 623377, 623895, 624490, 625089, 625679, 626278, 626895, 627447, 628043, 628645, 629254, 629880, 630489, 631079, 631675, 632298, 632918, 633533, 634165, 634768, 635380, 636007, 636635]","[148, 185, 179, 204, 207, 201, 207, 207, 207, 206, 201, 195, 199, 204, 196, 202, 205, 200, 199, 206, 198, 192, 197, 203]","[623029, 623270, 623583, 624130, 624730, 625360, 625954, 626569, 627175, 627763, 628350, 628977, 629564, 630171, 630775, 631395, 632006, 632623, 633244, 633857, 634474, 635085, 635704, 636326]","[622980, 623580, 624180, 624780, 625380, 625980, 626580, 627180, 627778, 628366, 628994, 629581, 630188, 630791, 631411, 632022, 632639, 633261, 633873, 634490, 635101, 635720, 636342, 636988]",88,EM,L,R,ITMSR,1.1,
3,400,trial,0,24,24,24,trial,"['S', 'S', 'S', 'S', 'S', 'S', 'S', 'S', 'C', 'C', 'C', 'C', 'C', 'C', 'C', 'C', 'C', 'C', 'C', 'C', 'C', 'C', 'C', 'C']","[642766, 643121, 643375, 643628, 643962, 644373, 644798, 645213, 645608, 645998, 646382, 646809, 647216, 647644, 648087, 648512, 648946, 649373, 649814, 650251, 650652, 651098, 651524, 651970]","[642918, 643243, 643474, 643738, 644107, 644559, 644962, 645365, 645752, 646136, 646545, 646949, 647350, 647763, 648230, 648640, 649066, 649484, 649933, 650366, 650770, 651214, 651655, 652082]","[164, 202, 194, 201, 206, 200, 209, 199, 202, 211, 212, 205, 206, 208, 209, 197, 203, 208, 207, 211, 214, 208, 203, 204]","[642810, 643126, 643379, 643632, 643965, 644376, 644802, 645216, 645612, 646001, 646385, 646813, 647219, 647647, 648091, 648516, 648950, 649376, 649817, 650255, 650656, 651101, 651527, 651974]","[642420, 642819, 643219, 643619, 644019, 644419, 644819, 645219, 645628, 646018, 646402, 646829, 647236, 647664, 648108, 648532, 648966, 649393, 649834, 650271, 650672, 651118, 651544, 651991]",88,EM,L,R,ITMSR,1.1,
2,400,trial,0,25,25,25,trial,"['B', 'S', 'S', 'S', 'S', 'S', 'S', 'S', 'C', 'C', 'C', 'C', 'C', 'C', 'C', 'C', 'C', 'C', 'C', 'C', 'C', 'C', 'C', 'C']","[657306, 657681, 658064, 658483, 658892, 659294, 659675, 660083, 660487, 660881, 661298, 661705, 662121, 662554, 662962, 663382, 663797, 664217, 664645, 665058, 665487, 665912, 666349, 666783]","[657521, 657815, 658234, 658630, 659038, 659437, 659815, 660213, 660625, 661015, 661432, 661836, 662236, 662664, 663077, 663503, 663923, 664340, 664749, 665172, 665597, 666031, 666472, 666891]","[64, 195, 196, 207, 200, 183, 197, 201, 192, 194, 184, 195, 195, 196, 193, 172, 197, 192, 173, 168, 188, 198, 156, 205]","[657306, 657685, 658067, 658486, 658896, 659298, 659678, 660087, 660491, 660885, 661302, 661709, 662125, 662558, 662966, 663386, 663801, 664221, 664649, 665062, 665490, 665915, 666354, 666786]","[657317, 657717, 658117, 658518, 658917, 659317, 659717, 660117, 660507, 660901, 661318, 661725, 662141, 662574, 662982, 663402, 663817, 664237, 664665, 665078, 665507, 665932, 666370, 666803]",88,EM,L,R,ITMSR,1.1,
4,400,trial,0,26,26,26,trial,"['B', 'S', 'S', 'S', 'S', 'S', 'S', 'S', 'C', 'C', 'C', 'C', 'C', 'C', 'C', 'C', 'C', 'C', 'C', 'C', 'C', 'C', 'C', 'C']","[672081, 672413, 672785, 673217, 673603, 674026, 674427, 674841, 675239, 675662, 676035, 676460, 676864, 677294, 677700, 678126, 678541, 678946, 679357, 679779, 680187, 680605, 681030, 681433]","[672261, 672532, 672911, 673332, 673726, 674131, 674533, 674944, 675339, 675753, 676131, 676556, 676956, 677380, 677790, 678204, 678632, 679022, 679430, 679855, 680268, 680698, 681108, 681505]","[209, 204, 198, 206, 202, 202, 203, 210, 205, 198, 193, 189, 188, 196, 203, 194, 191, 193, 191, 195, 194, 202, 187, 199]","[672214, 672416, 672788, 673221, 673606, 674030, 674430, 674845, 675244, 675665, 676039, 676464, 676868, 677298, 677704, 678130, 678545, 678950, 679361, 679783, 680192, 680609, 681034, 681437]","[672093, 672493, 672893, 673293, 673693, 674093, 674493, 674893, 675259, 675682, 676056, 676481, 676884, 677314, 677720, 678146, 678561, 678966, 679377, 679799, 680207, 680625, 681050, 681453]",88,EM,L,R,ITMSR,1.1,
1,600,trial,0,27,27,27,trial,"['B', 'S', 'S', 'S', 'S', 'S', 'S', 'S', 'S', 'C', 'C', 'C', 'C', 'C', 'C', 'C', 'C', 'C', 'C', 'C', 'C', 'C', 'C', 'C', 'C']","[687203, 687547, 688029, 688439, 688985, 689591, 690193, 690808, 691382, 692009, 692659, 693287, 693928, 694512, 695150, 695790, 696400, 697017, 697691, 698334, 698998, 699628, 700252, 700879, 701480]","[687420, 687655, 688222, 688660, 689145, 689732, 690307, 690895, 691467, 692080, 692739, 693361, 693996, 694595, 695228, 695857, 696472, 697093, 697760, 698404, 699068, 699698, 700312, 700946, 701540]","[10, 209, 203, 204, 197, 198, 194, 159, 191, 194, 184, 188, 191, 199, 196, 203, 196, 186, 191, 205, 201, 185, 200, 178, 189]","[687377, 687551, 688034, 688443, 688989, 689595, 690196, 690812, 691386, 692014, 692663, 693292, 693934, 694516, 695154, 695793, 696404, 697021, 697695, 698337, 699001, 699632, 700256, 700883, 701485]","[687215, 687815, 688415, 689015, 689615, 690215, 690816, 691416, 692029, 692679, 693307, 693948, 694532, 695170, 695810, 696420, 697037, 697711, 698354, 699018, 699649, 700272, 700899, 701500]",88,EM,L,R,ITMSR,1.1,
4,600,trial,0,28,28,28,trial,"['B', 'S', 'S', 'S', 'S', 'S', 'S', 'S', 'S', 'C', 'C', 'C', 'C', 'C', 'C', 'C', 'C', 'C', 'C', 'C', 'C', 'C', 'C', 'C', 'C']","[706905, 707264, 707728, 708192, 708728, 709307, 709902, 710504, 711100, 711691, 712316, 712938, 713552, 714165, 714784, 715109, 715425, 716092, 716770, 717450, 718105, 718754, 719416, 720094, 720794]","[707129, 707540, 707985, 708360, 708976, 709544, 710139, 710776, 711314, 711921, 712491, 713106, 713762, 714328, 714921, 715129, 715580, 716201, 716883, 717552, 718204, 718871, 719546, 720192, 720877]","[95, 190, 208, 210, 209, 203, 183, 198, 187, 181, 162, 151, 164, 165, 153, 142, 149, 161, 163, 141, 138, 135, 151, 170, 161]","[707102, 707269, 707732, 708195, 708732, 709310, 709906, 710508, 711104, 711694, 712321, 712942, 713556, 714169, 714789, 715116, 715429, 716096, 716774, 717454, 718109, 718758, 719419, 720098, 720798]","[706916, 707516, 708116, 708716, 709316, 709916, 710516, 711116, 711711, 712336, 712958, 713572, 714185, 714804, 715129, 715445, 716112, 716790, 717470, 718125, 718774, 719436, 720114, 720814]",88,EM,L,R,ITMSR,1.1,
5,600,trial,0,29,29,29,trial,"['S', 'S', 'S', 'S', 'S', 'S', 'S', 'S', 'C', 'C', 'C', 'C', 'C', 'C', 'C', 'C', 'C', 'C', 'C', 'C', 'C', 'C', 'C', 'C']","[726925, 727260, 727776, 728345, 728910, 729506, 730124, 730729, 731351, 731956, 732572, 733207, 733821, 734430, 735041, 735682, 736304, 736915, 737537, 738182, 738804, 739430, 740061, 740674]","[727038, 727437, 727946, 728480, 729058, 729625, 730252, 730851, 731460, 732044, 732674, 733291, 733902, 734510, 735135, 735748, 736358, 736971, 737606, 738234, 738860, 739486, 740125, 740733]","[146, 208, 194, 191, 182, 178, 184, 164, 171, 175, 147, 138, 135, 107, 100, 49, 92, 68, 83, 37, 12, 67, 86, 82]","[726930, 727265, 727780, 728349, 728914, 729510, 730128, 730734, 731355, 731960, 732577, 733212, 733827, 734435, 735047, 735688, 736309, 736919, 737545, 738189, 738809, 739434, 740066, 740679]","[726539, 727139, 727739, 728339, 728939, 729539, 730139, 730739, 731371, 731976, 732592, 733228, 733841, 734450, 735062, 735703, 736324, 736935, 737557, 738202, 738824, 739450, 740081, 740695]",88,EM,L,R,ITMSR,1.1,
3,600,trial,0,30,30,30,trial,"['S', 'S', 'S', 'S', 'S', 'S', 'S', 'S', 'C', 'C', 'C', 'C', 'C', 'C', 'C', 'C', 'C', 'C', 'C', 'C', 'C', 'C', 'C', 'C']","[756466, 756864, 757412, 758035, 758638, 759288, 759820, 760417, 761009, 761591, 762214, 762830, 763478, 764098, 764740, 765358, 765952, 766580, 767195, 767825, 768463, 769081, 769703, 770345]","[756562, 756981, 757515, 758140, 758727, 759377, 759920, 760497, 761091, 761671, 762289, 762938, 763557, 764182, 764832, 765454, 766058, 766675, 767287, 767900, 768537, 769157, 769775, 770429]","[195, 203, 202, 205, 199, 197, 208, 200, 202, 196, 181, 200, 201, 191, 182, 204, 196, 190, 199, 192, 189, 192, 193, 194]","[756472, 756868, 757416, 758040, 758644, 759293, 759825, 760423, 761015, 761597, 762220, 762835, 763482, 764104, 764746, 765363, 765957, 766585, 767200, 767831, 768468, 769085, 769709, 770351]","[756260, 756860, 757460, 758061, 758661, 759261, 759861, 760461, 761029, 761611, 762234, 762850, 763498, 764119, 764760, 765378, 765972, 766600, 767215, 767845, 768483, 769101, 769723, 770365]",88,EM,L,R,ITMSR,1.1,
4,600,trial,0,31,31,31,trial,"['S', 'S', 'S', 'S', 'S', 'S', 'S', 'S', 'C', 'C', 'C', 'C', 'C', 'C', 'C', 'C', 'C', 'C', 'C', 'C', 'C', 'C', 'C', 'C']","[775910, 776328, 776884, 777479, 778075, 778703, 779258, 779868, 780480, 781090, 781676, 782278, 782884, 783498, 784088, 784674, 785302, 785938, 786540, 787134, 787767, 788402, 789045, 789645]","[776029, 776438, 776974, 777580, 778182, 778789, 779366, 779943, 780557, 781172, 781763, 782364, 782977, 783582, 784181, 784764, 785371, 786008, 786612, 787238, 787838, 788482, 789114, 789721]","[181, 177, 159, 208, 198, 175, 161, 135, 166, 148, 144, 162, 168, 121, 116, 132, 131, 156, 127, 127, 133, 148, 122, 41]","[775955, 776333, 776888, 777484, 778082, 778711, 779267, 779875, 780487, 781097, 781684, 782284, 782892, 783506, 784095, 784681, 785309, 785944, 786548, 787141, 787774, 788407, 789052, 789654]","[775717, 776317, 776918, 777517, 778117, 778717, 779317, 779917, 780500, 781110, 781697, 782298, 782904, 783518, 784108, 784694, 785323, 785958, 786561, 787154, 787787, 788422, 789065, 789665]",88,EM,L,R,ITMSR,1.1,
0,600,trial,0,32,32,32,trial,"['S', 'S', 'S', 'S', 'S', 'S', 'S', 'S', 'C', 'C', 'C', 'C', 'C', 'C', 'C', 'C', 'C', 'C', 'C', 'C', 'C', 'C', 'C', 'C']","[795472, 795805, 796322, 796900, 797504, 798117, 798693, 799325, 799963, 800539, 801134, 801742, 802356, 802970, 803552, 804162, 804775, 805393, 806028, 806646, 807283, 807880, 808495, 809099]","[795591, 795932, 796438, 796998, 797604, 798211, 798788, 799404, 800035, 800623, 801204, 801822, 802430, 803040, 803634, 804233, 804851, 805468, 806097, 806724, 807350, 807945, 808564, 809166]","[159, 196, 210, 202, 206, 185, 195, 196, 194, 172, 171, 175, 180, 194, 182, 186, 174, 178, 157, 173, 160, 151, 147, 144]","[795521, 795810, 796326, 796905, 797508, 798124, 798699, 799330, 799968, 800545, 801140, 801748, 802362, 802975, 803559, 804167, 804781, 805399, 806032, 806652, 807289, 807886, 808501, 809105]","[795133, 795732, 796333, 796933, 797533, 798133, 798733, 799333, 799983, 800559, 801154, 801762, 802376, 802990, 803572, 804183, 804795, 805413, 806048, 806666, 807303, 807900, 808515, 809119]",88,EM,L,R,ITMSR,1.1,
0,600,trial,0,33,33,33,trial,"['S', 'S', 'S', 'S', 'S', 'S', 'S', 'S', 'C', 'C', 'C', 'C', 'C', 'C', 'C', 'C', 'C', 'C', 'C', 'C', 'C', 'C', 'C', 'C']","[814984, 815374, 815908, 816477, 817078, 817652, 818245, 818856, 819493, 820069, 820677, 821274, 821899, 822484, 823150, 823745, 824381, 825012, 825654, 826280, 826909, 827549, 828198, 828817]","[815087, 815474, 816000, 816562, 817142, 817731, 818329, 818933, 819568, 820166, 820745, 821337, 821955, 822545, 823195, 823798, 824428, 825065, 825710, 826326, 826957, 827572, 828249, 828869]","[158, 181, 192, 195, 167, 189, 182, 188, 176, 187, 193, 179, 187, 181, 150, 166, 175, 154, 149, 137, 168, 140, 186, 177]","[814990, 815381, 815913, 816482, 817086, 817659, 818252, 818864, 819501, 820076, 820683, 821281, 821905, 822492, 823156, 823752, 824387, 825019, 825660, 826287, 826915, 827556, 828205, 828823]","[814729, 815329, 815929, 816529, 817129, 817729, 818329, 818929, 819513, 820089, 820697, 821294, 821919, 822504, 823170, 823766, 824401, 825032, 825674, 826300, 826929, 827569, 828218, 828837]",88,EM,L,R,ITMSR,1.1,
1,400,trial,0,34,34,34,trial,"['S', 'S', 'S', 'S', 'S', 'S', 'S', 'C', 'C', 'C', 'C', 'C', 'C', 'C', 'C', 'C', 'C', 'C', 'C', 'C', 'C', 'C', 'C']","[834594, 834970, 835386, 835808, 836224, 836624, 837036, 837451, 837838, 838258, 838681, 839079, 839497, 839924, 840343, 840760, 841203, 841632, 842060, 842482, 842927, 843343, 843796]","[834708, 835075, 835496, 835906, 836308, 836720, 837106, 837533, 837922, 838339, 838752, 839165, 839587, 839995, 840415, 840833, 841264, 841686, 842127, 842563, 842976, 843414, 843864]","[140, 189, 207, 196, 181, 189, 189, 176, 174, 176, 183, 155, 117, 114, 131, 119, 98, 107, 113, 106, 107, 155, 151]","[834601, 834976, 835392, 835814, 836230, 836630, 837041, 837458, 837843, 838263, 838687, 839087, 839503, 839930, 840349, 840765, 841209, 841638, 842066, 842487, 842932, 843350, 843801]","[834257, 834657, 835057, 835458, 835858, 836258, 836658, 837058, 837471, 837858, 838278, 838701, 839099, 839517, 839944, 840364, 840780, 841223, 841652, 842080, 842502, 842947, 843363, 843816]",88,EM,L,R,ITMSR,1.1,
2,600,trial,0,35,35,35,trial,"['S', 'S', 'S', 'S', 'S', 'S', 'S', 'S', 'C', 'C', 'C', 'C', 'C', 'C', 'C', 'C', 'C', 'C', 'C', 'C', 'C', 'C', 'C', 'C']","[849880, 850308, 850762, 851308, 851879, 852461, 853070, 853669, 854290, 854855, 855444, 856022, 856612, 857220, 857818, 858445, 859027, 859631, 860248, 860832, 861481, 862090, 862700, 863289]","[849982, 850442, 850883, 851431, 851974, 852550, 853141, 853739, 854360, 854922, 855507, 856101, 856669, 857264, 857881, 858494, 859086, 859679, 860298, 860903, 861544, 862152, 862758, 863341]","[108, 176, 195, 163, 178, 175, 174, 177, 153, 141, 163, 152, 129, 117, 145, 165, 146, 157, 153, 132, 131, 64, 103, 104]","[849886, 850313, 850767, 851313, 851885, 852466, 853076, 853672, 854296, 854861, 855450, 856027, 856617, 857226, 857823, 858451, 859033, 859637, 860254, 860838, 861487, 862096, 862706, 863295]","[849503, 850103, 850703, 851303, 851903, 852503, 853103, 853703, 854310, 854875, 855464, 856042, 856632, 857240, 857838, 858465, 859047, 859651, 860268, 860852, 861501, 862110, 862721, 863309]",88,EM,L,R,ITMSR,1.1,
2,400,trial,0,36,36,36,trial,"['S', 'S', 'S', 'S', 'S', 'S', 'S', 'S', 'S', 'C', 'C', 'C', 'C', 'C', 'C', 'C', 'C', 'C', 'C', 'C', 'C', 'C', 'C', 'C', 'C']","[868967, 869282, 869455, 869623, 869823, 870187, 870622, 871023, 871427, 871858, 872267, 872690, 873101, 873513, 873932, 874366, 874798, 875238, 875678, 876108, 876567, 877021, 877457, 877913, 878355]","[869073, 869365, 869543, 869680, 869906, 870286, 870709, 871106, 871513, 871947, 872343, 872765, 873170, 873589, 874016, 874454, 874873, 875331, 875758, 876200, 876654, 877100, 877548, 878015, 878446]","[135, 189, 184, 151, 206, 204, 207, 205, 209, 197, 203, 195, 204, 200, 188, 187, 171, 181, 174, 181, 179, 183, 186, 184, 180]","[868976, 869288, 869462, 869623, 869826, 870191, 870625, 871027, 871431, 871862, 872271, 872694, 873105, 873518, 873936, 874372, 874802, 875242, 875682, 876113, 876572, 877025, 877460, 877916, 878359]","[868661, 869061, 869462, 869861, 870261, 870661, 871061, 871461, 871878, 872287, 872710, 873121, 873533, 873952, 874386, 874818, 875258, 875698, 876128, 876588, 877041, 877477, 877933, 878375]",88,EM,L,R,ITMSR,1.1,
5,400,trial,0,37,37,37,trial,"['S', 'S', 'S', 'S', 'S', 'S', 'S', 'S', 'C', 'C', 'C', 'C', 'C', 'C', 'C', 'C', 'C', 'C', 'C', 'C', 'C', 'C', 'C', 'C']","[884172, 884534, 884816, 885165, 885550, 885970, 886385, 886765, 887155, 887569, 887959, 888364, 888773, 889201, 889607, 890011, 890428, 890835, 891244, 891666, 892063, 892520, 892932, 893357]","[884295, 884625, 884914, 885264, 885643, 886051, 886469, 886850, 887243, 887646, 888043, 888443, 888848, 889282, 889693, 890097, 890497, 890926, 891313, 891737, 892140, 892585, 893012, 893438]","[193, 204, 210, 211, 212, 202, 205, 207, 209, 205, 207, 207, 205, 202, 202, 199, 195, 196, 194, 200, 201, 200, 203, 195]","[884207, 884540, 884823, 885170, 885555, 885977, 886389, 886770, 887160, 887574, 887964, 888369, 888778, 889207, 889612, 890016, 890433, 890842, 891249, 891671, 892068, 892525, 892938, 893364]","[883992, 884392, 884792, 885192, 885592, 885992, 886392, 886792, 887175, 887589, 887980, 888384, 888793, 889221, 889627, 890031, 890448, 890855, 891265, 891686, 892083, 892540, 892952, 893377]",88,EM,L,R,ITMSR,1.1,
0,400,trial,0,38,38,38,trial,"['S', 'S', 'S', 'S', 'S', 'S', 'C', 'C', 'C', 'C', 'C', 'C', 'C', 'C', 'C', 'C', 'C', 'C', 'C', 'C', 'C', 'C']","[899847, 900211, 900590, 900984, 901390, 901785, 902198, 902605, 903019, 903434, 903847, 904249, 904669, 905077, 905500, 905909, 906299, 906717, 907156, 907582, 908010, 908449]","[899933, 900298, 900687, 901082, 901482, 901879, 902289, 902699, 903110, 903522, 903934, 904338, 904757, 905164, 905575, 905974, 906366, 906801, 907229, 907665, 908086, 908539]","[187, 203, 205, 208, 205, 202, 208, 203, 194, 208, 210, 209, 208, 204, 202, 200, 204, 198, 212, 206, 192, 184]","[899854, 900216, 900596, 900989, 901394, 901789, 902202, 902610, 903024, 903439, 903853, 904254, 904674, 905082, 905506, 905915, 906304, 906723, 907161, 907587, 908015, 908454]","[899023, 899423, 899823, 900224, 900623, 901023, 901423, 901823, 902218, 902625, 903040, 903454, 903867, 904269, 904689, 905097, 905520, 905929, 906319, 906737, 907176, 907602, 908030, 908469]",88,EM,L,R,ITMSR,1.1,
3,400,trial,0,39,39,39,trial,"['S', 'S', 'S', 'S', 'S', 'S', 'S', 'C', 'C', 'C', 'C', 'C', 'C', 'C', 'C', 'C', 'C', 'C', 'C', 'C', 'C', 'C', 'C']","[914393, 914794, 915129, 915393, 915709, 916105, 916519, 916931, 917319, 917725, 918121, 918537, 918932, 919327, 919731, 920145, 920554, 920963, 921371, 921807, 922226, 922635, 923053]","[914504, 914881, 915202, 915459, 915783, 916173, 916594, 916997, 917386, 917790, 918197, 918598, 918991, 919391, 919792, 920203, 920613, 921031, 921438, 921875, 922283, 922700, 923112]","[168, 189, 201, 157, 205, 210, 211, 205, 207, 210, 209, 203, 195, 205, 210, 199, 211, 212, 214, 206, 203, 196, 190]","[914401, 914801, 915136, 915403, 915716, 916110, 916526, 916937, 917325, 917731, 918126, 918544, 918938, 919332, 919736, 920152, 920559, 920968, 921377, 921812, 922232, 922640, 923059]","[913780, 914180, 914580, 914980, 915380, 915780, 916180, 916580, 916952, 917339, 917745, 918141, 918557, 918952, 919347, 919751, 920165, 920574, 920983, 921391, 921827, 922246, 922655, 923073]",88,EM,L,R,ITMSR,1.1,
0,400,trial,0,40,40,40,trial,"['S', 'S', 'S', 'S', 'S', 'S', 'S', 'C', 'C', 'C', 'C', 'C', 'C', 'C', 'C', 'C', 'C', 'C', 'C', 'C', 'C', 'C', 'C']","[928909, 929253, 929669, 930069, 930470, 930889, 931293, 931689, 932101, 932496, 932900, 933312, 933711, 934104, 934549, 934946, 935358, 935788, 936199, 936628, 937035, 937467, 937894]","[928985, 929327, 929733, 930136, 930535, 930957, 931362, 931766, 932168, 932563, 932962, 933366, 933768, 934171, 934619, 935007, 935424, 935847, 936270, 936686, 937102, 937531, 937953]","[167, 180, 188, 185, 188, 186, 190, 191, 184, 184, 177, 181, 185, 187, 199, 182, 189, 188, 194, 182, 197, 190, 190]","[928917, 929258, 929675, 930075, 930476, 930894, 931298, 931694, 932106, 932502, 932908, 933318, 933716, 934109, 934555, 934952, 935364, 935793, 936205, 936634, 937040, 937474, 937901]","[928533, 928933, 929333, 929733, 930134, 930533, 930933, 931333, 931709, 932121, 932516, 932920, 933332, 933731, 934124, 934569, 934966, 935378, 935809, 936219, 936648, 937055, 937487, 937914]",88,EM,L,R,ITMSR,1.1,
4,600,trial,0,41,41,41,trial,"['S', 'S', 'S', 'S', 'S', 'S', 'S', 'S', 'C', 'C', 'C', 'C', 'C', 'C', 'C', 'C', 'C', 'C', 'C', 'C', 'C', 'C', 'C', 'C']","[943897, 944174, 944760, 945403, 945989, 946618, 947197, 947786, 948348, 948920, 949494, 950075, 950659, 951266, 951853, 952416, 953022, 953668, 954253, 954842, 955397, 956041, 956609, 957206]","[943948, 944252, 944821, 945470, 946057, 946683, 947240, 947840, 948406, 948994, 949562, 950174, 950724, 951329, 951902, 952487, 953084, 953733, 954321, 954903, 955445, 956085, 956665, 957254]","[211, 208, 209, 195, 193, 191, 131, 168, 191, 190, 195, 195, 197, 195, 181, 189, 190, 190, 193, 196, 187, 185, 195, 195]","[943901, 944179, 944765, 945408, 945994, 946622, 947206, 947792, 948353, 948924, 949498, 950081, 950666, 951272, 951859, 952422, 953028, 953674, 954259, 954848, 955403, 956047, 956615, 957211]","[943664, 944264, 944864, 945464, 946064, 946664, 947264, 947864, 948368, 948940, 949514, 950095, 950679, 951286, 951873, 952436, 953042, 953688, 954273, 954862, 955417, 956061, 956630, 957227]",88,EM,L,R,ITMSR,1.1,
4,400,trial,0,42,42,42,trial,"['S', 'S', 'S', 'S', 'S', 'S', 'S', 'S', 'C', 'C', 'C', 'C', 'C', 'C', 'C', 'C', 'C', 'C', 'C', 'C', 'C', 'C', 'C', 'C']","[963011, 963326, 963561, 963759, 964082, 964501, 964899, 965315, 965705, 966132, 966520, 966939, 967346, 967747, 968182, 968604, 969024, 969443, 969878, 970310, 970723, 971143, 971573, 972027]","[963085, 963404, 963639, 963842, 964167, 964593, 964975, 965384, 965779, 966190, 966589, 967004, 967405, 967810, 968242, 968672, 969099, 969515, 969946, 970378, 970806, 971225, 971669, 972091]","[152, 165, 176, 185, 186, 189, 187, 180, 192, 192, 202, 202, 199, 200, 204, 205, 203, 211, 212, 209, 214, 217, 217, 207]","[963015, 963334, 963566, 963765, 964086, 964506, 964905, 965321, 965711, 966138, 966526, 966945, 967352, 967753, 968188, 968609, 969030, 969448, 969883, 970315, 970728, 971148, 971578, 972034]","[962575, 962975, 963375, 963775, 964175, 964575, 964975, 965376, 965725, 966152, 966540, 966959, 967366, 967768, 968202, 968624, 969044, 969463, 969899, 970330, 970743, 971163, 971593, 972047]",88,EM,L,R,ITMSR,1.1,
1,600,trial,0,43,43,43,trial,"['S', 'S', 'S', 'S', 'S', 'S', 'S', 'S', 'C', 'C', 'C', 'C', 'C', 'C', 'C', 'C', 'C', 'C', 'C', 'C', 'C', 'C', 'C', 'C']","[978138, 978483, 979002, 979567, 980172, 980727, 981374, 981962, 982578, 983185, 983780, 984388, 984949, 985524, 986099, 986745, 987340, 987944, 988550, 989185, 989791, 990383, 990976, 991576]","[978224, 978564, 979087, 979642, 980257, 980824, 981471, 982056, 982667, 983266, 983847, 984459, 985028, 985611, 986166, 986808, 987407, 988005, 988623, 989238, 989844, 990442, 991040, 991643]","[165, 191, 208, 197, 207, 211, 204, 209, 206, 192, 188, 193, 199, 202, 208, 198, 206, 198, 202, 184, 188, 194, 189, 189]","[978145, 978489, 979007, 979572, 980177, 980732, 981380, 981967, 982584, 983191, 983785, 984393, 984954, 985530, 986103, 986750, 987345, 987950, 988555, 989192, 989797, 990388, 990982, 991582]","[977820, 978420, 979020, 979620, 980220, 980820, 981421, 982021, 982598, 983205, 983800, 984408, 984969, 985544, 986119, 986765, 987360, 987964, 988570, 989205, 989811, 990403, 990996, 991596]",88,EM,L,R,ITMSR,1.1,
4,400,trial,0,44,44,44,trial,"['S', 'S', 'S', 'S', 'S', 'S', 'S', 'S', 'C', 'C', 'C', 'C', 'C', 'C', 'C', 'C', 'C', 'C', 'C', 'C', 'C', 'C', 'C', 'C']","[997223, 997543, 997834, 998181, 998565, 998989, 999359, 999766, 1000181, 1000597, 1000981, 1001424, 1001817, 1002260, 1002700, 1003119, 1003569, 1003970, 1004413, 1004830, 1005283, 1005725, 1006180, 1006615]","[997318, 997628, 997909, 998257, 998643, 999064, 999439, 999839, 1000264, 1000667, 1001073, 1001489, 1001902, 1002337, 1002774, 1003194, 1003629, 1004032, 1004478, 1004895, 1005333, 1005766, 1006228, 1006665]","[155, 205, 209, 205, 184, 189, 200, 200, 193, 188, 199, 199, 194, 199, 203, 207, 199, 199, 209, 208, 190, 27, 56, 180]","[997229, 997549, 997839, 998188, 998571, 998995, 999365, 999770, 1000186, 1000602, 1000986, 1001430, 1001822, 1002264, 1002705, 1003124, 1003573, 1003975, 1004419, 1004835, 1005288, 1005734, 1006187, 1006620]","[996993, 997392, 997792, 998192, 998592, 998992, 999392, 999792, 1000201, 1000617, 1001001, 1001444, 1001837, 1002280, 1002720, 1003139, 1003589, 1003991, 1004433, 1004850, 1005303, 1005745, 1006200, 1006636]",88,EM,L,R,ITMSR,1.1,
3,600,trial,0,45,45,45,trial,"['S', 'S', 'S', 'S', 'S', 'S', 'S', 'S', 'C', 'C', 'C', 'C', 'C', 'C', 'C', 'C', 'C', 'C', 'C', 'C', 'C', 'C', 'C', 'C']","[1012612, 1012901, 1013476, 1014086, 1014675, 1015290, 1015899, 1016487, 1017099, 1017667, 1018253, 1018857, 1019435, 1020077, 1020686, 1021291, 1021896, 1022523, 1023177, 1023777, 1024404, 1025043, 1025692, 1026296]","[1012697, 1012985, 1013550, 1014157, 1014726, 1015370, 1015970, 1016554, 1017159, 1017719, 1018309, 1018908, 1019479, 1020122, 1020748, 1021338, 1021942, 1022566, 1023222, 1023835, 1024449, 1025087, 1025740, 1026335]","[192, 188, 192, 183, 180, 187, 183, 192, 161, 173, 182, 177, 154, 152, 185, 176, 181, 167, 158, 167, 165, 163, 181, 183]","[1012618, 1012908, 1013480, 1014092, 1014681, 1015296, 1015905, 1016493, 1017106, 1017672, 1018258, 1018862, 1019440, 1020081, 1020691, 1021295, 1021902, 1022528, 1023183, 1023783, 1024410, 1025049, 1025697, 1026301]","[1012362, 1012962, 1013562, 1014162, 1014762, 1015362, 1015962, 1016562, 1017119, 1017688, 1018273, 1018877, 1019455, 1020097, 1020706, 1021312, 1021916, 1022543, 1023197, 1023797, 1024424, 1025063, 1025712, 1026316]",88,EM,L,R,ITMSR,1.1,
1,600,trial,0,46,46,46,trial,"['S', 'S', 'S', 'S', 'S', 'S', 'S', 'S', 'C', 'C', 'C', 'C', 'C', 'C', 'C', 'C', 'C', 'C', 'C', 'C', 'C', 'C', 'C', 'C']","[1032445, 1032781, 1033261, 1033845, 1034412, 1034993, 1035639, 1036272, 1036875, 1037452, 1038053, 1038661, 1039235, 1039837, 1040434, 1041053, 1041642, 1042245, 1042836, 1043443, 1044046, 1044669, 1045273, 1045882]","[1032564, 1032900, 1033385, 1033979, 1034522, 1035092, 1035740, 1036365, 1036962, 1037546, 1038140, 1038733, 1039291, 1039912, 1040513, 1041144, 1041717, 1042318, 1042909, 1043520, 1044120, 1044748, 1045360, 1045954]","[160, 190, 195, 192, 171, 152, 147, 116, 130, 131, 163, 149, 132, 163, 162, 163, 113, 118, 144, 110, 176, 170, 172, 147]","[1032498, 1032834, 1033267, 1033851, 1034419, 1035000, 1035649, 1036281, 1036883, 1037460, 1038059, 1038668, 1039243, 1039843, 1040441, 1041059, 1041650, 1042251, 1042844, 1043450, 1044052, 1044676, 1045279, 1045890]","[1032090, 1032690, 1033290, 1033890, 1034490, 1035090, 1035691, 1036290, 1036895, 1037472, 1038073, 1038681, 1039255, 1039857, 1040454, 1041073, 1041662, 1042265, 1042856, 1043463, 1044066, 1044689, 1045293, 1045902]",88,EM,L,R,ITMSR,1.1,
1,400,trial,0,47,47,47,trial,"['S', 'S', 'S', 'S', 'S', 'S', 'S', 'C', 'C', 'C', 'C', 'C', 'C', 'C', 'C', 'C', 'C', 'C', 'C', 'C', 'C', 'C', 'C']","[1051665, 1051998, 1052386, 1052806, 1053198, 1053624, 1054024, 1054413, 1054842, 1055235, 1055667, 1056078, 1056522, 1056932, 1057361, 1057803, 1058229, 1058663, 1059098, 1059530, 1059982, 1060428, 1060865]","[1051762, 1052083, 1052464, 1052871, 1053268, 1053683, 1054070, 1054466, 1054882, 1055291, 1055716, 1056126, 1056566, 1056984, 1057398, 1057833, 1058273, 1058705, 1059128, 1059570, 1060025, 1060461, 1060899]","[177, 191, 197, 191, 200, 204, 201, 199, 199, 202, 206, 203, 203, 210, 204, 195, 205, 202, 184, 206, 192, 196, 199]","[1051673, 1052003, 1052393, 1052812, 1053203, 1053629, 1054029, 1054419, 1054848, 1055240, 1055672, 1056083, 1056528, 1056937, 1057367, 1057809, 1058234, 1058669, 1059104, 1059535, 1059988, 1060434, 1060870]","[1051247, 1051648, 1052047, 1052447, 1052847, 1053247, 1053647, 1054047, 1054433, 1054862, 1055255, 1055687, 1056098, 1056542, 1056952, 1057381, 1057823, 1058249, 1058683, 1059118, 1059550, 1060002, 1060448, 1060885]",88,EM,L,R,ITMSR,1.1,
2,400,trial,0,48,48,48,trial,"['S', 'S', 'S', 'S', 'S', 'S', 'S', 'S', 'C', 'C', 'C', 'C', 'C', 'C', 'C', 'C', 'C', 'C', 'C', 'C', 'C', 'C', 'C', 'C']","[1066613, 1066951, 1067282, 1067634, 1068035, 1068428, 1068827, 1069240, 1069616, 1070013, 1070423, 1070837, 1071235, 1071652, 1072066, 1072476, 1072899, 1073330, 1073759, 1074184, 1074624, 1075037, 1075468, 1075923]","[1066695, 1067011, 1067346, 1067700, 1068078, 1068468, 1068881, 1069284, 1069651, 1070048, 1070455, 1070869, 1071272, 1071686, 1072096, 1072496, 1072928, 1073370, 1073805, 1074223, 1074652, 1075059, 1075488, 1075943]","[177, 182, 202, 211, 189, 183, 188, 188, 180, 161, 181, 85, 153, 165, 110, 156, 151, 150, 146, 143, 104, 205, 189, 178]","[1066634, 1066959, 1067287, 1067640, 1068041, 1068435, 1068834, 1069247, 1069623, 1070018, 1070428, 1070843, 1071240, 1071656, 1072071, 1072479, 1072904, 1073334, 1073765, 1074188, 1074629, 1075041, 1075472, 1075929]","[1066458, 1066858, 1067258, 1067658, 1068058, 1068459, 1068858, 1069258, 1069636, 1070033, 1070443, 1070857, 1071255, 1071672, 1072087, 1072496, 1072919, 1073350, 1073779, 1074204, 1074644, 1075057, 1075488, 1075943]",88,EM,L,R,ITMSR,1.1,
5,400,trial,0,49,49,49,trial,"['S', 'S', 'S', 'S', 'S', 'S', 'S', 'S', 'C', 'C', 'C', 'C', 'C', 'C', 'C', 'C', 'C', 'C', 'C', 'C', 'C', 'C', 'C', 'C']","[1081967, 1082243, 1082503, 1082882, 1083288, 1083682, 1084062, 1084488, 1084906, 1085300, 1085703, 1086124, 1086538, 1086957, 1087364, 1087761, 1088183, 1088606, 1089049, 1089446, 1089855, 1090284, 1090711, 1091120]","[1082028, 1082309, 1082559, 1082940, 1083343, 1083737, 1084111, 1084544, 1084953, 1085350, 1085756, 1086162, 1086582, 1086997, 1087404, 1087811, 1088211, 1088640, 1089086, 1089492, 1089902, 1090331, 1090744, 1091142]","[148, 175, 150, 158, 186, 197, 164, 199, 204, 192, 206, 181, 202, 185, 162, 199, 188, 180, 192, 193, 194, 201, 187, 122]","[1081972, 1082253, 1082510, 1082888, 1083293, 1083687, 1084066, 1084493, 1084911, 1085305, 1085709, 1086129, 1086544, 1086962, 1087370, 1087766, 1088188, 1088610, 1089054, 1089453, 1089860, 1090289, 1090716, 1091124]","[1081696, 1082096, 1082497, 1082896, 1083296, 1083696, 1084096, 1084496, 1084926, 1085320, 1085723, 1086144, 1086558, 1086978, 1087384, 1087781, 1088203, 1088626, 1089069, 1089466, 1089875, 1090305, 1090732, 1091140]",88,EM,L,R,ITMSR,1.1,
2,600,trial,0,50,50,50,trial,"['S', 'S', 'S', 'S', 'S', 'S', 'S', 'S', 'C', 'C', 'C', 'C', 'C', 'C', 'C', 'C', 'C', 'C', 'C', 'C', 'C', 'C', 'C', 'C']","[1097095, 1097396, 1097962, 1098588, 1099156, 1099770, 1100367, 1100981, 1101595, 1102184, 1102747, 1103308, 1103900, 1104471, 1105049, 1105643, 1106219, 1106810, 1107366, 1107985, 1108564, 1109155, 1109738, 1110387]","[1097153, 1097465, 1098021, 1098643, 1099209, 1099827, 1100435, 1101046, 1101667, 1102246, 1102814, 1103378, 1103953, 1104521, 1105097, 1105666, 1106260, 1106859, 1107410, 1108030, 1108610, 1109196, 1109774, 1110432]","[182, 190, 196, 158, 185, 175, 176, 176, 181, 176, 171, 194, 198, 191, 167, 117, 131, 180, 182, 170, 148, 130, 175, 193]","[1097103, 1097402, 1097967, 1098595, 1099162, 1099774, 1100374, 1100986, 1101600, 1102188, 1102751, 1103314, 1103905, 1104476, 1105055, 1105649, 1106224, 1106816, 1107372, 1107991, 1108570, 1109161, 1109743, 1110392]","[1096858, 1097458, 1098058, 1098658, 1099258, 1099858, 1100459, 1101058, 1101615, 1102204, 1102767, 1103328, 1103920, 1104491, 1105069, 1105664, 1106239, 1106830, 1107386, 1108005, 1108584, 1109175, 1109758, 1110407]",88,EM,L,R,ITMSR,1.1,
5,600,trial,0,51,51,51,trial,"['S', 'S', 'S', 'S', 'S', 'S', 'S', 'S', 'C', 'C', 'C', 'C', 'C', 'C', 'C', 'C', 'C', 'C', 'C', 'C', 'C', 'C', 'C', 'C']","[1116101, 1116437, 1117009, 1117632, 1118197, 1118779, 1119401, 1119997, 1120611, 1121255, 1121831, 1122384, 1122973, 1123559, 1124165, 1124759, 1125329, 1125924, 1126522, 1127095, 1127699, 1128278, 1128888, 1129456]","[1116174, 1116510, 1117066, 1117679, 1118239, 1118825, 1119450, 1120048, 1120668, 1121302, 1121876, 1122434, 1123028, 1123629, 1124222, 1124812, 1125386, 1125972, 1126567, 1127143, 1127746, 1128329, 1128958, 1129520]","[193, 204, 205, 178, 171, 176, 183, 182, 184, 168, 183, 154, 183, 198, 174, 167, 163, 170, 175, 186, 175, 183, 193, 175]","[1116108, 1116441, 1117015, 1117637, 1118201, 1118784, 1119407, 1120002, 1120616, 1121260, 1121836, 1122391, 1122979, 1123563, 1124170, 1124764, 1125335, 1125929, 1126528, 1127100, 1127703, 1128282, 1128892, 1129461]","[1115878, 1116478, 1117078, 1117678, 1118278, 1118878, 1119478, 1120078, 1120631, 1121275, 1121851, 1122404, 1122993, 1123579, 1124185, 1124780, 1125349, 1125944, 1126542, 1127115, 1127719, 1128298, 1128908, 1129476]",88,EM,L,R,ITMSR,1.1,
5,600,trial,0,52,52,52,trial,"['S', 'S', 'S', 'S', 'S', 'S', 'S', 'S', 'C', 'C', 'C', 'C', 'C', 'C', 'C', 'C', 'C', 'C', 'C', 'C', 'C', 'C', 'C', 'C']","[1135141, 1135559, 1136101, 1136686, 1137267, 1137847, 1138453, 1139062, 1139661, 1140268, 1140858, 1141486, 1142070, 1142680, 1143282, 1143878, 1144442, 1145053, 1145648, 1146270, 1146872, 1147468, 1148065, 1148704]","[1135205, 1135627, 1136153, 1136755, 1137319, 1137908, 1138513, 1139118, 1139713, 1140333, 1140914, 1141535, 1142117, 1142730, 1143333, 1143915, 1144491, 1145091, 1145688, 1146302, 1146893, 1147496, 1148102, 1148724]","[174, 197, 169, 206, 201, 206, 205, 205, 199, 204, 209, 192, 199, 206, 202, 189, 201, 196, 186, 183, 92, 127, 134, 50]","[1135145, 1135564, 1136108, 1136691, 1137273, 1137852, 1138459, 1139066, 1139667, 1140275, 1140864, 1141493, 1142076, 1142685, 1143287, 1143885, 1144449, 1145059, 1145654, 1146276, 1146880, 1147475, 1148072, 1148711]","[1134943, 1135543, 1136143, 1136743, 1137343, 1137943, 1138543, 1139143, 1139681, 1140288, 1140878, 1141506, 1142090, 1142701, 1143302, 1143898, 1144462, 1145073, 1145668, 1146290, 1146892, 1147488, 1148085, 1148724]",88,EM,L,R,ITMSR,1.1,
3,400,trial,0,53,53,53,trial,"['S', 'S', 'S', 'S', 'S', 'S', 'S', 'S', 'C', 'C', 'C', 'C', 'C', 'C', 'C', 'C', 'C', 'C', 'C', 'C', 'C', 'C', 'C', 'C']","[1154791, 1155065, 1155312, 1155639, 1156031, 1156459, 1156875, 1157262, 1157649, 1158060, 1158461, 1158876, 1159297, 1159673, 1160105, 1160545, 1160977, 1161409, 1161858, 1162278, 1162711, 1163167, 1163606, 1164056]","[1154882, 1155145, 1155387, 1155719, 1156094, 1156526, 1156932, 1157316, 1157705, 1158112, 1158511, 1158930, 1159349, 1159738, 1160158, 1160601, 1161023, 1161457, 1161897, 1162319, 1162753, 1163214, 1163655, 1164084]","[114, 170, 183, 200, 202, 204, 207, 204, 208, 201, 186, 189, 196, 195, 200, 196, 195, 199, 186, 192, 198, 192, 192, 79]","[1154798, 1155072, 1155317, 1155644, 1156036, 1156464, 1156880, 1157266, 1157653, 1158065, 1158466, 1158881, 1159302, 1159678, 1160111, 1160550, 1160982, 1161414, 1161863, 1162284, 1162716, 1163172, 1163611, 1164063]","[1154486, 1154885, 1155286, 1155685, 1156085, 1156485, 1156885, 1157285, 1157669, 1158080, 1158481, 1158896, 1159317, 1159693, 1160125, 1160565, 1160997, 1161430, 1161878, 1162298, 1162731, 1163187, 1163626, 1164077]",88,EM,L,R,ITMSR,1.1,
5,600,trial,0,54,54,54,trial,"['S', 'S', 'S', 'S', 'S', 'S', 'S', 'S', 'C', 'C', 'C', 'C', 'C', 'C', 'C', 'C', 'C', 'C', 'C', 'C', 'C', 'C', 'C', 'C']","[1212943, 1213297, 1213941, 1214565, 1215168, 1215763, 1216405, 1216969, 1217576, 1218156, 1218769, 1219372, 1219980, 1220578, 1221184, 1221847, 1222445, 1223059, 1223671, 1224314, 1224908, 1225529, 1226162, 1226776]","[1213031, 1213361, 1214016, 1214636, 1215244, 1215840, 1216473, 1217048, 1217643, 1218235, 1218831, 1219418, 1220027, 1220618, 1221220, 1221888, 1222496, 1223102, 1223717, 1224360, 1224952, 1225569, 1226214, 1226812]","[212, 203, 198, 196, 197, 201, 187, 178, 175, 183, 187, 174, 141, 159, 185, 168, 182, 194, 196, 195, 185, 195, 191, 187]","[1212947, 1213301, 1213944, 1214569, 1215172, 1215767, 1216410, 1216974, 1217582, 1218160, 1218774, 1219377, 1219985, 1220583, 1221187, 1221852, 1222450, 1223064, 1223675, 1224318, 1224912, 1225534, 1226167, 1226781]","[1212801, 1213400, 1214000, 1214600, 1215200, 1215800, 1216400, 1217000, 1217596, 1218177, 1218789, 1219392, 1220000, 1220598, 1221204, 1221867, 1222465, 1223079, 1223691, 1224334, 1224928, 1225549, 1226182, 1226797]",88,EM,L,R,ITMSR,1.1,
2,600,trial,0,55,55,55,trial,"['S', 'S', 'S', 'S', 'S', 'S', 'S', 'S', 'C', 'C', 'C', 'C', 'C', 'C', 'C', 'C', 'C', 'C', 'C', 'C', 'C', 'C', 'C', 'C']","[1232714, 1233126, 1233675, 1234287, 1234860, 1235463, 1236072, 1236674, 1237276, 1237857, 1238470, 1239075, 1239689, 1240271, 1240863, 1241473, 1242056, 1242703, 1243262, 1243866, 1244469, 1245075, 1245679, 1246295]","[1232791, 1233208, 1233743, 1234350, 1234913, 1235527, 1236125, 1236736, 1237327, 1237908, 1238528, 1239112, 1239756, 1240312, 1240904, 1241507, 1242097, 1242726, 1243305, 1243898, 1244514, 1245095, 1245713, 1246315]","[189, 212, 204, 199, 196, 190, 199, 206, 187, 186, 199, 115, 179, 170, 91, 167, 172, 137, 154, 173, 150, 104, 124, 59]","[1232724, 1233130, 1233680, 1234291, 1234864, 1235468, 1236075, 1236677, 1237281, 1237861, 1238474, 1239080, 1239694, 1240276, 1240868, 1241478, 1242062, 1242710, 1243267, 1243870, 1244473, 1245080, 1245685, 1246300]","[1232526, 1233125, 1233725, 1234325, 1234925, 1235525, 1236125, 1236725, 1237296, 1237877, 1238490, 1239095, 1239709, 1240291, 1240883, 1241493, 1242076, 1242723, 1243282, 1243886, 1244489, 1245095, 1245699, 1246315]",88,EM,L,R,ITMSR,1.1,
4,600,trial,0,56,56,56,trial,"['S', 'S', 'S', 'S', 'S', 'S', 'S', 'S', 'C', 'C', 'C', 'C', 'C', 'C', 'C', 'C', 'C', 'C', 'C', 'C', 'C', 'C', 'C', 'C']","[1252152, 1252432, 1252820, 1253366, 1253978, 1254568, 1255206, 1255787, 1256363, 1256967, 1257568, 1258172, 1258783, 1259362, 1259958, 1260555, 1261125, 1261724, 1262327, 1262942, 1263507, 1264176, 1264778, 1265377]","[1252228, 1252500, 1252879, 1253426, 1254036, 1254626, 1255259, 1255842, 1256428, 1257028, 1257619, 1258224, 1258833, 1259404, 1260006, 1260602, 1261180, 1261767, 1262351, 1262988, 1263559, 1264196, 1264820, 1265433]","[166, 192, 201, 192, 197, 196, 189, 193, 190, 184, 192, 186, 177, 126, 163, 153, 63, 123, 171, 10, 206, 5, 110, 250]","[1252162, 1252439, 1252825, 1253372, 1253983, 1254573, 1255211, 1255791, 1256367, 1256972, 1257572, 1258177, 1258787, 1259367, 1259963, 1260560, 1261130, 1261729, 1262333, 1262949, 1263514, 1264180, 1264784, 1265382]","[1251668, 1252268, 1252867, 1253467, 1254067, 1254667, 1255267, 1255867, 1256383, 1256987, 1257588, 1258192, 1258803, 1259382, 1259978, 1260575, 1261145, 1261744, 1262347, 1262962, 1263527, 1264196, 1264798, 1265397]",88,EM,L,R,ITMSR,1.1,
1,600,trial,0,57,57,57,trial,"['S', 'S', 'S', 'S', 'S', 'S', 'S', 'S', 'C', 'C', 'C', 'C', 'C', 'C', 'C', 'C', 'C', 'C', 'C', 'C', 'C', 'C', 'C', 'C']","[1271405, 1271727, 1272222, 1272800, 1273388, 1273979, 1274600, 1275183, 1275765, 1276368, 1276986, 1277594, 1278195, 1278811, 1279418, 1280054, 1280711, 1281404, 1282018, 1282649, 1283248, 1283830, 1284420, 1285053]","[1271505, 1271814, 1272307, 1272880, 1273475, 1274078, 1274697, 1275296, 1275887, 1276481, 1277074, 1277703, 1278285, 1278900, 1279518, 1280132, 1280788, 1281454, 1282082, 1282705, 1283292, 1283892, 1284491, 1285122]","[129, 191, 192, 193, 189, 184, 173, 158, 164, 166, 122, 172, 144, 86, 25, 215, 142, 20, 215, 245, 1, 103, 57, 209]","[1271449, 1271732, 1272227, 1272804, 1273392, 1273985, 1274605, 1275189, 1275770, 1276375, 1276992, 1277600, 1278202, 1278818, 1279426, 1280062, 1280719, 1281411, 1282025, 1282657, 1283254, 1283835, 1284426, 1285061]","[1271049, 1271649, 1272249, 1272849, 1273449, 1274049, 1274649, 1275249, 1275785, 1276388, 1277006, 1277614, 1278215, 1278831, 1279438, 1280074, 1280731, 1281424, 1282038, 1282669, 1283268, 1283850, 1284440, 1285073]",88,EM,L,R,ITMSR,1.1,
4,400,trial,0,58,58,58,trial,"['S', 'S', 'S', 'S', 'S', 'S', 'S', 'S', 'C', 'C', 'C', 'C', 'C', 'C', 'C', 'C', 'C', 'C', 'C', 'C', 'C', 'C', 'C', 'C']","[1290908, 1291362, 1291566, 1291908, 1292296, 1292712, 1293134, 1293528, 1293939, 1294328, 1294718, 1295141, 1295513, 1295915, 1296335, 1296740, 1297132, 1297561, 1297936, 1298361, 1298779, 1299186, 1299604, 1299997]","[1290988, 1291432, 1291629, 1291972, 1292353, 1292774, 1293179, 1293587, 1293982, 1294384, 1294780, 1295186, 1295533, 1295977, 1296398, 1296801, 1297204, 1297581, 1297994, 1298426, 1298836, 1299245, 1299664, 1300058]","[129, 92, 131, 118, 70, 105, 149, 78, 22, 77, 85, 87, 101, 107, 135, 120, 108, 85, 86, 111, 106, 101, 106, 100]","[1290914, 1291368, 1291571, 1291913, 1292301, 1292717, 1293139, 1293533, 1293945, 1294333, 1294725, 1295147, 1295518, 1295920, 1296340, 1296745, 1297137, 1297566, 1297941, 1298366, 1298784, 1299191, 1299609, 1300002]","[1290767, 1291166, 1291566, 1291966, 1292366, 1292766, 1293166, 1293566, 1293959, 1294348, 1294738, 1295161, 1295533, 1295935, 1296355, 1296760, 1297153, 1297581, 1297956, 1298381, 1298799, 1299206, 1299624, 1300017]",88,EM,L,R,ITMSR,1.1,
3,400,trial,0,59,59,59,trial,"['S', 'S', 'S', 'S', 'S', 'S', 'S', 'S', 'C', 'C', 'C', 'C', 'C', 'C', 'C', 'C', 'C', 'C', 'C', 'C', 'C', 'C', 'C', 'C']","[1305993, 1306312, 1306611, 1306919, 1307305, 1307697, 1308100, 1308517, 1308884, 1309284, 1309683, 1310101, 1310492, 1310892, 1311279, 1311685, 1312111, 1312506, 1312912, 1313316, 1313740, 1314143, 1314561, 1314981]","[1306064, 1306373, 1306663, 1306981, 1307365, 1307757, 1308173, 1308575, 1308955, 1309355, 1309747, 1310157, 1310559, 1310953, 1311346, 1311754, 1312179, 1312575, 1312983, 1313384, 1313811, 1314222, 1314637, 1315044]","[100, 97, 112, 131, 86, 133, 136, 111, 127, 122, 131, 120, 109, 93, 102, 117, 116, 111, 117, 146, 153, 134, 126, 121]","[1305999, 1306317, 1306617, 1306925, 1307312, 1307702, 1308105, 1308522, 1308890, 1309290, 1309688, 1310106, 1310498, 1310897, 1311285, 1311691, 1312116, 1312513, 1312918, 1313320, 1313745, 1314148, 1314567, 1314987]","[1305756, 1306157, 1306557, 1306957, 1307357, 1307757, 1308157, 1308557, 1308904, 1309304, 1309703, 1310121, 1310512, 1310912, 1311299, 1311705, 1312131, 1312526, 1312932, 1313336, 1313760, 1314163, 1314581, 1315001]",88,EM,L,R,ITMSR,1.1,
5,400,trial,0,60,60,60,trial,"['B', 'S', 'S', 'S', 'S', 'S', 'S', 'S', 'S', 'C', 'C', 'C', 'C', 'C', 'C', 'C', 'C', 'C', 'C', 'C', 'C', 'C', 'C', 'C', 'C']","[1320579, 1320877, 1321236, 1321439, 1321730, 1322128, 1322537, 1322943, 1323340, 1323747, 1324168, 1324557, 1324952, 1325339, 1325760, 1326181, 1326557, 1326960, 1327382, 1327759, 1328212, 1328607, 1329004, 1329413, 1329828]","[1320755, 1320966, 1321314, 1321502, 1321791, 1322178, 1322586, 1322992, 1323401, 1323803, 1324236, 1324624, 1325018, 1325411, 1325822, 1326238, 1326624, 1327033, 1327438, 1327842, 1328232, 1328658, 1329073, 1329481, 1329904]","[142, 140, 142, 165, 159, 148, 136, 108, 138, 129, 145, 131, 130, 140, 143, 136, 140, 152, 116, 119, 99, 103, 106, 111, 110]","[1320591, 1320882, 1321240, 1321443, 1321734, 1322132, 1322543, 1322948, 1323344, 1323752, 1324172, 1324562, 1324957, 1325344, 1325765, 1326185, 1326561, 1326965, 1327386, 1327764, 1328217, 1328612, 1329008, 1329417, 1329832]","[1320591, 1320991, 1321391, 1321791, 1322191, 1322591, 1322991, 1323392, 1323767, 1324188, 1324577, 1324973, 1325359, 1325780, 1326201, 1326577, 1326980, 1327403, 1327779, 1328232, 1328627, 1329025, 1329433, 1329848]",88,EM,L,R,ITMSR,1.1,
4,400,trial,0,61,61,61,trial,"['S', 'S', 'S', 'S', 'S', 'S', 'S', 'S', 'C', 'C', 'C', 'C', 'C', 'C', 'C', 'C', 'C', 'C', 'C', 'C', 'C', 'C', 'C', 'C']","[1335780, 1336083, 1336436, 1336812, 1337198, 1337590, 1337975, 1338384, 1338792, 1339203, 1339623, 1340028, 1340438, 1340860, 1341260, 1341673, 1342095, 1342510, 1342927, 1343332, 1343745, 1344145, 1344567, 1344977]","[1335837, 1336139, 1336496, 1336867, 1337245, 1337648, 1338035, 1338448, 1338857, 1339273, 1339668, 1340079, 1340499, 1340908, 1341308, 1341730, 1342151, 1342592, 1342985, 1343388, 1343793, 1344208, 1344638, 1345050]","[171, 166, 171, 165, 163, 161, 159, 171, 164, 152, 159, 154, 150, 145, 157, 151, 155, 144, 154, 152, 150, 148, 149, 161]","[1335784, 1336088, 1336440, 1336816, 1337201, 1337594, 1337980, 1338388, 1338797, 1339207, 1339628, 1340034, 1340442, 1340865, 1341265, 1341677, 1342099, 1342515, 1342931, 1343336, 1343749, 1344149, 1344572, 1344983]","[1335604, 1336004, 1336404, 1336804, 1337204, 1337604, 1338004, 1338404, 1338812, 1339224, 1339643, 1340048, 1340459, 1340880, 1341280, 1341693, 1342115, 1342530, 1342947, 1343352, 1343765, 1344165, 1344587, 1344997]",88,EM,L,R,ITMSR,1.1,
4,600,trial,0,62,62,62,trial,"['S', 'S', 'S', 'S', 'S', 'S', 'S', 'S', 'C', 'C', 'C', 'C', 'C', 'C', 'C', 'C', 'C', 'C', 'C', 'C', 'C', 'C', 'C', 'C']","[1350742, 1351043, 1351647, 1352262, 1352882, 1353457, 1354044, 1354633, 1355252, 1355825, 1356404, 1356986, 1357581, 1358125, 1358732, 1359290, 1359895, 1360454, 1361055, 1361670, 1362271, 1362869, 1363488, 1364040]","[1350811, 1351116, 1351698, 1352315, 1352935, 1353520, 1354108, 1354700, 1355328, 1355878, 1356449, 1357042, 1357634, 1358179, 1358782, 1359355, 1359944, 1360518, 1361120, 1361715, 1362338, 1362922, 1363535, 1364096]","[146, 127, 152, 156, 117, 145, 158, 149, 147, 153, 151, 147, 102, 139, 139, 146, 139, 141, 147, 135, 147, 157, 147, 153]","[1350746, 1351048, 1351651, 1352266, 1352885, 1353461, 1354048, 1354637, 1355257, 1355830, 1356408, 1356990, 1357587, 1358130, 1358737, 1359295, 1359900, 1360460, 1361060, 1361675, 1362276, 1362874, 1363493, 1364045]","[1350488, 1351088, 1351688, 1352288, 1352888, 1353488, 1354088, 1354688, 1355272, 1355845, 1356424, 1357006, 1357601, 1358145, 1358752, 1359310, 1359916, 1360474, 1361075, 1361690, 1362291, 1362889, 1363508, 1364060]",88,EM,L,R,ITMSR,1.1,
2,600,trial,0,63,63,63,trial,"['S', 'S', 'S', 'S', 'S', 'S', 'S', 'S', 'C', 'C', 'C', 'C', 'C', 'C', 'C', 'C', 'C', 'C', 'C', 'C', 'C', 'C', 'C', 'C']","[1369859, 1370184, 1370661, 1371267, 1371853, 1372456, 1373048, 1373666, 1374272, 1374840, 1375390, 1376001, 1376637, 1377208, 1377803, 1378426, 1379013, 1379603, 1380195, 1380804, 1381401, 1382008, 1382592, 1383201]","[1369942, 1370280, 1370736, 1371327, 1371911, 1372514, 1373111, 1373734, 1374343, 1374902, 1375470, 1376066, 1376702, 1377277, 1377873, 1378496, 1379096, 1379694, 1380274, 1380882, 1381481, 1382089, 1382684, 1383293]","[137, 163, 178, 144, 114, 139, 155, 139, 135, 128, 148, 160, 137, 123, 136, 94, 136, 108, 136, 112, 110, 136, 110, 86]","[1369895, 1370188, 1370664, 1371271, 1371857, 1372461, 1373052, 1373671, 1374276, 1374844, 1375394, 1376005, 1376642, 1377213, 1377808, 1378433, 1379018, 1379608, 1380200, 1380810, 1381406, 1382012, 1382597, 1383206]","[1369510, 1370109, 1370710, 1371309, 1371909, 1372509, 1373109, 1373709, 1374292, 1374860, 1375410, 1376021, 1376657, 1377228, 1377823, 1378446, 1379033, 1379623, 1380215, 1380824, 1381421, 1382028, 1382612, 1383221]",88,EM,L,R,ITMSR,1.1,
0,400,trial,0,64,64,64,trial,"['S', 'S', 'S', 'S', 'S', 'S', 'S', 'C', 'C', 'C', 'C', 'C', 'C', 'C', 'C', 'C', 'C', 'C', 'C', 'C', 'C', 'C', 'C']","[1389335, 1389712, 1390142, 1390537, 1390952, 1391350, 1391762, 1392176, 1392564, 1392975, 1393375, 1393786, 1394189, 1394608, 1395012, 1395442, 1395820, 1396234, 1396663, 1397066, 1397490, 1397922, 1398344]","[1389423, 1389780, 1390198, 1390605, 1391007, 1391410, 1391814, 1392216, 1392624, 1393034, 1393436, 1393843, 1394259, 1394682, 1395091, 1395497, 1395892, 1396311, 1396731, 1397163, 1397578, 1398001, 1398434]","[49, 129, 137, 140, 151, 130, 135, 126, 150, 133, 156, 149, 155, 138, 130, 73, 105, 106, 120, 118, 124, 96, 89]","[1389364, 1389716, 1390146, 1390541, 1390956, 1391355, 1391766, 1392181, 1392569, 1392979, 1393378, 1393789, 1394193, 1394612, 1395016, 1395447, 1395825, 1396238, 1396668, 1397071, 1397494, 1397927, 1398349]","[1388997, 1389398, 1389797, 1390197, 1390597, 1390997, 1391397, 1391797, 1392196, 1392584, 1392995, 1393395, 1393806, 1394209, 1394628, 1395032, 1395462, 1395841, 1396254, 1396683, 1397086, 1397510, 1397942, 1398364]",88,EM,L,R,ITMSR,1.1,
1,400,trial,0,65,65,65,trial,"['S', 'S', 'S', 'S', 'S', 'S', 'S', 'S', 'C', 'C', 'C', 'C', 'C', 'C', 'C', 'C', 'C', 'C', 'C', 'C', 'C', 'C', 'C', 'C']","[1404380, 1404702, 1404986, 1405341, 1405756, 1406102, 1406531, 1406919, 1407328, 1407719, 1408117, 1408491, 1408982, 1409389, 1409810, 1410248, 1410652, 1411083, 1411516, 1411922, 1412319, 1412741, 1413157, 1413578]","[1404444, 1404755, 1405054, 1405401, 1405802, 1406175, 1406590, 1406991, 1407397, 1407794, 1408193, 1408573, 1409039, 1409466, 1409896, 1410324, 1410746, 1411177, 1411602, 1412003, 1412406, 1412833, 1413256, 1413664]","[100, 125, 152, 162, 123, 164, 144, 146, 151, 154, 146, 141, 140, 137, 138, 136, 133, 128, 135, 118, 137, 134, 107, 101]","[1404385, 1404706, 1404991, 1405344, 1405761, 1406106, 1406535, 1406923, 1407333, 1407724, 1408122, 1408496, 1408987, 1409394, 1409815, 1410253, 1410657, 1411088, 1411521, 1411929, 1412323, 1412746, 1413161, 1413583]","[1404155, 1404555, 1404955, 1405356, 1405755, 1406155, 1406555, 1406955, 1407348, 1407739, 1408137, 1408512, 1409002, 1409410, 1409830, 1410268, 1410672, 1411103, 1411536, 1411942, 1412339, 1412761, 1413177, 1413598]",88,EM,L,R,ITMSR,1.1,
3,400,trial,0,66,66,66,trial,"['S', 'S', 'S', 'S', 'S', 'S', 'S', 'S', 'C', 'C', 'C', 'C', 'C', 'C', 'C', 'C', 'C', 'C', 'C', 'C', 'C', 'C', 'C', 'C']","[1419506, 1419701, 1420053, 1420489, 1420911, 1421300, 1421694, 1422090, 1422498, 1422919, 1423352, 1423765, 1424167, 1424580, 1424986, 1425417, 1425825, 1426224, 1426653, 1427044, 1427492, 1427914, 1428349, 1428795]","[1419563, 1419756, 1420123, 1420541, 1420953, 1421349, 1421749, 1422148, 1422555, 1422984, 1423415, 1423834, 1424240, 1424664, 1425067, 1425479, 1425903, 1426320, 1426748, 1427146, 1427585, 1428004, 1428433, 1428886]","[125, 160, 144, 152, 107, 120, 143, 130, 125, 143, 132, 136, 140, 146, 120, 118, 144, 149, 104, 104, 127, 88, 98, 140]","[1419513, 1419707, 1420057, 1420493, 1420916, 1421303, 1421699, 1422095, 1422502, 1422923, 1423357, 1423770, 1424172, 1424585, 1424991, 1425423, 1425830, 1426229, 1426658, 1427048, 1427497, 1427919, 1428354, 1428799]","[1419307, 1419706, 1420106, 1420506, 1420906, 1421306, 1421706, 1422106, 1422518, 1422939, 1423372, 1423785, 1424187, 1424600, 1425006, 1425437, 1425845, 1426244, 1426673, 1427064, 1427512, 1427934, 1428369, 1428815]",88,EM,L,R,ITMSR,1.1,
2,400,trial,0,67,67,67,trial,"['B', 'S', 'S', 'S', 'S', 'S', 'S', 'S', 'C', 'C', 'C', 'C', 'C', 'C', 'C', 'C', 'C', 'C', 'C', 'C', 'C', 'C', 'C', 'C']","[1434206, 1434524, 1434940, 1435351, 1435768, 1436175, 1436599, 1436994, 1437419, 1437813, 1438237, 1438631, 1439089, 1439505, 1439930, 1440376, 1440769, 1441193, 1441604, 1442040, 1442472, 1442886, 1443303, 1443746]","[1434369, 1434614, 1435010, 1435419, 1435839, 1436233, 1436653, 1437043, 1437457, 1437864, 1438284, 1438687, 1439124, 1439556, 1439980, 1440405, 1440813, 1441231, 1441656, 1442081, 1442494, 1442936, 1443355, 1443784]","[108, 72, 114, 163, 148, 135, 135, 134, 125, 122, 127, 131, 95, 118, 139, 216, 71, 53, 126, 87, 110, 99, 81, 253]","[1434299, 1434530, 1434945, 1435356, 1435773, 1436180, 1436604, 1436999, 1437423, 1437819, 1438242, 1438638, 1439095, 1439510, 1439935, 1440384, 1440775, 1441200, 1441609, 1442045, 1442482, 1442892, 1443308, 1443751]","[1434217, 1434617, 1435017, 1435417, 1435817, 1436217, 1436617, 1437017, 1437440, 1437833, 1438257, 1438651, 1439109, 1439525, 1439950, 1440396, 1440789, 1441213, 1441624, 1442060, 1442492, 1442906, 1443323, 1443766]",88,EM,L,R,ITMSR,1.1,
1,600,trial,0,68,68,68,trial,"['B', 'S', 'S', 'S', 'S', 'S', 'S', 'S', 'S', 'C', 'C', 'C', 'C', 'C', 'C', 'C', 'C', 'C', 'C', 'C', 'C', 'C', 'C', 'C', 'C']","[1449126, 1449451, 1449780, 1450255, 1450852, 1451466, 1452054, 1452645, 1453278, 1453862, 1454447, 1454999, 1455599, 1456207, 1456800, 1457388, 1457970, 1458531, 1459122, 1459752, 1460354, 1460962, 1461615, 1462232, 1462818]","[1449295, 1449524, 1449850, 1450328, 1450918, 1451530, 1452125, 1452708, 1453335, 1453913, 1454503, 1455045, 1455648, 1456231, 1456856, 1457452, 1458035, 1458604, 1459185, 1459815, 1460422, 1461033, 1461661, 1462283, 1462872]","[29, 177, 175, 198, 188, 178, 192, 192, 186, 186, 190, 187, 174, 136, 176, 198, 198, 188, 176, 148, 199, 193, 166, 166, 169]","[1449210, 1449458, 1449786, 1450261, 1450858, 1451473, 1452059, 1452650, 1453283, 1453868, 1454452, 1455004, 1455605, 1456214, 1456805, 1457393, 1457976, 1458536, 1459125, 1459757, 1460359, 1460967, 1461621, 1462238, 1462825]","[1449139, 1449739, 1450339, 1450939, 1451539, 1452139, 1452739, 1453339, 1453882, 1454467, 1455020, 1455619, 1456227, 1456820, 1457409, 1457990, 1458551, 1459142, 1459772, 1460374, 1460982, 1461635, 1462252, 1462838]",88,EM,L,R,ITMSR,1.1,
0,400,trial,0,69,69,69,trial,"['S', 'S', 'S', 'S', 'S', 'S', 'S', 'S', 'C', 'C', 'C', 'C', 'C', 'C', 'C', 'C', 'C', 'C', 'C', 'C', 'C', 'C', 'C', 'C']","[1468686, 1469002, 1469181, 1469506, 1469932, 1470342, 1470743, 1471137, 1471553, 1471961, 1472353, 1472780, 1473188, 1473595, 1474001, 1474413, 1474817, 1475222, 1475636, 1476037, 1476441, 1476855, 1477270, 1477693]","[1468780, 1469073, 1469263, 1469598, 1469992, 1470409, 1470798, 1471194, 1471611, 1472014, 1472406, 1472832, 1473241, 1473653, 1474054, 1474467, 1474875, 1475288, 1475685, 1476087, 1476487, 1476902, 1477312, 1477735]","[120, 142, 158, 170, 174, 175, 173, 165, 170, 162, 166, 153, 173, 175, 172, 182, 161, 168, 173, 189, 174, 175, 169, 157]","[1468691, 1469008, 1469187, 1469510, 1469936, 1470346, 1470748, 1471141, 1471557, 1471966, 1472357, 1472785, 1473192, 1473600, 1474007, 1474418, 1474823, 1475227, 1475641, 1476042, 1476446, 1476861, 1477276, 1477700]","[1468386, 1468785, 1469186, 1469586, 1469986, 1470386, 1470786, 1471186, 1471574, 1471981, 1472373, 1472800, 1473208, 1473615, 1474021, 1474434, 1474837, 1475243, 1475656, 1476057, 1476461, 1476875, 1477291, 1477713]",88,EM,L,R,ITMSR,1.1,
3,600,trial,0,70,70,70,trial,"['S', 'S', 'S', 'S', 'S', 'S', 'S', 'S', 'C', 'C', 'C', 'C', 'C', 'C', 'C', 'C', 'C', 'C', 'C', 'C', 'C', 'C', 'C', 'C']","[1483592, 1483886, 1484464, 1485074, 1485691, 1486284, 1486858, 1487466, 1488123, 1488713, 1489303, 1489905, 1490514, 1491109, 1491705, 1492307, 1492902, 1493514, 1494130, 1494722, 1495342, 1495961, 1496576, 1497182]","[1483645, 1483958, 1484541, 1485139, 1485760, 1486347, 1486922, 1487526, 1488187, 1488774, 1489360, 1489963, 1490581, 1491167, 1491770, 1492366, 1492976, 1493581, 1494194, 1494787, 1495399, 1496010, 1496635, 1497232]","[160, 169, 188, 204, 199, 199, 198, 194, 195, 197, 192, 201, 188, 192, 197, 192, 192, 203, 197, 202, 196, 186, 186, 196]","[1483597, 1483892, 1484471, 1485080, 1485698, 1486289, 1486863, 1487471, 1488130, 1488718, 1489308, 1489910, 1490520, 1491116, 1491710, 1492314, 1492909, 1493519, 1494135, 1494727, 1495347, 1495966, 1496581, 1497187]","[1483353, 1483953, 1484553, 1485153, 1485753, 1486353, 1486953, 1487553, 1488143, 1488733, 1489324, 1489925, 1490534, 1491129, 1491725, 1492327, 1492922, 1493534, 1494150, 1494743, 1495362, 1495981, 1496596, 1497202]",88,EM,L,R,ITMSR,1.1,
5,400,trial,0,71,71,71,trial,"['S', 'S', 'S', 'S', 'S', 'S', 'S', 'S', 'S', 'C', 'C', 'C', 'C', 'C', 'C', 'C', 'C', 'C', 'C', 'C', 'C', 'C', 'C', 'C', 'C']","[1503140, 1503444, 1503630, 1503771, 1504001, 1504396, 1504827, 1505246, 1505653, 1506067, 1506473, 1506882, 1507292, 1507715, 1508143, 1508549, 1508974, 1509399, 1509807, 1510242, 1510672, 1511086, 1511510, 1511937, 1512341]","[1503211, 1503501, 1503681, 1503828, 1504076, 1504463, 1504885, 1505302, 1505709, 1506113, 1506522, 1506933, 1507348, 1507761, 1508199, 1508612, 1509031, 1509451, 1509869, 1510291, 1510728, 1511151, 1511563, 1511989, 1512407]","[153, 91, 153, 144, 186, 173, 174, 170, 168, 178, 179, 163, 164, 159, 167, 179, 174, 168, 171, 162, 142, 174, 166, 138, 130]","[1503147, 1503458, 1503636, 1503777, 1504006, 1504400, 1504831, 1505250, 1505658, 1506071, 1506478, 1506886, 1507297, 1507719, 1508147, 1508553, 1508978, 1509403, 1509812, 1510246, 1510677, 1511091, 1511515, 1511942, 1512346]","[1502876, 1503276, 1503675, 1504075, 1504475, 1504875, 1505275, 1505675, 1506087, 1506493, 1506903, 1507312, 1507735, 1508163, 1508569, 1508994, 1509420, 1509827, 1510262, 1510692, 1511106, 1511530, 1511957, 1512361]",88,EM,L,R,ITMSR,1.1,
0,600,trial,0,72,72,72,trial,"['B', 'S', 'S', 'S', 'S', 'S', 'S', 'S', 'S', 'C', 'C', 'C', 'C', 'C', 'C', 'C', 'C', 'C', 'C', 'C', 'C', 'C', 'C', 'C', 'C']","[1517959, 1518308, 1518688, 1519156, 1519696, 1520288, 1520897, 1521492, 1522084, 1522705, 1523307, 1523880, 1524486, 1525083, 1525664, 1526269, 1526864, 1527444, 1528030, 1528624, 1529209, 1529819, 1530382, 1530960, 1531580]","[1518146, 1518389, 1518779, 1519229, 1519764, 1520354, 1520969, 1521569, 1522163, 1522789, 1523375, 1523952, 1524547, 1525152, 1525750, 1526339, 1526936, 1527495, 1528088, 1528683, 1529271, 1529875, 1530446, 1531008, 1531632]","[255, 204, 206, 211, 206, 208, 210, 211, 204, 207, 207, 204, 203, 202, 194, 173, 185, 174, 192, 197, 200, 198, 196, 180, 191]","[1518048, 1518312, 1518692, 1519159, 1519700, 1520292, 1520902, 1521497, 1522088, 1522709, 1523311, 1523885, 1524489, 1525087, 1525668, 1526273, 1526868, 1527448, 1528034, 1528628, 1529213, 1529823, 1530386, 1530966, 1531585]","[1517970, 1518569, 1519169, 1519769, 1520369, 1520969, 1521569, 1522169, 1522725, 1523328, 1523900, 1524506, 1525103, 1525684, 1526289, 1526884, 1527464, 1528050, 1528644, 1529229, 1529839, 1530402, 1530980, 1531600]",88,EM,L,R,ITMSR,1.1,
0,600,trial,0,73,73,73,trial,"['S', 'S', 'S', 'S', 'S', 'S', 'S', 'S', 'C', 'C', 'C', 'C', 'C', 'C', 'C', 'C', 'C', 'C', 'C', 'C', 'C', 'C', 'C', 'C']","[1537439, 1537775, 1538341, 1538968, 1539569, 1540178, 1540792, 1541400, 1541999, 1542567, 1543168, 1543753, 1544378, 1544982, 1545580, 1546193, 1546775, 1547375, 1547954, 1548568, 1549187, 1549805, 1550399, 1551003]","[1537507, 1537876, 1538411, 1539040, 1539644, 1540245, 1540853, 1541462, 1542060, 1542631, 1543227, 1543811, 1544439, 1545036, 1545634, 1546249, 1546823, 1547431, 1548006, 1548634, 1549252, 1549861, 1550449, 1551060]","[176, 186, 174, 188, 194, 195, 195, 181, 187, 190, 182, 181, 182, 173, 183, 180, 175, 157, 176, 194, 178, 180, 192, 197]","[1537444, 1537779, 1538345, 1538974, 1539575, 1540184, 1540798, 1541405, 1542005, 1542573, 1543174, 1543759, 1544384, 1544989, 1545586, 1546199, 1546781, 1547381, 1547960, 1548573, 1549193, 1549811, 1550404, 1551005]","[1537244, 1537844, 1538444, 1539044, 1539644, 1540244, 1540844, 1541444, 1542019, 1542587, 1543188, 1543773, 1544398, 1545003, 1545601, 1546213, 1546796, 1547395, 1547974, 1548589, 1549207, 1549826, 1550419, 1551023]",88,EM,L,R,ITMSR,1.1,
2,400,trial,0,74,74,74,trial,"['S', 'S', 'S', 'S', 'S', 'S', 'S', 'S', 'C', 'C', 'C', 'C', 'C', 'C', 'C', 'C', 'C', 'C', 'C', 'C', 'C', 'C', 'C', 'C']","[1556743, 1557052, 1557301, 1557609, 1557998, 1558419, 1558820, 1559213, 1559627, 1560029, 1560427, 1560835, 1561253, 1561660, 1562057, 1562465, 1562886, 1563309, 1563709, 1564129, 1564555, 1564983, 1565404, 1565814]","[1556839, 1557114, 1557379, 1557692, 1558069, 1558487, 1558896, 1559286, 1559705, 1560103, 1560489, 1560911, 1561302, 1561703, 1562115, 1562509, 1562931, 1563361, 1563780, 1564182, 1564613, 1565034, 1565462, 1565868]","[168, 178, 178, 189, 176, 183, 181, 181, 174, 177, 175, 181, 166, 145, 159, 166, 145, 164, 153, 163, 156, 139, 132, 135]","[1556749, 1557058, 1557307, 1557612, 1558003, 1558423, 1558824, 1559217, 1559633, 1560035, 1560432, 1560841, 1561259, 1561666, 1562063, 1562469, 1562891, 1563313, 1563714, 1564134, 1564562, 1564989, 1565409, 1565819]","[1556449, 1556848, 1557249, 1557648, 1558048, 1558448, 1558848, 1559248, 1559647, 1560049, 1560448, 1560855, 1561273, 1561680, 1562077, 1562485, 1562906, 1563329, 1563729, 1564149, 1564575, 1565003, 1565424, 1565834]",88,EM,L,R,ITMSR,1.1,
3,600,trial,0,75,75,75,trial,"['S', 'S', 'S', 'S', 'S', 'S', 'S', 'S', 'S', 'C', 'C', 'C', 'C', 'C', 'C', 'C', 'C', 'C', 'C', 'C', 'C', 'C', 'C', 'C', 'C']","[1571481, 1571655, 1571953, 1572362, 1572922, 1573525, 1574117, 1574695, 1575273, 1575884, 1576497, 1577078, 1577663, 1578241, 1578834, 1579427, 1580046, 1580663, 1581233, 1581811, 1582393, 1582964, 1583585, 1584210, 1584815]","[1571543, 1571712, 1572031, 1572430, 1572995, 1573596, 1574183, 1574761, 1575346, 1575954, 1576568, 1577148, 1577726, 1578332, 1578910, 1579500, 1580102, 1580733, 1581303, 1581882, 1582460, 1583045, 1583641, 1584269, 1584884]","[165, 168, 177, 176, 172, 176, 162, 176, 174, 171, 167, 165, 166, 179, 165, 166, 170, 154, 169, 166, 138, 154, 151, 154, 170]","[1571487, 1571660, 1571958, 1572366, 1572927, 1573529, 1574122, 1574700, 1575278, 1575888, 1576502, 1577083, 1577667, 1578245, 1578840, 1579432, 1580051, 1580668, 1581237, 1581815, 1582398, 1582969, 1583589, 1584216, 1584821]","[1571207, 1571807, 1572407, 1573007, 1573607, 1574207, 1574807, 1575407, 1575904, 1576517, 1577098, 1577683, 1578261, 1578854, 1579447, 1580066, 1580683, 1581253, 1581831, 1582413, 1582984, 1583605, 1584230, 1584835]",88,EM,L,R,ITMSR,1.1,
5,600,trial,0,76,76,76,trial,"['S', 'S', 'S', 'S', 'S', 'S', 'S', 'S', 'C', 'C', 'C', 'C', 'C', 'C', 'C', 'C', 'C', 'C', 'C', 'C', 'C', 'C', 'C', 'C']","[1590558, 1590892, 1591451, 1592076, 1592646, 1593262, 1593861, 1594473, 1595054, 1595640, 1596235, 1596831, 1597440, 1598068, 1598667, 1599265, 1599904, 1600494, 1601094, 1601748, 1602343, 1602921, 1603530, 1604134]","[1590619, 1590976, 1591517, 1592127, 1592702, 1593328, 1593925, 1594518, 1595101, 1595697, 1596282, 1596903, 1597500, 1598135, 1598714, 1599294, 1599942, 1600562, 1601167, 1601808, 1602395, 1602958, 1603577, 1604184]","[155, 175, 173, 151, 161, 164, 162, 121, 137, 131, 116, 147, 146, 122, 99, 37, 102, 120, 126, 58, 107, 81, 38, 49]","[1590564, 1590896, 1591456, 1592081, 1592651, 1593267, 1593865, 1594479, 1595060, 1595646, 1596241, 1596836, 1597445, 1598075, 1598673, 1599271, 1599909, 1600500, 1601100, 1601754, 1602350, 1602926, 1603536, 1604142]","[1590333, 1590933, 1591533, 1592133, 1592733, 1593333, 1593933, 1594533, 1595074, 1595660, 1596255, 1596851, 1597460, 1598088, 1598687, 1599285, 1599924, 1600514, 1601114, 1601768, 1602363, 1602941, 1603550, 1604154]",88,EM,L,R,ITMSR,1.1,
1,400,trial,0,77,77,77,trial,"['S', 'S', 'S', 'S', 'S', 'S', 'S', 'S', 'C', 'C', 'C', 'C', 'C', 'C', 'C', 'C', 'C', 'C', 'C', 'C', 'C', 'C', 'C', 'C']","[1609931, 1610319, 1610539, 1610874, 1611283, 1611706, 1612108, 1612511, 1612916, 1613304, 1613732, 1614134, 1614546, 1614960, 1615376, 1615783, 1616229, 1616663, 1617085, 1617521, 1617969, 1618384, 1618814, 1619245]","[1610008, 1610399, 1610609, 1610955, 1611352, 1611779, 1612175, 1612578, 1612973, 1613363, 1613792, 1614187, 1614604, 1615021, 1615426, 1615851, 1616277, 1616724, 1617138, 1617573, 1618018, 1618442, 1618864, 1619292]","[188, 203, 205, 211, 206, 210, 209, 209, 199, 203, 199, 194, 204, 197, 199, 197, 191, 192, 189, 188, 201, 188, 162, 163]","[1609938, 1610324, 1610542, 1610878, 1611287, 1611710, 1612113, 1612515, 1612921, 1613308, 1613737, 1614139, 1614551, 1614965, 1615380, 1615789, 1616234, 1616668, 1617090, 1617526, 1617973, 1618388, 1618820, 1619250]","[1609738, 1610138, 1610539, 1610938, 1611338, 1611738, 1612138, 1612538, 1612936, 1613324, 1613752, 1614154, 1614566, 1614980, 1615396, 1615803, 1616249, 1616684, 1617105, 1617541, 1617989, 1618404, 1618834, 1619265]",88,EM,L,R,ITMSR,1.1,
2,600,trial,0,78,78,78,trial,"['B', 'S', 'S', 'S', 'S', 'S', 'S', 'S', 'S', 'C', 'C', 'C', 'C', 'C', 'C', 'C', 'C', 'C', 'C', 'C', 'C', 'C', 'C', 'C', 'C']","[1641663, 1641952, 1642257, 1642796, 1643417, 1644024, 1644642, 1645244, 1645804, 1646415, 1646992, 1647566, 1648148, 1648748, 1649363, 1650002, 1650608, 1651209, 1651845, 1652464, 1653076, 1653728, 1654338, 1654940, 1655570]","[1641834, 1642078, 1642398, 1642941, 1643545, 1644134, 1644732, 1645334, 1645900, 1646503, 1647078, 1647643, 1648236, 1648837, 1649447, 1650082, 1650704, 1651329, 1651947, 1652546, 1653203, 1653828, 1654435, 1655025, 1655657]","[81, 201, 206, 206, 186, 183, 181, 182, 171, 171, 168, 130, 152, 170, 172, 159, 137, 157, 153, 137, 164, 182, 175, 167, 181]","[1641692, 1641956, 1642260, 1642799, 1643422, 1644029, 1644646, 1645248, 1645809, 1646419, 1646997, 1647571, 1648153, 1648752, 1649369, 1650008, 1650615, 1651213, 1651850, 1652470, 1653082, 1653733, 1654343, 1654945, 1655575]","[1641674, 1642274, 1642874, 1643474, 1644075, 1644674, 1645274, 1645874, 1646435, 1647012, 1647586, 1648168, 1648769, 1649383, 1650022, 1650628, 1651229, 1651865, 1652484, 1653096, 1653748, 1654359, 1654960, 1655590]",88,EM,L,R,ITMSR,1.1,
0,600,trial,0,79,79,79,trial,"['S', 'S', 'S', 'S', 'S', 'S', 'S', 'S', 'C', 'C', 'C', 'C', 'C', 'C', 'C', 'C', 'C', 'C', 'C', 'C', 'C', 'C', 'C', 'C']","[1661172, 1661476, 1662056, 1662679, 1663299, 1663906, 1664492, 1665116, 1665701, 1666299, 1666859, 1667467, 1668074, 1668669, 1669279, 1669871, 1670483, 1671078, 1671714, 1672310, 1672914, 1673512, 1674130, 1674736]","[1661247, 1661580, 1662159, 1662756, 1663383, 1663991, 1664577, 1665185, 1665772, 1666364, 1666946, 1667535, 1668133, 1668741, 1669348, 1669932, 1670548, 1671162, 1671784, 1672383, 1672968, 1673569, 1674204, 1674822]","[158, 200, 202, 191, 193, 192, 199, 191, 182, 172, 176, 179, 139, 149, 158, 154, 151, 162, 160, 144, 117, 132, 102, 130]","[1661180, 1661480, 1662060, 1662684, 1663304, 1663912, 1664497, 1665121, 1665708, 1666304, 1666865, 1667472, 1668079, 1668674, 1669284, 1669876, 1670490, 1671085, 1671719, 1672315, 1672920, 1673518, 1674135, 1674741]","[1660971, 1661570, 1662170, 1662770, 1663370, 1663970, 1664570, 1665170, 1665721, 1666319, 1666879, 1667487, 1668094, 1668689, 1669299, 1669891, 1670503, 1671098, 1671734, 1672330, 1672934, 1673532, 1674150, 1674756]",88,EM,L,R,ITMSR,1.1,
2,400,trial,0,80,80,80,trial,"['S', 'S', 'S', 'S', 'S', 'S', 'S', 'S', 'C', 'C', 'C', 'C', 'C', 'C', 'C', 'C', 'C', 'C', 'C', 'C', 'C', 'C', 'C', 'C']","[1680443, 1680710, 1681011, 1681324, 1681700, 1682120, 1682519, 1682916, 1683338, 1683758, 1684157, 1684579, 1684994, 1685421, 1685844, 1686264, 1686667, 1687103, 1687522, 1687944, 1688366, 1688801, 1689234, 1689657]","[1680550, 1680786, 1681090, 1681399, 1681774, 1682187, 1682589, 1682991, 1683416, 1683817, 1684228, 1684635, 1685041, 1685468, 1685881, 1686323, 1686723, 1687147, 1687582, 1688000, 1688422, 1688840, 1689279, 1689707]","[192, 205, 209, 208, 203, 203, 205, 202, 195, 195, 200, 193, 193, 185, 190, 191, 202, 200, 193, 199, 193, 190, 200, 196]","[1680451, 1680715, 1681016, 1681329, 1681705, 1682126, 1682524, 1682921, 1683344, 1683764, 1684162, 1684584, 1685000, 1685427, 1685850, 1686269, 1686672, 1687107, 1687526, 1687948, 1688371, 1688806, 1689238, 1689662]","[1680150, 1680550, 1680950, 1681350, 1681751, 1682150, 1682550, 1682950, 1683358, 1683778, 1684177, 1684599, 1685014, 1685441, 1685864, 1686284, 1686687, 1687123, 1687542, 1687964, 1688386, 1688821, 1689254, 1689677]",88,EM,L,R,ITMSR,1.1,
1,400,trial,0,81,81,81,trial,"['S', 'S', 'S', 'S', 'S', 'S', 'S', 'S', 'C', 'C', 'C', 'C', 'C', 'C', 'C', 'C', 'C', 'C', 'C', 'C', 'C', 'C', 'C', 'C']","[1695211, 1695528, 1695843, 1696184, 1696572, 1696972, 1697372, 1697781, 1698192, 1698592, 1698980, 1699386, 1699806, 1700217, 1700613, 1701036, 1701436, 1701843, 1702264, 1702685, 1703088, 1703524, 1703927, 1704344]","[1695278, 1695590, 1695890, 1696239, 1696629, 1697033, 1697434, 1697836, 1698246, 1698644, 1699037, 1699447, 1699855, 1700271, 1700665, 1701092, 1701495, 1701911, 1702321, 1702735, 1703155, 1703591, 1704010, 1704401]","[201, 207, 206, 200, 207, 212, 209, 200, 206, 192, 201, 201, 193, 200, 199, 200, 201, 199, 200, 194, 202, 201, 196, 189]","[1695215, 1695532, 1695847, 1696189, 1696576, 1696975, 1697376, 1697785, 1698196, 1698596, 1698984, 1699390, 1699811, 1700222, 1700617, 1701040, 1701441, 1701849, 1702268, 1702689, 1703092, 1703528, 1703931, 1704349]","[1695006, 1695406, 1695806, 1696206, 1696606, 1697006, 1697406, 1697806, 1698212, 1698612, 1699000, 1699406, 1699826, 1700237, 1700633, 1701056, 1701456, 1701863, 1702284, 1702705, 1703108, 1703544, 1703947, 1704365]",88,EM,L,R,ITMSR,1.1,
4,600,trial,0,82,82,82,trial,"['S', 'S', 'S', 'S', 'S', 'S', 'S', 'S', 'C', 'C', 'C', 'C', 'C', 'C', 'C', 'C', 'C', 'C', 'C', 'C', 'C', 'C', 'C', 'C']","[1710025, 1710333, 1710959, 1711531, 1712172, 1712735, 1713311, 1713901, 1714502, 1715073, 1715659, 1716235, 1716823, 1717407, 1717979, 1718573, 1719162, 1719738, 1720298, 1720859, 1721468, 1722039, 1722637, 1723207]","[1710073, 1710410, 1711016, 1711592, 1712220, 1712802, 1713371, 1713950, 1714560, 1715138, 1715722, 1716302, 1716909, 1717483, 1718098, 1718720, 1719380, 1719952, 1720540, 1721154, 1721732, 1722320, 1722864, 1723414]","[195, 201, 196, 205, 198, 203, 198, 184, 191, 192, 194, 196, 185, 181, 184, 190, 179, 172, 180, 189, 173, 189, 175, 168]","[1710030, 1710338, 1710964, 1711535, 1712176, 1712740, 1713315, 1713906, 1714507, 1715079, 1715664, 1716239, 1716829, 1717413, 1717985, 1718578, 1719168, 1719744, 1720303, 1720864, 1721475, 1722045, 1722644, 1723212]","[1709820, 1710419, 1711020, 1711619, 1712219, 1712819, 1713419, 1714019, 1714522, 1715093, 1715679, 1716255, 1716843, 1717427, 1717999, 1718593, 1719182, 1719758, 1720318, 1720879, 1721488, 1722059, 1722657, 1723227]",88,EM,L,R,ITMSR,1.1,
5,400,trial,0,83,83,83,trial,"['S', 'S', 'S', 'S', 'S', 'S', 'S', 'S', 'C', 'C', 'C', 'C', 'C', 'C', 'C', 'C', 'C', 'C', 'C', 'C', 'C', 'C', 'C', 'C']","[1728890, 1729226, 1729538, 1729921, 1730308, 1730708, 1731081, 1731493, 1731899, 1732319, 1732730, 1733141, 1733557, 1733968, 1734379, 1734774, 1735200, 1735621, 1736038, 1736484, 1736891, 1737330, 1737749, 1738162]","[1728964, 1729298, 1729617, 1729988, 1730371, 1730766, 1731152, 1731556, 1731976, 1732392, 1732820, 1733232, 1733641, 1734055, 1734454, 1734858, 1735291, 1735699, 1736121, 1736565, 1736989, 1737410, 1737843, 1738264]","[185, 196, 204, 193, 195, 189, 199, 188, 194, 188, 184, 181, 181, 175, 180, 182, 180, 170, 154, 161, 163, 172, 173, 151]","[1728897, 1729232, 1729544, 1729926, 1730312, 1730711, 1731086, 1731499, 1731904, 1732324, 1732736, 1733146, 1733563, 1733975, 1734384, 1734779, 1735205, 1735626, 1736043, 1736491, 1736897, 1737335, 1737755, 1738167]","[1728709, 1729108, 1729508, 1729908, 1730308, 1730708, 1731108, 1731508, 1731919, 1732339, 1732750, 1733161, 1733577, 1733988, 1734400, 1734794, 1735220, 1735641, 1736058, 1736504, 1736911, 1737350, 1737769, 1738182]",88,EM,L,R,ITMSR,1.1,
4,400,trial,0,84,84,84,trial,"['S', 'S', 'S', 'S', 'S', 'S', 'S', 'S', 'C', 'C', 'C', 'C', 'C', 'C', 'C', 'C', 'C', 'C', 'C', 'C', 'C', 'C', 'C', 'C']","[1743912, 1744253, 1744561, 1744908, 1745309, 1745683, 1746105, 1746526, 1746892, 1747319, 1747735, 1748160, 1748567, 1748996, 1749414, 1749876, 1750302, 1750746, 1751166, 1751603, 1752042, 1752477, 1752881, 1753323]","[1743984, 1744328, 1744618, 1744970, 1745379, 1745752, 1746173, 1746590, 1746976, 1747388, 1747817, 1748226, 1748635, 1749069, 1749492, 1749962, 1750402, 1750853, 1751279, 1751721, 1752151, 1752579, 1753000, 1753422]","[150, 186, 187, 187, 191, 191, 188, 189, 189, 189, 172, 170, 157, 129, 173, 147, 130, 105, 144, 155, 159, 140, 143, 150]","[1743918, 1744259, 1744566, 1744912, 1745314, 1745688, 1746110, 1746531, 1746897, 1747324, 1747740, 1748165, 1748572, 1749001, 1749420, 1749882, 1750307, 1750752, 1751172, 1751608, 1752047, 1752483, 1752886, 1753328]","[1743731, 1744130, 1744530, 1744930, 1745330, 1745730, 1746130, 1746530, 1746912, 1747339, 1747756, 1748180, 1748587, 1749016, 1749434, 1749896, 1750322, 1750766, 1751186, 1751623, 1752062, 1752497, 1752901, 1753344]",88,EM,L,R,ITMSR,1.1,
3,600,trial,0,85,85,85,trial,"['B', 'S', 'S', 'S', 'S', 'S', 'S', 'S', 'S', 'C', 'C', 'C', 'C', 'C', 'C', 'C', 'C', 'C', 'C', 'C', 'C', 'C', 'C', 'C', 'C']","[1758779, 1759057, 1759370, 1759923, 1760528, 1761132, 1761722, 1762318, 1762911, 1763535, 1764115, 1764668, 1765258, 1765827, 1766389, 1766955, 1767529, 1768102, 1768647, 1769229, 1769798, 1770379, 1770952, 1771520, 1772083]","[1758913, 1759158, 1759702, 1760286, 1760849, 1761408, 1762014, 1762541, 1763020, 1763648, 1764224, 1764759, 1765378, 1765938, 1766505, 1767061, 1767651, 1768224, 1768790, 1769374, 1770020, 1770501, 1771105, 1771692, 1772325]","[212, 179, 200, 201, 199, 191, 190, 187, 186, 188, 175, 170, 161, 174, 168, 165, 140, 161, 169, 175, 182, 172, 166, 181, 184]","[1758810, 1759063, 1759373, 1759927, 1760532, 1761137, 1761727, 1762323, 1762916, 1763540, 1764120, 1764674, 1765263, 1765832, 1766394, 1766960, 1767535, 1768109, 1768653, 1769235, 1769803, 1770384, 1770958, 1771526, 1772088]","[1758791, 1759391, 1759991, 1760591, 1761191, 1761792, 1762392, 1762992, 1763555, 1764135, 1764688, 1765278, 1765848, 1766409, 1766975, 1767549, 1768122, 1768667, 1769249, 1769818, 1770399, 1770972, 1771540, 1772103]",88,EM,L,R,ITMSR,1.1,
4,400,trial,0,86,86,86,trial,"['S', 'S', 'S', 'S', 'S', 'S', 'S', 'S', 'C', 'C', 'C', 'C', 'C', 'C', 'C', 'C', 'C', 'C', 'C', 'C', 'C', 'C', 'C', 'C']","[1778040, 1778379, 1778664, 1779017, 1779414, 1779841, 1780229, 1780656, 1781047, 1781466, 1781882, 1782281, 1782712, 1783141, 1783569, 1783975, 1784394, 1784821, 1785259, 1785683, 1786107, 1786560, 1786978, 1787401]","[1778129, 1778467, 1778748, 1779104, 1779511, 1779912, 1780321, 1780730, 1781145, 1781548, 1781950, 1782375, 1782799, 1783211, 1783665, 1784081, 1784493, 1784932, 1785368, 1785780, 1786215, 1786630, 1787066, 1787487]","[179, 203, 205, 206, 204, 196, 202, 191, 177, 186, 156, 196, 173, 175, 162, 178, 168, 171, 170, 130, 123, 53, 102, 124]","[1778049, 1778383, 1778667, 1779021, 1779419, 1779845, 1780234, 1780660, 1781052, 1781471, 1781888, 1782287, 1782717, 1783146, 1783575, 1783982, 1784399, 1784826, 1785265, 1785690, 1786114, 1786567, 1786984, 1787407]","[1777828, 1778228, 1778628, 1779028, 1779428, 1779828, 1780228, 1780628, 1781067, 1781486, 1781902, 1782301, 1782732, 1783161, 1783589, 1783995, 1784414, 1784841, 1785279, 1785703, 1786127, 1786580, 1786998, 1787421]",88,EM,L,R,ITMSR,1.1,
2,400,trial,0,87,87,87,trial,"['B', 'S', 'S', 'S', 'S', 'S', 'S', 'S', 'S', 'C', 'C', 'C', 'C', 'C', 'C', 'C', 'C', 'C', 'C', 'C', 'C', 'C', 'C', 'C', 'C']","[1792935, 1793204, 1793467, 1793743, 1794104, 1794524, 1794913, 1795335, 1795734, 1796139, 1796540, 1796950, 1797362, 1797785, 1798190, 1798601, 1799021, 1799446, 1799846, 1800302, 1800723, 1801147, 1801579, 1801994, 1802447]","[1793086, 1793331, 1793600, 1793905, 1794326, 1794683, 1795053, 1795463, 1795852, 1796236, 1796652, 1797068, 1797482, 1797889, 1798304, 1798728, 1799150, 1799569, 1799971, 1800432, 1800863, 1801278, 1801701, 1802131, 1802572]","[149, 170, 193, 195, 196, 193, 187, 176, 190, 175, 177, 188, 135, 187, 191, 184, 162, 179, 173, 167, 174, 155, 179, 143, 144]","[1793032, 1793209, 1793471, 1793747, 1794108, 1794529, 1794917, 1795339, 1795739, 1796143, 1796545, 1796955, 1797368, 1797790, 1798195, 1798606, 1799026, 1799450, 1799852, 1800307, 1800728, 1801152, 1801584, 1802000, 1802454]","[1792946, 1793346, 1793746, 1794146, 1794546, 1794946, 1795346, 1795746, 1796159, 1796560, 1796970, 1797382, 1797805, 1798210, 1798621, 1799042, 1799467, 1799866, 1800322, 1800743, 1801167, 1801600, 1802014, 1802467]",88,EM,L,R,ITMSR,1.1,
