pitch,ioi,event,.thisRepN,.thisTrialN,.thisN,.thisIndex,event,tap_types,tap_times,release_times,peak_pressures,peak_times,tone_times,subject,experimenter,register,handedness,experiment,version
,,SPR,0,-1,-1,0,SPR,"['P', 'P', 'P', 'P', 'P', 'P', 'P', 'P', 'P', 'P', 'P', 'P', 'P', 'P', 'P', 'P', 'P', 'P', 'P', 'P', 'P', 'P', 'P', 'P', 'P', 'P', 'P', 'P', 'P', 'P']","[47391, 48121, 48774, 49438, 50100, 50741, 51398, 52055, 52714, 53373, 54035, 54684, 55324, 55964, 56596, 57254, 57934, 58595, 59213, 59857, 60523, 61150, 61768, 62442, 63075, 63718, 64419, 65098, 65759, 66397]","[47769, 48372, 49055, 49751, 50428, 51059, 51723, 52373, 53014, 53696, 54275, 55027, 55638, 56285, 56905, 57588, 58259, 58927, 59543, 60193, 60836, 61477, 62129, 62761, 63442, 64095, 64773, 65425, 66102, 66711]","[71, 161, 211, 204, 219, 3, 37, 253, 42, 31, 65, 55, 50, 57, 42, 60, 53, 64, 70, 69, 89, 86, 55, 65, 92, 66, 65, 66, 60, 83]","[47510, 48262, 48909, 49569, 50223, 50889, 51553, 52244, 52819, 53527, 54134, 54778, 55493, 56119, 56743, 57393, 58105, 58779, 59459, 60080, 60706, 61360, 62031, 62672, 63349, 63980, 64610, 65305, 65933, 66579]",,72,SB,L,R,ITMSR,1.1
4,500,practice,0,0,0,0,practice,"['S', 'S', 'S', 'S', 'S', 'S', 'S', 'S', 'C', 'C', 'C', 'C', 'C', 'C', 'C', 'C', 'C', 'C', 'C', 'C', 'C', 'C', 'C', 'C']","[138119, 138507, 138790, 139179, 139705, 140219, 140704, 141230, 141710, 142171, 142630, 143111, 143588, 144048, 144532, 145017, 145499, 145972, 146465, 146963, 147430, 147935, 148425, 148909]","[138236, 138607, 138875, 139259, 139785, 140310, 140784, 141314, 141792, 142244, 142710, 143187, 143673, 144146, 144621, 145130, 145591, 146113, 146590, 147097, 147614, 148085, 148553, 149048]","[3, 252, 11, 42, 60, 81, 38, 32, 51, 70, 79, 81, 106, 100, 103, 83, 102, 96, 118, 121, 127, 124, 115, 81]","[138165, 138548, 138797, 139214, 139739, 140254, 140737, 141236, 141744, 142178, 142636, 143143, 143623, 144093, 144567, 145073, 145505, 146037, 146521, 147020, 147509, 148007, 148490, 148970]","[137753, 138253, 138754, 139254, 139754, 140254, 140754, 141254, 141730, 142191, 142650, 143131, 143608, 144068, 144552, 145037, 145519, 145992, 146485, 146983, 147450, 147955, 148445, 148929]",72,SB,L,R,ITMSR,1.1
0,500,practice,0,1,1,1,practice,"['S', 'S', 'S', 'S', 'S', 'S', 'S', 'C', 'C', 'C', 'C', 'C', 'C', 'C', 'C', 'C', 'C', 'C', 'C', 'C', 'C', 'C', 'C']","[155087, 155561, 156055, 156563, 157062, 157570, 158071, 158559, 159015, 159523, 159986, 160506, 161001, 161487, 161972, 162483, 162961, 163441, 163971, 164453, 164928, 165400, 165919]","[155235, 155660, 156170, 156640, 157166, 157658, 158144, 158647, 159092, 159609, 160104, 160591, 161101, 161568, 162064, 162567, 163047, 163518, 164052, 164563, 165032, 165522, 166004]","[13, 12, 40, 45, 65, 28, 43, 41, 11, 44, 50, 43, 44, 60, 61, 41, 51, 28, 42, 67, 81, 95, 51]","[155181, 155609, 156108, 156599, 157105, 157602, 158109, 158604, 159047, 159559, 160041, 160542, 161046, 161520, 162004, 162512, 162995, 163447, 163977, 164511, 164981, 165450, 165957]","[154629, 155129, 155629, 156129, 156630, 157129, 157629, 158129, 158579, 159035, 159543, 160006, 160526, 161021, 161507, 161992, 162503, 162981, 163461, 163991, 164473, 164948, 165421, 165939]",72,SB,L,R,ITMSR,1.1
2,500,practice,0,2,2,2,practice,"['S', 'S', 'S', 'S', 'S', 'S', 'S', 'S', 'C', 'C', 'C', 'C', 'C', 'C', 'C', 'C', 'C', 'C', 'C', 'C', 'C', 'C', 'C', 'C']","[171959, 172144, 172559, 173061, 173553, 174046, 174534, 175049, 175542, 176005, 176494, 176987, 177459, 177967, 178436, 178910, 179406, 179898, 180383, 180844, 181331, 181817, 182348, 182830]","[172055, 172222, 172651, 173151, 173644, 174161, 174631, 175131, 175656, 176118, 176619, 177096, 177561, 178045, 178562, 179049, 179528, 180036, 180485, 180974, 181454, 181992, 182489, 183014]","[158, 11, 246, 218, 25, 72, 62, 50, 59, 28, 38, 30, 42, 25, 34, 46, 55, 62, 20, 62, 54, 73, 78, 82]","[172016, 172179, 172600, 173104, 173591, 174105, 174592, 175085, 175598, 176050, 176558, 177038, 177507, 177999, 178497, 178973, 179458, 179963, 180424, 180895, 181379, 181889, 182407, 182901]","[171624, 172124, 172624, 173124, 173624, 174125, 174625, 175125, 175562, 176025, 176514, 177007, 177479, 177987, 178456, 178930, 179426, 179918, 180403, 180865, 181351, 181837, 182368, 182850]",72,SB,L,R,ITMSR,1.1
1,500,practice,0,3,3,3,practice,"['S', 'S', 'S', 'S', 'S', 'S', 'S', 'S', 'C', 'C', 'C', 'C', 'C', 'C', 'C', 'C', 'C', 'C', 'C', 'C', 'C', 'C', 'C', 'C']","[188537, 188877, 189286, 189803, 190312, 190778, 191279, 191791, 192293, 192771, 193277, 193777, 194240, 194723, 195251, 195729, 196230, 196710, 197197, 197672, 198162, 198640, 199127, 199636]","[188621, 188977, 189377, 189881, 190397, 190867, 191365, 191870, 192376, 192858, 193369, 193864, 194340, 194821, 195344, 195834, 196308, 196843, 197307, 197770, 198284, 198742, 199216, 199736]","[77, 201, 238, 21, 248, 38, 20, 2, 31, 23, 49, 10, 39, 62, 20, 36, 239, 67, 44, 44, 49, 33, 229, 36]","[188544, 188933, 189335, 189845, 190346, 190814, 191316, 191822, 192333, 192805, 193321, 193816, 194289, 194768, 195292, 195778, 196264, 196766, 197244, 197713, 198219, 198686, 199172, 199678]","[188365, 188865, 189365, 189865, 190365, 190865, 191365, 191865, 192313, 192791, 193297, 193797, 194260, 194743, 195271, 195749, 196250, 196730, 197217, 197692, 198182, 198660, 199147, 199656]",72,SB,L,R,ITMSR,1.1
5,500,practice,0,4,4,4,practice,"['S', 'S', 'S', 'S', 'S', 'S', 'C', 'C', 'C', 'C', 'C', 'C', 'C', 'C', 'C', 'C', 'C', 'C', 'C', 'C', 'C', 'C']","[206076, 206574, 207079, 207569, 208076, 208582, 209052, 209501, 209977, 210467, 210920, 211382, 211871, 212347, 212809, 213273, 213746, 214206, 214671, 215108, 215593, 216080]","[206175, 206669, 207162, 207655, 208151, 208692, 209172, 209643, 210079, 210571, 211054, 211499, 211986, 212474, 212934, 213396, 213899, 214326, 214791, 215268, 215734, 216197]","[244, 252, 35, 59, 56, 57, 78, 44, 74, 62, 71, 70, 65, 48, 62, 63, 99, 54, 76, 77, 81, 80]","[206123, 206617, 207112, 207601, 208108, 208630, 209110, 209559, 210021, 210512, 210983, 211431, 211916, 212407, 212868, 213319, 213821, 214255, 214717, 215178, 215653, 216129]","[205162, 205662, 206162, 206662, 207162, 207662, 208162, 208662, 209072, 209521, 209997, 210487, 210940, 211402, 211891, 212367, 212829, 213293, 213766, 214226, 214691, 215128, 215613, 216100]",72,SB,L,R,ITMSR,1.1
3,500,practice,0,5,5,5,practice,"['S', 'S', 'S', 'S', 'S', 'S', 'S', 'C', 'C', 'C', 'C', 'C', 'C', 'C', 'C', 'C', 'C', 'C', 'C', 'C', 'C', 'C', 'C']","[221924, 222420, 222932, 223413, 223917, 224422, 224915, 225423, 225883, 226358, 226850, 227315, 227780, 228268, 228753, 229226, 229699, 230165, 230612, 231105, 231600, 232047, 232545]","[222014, 222519, 223020, 223482, 223992, 224521, 225030, 225511, 225999, 226470, 226945, 227417, 227867, 228367, 228869, 229303, 229804, 230264, 230747, 231242, 231684, 232137, 232651]","[147, 249, 0, 0, 21, 55, 52, 45, 36, 55, 40, 41, 25, 19, 47, 20, 255, 23, 60, 50, 51, 5, 67]","[221929, 222470, 222972, 223444, 223948, 224462, 224970, 225470, 225929, 226410, 226887, 227364, 227817, 228318, 228809, 229259, 229737, 230204, 230672, 231169, 231630, 232094, 232586]","[221512, 222012, 222512, 223012, 223512, 224012, 224513, 225012, 225443, 225903, 226378, 226870, 227335, 227800, 228288, 228773, 229246, 229720, 230185, 230632, 231126, 231620, 232067, 232565]",72,SB,L,R,ITMSR,1.1
3,600,trial,0,6,6,6,trial,"['S', 'S', 'S', 'S', 'S', 'S', 'C', 'C', 'C', 'C', 'C', 'C', 'C', 'C', 'C', 'C', 'C', 'C', 'C', 'C', 'C', 'C']","[261323, 261944, 262464, 263119, 263734, 264340, 264927, 265457, 265975, 266517, 267068, 267623, 268157, 268712, 269262, 269794, 270367, 270916, 271450, 271980, 272508, 273035]","[261344, 262050, 262576, 263246, 263851, 264449, 265035, 265552, 266071, 266612, 267166, 267717, 268273, 268814, 269376, 269898, 270472, 271038, 271574, 272088, 272634, 273172]","[32, 81, 143, 123, 85, 96, 117, 84, 74, 89, 64, 83, 77, 91, 105, 54, 52, 75, 79, 85, 71, 87]","[261330, 261978, 262504, 263180, 263781, 264389, 264966, 265496, 266010, 266553, 267108, 267657, 268207, 268719, 269312, 269830, 270372, 270976, 271498, 272015, 272564, 273092]","[260267, 260866, 261466, 262066, 262666, 263266, 263866, 264466, 264947, 265477, 265995, 266537, 267088, 267643, 268177, 268732, 269282, 269814, 270387, 270936, 271470, 272001, 272528, 273055]",72,SB,L,R,ITMSR,1.1
5,400,trial,0,7,7,7,trial,"['S', 'S', 'S', 'S', 'S', 'S', 'S', 'C', 'C', 'C', 'C', 'C', 'C', 'C', 'C', 'C', 'C', 'C', 'C', 'C', 'C', 'C', 'C']","[278905, 279264, 279617, 279993, 280393, 280802, 281225, 281632, 281990, 282355, 282725, 283099, 283455, 283829, 284192, 284569, 284937, 285295, 285674, 286044, 286403, 286785, 287124]","[279014, 279352, 279704, 280069, 280469, 280867, 281281, 281700, 282058, 282428, 282816, 283179, 283534, 283912, 284285, 284659, 285023, 285381, 285757, 286146, 286505, 286877, 287239]","[19, 42, 65, 66, 41, 100, 84, 37, 13, 36, 40, 39, 15, 22, 25, 39, 40, 50, 38, 51, 82, 58, 67]","[278958, 279297, 279651, 279999, 280399, 280808, 281229, 281637, 281995, 282361, 282730, 283104, 283461, 283836, 284198, 284575, 284943, 285300, 285679, 286049, 286408, 286824, 287130]","[278473, 278873, 279273, 279673, 280073, 280473, 280873, 281273, 281652, 282010, 282375, 282745, 283119, 283475, 283849, 284212, 284589, 284957, 285315, 285694, 286064, 286424, 286806, 287144]",72,SB,L,R,ITMSR,1.1
2,400,trial,0,8,8,8,trial,"['S', 'S', 'S', 'S', 'C', 'C', 'C', 'C', 'C', 'C', 'C', 'C', 'C', 'C', 'C', 'C', 'C', 'C', 'C', 'C']","[293959, 294355, 294792, 295164, 295604, 295960, 296308, 296682, 297070, 297458, 297834, 298191, 298579, 298942, 299318, 299698, 300083, 300464, 300825, 301198]","[294060, 294450, 294882, 295252, 295696, 296058, 296411, 296782, 297155, 297546, 297923, 298278, 298673, 299024, 299405, 299780, 300174, 300560, 300909, 301279]","[31, 41, 57, 64, 71, 86, 69, 57, 56, 52, 70, 39, 46, 55, 38, 3, 61, 75, 74, 61]","[293963, 294362, 294797, 295170, 295608, 295965, 296312, 296687, 297076, 297463, 297839, 298198, 298585, 298948, 299324, 299704, 300088, 300469, 300830, 301204]","[292435, 292835, 293235, 293635, 294035, 294435, 294835, 295235, 295624, 295981, 296328, 296702, 297090, 297478, 297854, 298211, 298599, 298962, 299338, 299718, 300103, 300484, 300845, 301218]",72,SB,L,R,ITMSR,1.1
1,600,trial,0,9,9,9,trial,"['S', 'S', 'S', 'S', 'C', 'C', 'C', 'C', 'C', 'C', 'C', 'C', 'C', 'C', 'C', 'C', 'C', 'C', 'C', 'C']","[309194, 309803, 310385, 310988, 311576, 312144, 312734, 313318, 313900, 314459, 315025, 315584, 316142, 316700, 317256, 317785, 318354, 318913, 319479, 320038]","[309315, 309908, 310504, 311087, 311680, 312249, 312826, 313426, 314005, 314558, 315151, 315708, 316262, 316804, 317364, 317924, 318487, 319065, 319609, 320172]","[107, 79, 87, 59, 76, 73, 69, 58, 21, 29, 45, 71, 62, 3, 42, 73, 77, 79, 61, 44]","[309242, 309853, 310390, 311038, 311622, 312196, 312740, 313370, 313951, 314465, 315081, 315640, 316198, 316755, 317262, 317846, 318418, 318978, 319544, 320098]","[306869, 307468, 308068, 308668, 309268, 309868, 310468, 311068, 311597, 312164, 312754, 313338, 313920, 314479, 315045, 315604, 316162, 316720, 317276, 317805, 318374, 318934, 319499, 320058]",72,SB,L,R,ITMSR,1.1
4,600,trial,0,10,10,10,trial,"['S', 'S', 'S', 'S', 'S', 'S', 'C', 'C', 'C', 'C', 'C', 'C', 'C', 'C', 'C', 'C', 'C', 'C', 'C', 'C', 'C', 'C']","[326726, 327323, 327922, 328502, 329090, 329703, 330338, 330926, 331505, 332086, 332650, 333245, 333827, 334405, 334988, 335553, 336135, 336701, 337281, 337832, 338411, 338983]","[326834, 327420, 327998, 328584, 329176, 329775, 330429, 331018, 331623, 332185, 332766, 333348, 333964, 334530, 335164, 335716, 336275, 336862, 337401, 337977, 338568, 339174]","[84, 3, 39, 43, 47, 42, 1, 66, 82, 45, 39, 69, 75, 81, 106, 108, 69, 72, 43, 71, 70, 95]","[326766, 327374, 327927, 328507, 329095, 329708, 330344, 330931, 331510, 332092, 332654, 333297, 333884, 334411, 335062, 335637, 336199, 336705, 337350, 337902, 338488, 339079]","[325562, 326162, 326762, 327362, 327962, 328562, 329162, 329762, 330358, 330946, 331525, 332106, 332670, 333265, 333847, 334425, 335008, 335574, 336155, 336721, 337301, 337852, 338432, 339003]",72,SB,L,R,ITMSR,1.1
2,400,trial,0,11,11,11,trial,"['C', 'C', 'C', 'C', 'C', 'C', 'C', 'C', 'C', 'C', 'C', 'C', 'C', 'C', 'C', 'C']","[347795, 348136, 348491, 348878, 349284, 349706, 350084, 350478, 350871, 351263, 351644, 352029, 352412, 352808, 353225, 353603]","[347899, 348247, 348597, 348973, 349375, 349822, 350182, 350602, 351004, 351391, 351727, 352149, 352561, 352930, 353346, 353724]","[98, 89, 37, 61, 84, 45, 42, 74, 68, 62, 42, 14, 82, 74, 65, 50]","[347846, 348141, 348497, 348883, 349289, 349712, 350089, 350483, 350876, 351268, 351649, 352034, 352480, 352814, 353229, 353607]","[344630, 345030, 345431, 345830, 346230, 346630, 347030, 347430, 347815, 348156, 348511, 348898, 349304, 349726, 350104, 350498, 350892, 351283, 351664, 352049, 352432, 352828, 353245, 353624]",72,SB,L,R,ITMSR,1.1
5,600,trial,0,12,12,12,trial,"['S', 'S', 'S', 'S', 'S', 'S', 'C', 'C', 'C', 'C', 'C', 'C', 'C', 'C', 'C', 'C', 'C', 'C', 'C', 'C', 'C', 'C']","[362007, 362255, 362567, 362827, 363188, 363452, 363805, 364370, 364901, 365489, 366014, 366559, 367099, 367646, 368200, 368747, 369229, 369777, 370319, 370855, 371440, 371942]","[362104, 362358, 362659, 362921, 363282, 363553, 363895, 364453, 364988, 365573, 366099, 366633, 367190, 367737, 368293, 368828, 369315, 369867, 370405, 370960, 371526, 372071]","[69, 42, 254, 236, 148, 199, 200, 35, 9, 246, 9, 3, 227, 23, 216, 245, 10, 210, 230, 1, 213, 246]","[362058, 362309, 362573, 362834, 363193, 363505, 363810, 364376, 364906, 365495, 366019, 366564, 367105, 367652, 368205, 368752, 369235, 369782, 370324, 370861, 371445, 371944]","[359064, 359663, 360263, 360863, 361463, 362063, 362663, 363264, 363825, 364390, 364921, 365509, 366034, 366579, 367119, 367666, 368220, 368768, 369249, 369797, 370339, 370875, 371460, 371962]",72,SB,L,R,ITMSR,1.1
0,600,trial,0,13,13,13,trial,"['S', 'S', 'S', 'S', 'C', 'C', 'C', 'C', 'C', 'C', 'C', 'C', 'C', 'C', 'C', 'C', 'C', 'C', 'C', 'C']","[380014, 380253, 380640, 381736, 382360, 382942, 383545, 384121, 384720, 385324, 385912, 386511, 387120, 387752, 388314, 388866, 389465, 390054, 390680, 391283]","[380093, 380341, 380713, 381831, 382438, 383050, 383657, 384254, 384803, 385412, 386021, 386621, 387255, 387921, 388546, 389040, 389664, 390171, 390852, 391484]","[205, 173, 0, 168, 27, 231, 9, 33, 251, 228, 218, 225, 212, 225, 247, 58, 249, 251, 245, 18]","[380020, 380299, 380645, 381742, 382365, 382948, 383550, 384126, 384726, 385329, 385915, 386513, 387123, 387826, 388440, 388957, 389558, 390056, 390757, 391387]","[377630, 378229, 378829, 379429, 380029, 380630, 381229, 381829, 382381, 382962, 383565, 384141, 384740, 385344, 385932, 386531, 387140, 387772, 388334, 388886, 389485, 390074, 390701, 391303]",72,SB,L,R,ITMSR,1.1
3,600,trial,0,14,14,14,trial,"['S', 'S', 'S', 'S', 'C', 'C', 'C', 'C', 'C', 'C', 'C', 'C', 'C', 'C', 'C', 'C', 'C', 'C', 'C', 'C']","[399041, 399619, 400262, 400815, 401455, 402066, 402627, 403219, 403849, 404438, 404986, 405603, 406193, 406840, 407445, 408035, 408663, 409213, 409823, 410374]","[399131, 399709, 400352, 400904, 401558, 402151, 402734, 403311, 403988, 404605, 405120, 405764, 406359, 407041, 407653, 408293, 408909, 409474, 410108]","[245, 25, 243, 34, 27, 47, 6, 32, 22, 53, 36, 18, 245, 11, 67, 43, 26, 32, 6]","[399047, 399623, 400268, 400820, 401508, 402071, 402633, 403225, 403931, 404533, 405048, 405608, 406298, 406921, 407550, 408146, 408766, 409332, 409923]","[396667, 397267, 397868, 398467, 399067, 399667, 400267, 400867, 401475, 402086, 402648, 403239, 403869, 404458, 405006, 405623, 406213, 406860, 407465, 408055, 408683, 409233, 409843, 410394]",72,SB,L,R,ITMSR,1.1
3,400,trial,0,15,15,15,trial,"['S', 'S', 'S', 'S', 'C', 'C', 'C', 'C', 'C', 'C', 'C', 'C', 'C', 'C', 'C', 'C', 'C', 'C', 'C', 'C']","[417572, 417967, 418395, 418777, 419180, 419561, 419952, 420360, 420748, 421133, 421529, 421943, 422335, 422730, 423112, 423507, 423910, 424316, 424679, 425074]","[417683, 418126, 418545, 418938, 419364, 419720, 420123, 420518, 420927, 421317, 421719, 422106, 422504, 422899, 423283, 423674, 424076, 424477, 424862, 425256]","[17, 58, 41, 52, 55, 50, 70, 57, 94, 111, 97, 87, 109, 100, 84, 101, 103, 100, 121, 111]","[417603, 417972, 418399, 418782, 419252, 419567, 419957, 420365, 420822, 421212, 421608, 421948, 422410, 422804, 423194, 423577, 423915, 424386, 424759, 425158]","[416024, 416424, 416824, 417224, 417624, 418024, 418424, 418824, 419201, 419581, 419972, 420380, 420768, 421153, 421549, 421963, 422355, 422750, 423132, 423527, 423930, 424336, 424699, 425094]",72,SB,L,R,ITMSR,1.1
2,600,trial,0,16,16,16,trial,"['S', 'S', 'S', 'S', 'S', 'S', 'C', 'C', 'C', 'C', 'C', 'C', 'C', 'C', 'C', 'C', 'C', 'C', 'C', 'C', 'C', 'C']","[431700, 432314, 432924, 433554, 434163, 434721, 435354, 435953, 436567, 437094, 437734, 438346, 438885, 439460, 440054, 440638, 441243, 441852, 442462, 443056, 443640, 444210]","[431913, 432562, 433117, 433688, 434297, 434873, 435475, 436066, 436662, 437259, 437876, 438496, 439146, 439716, 440299, 440942, 441539, 442134, 442777, 443367, 443980]","[106, 96, 93, 99, 83, 99, 76, 66, 77, 103, 75, 72, 75, 76, 98, 125, 117, 117, 117, 119, 129]","[431794, 432415, 433010, 433618, 434169, 434804, 435417, 435959, 436572, 437180, 437808, 438417, 438985, 439555, 440154, 440724, 441335, 441934, 442549, 443148, 443740]","[430567, 431167, 431767, 432367, 432967, 433567, 434167, 434767, 435374, 435973, 436587, 437114, 437754, 438366, 438905, 439480, 440074, 440658, 441263, 441872, 442482, 443076, 443660, 444230]",72,SB,L,R,ITMSR,1.1
4,400,trial,0,17,17,17,trial,"['S', 'S', 'S', 'S', 'C', 'C', 'C', 'C', 'C', 'C', 'C', 'C', 'C', 'C', 'C', 'C', 'C', 'C', 'C', 'C']","[451258, 451661, 452079, 452464, 452860, 453265, 453642, 454056, 454461, 454831, 455215, 455603, 455965, 456376, 456780, 457155, 457561, 457977, 458381, 458780]","[451384, 451830, 452256, 452620, 453067, 453444, 453843, 454240, 454635, 454987, 455406, 455781, 456130, 456553, 456947, 457311, 457735, 458133, 458589, 458951]","[45, 75, 93, 77, 121, 85, 115, 99, 105, 90, 107, 81, 103, 103, 81, 88, 89, 92, 95, 85]","[451316, 451730, 452146, 452527, 452951, 453340, 453724, 454130, 454533, 454894, 455283, 455677, 456039, 456470, 456861, 457232, 457625, 458044, 458461, 458855]","[449716, 450116, 450516, 450916, 451316, 451716, 452116, 452516, 452880, 453285, 453662, 454076, 454481, 454851, 455235, 455623, 455985, 456396, 456800, 457176, 457581, 457997, 458401, 458800]",72,SB,L,R,ITMSR,1.1
0,400,trial,0,18,18,18,trial,"['S', 'S', 'S', 'S', 'C', 'C', 'C', 'C', 'C', 'C', 'C', 'C', 'C', 'C', 'C', 'C', 'C', 'C', 'C', 'C']","[465690, 466080, 466495, 466897, 467322, 467734, 468121, 468506, 468895, 469275, 469657, 470069, 470459, 470838, 471227, 471625, 472029, 472425, 472809, 473183]","[465794, 466154, 466588, 466989, 467371, 467782, 468160, 468549, 468942, 469358, 469712, 470114, 470497, 470876, 471267, 471671, 472049, 472469, 472877, 473243]","[197, 25, 63, 82, 90, 55, 23, 77, 49, 26, 75, 43, 45, 63, 62, 73, 255, 73, 79, 78]","[465742, 466084, 466500, 466903, 467328, 467740, 468126, 468511, 468899, 469280, 469662, 470074, 470463, 470842, 471232, 471629, 472032, 472429, 472815, 473188]","[464140, 464540, 464941, 465341, 465741, 466141, 466541, 466941, 467342, 467755, 468141, 468526, 468915, 469295, 469677, 470089, 470479, 470858, 471247, 471645, 472049, 472445, 472829, 473203]",72,SB,L,R,ITMSR,1.1
1,400,trial,0,19,19,19,trial,"['S', 'S', 'S', 'S', 'S', 'S', 'C', 'C', 'C', 'C', 'C', 'C', 'C', 'C', 'C', 'C', 'C', 'C', 'C', 'C', 'C', 'C']","[479655, 480028, 480413, 480808, 481205, 481606, 482012, 482378, 482764, 483153, 483534, 483887, 484275, 484674, 485068, 485458, 485850, 486238, 486623, 486976, 487416, 487810]","[479707, 480076, 480464, 480860, 481253, 481642, 482053, 482426, 482839, 483190, 483576, 483934, 484319, 484716, 485103, 485508, 485896, 486283, 486656, 487020, 487454, 487867]","[44, 33, 53, 0, 15, 229, 247, 8, 75, 56, 61, 60, 75, 41, 78, 96, 44, 75, 53, 83, 78, 55]","[479661, 480033, 480417, 480813, 481210, 481612, 482017, 482384, 482768, 483156, 483539, 483891, 484278, 484679, 485072, 485462, 485854, 486240, 486628, 486980, 487420, 487815]","[478874, 479275, 479674, 480074, 480474, 480874, 481274, 481674, 482032, 482398, 482784, 483173, 483554, 483907, 484295, 484695, 485088, 485478, 485870, 486258, 486643, 486996, 487436, 487830]",72,SB,L,R,ITMSR,1.1
5,400,trial,0,20,20,20,trial,"['S', 'S', 'S', 'S', 'C', 'C', 'C', 'C', 'C', 'C', 'C', 'C', 'C', 'C', 'C', 'C', 'C', 'C', 'C', 'C']","[494734, 495144, 495557, 495950, 496335, 496711, 497092, 497475, 497855, 498229, 498593, 498982, 499368, 499729, 500114, 500487, 500852, 501220, 501595, 502005]","[494808, 495202, 495629, 496014, 496388, 496792, 497191, 497571, 497949, 498308, 498673, 499057, 499460, 499826, 500216, 500578, 500942, 501304, 501690, 502086]","[17, 51, 73, 42, 46, 78, 74, 70, 96, 64, 69, 69, 76, 95, 52, 80, 75, 50, 51, 43]","[494740, 495150, 495561, 495955, 496339, 496715, 497096, 497479, 497860, 498235, 498597, 498988, 499373, 499734, 500120, 500491, 500856, 501226, 501600, 502009]","[493213, 493613, 494013, 494413, 494813, 495213, 495613, 496013, 496355, 496731, 497112, 497496, 497875, 498249, 498613, 499002, 499388, 499749, 500134, 500507, 500872, 501240, 501615, 502025]",72,SB,L,R,ITMSR,1.1
4,400,trial,0,21,21,21,trial,"['S', 'S', 'S', 'S', 'C', 'C', 'C', 'C', 'C', 'C', 'C', 'C', 'C', 'C', 'C', 'C', 'C', 'C', 'C', 'C']","[509042, 509415, 509790, 510198, 510590, 510973, 511352, 511744, 512122, 512510, 512889, 513275, 513673, 514044, 514433, 514835, 515207, 515589, 515988, 516359]","[509135, 509529, 509943, 510371, 510787, 511134, 511533, 511905, 512306, 512688, 513042, 513446, 513797, 514183, 514583, 514981, 515347, 515742, 516109, 516550]","[203, 2, 35, 50, 75, 41, 69, 77, 95, 88, 88, 82, 37, 56, 57, 71, 62, 68, 49, 78]","[509092, 509466, 509867, 510281, 510665, 511045, 511431, 511816, 512193, 512596, 512951, 513347, 513732, 514106, 514502, 514907, 515270, 515665, 516038, 516453]","[507492, 507892, 508292, 508692, 509092, 509492, 509892, 510292, 510610, 510993, 511372, 511764, 512142, 512530, 512909, 513295, 513693, 514064, 514453, 514855, 515227, 515609, 516008, 516379]",72,SB,L,R,ITMSR,1.1
0,600,trial,0,22,22,22,trial,"['S', 'S', 'S', 'S', 'S', 'S', 'C', 'C', 'C', 'C', 'C', 'C', 'C', 'C', 'C', 'C', 'C', 'C', 'C', 'C', 'C', 'C']","[523056, 523656, 524228, 524862, 525462, 526060, 526632, 527205, 527795, 528375, 528964, 529542, 530121, 530702, 531292, 531901, 532461, 533044, 533636, 534240, 534836, 535416]","[523229, 523800, 524440, 525064, 525646, 526270, 526864, 527475, 527997, 528623, 529221, 529866, 530395, 531012, 531557, 532216, 532757, 533365, 533967, 534534, 535133]","[49, 50, 79, 81, 17, 94, 108, 102, 71, 88, 101, 110, 110, 88, 89, 82, 95, 83, 92, 68, 93]","[523119, 523715, 524321, 524932, 525545, 526135, 526729, 527324, 527883, 528471, 529055, 529659, 530238, 530812, 531392, 532086, 532623, 533217, 533742, 534385, 535003]","[521883, 522483, 523083, 523683, 524283, 524883, 525484, 526083, 526652, 527225, 527815, 528395, 528984, 529562, 530141, 530722, 531312, 531921, 532482, 533064, 533656, 534260, 534856, 535436]",72,SB,L,R,ITMSR,1.1
3,400,trial,0,23,23,23,trial,"['S', 'S', 'S', 'S', 'C', 'C', 'C', 'C', 'C', 'C', 'C', 'C', 'C', 'C', 'C', 'C', 'C', 'C', 'C', 'C']","[542365, 542736, 543156, 543557, 543974, 544348, 544740, 545134, 545536, 545930, 546300, 546714, 547122, 547503, 547898, 548323, 548699, 549101, 549507, 549912]","[542499, 542876, 543302, 543716, 544105, 544524, 544909, 545313, 545720, 546125, 546476, 546932, 547334, 547722, 548129, 548526, 548937, 549302, 549711, 550096]","[83, 78, 81, 83, 73, 84, 101, 91, 103, 57, 75, 101, 109, 115, 103, 107, 101, 95, 114, 109]","[542423, 542800, 543161, 543562, 543978, 544353, 544820, 545214, 545615, 545935, 546379, 546805, 547216, 547609, 547991, 548409, 548790, 549186, 549601, 549992]","[540797, 541197, 541597, 541997, 542397, 542797, 543197, 543597, 543994, 544368, 544760, 545154, 545556, 545950, 546320, 546734, 547142, 547523, 547918, 548343, 548719, 549122, 549527, 549933]",72,SB,L,R,ITMSR,1.1
1,400,trial,0,24,24,24,trial,"['S', 'S', 'S', 'S', 'S', 'S', 'C', 'C', 'C', 'C', 'C', 'C', 'C', 'C', 'C', 'C', 'C', 'C', 'C', 'C', 'C', 'C']","[556340, 556721, 557145, 557579, 557986, 558370, 558777, 559139, 559552, 559933, 560352, 560740, 561135, 561556, 561948, 562329, 562735, 563126, 563523, 563932, 564312, 564715]","[556466, 556844, 557240, 557676, 558073, 558450, 558877, 559257, 559711, 560097, 560495, 560898, 561295, 561722, 562127, 562489, 562913, 563295, 563713, 564097, 564491, 564890]","[86, 107, 58, 50, 70, 26, 66, 59, 77, 102, 83, 81, 101, 99, 114, 106, 111, 118, 112, 101, 111, 98]","[556385, 556776, 557150, 557584, 557991, 558376, 558783, 559145, 559620, 559938, 560420, 560804, 561205, 561627, 562028, 562399, 562817, 563208, 563611, 564004, 564386, 564801]","[555603, 556003, 556403, 556803, 557203, 557603, 558003, 558403, 558797, 559159, 559572, 559953, 560372, 560760, 561155, 561576, 561968, 562349, 562755, 563146, 563544, 563952, 564332, 564736]",72,SB,L,R,ITMSR,1.1
4,600,trial,0,25,25,25,trial,"['S', 'S', 'S', 'S', 'S', 'S', 'S', 'C', 'C', 'C', 'C', 'C', 'C', 'C', 'C', 'C', 'C', 'C', 'C', 'C', 'C', 'C', 'C']","[571225, 571548, 571848, 572439, 573059, 573621, 574253, 574840, 575420, 576037, 576624, 577212, 577804, 578408, 578997, 579555, 580127, 580730, 581337, 581933, 582532, 583098, 583697]","[571426, 571585, 571936, 572564, 573206, 573820, 574440, 575055, 575659, 576253, 576847, 577455, 578037, 578682, 579282, 579855, 580428, 581028, 581597, 582247, 582780, 583386]","[66, 0, 31, 15, 19, 82, 75, 83, 79, 106, 86, 99, 93, 71, 58, 87, 73, 89, 74, 72, 47, 38]","[571317, 571556, 571853, 572443, 573127, 573706, 574337, 574922, 575514, 576125, 576727, 577332, 577895, 578412, 579091, 579664, 580267, 580814, 581440, 581937, 582537, 583204]","[570068, 570669, 571269, 571869, 572469, 573069, 573669, 574269, 574860, 575440, 576057, 576644, 577232, 577824, 578428, 579017, 579575, 580147, 580750, 581357, 581953, 582552, 583118, 583717]",72,SB,L,R,ITMSR,1.1
0,400,trial,0,26,26,26,trial,"['S', 'S', 'S', 'S', 'C', 'C', 'C', 'C', 'C', 'C', 'C', 'C', 'C', 'C', 'C', 'C', 'C', 'C', 'C', 'C']","[590993, 591397, 591787, 592231, 592616, 592975, 593362, 593747, 594150, 594556, 594921, 595323, 595726, 596134, 596521, 596903, 597309, 597719, 598108, 598545]","[591088, 591552, 591943, 592348, 592674, 593031, 593416, 593822, 594207, 594608, 594982, 595376, 595774, 596202, 596577, 596981, 597378, 597793, 598195, 598621]","[243, 64, 102, 49, 223, 234, 235, 6, 18, 13, 225, 198, 241, 5, 41, 42, 3, 25, 33, 38]","[591020, 591464, 591855, 592290, 592646, 592982, 593370, 593755, 594156, 594562, 594928, 595331, 595732, 596140, 596527, 596909, 597316, 597726, 598113, 598551]","[589459, 589859, 590259, 590659, 591059, 591459, 591859, 592259, 592636, 592995, 593382, 593767, 594170, 594576, 594941, 595343, 595746, 596154, 596541, 596923, 597329, 597739, 598128, 598565]",72,SB,L,R,ITMSR,1.1
2,600,trial,0,27,27,27,trial,"['S', 'S', 'S', 'S', 'C', 'C', 'C', 'C', 'C', 'C', 'C', 'C', 'C', 'C', 'C', 'C', 'C', 'C', 'C', 'C']","[606603, 607166, 607772, 608399, 608979, 609543, 610120, 610678, 611246, 611828, 612387, 612930, 613513, 614087, 614658, 615232, 615800, 616373, 616951, 617508]","[606705, 607342, 607954, 608572, 609191, 609729, 610306, 610867, 611436, 612050, 612569, 613091, 613737, 614293, 614952, 615499, 616098, 616641, 617232, 617753]","[226, 66, 83, 63, 101, 78, 77, 68, 52, 61, 91, 51, 72, 53, 56, 2, 15, 247, 249, 38]","[606645, 607238, 607841, 608470, 609061, 609626, 610195, 610758, 611338, 611911, 612467, 613000, 613593, 614177, 614737, 615309, 615873, 616448, 617030, 617608]","[604268, 604868, 605468, 606068, 606668, 607268, 607868, 608468, 608999, 609563, 610140, 610698, 611266, 611848, 612407, 612951, 613533, 614107, 614678, 615252, 615820, 616393, 616971, 617528]",72,SB,L,R,ITMSR,1.1
1,600,trial,0,28,28,28,trial,"['S', 'S', 'S', 'S', 'S', 'S', 'C', 'C', 'C', 'C', 'C', 'C', 'C', 'C', 'C', 'C', 'C', 'C', 'C', 'C', 'C', 'C']","[624378, 624989, 625574, 626159, 626792, 627374, 627991, 628568, 629149, 629748, 630319, 630895, 631512, 632095, 632674, 633265, 633846, 634459, 635035, 635621, 636221, 636798]","[624604, 625219, 625785, 626435, 626962, 627652, 628245, 628856, 629455, 629962, 630512, 631183, 631787, 632358, 632930, 633490, 634129, 634734, 635334, 635963, 636558]","[78, 32, 84, 96, 17, 38, 37, 38, 40, 9, 0, 31, 16, 47, 57, 59, 67, 71, 62, 57, 51]","[624465, 625059, 625699, 626255, 626873, 627528, 628110, 628743, 629311, 629839, 630415, 631109, 631639, 632245, 632832, 633375, 633996, 634562, 635212, 635773, 636420]","[623255, 623855, 624455, 625055, 625655, 626255, 626855, 627456, 628012, 628588, 629169, 629768, 630339, 630915, 631532, 632115, 632694, 633285, 633866, 634479, 635055, 635641, 636241, 636818]",72,SB,L,R,ITMSR,1.1
5,600,trial,0,29,29,29,trial,"['S', 'S', 'S', 'S', 'S', 'S', 'C', 'C', 'C', 'C', 'C', 'C', 'C', 'C', 'C', 'C', 'C', 'C', 'C', 'C', 'C', 'C']","[643280, 643879, 644529, 645099, 645664, 646263, 646870, 647440, 648044, 648632, 649205, 649796, 650374, 650948, 651509, 652089, 652653, 653238, 653832, 654398, 654971, 655553]","[643474, 643998, 644621, 645231, 645865, 646422, 647038, 647691, 648311, 648893, 649509, 650071, 650662, 651195, 651814, 652386, 652929, 653497, 654080, 654691, 655239, 655808]","[35, 6, 254, 19, 61, 75, 54, 70, 60, 79, 84, 68, 63, 37, 70, 78, 61, 62, 69, 73, 72, 73]","[643353, 643886, 644534, 645166, 645752, 646339, 646949, 647532, 648121, 648729, 649305, 649946, 650466, 651056, 651611, 652189, 652750, 653403, 653937, 654583, 655153, 655633]","[642136, 642734, 643334, 643934, 644534, 645134, 645734, 646334, 646890, 647460, 648065, 648652, 649225, 649816, 650394, 650968, 651529, 652109, 652674, 653258, 653852, 654418, 654991, 655574]",72,SB,L,R,ITMSR,1.1
1,600,trial,0,30,30,30,trial,"['S', 'S', 'S', 'S', 'S', 'S', 'C', 'C', 'C', 'C', 'C', 'C', 'C', 'C', 'C', 'C', 'C', 'C', 'C', 'C', 'C', 'C']","[667837, 668414, 669024, 669620, 670260, 670859, 671462, 672048, 672636, 673218, 673831, 674394, 675008, 675615, 676206, 676797, 677394, 677959, 678525, 679123, 679691, 680276]","[667986, 668538, 669176, 669748, 670362, 670972, 671570, 672246, 672808, 673414, 674073, 674643, 675263, 675890, 676471, 677085, 677642, 678211, 678901, 679456, 680059]","[186, 198, 219, 192, 168, 210, 224, 248, 34, 2, 14, 12, 245, 250, 220, 102, 191, 251, 235, 231, 238]","[667894, 668477, 669089, 669668, 670312, 670918, 671500, 672136, 672709, 673297, 673907, 674476, 675163, 675776, 676369, 676960, 677481, 678043, 678611, 679278, 679889]","[666733, 667333, 667933, 668533, 669133, 669733, 670333, 670934, 671482, 672068, 672656, 673239, 673851, 674414, 675028, 675635, 676226, 676817, 677414, 677979, 678545, 679143, 679711, 680296]",72,SB,L,R,ITMSR,1.1
5,400,trial,0,31,31,31,trial,"['C', 'C', 'C', 'C', 'C', 'C', 'C', 'C', 'C', 'C', 'C', 'C', 'C', 'C', 'C', 'C']","[688742, 689144, 689533, 689931, 690329, 690697, 691093, 691480, 691890, 692272, 692666, 693048, 693443, 693837, 694226, 694595]","[688869, 689312, 689685, 690065, 690442, 690823, 691219, 691639, 692016, 692405, 692773, 693171, 693576, 693997, 694351, 694737]","[49, 19, 22, 246, 123, 179, 157, 231, 133, 204, 148, 103, 181, 17, 246, 41]","[688786, 689220, 689605, 689936, 690335, 690703, 691140, 691550, 691946, 692340, 692711, 693117, 693512, 693917, 694273, 694667]","[685622, 686022, 686423, 686822, 687222, 687622, 688022, 688422, 688762, 689164, 689553, 689951, 690349, 690717, 691113, 691501, 691910, 692292, 692686, 693068, 693464, 693857, 694246, 694616]",72,SB,L,R,ITMSR,1.1
5,600,trial,0,32,32,32,trial,"['S', 'S', 'S', 'S', 'C', 'C', 'C', 'C', 'C', 'C', 'C', 'C', 'C', 'C', 'C', 'C', 'C', 'C', 'C', 'C']","[702771, 703336, 703910, 704525, 705134, 705698, 706300, 706835, 707452, 708032, 708641, 709206, 709804, 710428, 711001, 711571, 712145, 712731, 713324, 713932]","[702862, 703440, 704024, 704647, 705270, 705829, 706480, 707105, 707645, 708260, 708909, 709406, 710036, 710711, 711207, 711876, 712394, 713069, 713669]","[77, 68, 53, 27, 41, 18, 58, 103, 49, 65, 54, 45, 74, 2, 246, 41, 12, 35, 22]","[702800, 703368, 703942, 704585, 705167, 705754, 706386, 706926, 707535, 708113, 708725, 709303, 709893, 710531, 711117, 711651, 712287, 712864, 713567]","[700358, 700958, 701558, 702158, 702758, 703358, 703959, 704558, 705154, 705718, 706320, 706855, 707472, 708052, 708661, 709226, 709824, 710448, 711021, 711591, 712165, 712751, 713345, 713952]",72,SB,L,R,ITMSR,1.1
3,400,trial,0,33,33,33,trial,"['S', 'S', 'S', 'S', 'C', 'C', 'C', 'C', 'C', 'C', 'C', 'C', 'C', 'C', 'C', 'C', 'C', 'C', 'C', 'C']","[721121, 721514, 721917, 722335, 722736, 723090, 723482, 723868, 724255, 724634, 724993, 725371, 725762, 726174, 726577, 726969, 727342, 727725, 728122, 728536]","[721185, 721584, 721994, 722401, 722784, 723158, 723549, 723946, 724328, 724698, 725049, 725429, 725854, 726247, 726645, 727063, 727428, 727790, 728189, 728593]","[98, 116, 134, 111, 241, 24, 36, 76, 105, 83, 189, 33, 242, 64, 228, 169, 197, 5, 27, 153]","[721160, 721546, 721949, 722369, 722743, 723124, 723516, 723875, 724262, 724642, 724998, 725381, 725769, 726183, 726583, 726974, 727347, 727732, 728130, 728541]","[719579, 719979, 720379, 720779, 721179, 721580, 721979, 722379, 722756, 723110, 723502, 723888, 724275, 724654, 725013, 725391, 725782, 726194, 726597, 726989, 727362, 727745, 728142, 728556]",72,SB,L,R,ITMSR,1.1
3,600,trial,0,34,34,34,trial,"['S', 'S', 'S', 'S', 'S', 'S', 'C', 'C', 'C', 'C', 'C', 'C', 'C', 'C', 'C', 'C', 'C', 'C', 'C', 'C', 'C', 'C']","[735357, 736000, 736578, 737170, 737793, 738392, 738987, 739573, 740177, 740767, 741363, 741913, 742486, 743085, 743683, 744265, 744858, 745427, 746016, 746585, 747156, 747730]","[735452, 736101, 736683, 737285, 737895, 738481, 739126, 739670, 740280, 740892, 741484, 742108, 742688, 743211, 743880, 744426, 744987, 745539, 746131, 746741, 747298, 747849]","[112, 215, 136, 138, 116, 17, 91, 54, 177, 201, 192, 228, 33, 233, 29, 165, 168, 167, 110, 90, 175, 98]","[735421, 736050, 736636, 737229, 737857, 738398, 739028, 739578, 740182, 740772, 741369, 742014, 742494, 743092, 743799, 744358, 744862, 745433, 746019, 746589, 747230, 747734]","[734261, 734861, 735461, 736061, 736661, 737261, 737861, 738461, 739007, 739593, 740197, 740787, 741383, 741933, 742506, 743105, 743703, 744285, 744878, 745447, 746036, 746605, 747176, 747750]",72,SB,L,R,ITMSR,1.1
1,400,trial,0,35,35,35,trial,"['S', 'S', 'S', 'S', 'S', 'C', 'C', 'C', 'C', 'C', 'C', 'C', 'C', 'C', 'C', 'C', 'C', 'C', 'C', 'C', 'C']","[754605, 755023, 755471, 755870, 756232, 756666, 757056, 757440, 757821, 758196, 758567, 758953, 759345, 759729, 760123, 760507, 760887, 761267, 761643, 762031, 762418]","[754678, 755089, 755519, 755926, 756298, 756717, 757103, 757480, 757866, 758242, 758626, 758994, 759398, 759763, 760167, 760541, 760922, 761318, 761680, 762078, 762438]","[250, 9, 233, 6, 87, 23, 249, 110, 217, 180, 0, 191, 243, 197, 232, 199, 144, 185, 137, 151, 120]","[754641, 755028, 755474, 755874, 756235, 756670, 757060, 757445, 757826, 758201, 758572, 758959, 759348, 759733, 760128, 760513, 760894, 761275, 761649, 762036, 762420]","[753477, 753878, 754277, 754677, 755077, 755477, 755877, 756277, 756686, 757076, 757460, 757841, 758216, 758587, 758973, 759365, 759749, 760143, 760527, 760907, 761287, 761663, 762051, 762438]",72,SB,L,R,ITMSR,1.1
2,600,trial,0,36,36,36,trial,"['S', 'S', 'S', 'S', 'S', 'S', 'C', 'C', 'C', 'C', 'C', 'C', 'C', 'C', 'C', 'C', 'C', 'C', 'C', 'C', 'C', 'C']","[769345, 769952, 770594, 771139, 771755, 772348, 772932, 773477, 774034, 774559, 775122, 775662, 776205, 776801, 777365, 777883, 778466, 779036, 779595, 780148, 780676, 781248]","[769403, 770008, 770643, 771189, 771792, 772391, 772971, 773534, 774084, 774619, 775173, 775725, 776265, 776852, 777434, 777948, 778531, 779110, 779652, 780221, 780758, 781324]","[254, 190, 164, 168, 80, 122, 114, 186, 171, 153, 178, 215, 1, 243, 216, 223, 241, 1, 198, 9, 255, 251]","[769351, 769957, 770600, 771146, 771763, 772357, 772939, 773485, 774041, 774568, 775128, 775668, 776212, 776807, 777371, 777888, 778471, 779041, 779601, 780155, 780682, 781254]","[768221, 768820, 769420, 770020, 770620, 771220, 771820, 772420, 772952, 773497, 774054, 774579, 775142, 775682, 776225, 776821, 777385, 777903, 778486, 779056, 779615, 780168, 780696, 781268]",72,SB,L,R,ITMSR,1.1
0,600,trial,0,37,37,37,trial,"['S', 'S', 'S', 'S', 'S', 'S', 'C', 'C', 'C', 'C', 'C', 'C', 'C', 'C', 'C', 'C', 'C', 'C', 'C', 'C', 'C', 'C']","[788023, 788611, 789228, 789844, 790429, 791062, 791644, 792231, 792805, 793405, 794020, 794615, 795174, 795743, 796333, 796914, 797503, 798066, 798672, 799212, 799782, 800351]","[788074, 788672, 789305, 789913, 790508, 791133, 791711, 792295, 792886, 793475, 794088, 794685, 795245, 795802, 796392, 796982, 797562, 798144, 798733, 799295, 799882, 800433]","[140, 4, 15, 6, 7, 16, 34, 20, 214, 196, 31, 25, 254, 19, 27, 170, 218, 251, 240, 235, 227, 240]","[788030, 788615, 789232, 789849, 790434, 791066, 791649, 792237, 792810, 793409, 794024, 794620, 795180, 795746, 796337, 796920, 797508, 798072, 798676, 799216, 799787, 800355]","[786872, 787472, 788072, 788672, 789272, 789872, 790472, 791072, 791664, 792251, 792825, 793425, 794040, 794635, 795194, 795763, 796353, 796934, 797523, 798086, 798692, 799233, 799802, 800371]",72,SB,L,R,ITMSR,1.1
4,400,trial,0,38,38,38,trial,"['S', 'S', 'S', 'S', 'C', 'C', 'C', 'C', 'C', 'C', 'C', 'C', 'C', 'C', 'C', 'C', 'C', 'C', 'C', 'C']","[807625, 808038, 808429, 808866, 809238, 809620, 810035, 810426, 810815, 811189, 811603, 811996, 812365, 812769, 813173, 813549, 813937, 814321, 814715, 815106]","[807693, 808103, 808462, 808895, 809292, 809670, 810083, 810482, 810877, 811253, 811656, 812041, 812421, 812803, 813199, 813570, 813975, 814361, 814749, 815131]","[33, 249, 184, 220, 35, 35, 237, 255, 253, 42, 232, 222, 38, 118, 217, 142, 20, 137, 81, 183]","[807657, 808067, 808435, 808870, 809243, 809624, 810041, 810432, 810820, 811193, 811609, 812001, 812371, 812776, 813179, 813555, 813941, 814328, 814723, 815113]","[806081, 806480, 806880, 807280, 807681, 808080, 808480, 808880, 809259, 809640, 810055, 810446, 810835, 811209, 811623, 812016, 812385, 812789, 813193, 813570, 813957, 814341, 814735, 815126]",72,SB,L,R,ITMSR,1.1
2,600,trial,0,39,39,39,trial,"['S', 'S', 'S', 'S', 'S', 'S', 'S', 'C', 'C', 'C', 'C', 'C', 'C', 'C', 'C', 'C', 'C', 'C', 'C', 'C', 'C', 'C', 'C']","[820858, 821639, 822232, 822834, 823432, 824028, 824616, 825201, 825752, 826307, 826863, 827415, 827987, 828516, 829078, 829634, 830179, 830729, 831267, 831793, 832348, 832922, 833495]","[820916, 821659, 822288, 822875, 823477, 824073, 824663, 825252, 825798, 826358, 826914, 827463, 828041, 828584, 829134, 829687, 830248, 830770, 831327, 831851, 832412, 832978, 833556]","[192, 72, 245, 208, 172, 203, 164, 235, 158, 243, 130, 181, 166, 9, 204, 168, 41, 24, 172, 253, 4, 177, 198]","[820865, 821645, 822239, 822841, 823439, 824034, 824624, 825221, 825759, 826329, 826870, 827438, 827994, 828550, 829104, 829641, 830209, 830737, 831277, 831818, 832380, 832929, 833502]","[820495, 821094, 821694, 822294, 822894, 823494, 824094, 824694, 825221, 825773, 826328, 826883, 827436, 828007, 828536, 829099, 829655, 830199, 830749, 831287, 831813, 832368, 832942, 833515]",72,SB,L,R,ITMSR,1.1
0,400,trial,0,40,40,40,trial,"['S', 'S', 'S', 'S', 'S', 'S', 'C', 'C', 'C', 'C', 'C', 'C', 'C', 'C', 'C', 'C', 'C', 'C', 'C', 'C', 'C', 'C']","[839947, 840347, 840800, 841198, 841581, 841993, 842395, 842818, 843207, 843578, 843966, 844365, 844752, 845163, 845575, 845967, 846366, 846774, 847188, 847595, 848009, 848397]","[840047, 840431, 840878, 841257, 841651, 842068, 842485, 842882, 843264, 843650, 844057, 844440, 844828, 845223, 845631, 846046, 846444, 846833, 847266, 847654, 848059, 848462]","[66, 28, 52, 46, 11, 9, 46, 205, 37, 40, 60, 23, 47, 245, 204, 57, 24, 237, 254, 24, 179, 35]","[839991, 840353, 840834, 841202, 841585, 841998, 842428, 842826, 843212, 843608, 843999, 844371, 844784, 845169, 845582, 846000, 846396, 846803, 847218, 847600, 848016, 848424]","[839215, 839615, 840015, 840415, 840815, 841216, 841615, 842015, 842415, 842839, 843227, 843598, 843986, 844385, 844772, 845184, 845595, 845987, 846386, 846794, 847208, 847616, 848029, 848417]",72,SB,L,R,ITMSR,1.1
3,400,trial,0,41,41,41,trial,"['S', 'S', 'S', 'S', 'S', 'S', 'C', 'C', 'C', 'C', 'C', 'C', 'C', 'C', 'C', 'C', 'C', 'C', 'C', 'C', 'C', 'C']","[854789, 855168, 855576, 856002, 856370, 856790, 857187, 857564, 857953, 858336, 858740, 859136, 859514, 859916, 860315, 860705, 861086, 861476, 861862, 862268, 862643, 863059]","[854842, 855223, 855635, 856071, 856428, 856844, 857249, 857631, 858023, 858405, 858816, 859206, 859584, 859988, 860402, 860787, 861169, 861552, 861941, 862345, 862724, 863137]","[247, 239, 41, 7, 3, 226, 41, 39, 19, 237, 33, 12, 31, 20, 42, 53, 52, 29, 40, 41, 31, 27]","[854795, 855174, 855607, 856008, 856376, 856815, 857216, 857593, 857984, 858364, 858770, 859164, 859542, 859947, 860345, 860738, 861118, 861508, 861895, 862297, 862671, 863092]","[854024, 854423, 854823, 855223, 855623, 856024, 856424, 856824, 857207, 857584, 857973, 858356, 858760, 859156, 859534, 859936, 860335, 860725, 861106, 861496, 861882, 862288, 862663, 863079]",72,SB,L,R,ITMSR,1.1
4,600,trial,0,42,42,42,trial,"['S', 'S', 'S', 'S', 'S', 'S', 'C', 'C', 'C', 'C', 'C', 'C', 'C', 'C', 'C', 'C', 'C', 'C', 'C', 'C', 'C', 'C']","[869574, 870157, 870752, 871363, 871970, 872560, 873124, 873683, 874267, 874855, 875435, 875998, 876577, 877171, 877735, 878305, 878901, 879511, 880103, 880667, 881254, 881824]","[869655, 870225, 870813, 871425, 872041, 872624, 873191, 873893, 874566, 875138, 875689, 876237, 876887, 877518, 878070, 878687, 879237, 879813, 880446, 881020, 881605]","[210, 251, 195, 6, 245, 240, 11, 56, 120, 122, 133, 131, 140, 134, 131, 132, 127, 135, 133, 115, 123]","[869607, 870187, 870758, 871367, 871974, 872564, 873128, 873777, 874389, 874960, 875563, 876114, 876698, 877285, 877864, 878460, 879001, 879645, 880232, 880821, 881469]","[868424, 869024, 869624, 870224, 870824, 871425, 872024, 872624, 873144, 873703, 874287, 874875, 875455, 876018, 876597, 877191, 877755, 878325, 878921, 879532, 880123, 880687, 881274, 881844]",72,SB,L,R,ITMSR,1.1
2,400,trial,0,43,43,43,trial,"['S', 'S', 'S', 'S', 'S', 'S', 'C', 'C', 'C', 'C', 'C', 'C', 'C', 'C', 'C', 'C', 'C', 'C', 'C', 'C', 'C', 'C']","[888231, 888629, 889039, 889468, 889859, 890259, 890663, 891081, 891456, 891843, 892242, 892633, 893038, 893428, 893836, 894231, 894643, 895040, 895431, 895839, 896223, 896646]","[888307, 888685, 889103, 889541, 889929, 890339, 890732, 891142, 891536, 891931, 892313, 892706, 893112, 893514, 893912, 894320, 894739, 895121, 895517, 895924, 896321, 896739]","[208, 250, 22, 36, 26, 18, 46, 32, 29, 34, 9, 22, 19, 41, 22, 39, 59, 4, 28, 17, 12, 15]","[888236, 888635, 889046, 889475, 889863, 890265, 890671, 891086, 891462, 891876, 892272, 892640, 893070, 893460, 893842, 894264, 894679, 895076, 895465, 895872, 896258, 896678]","[887491, 887891, 888291, 888691, 889091, 889491, 889891, 890291, 890683, 891101, 891476, 891864, 892262, 892653, 893058, 893448, 893856, 894252, 894663, 895060, 895451, 895859, 896243, 896666]",72,SB,L,R,ITMSR,1.1
4,600,trial,0,44,44,44,trial,"['S', 'S', 'S', 'S', 'S', 'S', 'C', 'C', 'C', 'C', 'C', 'C', 'C', 'C', 'C', 'C', 'C', 'C', 'C', 'C', 'C', 'C']","[903415, 904011, 904573, 905167, 905736, 906304, 906903, 907456, 908029, 908608, 909195, 909747, 910328, 910955, 911545, 912124, 912697, 913283, 913865, 914405, 915002, 915594]","[903493, 904085, 904645, 905249, 905856, 906394, 907123, 907698, 908328, 908932, 909504, 910085, 910683, 911269, 911845, 912490, 913002, 913588, 914191, 914706, 915329]","[171, 225, 221, 234, 34, 247, 82, 91, 119, 98, 121, 116, 113, 116, 103, 115, 100, 106, 84, 105, 98]","[903421, 904016, 904577, 905172, 905743, 906341, 907008, 907547, 908149, 908743, 909361, 909873, 910466, 911062, 911665, 912243, 912805, 913420, 913958, 914551, 915165]","[902232, 902832, 903432, 904032, 904632, 905232, 905832, 906432, 906924, 907476, 908049, 908628, 909215, 909767, 910348, 910976, 911565, 912144, 912717, 913303, 913885, 914425, 915022, 915614]",72,SB,L,R,ITMSR,1.1
5,400,trial,0,45,45,45,trial,"['S', 'S', 'S', 'S', 'C', 'C', 'C', 'C', 'C', 'C', 'C', 'C', 'C', 'C', 'C', 'C', 'C', 'C', 'C', 'C']","[922551, 922941, 923370, 923773, 924168, 924579, 924913, 925313, 925692, 926094, 926493, 926884, 927268, 927698, 928084, 928490, 928882, 929262, 929651, 930053]","[922663, 923027, 923440, 923851, 924240, 924650, 925012, 925444, 925809, 926175, 926568, 926956, 927365, 927780, 928178, 928562, 928955, 929330, 929698, 930112]","[74, 214, 171, 54, 31, 36, 10, 71, 102, 24, 36, 246, 42, 14, 27, 236, 254, 206, 175, 202]","[922602, 922981, 923409, 923806, 924174, 924584, 924957, 925381, 925740, 926128, 926525, 926918, 927318, 927732, 928140, 928525, 928917, 929268, 929657, 930060]","[921003, 921402, 921802, 922202, 922602, 923002, 923402, 923802, 924188, 924599, 924933, 925333, 925712, 926114, 926513, 926904, 927288, 927718, 928104, 928510, 928902, 929282, 929671, 930073]",72,SB,L,R,ITMSR,1.1
0,600,trial,0,46,46,46,trial,"['S', 'S', 'S', 'S', 'S', 'S', 'C', 'C', 'C', 'C', 'C', 'C', 'C', 'C', 'C', 'C', 'C', 'C', 'C', 'C', 'C', 'C']","[936577, 937158, 937717, 938324, 938918, 939526, 940111, 940656, 941196, 941745, 942262, 942791, 943373, 943921, 944470, 944996, 945529, 946070, 946557, 947093, 947649, 948180]","[936657, 937240, 937786, 938386, 938973, 939599, 940184, 940743, 941276, 941837, 942325, 942897, 943430, 943969, 944507, 945059, 945598, 946139, 946626, 947159, 947718, 948225]","[18, 247, 222, 86, 178, 183, 206, 166, 24, 201, 129, 196, 213, 19, 236, 17, 70, 221, 209, 6, 150, 28]","[936613, 937161, 937722, 938330, 938924, 939532, 940146, 940696, 941198, 941749, 942300, 942834, 943397, 943930, 944490, 945029, 945566, 946100, 946589, 947123, 947682, 948201]","[935416, 936016, 936616, 937217, 937816, 938416, 939016, 939616, 940131, 940676, 941216, 941765, 942282, 942811, 943393, 943941, 944490, 945016, 945549, 946091, 946577, 947113, 947670, 948200]",72,SB,L,R,ITMSR,1.1
1,600,trial,0,47,47,47,trial,"['S', 'S', 'S', 'S', 'S', 'S', 'C', 'C', 'C', 'C', 'C', 'C', 'C', 'C', 'C', 'C', 'C', 'C', 'C', 'C', 'C', 'C']","[955110, 955674, 956258, 956863, 957444, 958060, 958642, 959193, 959758, 960339, 960920, 961488, 962031, 962577, 963156, 963722, 964245, 964838, 965403, 965970, 966518, 967052]","[955173, 955764, 956402, 956969, 957547, 958190, 958817, 959308, 959885, 960457, 961014, 961592, 962145, 962714, 963293, 963851, 964448, 964930, 965501, 966100, 966608, 967217]","[84, 64, 82, 25, 19, 53, 11, 208, 232, 234, 220, 232, 235, 154, 228, 188, 181, 37, 51, 80, 152, 46]","[955119, 955726, 956325, 956923, 957495, 958125, 958751, 959260, 959814, 960402, 960972, 961547, 962075, 962657, 963224, 963792, 964396, 964900, 965465, 966037, 966561, 967100]","[953964, 954564, 955164, 955764, 956364, 956964, 957564, 958164, 958662, 959213, 959778, 960359, 960941, 961508, 962051, 962597, 963176, 963742, 964265, 964858, 965423, 965990, 966538, 967072]",72,SB,L,R,ITMSR,1.1
1,400,trial,0,48,48,48,trial,"['S', 'S', 'S', 'S', 'S', 'S', 'S', 'C', 'C', 'C', 'C', 'C', 'C', 'C', 'C', 'C', 'C', 'C', 'C', 'C', 'C', 'C', 'C']","[973296, 973547, 973941, 974360, 974756, 975144, 975541, 975951, 976324, 977164, 977503, 977882, 978273, 978707, 979110, 979504, 979875, 980274, 980665, 981054, 981456, 981881, 982269]","[973370, 973617, 974018, 974405, 974804, 975195, 975621, 976012, 976400, 977238, 977606, 978028, 978395, 978810, 979221, 979607, 979970, 980385, 980771, 981173, 981554, 981975, 982366]","[45, 137, 137, 147, 243, 193, 210, 240, 115, 243, 17, 33, 139, 31, 60, 118, 3, 15, 68, 115, 22, 134, 4]","[973348, 973583, 973981, 974367, 974783, 975177, 975590, 975988, 976365, 977209, 977554, 977969, 978353, 978757, 979181, 979550, 979880, 980326, 980715, 981111, 981464, 981934, 982276]","[972790, 973189, 973589, 973989, 974389, 974789, 975190, 975589, 975971, 976344, 977184, 977523, 977902, 978293, 978727, 979130, 979524, 979895, 980294, 980685, 981074, 981476, 981901, 982289]",72,SB,L,R,ITMSR,1.1
2,400,trial,0,49,49,49,trial,"['S', 'S', 'S', 'S', 'S', 'S', 'S', 'C', 'C', 'C', 'C', 'C', 'C', 'C', 'C', 'C', 'C', 'C', 'C', 'C', 'C', 'C', 'C']","[988005, 988360, 988766, 989146, 989553, 989927, 990373, 990757, 991131, 991480, 991867, 992238, 992623, 992969, 993323, 993689, 994062, 994421, 994765, 995133, 995481, 995840, 996233]","[988072, 988406, 988805, 989231, 989598, 990004, 990408, 990820, 991210, 991557, 991947, 992316, 992708, 993051, 993394, 993751, 994121, 994458, 994827, 995198, 995548, 995908, 996307]","[53, 174, 204, 64, 31, 27, 80, 227, 236, 253, 250, 181, 11, 14, 244, 62, 15, 27, 41, 145, 105, 129, 195]","[988034, 988380, 988773, 989172, 989569, 989950, 990381, 990777, 991158, 991507, 991897, 992268, 992658, 992994, 993348, 993709, 994083, 994432, 994780, 995156, 995504, 995868, 996259]","[987621, 988021, 988421, 988821, 989221, 989621, 990021, 990422, 990777, 991151, 991500, 991887, 992258, 992643, 992989, 993343, 993709, 994082, 994441, 994785, 995153, 995501, 995860, 996253]",72,SB,L,R,ITMSR,1.1
3,600,trial,0,50,50,50,trial,"['S', 'S', 'S', 'S', 'S', 'S', 'S', 'C', 'C', 'C', 'C', 'C', 'C', 'C', 'C', 'C', 'C', 'C', 'C', 'C', 'C', 'C', 'C']","[1002199, 1002990, 1003636, 1004268, 1004805, 1005346, 1005968, 1006597, 1007183, 1007779, 1008368, 1008929, 1009531, 1010137, 1010717, 1011291, 1011899, 1012518, 1013118, 1013705, 1014308, 1014907, 1015517]","[1002274, 1003067, 1003717, 1004288, 1004900, 1005656, 1006312, 1006927, 1007502, 1008104, 1008719, 1009305, 1009872, 1010482, 1011065, 1011658, 1012239, 1012856, 1013484, 1014059, 1014662, 1015236]","[138, 174, 171, 118, 212, 36, 34, 44, 63, 54, 65, 57, 65, 65, 17, 41, 7, 12, 239, 26, 251, 3]","[1002230, 1003021, 1003672, 1004272, 1004809, 1005553, 1006205, 1006778, 1007389, 1007960, 1008599, 1009159, 1009754, 1010300, 1010890, 1011546, 1012108, 1012726, 1013374, 1013932, 1014535, 1015108]","[1001862, 1002462, 1003062, 1003662, 1004262, 1004862, 1005462, 1006062, 1006617, 1007203, 1007799, 1008388, 1008949, 1009551, 1010157, 1010737, 1011311, 1011919, 1012538, 1013138, 1013725, 1014328, 1014927, 1015537]",72,SB,L,R,ITMSR,1.1
5,600,trial,0,51,51,51,trial,"['B', 'S', 'S', 'S', 'S', 'S', 'S', 'C', 'C', 'C', 'C', 'C', 'C', 'C', 'C', 'C', 'C', 'C', 'C', 'C', 'C', 'C', 'C']","[1021212, 1022394, 1022991, 1023586, 1024175, 1024802, 1025411, 1026001, 1026587, 1027200, 1027812, 1028344, 1028962, 1029588, 1030242, 1030791, 1031388, 1031982, 1032615, 1033210, 1033722, 1034336, 1034944]","[1021592, 1022679, 1023355, 1023959, 1024584, 1025191, 1025741, 1026372, 1026944, 1027599, 1028130, 1028740, 1029308, 1029917, 1030581, 1031148, 1031772, 1032336, 1032892, 1033581, 1034103, 1034651]","[97, 246, 235, 6, 18, 10, 39, 25, 29, 43, 51, 27, 39, 28, 27, 22, 23, 9, 4, 16, 245, 17]","[1021389, 1022555, 1023219, 1023800, 1024405, 1025040, 1025615, 1026295, 1026828, 1027456, 1028063, 1028548, 1029143, 1029796, 1030432, 1031047, 1031639, 1032201, 1032619, 1033523, 1033889, 1034532]","[1021224, 1021825, 1022424, 1023024, 1023624, 1024224, 1024824, 1025424, 1026021, 1026607, 1027220, 1027832, 1028364, 1028982, 1029608, 1030262, 1030811, 1031408, 1032002, 1032635, 1033230, 1033742, 1034356, 1034964]",72,SB,L,R,ITMSR,1.1
4,400,trial,0,52,52,52,trial,"['S', 'S', 'S', 'S', 'S', 'S', 'S', 'C', 'C', 'C', 'C', 'C', 'C', 'C', 'C', 'C', 'C', 'C', 'C', 'C', 'C', 'C', 'C']","[1040715, 1041037, 1041434, 1041813, 1042239, 1042657, 1043092, 1043481, 1043847, 1044215, 1044615, 1045008, 1045445, 1045865, 1046263, 1046695, 1047098, 1047534, 1047971, 1048385, 1048805, 1049219, 1049617]","[1040820, 1041131, 1041518, 1041884, 1042289, 1042711, 1043112, 1043501, 1043892, 1044324, 1044743, 1045211, 1045632, 1046061, 1046493, 1046920, 1047340, 1047766, 1048174, 1048615, 1049033, 1049428, 1049830]","[21, 131, 102, 127, 66, 82, 40, 97, 102, 195, 205, 209, 168, 216, 200, 255, 237, 0, 254, 247, 10, 4, 8]","[1040777, 1041043, 1041473, 1041820, 1042246, 1042662, 1043094, 1043485, 1043851, 1044219, 1044618, 1045012, 1045450, 1045868, 1046405, 1046841, 1047219, 1047657, 1048103, 1048526, 1048943, 1049341, 1049760]","[1040292, 1040692, 1041092, 1041492, 1041892, 1042292, 1042692, 1043092, 1043501, 1043867, 1044235, 1044635, 1045028, 1045465, 1045885, 1046283, 1046715, 1047118, 1047554, 1047991, 1048406, 1048825, 1049239, 1049637]",72,SB,L,R,ITMSR,1.1
0,400,trial,0,53,53,53,trial,"['B', 'S', 'S', 'S', 'S', 'S', 'S', 'S', 'C', 'C', 'C', 'C', 'C', 'C', 'C', 'C', 'C', 'C', 'C', 'C', 'C', 'C', 'C', 'C']","[1055199, 1055571, 1055972, 1056356, 1056762, 1057135, 1057542, 1057956, 1058348, 1058726, 1059139, 1059554, 1059935, 1060316, 1060729, 1061133, 1061513, 1061922, 1062301, 1062723, 1063132, 1063519, 1063909, 1064320]","[1055422, 1055662, 1056041, 1056438, 1056891, 1057296, 1057793, 1058167, 1058546, 1058957, 1059358, 1059750, 1060179, 1060547, 1060964, 1061352, 1061752, 1062140, 1062528, 1062953, 1063355, 1063779, 1064098, 1064561]","[40, 221, 148, 112, 124, 192, 182, 164, 193, 203, 195, 234, 229, 217, 225, 223, 0, 209, 247, 242, 244, 251, 225, 205]","[1055308, 1055617, 1055978, 1056397, 1056769, 1057225, 1057669, 1058056, 1058447, 1058838, 1059250, 1059663, 1060065, 1060457, 1060860, 1061237, 1061653, 1062053, 1062438, 1062849, 1063262, 1063633, 1063989, 1064323]","[1055210, 1055609, 1056009, 1056409, 1056809, 1057209, 1057609, 1058009, 1058368, 1058746, 1059160, 1059574, 1059955, 1060336, 1060749, 1061153, 1061533, 1061942, 1062321, 1062744, 1063152, 1063539, 1063929, 1064340]",72,SB,L,R,ITMSR,1.1
4,600,trial,0,54,54,54,trial,"['S', 'S', 'S', 'S', 'S', 'S', 'S', 'S', 'C', 'C', 'C', 'C', 'C', 'C', 'C', 'C', 'C', 'C', 'C', 'C', 'C', 'C', 'C', 'C']","[1082265, 1082507, 1083129, 1083734, 1084327, 1084928, 1085568, 1086140, 1086756, 1087377, 1087959, 1088556, 1089128, 1089684, 1090291, 1090907, 1091473, 1092112, 1092728, 1093300, 1093898, 1094477, 1095067, 1095632]","[1082377, 1082612, 1083278, 1083851, 1084532, 1085202, 1085822, 1086482, 1087133, 1087670, 1088318, 1088898, 1089506, 1090039, 1090618, 1091263, 1091784, 1092403, 1093025, 1093619, 1094222, 1094828, 1095392]","[156, 66, 185, 144, 133, 102, 125, 224, 229, 218, 226, 234, 210, 224, 215, 221, 240, 191, 206, 177, 200, 147, 148]","[1082334, 1082558, 1083193, 1083800, 1084419, 1084932, 1085703, 1086324, 1087015, 1087531, 1088202, 1088794, 1089377, 1089907, 1090541, 1091086, 1091653, 1092280, 1092907, 1093479, 1094099, 1094708, 1095287]","[1082019, 1082619, 1083219, 1083820, 1084419, 1085019, 1085619, 1086219, 1086776, 1087397, 1087979, 1088576, 1089148, 1089704, 1090311, 1090927, 1091493, 1092132, 1092748, 1093320, 1093918, 1094497, 1095087, 1095652]",72,SB,L,R,ITMSR,1.1
0,600,trial,0,55,55,55,trial,"['S', 'S', 'S', 'S', 'S', 'S', 'S', 'C', 'C', 'C', 'C', 'C', 'C', 'C', 'C', 'C', 'C', 'C', 'C', 'C', 'C', 'C', 'C']","[1101775, 1102406, 1103030, 1103611, 1104233, 1104838, 1105455, 1106040, 1106637, 1107237, 1107835, 1108440, 1109048, 1109620, 1110217, 1110821, 1111418, 1112016, 1112613, 1113197, 1113800, 1114421, 1115019]","[1101905, 1102696, 1103325, 1103890, 1104550, 1105148, 1105734, 1106358, 1106994, 1107574, 1108101, 1108737, 1109389, 1109945, 1110540, 1111215, 1111837, 1112359, 1112956, 1113565, 1114143, 1114720]","[175, 245, 45, 68, 37, 2, 3, 244, 230, 220, 249, 231, 210, 21, 9, 1, 21, 32, 30, 41, 24, 35]","[1101844, 1102492, 1103033, 1103768, 1104378, 1104948, 1105579, 1106043, 1106797, 1107401, 1107970, 1108586, 1109200, 1109805, 1110408, 1111019, 1111608, 1112204, 1112806, 1113430, 1113998, 1114562]","[1101280, 1101880, 1102480, 1103080, 1103680, 1104280, 1104880, 1105480, 1106060, 1106657, 1107257, 1107855, 1108460, 1109068, 1109640, 1110237, 1110841, 1111438, 1112036, 1112633, 1113218, 1113820, 1114441, 1115039]",72,SB,L,R,ITMSR,1.1
4,400,trial,0,56,56,56,trial,"['S', 'S', 'S', 'S', 'C', 'C', 'C', 'C', 'C', 'C', 'C', 'C', 'C', 'C', 'C', 'C', 'C', 'C', 'C', 'C']","[1122000, 1122402, 1122838, 1123232, 1123663, 1124056, 1124461, 1124860, 1125297, 1125699, 1126093, 1126507, 1126915, 1127305, 1127740, 1128146, 1128542, 1128949, 1129354, 1129773]","[1122089, 1122499, 1122913, 1123312, 1123733, 1124141, 1124553, 1124940, 1125340, 1125758, 1126153, 1126584, 1126989, 1127402, 1127844, 1128254, 1128649, 1129040, 1129511, 1129906]","[209, 252, 150, 203, 202, 241, 216, 204, 159, 148, 238, 237, 242, 249, 6, 246, 250, 5, 59, 8]","[1122044, 1122405, 1122842, 1123236, 1123666, 1124060, 1124465, 1124865, 1125301, 1125704, 1126097, 1126510, 1126919, 1127309, 1127743, 1128150, 1128545, 1128953, 1129357, 1129776]","[1120473, 1120873, 1121273, 1121673, 1122073, 1122473, 1122873, 1123273, 1123683, 1124076, 1124482, 1124880, 1125317, 1125720, 1126113, 1126528, 1126935, 1127325, 1127760, 1128166, 1128562, 1128969, 1129374, 1129793]",72,SB,L,R,ITMSR,1.1
4,600,trial,0,57,57,57,trial,"['S', 'S', 'S', 'S', 'S', 'S', 'C', 'C', 'C', 'C', 'C', 'C', 'C', 'C', 'C', 'C', 'C', 'C', 'C', 'C', 'C', 'C']","[1136305, 1136931, 1137478, 1138055, 1138610, 1139240, 1139843, 1140421, 1141000, 1141597, 1142147, 1142734, 1143301, 1143876, 1144451, 1145033, 1145600, 1146178, 1146778, 1147374, 1147945, 1148509]","[1136371, 1137046, 1137594, 1138206, 1138796, 1139402, 1139985, 1140623, 1141216, 1141836, 1142353, 1142968, 1143515, 1144107, 1144682, 1145333, 1145874, 1146512, 1147038, 1147658, 1148249]","[29, 161, 207, 199, 229, 157, 197, 239, 249, 228, 220, 246, 219, 228, 217, 215, 149, 218, 174, 194, 206]","[1136310, 1136936, 1137481, 1138059, 1138715, 1139245, 1139846, 1140425, 1141003, 1141600, 1142150, 1142737, 1143428, 1143995, 1144556, 1145158, 1145739, 1146181, 1146906, 1147378, 1148152]","[1135135, 1135735, 1136335, 1136935, 1137536, 1138136, 1138736, 1139336, 1139863, 1140441, 1141020, 1141617, 1142167, 1142754, 1143321, 1143896, 1144471, 1145053, 1145620, 1146199, 1146798, 1147394, 1147965, 1148529]",72,SB,L,R,ITMSR,1.1
0,600,trial,0,58,58,58,trial,"['S', 'S', 'S', 'S', 'S', 'S', 'S', 'C', 'C', 'C', 'C', 'C', 'C', 'C', 'C', 'C', 'C', 'C', 'C', 'C', 'C', 'C', 'C']","[1154388, 1155057, 1155692, 1156353, 1156894, 1157535, 1158111, 1158734, 1159331, 1159909, 1160446, 1161039, 1161605, 1162223, 1162785, 1163319, 1163864, 1164456, 1165082, 1165619, 1166193, 1166750, 1167287]","[1154506, 1155148, 1155846, 1156460, 1157050, 1157641, 1158216, 1158844, 1159428, 1160025, 1160609, 1161255, 1161781, 1162355, 1163017, 1163553, 1164190, 1164821, 1165341, 1165835, 1166568, 1167014, 1167501]","[149, 18, 82, 103, 132, 50, 88, 33, 19, 13, 31, 248, 244, 209, 3, 237, 190, 14, 209, 2, 246, 238, 228]","[1154443, 1155063, 1155697, 1156412, 1156978, 1157539, 1158116, 1158739, 1159339, 1159914, 1160453, 1161046, 1161711, 1162296, 1162889, 1163435, 1163970, 1164567, 1165176, 1165739, 1166302, 1166888, 1167419]","[1153952, 1154552, 1155152, 1155752, 1156353, 1156952, 1157552, 1158152, 1158754, 1159351, 1159929, 1160466, 1161059, 1161625, 1162243, 1162805, 1163339, 1163884, 1164476, 1165102, 1165639, 1166213, 1166770, 1167307]",72,SB,L,R,ITMSR,1.1
2,600,trial,0,59,59,59,trial,"['S', 'S', 'S', 'S', 'S', 'C', 'C', 'C', 'C', 'C', 'C', 'C', 'C', 'C', 'C', 'C', 'C', 'C', 'C', 'C', 'C']","[1174868, 1175499, 1176017, 1176652, 1177249, 1177842, 1178444, 1179005, 1179558, 1180130, 1180680, 1181263, 1181850, 1182422, 1183029, 1183580, 1184209, 1184770, 1185334, 1185936, 1186485]","[1175032, 1175636, 1176128, 1176774, 1177349, 1177940, 1178540, 1179111, 1179668, 1180237, 1180790, 1181403, 1181980, 1182602, 1183156, 1183719, 1184359, 1184961, 1185538, 1186127, 1186711]","[46, 26, 160, 169, 224, 5, 7, 228, 239, 192, 222, 233, 31, 54, 20, 10, 22, 27, 40, 206, 17]","[1174872, 1175502, 1176022, 1176657, 1177253, 1177846, 1178448, 1179011, 1179564, 1180135, 1180685, 1181267, 1181854, 1182496, 1183034, 1183652, 1184293, 1184887, 1185337, 1185940, 1186591]","[1173085, 1173685, 1174285, 1174885, 1175485, 1176085, 1176685, 1177285, 1177862, 1178464, 1179025, 1179578, 1180150, 1180700, 1181283, 1181870, 1182442, 1183049, 1183600, 1184229, 1184790, 1185354, 1185956, 1186505]",72,SB,L,R,ITMSR,1.1
5,400,trial,0,60,60,60,trial,"['S', 'S', 'S', 'S', 'S', 'S', 'C', 'C', 'C', 'C', 'C', 'C', 'C', 'C', 'C', 'C', 'C', 'C', 'C', 'C', 'C', 'C']","[1192806, 1193195, 1193579, 1193997, 1194409, 1194806, 1195195, 1195558, 1195947, 1196334, 1196726, 1197134, 1197507, 1197883, 1198282, 1198693, 1199087, 1199451, 1199839, 1200217, 1200609, 1200996]","[1192884, 1193324, 1193712, 1194147, 1194523, 1194933, 1195215, 1195695, 1196100, 1196480, 1196883, 1197288, 1197654, 1198025, 1198418, 1198823, 1199239, 1199606, 1200000, 1200398, 1200782, 1201141]","[104, 37, 132, 145, 126, 181, 167, 46, 220, 202, 231, 247, 230, 165, 170, 214, 224, 160, 143, 198, 228, 188]","[1192868, 1193200, 1193643, 1194073, 1194415, 1194812, 1195200, 1195563, 1195952, 1196339, 1196732, 1197139, 1197512, 1197887, 1198286, 1198697, 1199091, 1199455, 1199844, 1200222, 1200705, 1201001]","[1192071, 1192471, 1192871, 1193271, 1193671, 1194072, 1194472, 1194872, 1195215, 1195578, 1195967, 1196354, 1196746, 1197154, 1197528, 1197903, 1198302, 1198713, 1199107, 1199471, 1199859, 1200237, 1200629, 1201016]",72,SB,L,R,ITMSR,1.1
2,400,trial,0,61,61,61,trial,"['S', 'S', 'S', 'S', 'S', 'S', 'C', 'C', 'C', 'C', 'C', 'C', 'C', 'C', 'C', 'C', 'C', 'C', 'C', 'C', 'C', 'C']","[1207453, 1207864, 1208237, 1208623, 1209012, 1209412, 1209846, 1210251, 1210609, 1210995, 1211393, 1211795, 1212172, 1212631, 1213004, 1213373, 1213767, 1214148, 1214530, 1214937, 1215354, 1215732]","[1207549, 1207884, 1208297, 1208693, 1209115, 1209510, 1209982, 1210347, 1210752, 1211163, 1211581, 1211944, 1212375, 1212819, 1213202, 1213537, 1213916, 1214288, 1214709, 1215110, 1215493, 1215938]","[251, 215, 123, 110, 154, 129, 160, 126, 186, 243, 8, 191, 122, 46, 138, 33, 47, 15, 131, 52, 29, 132]","[1207501, 1207867, 1208284, 1208627, 1209078, 1209449, 1209849, 1210307, 1210690, 1211090, 1211486, 1211878, 1212280, 1212723, 1213120, 1213464, 1213853, 1214221, 1214622, 1215005, 1215358, 1215861]","[1206695, 1207095, 1207495, 1207896, 1208296, 1208696, 1209096, 1209496, 1209866, 1210271, 1210629, 1211015, 1211413, 1211815, 1212192, 1212651, 1213024, 1213393, 1213787, 1214168, 1214551, 1214957, 1215374, 1215752]",72,SB,L,R,ITMSR,1.1
0,400,trial,0,62,62,62,trial,"['S', 'S', 'S', 'S', 'S', 'S', 'C', 'C', 'C', 'C', 'C', 'C', 'C', 'C', 'C', 'C', 'C', 'C', 'C', 'C', 'C', 'C']","[1221927, 1222276, 1222684, 1223139, 1223479, 1223889, 1224301, 1224677, 1225076, 1225467, 1225845, 1226224, 1226632, 1227021, 1227388, 1227767, 1228141, 1228541, 1228859, 1229286, 1229705, 1230006]","[1222017, 1222389, 1222759, 1223181, 1223577, 1223963, 1224404, 1224809, 1225182, 1225566, 1225971, 1226358, 1226775, 1227152, 1227505, 1227859, 1228262, 1228630, 1229015, 1229385, 1229792, 1230170]","[191, 243, 179, 184, 189, 158, 198, 228, 162, 178, 203, 150, 188, 162, 182, 113, 141, 77, 90, 88, 160, 160]","[1221981, 1222280, 1222685, 1223144, 1223481, 1223892, 1224306, 1224742, 1225139, 1225473, 1225849, 1226297, 1226706, 1227091, 1227458, 1227825, 1228224, 1228569, 1228959, 1229313, 1229725, 1230097]","[1221176, 1221576, 1221976, 1222376, 1222776, 1223176, 1223576, 1223976, 1224322, 1224697, 1225096, 1225487, 1225865, 1226244, 1226652, 1227041, 1227408, 1227787, 1228162, 1228561, 1228879, 1229306, 1229725, 1230026]",72,SB,L,R,ITMSR,1.1
1,400,trial,0,63,63,63,trial,"['S', 'S', 'S', 'S', 'S', 'S', 'C', 'C', 'C', 'C', 'C', 'C', 'C', 'C', 'C', 'C', 'C', 'C', 'C', 'C', 'C', 'C']","[1236210, 1236632, 1237021, 1237416, 1237835, 1238216, 1238615, 1239013, 1239397, 1239802, 1240196, 1240591, 1240953, 1241339, 1241716, 1242103, 1242491, 1242910, 1243301, 1243649, 1244028, 1244438]","[1236230, 1236724, 1237092, 1237451, 1237872, 1238274, 1238661, 1239076, 1239465, 1239854, 1240216, 1240634, 1240990, 1241389, 1241779, 1242175, 1242558, 1242931, 1243345, 1243718, 1244101, 1244486]","[137, 200, 0, 70, 155, 93, 212, 162, 148, 183, 172, 128, 118, 122, 120, 79, 85, 18, 223, 78, 242, 101]","[1236212, 1236637, 1237055, 1237423, 1237841, 1238222, 1238618, 1239017, 1239402, 1239805, 1240202, 1240595, 1240956, 1241345, 1241720, 1242109, 1242497, 1242914, 1243308, 1243655, 1244035, 1244443]","[1235465, 1235865, 1236265, 1236665, 1237065, 1237465, 1237865, 1238265, 1238635, 1239033, 1239417, 1239822, 1240216, 1240611, 1240973, 1241359, 1241736, 1242123, 1242511, 1242930, 1243321, 1243669, 1244048, 1244459]",72,SB,L,R,ITMSR,1.1
1,600,trial,0,64,64,64,trial,"['S', 'S', 'S', 'S', 'S', 'S', 'S', 'C', 'C', 'C', 'C', 'C', 'C', 'C', 'C', 'C', 'C', 'C', 'C', 'C', 'C', 'C', 'C']","[1250613, 1251320, 1251957, 1252539, 1253099, 1253709, 1254311, 1254916, 1255501, 1256082, 1256678, 1257262, 1257845, 1258417, 1259029, 1259607, 1260213, 1260819, 1261408, 1262004, 1262572, 1263144, 1263727]","[1250745, 1251462, 1252142, 1252809, 1253421, 1254027, 1254653, 1255270, 1255828, 1256408, 1257029, 1257569, 1258167, 1258740, 1259347, 1259939, 1260545, 1261129, 1261725, 1262330, 1262886, 1263508]","[21, 89, 69, 143, 156, 160, 164, 165, 157, 165, 163, 179, 178, 171, 152, 152, 144, 150, 132, 136, 142, 136]","[1250647, 1251381, 1252036, 1252646, 1253221, 1253847, 1254456, 1255042, 1255615, 1256189, 1256818, 1257389, 1257954, 1258572, 1259152, 1259748, 1260369, 1260924, 1261510, 1262096, 1262688, 1263254]","[1250206, 1250806, 1251406, 1252006, 1252606, 1253207, 1253806, 1254406, 1254936, 1255521, 1256102, 1256698, 1257282, 1257865, 1258437, 1259049, 1259627, 1260233, 1260839, 1261428, 1262024, 1262593, 1263164, 1263747]",72,SB,L,R,ITMSR,1.1
3,400,trial,0,65,65,65,trial,"['S', 'S', 'S', 'S', 'C', 'C', 'C', 'C', 'C', 'C', 'C', 'C', 'C', 'C', 'C', 'C', 'C', 'C', 'C', 'C']","[1270955, 1271364, 1271799, 1272209, 1272578, 1272988, 1273383, 1273779, 1274169, 1274575, 1274978, 1275366, 1275767, 1276172, 1276559, 1276957, 1277340, 1277745, 1278143, 1278501]","[1271084, 1271552, 1271993, 1272383, 1272762, 1273201, 1273569, 1273963, 1274349, 1274741, 1275134, 1275540, 1275951, 1276323, 1276783, 1277155, 1277538, 1277932, 1278342, 1278720]","[38, 114, 89, 87, 125, 117, 119, 124, 102, 113, 109, 115, 124, 94, 128, 126, 131, 126, 137, 116]","[1271024, 1271429, 1271802, 1272213, 1272665, 1273086, 1273468, 1273867, 1274243, 1274657, 1275060, 1275370, 1275857, 1276249, 1276653, 1277044, 1277434, 1277828, 1278237, 1278608]","[1269420, 1269818, 1270218, 1270618, 1271018, 1271418, 1271818, 1272218, 1272598, 1273008, 1273403, 1273799, 1274189, 1274595, 1274998, 1275386, 1275787, 1276192, 1276579, 1276977, 1277360, 1277765, 1278163, 1278521]",72,SB,L,R,ITMSR,1.1
1,400,trial,0,66,66,66,trial,"['S', 'S', 'S', 'S', 'C', 'C', 'C', 'C', 'C', 'C', 'C', 'C', 'C', 'C', 'C', 'C', 'C', 'C', 'C', 'C']","[1285619, 1286077, 1286459, 1286841, 1287263, 1287690, 1288113, 1288514, 1288907, 1289319, 1289712, 1290122, 1290522, 1290911, 1291286, 1291675, 1292108, 1292529, 1292943, 1293331]","[1285822, 1286238, 1286619, 1287033, 1287459, 1287828, 1288294, 1288684, 1289097, 1289470, 1289904, 1290296, 1290722, 1291107, 1291466, 1291875, 1292279, 1292675, 1293104, 1293518]","[145, 96, 114, 127, 128, 99, 89, 100, 129, 111, 126, 130, 118, 123, 96, 126, 116, 105, 90, 102]","[1285687, 1286079, 1286462, 1286844, 1287343, 1287693, 1288115, 1288517, 1288987, 1289322, 1289715, 1290213, 1290606, 1290993, 1291355, 1291769, 1292112, 1292608, 1292946, 1293424]","[1284073, 1284473, 1284873, 1285273, 1285673, 1286073, 1286473, 1286873, 1287283, 1287710, 1288133, 1288535, 1288927, 1289339, 1289732, 1290142, 1290542, 1290931, 1291307, 1291695, 1292128, 1292549, 1292963, 1293351]",72,SB,L,R,ITMSR,1.1
5,600,trial,0,67,67,67,trial,"['S', 'S', 'S', 'S', 'S', 'S', 'S', 'S', 'C', 'C', 'C', 'C', 'C', 'C', 'C', 'C', 'C', 'C', 'C', 'C', 'C', 'C', 'C', 'C']","[1298987, 1299317, 1299895, 1300497, 1301091, 1301737, 1302355, 1302923, 1303508, 1304101, 1304696, 1305291, 1305897, 1306473, 1307004, 1307618, 1308193, 1308787, 1309432, 1309968, 1310509, 1311083, 1311684, 1312249]","[1299119, 1299570, 1300189, 1300777, 1301416, 1302017, 1302607, 1303197, 1303828, 1304396, 1305005, 1305597, 1306220, 1306811, 1307382, 1307948, 1308526, 1309073, 1309737, 1310273, 1310795, 1311411, 1312016]","[247, 114, 187, 239, 22, 246, 34, 255, 20, 20, 253, 22, 249, 19, 223, 255, 24, 23, 31, 242, 255, 25, 26]","[1299068, 1299445, 1299956, 1300640, 1301190, 1301740, 1302360, 1303061, 1303512, 1304105, 1304856, 1305394, 1305902, 1306477, 1307211, 1307622, 1308351, 1308791, 1309627, 1310120, 1310654, 1311288, 1311892]","[1298749, 1299349, 1299949, 1300549, 1301149, 1301749, 1302349, 1302949, 1303528, 1304121, 1304716, 1305311, 1305917, 1306493, 1307024, 1307638, 1308213, 1308807, 1309452, 1309988, 1310529, 1311104, 1311704, 1312269]",72,SB,L,R,ITMSR,1.1
2,600,trial,0,68,68,68,trial,"['S', 'S', 'S', 'S', 'S', 'S', 'S', 'C', 'C', 'C', 'C', 'C', 'C', 'C', 'C', 'C', 'C', 'C', 'C', 'C', 'C', 'C', 'C']","[1318119, 1318742, 1319355, 1319969, 1320562, 1321170, 1321781, 1322401, 1322993, 1323584, 1324184, 1324798, 1325373, 1325947, 1326558, 1327150, 1327751, 1328372, 1328995, 1329592, 1330202, 1330793, 1331392]","[1318233, 1319012, 1319580, 1320241, 1320866, 1321467, 1322077, 1322735, 1323296, 1323883, 1324483, 1325122, 1325680, 1326284, 1326853, 1327444, 1328035, 1328632, 1329244, 1329855, 1330492, 1331052]","[144, 212, 250, 45, 76, 60, 65, 66, 64, 65, 57, 19, 13, 24, 72, 77, 55, 51, 52, 63, 69, 99]","[1318124, 1318845, 1319459, 1320072, 1320652, 1321271, 1321912, 1322557, 1323114, 1323708, 1324322, 1324803, 1325547, 1326134, 1326708, 1327303, 1327891, 1328516, 1329138, 1329596, 1330305, 1330912]","[1317670, 1318270, 1318871, 1319470, 1320070, 1320670, 1321270, 1321870, 1322421, 1323013, 1323604, 1324205, 1324818, 1325393, 1325967, 1326578, 1327170, 1327771, 1328392, 1329015, 1329612, 1330222, 1330813, 1331412]",72,SB,L,R,ITMSR,1.1
3,600,trial,0,69,69,69,trial,"['S', 'S', 'S', 'S', 'S', 'S', 'C', 'C', 'C', 'C', 'C', 'C', 'C', 'C', 'C', 'C', 'C', 'C', 'C', 'C', 'C', 'C']","[1338265, 1338871, 1339453, 1340051, 1340660, 1341266, 1341839, 1342388, 1342965, 1343525, 1344107, 1344684, 1345251, 1345821, 1346394, 1346963, 1347548, 1348127, 1348709, 1349285, 1349843, 1350521]","[1338480, 1339152, 1339752, 1340351, 1340981, 1341591, 1342133, 1342703, 1343341, 1343852, 1344595, 1345011, 1345643, 1346183, 1346765, 1347306, 1347928, 1348538, 1349094, 1349673, 1350302]","[193, 252, 239, 253, 11, 239, 169, 175, 156, 126, 131, 173, 90, 99, 166, 191, 179, 212, 211, 198, 140]","[1338365, 1338998, 1339457, 1340054, 1340663, 1341271, 1341974, 1342539, 1343108, 1343686, 1344262, 1344849, 1345346, 1345950, 1346399, 1347171, 1347664, 1348295, 1348940, 1349542, 1350041]","[1337114, 1337714, 1338314, 1338914, 1339514, 1340114, 1340715, 1341314, 1341859, 1342408, 1342985, 1343545, 1344128, 1344704, 1345271, 1345841, 1346414, 1346983, 1347568, 1348147, 1348729, 1349305, 1349863, 1350541]",72,SB,L,R,ITMSR,1.1
5,400,trial,0,70,70,70,trial,"['S', 'S', 'S', 'S', 'S', 'S', 'C', 'C', 'C', 'C', 'C', 'C', 'C', 'C', 'C', 'C', 'C', 'C', 'C', 'C', 'C', 'C']","[1356856, 1357297, 1357707, 1358106, 1358495, 1358910, 1359316, 1359747, 1360185, 1360608, 1361001, 1361438, 1361871, 1362280, 1362681, 1363100, 1363525, 1363918, 1364348, 1364758, 1365159, 1365590]","[1356953, 1357366, 1357771, 1358163, 1358607, 1359046, 1359543, 1359977, 1360411, 1360818, 1361248, 1361669, 1362075, 1362512, 1362909, 1363355, 1363731, 1364206, 1364564, 1365024, 1365438]","[5, 63, 243, 241, 116, 67, 116, 103, 129, 101, 139, 135, 134, 140, 141, 147, 151, 215, 163, 156, 175]","[1356922, 1357335, 1357748, 1358144, 1358565, 1358996, 1359456, 1359876, 1360313, 1360722, 1361160, 1361563, 1361991, 1362403, 1362797, 1363249, 1363651, 1364104, 1364486, 1364895, 1365328]","[1356160, 1356559, 1356959, 1357359, 1357759, 1358159, 1358559, 1358959, 1359336, 1359767, 1360205, 1360628, 1361021, 1361458, 1361891, 1362300, 1362701, 1363120, 1363545, 1363938, 1364368, 1364779, 1365179, 1365610]",72,SB,L,R,ITMSR,1.1
4,400,trial,0,71,71,71,trial,"['S', 'S', 'S', 'S', 'S', 'S', 'C', 'C', 'C', 'C', 'C', 'C', 'C', 'C', 'C', 'C', 'C', 'C', 'C', 'C', 'C', 'C']","[1371659, 1372104, 1372503, 1372888, 1373277, 1373699, 1374088, 1374476, 1374923, 1375645, 1375970, 1376301, 1376676, 1377058, 1377433, 1377838, 1378225, 1378598, 1379007, 1379376, 1379816, 1380218]","[1371747, 1372181, 1372585, 1372937, 1373297, 1373784, 1374212, 1374509, 1374943, 1375738, 1376044, 1376450, 1376762, 1377180, 1377517, 1377905, 1378316, 1378736, 1379104, 1379530, 1379934, 1380349]","[68, 152, 243, 82, 63, 146, 235, 136, 39, 187, 223, 126, 204, 1, 144, 117, 64, 86, 47, 80, 63, 4]","[1371710, 1372109, 1372508, 1372894, 1373280, 1373735, 1374093, 1374493, 1374927, 1375704, 1376008, 1376380, 1376683, 1377062, 1377479, 1377878, 1378230, 1378603, 1379010, 1379459, 1379820, 1380288]","[1370960, 1371360, 1371760, 1372161, 1372560, 1372960, 1373360, 1373760, 1374108, 1374496, 1374943, 1375665, 1375990, 1376321, 1376696, 1377078, 1377453, 1377858, 1378245, 1378618, 1379027, 1379396, 1379836, 1380238]",72,SB,L,R,ITMSR,1.1
5,600,trial,0,72,72,72,trial,"['S', 'S', 'S', 'S', 'S', 'S', 'C', 'C', 'C', 'C', 'C', 'C', 'C', 'C', 'C', 'C', 'C', 'C', 'C', 'C', 'C', 'C']","[1386781, 1387395, 1388004, 1388590, 1389184, 1389793, 1390394, 1390978, 1391582, 1392185, 1392765, 1393354, 1393937, 1394514, 1395102, 1395682, 1396235, 1396795, 1397368, 1397962, 1398552, 1399134]","[1387010, 1387638, 1388255, 1388850, 1389468, 1390117, 1390761, 1391318, 1391903, 1392533, 1393116, 1393696, 1394305, 1394928, 1395482, 1396061, 1396640, 1397249, 1397747, 1398355, 1398905]","[156, 114, 225, 176, 192, 254, 201, 206, 204, 214, 204, 217, 166, 170, 181, 179, 189, 184, 187, 202, 188]","[1386893, 1387497, 1388147, 1388750, 1389312, 1389958, 1390575, 1391175, 1391771, 1392384, 1392930, 1393526, 1394141, 1394740, 1395379, 1395838, 1396410, 1397015, 1397593, 1398212, 1398846]","[1385661, 1386261, 1386861, 1387461, 1388061, 1388661, 1389261, 1389861, 1390414, 1390998, 1391602, 1392205, 1392785, 1393374, 1393957, 1394534, 1395122, 1395702, 1396255, 1396815, 1397388, 1397982, 1398573, 1399154]",72,SB,L,R,ITMSR,1.1
0,400,trial,0,73,73,73,trial,"['B', 'S', 'S', 'S', 'S', 'S', 'S', 'C', 'C', 'C', 'C', 'C', 'C', 'C', 'C', 'C', 'C', 'C', 'C', 'C', 'C', 'C', 'C']","[1404672, 1405405, 1405826, 1406242, 1406630, 1407045, 1407448, 1407840, 1408216, 1408593, 1408971, 1409375, 1409764, 1410132, 1410545, 1410977, 1411374, 1411768, 1412151, 1412580, 1412937, 1413339, 1413621]","[1405197, 1405498, 1405910, 1406348, 1406718, 1407134, 1407555, 1407949, 1408320, 1408692, 1409078, 1409507, 1409909, 1410335, 1410770, 1411148, 1411577, 1411926, 1412401, 1412721, 1413167, 1413431]","[195, 224, 168, 220, 83, 53, 220, 134, 244, 63, 239, 204, 188, 233, 212, 157, 212, 123, 113, 117, 20, 244]","[1405111, 1405411, 1405876, 1406245, 1406635, 1407049, 1407452, 1407844, 1408220, 1408646, 1408975, 1409380, 1409769, 1410220, 1410666, 1411070, 1411460, 1411850, 1412250, 1412666, 1413057, 1413395]","[1404683, 1405083, 1405484, 1405883, 1406283, 1406683, 1407083, 1407483, 1407860, 1408236, 1408613, 1408991, 1409395, 1409784, 1410152, 1410565, 1410997, 1411394, 1411788, 1412171, 1412600, 1412957, 1413359, 1413641]",72,SB,L,R,ITMSR,1.1
2,400,trial,0,74,74,74,trial,"['S', 'S', 'S', 'S', 'S', 'S', 'C', 'C', 'C', 'C', 'C', 'C', 'C', 'C', 'C', 'C', 'C', 'C', 'C', 'C', 'C', 'C']","[1419757, 1420193, 1420601, 1421049, 1421461, 1421870, 1422257, 1422615, 1423003, 1423399, 1423794, 1424193, 1424596, 1424989, 1425396, 1425786, 1426183, 1426562, 1426957, 1427396, 1427803, 1428184]","[1419872, 1420275, 1420677, 1421106, 1421485, 1421918, 1422290, 1422654, 1423056, 1423444, 1423859, 1424247, 1424641, 1425054, 1425416, 1425837, 1426242, 1426600, 1426993, 1427425, 1427823, 1428225]","[214, 88, 243, 194, 107, 112, 162, 174, 144, 185, 30, 212, 221, 242, 37, 193, 33, 64, 23, 137, 235, 213]","[1419810, 1420199, 1420607, 1421053, 1421466, 1421876, 1422262, 1422620, 1423007, 1423406, 1423799, 1424199, 1424603, 1424994, 1425401, 1425794, 1426216, 1426567, 1426961, 1427401, 1427806, 1428187]","[1419084, 1419484, 1419884, 1420284, 1420684, 1421084, 1421485, 1421885, 1422277, 1422636, 1423023, 1423419, 1423814, 1424214, 1424616, 1425009, 1425416, 1425806, 1426203, 1426582, 1426977, 1427416, 1427823, 1428204]",72,SB,L,R,ITMSR,1.1
3,600,trial,0,75,75,75,trial,"['S', 'S', 'S', 'S', 'S', 'S', 'C', 'C', 'C', 'C', 'C', 'C', 'C', 'C', 'C', 'C', 'C', 'C', 'C', 'C', 'C', 'C', 'C']","[1435134, 1435695, 1436276, 1436898, 1437471, 1438035, 1438665, 1439201, 1439756, 1440284, 1440851, 1441402, 1441950, 1442490, 1443100, 1443662, 1444165, 1444736, 1444946, 1445484, 1446057, 1446572, 1447123]","[1435301, 1435917, 1436549, 1437174, 1437776, 1438386, 1438947, 1439428, 1439992, 1440533, 1441075, 1441649, 1442213, 1442779, 1443462, 1443974, 1444572, 1444794, 1445351, 1445571, 1446305, 1446726, 1447294]","[89, 157, 169, 63, 115, 79, 81, 18, 7, 1, 82, 191, 242, 217, 149, 148, 89, 243, 200, 92, 5, 193, 43]","[1435219, 1435801, 1436414, 1437046, 1437611, 1438216, 1438807, 1439351, 1439928, 1440387, 1440990, 1441565, 1442116, 1442653, 1443258, 1443796, 1444328, 1444766, 1445316, 1445532, 1446185, 1446653, 1447238]","[1433960, 1434560, 1435160, 1435760, 1436360, 1436960, 1437560, 1438160, 1438685, 1439221, 1439776, 1440304, 1440871, 1441422, 1441970, 1442510, 1443120, 1443682, 1444185, 1444756, 1445505, 1446077, 1446592, 1447143]",72,SB,L,R,ITMSR,1.1
3,400,trial,0,76,76,76,trial,"['S', 'S', 'S', 'S', 'S', 'S', 'C', 'C', 'C', 'C', 'C', 'C', 'C', 'C', 'C', 'C', 'C', 'C', 'C', 'C', 'C', 'C']","[1453248, 1453647, 1454068, 1454446, 1454875, 1455287, 1455670, 1456045, 1456424, 1456818, 1457207, 1457620, 1458019, 1458434, 1458832, 1459250, 1459651, 1460054, 1460482, 1460892, 1461285, 1461715]","[1453327, 1453732, 1454163, 1454572, 1455007, 1455381, 1455779, 1456134, 1456508, 1456941, 1457350, 1457734, 1458134, 1458541, 1458934, 1459347, 1459749, 1460162, 1460573, 1460994, 1461390, 1461823]","[50, 30, 207, 69, 32, 30, 34, 2, 179, 141, 184, 142, 130, 118, 130, 103, 114, 178, 140, 213, 232, 248]","[1453251, 1453651, 1454072, 1454450, 1454879, 1455293, 1455675, 1456050, 1456430, 1456824, 1457213, 1457627, 1458026, 1458441, 1458838, 1459255, 1459658, 1460059, 1460487, 1460898, 1461292, 1461722]","[1452480, 1452879, 1453279, 1453679, 1454080, 1454479, 1454879, 1455279, 1455690, 1456065, 1456444, 1456838, 1457227, 1457640, 1458039, 1458454, 1458852, 1459270, 1459672, 1460074, 1460502, 1460912, 1461305, 1461735]",72,SB,L,R,ITMSR,1.1
1,600,trial,0,77,77,77,trial,"['S', 'S', 'S', 'S', 'S', 'S', 'C', 'C', 'C', 'C', 'C', 'C', 'C', 'C', 'C', 'C', 'C', 'C', 'C', 'C', 'C', 'C']","[1468277, 1468859, 1469474, 1470063, 1470648, 1471245, 1471813, 1472360, 1472917, 1473494, 1474082, 1474652, 1475219, 1475799, 1476348, 1476884, 1477481, 1478056, 1478627, 1479196, 1479760, 1480370]","[1468398, 1468986, 1469592, 1470201, 1470814, 1471367, 1471938, 1472519, 1473114, 1473672, 1474290, 1474833, 1475438, 1475999, 1476574, 1477165, 1477763, 1478294, 1478896, 1479449, 1480019, 1480621]","[88, 136, 136, 251, 16, 233, 209, 223, 10, 230, 241, 212, 215, 142, 203, 160, 205, 234, 227, 230, 225, 202]","[1468352, 1468906, 1469518, 1470134, 1470731, 1471251, 1471819, 1472433, 1473000, 1473580, 1474166, 1474735, 1475293, 1475913, 1476462, 1476975, 1477487, 1478184, 1478633, 1479322, 1479888, 1480376]","[1467104, 1467704, 1468304, 1468904, 1469504, 1470104, 1470704, 1471304, 1471833, 1472380, 1472937, 1473514, 1474102, 1474672, 1475239, 1475819, 1476368, 1476904, 1477501, 1478076, 1478647, 1479216, 1479780, 1480390]",72,SB,L,R,ITMSR,1.1
5,400,trial,0,78,78,78,trial,"['S', 'S', 'S', 'S', 'S', 'S', 'S', 'C', 'C', 'C', 'C', 'C', 'C', 'C', 'C', 'C', 'C', 'C', 'C', 'C', 'C', 'C', 'C']","[1497212, 1497575, 1497952, 1498368, 1498764, 1499160, 1499580, 1499981, 1500387, 1500783, 1501186, 1501578, 1501974, 1502381, 1502789, 1503205, 1503586, 1503984, 1504382, 1504775, 1505167, 1505560, 1505946]","[1497320, 1497663, 1498067, 1498479, 1498949, 1499407, 1499819, 1500208, 1500602, 1501018, 1501405, 1501800, 1502195, 1502603, 1503019, 1503420, 1503836, 1504217, 1504612, 1505006, 1505415, 1505802, 1506195]","[57, 76, 64, 84, 146, 179, 172, 180, 166, 174, 168, 166, 169, 170, 175, 183, 177, 174, 177, 181, 179, 181, 183]","[1497244, 1497579, 1497955, 1498371, 1498838, 1499250, 1499703, 1500096, 1500480, 1500893, 1501294, 1501682, 1502072, 1502481, 1502887, 1503296, 1503686, 1504091, 1504475, 1504878, 1505253, 1505680, 1506055]","[1496833, 1497232, 1497632, 1498032, 1498432, 1498832, 1499232, 1499632, 1500001, 1500407, 1500803, 1501206, 1501598, 1501995, 1502401, 1502809, 1503225, 1503606, 1504004, 1504402, 1504795, 1505187, 1505581, 1505966]",72,SB,L,R,ITMSR,1.1
4,600,trial,0,79,79,79,trial,"['S', 'S', 'S', 'S', 'S', 'S', 'S', 'C', 'C', 'C', 'C', 'C', 'C', 'C', 'C', 'C', 'C', 'C', 'C', 'C', 'C', 'C', 'C']","[1511754, 1512470, 1513086, 1513687, 1514293, 1514898, 1515522, 1516076, 1516681, 1517295, 1517881, 1518488, 1519078, 1519666, 1520247, 1520836, 1521444, 1522041, 1522624, 1523187, 1523767, 1524355, 1524989]","[1512198, 1512844, 1513466, 1514025, 1514628, 1515228, 1515846, 1516440, 1517048, 1517626, 1518220, 1518831, 1519437, 1520015, 1520599, 1521218, 1521838, 1522413, 1522992, 1523538, 1524139, 1524729]","[189, 181, 196, 195, 200, 199, 196, 193, 190, 188, 192, 187, 190, 191, 193, 191, 186, 185, 192, 188, 187, 187]","[1511851, 1512599, 1513185, 1513822, 1514438, 1515031, 1515655, 1516273, 1516851, 1517456, 1518024, 1518604, 1519299, 1519801, 1520431, 1520978, 1521554, 1522208, 1522791, 1523336, 1523895, 1524519]","[1511344, 1511944, 1512544, 1513144, 1513744, 1514344, 1514944, 1515544, 1516096, 1516701, 1517315, 1517901, 1518509, 1519098, 1519686, 1520267, 1520856, 1521464, 1522061, 1522644, 1523207, 1523787, 1524375, 1525009]",72,SB,L,R,ITMSR,1.1
0,400,trial,0,80,80,80,trial,"['S', 'S', 'S', 'S', 'S', 'S', 'C', 'C', 'C', 'C', 'C', 'C', 'C', 'C', 'C', 'C', 'C', 'C', 'C', 'C', 'C', 'C']","[1531296, 1531701, 1532149, 1532584, 1532968, 1533365, 1533765, 1534183, 1534600, 1535009, 1535417, 1535841, 1536239, 1536646, 1537041, 1537440, 1537852, 1538247, 1538644, 1539067, 1539466, 1539870]","[1531496, 1531904, 1532366, 1532775, 1533160, 1533541, 1533962, 1534382, 1534788, 1535206, 1535617, 1536030, 1536452, 1536855, 1537249, 1537667, 1538076, 1538448, 1538857, 1539283, 1539675, 1540083]","[176, 179, 182, 163, 183, 178, 194, 185, 180, 184, 184, 186, 194, 193, 193, 197, 195, 197, 201, 192, 198, 185]","[1531375, 1531773, 1532222, 1532640, 1533033, 1533367, 1533767, 1534185, 1534602, 1535011, 1535494, 1535905, 1536307, 1536716, 1537118, 1537511, 1537921, 1538318, 1538712, 1539127, 1539529, 1539937]","[1530573, 1530972, 1531372, 1531772, 1532172, 1532572, 1532973, 1533373, 1533785, 1534203, 1534620, 1535029, 1535437, 1535861, 1536259, 1536666, 1537061, 1537460, 1537872, 1538267, 1538664, 1539087, 1539486, 1539890]",72,SB,L,R,ITMSR,1.1
2,400,trial,0,81,81,81,trial,"['S', 'S', 'S', 'S', 'S', 'S', 'S', 'C', 'C', 'C', 'C', 'C', 'C', 'C', 'C', 'C', 'C', 'C', 'C', 'C', 'C', 'C', 'C']","[1545826, 1546208, 1546638, 1547043, 1547444, 1547835, 1548264, 1548648, 1549043, 1549425, 1549834, 1550234, 1550626, 1551011, 1551394, 1551794, 1552188, 1552578, 1552969, 1553364, 1553775, 1554144, 1554538]","[1545982, 1546377, 1546821, 1547227, 1547622, 1548021, 1548419, 1548823, 1549236, 1549621, 1550031, 1550438, 1550819, 1551212, 1551577, 1551982, 1552385, 1552780, 1553208, 1553573, 1553971, 1554347, 1554734]","[96, 124, 153, 152, 154, 167, 156, 184, 175, 177, 177, 178, 175, 173, 177, 183, 177, 182, 183, 180, 181, 176, 181]","[1545917, 1546266, 1546716, 1547108, 1547506, 1547914, 1548266, 1548650, 1549119, 1549497, 1549913, 1550308, 1550694, 1551083, 1551464, 1551868, 1552259, 1552648, 1553040, 1553435, 1553848, 1554204, 1554610]","[1545477, 1545877, 1546277, 1546677, 1547077, 1547478, 1547877, 1548277, 1548668, 1549063, 1549445, 1549854, 1550254, 1550646, 1551031, 1551414, 1551814, 1552208, 1552599, 1552989, 1553384, 1553795, 1554164, 1554558]",72,SB,L,R,ITMSR,1.1
1,600,trial,0,82,82,82,trial,"['S', 'S', 'S', 'S', 'S', 'S', 'C', 'C', 'C', 'C', 'C', 'C', 'C', 'C', 'C', 'C', 'C', 'C', 'C', 'C', 'C', 'C']","[1561333, 1561901, 1562544, 1563140, 1563729, 1564335, 1564913, 1565477, 1566041, 1566623, 1567206, 1567760, 1568319, 1568878, 1569457, 1570043, 1570618, 1571150, 1571722, 1572289, 1572891, 1573453]","[1561578, 1562231, 1562893, 1563497, 1564088, 1564655, 1565220, 1565787, 1566367, 1566915, 1567495, 1568047, 1568637, 1569197, 1569807, 1570396, 1570950, 1571450, 1572045, 1572619, 1573221]","[189, 186, 177, 188, 185, 193, 187, 187, 185, 188, 183, 189, 188, 186, 177, 188, 173, 175, 176, 175, 175]","[1561408, 1561982, 1562652, 1563224, 1563857, 1564422, 1565016, 1565599, 1566157, 1566716, 1567299, 1567898, 1568460, 1569027, 1569585, 1570170, 1570711, 1571299, 1571876, 1572432, 1573016]","[1560193, 1560792, 1561392, 1561992, 1562592, 1563192, 1563792, 1564392, 1564933, 1565497, 1566061, 1566643, 1567226, 1567780, 1568339, 1568898, 1569477, 1570063, 1570638, 1571170, 1571742, 1572310, 1572911, 1573473]",72,SB,L,R,ITMSR,1.1
1,400,trial,0,83,83,83,trial,"['S', 'S', 'S', 'S', 'S', 'S', 'C', 'C', 'C', 'C', 'C', 'C', 'C', 'C', 'C', 'C', 'C', 'C', 'C', 'C', 'C', 'C']","[1579678, 1580078, 1580509, 1580918, 1581317, 1581746, 1582142, 1582539, 1582939, 1583330, 1583751, 1584163, 1584556, 1584935, 1585377, 1585798, 1586185, 1586591, 1587011, 1587423, 1587827, 1588227]","[1579875, 1580252, 1580699, 1581114, 1581531, 1581941, 1582356, 1582710, 1583111, 1583515, 1583950, 1584353, 1584765, 1585168, 1585579, 1585984, 1586395, 1586794, 1587195, 1587612, 1588028, 1588436]","[156, 158, 172, 183, 192, 184, 163, 170, 175, 189, 185, 180, 176, 166, 157, 166, 174, 166, 173, 177, 180, 179]","[1579765, 1580135, 1580580, 1580982, 1581384, 1581804, 1582144, 1582541, 1582995, 1583332, 1583752, 1584165, 1584558, 1585010, 1585449, 1585868, 1586260, 1586652, 1587068, 1587487, 1587888, 1588292]","[1578941, 1579341, 1579741, 1580141, 1580541, 1580941, 1581341, 1581741, 1582162, 1582559, 1582959, 1583350, 1583771, 1584183, 1584576, 1584955, 1585397, 1585818, 1586205, 1586611, 1587032, 1587443, 1587847, 1588247]",72,SB,L,R,ITMSR,1.1
2,400,trial,0,84,84,84,trial,"['S', 'S', 'S', 'S', 'S', 'S', 'S', 'S', 'C', 'C', 'C', 'C', 'C', 'C', 'C', 'C', 'C', 'C', 'C', 'C', 'C', 'C', 'C', 'C']","[1593848, 1594162, 1594598, 1594974, 1595380, 1595771, 1596149, 1596538, 1596978, 1597371, 1597765, 1598172, 1598582, 1598986, 1599380, 1599803, 1600242, 1600649, 1601043, 1601445, 1601853, 1602274, 1602672, 1603075]","[1594082, 1594276, 1594727, 1595079, 1595442, 1595831, 1596225, 1596721, 1597161, 1597540, 1597917, 1598347, 1598780, 1599181, 1599556, 1599994, 1600427, 1600847, 1601232, 1601616, 1601985, 1602459, 1602878, 1603245]","[23, 140, 152, 126, 73, 58, 108, 150, 98, 71, 85, 113, 109, 82, 124, 158, 150, 151, 139, 129, 140, 159, 138, 137]","[1593969, 1594237, 1594601, 1594978, 1595384, 1595774, 1596153, 1596541, 1596982, 1597374, 1597769, 1598176, 1598586, 1598990, 1599455, 1599872, 1600305, 1600729, 1601125, 1601515, 1601856, 1602344, 1602748, 1603144]","[1593789, 1594189, 1594589, 1594989, 1595389, 1595789, 1596189, 1596589, 1596998, 1597391, 1597785, 1598192, 1598602, 1599006, 1599400, 1599823, 1600262, 1600669, 1601063, 1601465, 1601873, 1602294, 1602692, 1603095]",72,SB,L,R,ITMSR,1.1
3,400,trial,0,85,85,85,trial,"['S', 'S', 'S', 'S', 'S', 'S', 'S', 'S', 'C', 'C', 'C', 'C', 'C', 'C', 'C', 'C', 'C', 'C', 'C', 'C', 'C', 'C', 'C', 'C']","[1608651, 1608867, 1609236, 1609605, 1610015, 1610444, 1610836, 1611241, 1611651, 1612068, 1612461, 1612840, 1613246, 1613648, 1614052, 1614462, 1614869, 1615253, 1615686, 1616083, 1616478, 1616863, 1617254, 1617671]","[1608741, 1608971, 1609359, 1609760, 1610131, 1610556, 1610967, 1611394, 1611805, 1612216, 1612615, 1612988, 1613422, 1613828, 1614228, 1614616, 1615045, 1615414, 1615846, 1616227, 1616632, 1617000, 1617415, 1617823]","[66, 72, 92, 115, 126, 135, 131, 128, 105, 131, 169, 163, 154, 166, 167, 165, 166, 162, 158, 148, 161, 146, 159, 149]","[1608695, 1608903, 1609269, 1609609, 1610018, 1610447, 1610840, 1611244, 1611655, 1612126, 1612519, 1612897, 1613318, 1613716, 1614124, 1614523, 1614931, 1615318, 1615753, 1616151, 1616545, 1616920, 1617323, 1617732]","[1608484, 1608884, 1609284, 1609684, 1610084, 1610484, 1610884, 1611284, 1611671, 1612088, 1612481, 1612860, 1613266, 1613668, 1614072, 1614482, 1614889, 1615273, 1615706, 1616103, 1616498, 1616883, 1617274, 1617691]",72,SB,L,R,ITMSR,1.1
3,600,trial,0,86,86,86,trial,"['S', 'S', 'S', 'S', 'S', 'S', 'S', 'S', 'C', 'C', 'C', 'C', 'C', 'C', 'C', 'C', 'C', 'C', 'C', 'C', 'C', 'C', 'C', 'C']","[1623270, 1623465, 1624248, 1624798, 1625434, 1626043, 1626636, 1627228, 1627793, 1628368, 1628953, 1629548, 1630139, 1630730, 1631303, 1631868, 1632462, 1633020, 1633586, 1634141, 1634732, 1635310, 1635918, 1636513]","[1623368, 1623556, 1624351, 1625153, 1625757, 1626333, 1626903, 1627504, 1628102, 1628658, 1629274, 1629874, 1630475, 1631021, 1631600, 1632199, 1632758, 1633314, 1633923, 1634462, 1635007, 1635623, 1636193]","[230, 64, 109, 186, 190, 191, 186, 184, 177, 178, 176, 179, 175, 171, 169, 171, 168, 178, 172, 155, 167, 163, 173]","[1623304, 1623499, 1624282, 1624904, 1625521, 1626128, 1626716, 1627313, 1627915, 1628461, 1629081, 1629642, 1630223, 1630875, 1631387, 1631970, 1632559, 1633123, 1633756, 1634290, 1634832, 1635421, 1636022]","[1623066, 1623666, 1624266, 1624866, 1625466, 1626066, 1626667, 1627266, 1627813, 1628388, 1628973, 1629569, 1630159, 1630750, 1631323, 1631888, 1632482, 1633040, 1633606, 1634161, 1634752, 1635330, 1635938, 1636533]",72,SB,L,R,ITMSR,1.1
3,400,trial,0,87,87,87,trial,"['S', 'S', 'S', 'S', 'S', 'S', 'S', 'C', 'C', 'C', 'C', 'C', 'C', 'C', 'C', 'C', 'C', 'C', 'C', 'C', 'C', 'C', 'C']","[1642245, 1642613, 1642983, 1643417, 1643828, 1644223, 1644636, 1645043, 1645445, 1645845, 1646264, 1646668, 1647077, 1647511, 1647891, 1648303, 1648698, 1649143, 1649568, 1649992, 1650393, 1650768, 1651172]","[1642443, 1642772, 1643172, 1643620, 1644016, 1644399, 1644809, 1645204, 1645643, 1646041, 1646422, 1646874, 1647257, 1647642, 1648066, 1648465, 1648874, 1649294, 1649743, 1650174, 1650581, 1650976, 1651361]","[198, 180, 183, 195, 190, 180, 168, 168, 193, 189, 181, 180, 179, 156, 172, 157, 168, 146, 160, 153, 164, 174, 141]","[1642331, 1642668, 1643041, 1643501, 1643889, 1644282, 1644717, 1645112, 1645507, 1645911, 1646324, 1646731, 1647140, 1647564, 1647960, 1648364, 1648768, 1649199, 1649639, 1650067, 1650456, 1650854, 1651254]","[1641853, 1642253, 1642653, 1643053, 1643453, 1643853, 1644253, 1644653, 1645063, 1645465, 1645865, 1646284, 1646688, 1647097, 1647532, 1647911, 1648323, 1648718, 1649163, 1649588, 1650012, 1650413, 1650788, 1651192]",72,SB,L,R,ITMSR,1.1
5,600,trial,0,88,88,88,trial,"['S', 'S', 'S', 'S', 'S', 'S', 'C', 'C', 'C', 'C', 'C', 'C', 'C', 'C', 'C', 'C', 'C', 'C', 'C', 'C', 'C', 'C']","[1658058, 1658696, 1659276, 1659865, 1660450, 1661038, 1661633, 1662203, 1662770, 1663346, 1663921, 1664492, 1665073, 1665664, 1666249, 1666832, 1667430, 1668004, 1668570, 1669148, 1669720, 1670270]","[1658434, 1659079, 1659635, 1660236, 1660791, 1661379, 1661963, 1662530, 1663101, 1663687, 1664266, 1664799, 1665414, 1665973, 1666552, 1667138, 1667761, 1668304, 1668890, 1669462, 1670067]","[189, 190, 197, 197, 193, 190, 189, 192, 187, 181, 162, 173, 171, 175, 150, 164, 178, 177, 168, 165, 165]","[1658173, 1658802, 1659398, 1659972, 1660565, 1661148, 1661729, 1662341, 1662887, 1663500, 1664048, 1664644, 1665210, 1665813, 1666370, 1666948, 1667522, 1668109, 1668743, 1669246, 1669830]","[1656906, 1657506, 1658106, 1658706, 1659307, 1659906, 1660506, 1661106, 1661654, 1662223, 1662790, 1663366, 1663941, 1664513, 1665093, 1665684, 1666269, 1666852, 1667450, 1668024, 1668590, 1669168, 1669740, 1670290]",72,SB,L,R,ITMSR,1.1
2,600,trial,0,89,89,89,trial,"['S', 'S', 'S', 'S', 'S', 'S', 'C', 'C', 'C', 'C', 'C', 'C', 'C', 'C', 'C', 'C', 'C', 'C', 'C', 'C', 'C', 'C']","[1677030, 1677621, 1678190, 1678832, 1679436, 1680013, 1680616, 1681201, 1681818, 1682392, 1682962, 1683569, 1684165, 1684729, 1685315, 1685881, 1686451, 1687038, 1687653, 1688249, 1688848, 1689382]","[1677132, 1677829, 1678514, 1679193, 1679738, 1680344, 1680948, 1681527, 1682101, 1682709, 1683307, 1683916, 1684481, 1685072, 1685623, 1686222, 1686794, 1687376, 1687900, 1688588, 1689151]","[108, 150, 197, 179, 167, 168, 163, 162, 152, 142, 150, 137, 137, 132, 115, 121, 125, 129, 104, 127, 126]","[1677036, 1677707, 1678280, 1678925, 1679544, 1680131, 1680720, 1681328, 1681915, 1682579, 1683070, 1683698, 1684315, 1684831, 1685456, 1685972, 1686559, 1687217, 1687747, 1688343, 1688982]","[1675877, 1676477, 1677077, 1677677, 1678277, 1678877, 1679477, 1680077, 1680636, 1681221, 1681838, 1682412, 1682982, 1683589, 1684185, 1684749, 1685336, 1685901, 1686471, 1687058, 1687673, 1688269, 1688868, 1689402]",72,SB,L,R,ITMSR,1.1
0,600,trial,0,90,90,90,trial,"['S', 'S', 'S', 'S', 'S', 'S', 'S', 'S', 'C', 'C', 'C', 'C', 'C', 'C', 'C', 'C', 'C', 'C', 'C', 'C', 'C', 'C', 'C', 'C']","[1695430, 1695785, 1696180, 1696836, 1697412, 1698022, 1698603, 1699202, 1699822, 1700400, 1700973, 1701573, 1702213, 1702819, 1703440, 1704095, 1704711, 1705321, 1705902, 1706447, 1707015, 1707598, 1708168, 1708783]","[1695705, 1695917, 1696551, 1697156, 1697723, 1698247, 1698762, 1699396, 1700091, 1700663, 1701252, 1701881, 1702499, 1703127, 1703736, 1704342, 1705007, 1705635, 1706162, 1706747, 1707298, 1707897, 1708474]","[65, 206, 125, 110, 143, 147, 127, 131, 120, 159, 153, 137, 142, 123, 149, 125, 126, 133, 138, 127, 99, 109, 71]","[1695502, 1695875, 1696300, 1696983, 1697505, 1698100, 1698662, 1699273, 1699903, 1700495, 1701103, 1701703, 1702305, 1702915, 1703537, 1704195, 1704816, 1705417, 1706009, 1706555, 1707131, 1707697, 1708284]","[1695050, 1695650, 1696250, 1696850, 1697451, 1698050, 1698650, 1699250, 1699842, 1700420, 1700994, 1701593, 1702233, 1702839, 1703460, 1704115, 1704731, 1705341, 1705922, 1706467, 1707035, 1707618, 1708188, 1708803]",72,SB,L,R,ITMSR,1.1
4,600,trial,0,91,91,91,trial,"['S', 'S', 'S', 'S', 'S', 'S', 'C', 'C', 'C', 'C', 'C', 'C', 'C', 'C', 'C', 'C', 'C', 'C', 'C', 'C', 'C', 'C']","[1714776, 1715008, 1715661, 1717462, 1718040, 1718642, 1719258, 1719833, 1720378, 1720987, 1721538, 1722083, 1722657, 1723274, 1723843, 1724385, 1724988, 1725547, 1726107, 1726700, 1727265, 1727847]","[1714796, 1715062, 1715681, 1717506, 1718131, 1718721, 1719278, 1719877, 1720461, 1721019, 1721601, 1722168, 1722677, 1723299, 1723918, 1724476, 1725008, 1725631, 1726127, 1726738, 1727285, 1727867]","[34, 213, 74, 165, 233, 1, 4, 142, 246, 131, 158, 204, 158, 67, 169, 166, 46, 13, 144, 68, 81, 96]","[1714779, 1715018, 1715666, 1717486, 1718043, 1718680, 1719258, 1719853, 1720382, 1720999, 1721565, 1722108, 1722661, 1723279, 1723848, 1724391, 1724988, 1725605, 1726111, 1726730, 1727268, 1727850]","[1714553, 1715152, 1715752, 1716353, 1716952, 1717552, 1718152, 1718752, 1719278, 1719853, 1720398, 1721007, 1721559, 1722103, 1722677, 1723294, 1723864, 1724405, 1725008, 1725568, 1726127, 1726721, 1727285, 1727867]",72,SB,L,R,ITMSR,1.1
1,600,trial,0,92,92,92,trial,"['S', 'S', 'S', 'S', 'S', 'S', 'C', 'C', 'C', 'C', 'C', 'C', 'C', 'C', 'C', 'C', 'C', 'C', 'C', 'C', 'C', 'C']","[1734605, 1735195, 1735758, 1736372, 1736982, 1737568, 1738167, 1738719, 1739304, 1739901, 1740486, 1741044, 1741616, 1742222, 1742810, 1743366, 1743942, 1744537, 1745108, 1745671, 1746239, 1746812]","[1734831, 1735488, 1736055, 1736672, 1737259, 1737831, 1738465, 1739042, 1739587, 1740218, 1740838, 1741360, 1741969, 1742548, 1743108, 1743667, 1744226, 1744812, 1745392, 1746027, 1746581]","[138, 94, 87, 80, 18, 33, 62, 33, 26, 48, 19, 20, 7, 252, 17, 12, 32, 32, 7, 3, 236]","[1734636, 1735287, 1735762, 1736476, 1736986, 1737684, 1738171, 1738724, 1739309, 1739906, 1740490, 1741049, 1741620, 1742226, 1742816, 1743370, 1743946, 1744540, 1745114, 1745675, 1746243]","[1733444, 1734044, 1734644, 1735244, 1735844, 1736444, 1737044, 1737645, 1738187, 1738739, 1739324, 1739921, 1740506, 1741064, 1741636, 1742242, 1742830, 1743386, 1743962, 1744557, 1745128, 1745691, 1746259, 1746832]",72,SB,L,R,ITMSR,1.1
2,600,trial,0,93,93,93,trial,"['S', 'S', 'S', 'S', 'S', 'S', 'C', 'C', 'C', 'C', 'C', 'C', 'C', 'C', 'C', 'C', 'C', 'C', 'C', 'C', 'C', 'C']","[1753408, 1753971, 1754599, 1755121, 1755779, 1756388, 1756956, 1757526, 1758107, 1758702, 1759278, 1759843, 1760421, 1761005, 1761572, 1762154, 1762722, 1763319, 1763900, 1764491, 1765042, 1765569]","[1753676, 1754093, 1754728, 1755246, 1756044, 1756608, 1757241, 1757812, 1758404, 1759008, 1759594, 1760185, 1760745, 1761305, 1761867, 1762453, 1763051, 1763605, 1764251, 1764814, 1765426]","[147, 168, 80, 162, 0, 247, 246, 216, 208, 223, 197, 176, 134, 179, 205, 186, 160, 103, 192, 187, 163]","[1753485, 1753975, 1754605, 1755126, 1755917, 1756504, 1756961, 1757669, 1758114, 1758708, 1759284, 1760100, 1760621, 1761131, 1761705, 1762311, 1762944, 1763326, 1764151, 1764605, 1765175]","[1752249, 1752849, 1753449, 1754049, 1754649, 1755249, 1755849, 1756449, 1756976, 1757546, 1758127, 1758722, 1759298, 1759863, 1760441, 1761026, 1761592, 1762174, 1762742, 1763339, 1763920, 1764511, 1765062, 1765590]",72,SB,L,R,ITMSR,1.1
0,600,trial,0,94,94,94,trial,"['S', 'S', 'S', 'S', 'S', 'S', 'S', 'S', 'C', 'C', 'C', 'C', 'C', 'C', 'C', 'C', 'C', 'C', 'C', 'C', 'C', 'C', 'C', 'C']","[1771281, 1772097, 1772692, 1773301, 1773908, 1774512, 1774613, 1775090, 1775655, 1776270, 1776861, 1777433, 1778026, 1778611, 1779194, 1779801, 1780403, 1780971, 1781535, 1782100, 1782679, 1783294, 1783885, 1784462]","[1771427, 1772337, 1772948, 1773544, 1774119, 1774533, 1774675, 1775319, 1775935, 1776518, 1777081, 1777687, 1778256, 1778838, 1779436, 1780015, 1780612, 1781224, 1781784, 1782352, 1782902, 1783530, 1784126, 1784675]","[64, 142, 143, 122, 86, 59, 35, 80, 94, 85, 106, 107, 86, 113, 100, 92, 102, 82, 50, 51, 25, 18, 42, 14]","[1771384, 1772200, 1772792, 1773304, 1773912, 1774516, 1774613, 1775096, 1775661, 1776275, 1776866, 1777438, 1778031, 1778703, 1779197, 1779806, 1780407, 1781056, 1781540, 1782187, 1782685, 1783299, 1783966, 1784468]","[1770912, 1771512, 1772112, 1772712, 1773313, 1773912, 1774512, 1775112, 1775675, 1776290, 1776881, 1777453, 1778046, 1778631, 1779214, 1779821, 1780423, 1780992, 1781555, 1782120, 1782700, 1783314, 1783905, 1784482]",72,SB,L,R,ITMSR,1.1
3,600,trial,0,95,95,95,trial,"['S', 'S', 'S', 'S', 'S', 'S', 'C', 'C', 'C', 'C', 'C', 'C', 'C', 'C', 'C', 'C', 'C', 'C', 'C', 'C', 'C', 'C']","[1791027, 1791616, 1792198, 1792811, 1793415, 1794043, 1794642, 1795272, 1795886, 1796450, 1796994, 1797566, 1798133, 1798710, 1799327, 1799866, 1800390, 1800957, 1801522, 1802052, 1802634, 1803197]","[1791384, 1792019, 1792569, 1793155, 1793757, 1794406, 1794987, 1795585, 1796188, 1796766, 1797246, 1797895, 1798508, 1799101, 1799649, 1800281, 1800785, 1801351, 1801824, 1802447, 1802984]","[118, 42, 44, 39, 49, 58, 41, 18, 30, 12, 235, 13, 18, 232, 242, 213, 118, 96, 44, 94, 18]","[1791135, 1791801, 1792391, 1792969, 1793580, 1794205, 1794845, 1795419, 1796063, 1796642, 1797135, 1797716, 1798276, 1798873, 1799501, 1800042, 1800594, 1801110, 1801626, 1802329, 1802860]","[1789881, 1790481, 1791081, 1791681, 1792281, 1792881, 1793481, 1794081, 1794662, 1795292, 1795906, 1796470, 1797014, 1797586, 1798153, 1798730, 1799347, 1799886, 1800410, 1800977, 1801542, 1802072, 1802654, 1803217]",72,SB,L,R,ITMSR,1.1
