pitch,ioi,event,.thisRepN,.thisTrialN,.thisN,.thisIndex,event,tap_types,tap_times,release_times,peak_pressures,peak_times,tone_times,subject,experimenter,register,handedness,experiment,version,
,,SPR,0,-1,-1,0,SPR,"['P', 'P', 'P', 'P', 'P', 'P', 'P', 'P', 'P', 'P', 'P', 'P', 'P', 'P', 'P', 'P', 'P', 'P', 'P', 'P', 'P', 'P', 'P', 'P', 'P', 'P', 'P', 'P', 'P', 'P']","[42074, 42613, 43134, 43677, 44248, 44773, 45327, 45874, 46437, 46992, 47526, 48043, 48585, 49147, 49673, 50229, 50775, 51342, 51889, 52364, 52935, 53488, 54050, 54626, 55137, 55672, 56172, 56691, 57241, 57774]","[42338, 42931, 43486, 44042, 44597, 45138, 45729, 46290, 46843, 47357, 47891, 48449, 49002, 49545, 50040, 50650, 51205, 51740, 52250, 52800, 53358, 53884, 54445, 54974, 55473, 55967, 56537, 57106, 57592, 58104]","[182, 144, 165, 155, 152, 144, 143, 144, 135, 136, 141, 134, 145, 140, 129, 98, 124, 147, 138, 124, 138, 143, 141, 131, 127, 106, 102, 123, 133, 130]","[42241, 42703, 43271, 43770, 44391, 44935, 45489, 46054, 46594, 47137, 47709, 48246, 48746, 49327, 49861, 50328, 51064, 51514, 52061, 52627, 53204, 53705, 54313, 54774, 55304, 55805, 56368, 56895, 57389, 57875]",,94,OR,U,R,ITMSR,1.1,
1,500,practice,0,0,0,0,practice,"['B', 'S', 'S', 'S', 'S', 'S', 'S', 'S', 'C', 'C', 'C', 'C', 'C', 'C', 'C', 'C', 'C', 'C', 'C', 'C', 'C', 'C', 'C', 'C']","[138465, 138897, 139401, 139907, 140399, 140895, 141412, 141898, 142395, 142894, 143397, 143879, 144362, 144858, 145350, 145821, 146318, 146826, 147305, 147755, 148295, 148779, 149265, 149747]","[138662, 139180, 139709, 140210, 140712, 141195, 141720, 142174, 142759, 143265, 143732, 144208, 144699, 145205, 145673, 146158, 146612, 147037, 147549, 148118, 148630, 149146, 149622]","[154, 165, 167, 169, 165, 159, 159, 160, 159, 160, 163, 159, 158, 151, 160, 163, 157, 144, 105, 75, 109, 119, 137]","[138535, 139000, 139521, 139980, 140502, 141014, 141526, 142007, 142491, 143002, 143495, 143984, 144460, 144937, 145441, 145970, 146444, 146894, 147377, 147862, 148481, 148966, 149452]","[138476, 138976, 139476, 139976, 140476, 140976, 141476, 141976, 142415, 142914, 143417, 143899, 144382, 144878, 145370, 145841, 146338, 146846, 147325, 147775, 148315, 148799, 149285, 149767]",94,OR,U,R,ITMSR,1.1,
3,500,practice,0,1,1,1,practice,"['S', 'S', 'S', 'S', 'S', 'S', 'S', 'C', 'C', 'C', 'C', 'C', 'C', 'C', 'C', 'C', 'C', 'C', 'C', 'C', 'C', 'C', 'C']","[155111, 155784, 156338, 156919, 157445, 157950, 158436, 158979, 159674, 160424, 161382, 162140, 162709, 163224, 163795, 164293, 164802, 165301, 165763, 166251, 166794, 167267, 167744]","[155453, 155984, 156584, 157170, 157692, 158242, 158757, 159398, 160047, 160772, 161685, 162425, 163015, 163550, 164092, 164489, 165013, 165520, 165956, 166470, 167004, 167462, 167966]","[149, 134, 141, 148, 141, 129, 105, 110, 100, 132, 150, 137, 117, 111, 120, 119, 108, 93, 101, 84, 85, 83, 77]","[155183, 155883, 156436, 157034, 157608, 158072, 158592, 159088, 159756, 160534, 161485, 162249, 162792, 163332, 163911, 164370, 164881, 165386, 165844, 166332, 166885, 167346, 167827]","[155090, 155590, 156090, 156590, 157090, 157590, 158090, 158590, 158999, 159694, 160444, 161402, 162160, 162729, 163245, 163815, 164313, 164823, 165321, 165783, 166272, 166814, 167287, 167764]",94,OR,U,R,ITMSR,1.1,
2,500,practice,0,2,2,2,practice,"['S', 'S', 'S', 'S', 'S', 'S', 'S', 'C', 'C', 'C', 'C', 'C', 'C', 'C', 'C', 'C', 'C', 'C', 'C', 'C', 'C', 'C', 'C']","[173791, 174315, 174822, 175379, 175938, 176461, 176953, 177461, 178025, 178580, 179172, 179788, 180287, 180847, 181316, 181828, 182360, 182866, 183375, 183863, 184373, 184875, 185379]","[174020, 174609, 175127, 175674, 176244, 176771, 177235, 177814, 178381, 178886, 179466, 180048, 180625, 181124, 181667, 182199, 182652, 183207, 183658, 184152, 184669, 185169]","[160, 147, 129, 151, 160, 157, 157, 151, 146, 165, 141, 128, 147, 140, 139, 136, 148, 136, 141, 145, 134, 130]","[173895, 174440, 174937, 175521, 176060, 176560, 177071, 177569, 178136, 178703, 179300, 179910, 180391, 180954, 181408, 181939, 182474, 182977, 183439, 183970, 184441, 184938]","[173534, 174034, 174534, 175034, 175534, 176034, 176534, 177034, 177481, 178045, 178600, 179192, 179808, 180307, 180867, 181336, 181848, 182380, 182886, 183395, 183883, 184393, 184895, 185399]",94,OR,U,R,ITMSR,1.1,
5,500,practice,0,3,3,3,practice,"['S', 'S', 'S', 'S', 'S', 'S', 'S', 'C', 'C', 'C', 'C', 'C', 'C', 'C', 'C', 'C', 'C', 'C', 'C', 'C', 'C', 'C', 'C']","[191294, 191843, 192356, 192897, 193427, 193964, 194509, 195022, 195557, 196106, 196573, 197093, 197580, 198075, 198549, 199081, 199522, 200079, 200631, 201079, 201588, 202074, 202548]","[191529, 192058, 192608, 193159, 193673, 194282, 194781, 195326, 195932, 196433, 196937, 197326, 197776, 198264, 198751, 199278, 199731, 200342, 200827, 201359, 201794, 202298, 202755]","[160, 157, 157, 154, 154, 146, 153, 157, 149, 147, 137, 144, 131, 130, 133, 133, 136, 137, 123, 137, 140, 138, 137]","[191360, 191942, 192455, 192995, 193533, 194048, 194616, 195094, 195672, 196197, 196667, 197163, 197649, 198144, 198626, 199159, 199592, 200165, 200708, 201169, 201670, 202159, 202633]","[191100, 191599, 192099, 192600, 193100, 193600, 194100, 194600, 195042, 195577, 196126, 196593, 197113, 197600, 198095, 198569, 199101, 199542, 200099, 200651, 201099, 201608, 202094, 202568]",94,OR,U,R,ITMSR,1.1,
0,500,practice,0,4,4,4,practice,"['S', 'S', 'S', 'S', 'S', 'S', 'S', 'C', 'C', 'C', 'C', 'C', 'C', 'C', 'C', 'C', 'C', 'C', 'C', 'C', 'C', 'C', 'C']","[208396, 208923, 209463, 209990, 210529, 211063, 211573, 212098, 212729, 213302, 213784, 214291, 214801, 215268, 215779, 216278, 216790, 217293, 217819, 218307, 218852, 219320, 219856]","[208585, 209157, 209704, 210251, 210721, 211247, 211785, 212301, 212933, 213528, 214005, 214528, 215036, 215476, 215995, 216492, 217011, 217519, 218040, 218532, 219079, 219550, 220084]","[164, 146, 147, 156, 137, 131, 132, 140, 122, 146, 137, 135, 129, 130, 133, 121, 109, 124, 128, 106, 111, 109, 78]","[208492, 208998, 209536, 210087, 210596, 211123, 211633, 212156, 212798, 213390, 213846, 214371, 214893, 215350, 215860, 216340, 216854, 217374, 217890, 218375, 218935, 219417, 219932]","[208162, 208661, 209161, 209661, 210161, 210661, 211161, 211661, 212118, 212749, 213322, 213805, 214311, 214821, 215288, 215799, 216298, 216810, 217313, 217839, 218328, 218872, 219340, 219876]",94,OR,U,R,ITMSR,1.1,
4,500,practice,0,5,5,5,practice,"['B', 'S', 'S', 'S', 'S', 'S', 'S', 'C', 'C', 'C', 'C', 'C', 'C', 'C', 'C', 'C', 'C', 'C', 'C', 'C', 'C', 'C', 'C']","[225210, 225696, 226400, 226999, 227542, 228101, 228645, 229180, 229807, 230427, 230893, 231463, 232052, 232726, 233292, 233828, 234360, 234904, 235422, 235907, 236410, 236928, 237412]","[225380, 225991, 226607, 227196, 227783, 228399, 228887, 229585, 230144, 230657, 231162, 231759, 232329, 233005, 233586, 234090, 234675, 235188, 235698, 236192, 236749, 237167, 237592]","[147, 113, 130, 121, 99, 119, 115, 97, 107, 112, 110, 86, 54, 120, 111, 109, 116, 119, 110, 99, 129, 141, 127]","[225224, 225784, 226507, 227091, 227649, 228212, 228748, 229250, 229886, 230501, 230968, 231565, 232158, 232876, 233361, 233933, 234429, 234976, 235528, 236017, 236575, 237026, 237473]","[225223, 225723, 226223, 226723, 227223, 227723, 228224, 228723, 229200, 229827, 230447, 230914, 231483, 232072, 232747, 233312, 233848, 234380, 234925, 235442, 235927, 236430, 236948, 237432]",94,OR,U,R,ITMSR,1.1,
2,400,trial,0,6,6,6,trial,"['B', 'S', 'S', 'S', 'S', 'S', 'C', 'C', 'C', 'C', 'C', 'C', 'C', 'C', 'C', 'C', 'C', 'C', 'C', 'C', 'C', 'C']","[281187, 281706, 282313, 282917, 283470, 283894, 284316, 284717, 285130, 285566, 285960, 286358, 286751, 287163, 287580, 287975, 288367, 288757, 289172, 289569, 289954, 290369]","[281361, 281935, 282543, 283139, 283660, 284076, 284503, 284918, 285308, 285723, 286120, 286526, 286919, 287326, 287738, 288140, 288516, 288952, 289356, 289755, 290111, 290537]","[113, 121, 97, 90, 113, 122, 156, 103, 124, 104, 128, 130, 110, 106, 110, 105, 90, 114, 113, 102, 94, 82]","[281204, 281799, 282402, 283011, 283559, 283898, 284319, 284722, 285135, 285572, 285963, 286362, 286756, 287168, 287585, 287980, 288439, 288762, 289177, 289574, 289959, 290375]","[281200, 281601, 282000, 282400, 282800, 283200, 283600, 284000, 284336, 284737, 285150, 285586, 285980, 286379, 286771, 287183, 287600, 287995, 288387, 288777, 289192, 289589, 289974, 290390]",94,OR,U,R,ITMSR,1.1,
5,400,trial,0,7,7,7,trial,"['S', 'S', 'S', 'S', 'S', 'S', 'S', 'C', 'C', 'C', 'C', 'C', 'C', 'C', 'C', 'C', 'C', 'C', 'C', 'C', 'C', 'C', 'C']","[296235, 296758, 297203, 297625, 298047, 298439, 298848, 299223, 299621, 300014, 300376, 300792, 301193, 301621, 302028, 302426, 302849, 303262, 303660, 304089, 304482, 304888, 305287]","[296442, 296995, 297417, 297884, 298273, 298680, 299056, 299420, 299816, 300182, 300549, 301002, 301392, 301808, 302234, 302612, 303021, 303417, 303809, 304216, 304640, 305029, 305449]","[143, 119, 129, 144, 147, 142, 152, 156, 153, 140, 139, 125, 129, 134, 130, 121, 88, 121, 115, 106, 105, 102, 105]","[296325, 296856, 297289, 297715, 298124, 298520, 298933, 299304, 299705, 300017, 300381, 300797, 301273, 301625, 302032, 302431, 302940, 303267, 303720, 304094, 304552, 304940, 305293]","[296030, 296430, 296830, 297230, 297630, 298030, 298430, 298830, 299243, 299641, 300034, 300396, 300812, 301213, 301641, 302048, 302446, 302869, 303282, 303680, 304109, 304502, 304908, 305307]",94,OR,U,R,ITMSR,1.1,
3,400,trial,0,8,8,8,trial,"['B', 'S', 'S', 'S', 'S', 'S', 'S', 'C', 'C', 'C', 'C', 'C', 'C', 'C', 'C', 'C', 'C', 'C', 'C', 'C', 'C', 'C', 'C']","[310609, 311085, 311573, 312100, 312521, 313033, 313409, 313821, 314218, 314612, 315008, 315400, 315779, 316150, 316574, 316969, 317373, 317761, 318159, 318539, 318925, 319289, 319702]","[310810, 311268, 311767, 312249, 312718, 313209, 313551, 313982, 314377, 314799, 315203, 315598, 315969, 316328, 316767, 317140, 317539, 317922, 318326, 318723, 319099, 319465, 319880]","[99, 67, 41, 64, 17, 53, 80, 97, 115, 105, 126, 141, 140, 131, 122, 121, 128, 118, 123, 108, 98, 85, 43]","[310680, 311174, 311668, 312105, 312607, 313104, 313478, 313881, 314288, 314680, 315013, 315492, 315853, 316156, 316672, 317048, 317449, 317815, 318233, 318545, 318931, 319295, 319800]","[310621, 311021, 311421, 311821, 312221, 312621, 313021, 313421, 313841, 314238, 314632, 315028, 315420, 315799, 316170, 316594, 316989, 317393, 317782, 318179, 318559, 318945, 319309, 319722]",94,OR,U,R,ITMSR,1.1,
0,600,trial,0,9,9,9,trial,"['S', 'S', 'S', 'S', 'S', 'S', 'S', 'S', 'C', 'C', 'C', 'C', 'C', 'C', 'C', 'C', 'C', 'C', 'C', 'C', 'C', 'C', 'C', 'C']","[325373, 325811, 326220, 326752, 327356, 327963, 328607, 329234, 329867, 330432, 330948, 331491, 331990, 332462, 332904, 333321, 333739, 334154, 334586, 334973, 335353, 335752, 336144, 336534]","[325538, 326017, 326383, 326933, 327589, 328218, 328913, 329586, 330207, 330723, 331166, 331726, 332254, 332670, 333103, 333540, 333941, 334343, 334783, 335148, 335541, 335935, 336346, 336715]","[115, 83, 115, 112, 134, 141, 145, 148, 128, 151, 142, 137, 151, 140, 145, 137, 137, 130, 131, 121, 130, 132, 128, 127]","[325442, 325815, 326224, 326839, 327360, 327967, 328611, 329237, 329967, 330437, 330953, 331593, 331994, 332550, 332908, 333415, 333827, 334241, 334684, 335046, 335424, 335756, 336227, 336620]","[325140, 325740, 326340, 326940, 327540, 328140, 328740, 329340, 329887, 330452, 330968, 331511, 332010, 332482, 332924, 333341, 333759, 334174, 334606, 334993, 335373, 335772, 336164, 336555]",94,OR,U,R,ITMSR,1.1,
4,600,trial,0,10,10,10,trial,"['S', 'S', 'S', 'S', 'S', 'S', 'S', 'C', 'C', 'C', 'C', 'C', 'C', 'C', 'C', 'C', 'C', 'C', 'C', 'C', 'C', 'C', 'C']","[342249, 342863, 343697, 344309, 344962, 345603, 346219, 346787, 347446, 348046, 348567, 349257, 349932, 350784, 351538, 352312, 352962, 353546, 354101, 354636, 355163, 355659, 356143]","[342441, 343223, 343871, 344570, 345244, 345900, 346496, 347160, 347815, 348369, 349039, 349616, 350275, 350929, 351687, 352488, 353172, 353762, 354381, 354966, 355374, 355873, 356301]","[96, 115, 110, 105, 111, 97, 96, 91, 93, 77, 86, 58, 54, 106, 51, 70, 92, 91, 111, 103, 17, 190, 196]","[342253, 342961, 343785, 344314, 345055, 345698, 346314, 346867, 347537, 348144, 348667, 349350, 350146, 350789, 351544, 352399, 352966, 353551, 354106, 354641, 355255, 355666, 356150]","[342123, 342723, 343323, 343923, 344523, 345123, 345723, 346323, 346807, 347466, 348066, 348588, 349277, 349953, 350804, 351558, 352332, 352983, 353566, 354121, 354656, 355183, 355679, 356163]",94,OR,U,R,ITMSR,1.1,
5,400,trial,0,11,11,11,trial,"['S', 'S', 'S', 'S', 'S', 'S', 'S', 'C', 'C', 'C', 'C', 'C', 'C', 'C', 'C', 'C', 'C', 'C', 'C', 'C', 'C', 'C', 'C']","[362004, 362575, 363028, 363396, 363806, 364207, 364633, 365039, 365423, 365804, 366247, 366639, 367043, 367457, 367857, 368270, 368666, 369075, 369472, 369904, 370295, 370679, 371116]","[362210, 362777, 363202, 363538, 363925, 364335, 364780, 365178, 365548, 365942, 366397, 366811, 367205, 367583, 368007, 368427, 368819, 369225, 369635, 370050, 370435, 370839, 371272]","[71, 4, 36, 52, 223, 197, 239, 27, 22, 6, 10, 27, 31, 13, 47, 59, 62, 42, 27, 25, 21, 27, 27]","[362108, 362650, 363106, 363467, 363814, 364215, 364692, 365045, 365429, 365810, 366306, 366645, 367112, 367463, 367908, 368275, 368671, 369146, 369540, 369960, 370353, 370753, 371184]","[361824, 362223, 362624, 363023, 363423, 363823, 364223, 364623, 365059, 365443, 365825, 366267, 366659, 367064, 367477, 367877, 368290, 368686, 369095, 369492, 369924, 370315, 370699, 371136]",94,OR,U,R,ITMSR,1.1,
4,400,trial,0,12,12,12,trial,"['B', 'S', 'S', 'S', 'S', 'S', 'S', 'C', 'C', 'C', 'C', 'C', 'C', 'C', 'C', 'C', 'C', 'C', 'C', 'C', 'C', 'C', 'C']","[376562, 377064, 377601, 378064, 378565, 378977, 379411, 379824, 380333, 380801, 381222, 381627, 382030, 382447, 382837, 383224, 383648, 384034, 384427, 384802, 385190, 385581, 385974]","[376684, 377255, 377819, 378287, 378743, 379155, 379584, 380002, 380499, 380993, 381390, 381788, 382179, 382574, 382965, 383354, 383805, 384181, 384572, 384913, 385275, 385668, 386078]","[74, 82, 55, 75, 20, 21, 29, 34, 59, 81, 76, 61, 43, 252, 14, 2, 46, 30, 4, 80, 152, 230, 24]","[376562, 377151, 377691, 378156, 378627, 379044, 379492, 379906, 380417, 380876, 381305, 381707, 382036, 382495, 382901, 383272, 383723, 384040, 384500, 384812, 385201, 385614, 385985]","[376576, 376974, 377374, 377774, 378174, 378574, 378974, 379374, 379844, 380353, 380821, 381242, 381647, 382050, 382467, 382857, 383244, 383668, 384054, 384447, 384822, 385210, 385601, 385994]",94,OR,U,R,ITMSR,1.1,
0,400,trial,0,13,13,13,trial,"['S', 'S', 'S', 'S', 'S', 'S', 'S', 'C', 'C', 'C', 'C', 'C', 'C', 'C', 'C', 'C', 'C', 'C', 'C', 'C', 'C', 'C', 'C']","[391501, 392022, 392475, 392924, 393329, 393730, 394121, 394547, 394962, 395392, 395774, 396211, 396568, 396983, 397424, 397813, 398224, 398616, 398980, 399376, 399781, 400160, 400582]","[391696, 392171, 392599, 393061, 393450, 393892, 394273, 394691, 395097, 395534, 395940, 396364, 396705, 397134, 397556, 397920, 398329, 398705, 399077, 399472, 399853, 400242, 400640]","[232, 58, 19, 242, 207, 213, 236, 190, 176, 198, 237, 238, 209, 142, 163, 161, 191, 218, 3, 40, 1, 91, 223]","[391562, 392029, 392480, 392931, 393379, 393790, 394200, 394611, 395015, 395452, 395858, 396218, 396577, 396991, 397485, 397851, 398231, 398624, 398986, 399381, 399792, 400168, 400591]","[391387, 391787, 392187, 392587, 392987, 393388, 393787, 394187, 394567, 394982, 395412, 395794, 396231, 396589, 397003, 397444, 397833, 398244, 398637, 399000, 399396, 399801, 400180, 400602]",94,OR,U,R,ITMSR,1.1,
3,600,trial,0,14,14,14,trial,"['S', 'S', 'S', 'S', 'S', 'S', 'S', 'C', 'C', 'C', 'C', 'C', 'C', 'C', 'C', 'C', 'C', 'C', 'C', 'C', 'C', 'C', 'C']","[406425, 406983, 407482, 408010, 408742, 409375, 410022, 410624, 411415, 412155, 412884, 413594, 414313, 414883, 415563, 416058, 416517, 416972, 417400, 417811, 418253, 418717, 419179]","[406543, 407110, 407619, 408156, 408880, 409511, 410167, 410737, 411555, 412312, 413045, 413750, 414503, 415040, 415738, 416193, 416630, 417088, 417500, 417902, 418350, 418819, 419254]","[245, 18, 53, 62, 70, 7, 59, 12, 216, 221, 241, 3, 17, 241, 196, 0, 209, 164, 100, 108, 59, 9, 46]","[406451, 407010, 407489, 408016, 408749, 409435, 410028, 410631, 411480, 412240, 412967, 413670, 414318, 414965, 415568, 416064, 416522, 416978, 417406, 417817, 418262, 418723, 419186]","[406151, 406751, 407351, 407951, 408551, 409151, 409751, 410351, 410644, 411436, 412175, 412904, 413614, 414333, 414903, 415583, 416078, 416537, 416992, 417420, 417831, 418273, 418737, 419200]",94,OR,U,R,ITMSR,1.1,
0,600,trial,0,15,15,15,trial,"['S', 'S', 'S', 'S', 'S', 'S', 'S', 'S', 'C', 'C', 'C', 'C', 'C', 'C', 'C', 'C', 'C', 'C', 'C', 'C', 'C', 'C', 'C', 'C']","[424809, 425359, 426021, 426575, 427233, 427707, 428366, 429053, 429816, 430404, 430866, 431612, 432257, 432928, 433436, 434013, 434507, 434998, 435482, 435980, 436426, 436895, 437443, 437877]","[424958, 425554, 426200, 426802, 427411, 427893, 428548, 429252, 430007, 430522, 430996, 431767, 432402, 433083, 433559, 434137, 434622, 435142, 435604, 436094, 436551, 437020, 437538, 437989]","[182, 154, 217, 229, 54, 200, 233, 243, 225, 230, 218, 213, 180, 237, 211, 46, 162, 200, 135, 89, 146, 159, 160, 181]","[424875, 425461, 426127, 426583, 427238, 427774, 428452, 429159, 429911, 430411, 430873, 431705, 432264, 432934, 433443, 434020, 434513, 435004, 435489, 435986, 436432, 436903, 437451, 437884]","[424782, 425382, 425982, 426583, 427182, 427782, 428382, 428982, 429836, 430424, 430886, 431632, 432277, 432948, 433456, 434033, 434527, 435018, 435502, 436000, 436446, 436915, 437464, 437897]",94,OR,U,R,ITMSR,1.1,
1,400,trial,0,16,16,16,trial,"['S', 'S', 'S', 'S', 'S', 'S', 'C', 'C', 'C', 'C', 'C', 'C', 'C', 'C', 'C', 'C', 'C', 'C', 'C', 'C', 'C', 'C']","[443642, 444228, 444662, 445114, 445578, 445985, 446398, 446838, 447293, 448117, 448589, 448969, 449355, 449751, 450172, 450572, 450969, 451373, 451762, 452150, 452521, 452931]","[443788, 444382, 444827, 445290, 445672, 446049, 446459, 446895, 447313, 448266, 448745, 449115, 449520, 449911, 450309, 450720, 451130, 451525, 451938, 452315, 452698, 453107]","[83, 63, 154, 39, 59, 24, 203, 1, 174, 160, 94, 36, 58, 81, 27, 65, 130, 28, 119, 125, 78, 221]","[443718, 444235, 444668, 445120, 445584, 445993, 446407, 446845, 447298, 448203, 448598, 448976, 449362, 449836, 450182, 450580, 450976, 451443, 451770, 452158, 452529, 453024]","[443270, 443670, 444070, 444470, 444870, 445271, 445670, 446070, 446418, 446858, 447313, 448137, 448609, 448989, 449375, 449771, 450192, 450592, 450989, 451393, 451782, 452170, 452541, 452952]",94,OR,U,R,ITMSR,1.1,
5,600,trial,0,17,17,17,trial,"['S', 'S', 'S', 'S', 'S', 'S', 'S', 'S', 'S', 'C', 'C', 'C', 'C', 'C', 'C', 'C', 'C', 'C', 'C', 'C', 'C', 'C', 'C', 'C', 'C']","[458776, 459295, 459765, 460246, 460694, 461172, 461840, 462372, 462939, 463508, 464410, 465004, 465666, 466404, 467085, 467775, 468527, 469344, 470071, 470660, 471208, 471711, 472185, 472699, 473191]","[458949, 459484, 459932, 460376, 460869, 461357, 462023, 462565, 463104, 463790, 464562, 465143, 465827, 466582, 467225, 467951, 468704, 469516, 470232, 470874, 471407, 471920, 472403, 472945, 473413]","[27, 186, 116, 253, 59, 23, 58, 193, 118, 78, 192, 16, 194, 173, 158, 107, 209, 248, 244, 232, 132, 194, 230, 17, 160]","[458864, 459413, 459838, 460254, 460773, 461258, 461847, 462377, 463030, 463639, 464484, 465069, 465740, 466410, 467162, 467875, 468610, 469420, 470140, 470666, 471303, 471717, 472275, 472801, 473314]","[458559, 459159, 459759, 460359, 460959, 461559, 462159, 462759, 463528, 464430, 465025, 465686, 466424, 467105, 467795, 468547, 469364, 470091, 470680, 471228, 471731, 472205, 472719, 473211]",94,OR,U,R,ITMSR,1.1,
2,600,trial,0,18,18,18,trial,"['S', 'S', 'S', 'S', 'S', 'S', 'S', 'C', 'C', 'C', 'C', 'C', 'C', 'C', 'C', 'C', 'C', 'C', 'C', 'C', 'C', 'C', 'C']","[478619, 479250, 479852, 480483, 481169, 481775, 482399, 483060, 483888, 484677, 485548, 486141, 486619, 487101, 487583, 488044, 488601, 489069, 489577, 490075, 490582, 491133, 491630]","[478764, 479387, 480020, 480631, 481331, 481899, 482541, 483214, 484087, 484852, 485761, 486325, 486763, 487238, 487716, 488203, 488730, 489168, 489720, 490230, 490724, 491274, 491772]","[86, 140, 192, 217, 249, 36, 211, 255, 255, 0, 70, 14, 255, 212, 162, 100, 179, 168, 196, 196, 144, 205, 125]","[478674, 479333, 479858, 480551, 481242, 481782, 482457, 483066, 483895, 484764, 485554, 486149, 486625, 487109, 487591, 488053, 488671, 489077, 489585, 490084, 490590, 491143, 491707]","[478552, 479152, 479752, 480352, 480952, 481552, 482152, 482752, 483080, 483908, 484697, 485568, 486161, 486639, 487121, 487603, 488065, 488621, 489090, 489597, 490095, 490602, 491153, 491650]",94,OR,U,R,ITMSR,1.1,
2,600,trial,0,19,19,19,trial,"['B', 'S', 'S', 'S', 'S', 'S', 'S', 'S', 'C', 'C', 'C', 'C', 'C', 'C', 'C', 'C', 'C', 'C', 'C', 'C', 'C', 'C', 'C', 'C']","[497185, 497594, 498162, 498713, 499237, 499814, 500400, 501096, 501702, 502477, 503203, 503884, 504446, 504981, 505434, 505931, 506464, 507021, 507526, 508034, 508512, 508986, 509488, 512401]","[497208, 497740, 498295, 498878, 499391, 499959, 500550, 501233, 501821, 502637, 503393, 504074, 504571, 505037, 505549, 506048, 506583, 507141, 507677, 508136, 508657, 509155, 509627, 512544]","[214, 140, 192, 143, 119, 208, 155, 235, 1, 3, 255, 179, 217, 237, 175, 7, 99, 135, 214, 98, 172, 30, 106, 210]","[497185, 497670, 498231, 498780, 499294, 499821, 500488, 501103, 501709, 502572, 503209, 503988, 504454, 504991, 505466, 505965, 506473, 507030, 507584, 508069, 508550, 509054, 509569, 512458]","[497198, 497798, 498398, 498998, 499598, 500198, 500798, 501398, 501722, 502497, 503223, 503904, 504466, 505001, 505454, 505951, 506484, 507041, 507546, 508054, 508532, 509006, 509508, 512421]",94,OR,U,R,ITMSR,1.1,
1,400,trial,0,20,20,20,trial,"['B', 'S', 'S', 'S', 'S', 'S', 'S', 'S', 'C', 'C', 'C', 'C', 'C', 'C', 'C', 'C', 'C', 'C', 'C', 'C', 'C', 'C', 'C', 'C']","[517842, 518281, 518713, 519059, 519430, 519812, 520180, 520540, 520970, 521387, 521837, 522213, 522590, 522938, 523294, 523672, 524061, 524419, 524808, 525178, 525522, 525906, 526289, 526654]","[517978, 518458, 518871, 519171, 519542, 519915, 520290, 520680, 521093, 521512, 521897, 522271, 522637, 522991, 523351, 523736, 524119, 524503, 524881, 525225, 525575, 525970, 526345, 526724]","[99, 72, 197, 130, 31, 240, 165, 236, 239, 161, 184, 204, 37, 37, 6, 1, 4, 14, 30, 2, 8, 23, 25, 3]","[517909, 518311, 518739, 519089, 519461, 519847, 520211, 520631, 521044, 521452, 521871, 522235, 522613, 522969, 523338, 523701, 524081, 524454, 524830, 525196, 525542, 525930, 526313, 526692]","[517854, 518253, 518653, 519053, 519453, 519853, 520253, 520653, 520990, 521407, 521858, 522233, 522610, 522958, 523314, 523693, 524081, 524439, 524828, 525198, 525542, 525926, 526309, 526674]",94,OR,U,R,ITMSR,1.1,
5,600,trial,0,21,21,21,trial,"['S', 'S', 'S', 'S', 'S', 'S', 'S', 'S', 'S', 'S', 'C', 'C', 'C', 'C', 'C', 'C', 'C', 'C', 'C', 'C', 'C', 'C', 'C', 'C', 'C', 'C']","[532459, 532922, 533279, 533705, 534060, 534483, 534916, 535414, 535953, 536589, 537183, 537789, 538357, 538844, 539312, 539779, 540273, 540785, 541290, 541830, 542326, 542867, 543389, 543885, 544396, 544851]","[532568, 533015, 533383, 533832, 534200, 534593, 535037, 535556, 536123, 536741, 537323, 537895, 538459, 538927, 539425, 539883, 540392, 540893, 541402, 541939, 542465, 542985, 543504, 544022, 544498, 544953]","[28, 95, 229, 44, 216, 255, 97, 143, 149, 122, 106, 132, 91, 153, 113, 222, 7, 222, 23, 233, 202, 227, 111, 157, 168, 170]","[532488, 532979, 533307, 533737, 534093, 534519, 534957, 535492, 536040, 536672, 537218, 537823, 538366, 538853, 539321, 539808, 540308, 540795, 541301, 541840, 542401, 542878, 543436, 543927, 544441, 544861]","[532204, 532804, 533404, 534004, 534604, 535204, 535804, 536404, 537203, 537809, 538377, 538864, 539332, 539799, 540293, 540805, 541310, 541850, 542346, 542887, 543409, 543905, 544416, 544871]",94,OR,U,R,ITMSR,1.1,
3,600,trial,0,22,22,22,trial,"['S', 'S', 'S', 'S', 'S', 'S', 'S', 'S', 'C', 'C', 'C', 'C', 'C', 'C', 'C', 'C', 'C', 'C', 'C', 'C', 'C', 'C', 'C', 'C']","[550883, 551399, 551836, 552338, 552963, 553485, 554017, 554521, 555110, 555763, 556339, 556884, 557325, 557974, 558460, 559001, 559520, 560052, 560556, 560957, 561419, 561997, 562516, 562967]","[551042, 551455, 551883, 552378, 553010, 553569, 554103, 554592, 555197, 555836, 556433, 556933, 557383, 558042, 558530, 559091, 559628, 560128, 560608, 561034, 561506, 562068, 562601, 563054]","[100, 152, 71, 43, 84, 124, 123, 11, 0, 198, 211, 252, 77, 8, 207, 233, 63, 70, 249, 212, 234, 204, 76, 104]","[550891, 551432, 551847, 552349, 552973, 553521, 554052, 554533, 555119, 555768, 556369, 556892, 557337, 558008, 558488, 559028, 559526, 560086, 560566, 560992, 561428, 562036, 562550, 563004]","[550491, 551091, 551691, 552291, 552891, 553491, 554091, 554691, 555130, 555783, 556359, 556904, 557345, 557995, 558480, 559021, 559540, 560072, 560576, 560977, 561439, 562017, 562536, 562988]",94,OR,U,R,ITMSR,1.1,
3,400,trial,0,23,23,23,trial,"['S', 'S', 'S', 'S', 'S', 'S', 'S', 'C', 'C', 'C', 'C', 'C', 'C', 'C', 'C', 'C', 'C', 'C', 'C', 'C', 'C', 'C', 'C']","[568509, 569093, 569697, 570080, 570366, 570775, 571157, 571542, 571940, 572319, 572675, 572996, 573360, 573692, 574083, 574444, 574859, 575212, 575582, 575937, 576302, 576658, 576971]","[568603, 569192, 569800, 570153, 570465, 570867, 571240, 571644, 572050, 572394, 572755, 573081, 573431, 573783, 574164, 574540, 574951, 575314, 575673, 576039, 576395, 576741, 577045]","[169, 38, 219, 208, 27, 69, 51, 62, 101, 253, 197, 153, 146, 116, 173, 17, 253, 189, 179, 209, 157, 195, 107]","[568548, 569126, 569756, 570112, 570375, 570785, 571167, 571552, 571948, 572329, 572712, 573033, 573369, 573732, 574096, 574452, 574869, 575247, 575616, 575970, 576335, 576687, 577005]","[568402, 568802, 569202, 569602, 570002, 570402, 570802, 571202, 571563, 571960, 572339, 572695, 573016, 573380, 573712, 574103, 574465, 574879, 575233, 575602, 575958, 576322, 576678, 576991]",94,OR,U,R,ITMSR,1.1,
1,600,trial,0,24,24,24,trial,"['S', 'S', 'S', 'S', 'S', 'S', 'S', 'C', 'C', 'C', 'C', 'C', 'C', 'C', 'C', 'C', 'C', 'C', 'C', 'C', 'C', 'C', 'C']","[582678, 583391, 584076, 584691, 585303, 585886, 586456, 587076, 587547, 588018, 588544, 589030, 589467, 589891, 590325, 590776, 591145, 591535, 591886, 592262, 592686, 593098, 593574]","[582799, 583540, 584231, 584840, 585448, 586016, 586577, 587217, 587702, 588171, 588669, 589142, 589590, 589986, 590439, 590873, 591287, 591670, 591977, 592342, 592761, 593229, 593684]","[65, 165, 161, 141, 128, 91, 94, 206, 191, 9, 14, 248, 94, 246, 35, 253, 243, 77, 159, 46, 232, 214, 241]","[582737, 583479, 584083, 584763, 585310, 585947, 586519, 587083, 587608, 588099, 588603, 589078, 589535, 589898, 590392, 590832, 591210, 591614, 591944, 592288, 592716, 593171, 593647]","[582404, 583004, 583604, 584204, 584804, 585404, 586004, 586604, 587096, 587567, 588038, 588564, 589050, 589487, 589912, 590345, 590796, 591165, 591555, 591906, 592282, 592706, 593118, 593594]",94,OR,U,R,ITMSR,1.1,
2,400,trial,0,25,25,25,trial,"['S', 'S', 'S', 'S', 'S', 'S', 'C', 'C', 'C', 'C', 'C', 'C', 'C', 'C', 'C', 'C', 'C', 'C', 'C', 'C', 'C', 'C']","[599696, 600087, 600509, 600916, 601323, 601728, 602138, 602501, 602869, 603259, 603641, 604021, 604392, 604815, 605191, 605572, 605976, 606333, 606687, 607106, 607472, 607855]","[599805, 600202, 600612, 601023, 601456, 601840, 602245, 602600, 602994, 603382, 603761, 604143, 604511, 604938, 605306, 605709, 606070, 606431, 606826, 607204, 607608, 607971]","[239, 246, 124, 209, 29, 218, 181, 169, 210, 248, 234, 6, 194, 196, 214, 128, 47, 138, 22, 71, 21, 239]","[599755, 600094, 600518, 600924, 601330, 601774, 602198, 602558, 602931, 603313, 603692, 604048, 604426, 604874, 605220, 605642, 606010, 606365, 606721, 607141, 607546, 607916]","[598985, 599385, 599785, 600185, 600585, 600985, 601385, 601785, 602158, 602521, 602889, 603279, 603661, 604041, 604412, 604835, 605211, 605592, 605997, 606353, 606707, 607126, 607492, 607875]",94,OR,U,R,ITMSR,1.1,
1,600,trial,0,26,26,26,trial,"['S', 'S', 'S', 'S', 'S', 'S', 'C', 'C', 'C', 'C', 'C', 'C', 'C', 'C', 'C', 'C', 'C', 'C', 'C', 'C', 'C', 'C']","[614303, 614872, 615480, 616078, 616699, 617290, 617907, 618360, 618778, 619148, 619512, 619882, 620241, 620591, 620914, 621272, 621668, 622019, 622380, 622775, 623147, 623492]","[614512, 615072, 615661, 616269, 616832, 617387, 617986, 618459, 618864, 619253, 619619, 619974, 620322, 620682, 621010, 621368, 621728, 622110, 622469, 622873, 623233, 623578]","[68, 43, 25, 240, 144, 191, 249, 224, 219, 23, 200, 199, 179, 179, 131, 106, 93, 100, 82, 114, 80, 37]","[614370, 614945, 615512, 616157, 616768, 617321, 617918, 618370, 618811, 619183, 619556, 619916, 620275, 620625, 620952, 621300, 621677, 622056, 622436, 622809, 623175, 623525]","[613206, 613805, 614405, 615005, 615605, 616205, 616805, 617405, 617927, 618380, 618798, 619168, 619532, 619902, 620261, 620611, 620934, 621292, 621688, 622040, 622400, 622795, 623167, 623512]",94,OR,U,R,ITMSR,1.1,
0,400,trial,0,27,27,27,trial,"['S', 'S', 'S', 'S', 'S', 'S', 'S', 'C', 'C', 'C', 'C', 'C', 'C', 'C', 'C', 'C', 'C', 'C', 'C', 'C', 'C', 'C', 'C']","[629457, 629715, 630091, 630523, 630846, 631234, 631586, 631998, 632381, 632758, 633140, 633520, 633884, 634242, 634583, 634911, 635268, 635648, 636022, 636366, 636723, 637051, 637429]","[629603, 629831, 630189, 630558, 630904, 631269, 631660, 632090, 632472, 632845, 633229, 633614, 633968, 634336, 634670, 635001, 635356, 635752, 636122, 636468, 636826, 637178, 637546]","[93, 9, 230, 46, 2, 113, 183, 216, 143, 104, 130, 186, 150, 171, 141, 81, 103, 22, 36, 112, 107, 189, 63]","[629526, 629784, 630121, 630532, 630872, 631242, 631619, 632033, 632412, 632786, 633174, 633554, 633919, 634279, 634615, 634961, 635300, 635683, 636087, 636426, 636760, 637121, 637468]","[628911, 629311, 629711, 630111, 630511, 630912, 631311, 631711, 632018, 632401, 632778, 633160, 633540, 633904, 634262, 634603, 634931, 635288, 635668, 636042, 636386, 636743, 637071, 637449]",94,OR,U,R,ITMSR,1.1,
4,600,trial,0,28,28,28,trial,"['S', 'S', 'S', 'S', 'S', 'S', 'C', 'C', 'C', 'C', 'C', 'C', 'C', 'C', 'C', 'C', 'C', 'C', 'C', 'C', 'C', 'C', 'C']","[643994, 644543, 645156, 645732, 646395, 646933, 647556, 647926, 648232, 648515, 648806, 649110, 649401, 649682, 649958, 650217, 653240, 653618, 654014, 654356, 654714, 655054, 655391]","[644144, 644702, 645301, 645857, 646530, 647088, 647693, 648026, 648318, 648604, 648910, 649197, 649490, 649747, 650042, 650301, 653418, 653813, 654148, 654482, 654882, 655192, 655514]","[42, 200, 211, 72, 126, 86, 53, 121, 52, 128, 37, 2, 245, 235, 146, 175, 222, 82, 45, 247, 248, 4, 231]","[644057, 644571, 645188, 645763, 646428, 647012, 647641, 647960, 648265, 648545, 648836, 649141, 649428, 649709, 649985, 650245, 653310, 653713, 654086, 654430, 654799, 655137, 655465]","[642864, 643464, 644064, 644664, 645264, 645864, 646464, 647064, 647576, 647946, 648252, 648536, 648826, 649131, 649421, 649702, 649978, 653260, 653638, 654034, 654376, 654734, 655074, 655411]",94,OR,U,R,ITMSR,1.1,
4,400,trial,0,29,29,29,trial,"['S', 'S', 'S', 'S', 'S', 'S', 'C', 'C', 'C', 'C', 'C', 'C', 'C', 'C', 'C', 'C', 'C', 'C', 'C', 'C', 'C', 'C', 'C', 'C']","[661531, 661874, 662310, 662710, 663119, 663498, 663897, 664221, 664518, 664777, 665074, 665392, 665700, 666043, 666373, 666669, 666983, 667299, 667575, 667887, 668166, 668472, 668748, 669017]","[661669, 662036, 662467, 662857, 663303, 663671, 664050, 664371, 664609, 664873, 665214, 665523, 665849, 666192, 666502, 666817, 667140, 667424, 667725, 668005, 668318, 668576, 668844]","[62, 189, 197, 229, 247, 234, 222, 218, 197, 150, 184, 104, 107, 181, 143, 207, 165, 175, 183, 158, 162, 115, 136]","[661605, 661951, 662375, 662790, 663195, 663574, 663972, 664299, 664551, 664805, 665167, 665422, 665774, 666120, 666447, 666738, 667055, 667374, 667649, 667957, 668248, 668534, 668773]","[660782, 661181, 661581, 661981, 662381, 662781, 663181, 663581, 663917, 664241, 664538, 665094, 665412, 665720, 666063, 666393, 666689, 667003, 667319, 667595, 667907, 668186, 668492, 668768]",94,OR,U,R,ITMSR,1.1,
5,400,trial,0,30,30,30,trial,"['S', 'S', 'S', 'S', 'S', 'S', 'C', 'C', 'C', 'C', 'C', 'C', 'C', 'C', 'C', 'C', 'C', 'C', 'C', 'C', 'C', 'C']","[678376, 678735, 679153, 679552, 679972, 680344, 680738, 681162, 681572, 681951, 682357, 682736, 683139, 683508, 683880, 684298, 684632, 685043, 685462, 685828, 686237, 686638]","[678506, 678867, 679283, 679660, 680091, 680456, 680872, 681285, 681694, 682060, 682472, 682854, 683245, 683621, 684011, 684408, 684771, 685200, 685565, 685961, 686375, 686764]","[70, 32, 41, 6, 26, 254, 236, 168, 236, 158, 202, 173, 174, 171, 144, 113, 130, 174, 126, 122, 167, 173]","[678406, 678802, 679185, 679581, 680003, 680376, 680770, 681194, 681605, 681980, 682422, 682801, 683169, 683576, 683952, 684332, 684705, 685125, 685519, 685899, 686311, 686703]","[677624, 678024, 678424, 678824, 679224, 679624, 680024, 680424, 680758, 681182, 681592, 681971, 682377, 682756, 683159, 683528, 683900, 684318, 684652, 685063, 685483, 685848, 686257, 686658]",94,OR,U,R,ITMSR,1.1,
2,400,trial,0,31,31,31,trial,"['S', 'S', 'S', 'S', 'C', 'C', 'C', 'C', 'C', 'C', 'C', 'C', 'C', 'C', 'C', 'C', 'C', 'C', 'C', 'C']","[693626, 694023, 694437, 694842, 695251, 695640, 696023, 696442, 696816, 697204, 697580, 697966, 698378, 698754, 699125, 699501, 699873, 700277, 700654, 701009]","[693740, 694132, 694575, 694941, 695362, 695742, 696133, 696529, 696923, 697333, 697715, 698091, 698515, 698869, 699281, 699673, 700021, 700439, 700814, 701201]","[67, 65, 62, 60, 52, 41, 0, 220, 239, 215, 215, 241, 243, 211, 250, 19, 252, 250, 26, 245]","[693656, 694049, 694466, 694868, 695281, 695670, 696052, 696470, 696848, 697278, 697664, 698000, 698459, 698784, 699212, 699584, 699953, 700364, 700733, 701092]","[692119, 692519, 692919, 693319, 693720, 694120, 694520, 694920, 695271, 695660, 696043, 696462, 696836, 697224, 697601, 697986, 698398, 698774, 699145, 699522, 699893, 700297, 700674, 701029]",94,OR,U,R,ITMSR,1.1,
3,600,trial,0,32,32,32,trial,"['S', 'S', 'S', 'S', 'S', 'S', 'C', 'C', 'C', 'C', 'C', 'C', 'C', 'C', 'C', 'C', 'C', 'C', 'C', 'C', 'C', 'C']","[707777, 708321, 708940, 709487, 710070, 710662, 711261, 711762, 712242, 712727, 713141, 713532, 713960, 714381, 714799, 715193, 715580, 715983, 716372, 716762, 717178, 717570]","[707943, 708447, 709094, 709665, 710212, 710845, 711431, 711933, 712468, 712906, 713286, 713683, 714105, 714554, 714992, 715370, 715787, 716193, 716548, 717008, 717411, 717778]","[101, 63, 33, 245, 127, 209, 5, 201, 225, 219, 219, 216, 163, 201, 236, 233, 206, 197, 129, 194, 217, 133]","[707801, 708349, 708966, 709568, 710148, 710737, 711341, 711853, 712326, 712810, 713221, 713615, 714037, 714462, 714892, 715287, 715701, 716097, 716464, 716892, 717317, 717686]","[706617, 707217, 707817, 708417, 709017, 709617, 710217, 710817, 711281, 711782, 712262, 712748, 713161, 713552, 713980, 714401, 714819, 715213, 715600, 716003, 716392, 716782, 717198, 717590]",94,OR,U,R,ITMSR,1.1,
1,600,trial,0,33,33,33,trial,"['S', 'S', 'S', 'S', 'S', 'S', 'C', 'C', 'C', 'C', 'C', 'C', 'C', 'C', 'C', 'C', 'C', 'C', 'C', 'C', 'C', 'C']","[724222, 724732, 725346, 725924, 726535, 727122, 727700, 728118, 728478, 728812, 729164, 729508, 729860, 730203, 730565, 730915, 731257, 731595, 731940, 732277, 732563, 732918]","[724406, 724947, 725542, 726165, 726799, 727388, 727962, 728295, 728624, 728926, 729304, 729662, 729999, 730363, 730719, 731091, 731442, 731750, 732136, 732387, 732756, 733102]","[83, 94, 85, 88, 63, 104, 68, 74, 72, 21, 25, 231, 220, 206, 235, 253, 4, 1, 6, 164, 224, 123]","[724299, 724813, 725422, 726043, 726619, 727205, 727828, 728199, 728557, 728834, 729241, 729589, 729932, 730275, 730649, 730997, 731339, 731685, 732035, 732345, 732651, 733012]","[723039, 723639, 724239, 724839, 725439, 726039, 726639, 727239, 727720, 728138, 728498, 728833, 729184, 729528, 729880, 730223, 730585, 730935, 731277, 731615, 731960, 732297, 732583, 732938]",94,OR,U,R,ITMSR,1.1,
0,400,trial,0,34,34,34,trial,"['S', 'S', 'S', 'S', 'C', 'C', 'C', 'C', 'C', 'C', 'C', 'C', 'C', 'C', 'C', 'C', 'C', 'C', 'C', 'C']","[740129, 740516, 740934, 741339, 741772, 742118, 742435, 742753, 743099, 743455, 743806, 744145, 744469, 744848, 745171, 745507, 745828, 746141, 746469, 746814]","[740254, 740656, 741078, 741478, 741920, 742239, 742540, 742845, 743203, 743577, 743916, 744253, 744587, 744956, 745300, 745635, 745957, 746262, 746628, 746986]","[62, 9, 26, 248, 248, 227, 206, 151, 102, 137, 99, 83, 61, 38, 69, 6, 238, 255, 41, 56]","[740159, 740583, 741012, 741403, 741847, 742145, 742464, 742781, 743129, 743519, 743838, 744206, 744540, 744913, 745245, 745590, 745899, 746205, 746549, 746909]","[738641, 739041, 739441, 739842, 740242, 740642, 741042, 741442, 741792, 742138, 742455, 742773, 743119, 743475, 743826, 744165, 744489, 744868, 745191, 745527, 745848, 746161, 746489, 746834]",94,OR,U,R,ITMSR,1.1,
0,600,trial,0,35,35,35,trial,"['S', 'S', 'S', 'S', 'S', 'S', 'S', 'S', 'C', 'C', 'C', 'C', 'C', 'C', 'C', 'C', 'C', 'C', 'C', 'C', 'C', 'C', 'C', 'C']","[752497, 752761, 753388, 753940, 754535, 755144, 755740, 756334, 756886, 757311, 757634, 757965, 758324, 758678, 759023, 759394, 759727, 760071, 760395, 760774, 761144, 761506, 761885, 762251]","[752615, 752940, 753560, 754164, 754751, 755384, 755954, 756559, 757150, 757421, 757743, 758083, 758450, 758804, 759154, 759511, 759832, 760185, 760528, 760916, 761328, 761666, 762016, 762415]","[99, 221, 40, 39, 50, 254, 234, 200, 162, 166, 174, 167, 81, 49, 97, 56, 87, 42, 20, 67, 92, 121, 83, 148]","[752580, 752831, 753485, 754028, 754616, 755255, 755772, 756406, 757018, 757348, 757666, 757994, 758397, 758754, 759099, 759456, 759767, 760110, 760427, 760806, 761247, 761594, 761959, 762350]","[752276, 752876, 753476, 754076, 754676, 755276, 755876, 756476, 756907, 757331, 757654, 757985, 758344, 758699, 759043, 759414, 759747, 760091, 760415, 760794, 761164, 761526, 761905, 762271]",94,OR,U,R,ITMSR,1.1,
5,600,trial,0,36,36,36,trial,"['S', 'S', 'S', 'S', 'S', 'S', 'C', 'C', 'C', 'C', 'C', 'C', 'C', 'C', 'C', 'C', 'C', 'C', 'C', 'C', 'C', 'C']","[768986, 769502, 770114, 770751, 771302, 771863, 772465, 772810, 773122, 773431, 773736, 774027, 774330, 774627, 774908, 775266, 775604, 775924, 776227, 776544, 776852, 777153]","[769164, 769748, 770342, 770945, 771530, 772120, 772648, 772924, 773232, 773540, 773865, 774159, 774453, 774737, 775030, 775385, 775750, 776044, 776358, 776670, 776986, 777288]","[95, 102, 94, 49, 91, 93, 58, 22, 39, 24, 18, 43, 18, 44, 16, 240, 19, 37, 21, 14, 21, 249]","[769068, 769580, 770141, 770821, 771390, 771945, 772556, 772880, 773149, 773458, 773764, 774054, 774354, 774652, 774936, 775294, 775632, 775949, 776253, 776568, 776877, 777179]","[767823, 768423, 769024, 769624, 770224, 770824, 771424, 772024, 772485, 772830, 773142, 773451, 773756, 774047, 774350, 774647, 774928, 775286, 775624, 775944, 776247, 776564, 776872, 777174]",94,OR,U,R,ITMSR,1.1,
0,400,trial,0,37,37,37,trial,"['S', 'S', 'S', 'S', 'S', 'S', 'S', 'S', 'C', 'C', 'C', 'C', 'C', 'C', 'C', 'C', 'C', 'C', 'C', 'C', 'C', 'C', 'C', 'C', 'C']","[782897, 783214, 783444, 783832, 784196, 784596, 784990, 785376, 785797, 786093, 786354, 786780, 787110, 787394, 787733, 788049, 788367, 788672, 789012, 789337, 789644, 789963, 790258, 790556, 790860]","[783058, 783349, 783566, 783944, 784343, 784736, 785120, 785520, 785905, 786184, 786448, 786890, 787204, 787520, 787843, 788180, 788478, 788783, 789138, 789464, 789762, 790074, 790373, 790660, 790970]","[29, 43, 8, 15, 13, 229, 197, 249, 185, 173, 168, 179, 175, 224, 167, 185, 230, 206, 194, 201, 234, 212, 214, 208, 218]","[782929, 783240, 783471, 783858, 784223, 784628, 785019, 785406, 785824, 786119, 786381, 786812, 787134, 787420, 787758, 788074, 788392, 788700, 789038, 789365, 789669, 789989, 790285, 790582, 790886]","[782682, 783082, 783482, 783882, 784282, 784683, 785082, 785482, 785817, 786113, 786800, 787130, 787415, 787753, 788069, 788387, 788692, 789032, 789357, 789664, 789983, 790278, 790576, 790880]",94,OR,U,R,ITMSR,1.1,
5,400,trial,0,38,38,38,trial,"['S', 'S', 'S', 'S', 'S', 'S', 'C', 'C', 'C', 'C', 'C', 'C', 'C', 'C', 'C', 'C', 'C', 'C', 'C', 'C', 'C', 'C']","[796994, 797426, 797861, 798263, 798669, 799036, 799428, 799788, 800100, 800406, 800752, 801101, 801469, 801821, 802147, 802436, 802789, 803124, 803470, 803784, 804117, 804428]","[797177, 797564, 797969, 798381, 798793, 799160, 799553, 799904, 800182, 800509, 800858, 801198, 801555, 801895, 802203, 802519, 802857, 803237, 803591, 803914, 804240, 804534]","[97, 242, 238, 226, 191, 157, 111, 123, 129, 170, 78, 48, 240, 20, 217, 210, 90, 178, 218, 1, 186, 4]","[797060, 797461, 797891, 798290, 798697, 799067, 799463, 799815, 800125, 800434, 800784, 801131, 801499, 801849, 802173, 802463, 802820, 803156, 803508, 803818, 804193, 804458]","[796307, 796706, 797106, 797506, 797906, 798306, 798706, 799106, 799448, 799808, 800120, 800427, 800772, 801121, 801489, 801841, 802167, 802456, 802809, 803144, 803490, 803804, 804137, 804448]",94,OR,U,R,ITMSR,1.1,
4,600,trial,0,39,39,39,trial,"['S', 'S', 'S', 'S', 'S', 'S', 'C', 'C', 'C', 'C', 'C', 'C', 'C', 'C', 'C', 'C', 'C', 'C', 'C', 'C', 'C', 'C']","[810978, 811509, 812105, 812690, 813290, 813893, 814426, 814807, 815174, 815558, 815932, 816346, 816718, 817103, 817481, 817831, 818172, 818506, 818924, 819276, 819606, 819972]","[811126, 811721, 812274, 812887, 813511, 814104, 814612, 814963, 815305, 815709, 816082, 816502, 816874, 817233, 817566, 817906, 818287, 818636, 819056, 819393, 819755, 820107]","[24, 52, 42, 65, 67, 12, 10, 253, 254, 233, 206, 203, 168, 116, 98, 168, 89, 60, 72, 99, 54, 84]","[811008, 811586, 812174, 812767, 813364, 813969, 814513, 814886, 815248, 815586, 816007, 816415, 816747, 817175, 817508, 817857, 818202, 818544, 818957, 819303, 819635, 820000]","[809798, 810398, 810998, 811598, 812198, 812798, 813399, 813998, 814446, 814827, 815194, 815578, 815952, 816366, 816738, 817123, 817501, 817851, 818192, 818526, 818945, 819296, 819627, 819992]",94,OR,U,R,ITMSR,1.1,
1,400,trial,0,40,40,40,trial,"['S', 'S', 'S', 'S', 'S', 'S', 'C', 'C', 'C', 'C', 'C', 'C', 'C', 'C', 'C', 'C', 'C', 'C', 'C', 'C', 'C', 'C']","[826122, 826489, 826869, 827257, 827646, 828049, 828450, 828812, 829166, 829592, 829950, 830352, 830716, 831100, 831518, 831850, 832199, 832613, 832925, 833284, 833641, 834027]","[826265, 826636, 827016, 827372, 827747, 828140, 828568, 828953, 829322, 829710, 830062, 830447, 830825, 831206, 831599, 831961, 832296, 832706, 833043, 833439, 833787, 834139]","[84, 37, 241, 202, 109, 100, 73, 77, 64, 44, 8, 236, 246, 231, 66, 217, 168, 209, 222, 239, 137, 50]","[826192, 826562, 826901, 827287, 827681, 828083, 828526, 828883, 829248, 829658, 829999, 830390, 830786, 831157, 831556, 831912, 832254, 832664, 832994, 833364, 833711, 834097]","[825392, 825792, 826192, 826592, 826992, 827393, 827792, 828192, 828470, 828832, 829186, 829613, 829970, 830372, 830736, 831120, 831538, 831870, 832219, 832633, 832945, 833304, 833661, 834048]",94,OR,U,R,ITMSR,1.1,
3,400,trial,0,41,41,41,trial,"['S', 'S', 'S', 'S', 'S', 'S', 'C', 'C', 'C', 'C', 'C', 'C', 'C', 'C', 'C', 'C', 'C', 'C', 'C', 'C', 'C', 'C']","[840312, 840729, 841178, 841583, 841994, 842374, 842771, 843143, 843528, 843943, 844289, 844675, 845049, 845425, 845782, 846166, 846536, 846884, 847258, 847613, 847942, 848317]","[840501, 840869, 841316, 841734, 842159, 842527, 842911, 843281, 843695, 844070, 844440, 844806, 845184, 845545, 845873, 846268, 846667, 847025, 847395, 847732, 848103, 848462]","[22, 161, 16, 21, 17, 28, 169, 173, 245, 207, 241, 154, 120, 106, 64, 245, 122, 98, 109, 33, 96, 242]","[840390, 840810, 841205, 841610, 842070, 842448, 842843, 843173, 843614, 843977, 844367, 844749, 845120, 845483, 845819, 846203, 846584, 846964, 847337, 847660, 848021, 848388]","[839645, 840045, 840445, 840845, 841245, 841645, 842045, 842445, 842791, 843163, 843548, 843963, 844309, 844695, 845069, 845445, 845802, 846186, 846556, 846904, 847278, 847633, 847962, 848337]",94,OR,U,R,ITMSR,1.1,
1,400,trial,0,42,42,42,trial,"['S', 'S', 'S', 'S', 'S', 'S', 'C', 'C', 'C', 'C', 'C', 'C', 'C', 'C', 'C', 'C', 'C', 'C', 'C', 'C', 'C', 'C']","[854459, 854831, 855241, 855620, 856026, 856427, 856822, 857155, 857489, 857777, 858084, 858402, 858716, 859035, 859334, 859644, 859954, 860278, 860593, 860924, 861255, 861547]","[854618, 854972, 855394, 855773, 856185, 856571, 856968, 857281, 857615, 857847, 858205, 858512, 858844, 859148, 859444, 859769, 860089, 860393, 860733, 861064, 861378, 861673]","[35, 198, 187, 218, 245, 209, 190, 87, 60, 249, 227, 208, 203, 129, 163, 158, 202, 169, 226, 4, 228, 202]","[854529, 854858, 855269, 855700, 856104, 856506, 856906, 857225, 857559, 857809, 858132, 858443, 858788, 859061, 859374, 859719, 860034, 860315, 860674, 861000, 861327, 861591]","[853747, 854147, 854547, 854947, 855347, 855747, 856147, 856547, 856842, 857176, 857509, 857797, 858104, 858422, 858736, 859055, 859354, 859664, 859974, 860298, 860613, 860944, 861275, 861568]",94,OR,U,R,ITMSR,1.1,
3,400,trial,0,43,43,43,trial,"['S', 'S', 'S', 'S', 'S', 'S', 'S', 'C', 'C', 'C', 'C', 'C', 'C', 'C', 'C', 'C', 'C', 'C', 'C', 'C', 'C', 'C', 'C', 'C', 'C', 'C', 'C', 'C', 'C', 'C']","[867303, 867802, 868208, 868619, 869014, 869415, 869743, 870167, 870460, 870760, 871071, 871374, 871683, 871972, 872246, 872588, 872852, 873108, 873361, 873612, 873835, 874042, 874286, 874498, 874723, 874906, 875110, 875327, 875549, 875802]","[867416, 867900, 868333, 868769, 869118, 869527, 869839, 870308, 870551, 870852, 871174, 871461, 871793, 872030, 872330, 872668, 872938, 873191, 873436, 873701, 873910, 874129, 874353, 874589, 874784, 874978, 875180, 875420, 875651, 875905]","[77, 0, 251, 242, 204, 212, 221, 229, 218, 143, 210, 160, 221, 165, 37, 46, 168, 42, 243, 133, 29, 38, 200, 154, 193, 217, 249, 74, 214, 5]","[867310, 867830, 868235, 868647, 869040, 869447, 869773, 870197, 870489, 870788, 871105, 871415, 871719, 871994, 872275, 872628, 872881, 873134, 873391, 873637, 873867, 874067, 874319, 874530, 874750, 874933, 875144, 875381, 875582, 875838]","[867062, 867462, 867862, 868262, 868662, 869062, 869463, 869862, 870188, 870480, 870780, 871091, 871394, 871703, 871992, 872266, 872608, 873128, 873632, 874062, 874518, 874926, 875347, 875822]",94,OR,U,R,ITMSR,1.1,
0,600,trial,0,44,44,44,trial,"['S', 'S', 'S', 'S', 'S', 'S', 'S', 'S', 'C', 'C', 'C', 'C', 'C', 'C', 'C', 'C', 'C', 'C', 'C', 'C', 'C', 'C', 'C', 'C']","[882082, 882652, 883036, 883615, 884215, 884702, 885144, 885526, 885917, 886250, 886648, 887052, 887412, 887719, 888036, 888338, 888614, 888918, 889198, 889516, 889856, 890174, 890480, 890784]","[882207, 882801, 883204, 883790, 884399, 884937, 885294, 885693, 886085, 886464, 886878, 887215, 887576, 887895, 888170, 888484, 888699, 889051, 889352, 889641, 890000, 890318, 890609, 890953]","[56, 255, 243, 222, 232, 201, 164, 186, 188, 255, 214, 158, 172, 151, 25, 133, 4, 85, 52, 37, 81, 35, 39, 34]","[882086, 882727, 883110, 883706, 884306, 884816, 885219, 885604, 886007, 886366, 886753, 887135, 887518, 887818, 888108, 888413, 888651, 888992, 889265, 889590, 889936, 890249, 890553, 890869]","[881383, 881983, 882583, 883183, 883783, 884383, 884983, 885583, 885937, 886270, 886668, 887072, 887432, 887739, 888056, 888358, 888634, 888938, 889218, 889536, 889876, 890194, 890500, 890804]",94,OR,U,R,ITMSR,1.1,
2,600,trial,0,45,45,45,trial,"['S', 'S', 'S', 'S', 'S', 'S', 'S', 'C', 'C', 'C', 'C', 'C', 'C', 'C', 'C', 'C', 'C', 'C', 'C', 'C', 'C', 'C', 'C']","[896923, 897334, 897887, 898490, 899084, 899687, 900235, 900839, 901248, 901632, 902032, 902412, 902809, 903190, 903531, 903918, 904290, 904705, 905056, 905459, 905878, 906248, 906636]","[897064, 897517, 898094, 898680, 899289, 899916, 900457, 901063, 901412, 901841, 902218, 902609, 902958, 903327, 903747, 904107, 904493, 904893, 905259, 905649, 906079, 906463, 906864]","[96, 100, 92, 59, 58, 38, 17, 237, 162, 145, 177, 113, 84, 234, 28, 51, 103, 255, 51, 20, 23, 115, 147]","[896927, 897338, 897891, 898494, 899088, 899692, 900327, 900845, 901254, 901734, 902125, 902516, 902885, 903260, 903615, 904019, 904414, 904796, 905156, 905568, 905987, 906391, 906767]","[896186, 896786, 897386, 897986, 898586, 899186, 899786, 900386, 900859, 901268, 901652, 902052, 902432, 902829, 903211, 903552, 903938, 904310, 904725, 905076, 905479, 905899, 906268, 906656]",94,OR,U,R,ITMSR,1.1,
4,400,trial,0,46,46,46,trial,"['S', 'S', 'S', 'S', 'S', 'S', 'C', 'C', 'C', 'C', 'C', 'C', 'C', 'C', 'C', 'C', 'C', 'C', 'C', 'C', 'C', 'C', 'C', 'C', 'C', 'C', 'C', 'C']","[913270, 913598, 914016, 914394, 914789, 915134, 915514, 915822, 916124, 916447, 916773, 917066, 917397, 917678, 917983, 918266, 918496, 918742, 919011, 919265, 919511, 919752, 919987, 920198, 920454, 920702, 920982, 921226]","[913411, 913745, 914179, 914526, 914898, 915256, 915609, 915921, 916236, 916529, 916849, 917168, 917488, 917765, 918075, 918286, 918553, 918822, 919067, 919383, 919599, 919837, 920073, 920294, 920542, 920820, 921077]","[12, 76, 92, 20, 241, 108, 155, 110, 249, 103, 130, 120, 4, 21, 249, 47, 69, 132, 182, 228, 134, 141, 34, 224, 248, 121, 241]","[913327, 913603, 914020, 914400, 914795, 915143, 915521, 915829, 916131, 916454, 916782, 917074, 917455, 917684, 917990, 918270, 918501, 918747, 919018, 919334, 919518, 919760, 920028, 920206, 920513, 920709, 920988]","[912416, 912816, 913216, 913616, 914016, 914416, 914817, 915216, 915534, 915842, 916144, 916467, 916793, 917086, 917417, 917698, 918003, 918286, 918762, 919285, 919772, 920218, 920722, 921003]",94,OR,U,R,ITMSR,1.1,
3,600,trial,0,47,47,47,trial,"['S', 'S', 'S', 'S', 'S', 'S', 'C', 'C', 'C', 'C', 'C', 'C', 'C', 'C', 'C', 'C', 'C', 'C', 'C', 'C', 'C', 'C']","[927533, 928139, 928702, 929274, 929879, 930466, 931067, 931522, 931954, 932385, 932784, 933168, 933555, 933954, 934324, 934706, 935064, 935412, 935767, 936145, 936486, 936882]","[927761, 928369, 928959, 929538, 930190, 930750, 931288, 931687, 932151, 932547, 932944, 933316, 933687, 934071, 934455, 934845, 935192, 935515, 935865, 936280, 936637, 937031]","[110, 100, 110, 112, 36, 244, 172, 195, 195, 93, 64, 41, 42, 170, 167, 197, 121, 145, 9, 121, 110, 151]","[927548, 928163, 928707, 929277, 929883, 930470, 931092, 931526, 931979, 932405, 932806, 933246, 933579, 933971, 934344, 934726, 935080, 935426, 935790, 936161, 936511, 936900]","[926371, 926971, 927571, 928172, 928771, 929371, 929971, 930571, 931087, 931543, 931974, 932405, 932804, 933188, 933575, 933975, 934344, 934726, 935085, 935432, 935787, 936165, 936506, 936902]",94,OR,U,R,ITMSR,1.1,
1,600,trial,0,48,48,48,trial,"['S', 'S', 'C', 'C', 'C', 'C', 'C', 'C', 'C', 'C', 'C', 'C', 'C', 'C', 'C', 'C', 'C', 'C']","[945891, 946506, 947057, 947566, 948085, 948636, 949122, 949662, 950139, 950653, 951126, 951649, 952112, 952606, 953101, 953560, 954055, 954553]","[946081, 946679, 947275, 947815, 948323, 948816, 949277, 949798, 950268, 950771, 951251, 951757, 952249, 952731, 953187, 953675, 954175, 954664]","[136, 54, 99, 17, 12, 20, 16, 254, 209, 239, 0, 253, 36, 241, 241, 87, 149, 213]","[945905, 946582, 947078, 947587, 948110, 948660, 949143, 949687, 950165, 950675, 951151, 951669, 952132, 952636, 953121, 953583, 954075, 954579]","[942351, 942951, 943551, 944151, 944751, 945351, 945951, 946551, 947077, 947586, 948105, 948656, 949142, 949682, 950159, 950673, 951146, 951669, 952132, 952626, 953121, 953580, 954075, 954573]",94,OR,U,R,ITMSR,1.1,
4,600,trial,0,49,49,49,trial,"['C', 'C', 'C', 'C', 'C', 'C', 'C', 'C', 'C', 'C', 'C', 'C', 'C', 'C', 'C', 'C']","[965178, 965756, 966289, 966876, 967468, 968070, 968693, 969240, 969816, 970349, 970903, 971457, 971973, 972545, 973139, 973664]","[965357, 965951, 966438, 967040, 967652, 968239, 968885, 969517, 969999, 970522, 971107, 971657, 972215, 972824, 973345, 973931]","[134, 96, 55, 11, 25, 250, 237, 250, 7, 184, 243, 227, 11, 175, 206, 115]","[965199, 965781, 966312, 966904, 967494, 968099, 968727, 969264, 969838, 970434, 970927, 971488, 971999, 972567, 973171, 973763]","[960208, 960808, 961409, 962008, 962608, 963208, 963808, 964408, 965198, 965776, 966309, 966896, 967488, 968090, 968713, 969261, 969836, 970370, 970924, 971478, 971993, 972565, 973159, 973684]",94,OR,U,R,ITMSR,1.1,
2,600,trial,0,50,50,50,trial,"['S', 'S', 'S', 'S', 'S', 'S', 'C', 'C', 'C', 'C', 'C', 'C', 'C', 'C', 'C', 'C', 'C', 'C', 'C', 'C', 'C', 'C']","[980613, 981088, 981720, 982289, 982917, 983501, 984127, 984759, 985322, 985906, 986413, 986917, 987459, 987867, 988314, 988838, 989362, 989860, 990309, 990789, 991332, 991807]","[980747, 981229, 981846, 982409, 983042, 983663, 984308, 984925, 985506, 986114, 986683, 987121, 987660, 988008, 988562, 989099, 989587, 990082, 990521, 991010, 991539, 992060]","[240, 226, 44, 228, 17, 21, 59, 13, 9, 13, 7, 182, 14, 206, 7, 27, 229, 34, 3, 8, 10, 19]","[980634, 981115, 981747, 982331, 982942, 983533, 984154, 984784, 985349, 985940, 986443, 987025, 987550, 987894, 988407, 988940, 989453, 989947, 990397, 990879, 991360, 991901]","[979414, 980013, 980613, 981213, 981813, 982413, 983013, 983613, 984147, 984779, 985342, 985926, 986433, 986937, 987480, 987887, 988334, 988858, 989382, 989880, 990329, 990809, 991352, 991827]",94,OR,U,R,ITMSR,1.1,
5,600,trial,0,51,51,51,trial,"['S', 'S', 'S', 'S', 'S', 'S', 'S', 'S', 'S', 'C', 'C', 'C', 'C', 'C', 'C', 'C', 'C', 'C', 'C', 'C', 'C', 'C', 'C', 'C', 'C']","[997902, 998326, 998628, 999256, 999779, 1000351, 1000788, 1001257, 1001691, 1002156, 1002595, 1003041, 1003486, 1003976, 1004438, 1004948, 1005413, 1005911, 1006367, 1006833, 1007306, 1007737, 1008219, 1008721, 1009164]","[998047, 998465, 998784, 999441, 999968, 1000563, 1001044, 1001506, 1001905, 1002340, 1002798, 1003210, 1003689, 1004187, 1004617, 1005086, 1005614, 1006091, 1006547, 1007037, 1007536, 1007906, 1008447, 1008898, 1009305]","[65, 34, 131, 115, 116, 115, 94, 83, 99, 107, 57, 9, 99, 95, 61, 86, 26, 231, 32, 41, 27, 124, 156, 162, 85]","[997922, 998348, 998645, 999278, 999806, 1000375, 1000812, 1001280, 1001714, 1002180, 1002682, 1003069, 1003573, 1004058, 1004529, 1004964, 1005437, 1006002, 1006452, 1006913, 1007390, 1007820, 1008303, 1008749, 1009186]","[997500, 998100, 998701, 999301, 999901, 1000501, 1001101, 1001701, 1002176, 1002615, 1003061, 1003506, 1003996, 1004459, 1004968, 1005433, 1005931, 1006387, 1006853, 1007326, 1007757, 1008239, 1008741, 1009184]",94,OR,U,R,ITMSR,1.1,
4,400,trial,0,52,52,52,trial,"['S', 'S', 'S', 'S', 'C', 'C', 'C', 'C', 'C', 'C', 'C', 'C', 'C', 'C', 'C', 'C', 'C', 'C', 'C', 'C']","[1016094, 1016556, 1016989, 1017362, 1017774, 1018153, 1018568, 1018946, 1019351, 1019783, 1020180, 1020563, 1020846, 1021266, 1021670, 1022032, 1022426, 1022729, 1023149, 1023549]","[1016265, 1016722, 1017065, 1017414, 1017800, 1018278, 1018613, 1019085, 1019486, 1019901, 1020229, 1020610, 1020913, 1021376, 1021724, 1022094, 1022472, 1022806, 1023205, 1023596]","[15, 4, 252, 129, 171, 189, 51, 208, 206, 160, 91, 239, 218, 139, 248, 225, 58, 176, 251, 218]","[1016115, 1016580, 1017004, 1017375, 1017785, 1018178, 1018585, 1018977, 1019377, 1019807, 1020201, 1020585, 1020873, 1021293, 1021692, 1022061, 1022450, 1022756, 1023170, 1023570]","[1014589, 1014989, 1015389, 1015789, 1016189, 1016589, 1016989, 1017389, 1017794, 1018173, 1018588, 1018967, 1019371, 1019803, 1020200, 1020583, 1020866, 1021286, 1021690, 1022052, 1022446, 1022749, 1023169, 1023569]",94,OR,U,R,ITMSR,1.1,
2,400,trial,0,53,53,53,trial,"['S', 'S', 'S', 'S', 'C', 'C', 'C', 'C', 'C', 'C', 'C', 'C', 'C', 'C', 'C', 'C', 'C', 'C', 'C', 'C']","[1030747, 1031181, 1031585, 1032010, 1032411, 1032790, 1033219, 1033615, 1033977, 1034358, 1034716, 1035080, 1035482, 1035836, 1036195, 1036605, 1036975, 1037337, 1037748, 1038078]","[1030891, 1031356, 1031746, 1032133, 1032574, 1032943, 1033345, 1033718, 1034116, 1034483, 1034831, 1035206, 1035608, 1035975, 1036333, 1036743, 1037119, 1037473, 1037894, 1038221]","[91, 74, 84, 35, 71, 32, 9, 245, 238, 244, 181, 225, 239, 184, 179, 229, 202, 163, 247, 12]","[1030768, 1031208, 1031606, 1032034, 1032436, 1032815, 1033243, 1033639, 1034003, 1034385, 1034741, 1035101, 1035507, 1035865, 1036219, 1036625, 1036998, 1037364, 1037770, 1038103]","[1029268, 1029667, 1030067, 1030467, 1030867, 1031267, 1031667, 1032067, 1032431, 1032810, 1033239, 1033635, 1033997, 1034378, 1034736, 1035100, 1035502, 1035856, 1036215, 1036625, 1036995, 1037357, 1037768, 1038098]",94,OR,U,R,ITMSR,1.1,
3,400,trial,0,54,54,54,trial,"['S', 'S', 'S', 'S', 'C', 'C', 'C', 'C', 'C', 'C', 'C', 'C', 'C', 'C', 'C', 'C', 'C', 'C', 'C', 'C']","[1056284, 1056768, 1057192, 1057584, 1057979, 1058372, 1058782, 1059191, 1059597, 1059989, 1060393, 1060765, 1061159, 1061556, 1061962, 1062362, 1062744, 1063148, 1063527, 1063931]","[1056425, 1056925, 1057325, 1057722, 1058113, 1058523, 1058911, 1059317, 1059667, 1060062, 1060464, 1060832, 1061233, 1061641, 1062035, 1062429, 1062828, 1063214, 1063597, 1064005]","[116, 99, 89, 101, 93, 65, 72, 67, 61, 15, 9, 247, 246, 254, 8, 83, 88, 35, 33, 15]","[1056306, 1056796, 1057216, 1057611, 1058008, 1058404, 1058811, 1059221, 1059622, 1059996, 1060401, 1060792, 1061169, 1061583, 1061969, 1062368, 1062749, 1063154, 1063534, 1063939]","[1054747, 1055148, 1055547, 1055947, 1056347, 1056747, 1057147, 1057547, 1057999, 1058392, 1058802, 1059211, 1059617, 1060009, 1060413, 1060785, 1061179, 1061576, 1061982, 1062382, 1062764, 1063169, 1063547, 1063951]",94,OR,U,R,ITMSR,1.1,
5,600,trial,0,55,55,55,trial,"['S', 'S', 'S', 'S', 'C', 'C', 'C', 'C', 'C', 'C', 'C', 'C', 'C', 'C', 'C', 'C', 'C', 'C', 'C', 'C']","[1071888, 1072573, 1073172, 1073750, 1074317, 1074875, 1075423, 1075954, 1076481, 1077057, 1077590, 1078152, 1078643, 1079197, 1079770, 1080382, 1080965, 1081555, 1082148, 1082719]","[1072087, 1072762, 1073418, 1073989, 1074583, 1075131, 1075642, 1076168, 1076684, 1077295, 1077786, 1078353, 1078816, 1079393, 1080045, 1080639, 1081213, 1081766, 1082436, 1082972]","[87, 69, 119, 134, 140, 105, 93, 105, 90, 85, 105, 98, 98, 41, 75, 47, 29, 36, 21, 222]","[1071916, 1072600, 1073200, 1073774, 1074342, 1074978, 1075518, 1075983, 1076519, 1077090, 1077596, 1078176, 1078675, 1079281, 1079876, 1080412, 1080997, 1081658, 1082286, 1082748]","[1069599, 1070199, 1070799, 1071399, 1072000, 1072600, 1073200, 1073800, 1074337, 1074895, 1075443, 1075974, 1076501, 1077078, 1077610, 1078172, 1078663, 1079217, 1079790, 1080402, 1080985, 1081575, 1082168, 1082739]",94,OR,U,R,ITMSR,1.1,
2,400,trial,0,56,56,56,trial,"['S', 'S', 'S', 'S', 'S', 'S', 'C', 'C', 'C', 'C', 'C', 'C', 'C', 'C', 'C', 'C', 'C', 'C', 'C', 'C', 'C', 'C']","[1089019, 1089453, 1089847, 1090231, 1090609, 1090935, 1091361, 1091812, 1092185, 1092604, 1093010, 1093436, 1093816, 1094191, 1094611, 1095002, 1095401, 1095768, 1096193, 1096563, 1096973, 1097350]","[1089111, 1089542, 1089923, 1090282, 1090669, 1091044, 1091463, 1091884, 1092318, 1092720, 1093085, 1093486, 1093857, 1094262, 1094664, 1095034, 1095453, 1095831, 1096235, 1096632, 1097029, 1097476]","[135, 49, 64, 42, 161, 3, 233, 6, 237, 248, 255, 159, 201, 150, 150, 176, 214, 220, 161, 191, 159, 235]","[1089024, 1089460, 1089853, 1090237, 1090618, 1090981, 1091371, 1091820, 1092194, 1092613, 1093019, 1093447, 1093825, 1094201, 1094622, 1095014, 1095408, 1095776, 1096202, 1096576, 1096983, 1097359]","[1088240, 1088641, 1089040, 1089440, 1089840, 1090240, 1090640, 1091040, 1091381, 1091832, 1092205, 1092624, 1093030, 1093456, 1093836, 1094211, 1094631, 1095022, 1095421, 1095788, 1096213, 1096583, 1096993, 1097370]",94,OR,U,R,ITMSR,1.1,
0,600,trial,0,57,57,57,trial,"['S', 'S', 'S', 'S', 'S', 'S', 'C', 'C', 'C', 'C', 'C', 'C', 'C', 'C', 'C', 'C', 'C', 'C', 'C', 'C', 'C', 'C']","[1104421, 1104899, 1105470, 1106038, 1106639, 1107241, 1107815, 1108374, 1108920, 1109459, 1109986, 1110497, 1110977, 1111501, 1112016, 1112532, 1113020, 1113483, 1113981, 1114509, 1115055, 1115530]","[1104552, 1105085, 1105743, 1106286, 1106885, 1107525, 1108144, 1108715, 1109293, 1109797, 1110216, 1110731, 1111329, 1111767, 1112343, 1112807, 1113287, 1113790, 1114302, 1114902, 1115382]","[39, 108, 99, 17, 72, 92, 69, 59, 23, 18, 208, 223, 233, 160, 168, 189, 181, 165, 173, 113, 143]","[1104448, 1104923, 1105495, 1106073, 1106663, 1107336, 1107843, 1108468, 1109012, 1109483, 1110078, 1110596, 1111081, 1111613, 1112119, 1112628, 1113124, 1113581, 1114083, 1114631, 1115143]","[1103157, 1103757, 1104357, 1104957, 1105557, 1106157, 1106757, 1107357, 1107835, 1108395, 1108940, 1109479, 1110006, 1110517, 1110998, 1111521, 1112036, 1112552, 1113040, 1113503, 1114001, 1114529, 1115075, 1115550]",94,OR,U,R,ITMSR,1.1,
2,600,trial,0,58,58,58,trial,"['S', 'S', 'S', 'S', 'S', 'S', 'C', 'C', 'C', 'C', 'C', 'C', 'C', 'C', 'C', 'C', 'C', 'C', 'C', 'C', 'C', 'C']","[1122502, 1123051, 1123588, 1124377, 1124794, 1125359, 1125970, 1126619, 1127181, 1127750, 1128309, 1128939, 1129495, 1130039, 1130575, 1131118, 1131791, 1132266, 1132815, 1133294, 1133852, 1134422]","[1122640, 1123106, 1123641, 1124440, 1124915, 1125486, 1126133, 1126756, 1127332, 1127883, 1128459, 1129079, 1129639, 1130173, 1130708, 1131292, 1131941, 1132413, 1132952, 1133485, 1133997, 1134551]","[0, 43, 206, 182, 63, 249, 62, 230, 3, 127, 145, 80, 136, 125, 137, 55, 113, 108, 164, 150, 237, 205]","[1122524, 1123074, 1123610, 1124406, 1124811, 1125372, 1125980, 1126670, 1127190, 1127809, 1128376, 1128992, 1129545, 1130081, 1130627, 1131183, 1131845, 1132304, 1132853, 1133359, 1133927, 1134455]","[1121311, 1121911, 1122511, 1123111, 1123712, 1124312, 1124912, 1125512, 1125990, 1126639, 1127201, 1127770, 1128329, 1128960, 1129516, 1130059, 1130595, 1131138, 1131811, 1132286, 1132835, 1133314, 1133872, 1134442]",94,OR,U,R,ITMSR,1.1,
3,600,trial,0,59,59,59,trial,"['S', 'S', 'S', 'S', 'S', 'S', 'S', 'C', 'C', 'C', 'C', 'C', 'C', 'C', 'C', 'C', 'C', 'C', 'C', 'C', 'C', 'C', 'C']","[1140690, 1141338, 1141949, 1142474, 1143065, 1143648, 1144261, 1144857, 1145484, 1146085, 1146679, 1147273, 1147850, 1148463, 1149069, 1149735, 1150352, 1150994, 1151628, 1152186, 1152855, 1153417, 1154102]","[1140840, 1141424, 1142089, 1142689, 1143251, 1143886, 1144578, 1145232, 1145808, 1146492, 1147069, 1147600, 1148280, 1148862, 1149555, 1150156, 1150799, 1151446, 1152045, 1152715, 1153250, 1153924]","[165, 239, 189, 13, 18, 4, 244, 237, 87, 70, 166, 15, 97, 51, 231, 136, 228, 198, 142, 220, 2, 195]","[1140694, 1141348, 1141961, 1142482, 1143070, 1143654, 1144267, 1144863, 1145613, 1146093, 1146686, 1147488, 1147858, 1148470, 1149076, 1149742, 1150360, 1151001, 1151974, 1152566, 1152861, 1153866]","[1140203, 1140802, 1141402, 1142002, 1142602, 1143202, 1143802, 1144402, 1144877, 1145504, 1146105, 1146699, 1147293, 1147870, 1148483, 1149089, 1149755, 1150372, 1151014, 1151648, 1152206, 1152875, 1153437, 1154122]",94,OR,U,R,ITMSR,1.1,
4,600,trial,0,60,60,60,trial,"['S', 'S', 'S', 'S', 'S', 'C', 'C', 'C', 'C', 'C', 'C', 'C', 'C', 'C', 'C', 'C', 'C', 'C', 'C', 'C', 'C']","[1161397, 1161928, 1162475, 1163044, 1163614, 1164123, 1164659, 1165195, 1165811, 1166565, 1167127, 1167685, 1168265, 1168821, 1169451, 1169987, 1170533, 1171018, 1171698, 1172302, 1172984]","[1161570, 1162135, 1162637, 1163079, 1163635, 1164165, 1164679, 1165215, 1165933, 1166670, 1167242, 1167841, 1168431, 1168996, 1169588, 1170119, 1170647, 1171194, 1171865, 1172416, 1173144]","[105, 24, 85, 122, 102, 140, 201, 200, 76, 62, 153, 45, 18, 53, 234, 31, 28, 2, 30, 83, 70]","[1161401, 1161933, 1162480, 1163052, 1163620, 1164129, 1164664, 1165202, 1165816, 1166572, 1167133, 1167692, 1168272, 1168826, 1169456, 1169993, 1170539, 1171023, 1171704, 1172306, 1172990]","[1159494, 1160094, 1160694, 1161294, 1161894, 1162494, 1163095, 1163694, 1164143, 1164679, 1165215, 1165831, 1166585, 1167148, 1167705, 1168285, 1168841, 1169471, 1170008, 1170553, 1171038, 1171718, 1172322, 1173004]",94,OR,U,R,ITMSR,1.1,
1,400,trial,0,61,61,61,trial,"['S', 'S', 'S', 'S', 'C', 'C', 'C', 'C', 'C', 'C', 'C', 'C', 'C', 'C', 'C', 'C', 'C', 'C', 'C', 'C']","[1180171, 1180591, 1181005, 1181423, 1181771, 1182163, 1182533, 1182941, 1183298, 1183708, 1184061, 1184650, 1184973, 1185311, 1185702, 1185991, 1186385, 1186716, 1187085, 1187435]","[1180241, 1180638, 1181061, 1181470, 1181814, 1182195, 1182584, 1182976, 1183339, 1183747, 1184103, 1184691, 1185022, 1185383, 1185736, 1186089, 1186437, 1186789, 1187164, 1187515]","[140, 174, 204, 154, 157, 4, 96, 19, 222, 210, 74, 159, 225, 122, 228, 78, 223, 100, 122, 209]","[1180180, 1180597, 1181012, 1181432, 1181778, 1182173, 1182544, 1182952, 1183310, 1183721, 1184071, 1184660, 1184982, 1185321, 1185712, 1186002, 1186397, 1186727, 1187095, 1187444]","[1178655, 1179055, 1179455, 1179855, 1180255, 1180655, 1181056, 1181455, 1181791, 1182183, 1182553, 1182961, 1183319, 1183728, 1184081, 1184670, 1184993, 1185331, 1185722, 1186011, 1186405, 1186736, 1187105, 1187456]",94,OR,U,R,ITMSR,1.1,
1,600,trial,0,62,62,62,trial,"['S', 'S', 'S', 'S', 'S', 'S', 'S', 'C', 'C', 'C', 'C', 'C', 'C', 'C', 'C', 'C', 'C', 'C', 'C', 'C', 'C', 'C', 'C']","[1193768, 1194234, 1194843, 1195387, 1195960, 1196604, 1197124, 1197725, 1198188, 1198680, 1199138, 1199613, 1200064, 1200532, 1201047, 1201488, 1201987, 1202504, 1202987, 1203489, 1204038, 1204569, 1205104]","[1193894, 1194498, 1195106, 1195607, 1196065, 1196705, 1197301, 1197854, 1198360, 1198889, 1199352, 1199844, 1200278, 1200751, 1201191, 1201722, 1202143, 1202656, 1203102, 1203607, 1204163, 1204703, 1205275]","[104, 251, 222, 105, 82, 210, 248, 36, 135, 153, 167, 151, 247, 216, 88, 172, 80, 138, 98, 101, 146, 103, 18]","[1193773, 1194242, 1194850, 1195395, 1195968, 1196612, 1197132, 1197733, 1198196, 1198809, 1199272, 1199755, 1200159, 1200674, 1201117, 1201626, 1201996, 1202510, 1202997, 1203495, 1204045, 1204576, 1205202]","[1193121, 1193721, 1194321, 1194921, 1195522, 1196122, 1196722, 1197322, 1197745, 1198209, 1198700, 1199158, 1199633, 1200084, 1200552, 1201068, 1201508, 1202008, 1202524, 1203007, 1203509, 1204058, 1204589, 1205124]",94,OR,U,R,ITMSR,1.1,
5,600,trial,0,63,63,63,trial,"['S', 'S', 'S', 'S', 'S', 'S', 'S', 'S', 'C', 'C', 'C', 'C', 'C', 'C', 'C', 'C', 'C', 'C', 'C', 'C', 'C', 'C', 'C', 'C', 'C']","[1211951, 1212051, 1212499, 1212599, 1213071, 1213630, 1214222, 1214862, 1215481, 1216773, 1217371, 1218044, 1218144, 1218658, 1219972, 1220548, 1221078, 1221600, 1222178, 1222720, 1223238, 1223790, 1224329, 1224852, 1225380]","[1211971, 1212121, 1212519, 1212675, 1213215, 1213650, 1214242, 1214882, 1215501, 1216946, 1217526, 1218064, 1218182, 1218678, 1220174, 1220736, 1221242, 1221752, 1222364, 1222846, 1223383, 1223973, 1224459, 1225007, 1225566]","[102, 249, 198, 90, 115, 160, 94, 199, 107, 90, 215, 208, 137, 70, 177, 169, 236, 124, 189, 148, 195, 218, 214, 206, 206]","[1211955, 1212051, 1212504, 1212615, 1213075, 1213632, 1214223, 1214864, 1215482, 1216778, 1217376, 1218048, 1218152, 1218661, 1219977, 1220555, 1221084, 1221604, 1222273, 1222729, 1223245, 1223796, 1224336, 1224859, 1225389]","[1210754, 1211354, 1211954, 1212554, 1213154, 1213754, 1214354, 1214954, 1215501, 1216793, 1217391, 1218064, 1218678, 1219992, 1220568, 1221098, 1221620, 1222198, 1222740, 1223258, 1223810, 1224349, 1224872, 1225400]",94,OR,U,R,ITMSR,1.1,
2,600,trial,0,64,64,64,trial,"['S', 'S', 'S', 'S', 'S', 'S', 'C', 'C', 'C', 'C', 'C', 'C', 'C', 'C', 'C', 'C', 'C', 'C', 'C', 'C', 'C', 'C']","[1231845, 1232367, 1233017, 1233596, 1234168, 1234771, 1235383, 1235964, 1236525, 1237074, 1237644, 1238199, 1238742, 1239307, 1239727, 1240308, 1240811, 1241282, 1241740, 1242232, 1242742, 1243239]","[1231947, 1232515, 1233145, 1233738, 1234341, 1234965, 1235602, 1236152, 1236711, 1237256, 1237812, 1238344, 1238944, 1239442, 1239855, 1240565, 1241061, 1241483, 1241940, 1242435, 1243012, 1243492]","[195, 182, 186, 71, 92, 201, 118, 77, 53, 73, 26, 81, 158, 154, 237, 5, 46, 38, 231, 242, 255, 248]","[1231853, 1232376, 1233026, 1233604, 1234177, 1234779, 1235515, 1236070, 1236533, 1237083, 1237652, 1238208, 1238750, 1239314, 1239796, 1240317, 1240819, 1241398, 1241854, 1242353, 1242924, 1243368]","[1230738, 1231338, 1231938, 1232538, 1233138, 1233738, 1234338, 1234938, 1235403, 1235984, 1236545, 1237094, 1237664, 1238219, 1238762, 1239327, 1239747, 1240328, 1240832, 1241303, 1241760, 1242252, 1242762, 1243259]",94,OR,U,R,ITMSR,1.1,
0,400,trial,0,65,65,65,trial,"['S', 'S', 'S', 'S', 'C', 'C', 'C', 'C', 'C', 'C', 'C', 'C', 'C', 'C', 'C', 'C', 'C', 'C', 'C', 'C', 'C']","[1250504, 1250944, 1251354, 1251726, 1252120, 1252531, 1252636, 1252936, 1253307, 1253756, 1254174, 1254605, 1255011, 1255386, 1255767, 1256185, 1256549, 1256942, 1257367, 1257763, 1258196]","[1250601, 1251036, 1251453, 1251836, 1252220, 1252556, 1252657, 1253041, 1253451, 1253872, 1254261, 1254687, 1255078, 1255406, 1255864, 1256279, 1256665, 1257062, 1257389, 1257859, 1258216]","[217, 199, 195, 184, 191, 200, 146, 136, 56, 196, 251, 40, 150, 128, 155, 39, 231, 247, 200, 73, 240]","[1250510, 1250950, 1251357, 1251732, 1252127, 1252537, 1252636, 1252942, 1253313, 1253764, 1254180, 1254611, 1255017, 1255391, 1255773, 1256192, 1256555, 1256949, 1257372, 1257771, 1258203]","[1248955, 1249354, 1249754, 1250154, 1250554, 1250954, 1251354, 1251755, 1252141, 1252551, 1252956, 1253327, 1253776, 1254194, 1254625, 1255031, 1255406, 1255787, 1256205, 1256569, 1256962, 1257388, 1257783, 1258216]",94,OR,U,R,ITMSR,1.1,
3,400,trial,0,66,66,66,trial,"['S', 'S', 'S', 'S', 'S', 'S', 'C', 'C', 'C', 'C', 'C', 'C', 'C', 'C', 'C', 'C', 'C', 'C', 'C', 'C', 'C', 'C']","[1264623, 1265036, 1265454, 1265840, 1266232, 1266654, 1267064, 1267439, 1267826, 1268230, 1268620, 1268978, 1269340, 1269711, 1270120, 1270502, 1270905, 1271290, 1271687, 1272039, 1272451, 1272817]","[1264762, 1265196, 1265598, 1265938, 1266332, 1266742, 1267134, 1267517, 1267908, 1268298, 1268718, 1269056, 1269411, 1269808, 1270279, 1270628, 1271048, 1271413, 1271784, 1272172, 1272583, 1272968]","[194, 193, 163, 245, 12, 29, 227, 223, 216, 190, 231, 180, 73, 105, 162, 166, 190, 186, 182, 147, 174, 222]","[1264679, 1265044, 1265461, 1265846, 1266238, 1266660, 1267070, 1267445, 1267833, 1268237, 1268625, 1268985, 1269348, 1269719, 1270127, 1270509, 1270912, 1271297, 1271693, 1272045, 1272457, 1272823]","[1263890, 1264290, 1264690, 1265090, 1265490, 1265890, 1266290, 1266690, 1267084, 1267459, 1267846, 1268250, 1268640, 1268998, 1269360, 1269731, 1270140, 1270522, 1270925, 1271310, 1271707, 1272059, 1272471, 1272837]",94,OR,U,R,ITMSR,1.1,
0,600,trial,0,67,67,67,trial,"['S', 'S', 'S', 'S', 'S', 'S', 'S', 'C', 'C', 'C', 'C', 'C', 'C', 'C', 'C', 'C', 'C', 'C', 'C', 'C', 'C', 'C', 'C']","[1278811, 1279616, 1280232, 1280831, 1281444, 1281993, 1282617, 1283197, 1283860, 1284465, 1285063, 1285600, 1286212, 1286852, 1287385, 1287998, 1288595, 1289181, 1289752, 1290278, 1290890, 1291485, 1292096]","[1278910, 1279814, 1280461, 1281124, 1281501, 1282014, 1282640, 1283218, 1283949, 1284564, 1285146, 1285691, 1286290, 1286950, 1287457, 1288112, 1288686, 1289274, 1289805, 1290350, 1290981, 1291600, 1292198]","[176, 82, 2, 100, 141, 229, 9, 124, 171, 160, 156, 133, 131, 146, 176, 113, 159, 250, 86, 85, 132, 132, 179]","[1278819, 1279620, 1280237, 1280836, 1281452, 1281999, 1282625, 1283205, 1283866, 1284471, 1285069, 1285606, 1286218, 1286859, 1287391, 1288004, 1288600, 1289188, 1289760, 1290286, 1290896, 1291491, 1292103]","[1278507, 1279106, 1279706, 1280306, 1280906, 1281506, 1282106, 1282706, 1283217, 1283880, 1284485, 1285083, 1285620, 1286232, 1286872, 1287405, 1288018, 1288615, 1289201, 1289773, 1290298, 1290910, 1291505, 1292116]",94,OR,U,R,ITMSR,1.1,
1,600,trial,0,68,68,68,trial,"['S', 'S', 'S', 'S', 'S', 'C', 'C', 'C', 'C', 'C', 'C', 'C', 'C', 'C', 'C', 'C', 'C', 'C', 'C', 'C', 'C']","[1299577, 1300199, 1300790, 1301405, 1301952, 1302568, 1303089, 1303696, 1304200, 1304773, 1305327, 1305857, 1306366, 1306895, 1307423, 1307884, 1308436, 1308923, 1309422, 1309912, 1310391]","[1299683, 1300235, 1300865, 1301462, 1301996, 1302589, 1303170, 1303778, 1304262, 1304890, 1305454, 1305955, 1306425, 1306975, 1307488, 1307955, 1308527, 1309025, 1309512, 1310005, 1310508]","[181, 119, 112, 111, 255, 50, 154, 107, 248, 205, 16, 61, 15, 222, 1, 253, 22, 186, 32, 247, 99]","[1299586, 1300206, 1300799, 1301413, 1301958, 1302575, 1303095, 1303703, 1304207, 1304779, 1305335, 1305862, 1306375, 1306902, 1307431, 1307892, 1308443, 1308932, 1309429, 1309919, 1310399]","[1297861, 1298461, 1299061, 1299661, 1300261, 1300861, 1301462, 1302061, 1302588, 1303109, 1303716, 1304220, 1304793, 1305347, 1305877, 1306386, 1306915, 1307443, 1307905, 1308456, 1308943, 1309442, 1309932, 1310411]",94,OR,U,R,ITMSR,1.1,
4,600,trial,0,69,69,69,trial,"['S', 'S', 'S', 'S', 'S', 'S', 'C', 'C', 'C', 'C', 'C', 'C', 'C', 'C', 'C', 'C', 'C', 'C', 'C', 'C', 'C', 'C']","[1317331, 1317871, 1318400, 1318941, 1319681, 1320262, 1320859, 1321433, 1322025, 1322583, 1323112, 1323624, 1324149, 1324664, 1325202, 1325715, 1326232, 1326772, 1327272, 1327768, 1328309, 1328815]","[1317382, 1317928, 1318430, 1318993, 1319745, 1320333, 1320946, 1321535, 1322084, 1322645, 1323189, 1323720, 1324251, 1324767, 1325285, 1325800, 1326358, 1326836, 1327341, 1327889, 1328423, 1328954]","[29, 5, 89, 102, 251, 191, 73, 204, 132, 207, 32, 51, 20, 24, 162, 44, 190, 162, 180, 69, 50, 63]","[1317341, 1317880, 1318408, 1318948, 1319689, 1320269, 1320867, 1321441, 1322031, 1322592, 1323121, 1323633, 1324157, 1324674, 1325213, 1325721, 1326240, 1326781, 1327281, 1327776, 1328317, 1328822]","[1316174, 1316774, 1317374, 1317975, 1318574, 1319174, 1319774, 1320374, 1320879, 1321453, 1322045, 1322603, 1323132, 1323644, 1324169, 1324684, 1325222, 1325735, 1326253, 1326792, 1327292, 1327789, 1328329, 1328835]",94,OR,U,R,ITMSR,1.1,
4,400,trial,0,70,70,70,trial,"['S', 'S', 'S', 'S', 'C', 'C', 'C', 'C', 'C', 'C', 'C', 'C', 'C', 'C', 'C', 'C', 'C', 'C', 'C', 'C']","[1335747, 1336166, 1336596, 1337012, 1337398, 1337778, 1338174, 1338537, 1338974, 1339360, 1339788, 1340118, 1340523, 1340904, 1341305, 1341725, 1342067, 1342454, 1342860, 1343237]","[1335812, 1336223, 1336665, 1337083, 1337466, 1337860, 1338266, 1338660, 1339076, 1339476, 1339874, 1340196, 1340654, 1341015, 1341407, 1341812, 1342163, 1342563, 1342959, 1343355]","[159, 177, 176, 125, 137, 131, 156, 211, 203, 230, 185, 112, 194, 216, 196, 207, 243, 214, 212, 208]","[1335756, 1336172, 1336601, 1337019, 1337403, 1337786, 1338182, 1338546, 1338981, 1339369, 1339797, 1340125, 1340530, 1340912, 1341312, 1341732, 1342075, 1342461, 1342867, 1343243]","[1334258, 1334658, 1335058, 1335458, 1335858, 1336258, 1336658, 1337058, 1337418, 1337798, 1338194, 1338557, 1338994, 1339380, 1339808, 1340138, 1340544, 1340924, 1341325, 1341745, 1342087, 1342474, 1342880, 1343257]",94,OR,U,R,ITMSR,1.1,
2,400,trial,0,71,71,71,trial,"['S', 'S', 'S', 'S', 'S', 'S', 'S', 'S', 'C', 'C', 'C', 'C', 'C', 'C', 'C', 'C', 'C', 'C', 'C', 'C', 'C', 'C', 'C', 'C']","[1348919, 1349287, 1349658, 1350014, 1350439, 1350770, 1351206, 1351608, 1352011, 1352423, 1352822, 1353228, 1353590, 1353953, 1354360, 1354745, 1355128, 1355464, 1355835, 1356230, 1356627, 1357014, 1357389, 1357807]","[1349008, 1349355, 1349719, 1350068, 1350463, 1350856, 1351290, 1351715, 1352145, 1352549, 1352924, 1353297, 1353665, 1354013, 1354435, 1354817, 1355218, 1355548, 1355856, 1356333, 1356744, 1357130, 1357506, 1357908]","[43, 227, 233, 221, 29, 64, 50, 254, 106, 76, 16, 178, 18, 144, 249, 133, 4, 215, 73, 165, 194, 223, 223, 93]","[1348925, 1349296, 1349666, 1350022, 1350450, 1350777, 1351214, 1351615, 1352018, 1352431, 1352830, 1353236, 1353598, 1353962, 1354368, 1354756, 1355137, 1355472, 1355843, 1356240, 1356638, 1357023, 1357399, 1357814]","[1348888, 1349287, 1349687, 1350087, 1350488, 1350888, 1351288, 1351688, 1352031, 1352443, 1352842, 1353248, 1353610, 1353973, 1354380, 1354765, 1355148, 1355484, 1355855, 1356250, 1356647, 1357034, 1357409, 1357827]",94,OR,U,R,ITMSR,1.1,
5,400,trial,0,72,72,72,trial,"['S', 'S', 'S', 'S', 'S', 'S', 'C', 'C', 'C', 'C', 'C', 'C', 'C', 'C', 'C', 'C', 'C', 'C', 'C', 'C', 'C', 'C']","[1364178, 1364600, 1365016, 1365421, 1365799, 1366203, 1366628, 1367037, 1367415, 1367814, 1368183, 1368638, 1369043, 1369415, 1369819, 1370145, 1370648, 1371059, 1371468, 1371853, 1372212, 1372623]","[1364289, 1364697, 1365098, 1365441, 1365819, 1366223, 1366709, 1367121, 1367436, 1367907, 1368309, 1368742, 1369169, 1369510, 1369914, 1370275, 1370767, 1371170, 1371597, 1371963, 1372299, 1372685]","[22, 122, 36, 38, 48, 244, 65, 209, 254, 202, 91, 39, 79, 62, 57, 49, 252, 29, 90, 125, 30, 196]","[1364188, 1364606, 1365023, 1365430, 1365807, 1366211, 1366636, 1367046, 1367425, 1367821, 1368190, 1368644, 1369051, 1369422, 1369825, 1370152, 1370654, 1371067, 1371475, 1371858, 1372219, 1372631]","[1363471, 1363870, 1364270, 1364670, 1365070, 1365470, 1365870, 1366270, 1366648, 1367057, 1367435, 1367834, 1368203, 1368658, 1369063, 1369435, 1369839, 1370165, 1370669, 1371079, 1371488, 1371873, 1372232, 1372643]",94,OR,U,R,ITMSR,1.1,
1,400,trial,0,73,73,73,trial,"['S', 'S', 'S', 'S', 'C', 'C', 'C', 'C', 'C', 'C', 'C', 'C', 'C', 'C', 'C', 'C', 'C', 'C', 'C', 'C']","[1379657, 1380122, 1380468, 1380892, 1381265, 1381687, 1382096, 1382501, 1382909, 1383308, 1383731, 1384113, 1384520, 1384912, 1385295, 1385683, 1386071, 1386501, 1386887, 1387267]","[1379740, 1380191, 1380581, 1380974, 1381370, 1381791, 1382225, 1382615, 1383012, 1383428, 1383824, 1384244, 1384662, 1385032, 1385394, 1385785, 1386185, 1386595, 1386992, 1387363]","[131, 244, 85, 23, 141, 34, 46, 244, 44, 210, 199, 227, 208, 214, 106, 191, 241, 167, 231, 187]","[1379664, 1380130, 1380475, 1380899, 1381271, 1381696, 1382105, 1382509, 1382917, 1383315, 1383740, 1384120, 1384528, 1384921, 1385305, 1385694, 1386079, 1386510, 1386896, 1387275]","[1378178, 1378578, 1378978, 1379378, 1379778, 1380178, 1380578, 1380978, 1381285, 1381707, 1382116, 1382521, 1382929, 1383328, 1383751, 1384133, 1384540, 1384932, 1385315, 1385703, 1386091, 1386521, 1386907, 1387287]",94,OR,U,R,ITMSR,1.1,
5,400,trial,0,74,74,74,trial,"['S', 'S', 'S', 'S', 'S', 'S', 'C', 'C', 'C', 'C', 'C', 'C', 'C', 'C', 'C', 'C', 'C', 'C', 'C', 'C', 'C', 'C']","[1393351, 1393783, 1394186, 1394571, 1394951, 1395347, 1395805, 1396237, 1396592, 1396988, 1397396, 1397794, 1398163, 1398591, 1398948, 1399369, 1399751, 1400116, 1400499, 1400946, 1401326, 1401752]","[1393444, 1393854, 1394209, 1394617, 1394975, 1395424, 1395861, 1396262, 1396613, 1397009, 1397483, 1397846, 1398215, 1398651, 1399046, 1399464, 1399815, 1400166, 1400592, 1401042, 1401447, 1401880]","[80, 41, 239, 101, 37, 224, 46, 7, 220, 112, 255, 29, 63, 80, 158, 250, 113, 46, 101, 80, 89, 69]","[1393357, 1393789, 1394192, 1394581, 1394958, 1395354, 1395814, 1396245, 1396599, 1396997, 1397404, 1397801, 1398169, 1398597, 1398955, 1399376, 1399758, 1400123, 1400506, 1400953, 1401332, 1401758]","[1392650, 1393049, 1393449, 1393849, 1394249, 1394649, 1395049, 1395449, 1395825, 1396257, 1396612, 1397008, 1397416, 1397814, 1398183, 1398611, 1398968, 1399389, 1399771, 1400136, 1400519, 1400966, 1401346, 1401773]",94,OR,U,R,ITMSR,1.1,
4,400,trial,0,75,75,75,trial,"['S', 'S', 'S', 'S', 'C', 'C', 'C', 'C', 'C', 'C', 'C', 'C', 'C', 'C', 'C', 'C', 'C', 'C', 'C', 'C', 'C']","[1408658, 1409103, 1409533, 1409973, 1410371, 1410771, 1411192, 1411592, 1412006, 1412353, 1412822, 1413195, 1413610, 1414042, 1414415, 1414843, 1415204, 1415633, 1415973, 1416073, 1416439]","[1408678, 1409180, 1409627, 1409993, 1410392, 1410879, 1411212, 1411612, 1412026, 1412373, 1412842, 1413215, 1413630, 1414062, 1414435, 1414863, 1415224, 1415653, 1415993, 1416093, 1416459]","[25, 130, 152, 197, 38, 250, 183, 85, 140, 69, 145, 214, 156, 128, 140, 203, 66, 89, 227, 139, 243]","[1408662, 1409110, 1409540, 1409980, 1410376, 1410777, 1411197, 1411597, 1412012, 1412357, 1412827, 1413200, 1413616, 1414048, 1414421, 1414848, 1415212, 1415640, 1415980, 1416073, 1416445]","[1407171, 1407570, 1407970, 1408370, 1408770, 1409170, 1409570, 1409970, 1410392, 1410791, 1411212, 1411612, 1412026, 1412373, 1412842, 1413215, 1413630, 1414062, 1414435, 1414863, 1415224, 1415653, 1415993, 1416459]",94,OR,U,R,ITMSR,1.1,
0,400,trial,0,76,76,76,trial,"['C', 'C', 'C', 'C', 'C', 'C', 'C', 'C', 'C', 'C', 'C', 'C', 'C', 'C', 'C', 'C']","[1424918, 1425315, 1425752, 1426147, 1426528, 1426912, 1427305, 1427726, 1428052, 1428450, 1428860, 1429253, 1429679, 1430026, 1430456, 1430861]","[1425003, 1425420, 1425824, 1426217, 1426608, 1427003, 1427380, 1427746, 1428154, 1428471, 1428955, 1429380, 1429767, 1430183, 1430577, 1430884]","[29, 226, 106, 72, 239, 13, 3, 42, 85, 59, 224, 138, 174, 179, 49, 65]","[1424924, 1425321, 1425759, 1426154, 1426537, 1426919, 1427312, 1427732, 1428061, 1428457, 1428869, 1429262, 1429687, 1430035, 1430461, 1430871]","[1421813, 1422213, 1422613, 1423013, 1423413, 1423813, 1424214, 1424613, 1424939, 1425335, 1425772, 1426167, 1426548, 1426932, 1427325, 1427746, 1428072, 1428470, 1428880, 1429273, 1429699, 1430046, 1430476, 1430881]",94,OR,U,R,ITMSR,1.1,
3,600,trial,0,77,77,77,trial,"['S', 'S', 'S', 'S', 'S', 'S', 'S', 'S', 'C', 'C', 'C', 'C', 'C', 'C', 'C', 'C', 'C', 'C', 'C', 'C', 'C', 'C', 'C', 'C']","[1436810, 1437105, 1437837, 1438419, 1438986, 1439604, 1440188, 1440780, 1441340, 1441901, 1442448, 1443045, 1443637, 1444291, 1444871, 1445377, 1446031, 1446604, 1447190, 1447732, 1448280, 1448758, 1449346, 1449859]","[1436918, 1437225, 1437974, 1438561, 1439156, 1439744, 1440322, 1440949, 1441508, 1442097, 1442632, 1443198, 1443809, 1444470, 1445020, 1445551, 1446180, 1446764, 1447347, 1447873, 1448394, 1448947, 1449494, 1450056]","[20, 82, 219, 70, 29, 205, 63, 66, 92, 97, 187, 186, 185, 98, 125, 146, 32, 148, 132, 108, 102, 122, 119, 146]","[1436816, 1437110, 1437844, 1438425, 1438992, 1439611, 1440196, 1440788, 1441347, 1441908, 1442454, 1443050, 1443643, 1444374, 1444878, 1445384, 1446115, 1446610, 1447197, 1447739, 1448288, 1448766, 1449354, 1449865]","[1436650, 1437250, 1437850, 1438450, 1439050, 1439650, 1440250, 1440850, 1441360, 1441922, 1442468, 1443065, 1443657, 1444312, 1444891, 1445397, 1446051, 1446624, 1447211, 1447752, 1448300, 1448778, 1449366, 1449879]",94,OR,U,R,ITMSR,1.1,
5,600,trial,0,78,78,78,trial,"['S', 'S', 'S', 'S', 'S', 'S', 'C', 'C', 'C', 'C', 'C', 'C', 'C', 'C', 'C', 'C', 'C', 'C', 'C', 'C', 'C', 'C']","[1465693, 1466202, 1466767, 1467320, 1467944, 1468561, 1469169, 1469736, 1470290, 1470845, 1471396, 1471964, 1472544, 1473168, 1473738, 1474458, 1475133, 1475705, 1476291, 1476878, 1477436, 1478005]","[1465858, 1466411, 1466909, 1467419, 1468111, 1468735, 1469335, 1470040, 1470521, 1471073, 1471675, 1472281, 1472842, 1473487, 1474155, 1474745, 1475282, 1475979, 1476521, 1477159, 1477666, 1478226]","[231, 9, 19, 9, 84, 227, 188, 215, 208, 16, 206, 242, 4, 214, 50, 190, 251, 98, 74, 109, 82, 84]","[1465700, 1466207, 1466773, 1467326, 1467951, 1468568, 1469175, 1469743, 1470296, 1470851, 1471403, 1471969, 1472550, 1473175, 1473745, 1474661, 1475140, 1475712, 1476297, 1477030, 1477538, 1478011]","[1464457, 1465057, 1465657, 1466257, 1466857, 1467457, 1468057, 1468657, 1469189, 1469756, 1470310, 1470865, 1471416, 1471984, 1472564, 1473188, 1473758, 1474478, 1475153, 1475725, 1476312, 1476898, 1477456, 1478025]",94,OR,U,R,ITMSR,1.1,
4,400,trial,0,79,79,79,trial,"['S', 'S', 'S', 'S', 'S', 'S', 'C', 'C', 'C', 'C', 'C', 'C', 'C', 'C', 'C', 'C', 'C', 'C', 'C', 'C', 'C', 'C']","[1484177, 1484596, 1484986, 1485385, 1485775, 1486146, 1486551, 1486943, 1487364, 1487777, 1488179, 1488594, 1488979, 1489347, 1489778, 1490159, 1490543, 1490952, 1491325, 1491723, 1492107, 1492475]","[1484280, 1484685, 1485084, 1485475, 1485874, 1486279, 1486685, 1487066, 1487480, 1487909, 1488300, 1488670, 1489067, 1489461, 1489884, 1490264, 1490668, 1491056, 1491480, 1491843, 1492209, 1492586]","[60, 75, 7, 20, 35, 98, 90, 52, 66, 46, 14, 107, 62, 32, 64, 76, 70, 68, 154, 99, 125, 106]","[1484182, 1484602, 1484993, 1485391, 1485782, 1486151, 1486557, 1486949, 1487370, 1487783, 1488185, 1488603, 1488988, 1489359, 1489787, 1490169, 1490553, 1490960, 1491334, 1491733, 1492117, 1492486]","[1483401, 1483801, 1484201, 1484601, 1485001, 1485401, 1485801, 1486201, 1486571, 1486963, 1487384, 1487797, 1488199, 1488614, 1488999, 1489368, 1489798, 1490179, 1490563, 1490972, 1491345, 1491743, 1492127, 1492495]",94,OR,U,R,ITMSR,1.1,
3,600,trial,0,80,80,80,trial,"['S', 'S', 'S', 'S', 'S', 'S', 'S', 'S', 'C', 'C', 'C', 'C', 'C', 'C', 'C', 'C', 'C', 'C', 'C', 'C', 'C', 'C', 'C', 'C']","[1498458, 1498704, 1499339, 1499874, 1500427, 1501101, 1501663, 1502325, 1502976, 1503596, 1504193, 1504724, 1505363, 1505992, 1506686, 1507275, 1507934, 1508570, 1509086, 1509830, 1510453, 1511098, 1511599, 1512378]","[1498560, 1498839, 1499490, 1499988, 1500580, 1501253, 1501842, 1502493, 1503154, 1503764, 1504280, 1504804, 1505489, 1506142, 1506800, 1507404, 1508060, 1508679, 1509186, 1509984, 1510604, 1511222, 1511799, 1512585]","[108, 31, 243, 145, 212, 242, 197, 216, 150, 107, 246, 123, 159, 109, 168, 149, 85, 245, 71, 105, 72, 6, 86, 25]","[1498467, 1498712, 1499348, 1499935, 1500436, 1501108, 1501670, 1502333, 1502984, 1503604, 1504202, 1504735, 1505435, 1506001, 1506759, 1507284, 1508007, 1508580, 1509096, 1509837, 1510461, 1511189, 1511608, 1512388]","[1498223, 1498822, 1499422, 1500022, 1500622, 1501222, 1501822, 1502423, 1502996, 1503617, 1504214, 1504744, 1505383, 1506012, 1506706, 1507295, 1507954, 1508590, 1509106, 1509850, 1510473, 1511118, 1511619, 1512398]",94,OR,U,R,ITMSR,1.1,
4,600,trial,0,81,81,81,trial,"['S', 'S', 'S', 'S', 'S', 'S', 'S', 'S', 'C', 'C', 'C', 'C', 'C', 'C', 'C', 'C', 'C', 'C', 'C', 'C', 'C', 'C', 'C', 'C']","[1517981, 1518319, 1518977, 1519520, 1520090, 1520757, 1521361, 1522035, 1522586, 1523169, 1523742, 1524331, 1524905, 1525443, 1526043, 1526648, 1527144, 1527712, 1528272, 1528806, 1529407, 1529968, 1530515, 1531069]","[1518071, 1518422, 1519090, 1519667, 1520312, 1521027, 1521674, 1522266, 1522862, 1523511, 1524067, 1524628, 1525201, 1525767, 1526363, 1526932, 1527516, 1528046, 1528627, 1529204, 1529768, 1530365, 1530912]","[216, 237, 202, 53, 52, 90, 43, 243, 240, 49, 253, 56, 67, 99, 8, 46, 98, 242, 254, 20, 229, 220, 233]","[1517988, 1518325, 1518984, 1519525, 1520096, 1520762, 1521368, 1522041, 1522593, 1523175, 1523749, 1524336, 1524912, 1525449, 1526049, 1526654, 1527149, 1527718, 1528279, 1528811, 1529562, 1529974, 1530810]","[1517815, 1518415, 1519015, 1519616, 1520216, 1520816, 1521416, 1522016, 1522606, 1523189, 1523762, 1524352, 1524925, 1525464, 1526063, 1526668, 1527164, 1527732, 1528292, 1528826, 1529427, 1529988, 1530535, 1531089]",94,OR,U,R,ITMSR,1.1,
3,400,trial,0,82,82,82,trial,"['S', 'S', 'S', 'S', 'C', 'C', 'C', 'C', 'C', 'C', 'C', 'C', 'C', 'C', 'C', 'C', 'C', 'C', 'C', 'C']","[1538020, 1538481, 1538918, 1539337, 1539729, 1540156, 1540545, 1540951, 1541363, 1541775, 1542177, 1542536, 1542972, 1543368, 1543818, 1544212, 1544638, 1545064, 1545455, 1545853]","[1538235, 1538670, 1539127, 1539538, 1539928, 1540322, 1540690, 1541144, 1541578, 1541962, 1542329, 1542726, 1543147, 1543547, 1543957, 1544352, 1544822, 1545199, 1545629, 1546063]","[114, 30, 75, 63, 36, 214, 14, 36, 50, 200, 191, 152, 183, 217, 175, 240, 207, 201, 147, 208]","[1538023, 1538486, 1538922, 1539342, 1539734, 1540161, 1540549, 1540956, 1541367, 1541781, 1542182, 1542543, 1542978, 1543374, 1543824, 1544219, 1544643, 1545070, 1545462, 1545859]","[1536506, 1536906, 1537306, 1537707, 1538106, 1538506, 1538906, 1539306, 1539749, 1540176, 1540566, 1540971, 1541383, 1541795, 1542197, 1542556, 1542992, 1543388, 1543838, 1544232, 1544658, 1545084, 1545475, 1545873]",94,OR,U,R,ITMSR,1.1,
4,600,trial,0,83,83,83,trial,"['S', 'S', 'S', 'S', 'S', 'S', 'C', 'C', 'C', 'C', 'C', 'C', 'C', 'C', 'C', 'C', 'C', 'C', 'C', 'C', 'C', 'C']","[1552700, 1553208, 1553735, 1554291, 1554871, 1555520, 1556154, 1556773, 1557386, 1558033, 1558640, 1559175, 1559946, 1560651, 1561335, 1561964, 1562619, 1563248, 1563915, 1564601, 1565264, 1565919]","[1552887, 1553416, 1553900, 1554456, 1555089, 1555726, 1556385, 1557053, 1557709, 1558361, 1558945, 1559638, 1560400, 1560974, 1561576, 1562143, 1562832, 1563440, 1564069, 1564732, 1565533, 1566128]","[86, 157, 228, 203, 23, 4, 156, 170, 194, 204, 136, 99, 87, 246, 38, 120, 211, 254, 205, 6, 34, 94]","[1552704, 1553215, 1553742, 1554298, 1554876, 1555525, 1556161, 1556899, 1557392, 1558039, 1558647, 1559182, 1559952, 1560657, 1561341, 1561970, 1562627, 1563253, 1563921, 1564609, 1565272, 1565924]","[1551419, 1552018, 1552618, 1553218, 1553818, 1554418, 1555018, 1555618, 1556174, 1556793, 1557406, 1558053, 1558660, 1559195, 1559966, 1560671, 1561355, 1561985, 1562639, 1563268, 1563935, 1564621, 1565284, 1565939]",94,OR,U,R,ITMSR,1.1,
0,400,trial,0,84,84,84,trial,"['S', 'S', 'S', 'S', 'S', 'S', 'S', 'S', 'C', 'C', 'C', 'C', 'C', 'C', 'C', 'C', 'C', 'C', 'C', 'C', 'C', 'C', 'C', 'C']","[1571667, 1571987, 1572284, 1572640, 1573025, 1573445, 1573866, 1574251, 1574571, 1574981, 1575383, 1575801, 1576192, 1576614, 1577008, 1577412, 1577834, 1578257, 1578633, 1579062, 1579447, 1579821, 1580249, 1580600]","[1571772, 1572083, 1572390, 1572757, 1573130, 1573587, 1573959, 1574324, 1574662, 1575066, 1575478, 1575853, 1576257, 1576634, 1577103, 1577532, 1577989, 1578378, 1578727, 1579177, 1579532, 1579914, 1580352, 1580711]","[183, 149, 234, 3, 22, 112, 177, 156, 0, 236, 50, 239, 95, 62, 31, 107, 85, 97, 87, 150, 100, 66, 114, 132]","[1571674, 1571994, 1572290, 1572647, 1573031, 1573450, 1573874, 1574259, 1574580, 1574991, 1575392, 1575810, 1576200, 1576621, 1577016, 1577419, 1577841, 1578265, 1578640, 1579069, 1579454, 1579829, 1580256, 1580606]","[1571469, 1571868, 1572269, 1572669, 1573069, 1573469, 1573869, 1574269, 1574591, 1575001, 1575403, 1575821, 1576212, 1576634, 1577028, 1577432, 1577854, 1578277, 1578653, 1579082, 1579467, 1579841, 1580269, 1580620]",94,OR,U,R,ITMSR,1.1,
2,400,trial,0,85,85,85,trial,"['S', 'S', 'S', 'S', 'S', 'S', 'S', 'C', 'C', 'C', 'C', 'C', 'C', 'C', 'C', 'C', 'C', 'C', 'C', 'C', 'C', 'C', 'C']","[1586626, 1586974, 1587345, 1587755, 1588158, 1588576, 1589003, 1589359, 1589767, 1590165, 1590576, 1590973, 1591400, 1591820, 1592218, 1592640, 1592979, 1593407, 1593786, 1594179, 1594563, 1594989, 1595403]","[1586771, 1587104, 1587453, 1587890, 1588307, 1588714, 1589113, 1589469, 1589846, 1590281, 1590686, 1591073, 1591500, 1591906, 1592298, 1592689, 1593056, 1593482, 1593885, 1594290, 1594672, 1595099, 1595523]","[93, 134, 96, 192, 196, 207, 166, 122, 193, 4, 6, 127, 163, 166, 39, 133, 84, 126, 55, 69, 237, 18, 251]","[1586716, 1587002, 1587374, 1587827, 1588232, 1588584, 1589009, 1589364, 1589774, 1590236, 1590627, 1591029, 1591458, 1591868, 1592267, 1592668, 1593028, 1593440, 1593854, 1594230, 1594620, 1595045, 1595461]","[1586214, 1586614, 1587014, 1587415, 1587814, 1588214, 1588614, 1589014, 1589379, 1589787, 1590185, 1590596, 1590993, 1591420, 1591840, 1592238, 1592660, 1592999, 1593427, 1593806, 1594200, 1594584, 1595010, 1595423]",94,OR,U,R,ITMSR,1.1,
4,400,trial,0,86,86,86,trial,"['S', 'S', 'S', 'S', 'S', 'S', 'C', 'C', 'C', 'C', 'C', 'C', 'C', 'C', 'C', 'C', 'C', 'C', 'C', 'C', 'C', 'C']","[1601733, 1602151, 1602573, 1603002, 1603398, 1603769, 1604160, 1604520, 1604951, 1605343, 1605741, 1606115, 1606539, 1606908, 1607249, 1607667, 1608034, 1608430, 1608832, 1609195, 1609589, 1609934]","[1601852, 1602298, 1602720, 1603120, 1603499, 1603872, 1604253, 1604634, 1605067, 1605480, 1605846, 1606228, 1606641, 1606986, 1607344, 1607782, 1608129, 1608548, 1608929, 1609291, 1609707, 1610066]","[35, 17, 95, 14, 200, 237, 144, 169, 220, 195, 165, 178, 184, 188, 100, 139, 127, 108, 144, 74, 211, 69]","[1601740, 1602158, 1602578, 1603008, 1603404, 1603775, 1604166, 1604528, 1604957, 1605348, 1605747, 1606122, 1606546, 1606915, 1607257, 1607674, 1608040, 1608437, 1608839, 1609202, 1609596, 1609940]","[1600996, 1601396, 1601796, 1602196, 1602596, 1602996, 1603396, 1603796, 1604180, 1604540, 1604971, 1605363, 1605762, 1606135, 1606559, 1606928, 1607269, 1607687, 1608054, 1608450, 1608852, 1609216, 1609609, 1609954]",94,OR,U,R,ITMSR,1.1,
1,400,trial,0,87,87,87,trial,"['S', 'S', 'S', 'S', 'S', 'S', 'S', 'S', 'C', 'C', 'C', 'C', 'C', 'C', 'C', 'C', 'C', 'C', 'C', 'C', 'C', 'C', 'C', 'C']","[1615730, 1616049, 1616398, 1616740, 1617100, 1617571, 1617902, 1618360, 1618751, 1619134, 1619553, 1619928, 1620344, 1620749, 1621125, 1621536, 1621899, 1622296, 1622674, 1623053, 1623427, 1623828, 1624230, 1624580]","[1615833, 1616155, 1616495, 1616832, 1617210, 1617650, 1618017, 1618449, 1618832, 1619244, 1619656, 1620028, 1620444, 1620851, 1621240, 1621638, 1622073, 1622424, 1622803, 1623185, 1623555, 1623991, 1624346, 1624744]","[69, 47, 38, 28, 98, 133, 217, 205, 150, 163, 109, 138, 75, 178, 140, 126, 214, 145, 166, 232, 209, 183, 133, 100]","[1615735, 1616055, 1616404, 1616745, 1617105, 1617580, 1617909, 1618366, 1618759, 1619141, 1619561, 1619936, 1620354, 1620756, 1621132, 1621543, 1621906, 1622304, 1622682, 1623060, 1623434, 1623836, 1624239, 1624589]","[1615590, 1615990, 1616390, 1616790, 1617190, 1617590, 1617990, 1618391, 1618771, 1619154, 1619573, 1619948, 1620364, 1620769, 1621145, 1621556, 1621919, 1622317, 1622694, 1623073, 1623447, 1623848, 1624250, 1624600]",94,OR,U,R,ITMSR,1.1,
0,400,trial,0,88,88,88,trial,"['S', 'S', 'S', 'S', 'S', 'S', 'S', 'C', 'C', 'C', 'C', 'C', 'C', 'C', 'C', 'C', 'C', 'C', 'C', 'C', 'C', 'C', 'C']","[1630589, 1630690, 1631036, 1631442, 1631843, 1632257, 1632652, 1633027, 1633432, 1633860, 1634269, 1634675, 1635024, 1635443, 1635845, 1636269, 1636637, 1637059, 1637423, 1637858, 1638238, 1638641, 1639051]","[1630610, 1630710, 1631125, 1631522, 1631936, 1632351, 1632753, 1633100, 1633544, 1633973, 1634353, 1634755, 1635124, 1635554, 1635975, 1636418, 1636752, 1637190, 1637542, 1637954, 1638351, 1638733, 1639130]","[99, 189, 174, 191, 248, 12, 163, 93, 247, 80, 131, 52, 121, 184, 32, 186, 188, 86, 141, 249, 255, 220, 139]","[1630595, 1630690, 1631044, 1631450, 1631850, 1632266, 1632660, 1633035, 1633439, 1633869, 1634276, 1634682, 1635032, 1635450, 1635853, 1636276, 1636645, 1637068, 1637430, 1637867, 1638247, 1638650, 1639058]","[1629906, 1630306, 1630706, 1631106, 1631506, 1631906, 1632306, 1632706, 1633047, 1633453, 1633880, 1634289, 1634695, 1635044, 1635463, 1635865, 1636289, 1636657, 1637080, 1637443, 1637878, 1638258, 1638661, 1639071]",94,OR,U,R,ITMSR,1.1,
5,400,trial,0,89,89,89,trial,"['S', 'S', 'S', 'S', 'S', 'S', 'C', 'C', 'C', 'C', 'C', 'C', 'C', 'C', 'C', 'C', 'C', 'C', 'C', 'C', 'C', 'C', 'C']","[1645132, 1645563, 1645944, 1646314, 1646712, 1647110, 1647520, 1647930, 1648335, 1648714, 1649106, 1649516, 1649925, 1650263, 1650704, 1651073, 1651173, 1651468, 1651846, 1652249, 1652629, 1653041, 1653414]","[1645257, 1645661, 1646048, 1646425, 1646839, 1647236, 1647540, 1647950, 1648355, 1648734, 1649224, 1649600, 1650019, 1650354, 1650833, 1651093, 1651225, 1651608, 1651975, 1652374, 1652749, 1653143, 1653487]","[224, 164, 42, 69, 88, 48, 17, 153, 245, 188, 15, 144, 110, 77, 176, 141, 176, 234, 150, 157, 107, 69, 128]","[1645138, 1645572, 1645952, 1646322, 1646720, 1647116, 1647525, 1647936, 1648342, 1648719, 1649112, 1649522, 1649932, 1650269, 1650710, 1651079, 1651173, 1651475, 1651854, 1652257, 1652636, 1653048, 1653423]","[1644407, 1644807, 1645207, 1645607, 1646007, 1646407, 1646808, 1647208, 1647540, 1647950, 1648355, 1648734, 1649126, 1649537, 1649945, 1650283, 1650724, 1651093, 1651488, 1651866, 1652269, 1652649, 1653061, 1653434]",94,OR,U,R,ITMSR,1.1,
1,600,trial,0,90,90,90,trial,"['S', 'S', 'S', 'S', 'S', 'S', 'S', 'C', 'C', 'C', 'C', 'C', 'C', 'C', 'C', 'C', 'C', 'C', 'C', 'C', 'C', 'C', 'C']","[1659319, 1660106, 1660702, 1661322, 1661939, 1662538, 1663151, 1663757, 1664335, 1664942, 1665500, 1666091, 1666667, 1667205, 1667787, 1668307, 1668870, 1669531, 1670041, 1670697, 1671278, 1671811, 1672402]","[1659422, 1660280, 1660901, 1661600, 1662237, 1662862, 1663425, 1664008, 1664761, 1665286, 1665879, 1666410, 1666932, 1667531, 1668165, 1668714, 1669363, 1669885, 1670551, 1671109, 1671661, 1672253]","[55, 26, 123, 118, 121, 147, 202, 170, 132, 132, 163, 175, 78, 92, 90, 110, 35, 82, 91, 74, 48, 140]","[1659327, 1660115, 1660709, 1661329, 1661946, 1662545, 1663292, 1663896, 1664487, 1665122, 1665651, 1666241, 1666849, 1667406, 1668070, 1668497, 1669112, 1669778, 1670461, 1670978, 1671576, 1672050]","[1659008, 1659608, 1660208, 1660808, 1661408, 1662008, 1662608, 1663208, 1663777, 1664355, 1664962, 1665520, 1666111, 1666688, 1667225, 1667807, 1668327, 1668890, 1669551, 1670061, 1670717, 1671298, 1671831, 1672422]",94,OR,U,R,ITMSR,1.1,
2,600,trial,0,91,91,91,trial,"['S', 'S', 'S', 'S', 'S', 'C', 'C', 'C', 'C', 'C', 'C', 'C', 'C', 'C', 'C', 'C', 'C', 'C', 'C', 'C', 'C']","[1679507, 1680069, 1680723, 1681293, 1681857, 1682438, 1683032, 1683629, 1684242, 1684783, 1685378, 1685922, 1686505, 1687091, 1687650, 1688188, 1688797, 1689324, 1689893, 1690464, 1690989]","[1679713, 1680333, 1680915, 1681520, 1682127, 1682790, 1683407, 1683991, 1684562, 1685168, 1685692, 1686310, 1686886, 1687449, 1688019, 1688634, 1689150, 1689756, 1690266, 1690839]","[61, 94, 243, 204, 207, 231, 199, 157, 32, 52, 120, 34, 193, 236, 241, 8, 243, 253, 246, 185]","[1679512, 1680074, 1680730, 1681300, 1681864, 1682445, 1683039, 1683637, 1684250, 1684791, 1685385, 1686044, 1686736, 1687345, 1687752, 1688448, 1689023, 1689657, 1690142, 1690634]","[1677717, 1678317, 1678917, 1679517, 1680117, 1680717, 1681317, 1681917, 1682458, 1683052, 1683649, 1684262, 1684803, 1685398, 1685942, 1686525, 1687111, 1687670, 1688208, 1688817, 1689345, 1689913, 1690484, 1691010]",94,OR,U,R,ITMSR,1.1,
0,600,trial,0,92,92,92,trial,"['S', 'S', 'S', 'S', 'S', 'S', 'C', 'C', 'C', 'C', 'C', 'C', 'C', 'C', 'C', 'C', 'C', 'C', 'C', 'C', 'C', 'C']","[1697713, 1698300, 1698918, 1699517, 1700101, 1700730, 1701377, 1701875, 1702311, 1702786, 1703310, 1703885, 1704514, 1705090, 1705654, 1706288, 1706950, 1707537, 1708133, 1708751, 1709328, 1709930]","[1697881, 1698457, 1699081, 1699676, 1700283, 1700916, 1701566, 1702052, 1702472, 1703005, 1703624, 1704197, 1704783, 1705385, 1706002, 1706603, 1707235, 1707864, 1708426, 1709035, 1709679]","[226, 216, 171, 147, 136, 228, 241, 122, 136, 46, 62, 66, 67, 6, 26, 231, 252, 215, 243, 31, 253]","[1697720, 1698309, 1699007, 1699525, 1700108, 1700739, 1701384, 1701884, 1702321, 1702901, 1703427, 1703992, 1704522, 1705195, 1705921, 1706296, 1706959, 1707546, 1708141, 1708760, 1709538]","[1696634, 1697233, 1697833, 1698434, 1699034, 1699634, 1700234, 1700834, 1701397, 1701895, 1702331, 1702806, 1703330, 1703905, 1704535, 1705110, 1705674, 1706308, 1706970, 1707557, 1708153, 1708771, 1709348, 1709950]",94,OR,U,R,ITMSR,1.1,
