pitch,ioi,event,.thisRepN,.thisTrialN,.thisN,.thisIndex,event,tap_types,tap_times,release_times,peak_pressures,peak_times,tone_times,subject,experimenter,register,handedness,experiment,version
,,SPR,0,-1,-1,0,SPR,"['P', 'P', 'P', 'P', 'P', 'P', 'P', 'P', 'P', 'P', 'P', 'P', 'P', 'P', 'P', 'P', 'P', 'P', 'P', 'P', 'P', 'P', 'P', 'P', 'P', 'P', 'P', 'P', 'P', 'P']","[45073, 45335, 45636, 45888, 46127, 46382, 46648, 46891, 47137, 47385, 47638, 47885, 48164, 48404, 48643, 48887, 49141, 49386, 49616, 49854, 50116, 50352, 50582, 50828, 51070, 51317, 51562, 51827, 52077, 52302]","[45133, 45393, 45697, 45948, 46189, 46442, 46702, 46941, 47198, 47435, 47688, 47931, 48208, 48451, 48692, 48940, 49190, 49436, 49667, 49904, 50151, 50397, 50630, 50877, 51121, 51365, 51616, 51874, 52126, 52360]","[145, 118, 92, 116, 107, 72, 51, 58, 84, 69, 67, 69, 42, 72, 35, 17, 202, 6, 199, 254, 73, 232, 218, 179, 215, 103, 237, 183, 18, 27]","[45079, 45343, 45645, 45895, 46134, 46390, 46657, 46899, 47147, 47394, 47647, 47893, 48174, 48412, 48652, 48897, 49152, 49394, 49627, 49863, 50127, 50359, 50591, 50836, 51079, 51330, 51572, 51838, 52085, 52312]",,71,OR,U,R,ITMSR,1.1
2,500,practice,0,0,0,0,practice,"['S', 'S', 'S', 'S', 'S', 'S', 'C', 'C', 'C', 'C', 'C', 'C', 'C', 'C', 'C', 'C', 'C', 'C', 'C', 'C', 'C', 'C', 'C']","[145160, 145756, 146320, 146825, 147326, 147821, 148349, 148825, 149321, 149817, 150299, 150777, 151259, 151718, 152180, 152617, 153012, 153359, 153686, 153979, 154255, 154531, 154795]","[145223, 145821, 146379, 146881, 147384, 147879, 148401, 148886, 149378, 149873, 150354, 150837, 151323, 151774, 152241, 152684, 153084, 153419, 153737, 154035, 154308, 154580]","[123, 146, 127, 132, 130, 128, 118, 141, 125, 146, 146, 128, 139, 136, 132, 123, 128, 109, 95, 108, 112, 91]","[145168, 145763, 146328, 146833, 147334, 147828, 148358, 148833, 149329, 149824, 150306, 150785, 151265, 151725, 152186, 152625, 153018, 153368, 153695, 153987, 154257, 154541]","[144371, 144871, 145371, 145871, 146371, 146871, 147372, 147871, 148369, 148845, 149341, 149837, 150319, 150797, 151279, 151738, 152200, 152637, 153032, 153379, 153706, 153999, 154275, 154551]",71,OR,U,R,ITMSR,1.1
4,500,practice,0,1,1,1,practice,"['S', 'S', 'S', 'S', 'S', 'S', 'S', 'C', 'C', 'C', 'C', 'C', 'C', 'C', 'C', 'C', 'C', 'C', 'C', 'C', 'C', 'C', 'C', 'C', 'C', 'C', 'C', 'C', 'C', 'C', 'C', 'C', 'C', 'C', 'C', 'C']","[160346, 160884, 161363, 161822, 162344, 162806, 163360, 163829, 164143, 164403, 164700, 164967, 165236, 165517, 165793, 166020, 166250, 166486, 166726, 166965, 167208, 167450, 167677, 167881, 168093, 168292, 168499, 168707, 168933, 169163, 169369, 169613, 169824, 170019, 170247, 170463]","[160398, 160931, 161419, 161873, 162393, 162865, 163416, 163892, 164190, 164454, 164754, 165032, 165305, 165575, 165849, 166074, 166311, 166546, 166787, 167031, 167276, 167513, 167736, 167944, 168154, 168347, 168555, 168775, 168992, 169213, 169441, 169675, 169880, 170077, 170305]","[134, 139, 127, 133, 136, 129, 121, 124, 111, 107, 95, 102, 131, 142, 138, 138, 80, 110, 114, 128, 135, 121, 112, 77, 89, 57, 33, 53, 63, 43, 46, 38, 63, 68, 75]","[160353, 160890, 161371, 161830, 162351, 162813, 163368, 163837, 164152, 164410, 164708, 164976, 165243, 165524, 165798, 166026, 166260, 166493, 166734, 166972, 167216, 167457, 167686, 167889, 168101, 168301, 168508, 168715, 168938, 169168, 169377, 169621, 169831, 170025, 170257]","[159947, 160447, 160947, 161447, 161947, 162447, 162947, 163447, 163849, 164163, 164720, 165256, 165537, 165813, 166270, 166746, 167228, 167697, 168113, 168519, 168953, 169389, 169844, 170267]",71,OR,U,R,ITMSR,1.1
1,500,practice,0,2,2,2,practice,"['S', 'S', 'S', 'S', 'S', 'C', 'C', 'C', 'C', 'C', 'C', 'C', 'C', 'C', 'C', 'C', 'C', 'C', 'C', 'C', 'C']","[177119, 177602, 178143, 178646, 179105, 179585, 180058, 180523, 180933, 181362, 181803, 182256, 182735, 183188, 183665, 184118, 184596, 185068, 185541, 185987, 186426]","[177170, 177655, 178192, 178697, 179164, 179649, 180123, 180576, 181006, 181415, 181870, 182315, 182791, 183247, 183730, 184181, 184652, 185115, 185580, 186033, 186473]","[110, 120, 100, 101, 109, 95, 96, 82, 95, 12, 27, 248, 19, 2, 34, 70, 48, 42, 16, 31, 26]","[177125, 177607, 178149, 178653, 179110, 179591, 180064, 180529, 180938, 181370, 181809, 182263, 182742, 183194, 183670, 184123, 184601, 185073, 185547, 185993, 186432]","[175632, 176132, 176632, 177132, 177632, 178132, 178632, 179132, 179605, 180078, 180543, 180953, 181382, 181823, 182276, 182755, 183208, 183685, 184138, 184616, 185089, 185561, 186007, 186446]",71,OR,U,R,ITMSR,1.1
0,500,practice,0,3,3,3,practice,"['S', 'S', 'S', 'S', 'S', 'S', 'S', 'C', 'C', 'C', 'C', 'C', 'C', 'C', 'C', 'C', 'C', 'C', 'C', 'C', 'C', 'C', 'C']","[192567, 193111, 193631, 194153, 194641, 195133, 195637, 196113, 196568, 197047, 197508, 197984, 198477, 198951, 199399, 199878, 200365, 200838, 201326, 201832, 202290, 202777, 203232]","[192623, 193167, 193684, 194211, 194694, 195182, 195687, 196165, 196621, 197116, 197573, 198048, 198533, 199004, 199479, 199943, 200442, 200907, 201396, 201888, 202369, 202851, 203345]","[160, 145, 110, 114, 114, 124, 119, 129, 102, 67, 112, 118, 93, 92, 92, 68, 98, 93, 93, 56, 95, 97, 98]","[192573, 193116, 193637, 194161, 194648, 195139, 195643, 196120, 196576, 197057, 197516, 197991, 198484, 198960, 199407, 199887, 200372, 200846, 201334, 201841, 202299, 202785, 203240]","[192221, 192721, 193221, 193721, 194221, 194721, 195221, 195721, 196133, 196588, 197067, 197528, 198004, 198497, 198971, 199419, 199898, 200385, 200858, 201346, 201852, 202310, 202797, 203252]",71,OR,U,R,ITMSR,1.1
5,500,practice,0,4,4,4,practice,"['S', 'S', 'S', 'S', 'S', 'S', 'S', 'S', 'C', 'C', 'C', 'C', 'C', 'C', 'C', 'C', 'C', 'C', 'C', 'C', 'C', 'C', 'C', 'C']","[208976, 209342, 209777, 210252, 210721, 211233, 211723, 212231, 212733, 213222, 213723, 214235, 214730, 215196, 215711, 216201, 216681, 217176, 217627, 218121, 218569, 219089, 219604, 220097]","[209039, 209417, 209852, 210316, 210790, 211301, 211795, 212291, 212790, 213280, 213785, 214300, 214800, 215276, 215772, 216274, 216765, 217244, 217706, 218192, 218680, 219204, 219709, 220193]","[144, 151, 147, 124, 130, 138, 133, 121, 140, 128, 124, 131, 130, 121, 121, 91, 128, 108, 128, 96, 88, 80, 100, 134]","[208983, 209348, 209784, 210259, 210727, 211239, 211730, 212238, 212739, 213229, 213730, 214242, 214737, 215203, 215718, 216211, 216688, 217183, 217633, 218128, 218577, 219097, 219611, 220102]","[208766, 209265, 209765, 210265, 210765, 211265, 211765, 212265, 212753, 213242, 213743, 214255, 214750, 215216, 215731, 216221, 216701, 217196, 217647, 218141, 218589, 219109, 219624, 220118]",71,OR,U,R,ITMSR,1.1
3,500,practice,0,5,5,5,practice,"['S', 'S', 'S', 'S', 'S', 'S', 'S', 'C', 'C', 'C', 'C', 'C', 'C', 'C', 'C', 'C', 'C', 'C', 'C', 'C', 'C', 'C', 'C']","[226102, 226667, 227208, 227734, 228231, 228733, 229218, 229760, 230246, 230711, 231221, 231701, 232176, 232654, 233104, 233602, 234072, 234558, 235036, 235511, 235991, 236462, 236932]","[226155, 226723, 227258, 227787, 228289, 228787, 229282, 229821, 230310, 230784, 231292, 231769, 232247, 232727, 233195, 233684, 234158, 234626, 235112, 235589, 236060, 236530, 237007]","[116, 126, 109, 122, 106, 132, 150, 131, 113, 66, 56, 70, 93, 86, 83, 68, 87, 78, 63, 73, 27, 6, 18]","[226109, 226673, 227215, 227741, 228239, 228740, 229224, 229766, 230253, 230717, 231228, 231708, 232182, 232660, 233111, 233610, 234082, 234564, 235043, 235520, 236000, 236474, 236943]","[225836, 226334, 226834, 227334, 227834, 228334, 228834, 229335, 229780, 230266, 230731, 231241, 231721, 232196, 232674, 233124, 233622, 234092, 234578, 235056, 235531, 236011, 236482, 236952]",71,OR,U,R,ITMSR,1.1
5,600,trial,0,6,6,6,trial,"['S', 'S', 'S', 'S', 'S', 'S', 'S', 'S', 'C', 'C', 'C', 'C', 'C', 'C', 'C', 'C', 'C', 'C', 'C', 'C', 'C', 'C', 'C', 'C']","[290229, 290503, 291149, 291776, 292384, 293008, 293630, 294199, 294804, 295433, 296031, 296648, 297290, 297906, 298541, 299146, 299769, 300414, 301041, 301686, 302279, 302880, 303491, 304113]","[290281, 290572, 291246, 291851, 292459, 293088, 293703, 294281, 294882, 295512, 296110, 296721, 297370, 297987, 298634, 299237, 299855, 300496, 301125, 301779, 302387, 302990, 303641, 304347]","[169, 160, 147, 151, 179, 173, 157, 163, 149, 150, 154, 147, 143, 154, 152, 159, 161, 156, 166, 169, 156, 175, 164, 153]","[290233, 290509, 291156, 291781, 292389, 293013, 293637, 294204, 294811, 295439, 296037, 296654, 297297, 297911, 298548, 299152, 299776, 300421, 301047, 301691, 302285, 302885, 303497, 304120]","[289998, 290598, 291198, 291799, 292398, 292998, 293598, 294198, 294824, 295453, 296051, 296668, 297310, 297926, 298561, 299166, 299789, 300434, 301061, 301706, 302299, 302900, 303511, 304133]",71,OR,U,R,ITMSR,1.1
5,600,trial,0,7,7,7,trial,"['S', 'S', 'S', 'S', 'S', 'S', 'S', 'S', 'C', 'C', 'C', 'C', 'C', 'C', 'C', 'C', 'C', 'C', 'C', 'C', 'C', 'C', 'C', 'C']","[309935, 310365, 310855, 311436, 312009, 312621, 313219, 313810, 314388, 314981, 315581, 316198, 316770, 317383, 317965, 318564, 319122, 319755, 320353, 320958, 321554, 322154, 322751, 323305]","[309987, 310438, 310948, 311535, 312092, 312710, 313302, 313893, 314480, 315067, 315678, 316298, 316877, 317474, 318069, 318655, 319220, 319868, 320462, 321068, 321661, 322246, 322838, 323401]","[115, 133, 152, 178, 174, 168, 170, 175, 159, 145, 155, 160, 169, 168, 177, 181, 184, 178, 183, 181, 183, 187, 182, 189]","[309943, 310370, 310861, 311441, 312013, 312626, 313225, 313816, 314394, 314988, 315587, 316204, 316775, 317387, 317970, 318569, 319126, 319760, 320358, 320964, 321559, 322158, 322756, 323309]","[309651, 310251, 310851, 311451, 312051, 312651, 313251, 313851, 314408, 315001, 315601, 316218, 316790, 317403, 317985, 318584, 319142, 319775, 320373, 320978, 321574, 322174, 322771, 323325]",71,OR,U,R,ITMSR,1.1
1,400,trial,0,8,8,8,trial,"['S', 'S', 'S', 'S', 'S', 'S', 'S', 'C', 'C', 'C', 'C', 'C', 'C', 'C', 'C', 'C', 'C', 'C', 'C', 'C', 'C', 'C', 'C']","[329376, 329871, 330178, 330541, 330948, 331370, 331758, 332171, 332551, 332917, 333302, 333691, 334081, 334450, 334788, 335152, 335520, 335896, 336279, 336657, 337043, 337429, 337810]","[329459, 329954, 330257, 330632, 331031, 331443, 331839, 332253, 332618, 332996, 333365, 333759, 334141, 334505, 334855, 335215, 335591, 335961, 336338, 336714, 337100, 337483, 337854]","[176, 162, 165, 174, 171, 169, 184, 179, 154, 146, 42, 33, 41, 229, 233, 166, 185, 97, 168, 8, 222, 184, 207]","[329380, 329877, 330183, 330546, 330953, 331375, 331763, 332175, 332557, 332923, 333310, 333701, 334089, 334459, 334797, 335162, 335531, 335908, 336290, 336665, 337052, 337438, 337821]","[329020, 329419, 329819, 330219, 330619, 331019, 331419, 331820, 332191, 332571, 332937, 333322, 333711, 334101, 334470, 334808, 335172, 335540, 335917, 336300, 336677, 337063, 337449, 337830]",71,OR,U,R,ITMSR,1.1
2,400,trial,0,9,9,9,trial,"['S', 'S', 'S', 'S', 'S', 'S', 'C', 'C', 'C', 'C', 'C', 'C', 'C', 'C', 'C', 'C', 'C', 'C', 'C', 'C', 'C', 'C']","[344147, 344443, 344860, 345224, 345598, 345989, 346400, 346800, 347205, 347602, 347993, 348377, 348752, 349125, 349513, 349881, 350266, 350646, 351008, 351408, 351777, 352165]","[344216, 344521, 344913, 345278, 345665, 346058, 346467, 346858, 347266, 347656, 348053, 348441, 348816, 349193, 349578, 349942, 350323, 350690, 351065, 351455, 351828, 352209]","[166, 181, 139, 125, 168, 150, 112, 76, 47, 16, 9, 81, 42, 5, 252, 224, 168, 87, 181, 62, 49, 185]","[344152, 344448, 344867, 345230, 345605, 345995, 346407, 346808, 347213, 347611, 348000, 348384, 348761, 349133, 349520, 349890, 350277, 350658, 351021, 351421, 351792, 352177]","[343258, 343658, 344058, 344458, 344858, 345259, 345658, 346058, 346420, 346820, 347225, 347622, 348013, 348397, 348772, 349145, 349533, 349901, 350286, 350666, 351028, 351428, 351797, 352185]",71,OR,U,R,ITMSR,1.1
5,400,trial,0,10,10,10,trial,"['S', 'S', 'S', 'S', 'S', 'S', 'S', 'C', 'C', 'C', 'C', 'C', 'C', 'C', 'C', 'C', 'C', 'C', 'C', 'C', 'C', 'C', 'C']","[358105, 358530, 358942, 359357, 359766, 360182, 360582, 360975, 361360, 361760, 362123, 362518, 362891, 363289, 363689, 364108, 364504, 364900, 365288, 365666, 366063, 366444, 366859]","[358169, 358604, 359017, 359441, 359841, 360246, 360651, 361050, 361439, 361829, 362203, 362572, 362970, 363360, 363767, 364180, 364591, 364967, 365365, 365752, 366144, 366537, 366945]","[124, 134, 108, 139, 164, 157, 168, 163, 124, 100, 134, 36, 54, 217, 136, 117, 239, 225, 237, 32, 235, 246, 254]","[358111, 358536, 358949, 359362, 359771, 360188, 360587, 360980, 361367, 361767, 362128, 362525, 362900, 363299, 363702, 364122, 364516, 364911, 365300, 365675, 366074, 366456, 366870]","[357821, 358221, 358621, 359021, 359421, 359821, 360221, 360621, 360995, 361380, 361780, 362143, 362539, 362911, 363309, 363709, 364128, 364524, 364920, 365308, 365686, 366083, 366465, 366879]",71,OR,U,R,ITMSR,1.1
0,600,trial,0,11,11,11,trial,"['S', 'S', 'S', 'S', 'S', 'S', 'S', 'S', 'C', 'C', 'C', 'C', 'C', 'C', 'C', 'C', 'C', 'C', 'C', 'C', 'C', 'C', 'C', 'C']","[372592, 373103, 373505, 374081, 374674, 375257, 375865, 376481, 377052, 377635, 378221, 378797, 379399, 379965, 380557, 381140, 381744, 382332, 382922, 383493, 384060, 384654, 385263, 385844]","[372645, 373167, 373605, 374149, 374737, 375332, 375938, 376544, 377121, 377716, 378289, 378875, 379470, 380044, 380643, 381228, 381824, 382401, 382972, 383529, 384128, 384727, 385319, 385901]","[144, 163, 181, 179, 186, 197, 177, 157, 175, 158, 153, 169, 133, 130, 128, 135, 137, 111, 129, 170, 243, 92, 111, 129]","[372598, 373109, 373510, 374086, 374679, 375261, 375870, 376487, 377056, 377640, 378225, 378802, 379405, 379972, 380563, 381147, 381749, 382340, 382935, 383504, 384071, 384662, 385270, 385852]","[372285, 372885, 373485, 374085, 374685, 375285, 375885, 376485, 377072, 377655, 378242, 378817, 379419, 379985, 380577, 381160, 381764, 382352, 382942, 383513, 384080, 384674, 385283, 385864]",71,OR,U,R,ITMSR,1.1
3,600,trial,0,12,12,12,trial,"['S', 'S', 'S', 'S', 'S', 'S', 'S', 'C', 'C', 'C', 'C', 'C', 'C', 'C', 'C', 'C', 'C', 'C', 'C', 'C', 'C', 'C', 'C']","[392004, 392469, 393038, 393600, 394173, 394752, 395315, 395945, 396582, 397156, 397716, 398340, 398940, 399556, 400125, 400710, 401317, 401896, 402477, 403066, 403665, 404256, 404839]","[392067, 392546, 393100, 393656, 394227, 394807, 395370, 396001, 396649, 397210, 397784, 398396, 398991, 399611, 400181, 400773, 401377, 401971, 402564, 403144, 403732, 404341, 404984]","[197, 162, 152, 75, 145, 171, 149, 158, 142, 115, 136, 124, 66, 105, 129, 41, 106, 78, 119, 118, 116, 107, 128]","[392008, 392474, 393044, 393609, 394184, 394766, 395328, 395953, 396591, 397165, 397722, 398346, 398947, 399562, 400133, 400722, 401327, 401906, 402484, 403074, 403674, 404264, 404847]","[391218, 391818, 392418, 393018, 393618, 394218, 394818, 395418, 395965, 396602, 397176, 397736, 398360, 398960, 399576, 400145, 400730, 401337, 401916, 402497, 403086, 403685, 404276, 404859]",71,OR,U,R,ITMSR,1.1
1,600,trial,0,13,13,13,trial,"['S', 'S', 'S', 'S', 'S', 'S', 'S', 'S', 'C', 'C', 'C', 'C', 'C', 'C', 'C', 'C', 'C', 'C', 'C', 'C', 'C', 'C', 'C', 'C']","[410692, 411117, 411635, 412194, 412798, 413402, 414021, 414652, 415232, 415800, 416396, 417006, 417590, 418136, 418827, 419438, 420012, 420597, 421206, 421755, 422347, 422953, 423534, 424179]","[410767, 411205, 411708, 412261, 412851, 413469, 414085, 414701, 415302, 415860, 416471, 417070, 417646, 418207, 418906, 419495, 420068, 420656, 421263, 421825, 422430, 423032, 423616, 424253]","[162, 167, 143, 166, 39, 92, 120, 0, 54, 50, 61, 68, 24, 57, 94, 58, 76, 129, 84, 86, 146, 138, 95, 86]","[410698, 411137, 411655, 412207, 412813, 413424, 414030, 414667, 415249, 415816, 416411, 417016, 417602, 418148, 418840, 419449, 420023, 420608, 421218, 421769, 422354, 422962, 423547, 424192]","[410475, 411075, 411675, 412275, 412875, 413475, 414075, 414675, 415252, 415820, 416416, 417026, 417610, 418156, 418847, 419458, 420032, 420617, 421226, 421775, 422367, 422973, 423554, 424199]",71,OR,U,R,ITMSR,1.1
4,600,trial,0,14,14,14,trial,"['S', 'S', 'S', 'S', 'S', 'S', 'S', 'S', 'C', 'C', 'C', 'C', 'C', 'C', 'C', 'C', 'C', 'C', 'C', 'C', 'C', 'C', 'C', 'C']","[430040, 430444, 430993, 431564, 432120, 432787, 433368, 433983, 434605, 435188, 435750, 436307, 436862, 437438, 437988, 438542, 439036, 439673, 440255, 440817, 441459, 441937, 442626, 443212]","[430083, 430497, 431040, 431608, 432169, 432821, 433427, 434028, 434647, 435224, 435799, 436350, 436911, 437483, 438022, 438575, 439076, 439725, 440297, 440850, 441504, 441974, 442680, 443248]","[129, 170, 155, 135, 148, 205, 247, 206, 211, 221, 148, 112, 82, 80, 53, 54, 174, 109, 28, 0, 87, 107, 164, 230]","[430055, 430461, 431009, 431577, 432129, 432798, 433387, 433989, 434609, 435194, 435756, 436312, 436868, 437443, 437993, 438547, 439042, 439680, 440261, 440824, 441466, 441944, 442634, 443218]","[429859, 430459, 431059, 431660, 432259, 432859, 433459, 434059, 434625, 435208, 435770, 436327, 436882, 437458, 438008, 438562, 439056, 439693, 440275, 440837, 441479, 441957, 442646, 443232]",71,OR,U,R,ITMSR,1.1
1,600,trial,0,15,15,15,trial,"['S', 'S', 'S', 'S', 'S', 'S', 'S', 'S', 'C', 'C', 'C', 'C', 'C', 'C', 'C', 'C', 'C', 'C', 'C', 'C', 'C', 'C', 'C', 'C']","[449145, 449556, 450084, 450636, 451211, 451826, 452421, 453030, 453670, 454269, 454897, 455478, 456084, 456675, 457237, 457842, 458460, 459073, 459681, 460296, 460907, 461490, 462084, 462685]","[449218, 449631, 450141, 450688, 451257, 451878, 452474, 453073, 453720, 454331, 454948, 455539, 456144, 456726, 457303, 457902, 458517, 459141, 459724, 460364, 460968, 461540, 462158, 462741]","[194, 164, 144, 137, 54, 113, 114, 26, 75, 66, 92, 120, 114, 89, 153, 125, 86, 99, 17, 72, 96, 90, 73, 87]","[449149, 449561, 450092, 450644, 451220, 451834, 452426, 453041, 453681, 454280, 454907, 455486, 456092, 456683, 457243, 457851, 458470, 459081, 459693, 460309, 460921, 461499, 462101, 462699]","[448925, 449525, 450125, 450725, 451325, 451926, 452525, 453125, 453690, 454289, 454917, 455498, 456104, 456695, 457257, 457862, 458480, 459094, 459701, 460316, 460928, 461510, 462104, 462705]",71,OR,U,R,ITMSR,1.1
0,600,trial,0,16,16,16,trial,"['S', 'S', 'S', 'S', 'S', 'S', 'S', 'S', 'C', 'C', 'C', 'C', 'C', 'C', 'C', 'C', 'C', 'C', 'C', 'C', 'C', 'C', 'C', 'C']","[468609, 469075, 469459, 469999, 470575, 471152, 471806, 472415, 472985, 473621, 474225, 474789, 475457, 475996, 476627, 477204, 477737, 478362, 478990, 479553, 480116, 480713, 481236, 481901]","[468658, 469132, 469536, 470059, 470624, 471216, 471848, 472459, 473044, 473672, 474267, 474828, 475501, 476045, 476670, 477243, 477782, 478400, 479026, 479593, 480154, 480748, 481276, 481945]","[74, 20, 130, 171, 155, 148, 134, 134, 128, 117, 120, 125, 109, 97, 77, 104, 107, 250, 133, 143, 113, 48, 56, 51]","[468627, 469097, 469480, 470013, 470586, 471158, 471812, 472421, 472992, 473629, 474231, 474796, 475464, 476003, 476635, 477212, 477745, 478376, 479000, 479561, 480123, 480721, 481245, 481910]","[468283, 468883, 469483, 470083, 470683, 471283, 471883, 472483, 473005, 473641, 474245, 474809, 475478, 476016, 476647, 477224, 477757, 478382, 479010, 479574, 480136, 480733, 481256, 481922]",71,OR,U,R,ITMSR,1.1
3,400,trial,0,17,17,17,trial,"['S', 'S', 'S', 'S', 'S', 'S', 'S', 'C', 'C', 'C', 'C', 'C', 'C', 'C', 'C', 'C', 'C', 'C', 'C', 'C', 'C', 'C', 'C']","[488046, 488493, 488813, 489182, 489574, 489980, 490371, 490786, 491156, 491513, 491856, 492224, 492584, 492986, 493622, 493896, 494255, 494622, 495000, 495364, 495695, 496061, 496396]","[488097, 488543, 488859, 489224, 489614, 490016, 490408, 490806, 491190, 491549, 491896, 492244, 492622, 493017, 493659, 493937, 494300, 494657, 495036, 495384, 495738, 496092, 496438]","[137, 137, 126, 66, 186, 230, 18, 230, 120, 113, 201, 38, 141, 245, 60, 254, 80, 96, 19, 20, 33, 187, 171]","[488061, 488508, 488829, 489197, 489592, 489993, 490385, 490798, 491172, 491533, 491876, 492232, 492602, 493000, 493637, 493913, 494272, 494640, 495017, 495369, 495712, 496077, 496416]","[487633, 488033, 488433, 488834, 489234, 489634, 490034, 490434, 490806, 491176, 491533, 491876, 492244, 492604, 493006, 493642, 493916, 494275, 494642, 495021, 495384, 495715, 496081, 496416]",71,OR,U,R,ITMSR,1.1
0,400,trial,0,18,18,18,trial,"['S', 'S', 'S', 'S', 'S', 'S', 'S', 'C', 'C', 'C', 'C', 'C', 'C', 'C', 'C', 'C', 'C', 'C', 'C', 'C', 'C', 'C', 'C']","[502025, 502594, 503003, 503382, 503774, 504142, 504510, 504935, 505304, 505659, 506020, 506394, 506738, 507139, 507494, 507882, 508246, 508622, 508972, 509341, 509727, 510089, 510470]","[502074, 502658, 503066, 503444, 503826, 504201, 504559, 504980, 505336, 505701, 506064, 506430, 506786, 507171, 507550, 507934, 508297, 508663, 509023, 509381, 509784, 510148, 510514]","[123, 118, 108, 131, 143, 148, 130, 150, 94, 134, 76, 11, 92, 8, 20, 45, 24, 233, 15, 126, 200, 231, 148]","[502031, 502601, 503009, 503387, 503780, 504148, 504516, 504940, 505312, 505665, 506029, 506403, 506745, 507148, 507505, 507890, 508255, 508632, 508981, 509352, 509737, 510098, 510482]","[501801, 502201, 502601, 503001, 503401, 503801, 504201, 504601, 504955, 505324, 505679, 506040, 506414, 506758, 507159, 507514, 507902, 508266, 508642, 508992, 509361, 509747, 510109, 510490]",71,OR,U,R,ITMSR,1.1
3,400,trial,0,19,19,19,trial,"['S', 'S', 'S', 'S', 'S', 'S', 'S', 'C', 'C', 'C', 'C', 'C', 'C', 'C', 'C', 'C', 'C', 'C', 'C', 'C', 'C', 'C', 'C']","[516131, 516535, 516939, 517301, 517687, 518017, 518450, 518842, 519317, 519696, 520075, 520452, 520839, 521224, 521584, 521953, 522362, 522742, 523107, 523488, 523826, 524204, 524623]","[516185, 516585, 516984, 517352, 517748, 518072, 518497, 518888, 519363, 519746, 520115, 520508, 520896, 521272, 521635, 521999, 522419, 522798, 523152, 523542, 523889, 524248, 524677]","[111, 90, 90, 118, 152, 8, 62, 40, 33, 210, 157, 245, 47, 81, 96, 29, 232, 24, 82, 119, 177, 66, 181]","[516141, 516543, 516946, 517307, 517692, 518044, 518469, 518862, 519337, 519716, 520095, 520476, 520863, 521245, 521605, 521973, 522390, 522765, 523129, 523512, 523849, 524224, 524647]","[515784, 516184, 516584, 516984, 517384, 517784, 518184, 518584, 518862, 519337, 519716, 520095, 520472, 520859, 521244, 521604, 521973, 522382, 522762, 523127, 523508, 523846, 524224, 524643]",71,OR,U,R,ITMSR,1.1
4,400,trial,0,20,20,20,trial,"['S', 'S', 'S', 'S', 'S', 'S', 'S', 'C', 'C', 'C', 'C', 'C', 'C', 'C', 'C', 'C', 'C', 'C', 'C', 'C', 'C', 'C', 'C']","[530899, 531271, 531654, 532026, 532447, 532803, 533215, 533586, 533993, 534374, 534788, 535147, 535539, 535931, 536340, 536707, 537090, 537469, 537833, 538194, 538603, 538952, 539347]","[530948, 531322, 531694, 532071, 532486, 532856, 533257, 533637, 534037, 534422, 534833, 535200, 535591, 535981, 536380, 536768, 537122, 537510, 537874, 538242, 538645, 538999, 539397]","[5, 226, 157, 140, 42, 7, 179, 7, 145, 57, 18, 109, 1, 146, 250, 101, 195, 9, 38, 194, 87, 115, 131]","[530911, 531279, 531664, 532035, 532457, 532810, 533225, 533595, 534004, 534386, 534799, 535158, 535550, 535944, 536353, 536716, 537103, 537482, 537841, 538209, 538617, 538968, 539367]","[530438, 530838, 531238, 531638, 532038, 532439, 532838, 533238, 533606, 534013, 534394, 534808, 535168, 535559, 535951, 536360, 536727, 537110, 537489, 537853, 538214, 538624, 538972, 539367]",71,OR,U,R,ITMSR,1.1
2,400,trial,0,21,21,21,trial,"['S', 'S', 'S', 'S', 'S', 'S', 'S', 'C', 'C', 'C', 'C', 'C', 'C', 'C', 'C', 'C', 'C', 'C', 'C', 'C', 'C', 'C', 'C', 'C']","[545362, 545802, 546216, 546614, 547019, 547451, 547849, 548245, 548641, 549026, 549426, 549810, 550204, 550592, 551011, 551389, 551800, 552215, 552620, 553476, 553740, 554124, 554430, 554758]","[545419, 545851, 546272, 546667, 547062, 547502, 547902, 548305, 548686, 549091, 549489, 549884, 550252, 550643, 551056, 551441, 551830, 552243, 552653, 553521, 553792, 554216, 554506, 554825]","[211, 36, 33, 79, 149, 10, 208, 140, 144, 6, 69, 63, 150, 87, 24, 20, 9, 11, 27, 119, 160, 142, 185, 123]","[545388, 545825, 546242, 546640, 547047, 547476, 547876, 548268, 548663, 549053, 549450, 549842, 550227, 550597, 551028, 551409, 551815, 552237, 552633, 553496, 553759, 554150, 554450, 554778]","[545103, 545502, 545902, 546302, 546702, 547102, 547502, 547902, 548265, 548661, 549046, 549446, 549830, 550224, 550612, 551031, 551409, 551820, 552236, 552640, 553496, 554144, 554450, 554778]",71,OR,U,R,ITMSR,1.1
2,600,trial,0,22,22,22,trial,"['S', 'S', 'S', 'S', 'S', 'S', 'S', 'S', 'C', 'C', 'C', 'C', 'C', 'C', 'C', 'C', 'C', 'C', 'C', 'C', 'C', 'C', 'C', 'C']","[560472, 560965, 561515, 561995, 562529, 563158, 563729, 564304, 564889, 565436, 566021, 566593, 567158, 567665, 568351, 568903, 569442, 569997, 570563, 571098, 571691, 572239, 572804, 573366]","[560524, 561032, 561587, 562066, 562584, 563213, 563803, 564365, 564980, 565556, 566134, 566684, 567263, 567799, 568480, 569056, 569576, 570148, 570739, 571281, 571877, 572434, 573015, 573581]","[134, 21, 103, 142, 169, 179, 192, 186, 179, 128, 41, 44, 47, 97, 9, 46, 36, 85, 116, 145, 157, 151, 158, 171]","[560494, 560989, 561534, 562010, 562544, 563174, 563746, 564322, 564909, 565459, 566053, 566618, 567184, 567694, 568430, 568988, 569487, 570079, 570658, 571189, 571790, 572341, 572911, 573476]","[560256, 560856, 561456, 562056, 562656, 563256, 563856, 564456, 564909, 565456, 566041, 566614, 567178, 567685, 568371, 568923, 569462, 570017, 570584, 571118, 571711, 572259, 572824, 573386]",71,OR,U,R,ITMSR,1.1
0,400,trial,0,23,23,23,trial,"['S', 'S', 'S', 'S', 'S', 'S', 'S', 'C', 'C', 'C', 'C', 'C', 'C', 'C', 'C', 'C', 'C', 'C', 'C', 'C', 'C', 'C', 'C']","[579357, 579781, 580151, 580587, 580980, 581351, 581745, 582151, 582581, 582977, 583361, 583742, 584154, 584534, 584912, 585294, 585702, 586075, 586468, 586871, 587265, 587652, 588041]","[579405, 579860, 580244, 580652, 581038, 581429, 581831, 582251, 582674, 583090, 583471, 583854, 584282, 584663, 585047, 585420, 585832, 586170, 586603, 586996, 587396, 587778, 588152]","[237, 221, 101, 178, 83, 176, 148, 164, 111, 47, 45, 230, 46, 60, 63, 4, 34, 213, 77, 37, 64, 99, 72]","[579381, 579814, 580188, 580618, 581001, 581388, 581768, 582168, 582606, 583003, 583388, 583818, 584228, 584609, 584991, 585350, 585779, 586107, 586548, 586938, 587332, 587681, 588064]","[579096, 579496, 579896, 580296, 580696, 581096, 581496, 581896, 582171, 582601, 582998, 583382, 583762, 584174, 584554, 584932, 585314, 585722, 586095, 586488, 586891, 587285, 587672, 588061]",71,OR,U,R,ITMSR,1.1
3,600,trial,0,24,24,24,trial,"['S', 'S', 'S', 'S', 'S', 'S', 'S', 'S', 'C', 'C', 'C', 'C', 'C', 'C', 'C', 'C', 'C', 'C', 'C', 'C', 'C', 'C', 'C', 'C']","[593932, 594247, 594788, 595401, 596020, 596602, 597188, 597828, 598431, 599003, 599597, 600180, 600734, 601309, 601892, 602425, 602989, 603581, 604128, 604698, 605281, 605840, 606385, 606971]","[593985, 594345, 594915, 595506, 596135, 596698, 597277, 597933, 598529, 599129, 599718, 600285, 600841, 601422, 601995, 602539, 603103, 603685, 604251, 604826, 605381, 605948, 606493, 607092]","[59, 110, 132, 140, 133, 82, 85, 103, 83, 79, 50, 56, 74, 93, 71, 76, 37, 25, 68, 67, 44, 79, 46, 62]","[593953, 594277, 594816, 595427, 596048, 596632, 597218, 597860, 598459, 599061, 599659, 600212, 600764, 601347, 601930, 602476, 603023, 603619, 604167, 604760, 605312, 605874, 606418, 607008]","[593685, 594285, 594885, 595485, 596085, 596685, 597285, 597885, 598451, 599023, 599617, 600200, 600754, 601329, 601912, 602445, 603010, 603601, 604148, 604718, 605301, 605860, 606405, 606991]",71,OR,U,R,ITMSR,1.1
4,600,trial,0,25,25,25,trial,"['S', 'S', 'S', 'S', 'S', 'S', 'S', 'C', 'C', 'C', 'C', 'C', 'C', 'C', 'C', 'C', 'C', 'C', 'C', 'C', 'C', 'C', 'C']","[612943, 613576, 614201, 614806, 615399, 615999, 616612, 617238, 617824, 618396, 618985, 619554, 620114, 620721, 621300, 621881, 622448, 623027, 623585, 624178, 624704, 625296, 625854]","[613051, 613693, 614295, 614892, 615493, 616092, 616691, 617324, 617940, 618521, 619107, 619684, 620259, 620858, 621449, 621995, 622580, 623153, 623718, 624291, 624859, 625436, 625998]","[28, 43, 63, 21, 60, 55, 37, 65, 38, 102, 86, 97, 114, 128, 147, 121, 141, 130, 136, 105, 143, 142, 142]","[612972, 613642, 614228, 614831, 615436, 616023, 616636, 617264, 617880, 618464, 619047, 619617, 620182, 620782, 621369, 621938, 622513, 623087, 623649, 624231, 624778, 625355, 625915]","[612570, 613170, 613770, 614370, 614970, 615570, 616170, 616770, 617259, 617844, 618416, 619005, 619574, 620134, 620741, 621320, 621901, 622468, 623047, 623605, 624198, 624724, 625316, 625874]",71,OR,U,R,ITMSR,1.1
1,400,trial,0,26,26,26,trial,"['S', 'S', 'S', 'S', 'S', 'S', 'S', 'C', 'C', 'C', 'C', 'C', 'C', 'C', 'C', 'C', 'C', 'C', 'C', 'C', 'C', 'C', 'C']","[632050, 632473, 632775, 633157, 633538, 633914, 634328, 634737, 635089, 635427, 635846, 636257, 636660, 637078, 637519, 637907, 638291, 638695, 639116, 639494, 639916, 640305, 640737]","[632177, 632566, 632880, 633285, 633660, 634063, 634464, 634851, 635204, 635543, 635969, 636370, 636785, 637209, 637654, 638053, 638422, 638849, 639257, 639629, 640049, 640440, 640879]","[137, 80, 116, 154, 135, 137, 119, 85, 76, 14, 215, 22, 85, 88, 121, 144, 122, 121, 130, 110, 111, 112, 112]","[632076, 632501, 632801, 633186, 633565, 633991, 634400, 634771, 635148, 635499, 635918, 636283, 636722, 637147, 637584, 637976, 638360, 638765, 639185, 639561, 639983, 640372, 640817]","[631601, 632000, 632400, 632800, 633200, 633601, 634000, 634400, 634757, 635109, 635447, 635866, 636277, 636680, 637099, 637539, 637927, 638311, 638715, 639136, 639514, 639936, 640325, 640757]",71,OR,U,R,ITMSR,1.1
5,400,trial,0,27,27,27,trial,"['S', 'S', 'S', 'S', 'S', 'S', 'S', 'C', 'C', 'C', 'C', 'C', 'C', 'C', 'C', 'C', 'C', 'C', 'C', 'C', 'C', 'C', 'C']","[646521, 646801, 647179, 647577, 647984, 648395, 648792, 649184, 649624, 650036, 650452, 650843, 651225, 651649, 652015, 652422, 652753, 653160, 653532, 653922, 654307, 654665, 655044]","[646559, 646895, 647286, 647661, 648070, 648488, 648884, 649286, 649737, 650146, 650549, 650947, 651330, 651741, 652126, 652531, 652859, 653251, 653650, 654042, 654431, 654802, 655186]","[8, 56, 89, 98, 80, 39, 227, 247, 20, 22, 20, 32, 31, 5, 39, 71, 49, 215, 19, 35, 48, 59, 59]","[646541, 646833, 647207, 647599, 648005, 648422, 648827, 649241, 649684, 650089, 650493, 650896, 651276, 651694, 652066, 652478, 652805, 653202, 653594, 653981, 654361, 654740, 655123]","[646074, 646474, 646874, 647274, 647674, 648074, 648474, 648875, 649204, 649645, 650056, 650472, 650863, 651245, 651669, 652035, 652442, 652773, 653180, 653552, 653942, 654327, 654685, 655064]",71,OR,U,R,ITMSR,1.1
4,400,trial,0,28,28,28,trial,"['S', 'S', 'S', 'S', 'S', 'C', 'C', 'C', 'C', 'C', 'C', 'C', 'C', 'C', 'C', 'C', 'C', 'C', 'C', 'C', 'C']","[661700, 662077, 662482, 662878, 663280, 663701, 664129, 664529, 664936, 665317, 665715, 666091, 666458, 666896, 667255, 667707, 668039, 668459, 668829, 669211, 669570]","[661769, 662169, 662552, 662976, 663379, 663795, 664226, 664631, 665027, 665413, 665814, 666201, 666586, 667005, 667389, 667799, 668160, 668570, 668950, 669315, 669685]","[181, 168, 139, 148, 132, 110, 70, 102, 121, 143, 142, 135, 135, 138, 125, 133, 122, 130, 107, 122, 128]","[661711, 662094, 662500, 662897, 663302, 663718, 664150, 664552, 664957, 665334, 665736, 666119, 666481, 666918, 667329, 667727, 668064, 668484, 668864, 669235, 669594]","[660551, 660952, 661352, 661752, 662152, 662552, 662952, 663352, 663721, 664150, 664549, 664956, 665337, 665735, 666112, 666478, 666916, 667275, 667727, 668059, 668479, 668849, 669231, 669590]",71,OR,U,R,ITMSR,1.1
2,600,trial,0,29,29,29,trial,"['S', 'S', 'S', 'S', 'S', 'S', 'S', 'C', 'C', 'C', 'C', 'C', 'C', 'C', 'C', 'C', 'C', 'C', 'C', 'C', 'C', 'C', 'C']","[675778, 676424, 677038, 677638, 678262, 678877, 679501, 680112, 680733, 681349, 681890, 682489, 683103, 683672, 684230, 684796, 685404, 685976, 686556, 687129, 687676, 688252, 688769]","[675867, 676542, 677131, 677728, 678332, 678938, 679601, 680179, 680819, 681440, 681997, 682611, 683210, 683789, 684375, 684928, 685514, 686111, 686689, 687243, 687775, 688370, 688884]","[174, 179, 170, 126, 67, 59, 252, 200, 1, 251, 241, 233, 3, 27, 60, 33, 255, 3, 237, 17, 16, 34, 234]","[675795, 676448, 677058, 677660, 678282, 678897, 679534, 680118, 680765, 681381, 681927, 682522, 683137, 683707, 684315, 684865, 685443, 686050, 686626, 687161, 687709, 688285, 688804]","[675365, 675964, 676564, 677165, 677765, 678365, 678965, 679565, 680132, 680753, 681369, 681910, 682509, 683123, 683693, 684250, 684816, 685424, 685997, 686576, 687149, 687696, 688272, 688789]",71,OR,U,R,ITMSR,1.1
5,600,trial,0,30,30,30,trial,"['S', 'S', 'S', 'S', 'S', 'S', 'S', 'C', 'C', 'C', 'C', 'C', 'C', 'C', 'C', 'C', 'C', 'C', 'C', 'C', 'C', 'C', 'C']","[736460, 737132, 737739, 738586, 739017, 739559, 740167, 740786, 741358, 741951, 742553, 743127, 743704, 744288, 744875, 745454, 746049, 746636, 747226, 747796, 748362, 748951, 749577]","[736556, 737197, 737789, 738632, 739075, 739624, 740220, 740837, 741422, 742021, 742620, 743190, 743769, 744339, 744923, 745511, 746110, 746696, 747273, 747875, 748441, 749017, 749658]","[173, 131, 83, 4, 133, 196, 172, 154, 112, 110, 94, 105, 39, 209, 107, 157, 204, 178, 98, 192, 167, 4, 23]","[736473, 737145, 737753, 738598, 739028, 739570, 740176, 740797, 741374, 741964, 742564, 743139, 743721, 744303, 744890, 745470, 746063, 746656, 747246, 747826, 748391, 748973, 749599]","[736069, 736669, 737269, 737869, 738469, 739069, 739670, 740269, 740806, 741378, 741971, 742573, 743147, 743725, 744308, 744895, 745474, 746070, 746656, 747246, 747816, 748382, 748972, 749597]",71,OR,U,R,ITMSR,1.1
5,400,trial,0,31,31,31,trial,"['S', 'S', 'S', 'S', 'S', 'S', 'S', 'C', 'C', 'C', 'C', 'C', 'C', 'C', 'C', 'C', 'C', 'C', 'C', 'C', 'C', 'C', 'C']","[755244, 755661, 756104, 756513, 756876, 757304, 757691, 758091, 758499, 758904, 759288, 759711, 760109, 760492, 760857, 761261, 761655, 762046, 762433, 762824, 763220, 763587, 763996]","[755297, 755723, 756167, 756566, 756936, 757354, 757741, 758138, 758533, 758966, 759340, 759770, 760165, 760545, 760915, 761322, 761706, 762096, 762490, 762880, 763270, 763650, 764066]","[95, 64, 103, 65, 151, 120, 95, 17, 199, 235, 250, 210, 4, 237, 54, 189, 232, 115, 229, 207, 207, 232, 63]","[755262, 755681, 756126, 756532, 756894, 757322, 757707, 758112, 758513, 758927, 759310, 759740, 760129, 760512, 760877, 761286, 761675, 762066, 762457, 762845, 763242, 763611, 764016]","[755036, 755436, 755836, 756236, 756636, 757037, 757437, 757837, 758111, 758519, 758924, 759308, 759731, 760129, 760512, 760877, 761281, 761675, 762066, 762454, 762844, 763240, 763608, 764016]",71,OR,U,R,ITMSR,1.1
0,600,trial,0,32,32,32,trial,"['S', 'S', 'S', 'S', 'S', 'S', 'S', 'C', 'C', 'C', 'C', 'C', 'C', 'C', 'C', 'C', 'C', 'C', 'C', 'C', 'C', 'C', 'C']","[770409, 770902, 771389, 771969, 772555, 773210, 773825, 774414, 774973, 775560, 776129, 776676, 777256, 777790, 778370, 778970, 779489, 780035, 780580, 781119, 781668, 782214, 782734]","[770484, 770967, 771441, 772008, 772600, 773261, 773876, 774464, 775023, 775607, 776180, 776724, 777310, 777863, 778421, 779019, 779535, 780079, 780624, 781159, 781718, 782260, 782785]","[153, 151, 109, 159, 157, 175, 165, 148, 144, 136, 155, 149, 152, 151, 147, 142, 150, 156, 153, 151, 163, 164, 163]","[770421, 770919, 771410, 771981, 772572, 773224, 773841, 774431, 774989, 775580, 776146, 776693, 777273, 777811, 778386, 778985, 779501, 780049, 780595, 781131, 781682, 782227, 782746]","[769692, 770292, 770892, 771492, 772092, 772692, 773293, 773893, 774434, 774993, 775580, 776150, 776696, 777276, 777810, 778390, 778990, 779509, 780055, 780600, 781139, 781688, 782234, 782754]",71,OR,U,R,ITMSR,1.1
1,400,trial,0,33,33,33,trial,"['S', 'S', 'S', 'S', 'S', 'C', 'C', 'C', 'C', 'C', 'C', 'C', 'C', 'C', 'C', 'C', 'C', 'C', 'C', 'C', 'C']","[789616, 789993, 790411, 790778, 791227, 791630, 791984, 792391, 792771, 793156, 793528, 793911, 794306, 794706, 795104, 795481, 795860, 796261, 796633, 797012, 797387]","[789680, 790049, 790462, 790834, 791267, 791678, 792038, 792450, 792824, 793203, 793587, 793964, 794364, 794758, 795162, 795525, 795916, 796308, 796687, 797072, 797448]","[165, 148, 138, 172, 161, 170, 170, 72, 22, 223, 31, 243, 23, 253, 233, 227, 68, 239, 116, 100, 108]","[789626, 790000, 790429, 790797, 791243, 791647, 792001, 792415, 792795, 793178, 793551, 793933, 794328, 794731, 795130, 795503, 795882, 796283, 796653, 797036, 797414]","[788543, 788943, 789343, 789743, 790144, 790543, 790943, 791343, 791650, 792004, 792411, 792792, 793176, 793548, 793931, 794327, 794726, 795124, 795501, 795880, 796281, 796653, 797032, 797407]",71,OR,U,R,ITMSR,1.1
2,400,trial,0,34,34,34,trial,"['S', 'S', 'S', 'S', 'S', 'S', 'C', 'C', 'C', 'C', 'C', 'C', 'C', 'C', 'C', 'C', 'C', 'C', 'C', 'C', 'C', 'C']","[803791, 804163, 804511, 804897, 805324, 805739, 806158, 806546, 806938, 807334, 807752, 808142, 808485, 808880, 809283, 809706, 810071, 810429, 810810, 811185, 811544, 811925]","[803840, 804219, 804563, 804947, 805379, 805788, 806214, 806605, 806999, 807395, 807815, 808198, 808552, 808939, 809339, 809766, 810131, 810476, 810858, 811234, 811603, 811982]","[124, 134, 150, 151, 122, 65, 85, 45, 0, 9, 233, 198, 198, 142, 183, 88, 175, 1, 183, 115, 143, 135]","[803802, 804173, 804525, 804915, 805345, 805761, 806180, 806569, 806964, 807360, 807779, 808167, 808513, 808908, 809305, 809731, 810098, 810451, 810836, 811209, 811572, 811951]","[803011, 803411, 803811, 804211, 804611, 805011, 805411, 805811, 806178, 806566, 806958, 807354, 807772, 808162, 808505, 808900, 809304, 809726, 810091, 810449, 810830, 811205, 811565, 811945]",71,OR,U,R,ITMSR,1.1
3,400,trial,0,35,35,35,trial,"['S', 'S', 'S', 'S', 'S', 'S', 'S', 'C', 'C', 'C', 'C', 'C', 'C', 'C', 'C', 'C', 'C', 'C', 'C', 'C', 'C', 'C', 'C']","[817935, 818316, 818693, 819109, 819511, 819898, 820293, 820705, 821062, 821468, 821901, 822252, 822599, 822948, 823323, 823704, 824073, 824449, 824842, 825229, 825613, 825981, 826342]","[817995, 818375, 818750, 819158, 819568, 819958, 820366, 820765, 821118, 821515, 821941, 822308, 822647, 823009, 823392, 823756, 824132, 824505, 824894, 825282, 825687, 826052, 826433]","[83, 70, 104, 17, 68, 57, 74, 0, 245, 142, 36, 184, 183, 239, 33, 223, 44, 16, 228, 228, 128, 90, 120]","[817958, 818339, 818713, 819130, 819535, 819922, 820320, 820732, 821084, 821488, 821922, 822278, 822621, 822973, 823352, 823726, 824096, 824473, 824865, 825255, 825646, 826009, 826373]","[817563, 817964, 818363, 818763, 819163, 819563, 819963, 820363, 820725, 821082, 821488, 821921, 822273, 822619, 822968, 823343, 823725, 824093, 824469, 824862, 825249, 825633, 826001, 826362]",71,OR,U,R,ITMSR,1.1
2,600,trial,0,36,36,36,trial,"['S', 'S', 'S', 'S', 'S', 'S', 'S', 'S', 'C', 'C', 'C', 'C', 'C', 'C', 'C', 'C', 'C', 'C', 'C', 'C', 'C', 'C', 'C', 'C']","[832297, 832742, 833149, 833686, 834329, 834963, 835562, 836139, 836732, 837307, 837836, 838406, 838913, 839501, 840072, 840613, 841195, 841742, 842310, 842834, 843374, 843929, 844457, 844955]","[832372, 832803, 833210, 833751, 834384, 835005, 835611, 836189, 836786, 837363, 837898, 838459, 838969, 839565, 840129, 840670, 841245, 841804, 842365, 842878, 843412, 843976, 844509, 845002]","[120, 118, 113, 122, 93, 233, 54, 86, 61, 88, 109, 118, 93, 110, 115, 107, 105, 91, 90, 60, 101, 62, 131, 105]","[832323, 832763, 833170, 833708, 834353, 834981, 835581, 836159, 836755, 837328, 837859, 838426, 838933, 839522, 840093, 840633, 841216, 841765, 842332, 842856, 843390, 843949, 844477, 844972]","[832067, 832667, 833267, 833867, 834467, 835067, 835667, 836268, 836752, 837327, 837856, 838426, 838933, 839521, 840092, 840633, 841216, 841762, 842330, 842854, 843394, 843949, 844477, 844975]",71,OR,U,R,ITMSR,1.1
1,600,trial,0,37,37,37,trial,"['S', 'S', 'S', 'S', 'S', 'S', 'C', 'C', 'C', 'C', 'C', 'C', 'C', 'C', 'C', 'C', 'C', 'C', 'C', 'C', 'C', 'C']","[851507, 852052, 852642, 853244, 853864, 854499, 855104, 855719, 856337, 856918, 857547, 858107, 858673, 859247, 859829, 860421, 860963, 861521, 862177, 862755, 863347, 863932]","[851576, 852114, 852688, 853292, 853913, 854544, 855160, 855777, 856391, 856971, 857606, 858165, 858737, 859309, 859910, 860512, 861036, 861597, 862239, 862812, 863414, 863989]","[58, 12, 49, 82, 97, 69, 83, 79, 79, 68, 58, 21, 112, 108, 76, 110, 89, 68, 33, 125, 41, 81]","[851536, 852076, 852661, 853263, 853884, 854518, 855127, 855740, 856361, 856940, 857570, 858130, 858695, 859271, 859856, 860448, 860990, 861550, 862203, 862782, 863373, 863955]","[850390, 850989, 851589, 852189, 852789, 853389, 853989, 854589, 855124, 855739, 856357, 856938, 857567, 858127, 858693, 859267, 859849, 860441, 860983, 861541, 862197, 862775, 863367, 863952]",71,OR,U,R,ITMSR,1.1
3,600,trial,0,38,38,38,trial,"['S', 'S', 'S', 'S', 'S', 'S', 'S', 'C', 'C', 'C', 'C', 'C', 'C', 'C', 'C', 'C', 'C', 'C', 'C', 'C', 'C', 'C', 'C']","[869920, 870450, 871028, 871663, 872255, 872887, 873464, 874122, 874700, 875283, 875830, 876440, 877004, 877549, 878108, 878728, 879246, 879828, 880399, 880985, 881518, 882069, 882626]","[869948, 870492, 871097, 871724, 872301, 872930, 873519, 874161, 874746, 875335, 875886, 876485, 877051, 877599, 878170, 878786, 879328, 879896, 880458, 881037, 881565, 882127, 882688]","[78, 15, 159, 184, 179, 170, 179, 160, 155, 169, 170, 137, 153, 165, 162, 163, 164, 170, 171, 167, 156, 162, 166]","[869934, 870454, 871045, 871676, 872267, 872902, 873479, 874135, 874715, 875297, 875846, 876455, 877019, 877563, 878124, 878743, 879261, 879843, 880412, 880998, 881531, 882084, 882641]","[869413, 870013, 870614, 871213, 871813, 872413, 873013, 873613, 874142, 874720, 875303, 875850, 876461, 877024, 877570, 878128, 878748, 879266, 879848, 880419, 881005, 881538, 882089, 882647]",71,OR,U,R,ITMSR,1.1
3,600,trial,0,39,39,39,trial,"['S', 'S', 'S', 'S', 'S', 'S', 'S', 'C', 'C', 'C', 'C', 'C', 'C', 'C', 'C', 'C', 'C', 'C', 'C', 'C', 'C', 'C', 'C']","[889022, 889450, 889948, 890520, 891150, 891778, 892442, 893010, 893613, 894185, 894756, 895356, 895965, 896540, 897156, 897729, 898368, 898932, 899519, 900107, 900657, 901267, 901831]","[889082, 889504, 890022, 890584, 891201, 891826, 892485, 893054, 893662, 894230, 894810, 895406, 896019, 896585, 897207, 897778, 898430, 898992, 899572, 900163, 900728, 901352, 901886]","[135, 86, 154, 164, 167, 148, 85, 65, 96, 85, 63, 82, 98, 113, 104, 28, 65, 114, 78, 58, 146, 138, 75]","[889036, 889474, 889973, 890539, 891165, 891794, 892459, 893030, 893629, 894202, 894778, 895376, 895985, 896561, 897174, 897751, 898393, 898952, 899539, 900129, 900673, 901284, 901853]","[888278, 888877, 889477, 890077, 890677, 891277, 891877, 892477, 893030, 893633, 894205, 894776, 895376, 895985, 896560, 897176, 897750, 898388, 898952, 899539, 900127, 900677, 901287, 901851]",71,OR,U,R,ITMSR,1.1
3,400,trial,0,40,40,40,trial,"['S', 'S', 'S', 'S', 'S', 'S', 'S', 'C', 'C', 'C', 'C', 'C', 'C', 'C', 'C', 'C', 'C', 'C', 'C', 'C', 'C', 'C', 'C']","[907805, 908243, 908620, 909002, 909410, 909802, 910198, 910610, 910982, 911371, 911756, 912144, 912568, 912933, 913308, 913661, 914034, 914390, 914745, 915110, 915463, 915822, 916174]","[907851, 908290, 908678, 909061, 909459, 909862, 910255, 910654, 911034, 911423, 911815, 912200, 912617, 912972, 913363, 913718, 914081, 914427, 914785, 915144, 915513, 915877, 916232]","[193, 228, 38, 86, 30, 88, 100, 94, 68, 230, 69, 221, 175, 36, 145, 133, 195, 22, 5, 28, 79, 91, 1]","[907825, 908272, 908646, 909025, 909433, 909825, 910219, 910630, 911009, 911398, 911777, 912173, 912592, 912954, 913332, 913685, 914057, 914407, 914766, 915127, 915486, 915848, 916201]","[907466, 907865, 908265, 908665, 909065, 909465, 909865, 910265, 910630, 911002, 911391, 911776, 912164, 912588, 912953, 913328, 913681, 914054, 914410, 914765, 915130, 915483, 915842, 916194]",71,OR,U,R,ITMSR,1.1
1,400,trial,0,41,41,41,trial,"['S', 'S', 'S', 'S', 'S', 'S', 'S', 'S', 'C', 'C', 'C', 'C', 'C', 'C', 'C', 'C', 'C', 'C', 'C', 'C', 'C', 'C', 'C', 'C']","[922019, 922402, 922771, 923163, 923503, 923879, 924272, 924648, 925176, 925522, 925886, 926255, 926625, 927011, 927398, 927763, 928129, 928519, 928883, 929327, 929724, 930088, 930482, 930833]","[922070, 922463, 922825, 923226, 923549, 923926, 924318, 924696, 925227, 925578, 925945, 926315, 926697, 927101, 927470, 927819, 928192, 928563, 928961, 929412, 929819, 930172, 930528, 930887]","[226, 19, 56, 142, 126, 111, 127, 146, 167, 162, 128, 76, 57, 79, 90, 7, 38, 172, 61, 182, 22, 42, 198, 239]","[922042, 922418, 922784, 923185, 923523, 923899, 924292, 924666, 925192, 925542, 925908, 926275, 926651, 927036, 927424, 927789, 928151, 928540, 928907, 929361, 929753, 930114, 930505, 930856]","[921633, 922033, 922433, 922833, 923233, 923633, 924034, 924434, 925196, 925542, 925906, 926275, 926645, 927031, 927418, 927783, 928149, 928539, 928903, 929347, 929744, 930108, 930502, 930853]",71,OR,U,R,ITMSR,1.1
4,400,trial,0,42,42,42,trial,"['S', 'S', 'S', 'S', 'S', 'S', 'S', 'C', 'C', 'C', 'C', 'C', 'C', 'C', 'C', 'C', 'C', 'C', 'C', 'C', 'C', 'C', 'C']","[936563, 936933, 937298, 937658, 938074, 938473, 938895, 939254, 939621, 940029, 940405, 940790, 941206, 941591, 942000, 942370, 942817, 943214, 943647, 944011, 944386, 944692, 945035]","[936615, 936978, 937341, 937712, 938126, 938523, 938942, 939301, 939665, 940082, 940457, 940844, 941263, 941647, 942084, 942437, 942881, 943282, 943726, 944071, 944458, 944749, 945093]","[66, 59, 59, 121, 53, 83, 247, 118, 86, 77, 49, 94, 40, 15, 68, 41, 11, 67, 63, 56, 73, 74, 38]","[936583, 936950, 937316, 937677, 938096, 938491, 938916, 939274, 939637, 940050, 940429, 940812, 941230, 941615, 942029, 942398, 942843, 943240, 943676, 944038, 944408, 944713, 945060]","[936194, 936592, 936992, 937392, 937792, 938192, 938592, 938992, 939274, 939641, 940049, 940425, 940810, 941227, 941612, 942020, 942390, 942837, 943234, 943667, 944031, 944406, 944712, 945055]",71,OR,U,R,ITMSR,1.1
4,400,trial,0,43,43,43,trial,"['S', 'S', 'S', 'S', 'S', 'S', 'S', 'C', 'C', 'C', 'C', 'C', 'C', 'C', 'C', 'C', 'C', 'C', 'C', 'C', 'C', 'C', 'C']","[950841, 951278, 951632, 952039, 952465, 952852, 953242, 953650, 954037, 954415, 954886, 955311, 955649, 955981, 956325, 956747, 957166, 957538, 957942, 958342, 958715, 959098, 959502]","[950886, 951320, 951681, 952100, 952521, 952903, 953300, 953706, 954083, 954482, 954949, 955369, 955700, 956035, 956388, 956807, 957206, 957577, 957972, 958386, 958759, 959145, 959542]","[90, 53, 44, 75, 60, 33, 69, 73, 15, 10, 200, 47, 30, 105, 72, 75, 224, 199, 232, 213, 134, 49, 138]","[950852, 951288, 951646, 952049, 952476, 952859, 953251, 953658, 954053, 954431, 954907, 955322, 955663, 956001, 956345, 956770, 957187, 957555, 957958, 958363, 958737, 959119, 959522]","[950562, 950962, 951362, 951762, 952162, 952562, 952962, 953362, 953670, 954057, 954435, 954906, 955331, 955669, 956001, 956345, 956767, 957186, 957558, 957962, 958362, 958735, 959118, 959522]",71,OR,U,R,ITMSR,1.1
0,600,trial,0,44,44,44,trial,"['S', 'S', 'S', 'S', 'S', 'S', 'C', 'C', 'C', 'C', 'C', 'C', 'C', 'C', 'C', 'C', 'C', 'C', 'C', 'C', 'C', 'C']","[966414, 966971, 967543, 968147, 968812, 969379, 969958, 970532, 971126, 971789, 972317, 972853, 973435, 973981, 974553, 975102, 975686, 976236, 976785, 977347, 977884, 978392]","[966474, 967025, 967593, 968199, 968866, 969420, 970016, 970591, 971187, 971838, 972375, 972907, 973491, 974044, 974607, 975162, 975741, 976292, 976832, 977387, 977934, 978442]","[130, 84, 112, 116, 73, 116, 10, 20, 240, 102, 242, 219, 178, 233, 107, 140, 252, 208, 234, 68, 11, 74]","[966434, 966994, 967563, 968167, 968828, 969398, 969973, 970553, 971149, 971811, 972342, 972875, 973457, 974004, 974575, 975122, 975708, 976259, 976806, 977364, 977904, 978413]","[965234, 965833, 966433, 967033, 967633, 968233, 968834, 969434, 969978, 970552, 971146, 971809, 972337, 972873, 973455, 974001, 974573, 975122, 975706, 976257, 976805, 977368, 977904, 978412]",71,OR,U,R,ITMSR,1.1
5,400,trial,0,45,45,45,trial,"['S', 'S', 'S', 'S', 'S', 'S', 'C', 'C', 'C', 'C', 'C', 'C', 'C', 'C', 'C', 'C', 'C', 'C', 'C', 'C', 'C', 'C']","[984895, 985243, 985648, 986040, 986435, 986813, 987226, 987621, 988013, 988388, 988780, 989160, 989545, 989925, 990316, 990688, 991054, 991470, 991865, 992224, 992606, 992979]","[984940, 985307, 985712, 986086, 986491, 986860, 987301, 987700, 988069, 988441, 988831, 989206, 989589, 989974, 990362, 990744, 991097, 991508, 991917, 992280, 992653, 993038]","[248, 7, 122, 153, 160, 244, 19, 43, 141, 181, 34, 34, 118, 234, 116, 2, 193, 229, 69, 204, 25, 132]","[984911, 985255, 985664, 986059, 986444, 986829, 987232, 987650, 988018, 988396, 988790, 989170, 989552, 989942, 990333, 990709, 991070, 991483, 991887, 992245, 992626, 993004]","[984152, 984552, 984952, 985352, 985752, 986152, 986552, 986952, 987246, 987641, 988034, 988408, 988801, 989180, 989565, 989945, 990337, 990708, 991074, 991490, 991885, 992244, 992626, 992999]",71,OR,U,R,ITMSR,1.1
4,600,trial,0,46,46,46,trial,"['S', 'S', 'S', 'S', 'S', 'S', 'S', 'S', 'C', 'C', 'C', 'C', 'C', 'C', 'C', 'C', 'C', 'C', 'C', 'C', 'C', 'C', 'C', 'C']","[998688, 999140, 999535, 1000098, 1000717, 1001320, 1001928, 1002525, 1003096, 1003642, 1004237, 1004808, 1005415, 1005993, 1006569, 1007136, 1007691, 1008279, 1008880, 1009445, 1010010, 1010611, 1011070, 1011632]","[998734, 999213, 999616, 1000154, 1000766, 1001381, 1001986, 1002592, 1003152, 1003712, 1004305, 1004884, 1005480, 1006042, 1006615, 1007205, 1007766, 1008355, 1008952, 1009506, 1010075, 1010664, 1011120, 1011691]","[235, 85, 86, 78, 76, 92, 70, 63, 1, 229, 191, 254, 214, 238, 29, 113, 129, 207, 10, 75, 181, 116, 53, 242]","[998694, 999166, 999540, 1000103, 1000721, 1001324, 1001933, 1002530, 1003103, 1003669, 1004267, 1004841, 1005441, 1006017, 1006578, 1007163, 1007728, 1008315, 1008910, 1009473, 1010037, 1010634, 1011094, 1011664]","[998392, 998991, 999591, 1000192, 1000792, 1001392, 1001992, 1002592, 1003116, 1003662, 1004257, 1004828, 1005435, 1006013, 1006589, 1007156, 1007711, 1008300, 1008900, 1009465, 1010030, 1010631, 1011090, 1011652]",71,OR,U,R,ITMSR,1.1
4,600,trial,0,47,47,47,trial,"['S', 'S', 'S', 'S', 'S', 'S', 'S', 'C', 'C', 'C', 'C', 'C', 'C', 'C', 'C', 'C', 'C', 'C', 'C', 'C', 'C', 'C', 'C']","[1017795, 1018400, 1018985, 1019609, 1020226, 1020838, 1021383, 1022050, 1022649, 1023222, 1023821, 1024355, 1025022, 1025603, 1026138, 1026713, 1027237, 1027767, 1028395, 1028933, 1029482, 1030036, 1030577]","[1017843, 1018441, 1019051, 1019674, 1020288, 1020881, 1021456, 1022099, 1022698, 1023286, 1023869, 1024424, 1025092, 1025666, 1026198, 1026783, 1027337, 1027854, 1028478, 1029025, 1029565, 1030097, 1030656]","[38, 2, 69, 66, 141, 237, 159, 169, 147, 50, 231, 168, 238, 0, 204, 202, 39, 206, 209, 220, 205, 135, 192]","[1017804, 1018412, 1019018, 1019639, 1020234, 1020850, 1021422, 1022074, 1022672, 1023250, 1023838, 1024381, 1025048, 1025631, 1026161, 1026742, 1027273, 1027805, 1028424, 1028968, 1029516, 1030062, 1030605]","[1017355, 1017955, 1018555, 1019155, 1019755, 1020355, 1020955, 1021555, 1022070, 1022669, 1023242, 1023841, 1024375, 1025042, 1025624, 1026158, 1026733, 1027257, 1027787, 1028415, 1028953, 1029502, 1030056, 1030597]",71,OR,U,R,ITMSR,1.1
0,400,trial,0,48,48,48,trial,"['S', 'S', 'S', 'S', 'S', 'S', 'S', 'C', 'C', 'C', 'C', 'C', 'C', 'C', 'C', 'C', 'C', 'C', 'C', 'C', 'C', 'C', 'C']","[1036192, 1036575, 1036982, 1037404, 1037796, 1038217, 1038631, 1039041, 1039414, 1039788, 1040191, 1040594, 1040959, 1041334, 1041669, 1042046, 1042426, 1042791, 1043154, 1043512, 1043896, 1044294, 1044661]","[1036239, 1036622, 1037036, 1037457, 1037855, 1038274, 1038682, 1039081, 1039459, 1039850, 1040222, 1040614, 1041011, 1041367, 1041713, 1042066, 1042464, 1042813, 1043195, 1043565, 1043975, 1044345, 1044713]","[38, 68, 66, 72, 81, 64, 210, 110, 105, 206, 61, 32, 52, 137, 42, 40, 61, 131, 41, 134, 210, 99, 65]","[1036203, 1036584, 1037000, 1037420, 1037814, 1038233, 1038652, 1039055, 1039431, 1039812, 1040207, 1040595, 1040982, 1041356, 1041686, 1042050, 1042452, 1042804, 1043165, 1043537, 1043923, 1044319, 1044685]","[1035920, 1036320, 1036720, 1037120, 1037520, 1037920, 1038320, 1038721, 1039062, 1039434, 1039808, 1040211, 1040614, 1040979, 1041354, 1041689, 1042066, 1042446, 1042811, 1043174, 1043532, 1043916, 1044314, 1044681]",71,OR,U,R,ITMSR,1.1
5,600,trial,0,49,49,49,trial,"['S', 'S', 'S', 'S', 'S', 'S', 'S', 'S', 'C', 'C', 'C', 'C', 'C', 'C', 'C', 'C', 'C', 'C', 'C', 'C', 'C', 'C', 'C', 'C']","[1050759, 1051165, 1051578, 1052131, 1052787, 1053388, 1053967, 1054570, 1055132, 1055725, 1056308, 1056936, 1057486, 1058110, 1058642, 1059222, 1059806, 1060389, 1060963, 1061533, 1062123, 1062665, 1063237, 1063803]","[1050831, 1051213, 1051633, 1052179, 1052831, 1053433, 1054017, 1054615, 1055178, 1055774, 1056358, 1056979, 1057527, 1058158, 1058690, 1059268, 1059854, 1060434, 1061009, 1061581, 1062168, 1062709, 1063282, 1063849]","[131, 132, 161, 164, 171, 170, 169, 167, 159, 155, 152, 154, 134, 150, 145, 164, 160, 140, 126, 131, 163, 149, 160, 160]","[1050782, 1051183, 1051595, 1052146, 1052803, 1053403, 1053983, 1054585, 1055148, 1055741, 1056325, 1056951, 1057503, 1058126, 1058662, 1059237, 1059822, 1060405, 1060980, 1061550, 1062139, 1062680, 1063254, 1063820]","[1050447, 1051047, 1051648, 1052248, 1052848, 1053448, 1054048, 1054648, 1055152, 1055746, 1056328, 1056956, 1057506, 1058130, 1058662, 1059243, 1059826, 1060409, 1060983, 1061553, 1062144, 1062685, 1063257, 1063823]",71,OR,U,R,ITMSR,1.1
2,400,trial,0,50,50,50,trial,"['S', 'S', 'S', 'S', 'S', 'S', 'S', 'C', 'C', 'C', 'C', 'C', 'C', 'C', 'C', 'C', 'C', 'C', 'C', 'C', 'C', 'C', 'C']","[1069691, 1070053, 1070352, 1070686, 1071078, 1071436, 1071842, 1072261, 1072627, 1073012, 1073378, 1073761, 1074157, 1074514, 1074874, 1075277, 1075630, 1076005, 1076396, 1076743, 1077133, 1077510, 1077895]","[1069729, 1070114, 1070417, 1070746, 1071129, 1071496, 1071892, 1072301, 1072675, 1073050, 1073437, 1073820, 1074208, 1074557, 1074926, 1075317, 1075666, 1076046, 1076425, 1076784, 1077172, 1077556, 1077934]","[103, 147, 146, 151, 104, 161, 119, 242, 2, 195, 212, 207, 202, 37, 185, 61, 100, 237, 214, 234, 174, 251, 5]","[1069698, 1070059, 1070358, 1070699, 1071094, 1071449, 1071854, 1072272, 1072641, 1073032, 1073395, 1073779, 1074174, 1074535, 1074894, 1075294, 1075643, 1076017, 1076410, 1076755, 1077144, 1077526, 1077910]","[1069146, 1069546, 1069946, 1070346, 1070746, 1071147, 1071546, 1071946, 1072281, 1072647, 1073032, 1073398, 1073781, 1074178, 1074534, 1074894, 1075297, 1075650, 1076025, 1076416, 1076763, 1077153, 1077530, 1077915]",71,OR,U,R,ITMSR,1.1
0,400,trial,0,51,51,51,trial,"['S', 'S', 'S', 'S', 'S', 'S', 'S', 'C', 'C', 'C', 'C', 'C', 'C', 'C', 'C', 'C', 'C', 'C', 'C', 'C', 'C', 'C', 'C']","[1083535, 1083969, 1084362, 1084742, 1085129, 1085546, 1085932, 1086364, 1086759, 1087137, 1087527, 1087953, 1088308, 1088720, 1089081, 1089468, 1089884, 1090273, 1090652, 1091027, 1091436, 1091829, 1092204]","[1083580, 1084013, 1084401, 1084778, 1085167, 1085586, 1085984, 1086414, 1086811, 1087183, 1087575, 1087979, 1088360, 1088752, 1089127, 1089526, 1089930, 1090334, 1090685, 1091079, 1091476, 1091855, 1092244]","[26, 227, 159, 196, 34, 26, 84, 89, 66, 103, 82, 183, 194, 146, 68, 184, 229, 83, 159, 171, 139, 245, 14]","[1083555, 1083987, 1084380, 1084761, 1085147, 1085565, 1085956, 1086385, 1086780, 1087162, 1087544, 1087969, 1088330, 1088740, 1089102, 1089494, 1089906, 1090301, 1090667, 1091050, 1091454, 1091843, 1092221]","[1083257, 1083657, 1084057, 1084457, 1084857, 1085257, 1085657, 1086057, 1086384, 1086779, 1087157, 1087547, 1087973, 1088328, 1088740, 1089101, 1089488, 1089904, 1090293, 1090672, 1091047, 1091457, 1091849, 1092225]",71,OR,U,R,ITMSR,1.1
2,600,trial,0,52,52,52,trial,"['S', 'S', 'S', 'S', 'S', 'S', 'S', 'C', 'C', 'C', 'C', 'C', 'C', 'C', 'C', 'C', 'C', 'C', 'C', 'C', 'C', 'C', 'C']","[1098466, 1099076, 1099636, 1100206, 1100851, 1101501, 1102086, 1102667, 1103314, 1103924, 1104492, 1105074, 1105642, 1106220, 1106828, 1107369, 1108027, 1108634, 1109202, 1109747, 1110295, 1110838, 1111448]","[1098522, 1099136, 1099691, 1100239, 1100880, 1101537, 1102123, 1102703, 1103347, 1103948, 1104516, 1105120, 1105699, 1106284, 1106888, 1107448, 1108084, 1108678, 1109254, 1109786, 1110339, 1110874, 1111506]","[96, 51, 42, 67, 103, 197, 215, 183, 121, 167, 18, 235, 191, 210, 155, 187, 7, 101, 163, 117, 16, 32, 42]","[1098480, 1099095, 1099659, 1100219, 1100857, 1101507, 1102092, 1102672, 1103322, 1103930, 1104500, 1105090, 1105668, 1106248, 1106853, 1107403, 1108058, 1108652, 1109227, 1109760, 1110319, 1110846, 1111475]","[1097963, 1098563, 1099163, 1099763, 1100363, 1100963, 1101563, 1102163, 1102687, 1103334, 1103944, 1104513, 1105094, 1105662, 1106240, 1106848, 1107389, 1108047, 1108654, 1109222, 1109767, 1110316, 1110858, 1111469]",71,OR,U,R,ITMSR,1.1
1,600,trial,0,53,53,53,trial,"['S', 'S', 'S', 'S', 'S', 'S', 'C', 'C', 'C', 'C', 'C', 'C', 'C', 'C', 'C', 'C', 'C', 'C', 'C', 'C', 'C', 'C']","[1118155, 1118684, 1119252, 1119926, 1120532, 1121158, 1121736, 1122368, 1122980, 1123546, 1124136, 1124737, 1125308, 1125870, 1126471, 1127042, 1127636, 1128238, 1128856, 1129428, 1129978, 1130580]","[1118208, 1118734, 1119296, 1119968, 1120576, 1121200, 1121784, 1122413, 1123036, 1123591, 1124192, 1124796, 1125357, 1125935, 1126531, 1127103, 1127712, 1128303, 1128922, 1129492, 1130034, 1130653]","[131, 129, 135, 102, 38, 42, 32, 212, 29, 80, 208, 193, 34, 18, 33, 87, 16, 117, 78, 213, 191, 4]","[1118169, 1118702, 1119271, 1119944, 1120552, 1121178, 1121760, 1122388, 1123003, 1123566, 1124162, 1124761, 1125329, 1125897, 1126495, 1127065, 1127663, 1128271, 1128880, 1129453, 1130003, 1130609]","[1117016, 1117616, 1118216, 1118816, 1119416, 1120016, 1120616, 1121216, 1121756, 1122388, 1123000, 1123566, 1124156, 1124757, 1125328, 1125890, 1126491, 1127062, 1127656, 1128258, 1128877, 1129448, 1129998, 1130600]",71,OR,U,R,ITMSR,1.1
4,400,trial,0,54,54,54,trial,"['S', 'S', 'S', 'S', 'S', 'S', 'S', 'C', 'C', 'C', 'C', 'C', 'C', 'C', 'C', 'C', 'C', 'C', 'C', 'C', 'C', 'C', 'C']","[1165631, 1166022, 1166383, 1166776, 1167172, 1167569, 1167935, 1168365, 1168769, 1169164, 1169540, 1169909, 1170281, 1170658, 1171083, 1171495, 1171863, 1172211, 1172642, 1173019, 1173403, 1173789, 1174169]","[1165685, 1166075, 1166436, 1166819, 1167215, 1167609, 1167985, 1168408, 1168805, 1169213, 1169592, 1169971, 1170328, 1170716, 1171107, 1171539, 1171914, 1172259, 1172662, 1173074, 1173464, 1173841, 1174214]","[71, 60, 191, 19, 109, 251, 176, 206, 235, 200, 160, 63, 197, 190, 134, 138, 182, 173, 160, 194, 230, 118, 21]","[1165648, 1166045, 1166403, 1166794, 1167195, 1167588, 1167956, 1168388, 1168783, 1169180, 1169551, 1169922, 1170287, 1170665, 1171091, 1171503, 1171869, 1172224, 1172648, 1173035, 1173420, 1173816, 1174189]","[1165228, 1165627, 1166027, 1166427, 1166827, 1167227, 1167627, 1168027, 1168386, 1168789, 1169184, 1169560, 1169929, 1170301, 1170678, 1171103, 1171515, 1171884, 1172231, 1172662, 1173039, 1173423, 1173809, 1174189]",71,OR,U,R,ITMSR,1.1
1,400,trial,0,55,55,55,trial,"['S', 'S', 'S', 'S', 'S', 'S', 'S', 'C', 'C', 'C', 'C', 'C', 'C', 'C', 'C', 'C', 'C', 'C', 'C', 'C', 'C', 'C', 'C']","[1180186, 1180511, 1180863, 1181281, 1181682, 1182067, 1182484, 1182894, 1183269, 1183668, 1184089, 1184506, 1184887, 1185262, 1185676, 1186077, 1186491, 1186885, 1187257, 1187644, 1188035, 1188426, 1188830]","[1180231, 1180564, 1180920, 1181330, 1181731, 1182119, 1182564, 1182941, 1183323, 1183727, 1184135, 1184562, 1184956, 1185307, 1185735, 1186157, 1186548, 1186925, 1187314, 1187690, 1188085, 1188470, 1188877]","[82, 61, 26, 207, 125, 81, 23, 5, 227, 126, 248, 198, 220, 73, 222, 125, 177, 170, 135, 40, 18, 238, 246]","[1180201, 1180534, 1180887, 1181302, 1181702, 1182094, 1182495, 1182914, 1183294, 1183688, 1184104, 1184536, 1184920, 1185285, 1185699, 1186110, 1186515, 1186905, 1187279, 1187666, 1188059, 1188447, 1188853]","[1179710, 1180110, 1180510, 1180910, 1181310, 1181710, 1182110, 1182510, 1182914, 1183289, 1183688, 1184109, 1184526, 1184907, 1185282, 1185696, 1186097, 1186511, 1186905, 1187277, 1187664, 1188056, 1188446, 1188850]",71,OR,U,R,ITMSR,1.1
4,600,trial,0,56,56,56,trial,"['S', 'S', 'S', 'S', 'S', 'S', 'S', 'S', 'C', 'C', 'C', 'C', 'C', 'C', 'C', 'C', 'C', 'C', 'C', 'C', 'C', 'C', 'C', 'C']","[1194779, 1195018, 1195617, 1196260, 1196858, 1197485, 1198060, 1198610, 1199251, 1199847, 1200395, 1200982, 1201540, 1202102, 1202648, 1203173, 1203746, 1204306, 1204887, 1205437, 1206023, 1206551, 1207114, 1207670]","[1194824, 1195074, 1195678, 1196323, 1196918, 1197537, 1198107, 1198681, 1199311, 1199908, 1200458, 1201029, 1201588, 1202169, 1202717, 1203253, 1203816, 1204379, 1204943, 1205493, 1206067, 1206599, 1207158, 1207713]","[42, 53, 61, 93, 58, 97, 85, 233, 133, 202, 193, 82, 1, 139, 87, 117, 101, 63, 116, 55, 121, 87, 191, 145]","[1194790, 1195030, 1195626, 1196271, 1196869, 1197493, 1198070, 1198625, 1199268, 1199861, 1200407, 1200995, 1201555, 1202114, 1202665, 1203190, 1203762, 1204329, 1204899, 1205450, 1206034, 1206565, 1207122, 1207682]","[1194575, 1195175, 1195776, 1196376, 1196976, 1197576, 1198176, 1198776, 1199271, 1199867, 1200415, 1201002, 1201560, 1202122, 1202668, 1203193, 1203766, 1204326, 1204908, 1205457, 1206043, 1206572, 1207134, 1207690]",71,OR,U,R,ITMSR,1.1
0,400,trial,0,57,57,57,trial,"['S', 'S', 'S', 'S', 'S', 'S', 'S', 'C', 'C', 'C', 'C', 'C', 'C', 'C', 'C', 'C', 'C', 'C', 'C', 'C', 'C', 'C', 'C']","[1213855, 1214210, 1214579, 1214958, 1215350, 1215751, 1216144, 1216553, 1216913, 1217338, 1217752, 1218155, 1218543, 1218950, 1219332, 1219708, 1220131, 1220503, 1220890, 1221300, 1221696, 1222094, 1222452]","[1213927, 1214275, 1214664, 1215023, 1215435, 1215822, 1216177, 1216621, 1216965, 1217408, 1217805, 1218225, 1218622, 1219017, 1219388, 1219788, 1220187, 1220574, 1220922, 1221341, 1221727, 1222151, 1222514]","[97, 236, 196, 111, 217, 165, 132, 230, 129, 16, 53, 99, 114, 40, 145, 162, 48, 5, 112, 86, 62, 220, 134]","[1213880, 1214239, 1214612, 1214986, 1215379, 1215779, 1216162, 1216582, 1216936, 1217369, 1217776, 1218182, 1218577, 1218975, 1219356, 1219735, 1220152, 1220532, 1220905, 1221313, 1221706, 1222111, 1222475]","[1213484, 1213883, 1214283, 1214683, 1215083, 1215483, 1215883, 1216283, 1216573, 1216933, 1217358, 1217772, 1218176, 1218563, 1218970, 1219352, 1219728, 1220151, 1220524, 1220910, 1221320, 1221716, 1222114, 1222472]",71,OR,U,R,ITMSR,1.1
2,400,trial,0,58,58,58,trial,"['S', 'S', 'S', 'S', 'C', 'C', 'C', 'C', 'C', 'C', 'C', 'C', 'C', 'C', 'C', 'C', 'C', 'C', 'C', 'C']","[1229676, 1230068, 1230453, 1230856, 1231272, 1231659, 1232069, 1232463, 1232871, 1233271, 1233652, 1234052, 1234491, 1234869, 1235272, 1235648, 1235999, 1236423, 1236850, 1237283]","[1229727, 1230121, 1230504, 1230908, 1231323, 1231710, 1232113, 1232505, 1232920, 1233316, 1233695, 1234101, 1234526, 1234904, 1235300, 1235686, 1236040, 1236473, 1236901, 1237329]","[73, 102, 147, 166, 155, 137, 121, 55, 50, 12, 195, 176, 91, 225, 175, 125, 154, 8, 235, 203]","[1229685, 1230075, 1230458, 1230861, 1231280, 1231667, 1232080, 1232477, 1232887, 1233286, 1233664, 1234068, 1234505, 1234885, 1235287, 1235664, 1236014, 1236439, 1236873, 1237305]","[1228121, 1228521, 1228921, 1229321, 1229721, 1230121, 1230521, 1230921, 1231292, 1231679, 1232089, 1232483, 1232891, 1233291, 1233672, 1234072, 1234511, 1234889, 1235292, 1235668, 1236019, 1236443, 1236870, 1237303]",71,OR,U,R,ITMSR,1.1
4,400,trial,0,59,59,59,trial,"['S', 'S', 'S', 'S', 'S', 'S', 'S', 'C', 'C', 'C', 'C', 'C', 'C', 'C', 'C', 'C', 'C', 'C', 'C', 'C', 'C', 'C', 'C']","[1243432, 1243849, 1244212, 1244587, 1245016, 1245418, 1245808, 1246208, 1246603, 1246985, 1247407, 1247772, 1248152, 1248545, 1248936, 1249325, 1249727, 1250123, 1250502, 1250879, 1251274, 1251641, 1252017]","[1243490, 1243873, 1244264, 1244639, 1245066, 1245451, 1245855, 1246252, 1246652, 1247014, 1247452, 1247815, 1248209, 1248593, 1248984, 1249390, 1249771, 1250180, 1250569, 1250926, 1251303, 1251727, 1252096]","[118, 89, 118, 79, 50, 7, 231, 179, 123, 94, 130, 46, 41, 51, 156, 221, 221, 100, 54, 183, 30, 214, 42]","[1243453, 1243860, 1244231, 1244605, 1245021, 1245422, 1245815, 1246213, 1246608, 1246989, 1247413, 1247777, 1248159, 1248552, 1248945, 1249336, 1249734, 1250128, 1250508, 1250885, 1251279, 1251648, 1252028]","[1243077, 1243478, 1243877, 1244277, 1244677, 1245077, 1245477, 1245877, 1246228, 1246623, 1247005, 1247427, 1247792, 1248173, 1248565, 1248956, 1249345, 1249747, 1250143, 1250522, 1250899, 1251294, 1251661, 1252037]",71,OR,U,R,ITMSR,1.1
3,600,trial,0,60,60,60,trial,"['S', 'S', 'S', 'S', 'S', 'S', 'S', 'S', 'C', 'C', 'C', 'C', 'C', 'C', 'C', 'C', 'C', 'C', 'C', 'C', 'C', 'C', 'C', 'C']","[1257775, 1258184, 1258676, 1259262, 1259870, 1260525, 1261090, 1261648, 1262227, 1262852, 1263415, 1263990, 1264547, 1265145, 1265694, 1266211, 1266846, 1267419, 1267998, 1268600, 1269155, 1269716, 1270272, 1270863]","[1257832, 1258260, 1258739, 1259311, 1259913, 1260563, 1261133, 1261699, 1262272, 1262908, 1263504, 1264068, 1264631, 1265196, 1265742, 1266307, 1266942, 1267521, 1268124, 1268713, 1269264, 1269848, 1270438, 1271025]","[6, 29, 8, 241, 242, 80, 73, 21, 11, 194, 251, 229, 168, 246, 254, 229, 206, 239, 239, 114, 254, 7, 25, 4]","[1257790, 1258188, 1258680, 1259267, 1259874, 1260528, 1261092, 1261651, 1262229, 1262855, 1263417, 1263993, 1264551, 1265149, 1265696, 1266214, 1266849, 1267421, 1268001, 1268604, 1269158, 1269719, 1270275, 1270866]","[1257544, 1258143, 1258743, 1259343, 1259943, 1260544, 1261144, 1261744, 1262247, 1262872, 1263435, 1264010, 1264567, 1265165, 1265714, 1266231, 1266866, 1267439, 1268018, 1268620, 1269175, 1269736, 1270292, 1270883]",71,OR,U,R,ITMSR,1.1
3,600,trial,0,61,61,61,trial,"['S', 'S', 'S', 'S', 'S', 'S', 'C', 'C', 'C', 'C', 'C', 'C', 'C', 'C', 'C', 'C', 'C', 'C', 'C', 'C', 'C', 'C']","[1277619, 1278168, 1278761, 1279343, 1279942, 1280491, 1281136, 1281718, 1282280, 1282839, 1283419, 1284008, 1284603, 1285170, 1285782, 1286369, 1286973, 1287554, 1288129, 1288726, 1289360, 1289935]","[1277664, 1278205, 1278798, 1279385, 1279997, 1280535, 1281169, 1281756, 1282316, 1282876, 1283470, 1284040, 1284635, 1285207, 1285818, 1286410, 1287010, 1287593, 1288166, 1288760, 1289396, 1289973]","[29, 62, 36, 50, 113, 106, 31, 87, 68, 61, 41, 63, 81, 105, 104, 95, 80, 83, 101, 51, 50, 56]","[1277624, 1278171, 1278764, 1279346, 1279944, 1280494, 1281140, 1281720, 1282283, 1282842, 1283422, 1284012, 1284605, 1285172, 1285785, 1286372, 1286976, 1287557, 1288131, 1288728, 1289363, 1289938]","[1276405, 1277005, 1277605, 1278205, 1278806, 1279405, 1280005, 1280605, 1281156, 1281738, 1282300, 1282860, 1283439, 1284028, 1284623, 1285190, 1285803, 1286389, 1286993, 1287574, 1288150, 1288747, 1289380, 1289955]",71,OR,U,R,ITMSR,1.1
1,600,trial,0,62,62,62,trial,"['S', 'S', 'S', 'S', 'S', 'S', 'S', 'C', 'C', 'C', 'C', 'C', 'C', 'C', 'C', 'C', 'C', 'C', 'C', 'C', 'C', 'C', 'C']","[1296177, 1296844, 1297449, 1298054, 1298655, 1299216, 1299740, 1300402, 1300976, 1301580, 1302145, 1302697, 1303370, 1303919, 1304487, 1305076, 1305634, 1306240, 1306781, 1307354, 1308002, 1308541, 1309107]","[1296224, 1296876, 1297475, 1298085, 1298684, 1299282, 1299769, 1300427, 1301005, 1301600, 1302209, 1302723, 1303460, 1303940, 1304515, 1305125, 1305713, 1306290, 1306848, 1307436, 1308069, 1308567, 1309185]","[132, 137, 137, 94, 15, 255, 72, 105, 61, 42, 227, 119, 210, 232, 215, 135, 16, 239, 180, 190, 111, 238, 201]","[1296179, 1296846, 1297452, 1298057, 1298659, 1299221, 1299743, 1300404, 1300979, 1301583, 1302149, 1302701, 1303437, 1303922, 1304492, 1305081, 1305641, 1306246, 1306786, 1307411, 1308007, 1308546, 1309111]","[1295744, 1296343, 1296942, 1297542, 1298142, 1298742, 1299342, 1299942, 1300422, 1300996, 1301600, 1302165, 1302717, 1303390, 1303939, 1304507, 1305096, 1305654, 1306260, 1306801, 1307374, 1308022, 1308561, 1309127]",71,OR,U,R,ITMSR,1.1
5,600,trial,0,63,63,63,trial,"['S', 'S', 'S', 'S', 'S', 'S', 'S', 'C', 'C', 'C', 'C', 'C', 'C', 'C', 'C', 'C', 'C', 'C', 'C', 'C', 'C', 'C', 'C']","[1315485, 1315990, 1316584, 1317182, 1317781, 1318458, 1319085, 1319684, 1320274, 1320867, 1321489, 1322102, 1322698, 1323322, 1323921, 1324541, 1325146, 1325774, 1326692, 1327173, 1327747, 1328351, 1328951]","[1315555, 1316048, 1316636, 1317237, 1317827, 1318503, 1319133, 1319726, 1320332, 1320932, 1321545, 1322149, 1322752, 1323372, 1323967, 1324584, 1325205, 1325825, 1326730, 1327215, 1327801, 1328395, 1328990]","[188, 173, 184, 179, 169, 175, 157, 162, 170, 177, 160, 149, 179, 166, 161, 80, 151, 142, 203, 93, 149, 184, 178]","[1315490, 1315996, 1316590, 1317189, 1317788, 1318464, 1319096, 1319693, 1320287, 1320882, 1321502, 1322119, 1322711, 1323336, 1323933, 1324558, 1325160, 1325787, 1326697, 1327190, 1327761, 1328358, 1328960]","[1314878, 1315478, 1316078, 1316678, 1317278, 1317878, 1318478, 1319078, 1319704, 1320294, 1320887, 1321509, 1322122, 1322718, 1323342, 1323941, 1324561, 1325166, 1325794, 1326712, 1327193, 1327767, 1328371, 1328971]",71,OR,U,R,ITMSR,1.1
5,400,trial,0,64,64,64,trial,"['S', 'S', 'S', 'S', 'S', 'S', 'S', 'C', 'C', 'C', 'C', 'C', 'C', 'C', 'C', 'C', 'C', 'C', 'C', 'C', 'C', 'C', 'C']","[1335020, 1335441, 1335774, 1336103, 1336443, 1336813, 1337238, 1337631, 1338030, 1338430, 1338827, 1339222, 1339625, 1340003, 1340401, 1340785, 1341156, 1341575, 1341965, 1342375, 1342763, 1343177, 1343576]","[1335063, 1335477, 1335804, 1336133, 1336480, 1336854, 1337269, 1337668, 1338065, 1338467, 1338864, 1339256, 1339660, 1340041, 1340439, 1340822, 1341197, 1341616, 1342002, 1342413, 1342815, 1343216, 1343619]","[180, 163, 127, 99, 169, 177, 95, 169, 173, 147, 137, 162, 153, 175, 143, 171, 187, 186, 172, 187, 200, 186, 175]","[1335029, 1335452, 1335786, 1336116, 1336457, 1336825, 1337250, 1337643, 1338041, 1338443, 1338841, 1339234, 1339636, 1340015, 1340414, 1340798, 1341162, 1341586, 1341977, 1342381, 1342767, 1343182, 1343582]","[1334480, 1334880, 1335280, 1335681, 1336080, 1336480, 1336880, 1337280, 1337651, 1338050, 1338450, 1338847, 1339242, 1339645, 1340023, 1340421, 1340805, 1341176, 1341595, 1341985, 1342395, 1342783, 1343197, 1343596]",71,OR,U,R,ITMSR,1.1
3,400,trial,0,65,65,65,trial,"['S', 'S', 'S', 'S', 'S', 'S', 'C', 'C', 'C', 'C', 'C', 'C', 'C', 'C', 'C', 'C', 'C', 'C', 'C', 'C', 'C', 'C']","[1349908, 1350256, 1350663, 1351038, 1351422, 1351772, 1352186, 1352569, 1352954, 1353361, 1353753, 1354152, 1354535, 1354910, 1355285, 1355681, 1356059, 1356423, 1356809, 1357239, 1357958, 1358294]","[1349945, 1350295, 1350691, 1351073, 1351450, 1351817, 1352231, 1352609, 1352997, 1353399, 1353789, 1354185, 1354561, 1354948, 1355325, 1355704, 1356096, 1356461, 1356847, 1357275, 1357987, 1358330]","[168, 182, 67, 169, 20, 182, 163, 150, 187, 149, 133, 150, 185, 177, 183, 96, 184, 171, 190, 172, 199, 195]","[1349914, 1350263, 1350676, 1351048, 1351435, 1351782, 1352200, 1352585, 1352966, 1353375, 1353768, 1354166, 1354549, 1354924, 1355298, 1355694, 1356071, 1356436, 1356819, 1357252, 1357966, 1358303]","[1349048, 1349448, 1349848, 1350248, 1350648, 1351048, 1351448, 1351848, 1352206, 1352589, 1352974, 1353381, 1353773, 1354172, 1354555, 1354930, 1355305, 1355701, 1356079, 1356443, 1356829, 1357259, 1357978, 1358314]",71,OR,U,R,ITMSR,1.1
0,400,trial,0,66,66,66,trial,"['S', 'S', 'S', 'S', 'S', 'S', 'S', 'C', 'C', 'C', 'C', 'C', 'C', 'C', 'C', 'C', 'C', 'C', 'C', 'C', 'C', 'C', 'C']","[1364092, 1364542, 1364967, 1365392, 1365780, 1366205, 1366629, 1367063, 1367452, 1367818, 1368227, 1368601, 1369020, 1369402, 1369806, 1370202, 1370599, 1371024, 1371395, 1371782, 1372157, 1372554, 1372960]","[1364170, 1364616, 1365029, 1365456, 1365855, 1366270, 1366695, 1367134, 1367540, 1367907, 1368314, 1368700, 1369119, 1369485, 1369903, 1370286, 1370683, 1371105, 1371462, 1371870, 1372250, 1372652, 1373058]","[140, 117, 120, 118, 140, 128, 117, 48, 111, 90, 87, 66, 63, 5, 44, 20, 79, 85, 161, 32, 12, 13, 232]","[1364120, 1364557, 1364977, 1365404, 1365811, 1366215, 1366636, 1367069, 1367496, 1367866, 1368272, 1368648, 1369069, 1369444, 1369864, 1370243, 1370646, 1371064, 1371401, 1371827, 1372209, 1372599, 1373016]","[1363811, 1364211, 1364611, 1365011, 1365411, 1365811, 1366211, 1366611, 1367084, 1367472, 1367838, 1368247, 1368621, 1369040, 1369422, 1369826, 1370222, 1370619, 1371044, 1371415, 1371802, 1372177, 1372574, 1372980]",71,OR,U,R,ITMSR,1.1
2,400,trial,0,67,67,67,trial,"['S', 'S', 'S', 'S', 'S', 'S', 'S', 'C', 'C', 'C', 'C', 'C', 'C', 'C', 'C', 'C', 'C', 'C', 'C', 'C', 'C', 'C', 'C']","[1378805, 1379163, 1379584, 1379948, 1380346, 1380734, 1381159, 1381572, 1381984, 1382344, 1382737, 1383134, 1383521, 1383896, 1384323, 1384711, 1385078, 1385438, 1385868, 1386262, 1386684, 1387104, 1387507]","[1378882, 1379243, 1379677, 1380027, 1380432, 1380820, 1381233, 1381647, 1382059, 1382421, 1382820, 1383211, 1383603, 1383968, 1384388, 1384786, 1385163, 1385517, 1385956, 1386347, 1386754, 1387173, 1387553]","[122, 140, 117, 108, 127, 89, 88, 54, 11, 56, 31, 35, 45, 240, 190, 17, 37, 253, 213, 222, 196, 72, 161]","[1378831, 1379186, 1379612, 1379953, 1380352, 1380759, 1381165, 1381599, 1382017, 1382370, 1382744, 1383139, 1383527, 1383902, 1384330, 1384716, 1385083, 1385443, 1385875, 1386267, 1386689, 1387111, 1387513]","[1378427, 1378827, 1379227, 1379628, 1380027, 1380427, 1380827, 1381227, 1381592, 1382004, 1382364, 1382757, 1383154, 1383541, 1383916, 1384343, 1384731, 1385098, 1385458, 1385888, 1386283, 1386704, 1387124, 1387527]",71,OR,U,R,ITMSR,1.1
2,600,trial,0,68,68,68,trial,"['S', 'S', 'S', 'S', 'S', 'S', 'S', 'S', 'C', 'C', 'C', 'C', 'C', 'C', 'C', 'C', 'C', 'C', 'C', 'C', 'C', 'C', 'C', 'C']","[1393205, 1393599, 1394010, 1394544, 1395120, 1395763, 1396359, 1396950, 1397569, 1398170, 1398742, 1399283, 1399869, 1400456, 1400990, 1401572, 1402113, 1402649, 1403251, 1403827, 1404387, 1404926, 1405492, 1406046]","[1393261, 1393656, 1394086, 1394606, 1395183, 1395817, 1396416, 1397011, 1397626, 1398242, 1398809, 1399346, 1399942, 1400505, 1401034, 1401609, 1402171, 1402727, 1403303, 1403886, 1404427, 1404960, 1405573, 1406080]","[124, 138, 69, 138, 137, 115, 107, 111, 136, 88, 62, 94, 53, 80, 53, 59, 119, 120, 80, 92, 102, 32, 23, 79]","[1393209, 1393600, 1394016, 1394548, 1395123, 1395767, 1396364, 1396954, 1397573, 1398175, 1398747, 1399287, 1399873, 1400460, 1400994, 1401576, 1402116, 1402698, 1403255, 1403831, 1404390, 1404932, 1405496, 1406050]","[1392893, 1393494, 1394093, 1394693, 1395293, 1395893, 1396493, 1397093, 1397590, 1398190, 1398762, 1399303, 1399889, 1400476, 1401010, 1401592, 1402133, 1402669, 1403271, 1403847, 1404407, 1404946, 1405512, 1406066]",71,OR,U,R,ITMSR,1.1
3,400,trial,0,69,69,69,trial,"['S', 'S', 'S', 'S', 'S', 'S', 'S', 'C', 'C', 'C', 'C', 'C', 'C', 'C', 'C', 'C', 'C', 'C', 'C', 'C', 'C', 'C', 'C']","[1411990, 1412349, 1412771, 1413166, 1413562, 1413965, 1414379, 1414744, 1415171, 1415586, 1415988, 1416373, 1416766, 1417169, 1417548, 1417951, 1418358, 1418778, 1419167, 1419547, 1419933, 1420350, 1420747]","[1412066, 1412424, 1412831, 1413236, 1413624, 1414014, 1414434, 1414825, 1415225, 1415638, 1416050, 1416434, 1416840, 1417241, 1417624, 1418028, 1418435, 1418829, 1419225, 1419632, 1420028, 1420431, 1420825]","[151, 133, 129, 128, 101, 118, 41, 16, 21, 27, 70, 67, 19, 79, 26, 229, 185, 141, 198, 239, 11, 253, 9]","[1411994, 1412354, 1412776, 1413171, 1413567, 1413969, 1414386, 1414751, 1415180, 1415600, 1416002, 1416384, 1416786, 1417183, 1417553, 1417971, 1418382, 1418786, 1419174, 1419573, 1419957, 1420359, 1420767]","[1411586, 1411984, 1412384, 1412784, 1413184, 1413584, 1413984, 1414384, 1414764, 1415191, 1415606, 1416008, 1416393, 1416786, 1417189, 1417568, 1417971, 1418378, 1418798, 1419187, 1419567, 1419953, 1420370, 1420767]",71,OR,U,R,ITMSR,1.1
4,600,trial,0,70,70,70,trial,"['S', 'S', 'S', 'S', 'S', 'S', 'S', 'C', 'C', 'C', 'C', 'C', 'C', 'C', 'C', 'C', 'C', 'C', 'C', 'C', 'C', 'C', 'C']","[1426914, 1427511, 1428147, 1428750, 1429361, 1430002, 1430598, 1431169, 1431696, 1432236, 1432776, 1433311, 1433856, 1434391, 1434915, 1435423, 1435939, 1436419, 1436937, 1437494, 1438043, 1438560, 1439049]","[1426965, 1427576, 1428191, 1428797, 1429408, 1430035, 1430632, 1431209, 1431740, 1432287, 1432832, 1433363, 1433901, 1434438, 1434962, 1435471, 1435988, 1436466, 1436993, 1437548, 1438099, 1438616, 1439136]","[135, 84, 133, 150, 127, 131, 80, 135, 75, 73, 103, 59, 57, 84, 77, 199, 238, 23, 237, 149, 34, 82, 57]","[1426920, 1427517, 1428153, 1428755, 1429366, 1430007, 1430605, 1431176, 1431703, 1432243, 1432782, 1433318, 1433864, 1434398, 1434921, 1435435, 1435950, 1436428, 1436945, 1437505, 1438053, 1438567, 1439056]","[1426465, 1427064, 1427664, 1428264, 1428865, 1429464, 1430064, 1430664, 1431189, 1431716, 1432256, 1432796, 1433331, 1433876, 1434412, 1434935, 1435443, 1435959, 1436439, 1436957, 1437514, 1438063, 1438580, 1439069]",71,OR,U,R,ITMSR,1.1
2,600,trial,0,71,71,71,trial,"['S', 'S', 'S', 'S', 'S', 'S', 'S', 'S', 'C', 'C', 'C', 'C', 'C', 'C', 'C', 'C', 'C', 'C', 'C', 'C', 'C', 'C', 'C', 'C']","[1444799, 1445246, 1445718, 1446253, 1446870, 1447465, 1448064, 1448651, 1449254, 1449834, 1450420, 1451027, 1451624, 1452232, 1452807, 1453431, 1454035, 1454637, 1455273, 1455828, 1456436, 1457054, 1457633, 1458228]","[1444854, 1445310, 1445784, 1446317, 1446934, 1447525, 1448122, 1448707, 1449306, 1449902, 1450469, 1451079, 1451692, 1452289, 1452879, 1453490, 1454097, 1454706, 1455333, 1455892, 1456520, 1457152, 1457729, 1458336]","[94, 116, 78, 125, 161, 135, 110, 119, 103, 30, 119, 116, 125, 106, 112, 84, 78, 104, 115, 75, 127, 145, 132, 130]","[1444806, 1445254, 1445723, 1446261, 1446876, 1447475, 1448071, 1448658, 1449262, 1449843, 1450425, 1451033, 1451630, 1452237, 1452813, 1453437, 1454042, 1454643, 1455280, 1455835, 1456442, 1457059, 1457639, 1458233]","[1444517, 1445117, 1445718, 1446317, 1446917, 1447517, 1448117, 1448717, 1449274, 1449854, 1450440, 1451047, 1451644, 1452252, 1452827, 1453451, 1454055, 1454657, 1455293, 1455848, 1456456, 1457074, 1457653, 1458248]",71,OR,U,R,ITMSR,1.1
0,600,trial,0,72,72,72,trial,"['S', 'S', 'S', 'S', 'S', 'S', 'S', 'S', 'C', 'C', 'C', 'C', 'C', 'C', 'C', 'C', 'C', 'C', 'C', 'C', 'C', 'C', 'C', 'C']","[1464302, 1464691, 1465168, 1465710, 1466316, 1466920, 1467544, 1468111, 1468692, 1469264, 1469878, 1470468, 1471053, 1471647, 1472191, 1472795, 1473332, 1473875, 1474404, 1474992, 1475636, 1476199, 1476729, 1477319]","[1464378, 1464762, 1465233, 1465779, 1466395, 1466988, 1467602, 1468182, 1468771, 1469342, 1469950, 1470527, 1471102, 1471696, 1472271, 1472835, 1473389, 1473944, 1474481, 1475056, 1475692, 1476249, 1476810, 1477371]","[170, 176, 165, 156, 170, 160, 139, 155, 147, 96, 111, 119, 115, 143, 99, 0, 48, 108, 114, 129, 74, 81, 130, 69]","[1464308, 1464697, 1465174, 1465716, 1466321, 1466927, 1467550, 1468115, 1468698, 1469273, 1469884, 1470473, 1471058, 1471651, 1472197, 1472800, 1473337, 1473881, 1474408, 1474996, 1475642, 1476203, 1476733, 1477324]","[1464009, 1464609, 1465209, 1465809, 1466409, 1467010, 1467610, 1468210, 1468712, 1469284, 1469898, 1470488, 1471073, 1471667, 1472211, 1472815, 1473352, 1473895, 1474424, 1475012, 1475656, 1476219, 1476749, 1477339]",71,OR,U,R,ITMSR,1.1
5,400,trial,0,73,73,73,trial,"['S', 'S', 'S', 'S', 'S', 'S', 'S', 'S', 'C', 'C', 'C', 'C', 'C', 'C', 'C', 'C', 'C', 'C', 'C', 'C', 'C', 'C', 'C', 'C']","[1483115, 1483450, 1483803, 1484053, 1484403, 1484791, 1485182, 1485570, 1485978, 1486315, 1486701, 1487065, 1487435, 1487813, 1488198, 1488576, 1488971, 1489368, 1489713, 1490045, 1490396, 1490774, 1491168, 1491529]","[1483185, 1483510, 1483871, 1484106, 1484455, 1484851, 1485234, 1485621, 1486020, 1486364, 1486750, 1487108, 1487479, 1487848, 1488242, 1488620, 1489008, 1489395, 1489755, 1490093, 1490444, 1490825, 1491207, 1491572]","[145, 151, 142, 143, 152, 149, 124, 111, 77, 113, 68, 52, 16, 141, 217, 55, 193, 226, 231, 2, 226, 255, 205, 245]","[1483131, 1483467, 1483823, 1484067, 1484413, 1484809, 1485201, 1485581, 1485985, 1486321, 1486708, 1487072, 1487443, 1487822, 1488206, 1488582, 1488980, 1489379, 1489722, 1490054, 1490405, 1490783, 1491177, 1491538]","[1482916, 1483316, 1483716, 1484116, 1484516, 1484916, 1485316, 1485716, 1485998, 1486336, 1486722, 1487085, 1487455, 1487833, 1488218, 1488596, 1488991, 1489388, 1489733, 1490065, 1490416, 1490794, 1491188, 1491549]",71,OR,U,R,ITMSR,1.1
1,400,trial,0,74,74,74,trial,"['S', 'S', 'S', 'S', 'S', 'S', 'S', 'C', 'C', 'C', 'C', 'C', 'C', 'C', 'C', 'C', 'C', 'C', 'C', 'C', 'C', 'C', 'C']","[1497626, 1497995, 1498387, 1498780, 1499179, 1499601, 1499979, 1500379, 1500780, 1501160, 1501577, 1501960, 1502331, 1502708, 1503110, 1503523, 1503922, 1504305, 1504685, 1505069, 1505454, 1505860, 1506196]","[1497680, 1498044, 1498433, 1498838, 1499235, 1499649, 1500034, 1500438, 1500841, 1501211, 1501619, 1502007, 1502387, 1502766, 1503164, 1503570, 1503972, 1504346, 1504721, 1505116, 1505492, 1505884, 1506236]","[140, 119, 100, 25, 104, 93, 97, 92, 110, 69, 215, 37, 70, 34, 227, 184, 248, 157, 12, 246, 156, 232, 214]","[1497634, 1498005, 1498398, 1498789, 1499188, 1499612, 1499988, 1500387, 1500788, 1501167, 1501587, 1501968, 1502339, 1502717, 1503120, 1503533, 1503930, 1504313, 1504694, 1505075, 1505462, 1505869, 1506203]","[1497249, 1497648, 1498048, 1498448, 1498848, 1499248, 1499649, 1500048, 1500399, 1500801, 1501180, 1501597, 1501980, 1502351, 1502728, 1503130, 1503543, 1503942, 1504325, 1504705, 1505089, 1505474, 1505880, 1506216]",71,OR,U,R,ITMSR,1.1
1,600,trial,0,75,75,75,trial,"['S', 'S', 'S', 'S', 'S', 'S', 'S', 'S', 'C', 'C', 'C', 'C', 'C', 'C', 'C', 'C', 'C', 'C', 'C', 'C', 'C', 'C', 'C', 'C']","[1512080, 1512546, 1512893, 1513439, 1514001, 1514627, 1515255, 1515835, 1516402, 1516972, 1517520, 1518095, 1518666, 1519264, 1519815, 1520396, 1520949, 1521432, 1521995, 1522597, 1523170, 1523717, 1524260, 1524807]","[1512124, 1512596, 1512947, 1513494, 1514049, 1514668, 1515297, 1515886, 1516457, 1517022, 1517582, 1518145, 1518716, 1519305, 1519847, 1520440, 1520993, 1521491, 1522051, 1522658, 1523226, 1523764, 1524306, 1524862]","[139, 140, 167, 144, 140, 100, 82, 124, 107, 87, 86, 100, 66, 80, 38, 32, 54, 106, 85, 78, 58, 237, 242, 70]","[1512096, 1512562, 1512910, 1513455, 1514012, 1514636, 1515265, 1515840, 1516408, 1516979, 1517528, 1518102, 1518674, 1519273, 1519824, 1520405, 1520958, 1521439, 1522001, 1522605, 1523178, 1523726, 1524271, 1524813]","[1511717, 1512317, 1512918, 1513517, 1514117, 1514717, 1515317, 1515917, 1516422, 1516992, 1517540, 1518115, 1518686, 1519284, 1519835, 1520416, 1520969, 1521453, 1522015, 1522617, 1523190, 1523737, 1524280, 1524827]",71,OR,U,R,ITMSR,1.1
5,600,trial,0,76,76,76,trial,"['S', 'S', 'S', 'S', 'S', 'S', 'S', 'C', 'C', 'C', 'C', 'C', 'C', 'C', 'C', 'C', 'C', 'C', 'C', 'C', 'C', 'C', 'C']","[1530878, 1531441, 1532032, 1532661, 1533242, 1533874, 1534491, 1535095, 1535699, 1536294, 1536886, 1537471, 1538049, 1538661, 1539271, 1539822, 1540384, 1540977, 1541569, 1542131, 1542702, 1543296, 1543861]","[1530906, 1531496, 1532087, 1532731, 1533307, 1533937, 1534551, 1535153, 1535752, 1536352, 1536950, 1537539, 1538124, 1538719, 1539326, 1539892, 1540458, 1541071, 1541672, 1542245, 1542807, 1543389, 1543977]","[191, 162, 110, 126, 176, 146, 158, 145, 105, 117, 110, 97, 70, 50, 20, 150, 180, 179, 176, 181, 169, 155, 173]","[1530886, 1531446, 1532052, 1532678, 1533260, 1533891, 1534509, 1535115, 1535719, 1536316, 1536909, 1537492, 1538070, 1538681, 1539293, 1539843, 1540404, 1540997, 1541591, 1542159, 1542726, 1543317, 1543885]","[1530378, 1530978, 1531578, 1532178, 1532778, 1533378, 1533978, 1534578, 1535115, 1535719, 1536314, 1536906, 1537491, 1538069, 1538681, 1539291, 1539842, 1540404, 1540997, 1541590, 1542151, 1542722, 1543316, 1543881]",71,OR,U,R,ITMSR,1.1
0,600,trial,0,77,77,77,trial,"['S', 'S', 'S', 'S', 'S', 'S', 'C', 'C', 'C', 'C', 'C', 'C', 'C', 'C', 'C', 'C', 'C', 'C', 'C', 'C', 'C', 'C']","[1550264, 1550815, 1551469, 1552082, 1552728, 1553361, 1553960, 1554543, 1555152, 1555752, 1556337, 1556912, 1557486, 1558054, 1558648, 1559230, 1559806, 1560375, 1560975, 1561586, 1562160, 1562737]","[1550325, 1550909, 1551565, 1552167, 1552803, 1553435, 1554038, 1554625, 1555230, 1555835, 1556419, 1556998, 1557574, 1558134, 1558728, 1559306, 1559863, 1560442, 1561059, 1561655, 1562224, 1562797]","[138, 178, 207, 198, 201, 196, 194, 173, 179, 182, 198, 196, 195, 196, 195, 197, 195, 200, 193, 197, 195, 174]","[1550281, 1550844, 1551483, 1552099, 1552746, 1553377, 1553977, 1554563, 1555172, 1555772, 1556358, 1556929, 1557496, 1558064, 1558662, 1559245, 1559818, 1560388, 1560981, 1561593, 1562170, 1562750]","[1549210, 1549810, 1550410, 1551010, 1551610, 1552210, 1552811, 1553410, 1553980, 1554563, 1555172, 1555772, 1556357, 1556932, 1557506, 1558074, 1558668, 1559250, 1559826, 1560395, 1560995, 1561606, 1562180, 1562757]",71,OR,U,R,ITMSR,1.1
2,600,trial,0,78,78,78,trial,"['S', 'S', 'S', 'S', 'S', 'S', 'S', 'C', 'C', 'C', 'C', 'C', 'C', 'C', 'C', 'C', 'C', 'C', 'C', 'C', 'C', 'C', 'C']","[1612515, 1613081, 1613640, 1614265, 1614902, 1615558, 1616192, 1616799, 1617354, 1617896, 1618470, 1619021, 1619589, 1620141, 1620714, 1621261, 1621829, 1622362, 1622918, 1623502, 1624053, 1624567, 1625145]","[1612568, 1613123, 1613689, 1614313, 1614962, 1615618, 1616242, 1616846, 1617415, 1617964, 1618527, 1619088, 1619645, 1620216, 1620772, 1621332, 1621901, 1622437, 1623000, 1623582, 1624115, 1624663, 1625220]","[170, 179, 171, 154, 138, 121, 104, 35, 10, 186, 109, 149, 174, 200, 119, 196, 172, 120, 203, 31, 24, 52, 193]","[1612532, 1613096, 1613658, 1614281, 1614912, 1615576, 1616211, 1616819, 1617380, 1617925, 1618493, 1619055, 1619616, 1620173, 1620741, 1621291, 1621861, 1622391, 1622953, 1623541, 1624093, 1624607, 1625181]","[1612061, 1612661, 1613261, 1613861, 1614461, 1615062, 1615661, 1616261, 1616819, 1617374, 1617916, 1618490, 1619041, 1619609, 1620161, 1620734, 1621281, 1621849, 1622382, 1622938, 1623522, 1624073, 1624587, 1625165]",71,OR,U,R,ITMSR,1.1
2,600,trial,0,79,79,79,trial,"['S', 'S', 'S', 'S', 'S', 'S', 'S', 'S', 'C', 'C', 'C', 'C', 'C', 'C', 'C', 'C', 'C', 'C', 'C', 'C', 'C', 'C', 'C', 'C']","[1631011, 1631494, 1631837, 1632285, 1632835, 1633462, 1634112, 1634700, 1635243, 1635814, 1636405, 1636955, 1637486, 1638070, 1638597, 1639166, 1639734, 1640314, 1640859, 1641425, 1642016, 1642580, 1643065, 1643766]","[1631066, 1631568, 1631894, 1632357, 1632911, 1633528, 1634152, 1634769, 1635302, 1635893, 1636453, 1637018, 1637567, 1638146, 1638664, 1639262, 1639823, 1640395, 1640949, 1641500, 1642108, 1642669, 1643195, 1643858]","[112, 122, 130, 66, 73, 45, 66, 71, 75, 30, 65, 250, 5, 39, 202, 178, 143, 184, 238, 211, 158, 85, 234, 198]","[1631030, 1631514, 1631852, 1632304, 1632840, 1633467, 1634116, 1634704, 1635247, 1635818, 1636409, 1636959, 1637491, 1638076, 1638603, 1639173, 1639740, 1640321, 1640864, 1641431, 1642022, 1642589, 1643070, 1643772]","[1630650, 1631249, 1631849, 1632449, 1633049, 1633649, 1634249, 1634849, 1635263, 1635834, 1636425, 1636975, 1637506, 1638090, 1638617, 1639186, 1639754, 1640334, 1640879, 1641445, 1642036, 1642600, 1643085, 1643786]",71,OR,U,R,ITMSR,1.1
0,600,trial,0,80,80,80,trial,"['S', 'S', 'S', 'S', 'S', 'S', 'S', 'C', 'C', 'C', 'C', 'C', 'C', 'C', 'C', 'C', 'C', 'C', 'C', 'C', 'C', 'C', 'C']","[1649818, 1650418, 1651004, 1651638, 1652232, 1652842, 1653420, 1654049, 1654640, 1655230, 1655856, 1656459, 1657060, 1657646, 1658227, 1658827, 1659425, 1659992, 1660577, 1661179, 1661756, 1662350, 1662924]","[1649884, 1650477, 1651068, 1651702, 1652296, 1652898, 1653484, 1654108, 1654707, 1655302, 1655912, 1656515, 1657123, 1657702, 1658292, 1658883, 1659492, 1660052, 1660622, 1661232, 1661827, 1662425, 1663004]","[154, 137, 157, 149, 126, 53, 77, 57, 71, 95, 79, 63, 10, 45, 74, 70, 91, 39, 165, 248, 119, 94, 93]","[1649827, 1650425, 1651009, 1651645, 1652238, 1652851, 1653430, 1654062, 1654651, 1655239, 1655865, 1656470, 1657077, 1657655, 1658241, 1658843, 1659433, 1660001, 1660590, 1661192, 1661764, 1662358, 1662932]","[1649302, 1649902, 1650502, 1651102, 1651702, 1652302, 1652902, 1653502, 1654069, 1654660, 1655250, 1655876, 1656479, 1657080, 1657666, 1658247, 1658847, 1659445, 1660012, 1660597, 1661199, 1661776, 1662370, 1662944]",71,OR,U,R,ITMSR,1.1
3,400,trial,0,81,81,81,trial,"['S', 'S', 'S', 'S', 'S', 'S', 'S', 'C', 'C', 'C', 'C', 'C', 'C', 'C', 'C', 'C', 'C', 'C', 'C', 'C', 'C', 'C', 'C']","[1668836, 1669174, 1669522, 1669925, 1670306, 1670664, 1671053, 1671469, 1671865, 1672245, 1672652, 1673066, 1673449, 1673801, 1674218, 1674586, 1675042, 1675439, 1675838, 1676223, 1676592, 1676973, 1677364]","[1668902, 1669240, 1669571, 1669970, 1670367, 1670731, 1671138, 1671536, 1671942, 1672305, 1672726, 1673117, 1673505, 1673866, 1674306, 1674644, 1675100, 1675498, 1675891, 1676279, 1676644, 1677023, 1677411]","[141, 155, 161, 90, 152, 166, 161, 84, 70, 9, 223, 109, 127, 159, 191, 181, 8, 23, 90, 112, 56, 238, 18]","[1668844, 1669180, 1669529, 1669942, 1670321, 1670681, 1671073, 1671489, 1671885, 1672265, 1672679, 1673089, 1673473, 1673826, 1674245, 1674609, 1675065, 1675462, 1675859, 1676244, 1676613, 1676996, 1677384]","[1668336, 1668736, 1669135, 1669535, 1669935, 1670335, 1670735, 1671135, 1671489, 1671885, 1672265, 1672672, 1673086, 1673469, 1673821, 1674238, 1674606, 1675062, 1675459, 1675858, 1676243, 1676612, 1676993, 1677384]",71,OR,U,R,ITMSR,1.1
1,400,trial,0,82,82,82,trial,"['S', 'S', 'S', 'S', 'S', 'S', 'S', 'S', 'C', 'C', 'C', 'C', 'C', 'C', 'C', 'C', 'C', 'C', 'C', 'C', 'C', 'C', 'C', 'C']","[1683336, 1683652, 1683975, 1684316, 1684692, 1685097, 1685491, 1685904, 1686282, 1686693, 1687096, 1687483, 1687855, 1688244, 1688626, 1689011, 1689391, 1689772, 1690144, 1690527, 1690916, 1691298, 1691696, 1692047]","[1683411, 1683718, 1684035, 1684368, 1684747, 1685155, 1685548, 1685954, 1686344, 1686742, 1687144, 1687530, 1687911, 1688304, 1688680, 1689067, 1689443, 1689809, 1690198, 1690585, 1690957, 1691356, 1691740, 1692096]","[95, 61, 48, 24, 49, 50, 0, 51, 22, 197, 243, 205, 213, 127, 154, 178, 163, 28, 30, 121, 215, 252, 38, 67]","[1683356, 1683677, 1683999, 1684338, 1684714, 1685122, 1685516, 1685926, 1686308, 1686718, 1687120, 1687506, 1687878, 1688271, 1688648, 1689035, 1689416, 1689796, 1690171, 1690553, 1690936, 1691323, 1691713, 1692056]","[1683115, 1683514, 1683914, 1684314, 1684714, 1685114, 1685514, 1685914, 1686302, 1686713, 1687116, 1687503, 1687875, 1688264, 1688646, 1689031, 1689411, 1689792, 1690164, 1690547, 1690936, 1691318, 1691716, 1692067]",71,OR,U,R,ITMSR,1.1
5,600,trial,0,83,83,83,trial,"['S', 'S', 'S', 'S', 'S', 'S', 'S', 'S', 'C', 'C', 'C', 'C', 'C', 'C', 'C', 'C', 'C', 'C', 'C', 'C', 'C', 'C', 'C', 'C']","[1698227, 1698612, 1699004, 1699560, 1700192, 1700766, 1701334, 1701918, 1702529, 1703113, 1703697, 1704292, 1704857, 1705441, 1706051, 1706604, 1707137, 1707703, 1708289, 1708881, 1709451, 1710005, 1710629, 1711216]","[1698280, 1698658, 1699059, 1699647, 1700253, 1700824, 1701395, 1701991, 1702599, 1703190, 1703781, 1704365, 1704930, 1705509, 1706122, 1706702, 1707222, 1707798, 1708382, 1708968, 1709535, 1710087, 1710690, 1711290]","[130, 69, 131, 9, 224, 18, 245, 10, 36, 59, 51, 40, 31, 36, 60, 34, 44, 12, 7, 51, 48, 223, 191, 102]","[1698243, 1698630, 1699023, 1699563, 1700216, 1700786, 1701356, 1701952, 1702555, 1703142, 1703727, 1704321, 1704885, 1705466, 1706077, 1706637, 1707167, 1707734, 1708326, 1708910, 1709479, 1710034, 1710654, 1711243]","[1697844, 1698444, 1699044, 1699644, 1700244, 1700844, 1701444, 1702044, 1702549, 1703133, 1703717, 1704312, 1704877, 1705461, 1706072, 1706625, 1707157, 1707723, 1708309, 1708901, 1709471, 1710025, 1710649, 1711236]",71,OR,U,R,ITMSR,1.1
5,400,trial,0,84,84,84,trial,"['S', 'S', 'S', 'S', 'S', 'S', 'S', 'C', 'C', 'C', 'C', 'C', 'C', 'C', 'C', 'C', 'C', 'C', 'C', 'C', 'C', 'C', 'C']","[1717564, 1717811, 1718158, 1718508, 1718879, 1719256, 1719657, 1720089, 1720426, 1720778, 1721125, 1721506, 1721876, 1722255, 1722643, 1723013, 1723390, 1723766, 1724135, 1724504, 1724867, 1725249, 1725626]","[1717623, 1717864, 1718207, 1718557, 1718934, 1719311, 1719715, 1720170, 1720506, 1720856, 1721187, 1721565, 1721940, 1722322, 1722703, 1723073, 1723449, 1723814, 1724197, 1724557, 1724935, 1725309, 1725683]","[156, 153, 148, 98, 133, 129, 118, 130, 135, 124, 95, 2, 74, 80, 30, 57, 9, 124, 70, 33, 27, 226, 192]","[1717576, 1717826, 1718175, 1718528, 1718898, 1719273, 1719676, 1720109, 1720446, 1720800, 1721146, 1721530, 1721900, 1722277, 1722668, 1723037, 1723414, 1723791, 1724158, 1724524, 1724894, 1725275, 1725649]","[1716631, 1717031, 1717431, 1717831, 1718232, 1718632, 1719032, 1719432, 1720109, 1720446, 1720798, 1721145, 1721526, 1721896, 1722275, 1722663, 1723033, 1723410, 1723786, 1724155, 1724524, 1724888, 1725270, 1725646]",71,OR,U,R,ITMSR,1.1
1,600,trial,0,85,85,85,trial,"['S', 'S', 'S', 'S', 'S', 'S', 'S', 'S', 'C', 'C', 'C', 'C', 'C', 'C', 'C', 'C', 'C', 'C', 'C', 'C', 'C', 'C', 'C', 'C']","[1731452, 1731780, 1732307, 1732878, 1733458, 1734078, 1734715, 1735319, 1735907, 1736479, 1737033, 1737608, 1738177, 1738711, 1739215, 1739777, 1740323, 1740896, 1741465, 1742007, 1742554, 1743077, 1743612, 1744194]","[1731500, 1731849, 1732371, 1732939, 1733516, 1734131, 1734770, 1735375, 1735998, 1736550, 1737100, 1737666, 1738226, 1738764, 1739272, 1739833, 1740410, 1740975, 1741551, 1742100, 1742656, 1743142, 1743696, 1744246]","[10, 81, 65, 255, 123, 184, 56, 254, 43, 105, 233, 19, 47, 206, 197, 178, 37, 243, 67, 75, 93, 53, 27, 45]","[1731470, 1731806, 1732334, 1732900, 1733479, 1734098, 1734725, 1735349, 1735946, 1736506, 1737066, 1737636, 1738201, 1738732, 1739241, 1739806, 1740357, 1740922, 1741491, 1742035, 1742579, 1743099, 1743637, 1744215]","[1731254, 1731854, 1732454, 1733054, 1733654, 1734254, 1734854, 1735454, 1735927, 1736499, 1737053, 1737628, 1738198, 1738731, 1739235, 1739797, 1740343, 1740916, 1741485, 1742027, 1742574, 1743097, 1743632, 1744215]",71,OR,U,R,ITMSR,1.1
2,400,trial,0,86,86,86,trial,"['S', 'S', 'S', 'S', 'S', 'S', 'C', 'C', 'C', 'C', 'C', 'C', 'C', 'C', 'C', 'C', 'C', 'C', 'C', 'C', 'C', 'C']","[1750589, 1750922, 1751269, 1751657, 1752089, 1752459, 1752881, 1753292, 1753682, 1754058, 1754433, 1754813, 1755213, 1755594, 1755966, 1756355, 1756727, 1757097, 1757474, 1757852, 1758235, 1758624]","[1750638, 1750983, 1751328, 1751709, 1752133, 1752504, 1752925, 1753335, 1753738, 1754104, 1754483, 1754869, 1755256, 1755642, 1756019, 1756402, 1756763, 1757140, 1757517, 1757899, 1758290, 1758681]","[130, 136, 122, 148, 142, 139, 90, 106, 100, 50, 171, 15, 239, 208, 97, 36, 69, 26, 229, 140, 190, 3]","[1750601, 1750941, 1751290, 1751675, 1752105, 1752476, 1752898, 1753310, 1753703, 1754079, 1754458, 1754833, 1755233, 1755615, 1755983, 1756371, 1756744, 1757117, 1757494, 1757873, 1758257, 1758647]","[1749770, 1750170, 1750571, 1750970, 1751370, 1751770, 1752170, 1752570, 1752901, 1753312, 1753702, 1754078, 1754454, 1754833, 1755233, 1755614, 1755986, 1756376, 1756747, 1757117, 1757494, 1757872, 1758255, 1758644]",71,OR,U,R,ITMSR,1.1
3,600,trial,0,87,87,87,trial,"['S', 'S', 'S', 'S', 'S', 'S', 'S', 'S', 'C', 'C', 'C', 'C', 'C', 'C', 'C', 'C', 'C', 'C', 'C', 'C', 'C', 'C', 'C', 'C']","[1764288, 1764639, 1765143, 1765747, 1766353, 1766930, 1767567, 1768143, 1768764, 1769368, 1769975, 1770548, 1771099, 1771657, 1772249, 1772809, 1773334, 1773889, 1774439, 1775012, 1775567, 1776138, 1776710, 1777287]","[1764326, 1764695, 1765188, 1765797, 1766405, 1766977, 1767617, 1768192, 1768824, 1769433, 1770038, 1770617, 1771157, 1771703, 1772284, 1772849, 1773390, 1773950, 1774510, 1775083, 1775643, 1776225, 1776797, 1777367]","[112, 151, 106, 121, 74, 68, 94, 83, 49, 61, 120, 105, 116, 30, 6, 104, 50, 227, 152, 201, 252, 43, 31, 28]","[1764304, 1764658, 1765161, 1765766, 1766373, 1766949, 1767588, 1768164, 1768788, 1769392, 1769998, 1770570, 1771119, 1771677, 1772270, 1772829, 1773347, 1773902, 1774451, 1775048, 1775601, 1776175, 1776748, 1777319]","[1764039, 1764639, 1765239, 1765839, 1766439, 1767040, 1767640, 1768240, 1768784, 1769389, 1769995, 1770568, 1771119, 1771677, 1772269, 1772829, 1773355, 1773910, 1774459, 1775032, 1775587, 1776158, 1776730, 1777307]",71,OR,U,R,ITMSR,1.1
0,600,trial,0,88,88,88,trial,"['S', 'S', 'S', 'S', 'S', 'S', 'S', 'S', 'C', 'C', 'C', 'C', 'C', 'C', 'C', 'C', 'C', 'C', 'C', 'C', 'C', 'C', 'C', 'C']","[1783083, 1783335, 1783932, 1784525, 1785115, 1785707, 1786372, 1786994, 1787604, 1788123, 1788658, 1789165, 1789709, 1790276, 1790833, 1791383, 1791943, 1792501, 1793019, 1793576, 1794157, 1794674, 1795198, 1795751]","[1783140, 1783403, 1784004, 1784594, 1785171, 1785786, 1786434, 1787058, 1787676, 1788207, 1788733, 1789228, 1789786, 1790351, 1790895, 1791441, 1791991, 1792553, 1793072, 1793622, 1794196, 1794746, 1795274, 1795814]","[163, 156, 165, 153, 79, 115, 30, 70, 39, 16, 63, 62, 250, 211, 21, 44, 73, 220, 33, 44, 174, 101, 235, 205]","[1783095, 1783350, 1783950, 1784543, 1785132, 1785731, 1786394, 1787015, 1787629, 1788150, 1788687, 1789188, 1789736, 1790303, 1790856, 1791405, 1791966, 1792525, 1793045, 1793599, 1794178, 1794708, 1795227, 1795776]","[1782885, 1783484, 1784084, 1784684, 1785284, 1785884, 1786484, 1787084, 1787624, 1788143, 1788678, 1789186, 1789729, 1790296, 1790853, 1791404, 1791963, 1792521, 1793039, 1793596, 1794178, 1794694, 1795218, 1795771]",71,OR,U,R,ITMSR,1.1
0,400,trial,0,89,89,89,trial,"['S', 'S', 'S', 'S', 'S', 'S', 'S', 'C', 'C', 'C', 'C', 'C', 'C', 'C', 'C', 'C', 'C', 'C', 'C', 'C', 'C', 'C', 'C']","[1801763, 1802089, 1802378, 1802738, 1803160, 1803524, 1803941, 1804341, 1804720, 1805094, 1805519, 1805899, 1806267, 1806651, 1807046, 1807435, 1807816, 1808187, 1808564, 1808953, 1809337, 1809719, 1810104]","[1801811, 1802136, 1802437, 1802796, 1803194, 1803580, 1803979, 1804394, 1804773, 1805155, 1805569, 1805955, 1806321, 1806704, 1807090, 1807479, 1807854, 1808224, 1808614, 1808997, 1809389, 1809768, 1810156]","[172, 150, 166, 138, 71, 74, 171, 242, 198, 163, 214, 212, 219, 198, 140, 142, 153, 142, 137, 200, 119, 84, 168]","[1801777, 1802104, 1802394, 1802757, 1803169, 1803533, 1803953, 1804356, 1804735, 1805106, 1805541, 1805911, 1806275, 1806661, 1807055, 1807448, 1807830, 1808200, 1808574, 1808965, 1809347, 1809735, 1810115]","[1801254, 1801653, 1802053, 1802454, 1802853, 1803253, 1803653, 1804053, 1804361, 1804740, 1805114, 1805539, 1805919, 1806287, 1806671, 1807066, 1807455, 1807836, 1808207, 1808584, 1808973, 1809357, 1809739, 1810124]",71,OR,U,R,ITMSR,1.1
4,400,trial,0,90,90,90,trial,"['S', 'S', 'S', 'S', 'S', 'S', 'S', 'C', 'C', 'C', 'C', 'C', 'C', 'C', 'C', 'C', 'C', 'C', 'C', 'C', 'C', 'C', 'C']","[1816386, 1816749, 1817106, 1817460, 1817850, 1818241, 1818633, 1819044, 1819431, 1819801, 1820186, 1820599, 1820971, 1821330, 1821687, 1822052, 1822442, 1822827, 1823182, 1823548, 1823947, 1824310, 1824678]","[1816450, 1816813, 1817171, 1817527, 1817911, 1818298, 1818697, 1819106, 1819489, 1819853, 1820236, 1820634, 1821015, 1821375, 1821743, 1822117, 1822508, 1822897, 1823251, 1823622, 1824011, 1824366, 1824740]","[142, 138, 137, 109, 125, 74, 51, 80, 46, 4, 228, 132, 74, 24, 182, 170, 204, 37, 254, 207, 25, 217, 73]","[1816412, 1816756, 1817131, 1817482, 1817871, 1818252, 1818649, 1819054, 1819441, 1819811, 1820196, 1820611, 1820984, 1821345, 1821700, 1822067, 1822470, 1822836, 1823194, 1823560, 1823959, 1824333, 1824703]","[1815906, 1816306, 1816706, 1817106, 1817506, 1817906, 1818306, 1818706, 1819064, 1819451, 1819821, 1820206, 1820619, 1820991, 1821350, 1821707, 1822072, 1822462, 1822848, 1823202, 1823568, 1823967, 1824330, 1824698]",71,OR,U,R,ITMSR,1.1
