pitch,ioi,event,.thisRepN,.thisTrialN,.thisN,.thisIndex,event,tap_types,tap_times,release_times,peak_pressures,peak_times,tone_times,subject,experimenter,register,handedness,experiment,version
,,SPR,0,-1,-1,0,SPR,"['P', 'P', 'P', 'P', 'P', 'P', 'P', 'P', 'P', 'P', 'P', 'P', 'P', 'P', 'P', 'P', 'P', 'P', 'P', 'P', 'P', 'P', 'P', 'P', 'P', 'P', 'P', 'P', 'P', 'P']","[64893, 66533, 66754, 67133, 68341, 68684, 69215, 71336, 71844, 72254, 72532, 72845, 73181, 73461, 73830, 74131, 74342, 74594, 74844, 75168, 75389, 75675, 75893, 76161, 76390, 76658, 76895, 77152, 77387, 77643]","[65474, 66621, 67004, 68129, 68557, 68945, 71132, 71634, 72056, 72379, 72701, 72992, 73261, 73531, 73903, 74185, 74424, 74656, 74935, 75216, 75451, 75717, 75954, 76220, 76438, 76697, 76949, 77190, 77428, 77703]","[199, 114, 146, 180, 115, 148, 147, 155, 156, 32, 84, 245, 212, 220, 14, 137, 232, 180, 102, 21, 148, 91, 237, 42, 130, 249, 144, 94, 72, 108]","[65349, 66539, 66873, 67681, 68451, 68806, 69426, 71435, 71961, 72340, 72609, 72914, 73187, 73465, 73834, 74135, 74348, 74599, 74848, 75172, 75394, 75679, 75897, 76165, 76393, 76661, 76897, 77156, 77391, 77645]",,76,OR,U,R,ITMSR,1.1
1,500,practice,0,0,0,0,practice,"['S', 'S', 'S', 'S', 'S', 'S', 'S', 'S', 'S', 'S', 'S', 'S', 'S', 'S', 'C', 'C', 'C', 'C', 'C', 'C', 'C', 'C', 'C', 'C', 'C', 'C', 'C', 'C', 'C', 'C', 'C', 'C', 'C', 'C', 'C']","[155398, 155665, 155938, 156192, 156469, 156727, 157088, 157347, 157633, 157927, 158215, 158469, 158740, 159021, 159264, 159533, 159817, 160104, 160368, 160634, 161001, 161275, 161585, 161939, 162246, 162577, 162854, 163150, 163446, 163780, 164045, 164359, 164593, 164886, 165142]","[155470, 155740, 156012, 156264, 156538, 156823, 157185, 157427, 157718, 157969, 158289, 158540, 158807, 159096, 159334, 159608, 159934, 160192, 160427, 160714, 161037, 161350, 161681, 162014, 162313, 162647, 162926, 163248, 163510, 163800, 164099, 164431, 164686, 164940]","[128, 112, 164, 18, 82, 208, 56, 30, 218, 140, 102, 217, 48, 23, 210, 121, 3, 37, 9, 24, 197, 29, 19, 13, 23, 3, 12, 218, 10, 164, 192, 77, 118, 81]","[155399, 155670, 155945, 156198, 156474, 156732, 157142, 157384, 157690, 157934, 158221, 158499, 158747, 159027, 159297, 159539, 159886, 160154, 160373, 160680, 161024, 161310, 161618, 161968, 162282, 162612, 162880, 163201, 163482, 163786, 164049, 164384, 164646, 164893]","[155398, 155898, 156398, 156898, 157399, 157898, 158398, 158898, 159284, 159837, 160124, 160654, 161021, 161295, 161605, 161959, 162266, 162597, 162874, 163170, 163466, 163800, 164379, 164907]",76,OR,U,R,ITMSR,1.1
0,500,practice,0,1,1,1,practice,"['B', 'S', 'S', 'S', 'S', 'S', 'S', 'S', 'S', 'S', 'C', 'C', 'C', 'C', 'C', 'C', 'C', 'C', 'C', 'C', 'C', 'C', 'C', 'C', 'C', 'C']","[170617, 170875, 171136, 171410, 171722, 172089, 172508, 172957, 173433, 173927, 174420, 174792, 175217, 175598, 176007, 176440, 176822, 177172, 177494, 177861, 178173, 178459, 178747, 179392, 179730, 180357]","[170667, 170950, 171211, 171488, 171808, 172178, 172585, 173090, 173519, 174062, 174513, 174873, 175312, 175735, 176133, 176540, 176909, 177228, 177574, 177902, 178234, 178535, 178843, 179518, 179750, 180404]","[27, 236, 3, 234, 180, 221, 56, 4, 21, 136, 252, 63, 123, 195, 215, 192, 106, 65, 135, 44, 68, 64, 66, 156, 2, 65]","[170617, 170886, 171144, 171442, 171751, 172113, 172535, 173044, 173473, 174009, 174448, 174840, 175264, 175689, 176071, 176505, 176879, 177199, 177523, 177888, 178203, 178506, 178807, 179477, 179730, 180365]","[170631, 171131, 171631, 172131, 172632, 173132, 173632, 174132, 174440, 174812, 175237, 175618, 176027, 176460, 176842, 177192, 177514, 177881, 178193, 178479, 178767, 179412, 179750, 180377]",76,OR,U,R,ITMSR,1.1
2,500,practice,0,2,2,2,practice,"['S', 'S', 'S', 'S', 'S', 'S', 'S', 'S', 'C', 'C', 'C', 'C', 'C', 'C', 'C', 'C', 'C', 'C', 'C', 'C', 'C', 'C', 'C', 'C']","[186221, 186721, 187151, 187726, 188187, 188725, 189133, 189660, 190886, 191235, 191648, 191994, 192288, 192671, 193016, 193432, 193789, 194140, 194501, 194845, 195234, 195609, 198463, 198761]","[186312, 186826, 187252, 187870, 188299, 188813, 189213, 189798, 191000, 191391, 191759, 192101, 192404, 192780, 193136, 193562, 193873, 194160, 194552, 194900, 195272, 195656, 198554, 198864]","[132, 140, 112, 78, 74, 86, 166, 104, 40, 151, 55, 103, 78, 121, 109, 54, 231, 89, 96, 76, 89, 178, 20, 245]","[186227, 186765, 187199, 187772, 188195, 188765, 189139, 189726, 190936, 191340, 191713, 192043, 192357, 192720, 193095, 193486, 193830, 194143, 194515, 194878, 195240, 195637, 198470, 198791]","[185918, 186418, 186918, 187418, 187918, 188418, 188918, 189418, 190906, 191255, 191668, 192014, 192308, 192691, 193036, 193453, 193809, 194160, 194521, 194865, 195254, 195629, 198483, 198781]",76,OR,U,R,ITMSR,1.1
5,500,practice,0,3,3,3,practice,"['S', 'S', 'S', 'S', 'S', 'S', 'S', 'C', 'C', 'C', 'C', 'C', 'C', 'C', 'C', 'C', 'C', 'C', 'C', 'C', 'C', 'C', 'C']","[204398, 204887, 205434, 205892, 206398, 206855, 207308, 207869, 208411, 208870, 209281, 209768, 210342, 210808, 211231, 211789, 212265, 212752, 213214, 213662, 214179, 214620, 215048]","[204497, 204997, 205548, 205978, 206456, 206967, 207436, 207995, 208492, 208961, 209401, 209861, 210445, 210931, 211336, 211809, 212330, 212838, 213288, 213787, 214250, 214748, 215185]","[234, 0, 200, 91, 76, 178, 84, 184, 113, 93, 208, 150, 25, 132, 253, 181, 252, 142, 33, 154, 156, 166, 31]","[204438, 204931, 205444, 205947, 206435, 206920, 207388, 207938, 208457, 208920, 209337, 209776, 210409, 210875, 211274, 211794, 212310, 212813, 213263, 213720, 214212, 214689, 215122]","[204101, 204601, 205101, 205601, 206101, 206601, 207101, 207601, 207889, 208431, 208890, 209301, 209788, 210362, 210828, 211251, 211809, 212285, 212772, 213234, 213682, 214199, 214640, 215068]",76,OR,U,R,ITMSR,1.1
3,500,practice,0,4,4,4,practice,"['S', 'S', 'S', 'S', 'S', 'S', 'S', 'C', 'C', 'C', 'C', 'C', 'C', 'C', 'C', 'C', 'C', 'C', 'C', 'C', 'C', 'C', 'C']","[220737, 221249, 221736, 222249, 222772, 223236, 223757, 224278, 224787, 225267, 225661, 226060, 226549, 227056, 227492, 227914, 228485, 228895, 229410, 229833, 230268, 230720, 231171]","[220835, 221372, 221863, 222361, 222878, 223337, 223860, 224404, 224917, 225341, 225777, 226206, 226662, 227162, 227574, 228006, 228578, 229023, 229501, 229942, 230352, 230800, 231316]","[166, 151, 162, 6, 132, 106, 124, 149, 90, 155, 60, 15, 200, 235, 108, 111, 231, 206, 28, 175, 236, 211, 236]","[220797, 221306, 221814, 222317, 222820, 223263, 223804, 224286, 224855, 225303, 225728, 226146, 226613, 227118, 227552, 227972, 228511, 228965, 229467, 229872, 230297, 230747, 231260]","[220495, 220995, 221495, 221996, 222495, 222995, 223495, 223995, 224299, 224807, 225287, 225681, 226080, 226569, 227076, 227512, 227934, 228505, 228915, 229430, 229853, 230288, 230740, 231191]",76,OR,U,R,ITMSR,1.1
4,500,practice,0,5,5,5,practice,"['S', 'S', 'S', 'S', 'S', 'S', 'S', 'C', 'C', 'C', 'C', 'C', 'C', 'C', 'C', 'C', 'C', 'C', 'C', 'C', 'C', 'C', 'C']","[237165, 237667, 238179, 238652, 239121, 239669, 240156, 240657, 241243, 241625, 242348, 242750, 243137, 243597, 244004, 244401, 244892, 245323, 245742, 246226, 246632, 247044, 247444]","[237296, 237786, 238288, 238749, 239209, 239785, 240225, 240734, 241327, 241738, 242395, 242852, 243259, 243724, 244109, 244521, 244996, 245442, 245858, 246313, 246712, 247103, 247548]","[21, 244, 2, 165, 245, 238, 177, 193, 54, 84, 244, 41, 84, 115, 249, 2, 215, 55, 39, 230, 192, 131, 108]","[237194, 237728, 238229, 238705, 239178, 239690, 240162, 240687, 241275, 241686, 242382, 242818, 243144, 243674, 244060, 244482, 244964, 245377, 245771, 246283, 246680, 247076, 247503]","[236896, 237395, 237895, 238395, 238895, 239395, 239895, 240395, 240677, 241263, 241645, 242368, 242770, 243158, 243617, 244024, 244421, 244912, 245343, 245762, 246246, 246652, 247064, 247464]",76,OR,U,R,ITMSR,1.1
3,600,trial,0,6,6,6,trial,"['S', 'S', 'S', 'S', 'S', 'S', 'S', 'C', 'C', 'C', 'C', 'C', 'C', 'C', 'C', 'C', 'C', 'C', 'C', 'C', 'C', 'C', 'C', 'C']","[303621, 304268, 304799, 305471, 306052, 306659, 307325, 307954, 308509, 309121, 309221, 309745, 310422, 311040, 312214, 312757, 313311, 313882, 314462, 315086, 315621, 316188, 316732, 317271]","[303752, 304379, 304945, 305617, 306206, 306817, 307451, 308069, 308635, 309141, 309241, 309860, 310519, 311107, 312278, 312890, 313424, 313947, 314576, 315129, 315698, 316226, 316801, 317331]","[67, 22, 52, 79, 36, 43, 25, 148, 208, 2, 83, 158, 213, 200, 111, 242, 183, 99, 89, 149, 47, 252, 186, 111]","[303627, 304335, 304872, 305555, 306143, 306731, 307332, 308037, 308546, 309121, 309221, 309800, 310466, 311069, 312245, 312804, 313337, 313907, 314491, 315108, 315650, 316211, 316753, 317304]","[303381, 303981, 304581, 305181, 305781, 306381, 306981, 307581, 307974, 308529, 309141, 309765, 310443, 311060, 312235, 312777, 313331, 313902, 314482, 315106, 315641, 316208, 316752, 317291]",76,OR,U,R,ITMSR,1.1
1,600,trial,0,7,7,7,trial,"['S', 'S', 'S', 'S', 'S', 'S', 'S', 'S', 'C', 'C', 'C', 'C', 'C', 'C', 'C', 'C', 'C', 'C', 'C', 'C', 'C', 'C', 'C', 'C']","[323226, 323830, 324420, 324947, 325516, 326077, 326693, 327318, 327999, 328577, 329264, 329877, 330529, 331235, 331892, 332597, 333371, 334034, 334732, 335352, 335953, 336650, 337400, 337998]","[323328, 323938, 324576, 325100, 325640, 326241, 326849, 327446, 328136, 328739, 329438, 330018, 330689, 331354, 332046, 332732, 333473, 334144, 334856, 335501, 336092, 336770, 337528, 338127]","[40, 83, 73, 90, 54, 66, 84, 30, 102, 86, 43, 130, 86, 190, 119, 164, 123, 17, 199, 88, 244, 140, 30, 108]","[323273, 323897, 324497, 325007, 325595, 326171, 326784, 327384, 328068, 328675, 329364, 329962, 330612, 331298, 331983, 332654, 333415, 334104, 334806, 335442, 336026, 336702, 337481, 338071]","[322929, 323529, 324129, 324729, 325329, 325929, 326530, 327130, 328019, 328597, 329284, 329897, 330549, 331255, 331912, 332617, 333391, 334054, 334752, 335372, 335973, 336670, 337420, 338018]",76,OR,U,R,ITMSR,1.1
2,400,trial,0,8,8,8,trial,"['B', 'S', 'S', 'S', 'S', 'S', 'S', 'S', 'C', 'C', 'C', 'C', 'C', 'C', 'C', 'C', 'C', 'C', 'C', 'C', 'C', 'C', 'C', 'C']","[343518, 344061, 344521, 344958, 345385, 345802, 346194, 346527, 347029, 347357, 347685, 348105, 348465, 348805, 349151, 349522, 349863, 350255, 350691, 351022, 351397, 351796, 352153, 352576]","[343585, 344177, 344626, 345070, 345502, 345921, 346291, 346651, 347112, 347464, 347799, 348199, 348568, 348899, 349254, 349632, 349967, 350376, 350776, 351143, 351526, 351919, 352266, 352658]","[10, 215, 210, 156, 114, 224, 136, 160, 181, 187, 176, 116, 59, 115, 181, 149, 35, 170, 131, 176, 177, 147, 88, 17]","[343532, 344126, 344568, 345006, 345424, 345868, 346254, 346576, 347036, 347411, 347719, 348111, 348534, 348855, 349200, 349571, 349941, 350307, 350737, 351084, 351465, 351845, 352217, 352617]","[343530, 343930, 344330, 344730, 345131, 345530, 345930, 346330, 347049, 347377, 347705, 348125, 348485, 348825, 349171, 349542, 349883, 350275, 350711, 351042, 351417, 351816, 352173, 352596]",76,OR,U,R,ITMSR,1.1
0,600,trial,0,9,9,9,trial,"['S', 'S', 'S', 'S', 'S', 'S', 'S', 'S', 'C', 'C', 'C', 'C', 'C', 'C', 'C', 'C', 'C', 'C', 'C', 'C', 'C', 'C', 'C', 'C']","[358482, 359097, 359720, 360312, 360952, 361551, 362132, 362694, 363407, 363934, 364554, 365131, 365717, 366426, 367020, 367685, 368293, 368990, 369573, 370150, 370906, 371510, 372083, 372751]","[358601, 359212, 359824, 360408, 361036, 361650, 362262, 362823, 363533, 364078, 364665, 365235, 365819, 366543, 367133, 367802, 368393, 369094, 369664, 370276, 371004, 371632, 372185, 372861]","[131, 160, 109, 205, 121, 123, 2, 127, 151, 146, 69, 70, 58, 103, 105, 179, 27, 224, 99, 143, 59, 204, 72, 82]","[358537, 359157, 359760, 360356, 360996, 361594, 362199, 362739, 363475, 364008, 364596, 365176, 365780, 366500, 367083, 367755, 368338, 369014, 369617, 370215, 370948, 371597, 372129, 372816]","[358276, 358876, 359476, 360076, 360676, 361276, 361876, 362476, 363427, 363954, 364574, 365151, 365737, 366446, 367040, 367705, 368313, 369010, 369593, 370170, 370926, 371530, 372103, 372771]",76,OR,U,R,ITMSR,1.1
0,400,trial,0,10,10,10,trial,"['S', 'S', 'S', 'S', 'S', 'S', 'S', 'C', 'C', 'C', 'C', 'C', 'C', 'C', 'C', 'C', 'C', 'C', 'C', 'C', 'C', 'C', 'C']","[378542, 378926, 379355, 379751, 380151, 380542, 380930, 381360, 382121, 382437, 382769, 383124, 383429, 384144, 384478, 384941, 385716, 386037, 386362, 386725, 387179, 387514, 387874]","[378651, 379049, 379440, 379829, 380237, 380625, 381011, 381401, 382179, 382502, 382814, 383144, 383449, 384186, 384595, 384961, 385772, 386145, 386494, 386828, 387225, 387608, 387988]","[254, 58, 201, 133, 92, 180, 139, 154, 92, 102, 42, 34, 6, 78, 191, 47, 116, 2, 23, 221, 53, 16, 245]","[378590, 378982, 379361, 379799, 380211, 380582, 380989, 381364, 382123, 382475, 382793, 383132, 383429, 384145, 384548, 384941, 385733, 386078, 386427, 386782, 387200, 387553, 387943]","[378295, 378695, 379096, 379496, 379896, 380296, 380696, 381096, 381380, 382141, 382457, 382789, 383144, 383449, 384164, 384498, 384961, 385736, 386057, 386382, 386745, 387200, 387534, 387894]",76,OR,U,R,ITMSR,1.1
3,600,trial,0,11,11,11,trial,"['S', 'S', 'S', 'S', 'S', 'S', 'C', 'C', 'C', 'C', 'C', 'C', 'C', 'C', 'C', 'C', 'C', 'C', 'C', 'C', 'C', 'C']","[393502, 394002, 394686, 395450, 396612, 397192, 397773, 398252, 398885, 399380, 399922, 400484, 401140, 401725, 402418, 402947, 403576, 404170, 404769, 405286, 405883, 406492]","[393634, 394132, 394761, 395570, 396765, 397350, 397944, 398393, 399041, 399520, 400074, 400627, 401294, 401898, 402552, 403097, 403682, 404287, 404907, 405453, 405985, 406595]","[219, 20, 200, 181, 237, 194, 190, 94, 221, 149, 121, 89, 187, 192, 108, 190, 61, 77, 108, 152, 215, 16]","[393576, 394075, 394732, 395514, 396705, 397283, 397888, 398259, 398891, 399463, 399993, 400490, 401238, 401843, 402501, 403045, 403609, 404208, 404848, 405389, 405929, 406536]","[393273, 393873, 394473, 395073, 395673, 396273, 396873, 397473, 397793, 398272, 398905, 399400, 399942, 400504, 401160, 401745, 402438, 402967, 403596, 404190, 404789, 405306, 405903, 406512]",76,OR,U,R,ITMSR,1.1
3,400,trial,0,12,12,12,trial,"['S', 'S', 'S', 'S', 'S', 'S', 'S', 'S', 'C', 'C', 'C', 'C', 'C', 'C', 'C', 'C', 'C', 'C', 'C', 'C', 'C', 'C', 'C', 'C']","[412508, 412960, 413347, 413751, 414132, 414495, 414913, 415308, 415719, 416039, 416452, 416794, 417195, 417548, 417914, 418339, 418703, 419053, 419407, 419818, 420184, 420538, 420955, 421399]","[412625, 413052, 413459, 413858, 414221, 414562, 414984, 415375, 415792, 416123, 416520, 416876, 417268, 417594, 417982, 418415, 418787, 419113, 419494, 419875, 420237, 420588, 421024, 421465]","[91, 116, 217, 148, 30, 133, 208, 183, 95, 103, 171, 93, 80, 231, 91, 104, 76, 75, 166, 147, 93, 100, 83, 46]","[412567, 413016, 413406, 413794, 414140, 414501, 414919, 415315, 415724, 416073, 416458, 416802, 417202, 417554, 417921, 418347, 418756, 419063, 419415, 419823, 420188, 420544, 420997, 421403]","[412285, 412684, 413084, 413485, 413885, 414285, 414685, 415085, 415739, 416059, 416472, 416814, 417215, 417568, 417934, 418359, 418723, 419074, 419427, 419838, 420204, 420558, 420975, 421420]",76,OR,U,R,ITMSR,1.1
0,400,trial,0,13,13,13,trial,"['S', 'S', 'S', 'S', 'S', 'S', 'S', 'S', 'C', 'C', 'C', 'C', 'C', 'C', 'C', 'C', 'C', 'C', 'C', 'C', 'C', 'C', 'C', 'C']","[427102, 427512, 427925, 428251, 428672, 429039, 429422, 429798, 430228, 430554, 430953, 431362, 431721, 432060, 432402, 432772, 433118, 433487, 433982, 434291, 434672, 435098, 435430, 435720]","[427184, 427589, 427975, 428324, 428711, 429077, 429485, 429818, 430296, 430650, 431029, 431382, 431767, 432106, 432422, 432792, 433174, 433533, 434002, 434360, 434765, 435118, 435477, 435825]","[76, 61, 229, 56, 192, 198, 59, 237, 255, 44, 10, 159, 2, 223, 204, 182, 252, 221, 74, 239, 249, 93, 252, 71]","[427108, 427553, 427933, 428288, 428673, 429039, 429459, 429803, 430268, 430590, 430987, 431366, 431727, 432066, 432408, 432779, 433125, 433521, 433985, 434298, 434678, 435099, 435447, 435788]","[426784, 427184, 427584, 427984, 428384, 428784, 429185, 429584, 430248, 430574, 430973, 431382, 431741, 432080, 432422, 432792, 433138, 433507, 434002, 434311, 434692, 435118, 435450, 435740]",76,OR,U,R,ITMSR,1.1
1,400,trial,0,14,14,14,trial,"['S', 'S', 'S', 'S', 'S', 'S', 'S', 'S', 'C', 'C', 'C', 'C', 'C', 'C', 'C', 'C', 'C', 'C', 'C', 'C', 'C', 'C', 'C', 'C']","[441791, 442120, 442503, 442871, 443283, 443689, 444065, 444455, 444857, 445187, 445581, 445970, 446295, 446678, 447041, 447401, 447744, 448169, 448545, 448940, 449313, 449654, 450070, 450446]","[441862, 442221, 442561, 442986, 443344, 443785, 444178, 444562, 444984, 445328, 445666, 446044, 446387, 446763, 447111, 447459, 447819, 448225, 448565, 448960, 449333, 449674, 450091, 450466]","[11, 19, 182, 116, 10, 0, 49, 62, 83, 158, 13, 252, 43, 239, 190, 219, 219, 212, 145, 105, 176, 173, 172, 114]","[441832, 442183, 442540, 442936, 443320, 443748, 444132, 444533, 444941, 445284, 445628, 446009, 446359, 446720, 447052, 447409, 447748, 448178, 448551, 448943, 449316, 449658, 450074, 450448]","[441443, 441843, 442243, 442643, 443043, 443443, 443843, 444243, 444877, 445207, 445601, 445990, 446315, 446698, 447062, 447421, 447764, 448189, 448565, 448960, 449333, 449674, 450091, 450466]",76,OR,U,R,ITMSR,1.1
3,400,trial,0,15,15,15,trial,"['B', 'S', 'S', 'S', 'S', 'S', 'S', 'S', 'C', 'C', 'C', 'C', 'C', 'C', 'C', 'C', 'C', 'C', 'C', 'C', 'C', 'C', 'C', 'C']","[456146, 456508, 456881, 457277, 457640, 458412, 458796, 459160, 459607, 459979, 460364, 460741, 461087, 461479, 461877, 462238, 462989, 463351, 463693, 464062, 464455, 464841, 465160, 465496]","[456176, 456528, 456931, 457332, 457698, 458468, 458850, 459241, 459709, 460029, 460435, 460798, 461107, 461535, 461897, 462305, 463046, 463393, 463750, 464132, 464539, 464897, 465260, 465568]","[166, 168, 220, 193, 196, 189, 210, 220, 230, 219, 224, 181, 190, 214, 97, 181, 199, 171, 218, 220, 31, 253, 14, 5]","[456158, 456513, 456886, 457283, 457646, 458446, 458800, 459163, 459610, 459982, 460368, 460767, 461093, 461487, 461880, 462243, 462996, 463375, 463727, 464068, 464505, 464846, 465201, 465531]","[456158, 456557, 456957, 457357, 457757, 458157, 458557, 458957, 459627, 459999, 460384, 460761, 461107, 461499, 461897, 462258, 463009, 463371, 463713, 464082, 464475, 464861, 465180, 465516]",76,OR,U,R,ITMSR,1.1
5,600,trial,0,16,16,16,trial,"['S', 'S', 'S', 'S', 'S', 'S', 'S', 'C', 'C', 'C', 'C', 'C', 'C', 'C', 'C', 'C', 'C', 'C', 'C', 'C', 'C', 'C', 'C']","[471242, 471917, 472498, 473181, 473808, 474394, 475008, 475613, 476125, 476649, 477202, 477865, 478413, 478979, 479551, 480154, 480656, 481321, 481769, 482297, 482917, 483453, 484036]","[471318, 471992, 472588, 473264, 473880, 474488, 475105, 475721, 476221, 476733, 477285, 477941, 478507, 479051, 479601, 480193, 480718, 481341, 481863, 482364, 483010, 483520, 484091]","[184, 126, 142, 71, 45, 79, 100, 124, 74, 45, 15, 167, 67, 81, 2, 100, 236, 118, 85, 29, 140, 158, 165]","[471246, 471924, 472539, 473187, 473814, 474435, 475013, 475618, 476131, 476695, 477241, 477910, 478470, 478985, 479581, 480176, 480687, 481328, 481774, 482333, 482952, 483494, 484073]","[471029, 471629, 472229, 472829, 473430, 474029, 474629, 475229, 475633, 476145, 476669, 477222, 477885, 478433, 478999, 479571, 480174, 480676, 481341, 481789, 482317, 482937, 483473, 484056]",76,OR,U,R,ITMSR,1.1
2,600,trial,0,17,17,17,trial,"['S', 'S', 'S', 'S', 'S', 'S', 'S', 'S', 'C', 'C', 'C', 'C', 'C', 'C', 'C', 'C', 'C', 'C', 'C', 'C', 'C', 'C', 'C', 'C']","[489947, 490574, 491149, 491713, 492265, 492848, 493437, 494085, 494746, 495257, 495855, 496418, 497025, 497603, 498070, 498606, 499155, 499787, 500348, 500896, 501502, 502025, 502643, 503190]","[490045, 490647, 491219, 491784, 492351, 492995, 493538, 494178, 494840, 495382, 495934, 496517, 497087, 497671, 498182, 498662, 499233, 499827, 500412, 500934, 501578, 502102, 502725, 503250]","[73, 44, 164, 46, 134, 133, 50, 106, 47, 46, 84, 26, 254, 215, 47, 11, 51, 167, 245, 154, 79, 120, 81, 155]","[489979, 490603, 491153, 491746, 492309, 492899, 493472, 494127, 494795, 495322, 495860, 496474, 497067, 497651, 498145, 498634, 499187, 499795, 500384, 500920, 501534, 502067, 502663, 503221]","[489644, 490243, 490843, 491443, 492043, 492643, 493243, 493843, 494766, 495277, 495875, 496438, 497045, 497624, 498091, 498626, 499175, 499807, 500368, 500916, 501522, 502045, 502663, 503211]",76,OR,U,R,ITMSR,1.1
0,600,trial,0,18,18,18,trial,"['B', 'S', 'S', 'S', 'S', 'S', 'S', 'S', 'C', 'C', 'C', 'C', 'C', 'C', 'C', 'C', 'C', 'C', 'C', 'C', 'C', 'C', 'C', 'C']","[508685, 509099, 509703, 510278, 510865, 511443, 511979, 512531, 513163, 513680, 514151, 514674, 515315, 515833, 516345, 516965, 517493, 518089, 518637, 519284, 520389, 520854, 521436, 522018]","[508746, 509198, 509818, 510395, 510972, 511541, 512098, 512640, 513245, 513772, 514230, 514759, 515410, 515911, 516426, 517028, 517564, 518132, 518658, 519329, 520509, 520975, 521516, 522117]","[167, 60, 127, 122, 73, 24, 75, 60, 31, 51, 39, 52, 53, 31, 38, 55, 50, 248, 25, 161, 120, 109, 39, 30]","[508705, 509139, 509769, 510366, 510930, 511485, 512041, 512601, 513198, 513726, 514192, 514679, 515371, 515865, 516362, 517001, 517530, 518110, 518644, 519308, 520458, 520925, 521463, 522067]","[508698, 509298, 509898, 510498, 511098, 511698, 512299, 512898, 513183, 513700, 514171, 514694, 515335, 515853, 516365, 516985, 517513, 518109, 518658, 519304, 520409, 520875, 521456, 522038]",76,OR,U,R,ITMSR,1.1
4,600,trial,0,19,19,19,trial,"['S', 'S', 'S', 'S', 'S', 'S', 'S', 'C', 'C', 'C', 'C', 'C', 'C', 'C', 'C', 'C', 'C', 'C', 'C', 'C', 'C', 'C', 'C']","[528020, 528602, 529190, 529763, 530394, 530946, 531536, 532227, 532731, 533283, 533856, 534448, 535029, 535572, 536182, 536738, 537318, 537866, 538414, 539018, 539621, 540238, 540794]","[528138, 528702, 529309, 529840, 530494, 531053, 531637, 532294, 532809, 533364, 533933, 534599, 535128, 535653, 536266, 536825, 537417, 537936, 538499, 539074, 539668, 540277, 540839]","[14, 71, 39, 41, 77, 71, 29, 123, 15, 3, 51, 159, 248, 18, 71, 30, 244, 172, 230, 172, 132, 91, 141]","[528078, 528608, 529197, 529769, 530401, 530950, 531543, 532234, 532738, 533289, 533861, 534529, 535074, 535607, 536187, 536774, 537352, 537871, 538454, 539038, 539645, 540265, 540817]","[527597, 528197, 528797, 529397, 529997, 530597, 531197, 531798, 532247, 532751, 533303, 533876, 534468, 535049, 535592, 536202, 536758, 537338, 537886, 538434, 539038, 539641, 540258, 540814]",76,OR,U,R,ITMSR,1.1
5,400,trial,0,20,20,20,trial,"['S', 'S', 'S', 'S', 'S', 'S', 'S', 'C', 'C', 'C', 'C', 'C', 'C', 'C', 'C', 'C', 'C', 'C', 'C', 'C', 'C', 'C', 'C']","[546456, 546928, 547266, 547700, 548080, 548450, 548795, 549272, 549649, 550067, 550444, 550808, 551180, 551552, 551931, 552317, 552697, 553060, 553451, 553816, 554177, 554614, 555755]","[546476, 547010, 547329, 547820, 548179, 548561, 548888, 549334, 549728, 550163, 550516, 550848, 551250, 551604, 551981, 552390, 552743, 553111, 553523, 553836, 554264, 554634, 555776]","[184, 44, 90, 151, 143, 141, 25, 15, 78, 0, 221, 6, 238, 197, 151, 201, 150, 26, 198, 2, 10, 106, 46]","[546460, 546965, 547303, 547705, 548085, 548456, 548800, 549279, 549684, 550073, 550450, 550813, 551217, 551556, 551941, 552320, 552701, 553065, 553456, 553816, 554214, 554619, 555762]","[546119, 546520, 546920, 547320, 547720, 548120, 548520, 548920, 549293, 549669, 550087, 550464, 550829, 551200, 551572, 551951, 552337, 552717, 553080, 553472, 553836, 554198, 554634, 555776]",76,OR,U,R,ITMSR,1.1
5,600,trial,0,21,21,21,trial,"['S', 'S', 'S', 'S', 'S', 'S', 'C', 'C', 'C', 'C', 'C', 'C', 'C', 'C', 'C', 'C', 'C', 'C', 'C', 'C', 'C', 'C']","[562275, 562887, 563528, 564185, 564835, 565442, 566625, 567145, 567714, 568321, 568881, 569529, 570512, 571038, 571573, 572143, 572699, 573286, 573871, 574472, 575000, 575645]","[562339, 562907, 563602, 564220, 564884, 565462, 566645, 567189, 567808, 568371, 568951, 569549, 570610, 571105, 571701, 572237, 572807, 573368, 573952, 574525, 575075, 575706]","[240, 155, 220, 75, 161, 82, 188, 179, 236, 213, 189, 2, 83, 16, 184, 66, 67, 92, 84, 172, 224, 84]","[562312, 562893, 563533, 564189, 564840, 565443, 566630, 567149, 567785, 568353, 568918, 569529, 570561, 571084, 571624, 572206, 572768, 573326, 573904, 574477, 575056, 575653]","[561283, 561883, 562483, 563083, 563683, 564283, 564883, 565483, 566645, 567165, 567734, 568341, 568901, 569549, 570532, 571058, 571593, 572163, 572719, 573306, 573891, 574492, 575021, 575665]",76,OR,U,R,ITMSR,1.1
4,400,trial,0,22,22,22,trial,"['S', 'S', 'S', 'S', 'S', 'S', 'S', 'C', 'C', 'C', 'C', 'C', 'C', 'C', 'C', 'C', 'C', 'C', 'C', 'C', 'C', 'C', 'C']","[581670, 582102, 582495, 582930, 583349, 583723, 584131, 584535, 584928, 585346, 585683, 586086, 586433, 586832, 587173, 587552, 587950, 588390, 588732, 589139, 589523, 589949, 590346]","[581739, 582165, 582609, 583015, 583453, 583848, 584241, 584645, 585056, 585437, 585786, 586170, 586530, 586932, 587282, 587644, 588039, 588467, 588823, 589195, 589614, 589991, 590399]","[3, 20, 205, 84, 55, 71, 75, 52, 102, 62, 101, 56, 0, 118, 115, 92, 92, 188, 1, 245, 8, 243, 219]","[581676, 582109, 582559, 582934, 583352, 583774, 584136, 584594, 584997, 585396, 585689, 586090, 586467, 586877, 587236, 587593, 587991, 588395, 588754, 589146, 589528, 589969, 590386]","[581382, 581782, 582182, 582582, 582982, 583383, 583782, 584182, 584555, 584948, 585366, 585703, 586106, 586454, 586852, 587193, 587572, 587970, 588410, 588752, 589159, 589543, 589969, 590366]",76,OR,U,R,ITMSR,1.1
1,600,trial,0,23,23,23,trial,"['S', 'S', 'S', 'S', 'S', 'S', 'S', 'C', 'C', 'C', 'C', 'C', 'C', 'C', 'C', 'C', 'C', 'C', 'C', 'C', 'C', 'C', 'C']","[595920, 596683, 597289, 597921, 598522, 599140, 599760, 600378, 600849, 601381, 601936, 602520, 603094, 603674, 604226, 604805, 605399, 605907, 606452, 607097, 607691, 608318, 608891]","[596012, 596762, 597391, 598025, 598634, 599244, 599875, 600498, 600940, 601488, 602023, 602594, 603170, 603776, 604313, 604883, 605488, 606012, 606550, 607164, 607747, 608410, 608963]","[240, 203, 218, 234, 126, 28, 107, 14, 118, 215, 205, 50, 249, 66, 27, 15, 196, 146, 182, 248, 240, 193, 213]","[595981, 596688, 597296, 597924, 598581, 599185, 599833, 600458, 600855, 601416, 601943, 602523, 603100, 603679, 604230, 604837, 605400, 605939, 606454, 607102, 607697, 608364, 608896]","[595771, 596371, 596971, 597571, 598171, 598771, 599371, 599971, 600398, 600869, 601401, 601956, 602541, 603114, 603694, 604247, 604825, 605419, 605927, 606472, 607117, 607711, 608338, 608911]",76,OR,U,R,ITMSR,1.1
2,400,trial,0,24,24,24,trial,"['S', 'S', 'S', 'S', 'S', 'S', 'S', 'C', 'C', 'C', 'C', 'C', 'C', 'C', 'C', 'C', 'C', 'C', 'C', 'C', 'C', 'C', 'C', 'C', 'C']","[614715, 615214, 615643, 616025, 616432, 616826, 617210, 617615, 618006, 618418, 618789, 619184, 619565, 619933, 620294, 620394, 620656, 621048, 621148, 621884, 622239, 622639, 623001, 623454, 623841]","[614810, 615310, 615756, 616138, 616452, 616934, 617305, 617758, 618027, 618486, 618809, 619234, 619585, 619953, 620314, 620414, 620762, 621068, 621168, 621904, 622347, 622759, 623115, 623510, 623897]","[103, 206, 9, 11, 208, 231, 205, 187, 212, 89, 83, 134, 175, 128, 201, 141, 215, 135, 144, 91, 126, 178, 162, 144, 173]","[614720, 615220, 615646, 616031, 616436, 616894, 617216, 617620, 618010, 618459, 618793, 619188, 619568, 619934, 620298, 620394, 620659, 621049, 621151, 621885, 622302, 622643, 623045, 623467, 623845]","[614520, 614920, 615320, 615720, 616120, 616520, 616920, 617320, 617635, 618027, 618438, 618809, 619204, 619585, 619953, 620314, 620676, 621068, 621904, 622259, 622659, 623021, 623474, 623861]",76,OR,U,R,ITMSR,1.1
4,600,trial,0,25,25,25,trial,"['S', 'S', 'S', 'S', 'S', 'S', 'S', 'C', 'C', 'C', 'C', 'C', 'C', 'C', 'C', 'C', 'C', 'C', 'C', 'C', 'C', 'C', 'C', 'C']","[629765, 630358, 630979, 631611, 632235, 632786, 633414, 634080, 634180, 634574, 635088, 635622, 636200, 636804, 637342, 637914, 638535, 639091, 639769, 640288, 640855, 641428, 642050, 642592]","[629785, 630474, 631064, 631704, 632338, 632889, 633495, 634100, 634200, 634670, 635184, 635726, 636280, 636891, 637441, 637990, 638626, 639167, 639824, 640381, 640949, 641541, 642129, 642697]","[193, 86, 161, 26, 133, 241, 38, 212, 117, 163, 7, 16, 20, 31, 66, 8, 242, 180, 62, 10, 35, 68, 190, 243]","[629771, 630365, 630984, 631617, 632240, 632794, 633418, 634085, 634180, 634630, 635145, 635655, 636238, 636854, 637376, 637917, 638583, 639141, 639808, 640351, 640894, 641476, 642086, 642627]","[629483, 630083, 630683, 631283, 631883, 632483, 633083, 633683, 634100, 634594, 635108, 635642, 636220, 636824, 637362, 637934, 638555, 639111, 639789, 640308, 640875, 641448, 642070, 642612]",76,OR,U,R,ITMSR,1.1
1,400,trial,0,26,26,26,trial,"['S', 'S', 'S', 'S', 'S', 'S', 'S', 'S', 'C', 'C', 'C', 'C', 'C', 'C', 'C', 'C', 'C', 'C', 'C', 'C', 'C', 'C', 'C', 'C']","[648535, 648827, 649207, 649624, 649981, 650387, 650817, 650918, 651166, 651534, 651916, 652286, 652659, 652991, 653405, 653770, 654154, 654511, 654921, 655332, 655710, 656075, 656437, 656858]","[648555, 648894, 649310, 649644, 650089, 650521, 650838, 650938, 651314, 651663, 651936, 652306, 652679, 653011, 653452, 653790, 654236, 654531, 654941, 655412, 655775, 656140, 656523, 656936]","[216, 242, 10, 214, 79, 170, 35, 79, 10, 14, 66, 87, 54, 141, 210, 228, 41, 77, 94, 238, 140, 164, 42, 164]","[648539, 648832, 649212, 649628, 649987, 650393, 650823, 650918, 651231, 651541, 651922, 652292, 652665, 652997, 653410, 653773, 654159, 654517, 654924, 655338, 655716, 656111, 656443, 656894]","[648076, 648476, 648877, 649277, 649677, 650077, 650477, 650877, 651186, 651554, 651936, 652306, 652679, 653011, 653425, 653790, 654174, 654531, 654941, 655352, 655730, 656095, 656457, 656878]",76,OR,U,R,ITMSR,1.1
4,400,trial,0,27,27,27,trial,"['S', 'S', 'S', 'S', 'S', 'S', 'S', 'C', 'C', 'C', 'C', 'C', 'C', 'C', 'C', 'C', 'C', 'C', 'C', 'C', 'C', 'C', 'C']","[662864, 663263, 663678, 664087, 664493, 664905, 665271, 665673, 666056, 666460, 667179, 667507, 667887, 668285, 668675, 669034, 669420, 669784, 670164, 670542, 670912, 671298, 671649]","[662939, 663353, 663773, 664193, 664576, 664925, 665390, 665693, 666159, 666480, 667268, 667613, 668001, 668305, 668781, 669144, 669528, 669886, 670263, 670562, 670932, 671319, 671724]","[22, 154, 26, 154, 194, 180, 98, 203, 185, 184, 227, 239, 3, 88, 233, 197, 186, 206, 187, 214, 205, 207, 251]","[662870, 663271, 663685, 664094, 664540, 664909, 665277, 665680, 666062, 666462, 667184, 667511, 667893, 668292, 668680, 669038, 669423, 669789, 670167, 670547, 670919, 671304, 671653]","[662601, 663000, 663400, 663800, 664200, 664600, 665000, 665400, 665693, 666076, 666480, 667199, 667527, 667907, 668305, 668695, 669054, 669441, 669804, 670184, 670562, 670932, 671319, 671669]",76,OR,U,R,ITMSR,1.1
2,600,trial,0,28,28,28,trial,"['S', 'S', 'S', 'S', 'S', 'S', 'S', 'S', 'S', 'C', 'C', 'C', 'C', 'C', 'C', 'C', 'C', 'C', 'C', 'C', 'C', 'C', 'C', 'C', 'C']","[677545, 678184, 678808, 679441, 680052, 680152, 680573, 681162, 681759, 682505, 683049, 683592, 684210, 684785, 685370, 685938, 686478, 687087, 687695, 688300, 688868, 689463, 690126, 690685, 691195]","[677639, 678286, 678903, 679461, 680072, 680172, 680663, 681286, 681866, 682525, 683145, 683717, 684340, 684878, 685427, 686009, 686585, 687184, 687792, 688392, 688973, 689483, 690253, 690777, 691298]","[63, 46, 73, 194, 37, 71, 100, 251, 186, 152, 22, 233, 74, 135, 56, 84, 237, 89, 161, 194, 188, 56, 165, 176, 8]","[677551, 678190, 678813, 679446, 680060, 680152, 680637, 681242, 681811, 682508, 683056, 683663, 684277, 684847, 685390, 685975, 686546, 687154, 687703, 688304, 688871, 689470, 690128, 690692, 691202]","[677324, 677924, 678524, 679124, 679725, 680325, 680925, 681525, 682525, 683069, 683612, 684230, 684805, 685390, 685958, 686498, 687107, 687715, 688320, 688888, 689483, 690146, 690705, 691215]",76,OR,U,R,ITMSR,1.1
5,400,trial,0,29,29,29,trial,"['S', 'S', 'S', 'S', 'S', 'S', 'S', 'C', 'C', 'C', 'C', 'C', 'C', 'C', 'C', 'C', 'C', 'C', 'C', 'C', 'C', 'C', 'C', 'C']","[696848, 697326, 697773, 698152, 698526, 698893, 699318, 699758, 700140, 700557, 700926, 701345, 701719, 702113, 702500, 702875, 703320, 703690, 703790, 704121, 704473, 704864, 705262, 705646]","[697049, 697442, 697909, 698250, 698655, 699061, 699455, 699778, 700243, 700642, 701035, 701437, 701839, 702235, 702618, 703011, 703401, 703710, 703810, 704246, 704594, 704967, 705354, 705666]","[65, 161, 121, 84, 76, 87, 72, 115, 199, 116, 191, 192, 188, 135, 184, 142, 166, 64, 114, 232, 199, 192, 208, 90]","[696924, 697331, 697778, 698158, 698532, 698951, 699390, 699759, 700144, 700561, 700932, 701351, 701723, 702154, 702503, 702879, 703324, 703694, 703790, 704192, 704535, 704925, 705313, 705649]","[696556, 696956, 697356, 697756, 698157, 698557, 698957, 699357, 699778, 700161, 700577, 700946, 701365, 701740, 702133, 702520, 702895, 703340, 703710, 704141, 704493, 704884, 705282, 705666]",76,OR,U,R,ITMSR,1.1
4,400,trial,0,30,30,30,trial,"['B', 'S', 'S', 'S', 'S', 'S', 'S', 'S', 'S', 'C', 'C', 'C', 'C', 'C', 'C', 'C', 'C', 'C', 'C', 'C', 'C', 'C', 'C', 'C', 'C']","[717016, 717298, 717720, 718084, 718501, 718845, 719246, 719627, 720055, 720419, 720757, 721137, 721507, 721958, 722357, 722745, 723517, 723880, 724275, 724642, 724968, 725334, 725740, 726165, 726523]","[717071, 717399, 717824, 718158, 718585, 718968, 719358, 719720, 720148, 720527, 720866, 721245, 721527, 722034, 722420, 722765, 723664, 724022, 724429, 724755, 725140, 725496, 725901, 726302, 726686]","[34, 42, 127, 98, 83, 242, 93, 31, 2, 80, 26, 212, 90, 121, 102, 69, 54, 28, 27, 34, 184, 205, 109, 82, 63]","[717016, 717355, 717726, 718088, 718507, 718853, 719253, 719683, 720098, 720464, 720802, 721202, 721512, 721999, 722393, 722747, 723582, 723938, 724345, 724704, 725048, 725395, 725817, 726239, 726572]","[717028, 717428, 717828, 718228, 718628, 719028, 719428, 719828, 720439, 720777, 721157, 721527, 721978, 722377, 722765, 723537, 723900, 724295, 724662, 724988, 725354, 725761, 726185, 726543]",76,OR,U,R,ITMSR,1.1
2,400,trial,0,31,31,31,trial,"['B', 'S', 'S', 'S', 'S', 'S', 'S', 'S', 'S', 'C', 'C', 'C', 'C', 'C', 'C', 'C', 'C', 'C', 'C', 'C', 'C', 'C', 'C', 'C', 'C', 'C']","[731877, 732161, 732583, 732952, 733345, 733705, 734089, 734505, 734900, 735313, 735705, 736080, 736465, 736867, 737249, 737605, 737977, 738386, 738749, 739173, 739544, 739940, 740040, 740346, 740733, 741054]","[731897, 732290, 732655, 733048, 733433, 733851, 734212, 734632, 734992, 735443, 735843, 736217, 736599, 737019, 737382, 737741, 738115, 738499, 738889, 739334, 739694, 739960, 740074, 740366, 740816, 741172]","[47, 65, 252, 0, 192, 80, 37, 49, 0, 142, 171, 72, 45, 82, 33, 67, 62, 25, 63, 52, 8, 230, 187, 133, 177, 9]","[731877, 732221, 732612, 733023, 733409, 733784, 734162, 734577, 734928, 735396, 735775, 736161, 736551, 736964, 737340, 737697, 738053, 738456, 738829, 739272, 739642, 739946, 740055, 740350, 740771, 741116]","[731890, 732290, 732690, 733090, 733490, 733890, 734290, 734690, 735333, 735725, 736100, 736485, 736887, 737269, 737625, 737997, 738406, 738769, 739193, 739564, 739960, 740366, 740753, 741074]",76,OR,U,R,ITMSR,1.1
3,600,trial,0,32,32,32,trial,"['B', 'S', 'S', 'S', 'S', 'S', 'S', 'S', 'S', 'S', 'S', 'C', 'C', 'C', 'C', 'C', 'C', 'C', 'C', 'C', 'C', 'C', 'C', 'C', 'C', 'C', 'C', 'C', 'C', 'C', 'C', 'C', 'C']","[746802, 747153, 747817, 748409, 748509, 748994, 749559, 750186, 750286, 750821, 750921, 751422, 751522, 751920, 752020, 752519, 752998, 753572, 754168, 754268, 754732, 755291, 755391, 755833, 756403, 756985, 757561, 757661, 758134, 758708, 759287, 759387, 760430]","[746961, 747269, 747908, 748429, 748529, 749154, 749773, 750206, 750444, 750841, 750987, 751442, 751648, 751940, 752171, 752715, 753018, 753893, 754188, 754428, 754890, 755311, 755453, 756046, 756673, 757299, 757581, 757681, 758154, 758728, 759307, 759556, 760636]","[20, 127, 39, 229, 71, 148, 8, 194, 72, 212, 96, 6, 120, 14, 144, 196, 251, 8, 199, 144, 39, 199, 142, 8, 22, 241, 38, 85, 209, 213, 19, 148, 46]","[746942, 747157, 747824, 748416, 748509, 748999, 749563, 750189, 750413, 750827, 750921, 751428, 751525, 751925, 752020, 752525, 753004, 753577, 754172, 754270, 754736, 755296, 755448, 755838, 756408, 756990, 757566, 757661, 758136, 758711, 759291, 759414, 760435]","[746813, 747413, 748013, 748613, 749213, 749813, 750413, 751013, 751442, 751940, 752539, 753018, 753592, 754188, 754752, 755311, 755853, 756423, 757005, 757581, 758154, 758728, 759307, 760450]",76,OR,U,R,ITMSR,1.1
4,400,trial,0,33,33,33,trial,"['S', 'S', 'S', 'S', 'S', 'S', 'S', 'C', 'C', 'C', 'C', 'C', 'C', 'C', 'C', 'C', 'C', 'C', 'C', 'C', 'C', 'C', 'C', 'C', 'C', 'C', 'C']","[765976, 766543, 766910, 767399, 767784, 768173, 768575, 768950, 769316, 769699, 770064, 770472, 770888, 771265, 771644, 771744, 772046, 772412, 772829, 772929, 773198, 773541, 773900, 774302, 774402, 774710, 774810]","[766180, 766638, 767111, 767533, 767940, 768301, 768690, 769114, 769453, 769856, 770233, 770632, 771037, 771409, 771664, 771795, 772207, 772586, 772849, 772955, 773332, 773625, 774038, 774322, 774458, 774730, 774850]","[14, 8, 106, 94, 182, 2, 33, 154, 200, 46, 150, 151, 72, 66, 25, 31, 102, 18, 134, 203, 238, 123, 62, 245, 18, 244, 232]","[765980, 766548, 766916, 767406, 767791, 768179, 768581, 768955, 769323, 769703, 770069, 770479, 770894, 771270, 771649, 771744, 772051, 772418, 772833, 772929, 773203, 773547, 773905, 774308, 774402, 774716, 774814]","[765871, 766271, 766671, 767071, 767471, 767872, 768271, 768671, 768970, 769336, 769719, 770084, 770492, 770908, 771286, 771664, 772066, 772432, 772849, 773218, 773561, 773920, 774322, 774730]",76,OR,U,R,ITMSR,1.1
5,400,trial,0,34,34,34,trial,"['S', 'S', 'S', 'S', 'S', 'S', 'S', 'S', 'C', 'C', 'C', 'C', 'C', 'C', 'C', 'C', 'C', 'C', 'C', 'C', 'C', 'C', 'C', 'C', 'C']","[780369, 780694, 781146, 781503, 781871, 782286, 782700, 783075, 783480, 783889, 784293, 784677, 785073, 785496, 785839, 786244, 786345, 786629, 787021, 787398, 787809, 788192, 788577, 789036, 789410]","[780516, 780841, 781273, 781668, 782010, 782427, 782818, 783217, 783630, 784050, 784468, 784852, 785231, 785624, 786023, 786264, 786390, 786794, 787187, 787549, 787955, 788313, 788734, 789138, 789561]","[219, 134, 72, 150, 24, 82, 212, 115, 161, 179, 164, 75, 63, 239, 14, 106, 24, 143, 147, 191, 213, 224, 75, 100, 95]","[780372, 780760, 781152, 781507, 781876, 782292, 782705, 783081, 783485, 783894, 784297, 784684, 785078, 785502, 785844, 786250, 786351, 786635, 787026, 787403, 787815, 788199, 788581, 789041, 789416]","[780345, 780745, 781145, 781545, 781945, 782345, 782745, 783145, 783500, 783909, 784313, 784697, 785093, 785516, 785859, 786264, 786649, 787041, 787418, 787829, 788212, 788597, 789056, 789430]",76,OR,U,R,ITMSR,1.1
3,600,trial,0,35,35,35,trial,"['B', 'S', 'S', 'S', 'S', 'S', 'S', 'S', 'C', 'C', 'C', 'C', 'C', 'C', 'C', 'C', 'C', 'C', 'C', 'C', 'C', 'C', 'C', 'C', 'C', 'C']","[794959, 795333, 795949, 796563, 797109, 797649, 798284, 798889, 799557, 800022, 800547, 801110, 801690, 802200, 802732, 803261, 803808, 804371, 804471, 804960, 805543, 806112, 806678, 807207, 807307, 807755]","[795218, 795452, 796062, 796708, 797206, 797782, 798612, 799064, 799653, 800121, 800590, 801219, 801783, 802372, 802953, 803381, 803910, 804391, 804493, 805051, 805712, 806263, 806810, 807227, 807342, 807873]","[111, 12, 241, 169, 147, 195, 169, 117, 176, 183, 239, 16, 133, 65, 197, 88, 165, 76, 90, 68, 190, 136, 71, 20, 43, 243]","[795035, 795381, 795954, 796569, 797115, 797654, 798289, 798895, 799562, 800028, 800553, 801114, 801695, 802204, 802736, 803266, 803813, 804377, 804471, 804966, 805548, 806118, 806684, 807213, 807307, 807761]","[794971, 795570, 796170, 796770, 797370, 797970, 798570, 799170, 799577, 800043, 800567, 801130, 801710, 802221, 802752, 803281, 803828, 804391, 804980, 805563, 806132, 806699, 807227, 807775]",76,OR,U,R,ITMSR,1.1
0,600,trial,0,36,36,36,trial,"['B', 'S', 'S', 'S', 'S', 'S', 'S', 'S', 'C', 'C', 'C', 'C', 'C', 'C', 'C', 'C', 'C', 'C', 'C', 'C', 'C', 'C', 'C', 'C']","[813222, 813568, 814172, 814782, 815396, 815969, 816603, 817191, 817738, 818304, 818841, 819380, 819984, 820585, 821166, 821765, 822312, 822962, 823541, 824065, 824634, 825203, 825804, 826380]","[813272, 813767, 814326, 814932, 815514, 816106, 816736, 817271, 817837, 818439, 818980, 819486, 820076, 820696, 821285, 821863, 822451, 823080, 823683, 824221, 824740, 825299, 825933, 826400]","[229, 98, 189, 192, 144, 207, 228, 69, 104, 12, 186, 48, 118, 153, 223, 33, 94, 212, 67, 88, 4, 2, 94, 18]","[813222, 813573, 814177, 814787, 815400, 815974, 816662, 817197, 817744, 818311, 818846, 819386, 819990, 820589, 821172, 821772, 822318, 822967, 823546, 824070, 824640, 825209, 825810, 826386]","[813235, 813835, 814435, 815035, 815635, 816235, 816835, 817435, 817758, 818324, 818861, 819400, 820004, 820605, 821186, 821785, 822332, 822982, 823561, 824085, 824654, 825223, 825824, 826400]",76,OR,U,R,ITMSR,1.1
2,600,trial,0,37,37,37,trial,"['S', 'S', 'S', 'S', 'S', 'S', 'S', 'S', 'C', 'C', 'C', 'C', 'C', 'C', 'C', 'C', 'C', 'C', 'C', 'C', 'C', 'C', 'C', 'C', 'C', 'C', 'C', 'C', 'C', 'C', 'C']","[831915, 832711, 833374, 833980, 834580, 834680, 835145, 835773, 836292, 836820, 837364, 837464, 837954, 838056, 838516, 839085, 839591, 839691, 840193, 840293, 840762, 840862, 841333, 841903, 842472, 843042, 843599, 843699, 844184, 844286, 844733]","[832063, 832835, 833442, 834108, 834600, 834717, 835298, 835957, 836504, 836978, 837384, 837528, 837975, 838105, 838676, 839236, 839611, 839767, 840213, 840328, 840782, 840912, 841497, 842063, 842639, 843216, 843619, 843761, 844205, 844323, 844894]","[173, 243, 65, 169, 196, 61, 190, 126, 0, 223, 8, 207, 31, 113, 32, 201, 252, 137, 45, 92, 37, 117, 16, 128, 164, 69, 122, 14, 96, 11, 145]","[831919, 832716, 833380, 833985, 834585, 834680, 835151, 835779, 836398, 836827, 837370, 837466, 837960, 838057, 838521, 839091, 839599, 839701, 840199, 840293, 840767, 840862, 841340, 841976, 842477, 843048, 843606, 843713, 844191, 844288, 844739]","[831793, 832393, 832993, 833593, 834193, 834793, 835393, 835993, 836312, 836840, 837384, 837975, 838536, 839105, 839611, 840213, 840782, 841353, 841923, 842492, 843062, 843619, 844205, 844753]",76,OR,U,R,ITMSR,1.1
3,400,trial,0,38,38,38,trial,"['S', 'S', 'S', 'S', 'S', 'S', 'S', 'S', 'S', 'C', 'C', 'C', 'C', 'C', 'C', 'C', 'C', 'C', 'C', 'C', 'C', 'C', 'C', 'C', 'C', 'C', 'C', 'C', 'C', 'C', 'C']","[850762, 851178, 851594, 851957, 852365, 852466, 852742, 852842, 853242, 853566, 853915, 854017, 854303, 854403, 854688, 855074, 855411, 855511, 855805, 855905, 856180, 856280, 856531, 856631, 856906, 857280, 857695, 858075, 858440, 858807, 859164]","[850885, 851286, 851723, 852115, 852385, 852501, 852762, 852867, 853262, 853670, 853935, 854037, 854323, 854433, 854708, 855197, 855431, 855560, 855825, 855940, 856200, 856306, 856551, 856670, 857035, 857428, 857795, 858204, 858566, 858940, 859304]","[27, 29, 255, 7, 69, 162, 103, 113, 166, 53, 181, 180, 132, 207, 127, 220, 172, 111, 177, 59, 95, 24, 96, 43, 82, 236, 97, 114, 96, 138, 101]","[850767, 851180, 851598, 852030, 852371, 852466, 852747, 852842, 853249, 853572, 853919, 854018, 854309, 854403, 854694, 855080, 855415, 855514, 855810, 855905, 856186, 856280, 856538, 856631, 856912, 857287, 857701, 858082, 858519, 858814, 859170]","[850430, 850830, 851230, 851630, 852030, 852430, 852830, 853230, 853586, 853935, 854323, 854708, 855094, 855431, 855825, 856200, 856551, 856926, 857300, 857715, 858095, 858460, 858827, 859184]",76,OR,U,R,ITMSR,1.1
1,600,trial,0,39,39,39,trial,"['S', 'S', 'S', 'S', 'S', 'S', 'S', 'S', 'C', 'C', 'C', 'C', 'C', 'C', 'C', 'C', 'C', 'C', 'C', 'C', 'C', 'C', 'C', 'C', 'C', 'C']","[865105, 865780, 866426, 866526, 866958, 867530, 868191, 868830, 869384, 869936, 870476, 871038, 871624, 872184, 872788, 873351, 874018, 874573, 875028, 875549, 875649, 876198, 876298, 876840, 877436, 877949]","[865243, 865948, 866446, 866597, 867155, 867738, 868337, 868967, 869544, 870090, 870643, 871200, 871779, 872316, 872896, 873488, 874147, 874721, 875189, 875569, 875710, 876218, 876362, 876960, 877600, 878099]","[196, 237, 108, 133, 119, 232, 180, 142, 28, 31, 147, 119, 69, 186, 65, 92, 92, 243, 246, 4, 126, 232, 69, 10, 77, 180]","[865111, 865784, 866433, 866572, 866963, 867535, 868197, 868836, 869390, 870020, 870481, 871045, 871630, 872190, 872794, 873356, 874024, 874578, 875035, 875554, 875656, 876204, 876304, 876847, 877535, 877956]","[864857, 865457, 866057, 866657, 867257, 867857, 868457, 869057, 869404, 869956, 870496, 871058, 871644, 872204, 872808, 873371, 874038, 874593, 875048, 875569, 876218, 876860, 877456, 877969]",76,OR,U,R,ITMSR,1.1
0,400,trial,0,40,40,40,trial,"['B', 'S', 'S', 'S', 'S', 'S', 'S', 'S', 'C', 'C', 'C', 'C', 'C', 'C', 'C', 'C', 'C', 'C', 'C', 'C', 'C', 'C', 'C', 'C', 'C', 'C', 'C']","[883288, 883718, 884109, 884466, 884938, 885276, 885639, 886028, 886432, 886823, 886923, 887248, 887593, 887974, 888366, 888740, 889134, 889569, 889936, 890291, 890678, 891080, 891464, 891868, 891968, 892242, 892342]","[883446, 883887, 884231, 884628, 885071, 885379, 885763, 886179, 886572, 886843, 886968, 887268, 887753, 888141, 888492, 888882, 889154, 889689, 890057, 890400, 890801, 891164, 891484, 891888, 891988, 892262, 892363]","[233, 246, 5, 239, 12, 198, 24, 22, 2, 245, 251, 71, 252, 220, 214, 159, 174, 150, 205, 107, 213, 147, 172, 139, 94, 140, 255]","[883363, 883796, 884115, 884472, 884944, 885281, 885645, 886034, 886439, 886829, 886932, 887254, 887599, 887981, 888371, 888747, 889139, 889575, 889942, 890298, 890684, 891086, 891469, 891873, 891968, 892248, 892342]","[883300, 883700, 884100, 884500, 884900, 885300, 885700, 886100, 886452, 886843, 887268, 887613, 887994, 888386, 888760, 889154, 889589, 889956, 890311, 890698, 891100, 891484, 891888, 892262]",76,OR,U,R,ITMSR,1.1
5,600,trial,0,41,41,41,trial,"['S', 'S', 'S', 'S', 'S', 'S', 'S', 'S', 'C', 'C', 'C', 'C', 'C', 'C', 'C', 'C', 'C', 'C', 'C', 'C', 'C', 'C', 'C', 'C', 'C', 'C', 'C']","[898084, 898712, 898812, 899341, 899945, 900524, 901096, 901753, 902325, 902808, 903350, 903450, 903926, 904026, 904421, 904521, 905023, 905567, 906145, 906673, 907254, 907785, 908338, 908941, 909481, 910025, 910593]","[898212, 898732, 898893, 899521, 900098, 900647, 901277, 901888, 902486, 902964, 903370, 903494, 903946, 904066, 904441, 904589, 905172, 905710, 906275, 906822, 907390, 907922, 908488, 909054, 909614, 910177, 910709]","[128, 216, 152, 117, 103, 100, 117, 214, 132, 54, 166, 43, 51, 115, 188, 103, 70, 161, 114, 153, 246, 95, 84, 30, 38, 122, 43]","[898127, 898717, 898812, 899344, 899950, 900529, 901101, 901760, 902330, 902813, 903356, 903459, 903932, 904026, 904428, 904523, 905029, 905573, 906151, 906679, 907323, 907865, 908406, 909021, 909560, 910099, 910649]","[897778, 898378, 898978, 899578, 900178, 900779, 901378, 901978, 902345, 902829, 903370, 903946, 904441, 905043, 905587, 906165, 906693, 907274, 907805, 908358, 908961, 909501, 910045, 910613]",76,OR,U,R,ITMSR,1.1
1,400,trial,0,42,42,42,trial,"['B', 'S', 'S', 'S', 'S', 'S', 'S', 'S', 'S', 'C', 'C', 'C', 'C', 'C', 'C', 'C', 'C', 'C', 'C', 'C', 'C', 'C', 'C', 'C', 'C']","[915936, 916307, 916688, 917074, 917460, 917906, 918006, 918300, 918671, 919044, 919411, 919786, 920216, 920561, 920939, 921310, 921700, 922099, 922475, 922857, 923223, 923606, 924011, 924382, 924746]","[916011, 916465, 916849, 917222, 917583, 917926, 918057, 918425, 918805, 919205, 919559, 919942, 920339, 920713, 921093, 921456, 921811, 922231, 922585, 922955, 923336, 923708, 924127, 924494, 924858]","[37, 240, 166, 34, 242, 131, 21, 142, 41, 58, 212, 197, 224, 145, 193, 143, 228, 18, 214, 32, 90, 226, 68, 45, 72]","[915936, 916388, 916695, 917082, 917524, 917913, 918006, 918306, 918678, 919051, 919418, 919792, 920282, 920643, 921014, 921317, 921706, 922105, 922479, 922863, 923230, 923612, 924017, 924388, 924752]","[915947, 916347, 916747, 917147, 917548, 917947, 918347, 918747, 919064, 919431, 919806, 920237, 920581, 920960, 921330, 921720, 922119, 922496, 922877, 923243, 923626, 924032, 924402, 924766]",76,OR,U,R,ITMSR,1.1
0,400,trial,0,43,43,43,trial,"['S', 'S', 'S', 'S', 'S', 'S', 'S', 'C', 'C', 'C', 'C', 'C', 'C', 'C', 'C', 'C', 'C', 'C', 'C', 'C', 'C', 'C', 'C']","[930326, 930867, 931291, 931708, 932097, 932487, 932866, 933249, 933596, 934001, 934354, 934732, 935204, 935577, 935914, 936315, 936701, 937136, 937497, 939014, 939361, 939737, 940090]","[930495, 930984, 931449, 931848, 932234, 932632, 933006, 933392, 933736, 934121, 934461, 934848, 935269, 935650, 936005, 936335, 936721, 937192, 937517, 939134, 939490, 939864, 940205]","[103, 153, 52, 242, 56, 106, 63, 140, 188, 73, 196, 53, 230, 166, 221, 229, 176, 75, 154, 221, 248, 207, 102]","[930399, 930873, 931296, 931716, 932104, 932493, 932871, 933254, 933602, 934008, 934362, 934790, 935211, 935581, 935967, 936318, 936705, 937168, 937500, 939085, 939423, 939742, 940160]","[930193, 930593, 930993, 931393, 931793, 932193, 932593, 932994, 933269, 933616, 934021, 934374, 934752, 935224, 935597, 935934, 936335, 936721, 937156, 937517, 939034, 939381, 939757, 940110]",76,OR,U,R,ITMSR,1.1
2,600,trial,0,44,44,44,trial,"['S', 'S', 'S', 'S', 'S', 'S', 'S', 'C', 'C', 'C', 'C', 'C', 'C', 'C', 'C', 'C', 'C', 'C', 'C', 'C', 'C', 'C', 'C']","[945782, 946483, 947112, 947745, 948412, 948914, 949553, 950119, 950631, 951224, 951784, 952398, 952938, 953550, 954116, 954704, 955341, 955994, 956559, 957139, 957760, 958339, 958904]","[945922, 946562, 947222, 947840, 948432, 949007, 949650, 950224, 950742, 951296, 951856, 952495, 953038, 953570, 954218, 954809, 955361, 956014, 956683, 957268, 957887, 958434, 959002]","[168, 119, 111, 112, 224, 234, 251, 26, 183, 223, 245, 33, 114, 121, 24, 15, 180, 72, 103, 35, 0, 111, 204]","[945787, 946488, 947120, 947752, 948416, 948919, 949602, 950125, 950636, 951230, 951791, 952406, 952945, 953555, 954162, 954743, 955346, 955996, 956632, 957204, 957829, 958346, 958941]","[945500, 946100, 946700, 947300, 947900, 948500, 949100, 949700, 950139, 950651, 951244, 951804, 952418, 952958, 953570, 954136, 954724, 955361, 956014, 956579, 957159, 957780, 958359, 958924]",76,OR,U,R,ITMSR,1.1
0,600,trial,0,45,45,45,trial,"['B', 'S', 'S', 'S', 'S', 'S', 'S', 'S', 'S', 'S', 'S', 'S', 'C', 'C', 'C', 'C', 'C', 'C', 'C', 'C', 'C', 'C', 'C', 'C', 'C', 'C', 'C', 'C', 'C', 'C', 'C', 'C', 'C', 'C', 'C', 'C']","[964497, 964901, 965599, 966202, 966302, 966839, 966939, 967373, 967990, 968090, 968624, 968724, 969359, 969803, 969903, 970358, 970458, 970948, 971622, 972081, 972181, 972603, 972703, 973181, 973767, 974297, 974397, 974904, 975004, 975516, 975616, 976088, 976188, 977234, 977719, 978299]","[964644, 965051, 965619, 966222, 966386, 966859, 966988, 967607, 968010, 968215, 968644, 968765, 969379, 969823, 969979, 970378, 970507, 971074, 971642, 972101, 972328, 972623, 972804, 973201, 973787, 974317, 974439, 974924, 975051, 975536, 975652, 976108, 976233, 977356, 977901, 978445]","[7, 156, 255, 228, 26, 74, 73, 135, 188, 108, 76, 95, 24, 84, 101, 83, 82, 87, 5, 138, 124, 115, 86, 76, 4, 242, 226, 102, 116, 166, 187, 116, 173, 175, 171, 144]","[964520, 964907, 965605, 966207, 966302, 966847, 966940, 967379, 967995, 968138, 968628, 968725, 969361, 969810, 969905, 970361, 970458, 971033, 971622, 972086, 972212, 972607, 972708, 973186, 973767, 974301, 974397, 974909, 975004, 975523, 975616, 976093, 976198, 977299, 977724, 978305]","[964510, 965110, 965710, 966310, 966910, 967511, 968110, 968710, 969379, 969823, 970378, 970968, 971642, 972101, 972623, 973201, 973787, 974317, 974924, 975536, 976108, 977254, 977739, 978319]",76,OR,U,R,ITMSR,1.1
1,400,trial,0,46,46,46,trial,"['S', 'S', 'S', 'S', 'S', 'S', 'S', 'C', 'C', 'C', 'C', 'C', 'C', 'C', 'C', 'C', 'C', 'C', 'C', 'C', 'C', 'C', 'C', 'C']","[984428, 984870, 985280, 985643, 986022, 986426, 986832, 987224, 987589, 987976, 988350, 988721, 989163, 989604, 990001, 990367, 990467, 990749, 991128, 991512, 991891, 992300, 992622, 993007]","[984621, 985064, 985428, 985805, 986189, 986602, 986963, 987390, 987770, 988114, 988452, 988827, 989267, 989624, 990115, 990387, 990487, 990869, 991266, 991617, 992023, 992406, 992776, 993167]","[3, 66, 212, 125, 72, 6, 147, 191, 46, 138, 95, 63, 219, 166, 13, 136, 183, 97, 46, 236, 198, 229, 46, 72]","[984432, 984956, 985360, 985649, 986108, 986432, 986902, 987309, 987687, 988047, 988413, 988728, 989168, 989609, 990008, 990371, 990469, 990755, 991133, 991518, 991897, 992356, 992716, 993011]","[984092, 984493, 984893, 985293, 985693, 986093, 986493, 986893, 987244, 987609, 987996, 988370, 988741, 989184, 989624, 990021, 990387, 990769, 991149, 991533, 991911, 992320, 992642, 993027]",76,OR,U,R,ITMSR,1.1
5,600,trial,0,47,47,47,trial,"['S', 'S', 'S', 'S', 'S', 'S', 'S', 'S', 'S', 'S', 'S', 'C', 'C', 'C', 'C', 'C', 'C', 'C', 'C', 'C', 'C', 'C', 'C', 'C', 'C', 'C', 'C', 'C', 'C', 'C', 'C', 'C', 'C', 'C', 'C', 'C', 'C', 'C', 'C', 'C']","[998992, 999650, 1000241, 1000341, 1000886, 1001433, 1001533, 1002058, 1002158, 1002638, 1002773, 1003231, 1003331, 1003707, 1003807, 1004238, 1004338, 1004775, 1004875, 1005340, 1005440, 1005899, 1005999, 1006450, 1006552, 1006974, 1007074, 1007547, 1007647, 1008096, 1008677, 1009192, 1009830, 1009930, 1010400, 1010500, 1010963, 1011063, 1011519, 1011619]","[999168, 999670, 1000261, 1000547, 1000906, 1001453, 1001771, 1002078, 1002194, 1002658, 1002844, 1003251, 1003422, 1003727, 1003896, 1004258, 1004395, 1004795, 1004961, 1005360, 1005462, 1005919, 1006071, 1006470, 1006572, 1006994, 1007151, 1007567, 1007667, 1008291, 1008889, 1009406, 1009850, 1009986, 1010420, 1010573, 1010983, 1011121, 1011539, 1011656]","[193, 97, 20, 3, 140, 19, 234, 36, 82, 36, 64, 221, 178, 52, 95, 228, 106, 29, 174, 58, 23, 4, 85, 20, 58, 14, 86, 111, 80, 26, 183, 69, 106, 105, 102, 103, 84, 102, 110, 111]","[998996, 999653, 1000246, 1000341, 1000890, 1001438, 1001536, 1002063, 1002158, 1002642, 1002777, 1003236, 1003334, 1003711, 1003807, 1004242, 1004348, 1004780, 1004879, 1005343, 1005442, 1005899, 1006004, 1006450, 1006553, 1006974, 1007076, 1007552, 1007650, 1008242, 1008837, 1009341, 1009835, 1009934, 1010404, 1010500, 1010969, 1011068, 1011522, 1011621]","[998630, 999230, 999830, 1000430, 1001030, 1001630, 1002230, 1002830, 1003251, 1003727, 1004258, 1004795, 1005360, 1005919, 1006470, 1006994, 1007567, 1008116, 1008697, 1009212, 1009850, 1010420, 1010983, 1011539]",76,OR,U,R,ITMSR,1.1
2,400,trial,0,48,48,48,trial,"['S', 'S', 'S', 'S', 'S', 'S', 'S', 'S', 'S', 'C', 'C', 'C', 'C', 'C', 'C', 'C', 'C', 'C', 'C', 'C', 'C', 'C', 'C', 'C', 'C', 'C', 'C', 'C', 'C', 'C', 'C', 'C', 'C', 'C']","[1017185, 1017286, 1017686, 1018078, 1018470, 1018894, 1019294, 1019394, 1019692, 1020115, 1020215, 1020477, 1020577, 1020877, 1020977, 1021227, 1021327, 1021626, 1021726, 1022047, 1022418, 1022793, 1022893, 1023176, 1023276, 1023578, 1023678, 1023991, 1024379, 1024791, 1025200, 1025300, 1025605, 1026017]","[1017205, 1017309, 1017822, 1018210, 1018630, 1019045, 1019314, 1019419, 1019819, 1020135, 1020235, 1020497, 1020597, 1020897, 1020997, 1021247, 1021349, 1021646, 1021746, 1022067, 1022438, 1022813, 1022913, 1023196, 1023301, 1023598, 1023707, 1024136, 1024532, 1024946, 1025220, 1025320, 1025625, 1026037]","[157, 170, 35, 81, 14, 217, 77, 177, 86, 29, 171, 149, 73, 166, 101, 3, 217, 17, 88, 84, 82, 1, 139, 182, 220, 6, 211, 66, 89, 69, 251, 136, 169, 154]","[1017191, 1017286, 1017692, 1018148, 1018477, 1018899, 1019298, 1019395, 1019696, 1020120, 1020215, 1020481, 1020577, 1020881, 1020977, 1021231, 1021327, 1021630, 1021726, 1022053, 1022422, 1022798, 1022893, 1023183, 1023276, 1023583, 1023681, 1024078, 1024489, 1024910, 1025206, 1025300, 1025609, 1026021]","[1017030, 1017431, 1017830, 1018230, 1018630, 1019030, 1019430, 1019830, 1020135, 1020497, 1020897, 1021247, 1021646, 1022067, 1022438, 1022813, 1023196, 1023598, 1024011, 1024399, 1024812, 1025220, 1025625, 1026037]",76,OR,U,R,ITMSR,1.1
1,600,trial,0,49,49,49,trial,"['S', 'S', 'S', 'S', 'S', 'S', 'S', 'S', 'S', 'S', 'S', 'C', 'C', 'C', 'C', 'C', 'C', 'C', 'C', 'C', 'C', 'C', 'C', 'C', 'C', 'C', 'C', 'C', 'C', 'C', 'C', 'C', 'C', 'C', 'C', 'C']","[1031968, 1032690, 1032790, 1033235, 1033853, 1033953, 1034458, 1034558, 1035010, 1035596, 1036153, 1036689, 1037177, 1037277, 1037699, 1037799, 1038244, 1038789, 1039427, 1039905, 1040005, 1040421, 1040521, 1040948, 1041460, 1041560, 1042053, 1042153, 1042610, 1042710, 1043086, 1043186, 1043657, 1044313, 1044413, 1044891]","[1032107, 1032710, 1032839, 1033416, 1033873, 1033985, 1034478, 1034579, 1035203, 1035760, 1036299, 1036809, 1037197, 1037337, 1037719, 1037843, 1038264, 1038809, 1039448, 1039925, 1040037, 1040441, 1040543, 1040968, 1041480, 1041581, 1042073, 1042173, 1042630, 1042764, 1043106, 1043251, 1043677, 1044333, 1044450, 1045024]","[75, 145, 205, 205, 116, 192, 79, 161, 134, 216, 37, 11, 243, 78, 203, 67, 129, 112, 65, 242, 198, 236, 171, 178, 209, 132, 74, 144, 240, 226, 81, 79, 140, 12, 36, 62]","[1031973, 1032694, 1032790, 1033239, 1033859, 1033953, 1034463, 1034558, 1035014, 1035600, 1036157, 1036693, 1037181, 1037277, 1037704, 1037802, 1038248, 1038792, 1039433, 1039909, 1040005, 1040425, 1040527, 1040951, 1041465, 1041560, 1042056, 1042153, 1042614, 1042713, 1043090, 1043186, 1043661, 1044317, 1044413, 1044894]","[1031718, 1032318, 1032919, 1033518, 1034118, 1034718, 1035318, 1035918, 1036709, 1037197, 1037719, 1038264, 1038809, 1039448, 1039925, 1040441, 1040968, 1041480, 1042073, 1042630, 1043106, 1043677, 1044333, 1044911]",76,OR,U,R,ITMSR,1.1
4,600,trial,0,50,50,50,trial,"['S', 'S', 'S', 'S', 'S', 'S', 'S', 'S', 'S', 'S', 'S', 'C', 'C', 'C', 'C', 'C', 'C', 'C', 'C', 'C', 'C', 'C', 'C', 'C', 'C', 'C', 'C', 'C', 'C', 'C', 'C', 'C', 'C', 'C']","[1050642, 1051301, 1051401, 1051874, 1051974, 1053101, 1053201, 1053709, 1053809, 1054275, 1054375, 1054885, 1054985, 1055860, 1056395, 1056495, 1056952, 1057052, 1057561, 1058101, 1058201, 1058709, 1058809, 1059297, 1059847, 1060464, 1061067, 1061591, 1062211, 1062755, 1062855, 1063298, 1064568, 1064668]","[1050748, 1051321, 1051454, 1051894, 1052036, 1053121, 1053221, 1053729, 1053882, 1054295, 1054540, 1054905, 1055005, 1056033, 1056415, 1056560, 1056972, 1057101, 1057694, 1058121, 1058221, 1058729, 1058832, 1059443, 1060012, 1060622, 1061223, 1061791, 1062365, 1062775, 1062875, 1063416, 1064588, 1064734]","[71, 20, 246, 58, 126, 163, 22, 198, 206, 76, 78, 177, 76, 129, 56, 34, 32, 93, 157, 135, 126, 106, 168, 161, 173, 214, 34, 7, 50, 111, 142, 6, 0, 186]","[1050648, 1051307, 1051401, 1051878, 1051974, 1053103, 1053201, 1053715, 1053809, 1054279, 1054375, 1054891, 1054985, 1055867, 1056401, 1056495, 1056956, 1057052, 1057566, 1058106, 1058201, 1058713, 1058809, 1059303, 1059938, 1060467, 1061073, 1061597, 1062216, 1062759, 1062855, 1063302, 1064573, 1064668]","[1050303, 1050903, 1051503, 1052103, 1052703, 1053303, 1053903, 1054503, 1054905, 1055880, 1056415, 1056972, 1057581, 1058121, 1058729, 1059317, 1059867, 1060484, 1061087, 1061611, 1062232, 1062775, 1063318, 1064588]",76,OR,U,R,ITMSR,1.1
3,400,trial,0,51,51,51,trial,"['B', 'S', 'S', 'S', 'S', 'S', 'S', 'S', 'C', 'C', 'C', 'C', 'C', 'C', 'C', 'C', 'C', 'C', 'C', 'C', 'C', 'C', 'C', 'C', 'C']","[1070333, 1070809, 1071154, 1071456, 1071890, 1072278, 1072672, 1073051, 1073452, 1073801, 1074186, 1074564, 1074933, 1075304, 1075647, 1076060, 1076477, 1076884, 1077245, 1077665, 1078016, 1078116, 1078404, 1078796, 1079189]","[1070606, 1070941, 1071245, 1071592, 1072054, 1072417, 1072781, 1073173, 1073582, 1073939, 1074290, 1074647, 1075048, 1075404, 1075775, 1076194, 1076592, 1077011, 1077391, 1077760, 1078036, 1078136, 1078500, 1078901, 1079282]","[27, 9, 152, 96, 186, 126, 16, 194, 78, 249, 240, 85, 193, 50, 53, 107, 101, 231, 216, 243, 224, 75, 170, 204, 65]","[1070346, 1070813, 1071158, 1071462, 1071895, 1072283, 1072678, 1073057, 1073459, 1073807, 1074192, 1074572, 1074940, 1075307, 1075652, 1076066, 1076484, 1076891, 1077252, 1077671, 1078025, 1078116, 1078409, 1078865, 1079197]","[1070345, 1070745, 1071145, 1071545, 1071945, 1072345, 1072745, 1073145, 1073472, 1073821, 1074206, 1074584, 1074953, 1075324, 1075667, 1076080, 1076497, 1076904, 1077265, 1077685, 1078036, 1078424, 1078816, 1079209]",76,OR,U,R,ITMSR,1.1
5,400,trial,0,52,52,52,trial,"['S', 'S', 'S', 'S', 'S', 'S', 'S', 'S', 'S', 'S', 'S', 'C', 'C', 'C', 'C', 'C', 'C', 'C', 'C', 'C', 'C', 'C', 'C', 'C', 'C', 'C', 'C', 'C', 'C', 'C', 'C', 'C', 'C', 'C', 'C', 'C', 'C', 'C', 'C', 'C', 'C', 'C']","[1085048, 1085444, 1085844, 1085944, 1086249, 1086349, 1086643, 1086743, 1087033, 1087438, 1087538, 1087815, 1087915, 1088171, 1088271, 1088567, 1088933, 1089033, 1089330, 1089430, 1089739, 1089839, 1090166, 1090266, 1090531, 1090631, 1090934, 1091034, 1091314, 1091414, 1091702, 1091802, 1092115, 1092215, 1092531, 1092631, 1092901, 1093001, 1093303, 1093403, 1093693, 1093793]","[1085166, 1085601, 1085864, 1085983, 1086269, 1086409, 1086663, 1086810, 1087222, 1087458, 1087594, 1087835, 1087935, 1088191, 1088319, 1088659, 1088953, 1089087, 1089350, 1089482, 1089759, 1089888, 1090186, 1090286, 1090551, 1090694, 1090954, 1091059, 1091334, 1091434, 1091722, 1091850, 1092135, 1092241, 1092551, 1092661, 1092921, 1093055, 1093323, 1093452, 1093713, 1093836]","[109, 57, 0, 113, 77, 101, 41, 20, 121, 241, 246, 53, 226, 114, 243, 73, 100, 10, 130, 172, 6, 201, 244, 146, 166, 166, 29, 218, 75, 171, 66, 219, 92, 151, 112, 139, 194, 147, 113, 66, 98, 220]","[1085052, 1085449, 1085850, 1085947, 1086255, 1086357, 1086648, 1086771, 1087039, 1087444, 1087556, 1087820, 1087915, 1088178, 1088277, 1088573, 1088940, 1089041, 1089334, 1089444, 1089743, 1089856, 1090171, 1090266, 1090536, 1090658, 1090940, 1091036, 1091319, 1091416, 1091707, 1091821, 1092117, 1092220, 1092535, 1092631, 1092907, 1093019, 1093310, 1093406, 1093698, 1093807]","[1084688, 1085088, 1085488, 1085888, 1086288, 1086688, 1087088, 1087489, 1087835, 1088191, 1088587, 1088953, 1089350, 1089759, 1090186, 1090551, 1090954, 1091334, 1091722, 1092135, 1092551, 1092921, 1093323, 1093713]",76,OR,U,R,ITMSR,1.1
4,600,trial,0,53,53,53,trial,"['B', 'S', 'S', 'S', 'S', 'S', 'S', 'S', 'S', 'S', 'S', 'S', 'S', 'S', 'C', 'C', 'C', 'C', 'C', 'C', 'C', 'C', 'C', 'C', 'C', 'C', 'C', 'C', 'C', 'C', 'C', 'C', 'C', 'C', 'C', 'C', 'C', 'C', 'C', 'C', 'C', 'C']","[1099282, 1099706, 1100411, 1100511, 1101036, 1101136, 1101646, 1101746, 1102239, 1102339, 1102732, 1102832, 1103386, 1103486, 1103967, 1104067, 1104455, 1104555, 1104992, 1105092, 1105587, 1105687, 1106105, 1106205, 1106689, 1106789, 1107247, 1107347, 1107815, 1107915, 1108366, 1108466, 1108985, 1109085, 1109486, 1109587, 1110118, 1110684, 1110784, 1111229, 1111777, 1112295]","[1099484, 1100129, 1100431, 1100706, 1101056, 1101302, 1101666, 1101932, 1102259, 1102436, 1102752, 1103042, 1103406, 1103654, 1103987, 1104174, 1104475, 1104655, 1105012, 1105156, 1105607, 1105717, 1106125, 1106295, 1106709, 1106854, 1107267, 1107443, 1107835, 1108007, 1108386, 1108561, 1109005, 1109211, 1109506, 1109704, 1110311, 1110704, 1110890, 1111405, 1111943, 1112553]","[93, 18, 15, 249, 238, 211, 39, 195, 55, 4, 120, 209, 2, 2, 28, 183, 35, 210, 159, 237, 157, 145, 91, 60, 145, 236, 161, 41, 183, 45, 89, 51, 149, 44, 228, 41, 84, 137, 55, 113, 62, 224]","[1099445, 1099713, 1100418, 1100650, 1101041, 1101143, 1101651, 1101861, 1102245, 1102403, 1102738, 1103003, 1103392, 1103612, 1103971, 1104134, 1104462, 1104598, 1104997, 1105124, 1105593, 1105687, 1106111, 1106215, 1106695, 1106810, 1107254, 1107393, 1107822, 1107956, 1108372, 1108518, 1108992, 1109165, 1109492, 1109629, 1110258, 1110690, 1110862, 1111235, 1111876, 1112302]","[1099295, 1099895, 1100495, 1101095, 1101696, 1102296, 1102896, 1103496, 1103987, 1104475, 1105012, 1105607, 1106125, 1106709, 1107267, 1107835, 1108386, 1109005, 1109506, 1110138, 1110704, 1111249, 1111797, 1112315]",76,OR,U,R,ITMSR,1.1
4,600,trial,0,54,54,54,trial,"['B', 'S', 'S', 'S', 'S', 'S', 'S', 'S', 'S', 'S', 'S', 'S', 'C', 'C', 'C', 'C', 'C', 'C', 'C', 'C', 'C', 'C', 'C', 'C', 'C', 'C', 'C', 'C', 'C', 'C', 'C', 'C', 'C', 'C', 'C', 'C', 'C']","[1120409, 1120751, 1121460, 1122093, 1122193, 1122693, 1123294, 1123394, 1123878, 1123978, 1124472, 1124572, 1125101, 1125203, 1125657, 1125758, 1126312, 1126910, 1127010, 1127429, 1127529, 1128047, 1128631, 1128731, 1129279, 1129379, 1129883, 1129985, 1130456, 1130556, 1131033, 1131693, 1132273, 1132805, 1133403, 1133981, 1134081]","[1120604, 1121005, 1121685, 1122113, 1122317, 1122941, 1123314, 1123564, 1123898, 1124172, 1124492, 1124762, 1125122, 1125310, 1125677, 1125869, 1126332, 1126930, 1127081, 1127449, 1127639, 1128254, 1128651, 1128824, 1129299, 1129492, 1129903, 1130064, 1130476, 1130658, 1131285, 1131895, 1132494, 1133100, 1133601, 1134001, 1134183]","[106, 181, 2, 65, 153, 21, 21, 11, 77, 79, 169, 55, 88, 44, 226, 247, 189, 106, 236, 100, 19, 151, 104, 236, 72, 246, 166, 145, 76, 11, 115, 246, 222, 219, 220, 238, 184]","[1120540, 1120756, 1121467, 1122099, 1122208, 1122702, 1123301, 1123433, 1123885, 1124126, 1124478, 1124694, 1125106, 1125264, 1125664, 1125822, 1126318, 1126918, 1127052, 1127435, 1127589, 1128055, 1128636, 1128798, 1129284, 1129454, 1129887, 1130006, 1130461, 1130616, 1131040, 1131701, 1132279, 1132810, 1133410, 1133988, 1134096]","[1120422, 1121021, 1121622, 1122221, 1122821, 1123421, 1124021, 1124621, 1125122, 1125677, 1126332, 1126930, 1127449, 1128067, 1128651, 1129299, 1129903, 1130476, 1131053, 1131713, 1132293, 1132825, 1133423, 1134001]",76,OR,U,R,ITMSR,1.1
2,400,trial,0,55,55,55,trial,"['B', 'S', 'S', 'S', 'S', 'S', 'S', 'S', 'S', 'S', 'C', 'C', 'C', 'C', 'C', 'C', 'C', 'C', 'C', 'C', 'C', 'C', 'C', 'C', 'C', 'C', 'C', 'C', 'C', 'C', 'C', 'C', 'C']","[1139749, 1139849, 1140296, 1140645, 1140936, 1141317, 1141417, 1141723, 1142081, 1142551, 1142983, 1143317, 1143773, 1143873, 1144186, 1144599, 1144701, 1144979, 1145423, 1145810, 1145910, 1146224, 1146664, 1147030, 1147132, 1147450, 1147841, 1147943, 1148235, 1148335, 1148655, 1149025, 1149125]","[1139769, 1139949, 1140425, 1140732, 1141076, 1141337, 1141446, 1141847, 1142263, 1142677, 1143067, 1143446, 1143793, 1143894, 1144329, 1144620, 1144728, 1145143, 1145548, 1145830, 1145932, 1146244, 1146684, 1147051, 1147160, 1147556, 1147862, 1147963, 1148255, 1148355, 1148771, 1149045, 1149148]","[16, 212, 176, 101, 211, 38, 140, 151, 248, 169, 173, 135, 32, 162, 32, 78, 210, 137, 204, 141, 224, 180, 137, 121, 36, 128, 206, 169, 204, 124, 53, 146, 223]","[1139749, 1139864, 1140303, 1140649, 1140943, 1141322, 1141417, 1141729, 1142088, 1142555, 1142988, 1143322, 1143779, 1143873, 1144195, 1144605, 1144701, 1144985, 1145426, 1145817, 1145910, 1146233, 1146671, 1147036, 1147133, 1147456, 1147848, 1147944, 1148241, 1148335, 1148661, 1149032, 1149125]","[1139763, 1140163, 1140563, 1140963, 1141363, 1141763, 1142163, 1142563, 1143003, 1143337, 1143793, 1144206, 1144620, 1144999, 1145443, 1145830, 1146244, 1146684, 1147051, 1147470, 1147862, 1148255, 1148675, 1149045]",76,OR,U,R,ITMSR,1.1
0,600,trial,0,56,56,56,trial,"['S', 'S', 'S', 'S', 'S', 'S', 'S', 'S', 'S', 'S', 'S', 'S', 'S', 'S', 'C', 'C', 'C', 'C', 'C', 'C', 'C', 'C', 'C', 'C', 'C', 'C', 'C', 'C', 'C', 'C', 'C', 'C', 'C', 'C', 'C', 'C', 'C', 'C', 'C', 'C']","[1154574, 1154916, 1155491, 1155591, 1156124, 1156224, 1156733, 1156833, 1157396, 1157496, 1157961, 1158061, 1158537, 1158637, 1159139, 1159639, 1159739, 1160172, 1160274, 1160704, 1160804, 1161344, 1161444, 1161972, 1162473, 1162573, 1163049, 1163149, 1163606, 1164155, 1164678, 1165241, 1165341, 1165749, 1165849, 1166339, 1166439, 1166922, 1167022, 1167457]","[1154679, 1155050, 1155511, 1155862, 1156144, 1156455, 1156753, 1157051, 1157416, 1157679, 1157981, 1158270, 1158557, 1158859, 1159358, 1159659, 1159888, 1160193, 1160356, 1160724, 1160864, 1161364, 1161484, 1161992, 1162493, 1162637, 1163069, 1163239, 1163829, 1164361, 1164852, 1165261, 1165445, 1165769, 1165964, 1166359, 1166592, 1166942, 1167171, 1167681]","[10, 193, 187, 211, 66, 98, 166, 121, 166, 79, 188, 138, 75, 73, 110, 144, 71, 87, 77, 100, 76, 152, 84, 151, 63, 19, 44, 85, 163, 195, 184, 49, 65, 255, 86, 213, 11, 22, 29, 87]","[1154580, 1154921, 1155496, 1155591, 1156129, 1156260, 1156737, 1156883, 1157400, 1157498, 1157965, 1158162, 1158543, 1158715, 1159144, 1159644, 1159838, 1160176, 1160276, 1160709, 1160823, 1161348, 1161447, 1161976, 1162479, 1162576, 1163055, 1163152, 1163612, 1164163, 1164683, 1165246, 1165393, 1165754, 1165872, 1166345, 1166555, 1166928, 1167111, 1167604]","[1154546, 1155145, 1155745, 1156345, 1156945, 1157545, 1158146, 1158746, 1159159, 1159659, 1160193, 1160724, 1161364, 1161992, 1162493, 1163069, 1163626, 1164175, 1164698, 1165261, 1165769, 1166359, 1166942, 1167477]",76,OR,U,R,ITMSR,1.1
5,600,trial,0,57,57,57,trial,"['S', 'S', 'S', 'S', 'S', 'S', 'S', 'S', 'S', 'S', 'S', 'S', 'S', 'S', 'C', 'C', 'C', 'C', 'C', 'C', 'C', 'C', 'C', 'C', 'C', 'C', 'C', 'C', 'C', 'C', 'C', 'C', 'C', 'C', 'C', 'C', 'C', 'C', 'C', 'C', 'C', 'C', 'C', 'C', 'C', 'C']","[1173444, 1173544, 1174153, 1174253, 1174795, 1174895, 1175425, 1175525, 1176041, 1176141, 1176664, 1176764, 1177231, 1177331, 1177826, 1177926, 1178409, 1178509, 1179008, 1179108, 1179582, 1179682, 1180193, 1180293, 1180759, 1180859, 1181334, 1181436, 1181968, 1182068, 1182531, 1182633, 1183110, 1183210, 1183719, 1183819, 1184223, 1184368, 1184804, 1184904, 1185373, 1185473, 1186021, 1186121, 1186571, 1186671]","[1173464, 1173704, 1174173, 1174494, 1174815, 1175099, 1175445, 1175675, 1176061, 1176297, 1176684, 1176929, 1177251, 1177498, 1177846, 1178061, 1178429, 1178613, 1179028, 1179207, 1179602, 1179826, 1180213, 1180400, 1180779, 1181006, 1181355, 1181576, 1181988, 1182109, 1182552, 1182787, 1183130, 1183323, 1183739, 1183906, 1184243, 1184422, 1184824, 1184995, 1185393, 1185558, 1186041, 1186267, 1186591, 1186789]","[91, 51, 178, 55, 174, 79, 160, 73, 134, 45, 180, 205, 4, 222, 58, 202, 59, 52, 48, 225, 34, 229, 252, 179, 28, 223, 233, 232, 123, 66, 76, 138, 188, 188, 246, 190, 119, 118, 171, 174, 188, 175, 239, 167, 9, 163]","[1173449, 1173588, 1174158, 1174346, 1174800, 1175068, 1175431, 1175638, 1176046, 1176266, 1176669, 1176919, 1177237, 1177421, 1177831, 1178042, 1178415, 1178577, 1179013, 1179182, 1179588, 1179784, 1180198, 1180377, 1180765, 1180975, 1181339, 1181545, 1181974, 1182080, 1182536, 1182725, 1183117, 1183285, 1183726, 1183880, 1184227, 1184407, 1184811, 1184969, 1185379, 1185536, 1186027, 1186220, 1186576, 1186736]","[1173131, 1173731, 1174331, 1174931, 1175531, 1176131, 1176731, 1177331, 1177846, 1178429, 1179028, 1179602, 1180213, 1180779, 1181355, 1181988, 1182552, 1183130, 1183739, 1184243, 1184824, 1185393, 1186041, 1186591]",76,OR,U,R,ITMSR,1.1
0,400,trial,0,58,58,58,trial,"['S', 'S', 'S', 'S', 'S', 'S', 'S', 'S', 'S', 'S', 'S', 'S', 'S', 'S', 'S', 'C', 'C', 'C', 'C', 'C', 'C', 'C', 'C', 'C', 'C', 'C', 'C', 'C', 'C', 'C', 'C', 'C', 'C', 'C', 'C', 'C', 'C', 'C', 'C', 'C', 'C', 'C', 'C', 'C', 'C', 'C']","[1192381, 1192814, 1192914, 1193199, 1193299, 1193566, 1193666, 1193939, 1194040, 1194364, 1194464, 1194756, 1194856, 1195167, 1195267, 1195600, 1195700, 1195973, 1196075, 1196400, 1196502, 1196821, 1196921, 1197218, 1197318, 1197620, 1197992, 1198092, 1198365, 1198465, 1198777, 1198877, 1199139, 1199239, 1199531, 1199631, 1199934, 1200034, 1200327, 1200427, 1200724, 1200824, 1201129, 1201229, 1201510, 1201610]","[1192536, 1192834, 1192970, 1193219, 1193319, 1193586, 1193704, 1193959, 1194095, 1194384, 1194521, 1194776, 1194891, 1195187, 1195332, 1195620, 1195720, 1195993, 1196119, 1196420, 1196551, 1196841, 1196941, 1197238, 1197356, 1197640, 1198012, 1198135, 1198385, 1198516, 1198797, 1198899, 1199159, 1199283, 1199551, 1199651, 1199954, 1200076, 1200347, 1200454, 1200744, 1200861, 1201149, 1201262, 1201530, 1201682]","[179, 121, 153, 84, 78, 114, 181, 146, 149, 114, 130, 93, 120, 104, 132, 117, 130, 171, 172, 160, 162, 214, 38, 189, 142, 208, 203, 164, 117, 173, 180, 138, 127, 141, 103, 112, 109, 114, 28, 117, 110, 132, 83, 158, 10, 105]","[1192389, 1192819, 1192914, 1193205, 1193299, 1193571, 1193666, 1193945, 1194042, 1194370, 1194472, 1194761, 1194875, 1195172, 1195291, 1195607, 1195700, 1195978, 1196083, 1196405, 1196502, 1196825, 1196921, 1197222, 1197318, 1197624, 1197998, 1198094, 1198370, 1198467, 1198782, 1198877, 1199144, 1199250, 1199535, 1199631, 1199940, 1200039, 1200332, 1200427, 1200731, 1200824, 1201135, 1201232, 1201515, 1201650]","[1192381, 1192781, 1193181, 1193581, 1193981, 1194381, 1194781, 1195181, 1195620, 1195993, 1196420, 1196841, 1197238, 1197640, 1198012, 1198385, 1198797, 1199159, 1199551, 1199954, 1200347, 1200744, 1201149, 1201530]",76,OR,U,R,ITMSR,1.1
3,600,trial,0,59,59,59,trial,"['S', 'S', 'S', 'S', 'S', 'S', 'S', 'S', 'S', 'S', 'C', 'C', 'C', 'C', 'C', 'C', 'C', 'C', 'C', 'C', 'C', 'C', 'C', 'C', 'C', 'C', 'C', 'C', 'C', 'C', 'C', 'C', 'C', 'C', 'C', 'C', 'C', 'C', 'C', 'C', 'C']","[1207502, 1207602, 1208255, 1208868, 1209472, 1210033, 1210714, 1210814, 1211365, 1211465, 1211985, 1212085, 1212580, 1213097, 1213197, 1213713, 1213813, 1214289, 1214389, 1214855, 1214955, 1215465, 1215565, 1216032, 1216132, 1216619, 1216721, 1217180, 1217280, 1217781, 1217881, 1218388, 1218488, 1218959, 1219059, 1219539, 1219639, 1220118, 1220220, 1220652, 1220752]","[1207522, 1207686, 1208471, 1209201, 1209793, 1210396, 1210734, 1211038, 1211385, 1211656, 1212005, 1212213, 1212804, 1213117, 1213336, 1213733, 1213932, 1214309, 1214485, 1214875, 1215085, 1215485, 1215721, 1216052, 1216326, 1216640, 1216823, 1217200, 1217500, 1217801, 1218017, 1218408, 1218637, 1218979, 1219195, 1219559, 1219699, 1220139, 1220354, 1220672, 1220861]","[158, 32, 215, 206, 0, 51, 189, 42, 198, 51, 187, 83, 87, 193, 83, 125, 61, 174, 62, 189, 74, 163, 45, 164, 59, 191, 58, 194, 51, 128, 152, 170, 52, 107, 47, 29, 105, 166, 89, 109, 119]","[1207506, 1207604, 1208260, 1208873, 1209478, 1210038, 1210719, 1210840, 1211369, 1211537, 1211991, 1212185, 1212587, 1213103, 1213278, 1213718, 1213836, 1214294, 1214453, 1214860, 1215031, 1215470, 1215617, 1216037, 1216199, 1216623, 1216783, 1217184, 1217384, 1217787, 1217918, 1218394, 1218490, 1218965, 1219059, 1219547, 1219649, 1220123, 1220317, 1220657, 1220828]","[1207327, 1207927, 1208527, 1209127, 1209728, 1210328, 1210928, 1211528, 1212005, 1212600, 1213117, 1213733, 1214309, 1214875, 1215485, 1216052, 1216640, 1217200, 1217801, 1218408, 1218979, 1219559, 1220139, 1220672]",76,OR,U,R,ITMSR,1.1
0,400,trial,0,60,60,60,trial,"['B', 'S', 'S', 'S', 'S', 'S', 'S', 'S', 'C', 'C', 'C', 'C', 'C', 'C', 'C', 'C', 'C', 'C', 'C', 'C', 'C', 'C', 'C', 'C', 'C', 'C', 'C', 'C']","[1226354, 1226720, 1227119, 1227514, 1227898, 1228295, 1228660, 1229061, 1229463, 1229832, 1230194, 1230608, 1230978, 1231362, 1231747, 1232099, 1232477, 1232884, 1232984, 1233278, 1233664, 1234018, 1234118, 1234393, 1234493, 1234774, 1235183, 1235284]","[1226520, 1226898, 1227291, 1227688, 1228072, 1228448, 1228840, 1229194, 1229592, 1229993, 1230370, 1230699, 1231150, 1231534, 1231885, 1232257, 1232641, 1232904, 1233020, 1233438, 1233798, 1234038, 1234161, 1234413, 1234533, 1234934, 1235203, 1235329]","[186, 43, 163, 230, 114, 115, 128, 97, 184, 194, 111, 129, 212, 117, 31, 101, 36, 111, 88, 244, 92, 245, 114, 67, 99, 105, 98, 70]","[1226379, 1226725, 1227124, 1227517, 1227905, 1228299, 1228665, 1229066, 1229467, 1229837, 1230200, 1230613, 1230982, 1231366, 1231751, 1232104, 1232481, 1232889, 1232995, 1233284, 1233669, 1234022, 1234120, 1234397, 1234493, 1234778, 1235188, 1235284]","[1226366, 1226766, 1227166, 1227566, 1227966, 1228366, 1228766, 1229166, 1229484, 1229852, 1230214, 1230628, 1230998, 1231382, 1231767, 1232119, 1232497, 1232904, 1233298, 1233684, 1234038, 1234413, 1234794, 1235203]",76,OR,U,R,ITMSR,1.1
4,400,trial,0,61,61,61,trial,"['S', 'S', 'S', 'S', 'S', 'S', 'S', 'S', 'S', 'S', 'S', 'S', 'C', 'C', 'C', 'C', 'C', 'C', 'C', 'C', 'C', 'C', 'C', 'C', 'C', 'C', 'C', 'C', 'C', 'C', 'C', 'C', 'C', 'C', 'C', 'C', 'C', 'C', 'C', 'C']","[1240838, 1241203, 1241574, 1241674, 1241980, 1242411, 1242512, 1242793, 1242893, 1243132, 1243232, 1243547, 1243936, 1244036, 1244321, 1244421, 1244717, 1244817, 1245129, 1245229, 1245519, 1245619, 1245936, 1246315, 1246417, 1246707, 1246807, 1247060, 1247160, 1247484, 1247584, 1247893, 1247993, 1248252, 1248352, 1248659, 1248759, 1249017, 1249421, 1249799]","[1240986, 1241337, 1241594, 1241734, 1242147, 1242431, 1242552, 1242813, 1242913, 1243152, 1243299, 1243691, 1243956, 1244120, 1244341, 1244472, 1244737, 1244879, 1245149, 1245295, 1245539, 1245668, 1245956, 1246336, 1246460, 1246727, 1246853, 1247080, 1247225, 1247504, 1247633, 1247913, 1248025, 1248272, 1248395, 1248679, 1248779, 1249188, 1249588, 1249952]","[222, 155, 128, 103, 146, 136, 120, 5, 197, 74, 121, 161, 76, 132, 246, 103, 100, 115, 63, 81, 198, 211, 43, 139, 9, 84, 105, 178, 3, 99, 126, 207, 15, 227, 85, 219, 195, 102, 122, 141]","[1240842, 1241207, 1241578, 1241680, 1241985, 1242414, 1242516, 1242798, 1242893, 1243137, 1243236, 1243551, 1243940, 1244036, 1244325, 1244421, 1244721, 1244831, 1245134, 1245251, 1245527, 1245633, 1245941, 1246319, 1246419, 1246712, 1246807, 1247066, 1247202, 1247488, 1247592, 1247899, 1248001, 1248257, 1248359, 1248663, 1248759, 1249022, 1249425, 1249909]","[1240806, 1241206, 1241606, 1242006, 1242406, 1242806, 1243206, 1243607, 1243956, 1244341, 1244737, 1245149, 1245539, 1245956, 1246336, 1246727, 1247080, 1247504, 1247913, 1248272, 1248679, 1249037, 1249441, 1249819]",76,OR,U,R,ITMSR,1.1
3,400,trial,0,62,62,62,trial,"['S', 'S', 'S', 'S', 'S', 'S', 'S', 'C', 'C', 'C', 'C', 'C', 'C', 'C', 'C', 'C', 'C', 'C', 'C', 'C', 'C', 'C', 'C', 'C']","[1255449, 1255968, 1256387, 1256842, 1257251, 1257656, 1258046, 1258412, 1258827, 1258927, 1259229, 1259595, 1259969, 1260364, 1260764, 1261171, 1261542, 1261894, 1262323, 1262720, 1263096, 1263502, 1263903, 1264270]","[1255566, 1256112, 1256539, 1257016, 1257402, 1257798, 1258201, 1258558, 1258847, 1258952, 1259367, 1259720, 1260127, 1260515, 1260912, 1261331, 1261679, 1262081, 1262490, 1262883, 1263264, 1263652, 1264036, 1264376]","[69, 190, 178, 196, 129, 129, 128, 80, 95, 111, 119, 119, 141, 118, 134, 98, 108, 88, 78, 103, 236, 90, 158, 185]","[1255455, 1255972, 1256391, 1256846, 1257256, 1257660, 1258050, 1258416, 1258832, 1258927, 1259234, 1259600, 1259974, 1260369, 1260769, 1261176, 1261547, 1261900, 1262327, 1262724, 1263101, 1263507, 1263908, 1264275]","[1255300, 1255699, 1256099, 1256499, 1256899, 1257299, 1257699, 1258099, 1258432, 1258847, 1259249, 1259615, 1259990, 1260384, 1260784, 1261191, 1261562, 1261914, 1262343, 1262740, 1263116, 1263522, 1263923, 1264290]",76,OR,U,R,ITMSR,1.1
4,600,trial,0,63,63,63,trial,"['B', 'S', 'S', 'S', 'S', 'S', 'S', 'S', 'S', 'S', 'S', 'S', 'C', 'C', 'C', 'C', 'C', 'C', 'C', 'C', 'C', 'C', 'C', 'C', 'C', 'C', 'C', 'C', 'C', 'C', 'C', 'C', 'C', 'C', 'C', 'C']","[1269776, 1270174, 1270591, 1270941, 1271461, 1272058, 1272652, 1272752, 1273245, 1273345, 1273801, 1273901, 1274411, 1274923, 1275023, 1275461, 1276028, 1276624, 1276724, 1277210, 1277312, 1277766, 1278306, 1278406, 1278864, 1278964, 1279495, 1280032, 1280604, 1280704, 1281167, 1281726, 1281826, 1282270, 1282370, 1282835]","[1269950, 1270290, 1270692, 1270961, 1271743, 1272368, 1272672, 1272956, 1273265, 1273464, 1273821, 1274120, 1274641, 1274943, 1275179, 1275679, 1276275, 1276644, 1276866, 1277230, 1277434, 1278007, 1278326, 1278582, 1278884, 1279195, 1279736, 1280259, 1280624, 1280842, 1281378, 1281746, 1281959, 1282290, 1282514]","[151, 104, 48, 80, 184, 121, 178, 136, 169, 30, 184, 100, 171, 181, 104, 167, 168, 179, 142, 186, 141, 164, 173, 65, 174, 104, 141, 172, 125, 93, 188, 177, 69, 153, 34]","[1269895, 1270178, 1270596, 1270946, 1271464, 1272065, 1272656, 1272799, 1273250, 1273402, 1273806, 1274078, 1274415, 1274927, 1275110, 1275465, 1276033, 1276628, 1276786, 1277214, 1277350, 1277771, 1278310, 1278537, 1278868, 1279100, 1279499, 1280036, 1280608, 1280801, 1281171, 1281730, 1281875, 1282274, 1282407]","[1269789, 1270389, 1270989, 1271589, 1272189, 1272790, 1273389, 1273989, 1274431, 1274943, 1275481, 1276048, 1276644, 1277230, 1277786, 1278326, 1278884, 1279515, 1280052, 1280624, 1281187, 1281746, 1282290, 1282855]",76,OR,U,R,ITMSR,1.1
3,400,trial,0,64,64,64,trial,"['B', 'S', 'S', 'S', 'S', 'S', 'S', 'S', 'S', 'C', 'C', 'C', 'C', 'C', 'C', 'C', 'C', 'C', 'C', 'C', 'C', 'C', 'C', 'C', 'C', 'C', 'C', 'C', 'C', 'C']","[1288631, 1288951, 1289361, 1289760, 1290136, 1290501, 1290849, 1291277, 1291637, 1292053, 1292441, 1292828, 1293191, 1293613, 1294015, 1294386, 1294486, 1294761, 1294861, 1295140, 1295510, 1295612, 1295907, 1296007, 1296270, 1296707, 1296809, 1297064, 1297403, 1297816]","[1288730, 1289074, 1289456, 1289893, 1290262, 1290595, 1291005, 1291365, 1291776, 1292170, 1292579, 1292962, 1293347, 1293736, 1294176, 1294406, 1294524, 1294781, 1294903, 1295279, 1295531, 1295668, 1295927, 1296033, 1296418, 1296728, 1296829, 1297175, 1297599, 1297957]","[72, 124, 73, 82, 96, 168, 18, 104, 36, 108, 108, 136, 57, 105, 114, 91, 152, 9, 105, 226, 3, 128, 7, 35, 141, 6, 51, 22, 2, 55]","[1288642, 1288956, 1289367, 1289766, 1290142, 1290506, 1290855, 1291283, 1291643, 1292058, 1292447, 1292833, 1293197, 1293618, 1294020, 1294391, 1294495, 1294768, 1294869, 1295147, 1295515, 1295621, 1295913, 1296009, 1296275, 1296713, 1296809, 1297070, 1297408, 1297822]","[1288642, 1289042, 1289442, 1289842, 1290242, 1290642, 1291042, 1291442, 1292073, 1292461, 1292848, 1293211, 1293633, 1294035, 1294406, 1294781, 1295160, 1295531, 1295927, 1296290, 1296728, 1297084, 1297423, 1297837]",76,OR,U,R,ITMSR,1.1
5,400,trial,0,65,65,65,trial,"['S', 'S', 'S', 'S', 'S', 'S', 'S', 'S', 'C', 'C', 'C', 'C', 'C', 'C', 'C', 'C', 'C', 'C', 'C', 'C', 'C', 'C', 'C', 'C']","[1303555, 1303957, 1304351, 1304734, 1305110, 1305504, 1305869, 1306261, 1306621, 1306998, 1307345, 1307697, 1308048, 1308423, 1308834, 1309233, 1309603, 1310011, 1310368, 1310747, 1311251, 1311605, 1312036, 1312418]","[1303671, 1304079, 1304502, 1304900, 1305254, 1305647, 1306013, 1306401, 1306747, 1307137, 1307474, 1307825, 1308196, 1308552, 1308987, 1309387, 1309774, 1310162, 1310504, 1310909, 1311379, 1311784, 1312128, 1312567]","[170, 195, 187, 148, 122, 181, 173, 188, 162, 192, 188, 198, 170, 143, 180, 160, 159, 130, 152, 174, 170, 132, 129, 169]","[1303560, 1303962, 1304356, 1304740, 1305114, 1305510, 1305875, 1306266, 1306628, 1307003, 1307351, 1307702, 1308053, 1308429, 1308839, 1309238, 1309609, 1310017, 1310374, 1310751, 1311256, 1311610, 1312043, 1312424]","[1303243, 1303642, 1304042, 1304442, 1304842, 1305242, 1305643, 1306042, 1306641, 1307018, 1307365, 1307717, 1308068, 1308443, 1308854, 1309253, 1309623, 1310031, 1310388, 1310767, 1311271, 1311625, 1312056, 1312438]",76,OR,U,R,ITMSR,1.1
1,400,trial,0,66,66,66,trial,"['B', 'S', 'S', 'S', 'S', 'S', 'S', 'S', 'S', 'C', 'C', 'C', 'C', 'C', 'C', 'C', 'C', 'C', 'C', 'C', 'C', 'C', 'C', 'C', 'C', 'C']","[1317927, 1318243, 1318599, 1319003, 1319453, 1319767, 1320179, 1320467, 1320905, 1321272, 1321617, 1321975, 1322234, 1322577, 1322927, 1323283, 1323634, 1324018, 1324351, 1324718, 1325101, 1325487, 1326003, 1326373, 1326713, 1327098]","[1318011, 1318387, 1318679, 1319107, 1319543, 1319907, 1320275, 1320584, 1321011, 1321391, 1321743, 1322073, 1322310, 1322683, 1323045, 1323421, 1323765, 1324158, 1324477, 1324833, 1325212, 1325626, 1326105, 1326496, 1326823, 1327225]","[178, 32, 75, 154, 50, 183, 251, 239, 181, 204, 159, 135, 168, 249, 200, 108, 99, 172, 249, 71, 155, 140, 122, 56, 105, 142]","[1317966, 1318248, 1318603, 1319008, 1319458, 1319770, 1320183, 1320471, 1320909, 1321276, 1321621, 1321980, 1322279, 1322584, 1322931, 1323287, 1323638, 1324022, 1324357, 1324723, 1325105, 1325491, 1326009, 1326377, 1326718, 1327104]","[1317939, 1318339, 1318739, 1319139, 1319539, 1319939, 1320339, 1320739, 1321292, 1321637, 1321995, 1322597, 1322947, 1323303, 1323654, 1324038, 1324371, 1324738, 1325121, 1325507, 1326023, 1326393, 1326733, 1327118]",76,OR,U,R,ITMSR,1.1
2,400,trial,0,67,67,67,trial,"['S', 'S', 'S', 'S', 'S', 'S', 'S', 'S', 'C', 'C', 'C', 'C', 'C', 'C', 'C', 'C', 'C', 'C', 'C', 'C', 'C', 'C', 'C', 'C']","[1332954, 1333506, 1333873, 1334303, 1334692, 1335087, 1335468, 1335786, 1336182, 1336527, 1336893, 1337190, 1337555, 1337831, 1338152, 1338531, 1338952, 1339398, 1339793, 1340128, 1340468, 1340847, 1341203, 1341521]","[1333122, 1333626, 1334010, 1334396, 1334818, 1335213, 1335542, 1335936, 1336318, 1336694, 1336985, 1337287, 1337668, 1337963, 1338244, 1338653, 1339045, 1339494, 1339971, 1340213, 1340600, 1340989, 1341312, 1341670]","[255, 64, 16, 98, 69, 191, 130, 95, 70, 186, 93, 230, 49, 72, 211, 190, 46, 196, 229, 183, 5, 190, 232, 235]","[1332959, 1333509, 1333877, 1334309, 1334700, 1335091, 1335472, 1335791, 1336188, 1336532, 1336898, 1337196, 1337561, 1337835, 1338159, 1338537, 1338959, 1339404, 1339799, 1340186, 1340473, 1340851, 1341209, 1341529]","[1332845, 1333245, 1333645, 1334045, 1334445, 1334845, 1335245, 1335645, 1336202, 1336547, 1336913, 1337210, 1337575, 1337851, 1338172, 1338551, 1338972, 1339418, 1339813, 1340148, 1340488, 1340867, 1341223, 1341541]",76,OR,U,R,ITMSR,1.1
3,600,trial,0,68,68,68,trial,"['S', 'S', 'S', 'S', 'S', 'S', 'S', 'S', 'S', 'S', 'C', 'C', 'C', 'C', 'C', 'C', 'C', 'C', 'C', 'C', 'C', 'C', 'C', 'C', 'C', 'C', 'C', 'C']","[1347180, 1347667, 1348097, 1348686, 1348786, 1349270, 1349849, 1350479, 1350579, 1351075, 1351631, 1352174, 1352705, 1352805, 1353298, 1353398, 1353772, 1354326, 1354840, 1355397, 1355926, 1356479, 1356997, 1357430, 1357997, 1358590, 1359148, 1359702]","[1347200, 1347779, 1348379, 1348706, 1349081, 1349400, 1350044, 1350499, 1350684, 1351365, 1351963, 1352320, 1352725, 1352896, 1353318, 1353418, 1353944, 1354468, 1354998, 1355536, 1356053, 1356590, 1357095, 1357500, 1358076, 1358610, 1359168, 1359780]","[207, 88, 240, 168, 218, 200, 236, 162, 231, 234, 12, 136, 139, 91, 230, 233, 100, 162, 3, 80, 88, 75, 26, 62, 84, 192, 185, 213]","[1347184, 1347672, 1348102, 1348691, 1348836, 1349275, 1349854, 1350483, 1350579, 1351079, 1351635, 1352180, 1352710, 1352805, 1353305, 1353398, 1353777, 1354333, 1354846, 1355404, 1355931, 1356483, 1357003, 1357438, 1358004, 1358596, 1359154, 1359708]","[1347032, 1347632, 1348232, 1348832, 1349432, 1350032, 1350632, 1351232, 1351651, 1352194, 1352725, 1353318, 1353792, 1354346, 1354860, 1355417, 1355947, 1356499, 1357017, 1357450, 1358017, 1358610, 1359168, 1359722]",76,OR,U,R,ITMSR,1.1
5,600,trial,0,69,69,69,trial,"['S', 'S', 'S', 'S', 'S', 'S', 'S', 'C', 'C', 'C', 'C', 'C', 'C', 'C', 'C', 'C', 'C', 'C', 'C', 'C', 'C', 'C', 'C']","[1365390, 1366057, 1366641, 1367261, 1367701, 1368204, 1368844, 1369518, 1370041, 1370521, 1371046, 1371668, 1372198, 1372744, 1373277, 1373848, 1374270, 1374807, 1375309, 1375850, 1376376, 1376852, 1377127]","[1365549, 1366245, 1366860, 1367339, 1367810, 1368309, 1368958, 1369632, 1370149, 1370611, 1371130, 1371714, 1372291, 1372826, 1373383, 1373932, 1374327, 1374891, 1375415, 1375960, 1376458, 1376933, 1377206]","[86, 241, 174, 167, 105, 188, 59, 228, 10, 111, 148, 14, 231, 72, 203, 58, 211, 207, 180, 51, 126, 212, 112]","[1365396, 1366061, 1366646, 1367267, 1367705, 1368211, 1368849, 1369524, 1370048, 1370528, 1371053, 1371674, 1372205, 1372750, 1373285, 1373854, 1374276, 1374814, 1375310, 1375928, 1376384, 1376897, 1377174]","[1365055, 1365655, 1366255, 1366855, 1367455, 1368055, 1368655, 1369255, 1369538, 1370061, 1370541, 1371066, 1371688, 1372218, 1372764, 1373297, 1373869, 1374290, 1374827, 1375329, 1375870, 1376396, 1376872, 1377147]",76,OR,U,R,ITMSR,1.1
1,600,trial,0,70,70,70,trial,"['S', 'S', 'S', 'S', 'S', 'S', 'S', 'S', 'C', 'C', 'C', 'C', 'C', 'C', 'C', 'C', 'C', 'C', 'C', 'C', 'C', 'C', 'C', 'C']","[1382842, 1383629, 1384311, 1384888, 1385379, 1385919, 1386384, 1387029, 1387848, 1388444, 1388980, 1389551, 1390169, 1390858, 1391465, 1391865, 1392454, 1392993, 1393601, 1394172, 1394699, 1395340, 1395907, 1397985]","[1382960, 1383726, 1384424, 1384982, 1385494, 1385965, 1386431, 1387105, 1387971, 1388538, 1389068, 1389646, 1390261, 1390954, 1391567, 1391967, 1392538, 1393062, 1393622, 1394192, 1394719, 1395360, 1395928, 1398092]","[134, 145, 222, 112, 194, 172, 64, 178, 5, 139, 103, 30, 100, 43, 151, 19, 190, 12, 246, 111, 48, 108, 182, 52]","[1382848, 1383635, 1384317, 1384894, 1385385, 1385924, 1386392, 1387034, 1387853, 1388450, 1388986, 1389556, 1390173, 1390864, 1391470, 1391873, 1392460, 1393039, 1393604, 1394180, 1394701, 1395343, 1395910, 1397989]","[1382801, 1383401, 1384001, 1384601, 1385201, 1385801, 1386401, 1387001, 1387868, 1388464, 1389000, 1389571, 1390189, 1390878, 1391485, 1391885, 1392474, 1393013, 1393622, 1394192, 1394719, 1395360, 1395928, 1398005]",76,OR,U,R,ITMSR,1.1
5,400,trial,0,71,71,71,trial,"['B', 'S', 'S', 'S', 'S', 'S', 'S', 'S', 'S', 'S', 'C', 'C', 'C', 'C', 'C', 'C', 'C', 'C', 'C', 'C', 'C', 'C', 'C', 'C', 'C', 'C', 'C', 'C', 'C', 'C', 'C', 'C']","[1403636, 1403961, 1404374, 1404800, 1405138, 1405586, 1405686, 1405980, 1406377, 1406477, 1406822, 1407227, 1407329, 1407566, 1407951, 1408051, 1408363, 1408744, 1408844, 1409094, 1409196, 1409518, 1409619, 1409949, 1410365, 1410465, 1410735, 1411136, 1411497, 1411901, 1412320, 1412688]","[1403681, 1404137, 1404476, 1404917, 1405288, 1405606, 1405709, 1406000, 1406397, 1406499, 1406922, 1407248, 1407349, 1407670, 1407971, 1408071, 1408384, 1408764, 1408864, 1409114, 1409224, 1409538, 1409639, 1410054, 1410385, 1410485, 1410755, 1411156, 1411625, 1412022, 1412404, 1412814]","[172, 150, 65, 27, 60, 126, 146, 23, 11, 123, 255, 195, 48, 244, 140, 55, 181, 146, 72, 196, 98, 171, 45, 147, 7, 69, 3, 152, 149, 179, 146, 243]","[1403636, 1403966, 1404379, 1404805, 1405145, 1405592, 1405686, 1405986, 1406384, 1406477, 1406828, 1407235, 1407329, 1407572, 1407956, 1408051, 1408367, 1408751, 1408844, 1409100, 1409196, 1409523, 1409619, 1409954, 1410365, 1410465, 1410735, 1411142, 1411505, 1411907, 1412355, 1412695]","[1403648, 1404047, 1404447, 1404847, 1405247, 1405647, 1406047, 1406447, 1406842, 1407247, 1407586, 1407971, 1408384, 1408764, 1409114, 1409538, 1409969, 1410385, 1410755, 1411156, 1411517, 1411921, 1412340, 1412708]",76,OR,U,R,ITMSR,1.1
0,600,trial,0,72,72,72,trial,"['B', 'S', 'S', 'S', 'S', 'S', 'S', 'S', 'S', 'C', 'C', 'C', 'C', 'C', 'C', 'C', 'C', 'C', 'C', 'C', 'C', 'C', 'C', 'C', 'C', 'C', 'C', 'C', 'C', 'C', 'C', 'C', 'C']","[1418352, 1418813, 1419283, 1419976, 1420539, 1421215, 1421771, 1422361, 1422461, 1423009, 1423109, 1423517, 1423617, 1424130, 1424230, 1424688, 1424788, 1425207, 1425307, 1425845, 1425945, 1426373, 1426909, 1427009, 1427471, 1428050, 1428655, 1428755, 1429214, 1429777, 1430313, 1430939, 1431422]","[1418653, 1418930, 1419759, 1420274, 1420907, 1421235, 1421791, 1422381, 1422497, 1423029, 1423177, 1423537, 1423843, 1424150, 1424373, 1424708, 1424902, 1425227, 1425507, 1425865, 1426006, 1426636, 1426929, 1427221, 1427735, 1428307, 1428675, 1428887, 1429411, 1429949, 1430555, 1431112, 1431652]","[175, 49, 159, 152, 138, 140, 96, 96, 45, 217, 51, 121, 145, 110, 154, 191, 110, 112, 190, 160, 130, 50, 28, 118, 40, 215, 55, 158, 146, 127, 10, 54, 191]","[1418415, 1418819, 1419288, 1419982, 1420546, 1421221, 1421773, 1422369, 1422464, 1423015, 1423111, 1423523, 1423619, 1424137, 1424230, 1424692, 1424788, 1425214, 1425309, 1425852, 1425947, 1426380, 1426917, 1427015, 1427478, 1428057, 1428662, 1428792, 1429221, 1429784, 1430319, 1431021, 1431429]","[1418365, 1418964, 1419565, 1420165, 1420765, 1421365, 1421965, 1422565, 1423029, 1423537, 1424150, 1424708, 1425227, 1425865, 1426393, 1426929, 1427491, 1428070, 1428675, 1429234, 1429797, 1430333, 1430959, 1431442]",76,OR,U,R,ITMSR,1.1
2,600,trial,0,73,73,73,trial,"['S', 'S', 'S', 'S', 'S', 'S', 'S', 'S', 'S', 'S', 'S', 'S', 'S', 'C', 'C', 'C', 'C', 'C', 'C', 'C', 'C', 'C', 'C', 'C', 'C', 'C', 'C', 'C', 'C', 'C', 'C', 'C', 'C', 'C', 'C', 'C', 'C', 'C', 'C']","[1436934, 1437034, 1437329, 1437990, 1438090, 1438623, 1438723, 1439167, 1439267, 1439733, 1439833, 1440368, 1440921, 1441528, 1442064, 1442649, 1443222, 1443324, 1443800, 1443900, 1444319, 1444944, 1445044, 1445544, 1445644, 1446091, 1446191, 1446695, 1447269, 1447369, 1447841, 1448353, 1448453, 1448990, 1449116, 1449516, 1449616, 1450078, 1450178]","[1436954, 1437104, 1437676, 1438010, 1438285, 1438643, 1438897, 1439187, 1439456, 1439753, 1440072, 1440610, 1441256, 1441775, 1442340, 1442895, 1443243, 1443484, 1443820, 1444030, 1444639, 1444964, 1445192, 1445564, 1445706, 1446111, 1446396, 1446931, 1447289, 1447496, 1448036, 1448373, 1448545, 1449036, 1449141, 1449536, 1449729, 1450098, 1450297]","[221, 177, 188, 135, 111, 112, 237, 179, 182, 215, 233, 81, 157, 149, 74, 120, 91, 108, 178, 210, 64, 186, 134, 178, 84, 121, 93, 181, 216, 93, 113, 171, 124, 51, 46, 215, 134, 53, 16]","[1436940, 1437034, 1437335, 1437997, 1438090, 1438629, 1438835, 1439173, 1439267, 1439738, 1439833, 1440374, 1440928, 1441534, 1442071, 1442654, 1443229, 1443331, 1443805, 1443900, 1444326, 1444948, 1445046, 1445549, 1445644, 1446097, 1446236, 1446701, 1447276, 1447395, 1447847, 1448358, 1448453, 1448996, 1449128, 1449523, 1449672, 1450081, 1450185]","[1436880, 1437480, 1438081, 1438680, 1439280, 1439880, 1440480, 1441080, 1441548, 1442084, 1442669, 1443243, 1443820, 1444339, 1444964, 1445564, 1446111, 1446715, 1447289, 1447861, 1448373, 1449010, 1449536, 1450098]",76,OR,U,R,ITMSR,1.1
1,600,trial,0,74,74,74,trial,"['S', 'S', 'S', 'S', 'S', 'S', 'S', 'S', 'S', 'S', 'C', 'C', 'C', 'C', 'C', 'C', 'C', 'C', 'C', 'C', 'C', 'C', 'C', 'C', 'C', 'C', 'C', 'C']","[1455842, 1455942, 1456557, 1457176, 1457787, 1457887, 1458381, 1458982, 1459082, 1459630, 1460184, 1460840, 1461471, 1462106, 1462691, 1463270, 1463869, 1464512, 1465089, 1465628, 1466270, 1466828, 1467438, 1467988, 1468088, 1468500, 1468600, 1469111]","[1455862, 1455968, 1456857, 1457491, 1457807, 1457963, 1458743, 1459002, 1459262, 1459813, 1460388, 1461044, 1461669, 1462304, 1462883, 1463396, 1464043, 1464677, 1465254, 1465805, 1466411, 1467008, 1467591, 1468008, 1468140, 1468520, 1468634, 1469246]","[181, 109, 14, 137, 191, 148, 217, 190, 18, 35, 47, 48, 249, 124, 117, 3, 77, 103, 166, 110, 85, 164, 89, 98, 203, 80, 185, 99]","[1455848, 1455942, 1456563, 1457182, 1457792, 1457887, 1458387, 1458988, 1459082, 1459635, 1460193, 1460846, 1461477, 1462111, 1462697, 1463279, 1463964, 1464517, 1465095, 1465633, 1466275, 1466834, 1467444, 1467995, 1468088, 1468507, 1468600, 1469117]","[1455621, 1456221, 1456821, 1457421, 1458021, 1458621, 1459221, 1459821, 1460204, 1460860, 1461491, 1462126, 1462711, 1463290, 1463889, 1464532, 1465109, 1465648, 1466290, 1466848, 1467458, 1468008, 1468520, 1469131]",76,OR,U,R,ITMSR,1.1
4,400,trial,0,75,75,75,trial,"['S', 'S', 'S', 'S', 'S', 'S', 'S', 'S', 'S', 'S', 'C', 'C', 'C', 'C', 'C', 'C', 'C', 'C', 'C', 'C', 'C', 'C', 'C', 'C', 'C', 'C', 'C', 'C', 'C', 'C', 'C', 'C', 'C', 'C', 'C', 'C']","[1474787, 1475288, 1475704, 1476134, 1476523, 1476623, 1476887, 1476987, 1477276, 1477377, 1477731, 1477831, 1478119, 1478219, 1478488, 1478898, 1478998, 1479300, 1479400, 1479687, 1479787, 1480071, 1480171, 1480470, 1480859, 1481227, 1481630, 1482033, 1482133, 1482402, 1482502, 1482807, 1482907, 1483187, 1483620, 1483720]","[1474994, 1475461, 1475877, 1476284, 1476543, 1476658, 1476907, 1477022, 1477297, 1477464, 1477751, 1477881, 1478139, 1478289, 1478654, 1478918, 1479056, 1479320, 1479465, 1479707, 1479832, 1480091, 1480226, 1480646, 1481000, 1481388, 1481784, 1482053, 1482153, 1482422, 1482557, 1482827, 1482939, 1483317, 1483640, 1483758]","[175, 178, 167, 118, 124, 204, 137, 196, 125, 5, 152, 246, 130, 17, 179, 185, 224, 194, 235, 157, 225, 127, 205, 116, 98, 154, 97, 39, 137, 75, 4, 72, 216, 40, 193, 107]","[1474793, 1475293, 1475710, 1476142, 1476527, 1476623, 1476891, 1476987, 1477280, 1477377, 1477735, 1477831, 1478123, 1478221, 1478494, 1478903, 1478998, 1479307, 1479400, 1479692, 1479810, 1480076, 1480171, 1480474, 1480865, 1481233, 1481634, 1482039, 1482133, 1482407, 1482502, 1482814, 1482907, 1483193, 1483624, 1483720]","[1474552, 1474952, 1475352, 1475752, 1476152, 1476552, 1476952, 1477352, 1477751, 1478139, 1478508, 1478918, 1479320, 1479707, 1480091, 1480491, 1480879, 1481247, 1481650, 1482053, 1482422, 1482827, 1483207, 1483640]",76,OR,U,R,ITMSR,1.1
1,400,trial,0,76,76,76,trial,"['S', 'S', 'S', 'S', 'S', 'S', 'S', 'S', 'S', 'C', 'C', 'C', 'C', 'C', 'C', 'C', 'C', 'C', 'C', 'C', 'C', 'C', 'C', 'C', 'C', 'C', 'C', 'C', 'C', 'C', 'C', 'C', 'C', 'C', 'C']","[1489354, 1489746, 1489846, 1490089, 1490473, 1490859, 1491278, 1491691, 1492075, 1492443, 1492543, 1492895, 1493225, 1493584, 1493960, 1494060, 1494327, 1494712, 1494812, 1495081, 1495447, 1495806, 1495906, 1496195, 1496295, 1496576, 1496676, 1496910, 1497010, 1497316, 1497416, 1497708, 1497810, 1498107, 1498207]","[1489374, 1489766, 1489895, 1490255, 1490570, 1491025, 1491422, 1491793, 1492196, 1492463, 1492563, 1492974, 1493382, 1493725, 1493980, 1494094, 1494460, 1494732, 1494832, 1495101, 1495609, 1495826, 1495962, 1496215, 1496367, 1496596, 1496699, 1496930, 1497056, 1497336, 1497436, 1497729, 1497850, 1498127, 1498232]","[67, 216, 73, 247, 217, 201, 217, 30, 202, 185, 190, 116, 42, 113, 208, 171, 200, 207, 68, 173, 30, 210, 86, 228, 115, 188, 53, 208, 103, 210, 66, 194, 54, 203, 55]","[1489357, 1489751, 1489846, 1490095, 1490480, 1490865, 1491283, 1491698, 1492081, 1492448, 1492543, 1492927, 1493230, 1493590, 1493970, 1494060, 1494330, 1494714, 1494812, 1495086, 1495453, 1495809, 1495906, 1496198, 1496295, 1496578, 1496676, 1496916, 1497019, 1497318, 1497416, 1497711, 1497810, 1498109, 1498207]","[1489324, 1489723, 1490123, 1490523, 1490923, 1491323, 1491723, 1492123, 1492463, 1492915, 1493245, 1493604, 1493980, 1494347, 1494732, 1495101, 1495468, 1495826, 1496215, 1496596, 1496930, 1497336, 1497729, 1498127]",76,OR,U,R,ITMSR,1.1
2,600,trial,0,77,77,77,trial,"['S', 'S', 'S', 'S', 'S', 'S', 'S', 'S', 'S', 'S', 'S', 'C', 'C', 'C', 'C', 'C', 'C', 'C', 'C', 'C', 'C', 'C', 'C', 'C', 'C', 'C', 'C', 'C', 'C', 'C', 'C', 'C', 'C', 'C', 'C', 'C', 'C', 'C', 'C']","[1503765, 1504209, 1504655, 1505313, 1505888, 1505988, 1506446, 1507000, 1507100, 1507565, 1507665, 1508139, 1508239, 1508578, 1508678, 1509122, 1509672, 1509772, 1510247, 1510680, 1510782, 1511190, 1511738, 1511838, 1512285, 1512385, 1512798, 1512898, 1513416, 1513516, 1513925, 1514027, 1514434, 1514536, 1514972, 1515072, 1515462, 1516008, 1516108]","[1503882, 1504377, 1505000, 1505540, 1505908, 1506159, 1506653, 1507020, 1507141, 1507585, 1507716, 1508159, 1508299, 1508598, 1508773, 1509279, 1509692, 1509809, 1510362, 1510701, 1510817, 1511304, 1511758, 1511969, 1512305, 1512448, 1512818, 1512968, 1513436, 1513581, 1513945, 1514085, 1514455, 1514583, 1514992, 1515144, 1515482, 1516028, 1516184]","[165, 42, 244, 79, 126, 160, 0, 200, 71, 48, 69, 125, 156, 40, 172, 204, 53, 123, 165, 196, 116, 99, 170, 73, 196, 119, 208, 119, 167, 61, 169, 80, 115, 51, 200, 104, 46, 120, 78]","[1503833, 1504215, 1504660, 1505318, 1505894, 1505988, 1506451, 1507007, 1507100, 1507571, 1507665, 1508144, 1508242, 1508583, 1508678, 1509125, 1509678, 1509772, 1510253, 1510685, 1510782, 1511195, 1511743, 1511838, 1512289, 1512385, 1512802, 1512919, 1513421, 1513527, 1513930, 1514028, 1514439, 1514536, 1514977, 1515072, 1515466, 1516012, 1516110]","[1503593, 1504193, 1504793, 1505393, 1505993, 1506593, 1507193, 1507793, 1508159, 1508598, 1509142, 1509692, 1510267, 1510701, 1511211, 1511758, 1512305, 1512818, 1513436, 1513945, 1514455, 1514992, 1515482, 1516028]",76,OR,U,R,ITMSR,1.1
