pitch,ioi,event,.thisRepN,.thisTrialN,.thisN,.thisIndex,event,tap_types,tap_times,release_times,peak_pressures,peak_times,tone_times,subject,experimenter,register,handedness,experiment,version,
,,SPR,0,-1,-1,0,SPR,"['P', 'P', 'P', 'P', 'P', 'P', 'P', 'P', 'P', 'P', 'P', 'P', 'P', 'P', 'P', 'P', 'P', 'P', 'P', 'P', 'P', 'P', 'P', 'P', 'P', 'P', 'P', 'P', 'P', 'P']","[49462, 50339, 51183, 51843, 52456, 53079, 53715, 54362, 55030, 55566, 56183, 56756, 57251, 57814, 58345, 58840, 59347, 59798, 60292, 60773, 61245, 61721, 62143, 62625, 63123, 63609, 64134, 64595, 65103, 65569]","[49914, 50553, 51315, 51971, 52585, 53221, 53844, 54484, 55151, 55716, 56316, 56868, 57389, 57935, 58446, 58949, 59449, 59923, 60401, 60875, 61344, 61807, 62254, 62732, 63236, 63728, 64268, 64736, 65224, 65682]","[53, 138, 215, 127, 136, 130, 121, 67, 25, 48, 134, 105, 232, 8, 130, 129, 147, 200, 196, 96, 15, 198, 233, 235, 254, 244, 24, 252, 31, 175]","[49555, 50404, 51215, 51906, 52517, 53145, 53774, 54411, 55089, 55632, 56248, 56811, 57317, 57867, 58398, 58896, 59401, 59868, 60350, 60833, 61289, 61751, 62191, 62680, 63183, 63670, 64203, 64670, 65164, 65624]",,91,OR,L,R,ITMSR,1.1,
0,500,practice,0,0,0,0,practice,"['S', 'S', 'S', 'S', 'S', 'S', 'S', 'C', 'C', 'C', 'C', 'C', 'C', 'C', 'C', 'C', 'C', 'C', 'C', 'C', 'C', 'C', 'C']","[145589, 146220, 146629, 147225, 147795, 148299, 148912, 149472, 149906, 150475, 150905, 151340, 151798, 152271, 152725, 153194, 153660, 154104, 154557, 154984, 155462, 155898, 156353]","[145729, 146330, 146761, 147342, 147918, 148445, 149030, 149585, 150033, 150593, 151031, 151457, 151916, 152388, 152836, 153312, 153768, 154223, 154678, 155101, 155565, 156017, 156432]","[249, 234, 152, 93, 88, 144, 153, 8, 59, 54, 138, 43, 229, 255, 133, 14, 153, 251, 67, 1, 181, 249, 30]","[145637, 146265, 146688, 147284, 147860, 148363, 148960, 149522, 149966, 150522, 150962, 151396, 151855, 152323, 152774, 153252, 153718, 154160, 154603, 155034, 155514, 155954, 156394]","[145583, 146082, 146582, 147082, 147582, 148082, 148582, 149082, 149492, 149926, 150495, 150925, 151360, 151818, 152291, 152745, 153214, 153680, 154124, 154577, 155004, 155482, 155918, 156374]",91,OR,L,R,ITMSR,1.1,
5,500,practice,0,1,1,1,practice,"['S', 'S', 'S', 'S', 'S', 'S', 'S', 'C', 'C', 'C', 'C', 'C', 'C', 'C', 'C', 'C', 'C', 'C', 'C', 'C', 'C', 'C', 'C']","[161939, 162564, 163123, 163632, 164125, 164634, 165135, 165649, 166222, 166715, 167158, 167673, 168221, 168709, 169207, 169715, 170204, 170674, 171201, 171720, 172239, 172747, 173259]","[162112, 162694, 163254, 163768, 164255, 164763, 165256, 165765, 166364, 166844, 167283, 167800, 168357, 168847, 169335, 169841, 170327, 170829, 171339, 171852, 172366, 172875, 173392]","[187, 114, 167, 127, 72, 83, 72, 108, 136, 103, 44, 65, 129, 81, 71, 253, 237, 113, 66, 228, 77, 216, 30]","[162009, 162622, 163175, 163687, 164185, 164692, 165195, 165696, 166280, 166773, 167218, 167734, 168276, 168773, 169277, 169788, 170263, 170741, 171254, 171783, 172286, 172809, 173316]","[161760, 162259, 162759, 163259, 163759, 164259, 164759, 165259, 165669, 166242, 166735, 167178, 167693, 168241, 168729, 169227, 169735, 170224, 170694, 171222, 171740, 172259, 172767, 173279]",91,OR,L,R,ITMSR,1.1,
4,500,practice,0,2,2,2,practice,"['S', 'S', 'S', 'S', 'S', 'S', 'S', 'C', 'C', 'C', 'C', 'C', 'C', 'C', 'C', 'C', 'C', 'C', 'C', 'C', 'C', 'C', 'C']","[179092, 179794, 180341, 180870, 181366, 181895, 182400, 182903, 183404, 183885, 184406, 184887, 185378, 185840, 186331, 186801, 187297, 187757, 188225, 188723, 189209, 189697, 190181]","[179224, 179920, 180480, 181000, 181525, 182035, 182537, 183028, 183534, 184014, 184543, 185013, 185505, 185954, 186450, 186901, 187410, 187871, 188340, 188865, 189332, 189808, 190290]","[2, 230, 248, 169, 235, 112, 135, 152, 73, 149, 190, 144, 178, 124, 98, 44, 147, 28, 70, 87, 71, 85, 118]","[179145, 179843, 180385, 180932, 181425, 181965, 182465, 182964, 183474, 183937, 184480, 184934, 185437, 185885, 186382, 186847, 187356, 187815, 188268, 188795, 189265, 189756, 190217]","[178906, 179406, 179906, 180406, 180907, 181406, 181906, 182406, 182923, 183425, 183905, 184426, 184907, 185398, 185860, 186351, 186821, 187317, 187778, 188246, 188743, 189229, 189717, 190201]",91,OR,L,R,ITMSR,1.1,
1,500,practice,0,3,3,3,practice,"['S', 'S', 'S', 'S', 'S', 'S', 'C', 'C', 'C', 'C', 'C', 'C', 'C', 'C', 'C', 'C', 'C', 'C', 'C', 'C', 'C', 'C']","[195933, 196585, 197141, 197832, 198422, 198963, 199506, 200062, 200578, 201100, 201593, 202106, 202622, 203098, 203665, 204166, 204682, 205117, 205598, 206124, 206626, 207095]","[196044, 196700, 197254, 197957, 198556, 199101, 199627, 200190, 200687, 201194, 201718, 202209, 202724, 203214, 203773, 204296, 204784, 205247, 205735, 206244, 206754, 207233]","[229, 211, 27, 118, 155, 175, 157, 178, 33, 113, 124, 137, 125, 137, 150, 169, 179, 177, 199, 153, 111, 139]","[195960, 196620, 197203, 197889, 198488, 199030, 199547, 200102, 200623, 201140, 201640, 202139, 202658, 203137, 203704, 204191, 204715, 205144, 205636, 206151, 206682, 207131]","[195621, 196120, 196620, 197121, 197620, 198120, 198620, 199120, 199526, 200082, 200598, 201120, 201613, 202126, 202642, 203118, 203685, 204186, 204702, 205137, 205618, 206144, 206646, 207115]",91,OR,L,R,ITMSR,1.1,
2,500,practice,0,4,4,4,practice,"['S', 'S', 'S', 'S', 'S', 'S', 'S', 'C', 'C', 'C', 'C', 'C', 'C', 'C', 'C', 'C', 'C', 'C', 'C', 'C', 'C', 'C', 'C']","[212784, 213377, 213995, 214481, 215029, 215516, 216000, 216532, 217027, 217489, 217963, 218444, 218901, 219345, 219897, 220333, 220776, 221296, 221773, 222256, 222701, 223170, 223655]","[212915, 213485, 214118, 214614, 215122, 215639, 216119, 216638, 217129, 217645, 218092, 218550, 219039, 219466, 220019, 220463, 220890, 221428, 221921, 222354, 222831, 223290, 223742]","[220, 181, 181, 165, 16, 133, 118, 42, 99, 193, 6, 31, 188, 78, 131, 191, 120, 130, 225, 136, 185, 209, 21]","[212831, 213427, 214038, 214540, 215065, 215570, 216054, 216585, 217062, 217565, 218029, 218488, 218962, 219394, 219950, 220380, 220822, 221363, 221829, 222296, 222758, 223228, 223690]","[212582, 213082, 213582, 214082, 214582, 215083, 215582, 216082, 216552, 217048, 217509, 217984, 218464, 218921, 219365, 219917, 220353, 220796, 221316, 221793, 222276, 222722, 223191, 223675]",91,OR,L,R,ITMSR,1.1,
3,500,practice,0,5,5,5,practice,"['S', 'S', 'S', 'S', 'S', 'S', 'S', 'C', 'C', 'C', 'C', 'C', 'C', 'C', 'C', 'C', 'C', 'C', 'C', 'C', 'C', 'C', 'C']","[229295, 229876, 230446, 230945, 231463, 231967, 232480, 232982, 233524, 233975, 234424, 234908, 235411, 235908, 236413, 236875, 237380, 237838, 238321, 238793, 239259, 239766, 240272]","[229410, 229982, 230559, 231060, 231555, 232094, 232598, 233096, 233638, 234087, 234550, 235028, 235538, 236048, 236535, 236992, 237494, 237965, 238424, 238873, 239354, 239897, 240386]","[135, 24, 79, 15, 237, 48, 101, 15, 91, 64, 135, 43, 140, 200, 219, 20, 47, 139, 218, 178, 188, 130, 140]","[229337, 229910, 230481, 230989, 231494, 232001, 232524, 233020, 233572, 234009, 234486, 234978, 235451, 235961, 236480, 236943, 237428, 237899, 238354, 238825, 239316, 239814, 240318]","[229053, 229553, 230053, 230553, 231053, 231554, 232054, 232554, 233003, 233544, 233995, 234444, 234928, 235431, 235928, 236433, 236895, 237400, 237858, 238341, 238813, 239279, 239787, 240292]",91,OR,L,R,ITMSR,1.1,
2,600,trial,0,6,6,6,trial,"['S', 'S', 'S', 'S', 'S', 'S', 'S', 'S', 'C', 'C', 'C', 'C', 'C', 'C', 'C', 'C', 'C', 'C', 'C', 'C', 'C', 'C', 'C', 'C']","[306840, 307322, 307816, 308446, 309080, 309655, 310285, 310872, 311464, 312087, 312675, 313269, 313883, 314481, 315071, 315682, 316259, 316890, 317465, 318019, 318651, 319230, 319779, 320312]","[306991, 307473, 307984, 308584, 309208, 309805, 310419, 311023, 311593, 312199, 312791, 313373, 313991, 314586, 315183, 315808, 316365, 316993, 317568, 318112, 318755, 319336, 319879, 320429]","[29, 44, 59, 59, 62, 51, 67, 58, 36, 23, 1, 17, 229, 40, 16, 16, 12, 26, 28, 253, 27, 16, 6, 8]","[306874, 307377, 307871, 308496, 309107, 309725, 310333, 310920, 311517, 312116, 312705, 313295, 313909, 314507, 315096, 315711, 316281, 316919, 317491, 318047, 318675, 319260, 319808, 320345]","[306719, 307318, 307918, 308518, 309118, 309719, 310318, 310918, 311484, 312108, 312695, 313289, 313903, 314501, 315091, 315702, 316279, 316910, 317485, 318040, 318671, 319250, 319799, 320332]",91,OR,L,R,ITMSR,1.1,
2,400,trial,0,7,7,7,trial,"['S', 'S', 'S', 'S', 'S', 'S', 'C', 'C', 'C', 'C', 'C', 'C', 'C', 'C', 'C', 'C', 'C', 'C', 'C', 'C', 'C', 'C']","[325986, 326578, 327472, 327796, 328168, 328586, 328997, 329365, 329750, 330113, 330487, 330861, 331211, 331587, 331950, 332335, 332693, 333064, 333429, 333791, 334132, 334514]","[326095, 326662, 327571, 327894, 328260, 328666, 329085, 329452, 329836, 330198, 330569, 330932, 331290, 331651, 332043, 332398, 332784, 333156, 333515, 333887, 334232, 334566]","[212, 183, 20, 55, 70, 46, 22, 42, 49, 5, 13, 14, 12, 0, 32, 174, 26, 214, 245, 242, 5, 140]","[326037, 326609, 327500, 327824, 328188, 328603, 329020, 329385, 329772, 330133, 330508, 330883, 331231, 331610, 331970, 332357, 332716, 333086, 333461, 333815, 334159, 334535]","[325857, 326257, 326658, 327058, 327458, 327858, 328258, 328658, 329017, 329385, 329771, 330133, 330507, 330882, 331231, 331608, 331970, 332355, 332713, 333084, 333449, 333811, 334152, 334534]",91,OR,L,R,ITMSR,1.1,
3,400,trial,0,8,8,8,trial,"['S', 'S', 'S', 'S', 'S', 'S', 'S', 'C', 'C', 'C', 'C', 'C', 'C', 'C', 'C', 'C', 'C', 'C', 'C', 'C', 'C', 'C', 'C']","[340129, 340570, 340995, 341390, 341775, 342207, 342558, 342973, 343374, 343763, 344141, 344558, 344919, 345312, 345712, 346078, 346477, 346866, 347285, 347619, 347987, 348332, 348732]","[340253, 340655, 341075, 341496, 341864, 342294, 342650, 343054, 343467, 343835, 344225, 344622, 345021, 345379, 345782, 346120, 346535, 346936, 347338, 347698, 348048, 348388, 348783]","[47, 227, 26, 44, 23, 28, 233, 32, 204, 230, 9, 95, 2, 178, 233, 124, 96, 214, 102, 151, 184, 176, 101]","[340165, 340593, 341017, 341412, 341797, 342226, 342585, 342993, 343400, 343787, 344162, 344581, 344945, 345338, 345736, 346099, 346500, 346892, 347308, 347655, 348009, 348354, 348755]","[339858, 340258, 340658, 341058, 341458, 341858, 342258, 342658, 342993, 343394, 343783, 344161, 344578, 344939, 345332, 345732, 346098, 346498, 346886, 347305, 347639, 348007, 348352, 348752]",91,OR,L,R,ITMSR,1.1,
4,600,trial,0,9,9,9,trial,"['S', 'S', 'S', 'S', 'S', 'S', 'S', 'C', 'C', 'C', 'C', 'C', 'C', 'C', 'C', 'C', 'C', 'C', 'C', 'C', 'C', 'C', 'C']","[354447, 355111, 355771, 356441, 357095, 357635, 358240, 358894, 359408, 360033, 360623, 361205, 361765, 362345, 362899, 363404, 364049, 364604, 365159, 365717, 366314, 366865, 367435]","[354555, 355223, 355895, 356549, 357192, 357772, 358377, 358985, 359550, 360177, 360763, 361326, 361890, 362464, 363038, 363553, 364197, 364738, 365288, 365845, 366433, 367000, 367548]","[223, 212, 150, 104, 97, 170, 186, 72, 194, 196, 183, 92, 77, 96, 99, 158, 148, 109, 46, 228, 49, 42, 8]","[354490, 355151, 355831, 356494, 357135, 357693, 358303, 358929, 359468, 360098, 360685, 361256, 361821, 362394, 362950, 363471, 364125, 364660, 365209, 365765, 366359, 366912, 367483]","[354143, 354743, 355343, 355943, 356543, 357143, 357743, 358343, 358914, 359428, 360053, 360643, 361225, 361785, 362365, 362919, 363424, 364069, 364624, 365179, 365737, 366334, 366885, 367455]",91,OR,L,R,ITMSR,1.1,
3,600,trial,0,10,10,10,trial,"['S', 'S', 'S', 'S', 'S', 'S', 'S', 'C', 'C', 'C', 'C', 'C', 'C', 'C', 'C', 'C', 'C', 'C', 'C', 'C', 'C', 'C', 'C']","[373524, 374129, 374789, 375397, 376006, 376603, 377232, 377802, 378447, 378998, 379546, 380104, 380630, 381162, 381737, 382247, 382783, 383309, 383840, 384342, 384829, 385358, 385858]","[373622, 374250, 374896, 375500, 376171, 376756, 377399, 377932, 378572, 379124, 379682, 380241, 380747, 381250, 381839, 382347, 382863, 383412, 383896, 384417, 384914, 385423, 385903]","[23, 24, 246, 138, 26, 12, 33, 231, 235, 218, 204, 249, 14, 40, 158, 159, 91, 192, 80, 246, 186, 91, 177]","[373549, 374180, 374824, 375438, 376071, 376673, 377297, 377858, 378498, 379052, 379608, 380164, 380679, 381191, 381766, 382287, 382813, 383354, 383855, 384374, 384862, 385378, 385879]","[373103, 373703, 374303, 374903, 375503, 376103, 376704, 377304, 377822, 378467, 379018, 379566, 380124, 380650, 381182, 381757, 382267, 382803, 383329, 383860, 384362, 384849, 385378, 385879]",91,OR,L,R,ITMSR,1.1,
5,600,trial,0,11,11,11,trial,"['S', 'S', 'S', 'S', 'S', 'S', 'S', 'C', 'C', 'C', 'C', 'C', 'C', 'C', 'C', 'C', 'C', 'C', 'C', 'C', 'C', 'C', 'C']","[391787, 392397, 393021, 393654, 394262, 394864, 395471, 396058, 396627, 397159, 397696, 398257, 399908, 400509, 401087, 401665, 402169, 402754, 403311, 403874, 404440, 405009, 405597]","[391882, 392487, 393123, 393778, 394368, 394971, 395578, 396188, 396747, 397271, 397783, 398354, 400024, 400620, 401176, 401768, 402294, 402865, 403436, 403993, 404578, 405105, 405697]","[123, 130, 148, 135, 106, 63, 123, 125, 125, 110, 201, 213, 229, 108, 56, 131, 73, 35, 80, 52, 57, 220, 24]","[391823, 392426, 393052, 393689, 394323, 394903, 395515, 396120, 396696, 397196, 397722, 398294, 399959, 400544, 401115, 401699, 402247, 402782, 403352, 403931, 404481, 405037, 405632]","[391418, 392018, 392619, 393218, 393818, 394418, 395018, 395618, 396078, 396647, 397179, 397716, 398277, 399928, 400529, 401107, 401685, 402189, 402775, 403331, 403894, 404460, 405029, 405617]",91,OR,L,R,ITMSR,1.1,
0,400,trial,0,12,12,12,trial,"['S', 'S', 'S', 'S', 'S', 'S', 'S', 'C', 'C', 'C', 'C', 'C', 'C', 'C', 'C', 'C', 'C', 'C', 'C', 'C', 'C', 'C', 'C']","[411433, 411868, 412165, 412540, 412963, 413386, 413802, 414189, 414613, 414994, 415362, 415790, 416168, 416551, 416954, 417327, 417766, 418143, 418501, 418885, 419294, 419710, 420093]","[411560, 411960, 412264, 412654, 413056, 413477, 413903, 414286, 414681, 415079, 415456, 415867, 416248, 416623, 417029, 417419, 417868, 418200, 418581, 418999, 419374, 419778, 420196]","[12, 162, 242, 36, 241, 198, 238, 207, 19, 57, 155, 39, 62, 54, 96, 63, 164, 217, 75, 147, 9, 29, 143]","[411481, 411898, 412206, 412591, 412991, 413410, 413847, 414223, 414635, 415024, 415389, 415822, 416193, 416576, 416975, 417372, 417805, 418165, 418523, 418924, 419319, 419733, 420140]","[411042, 411442, 411842, 412242, 412642, 413042, 413442, 413842, 414210, 414633, 415014, 415382, 415810, 416188, 416571, 416974, 417347, 417786, 418163, 418521, 418905, 419314, 419730, 420113]",91,OR,L,R,ITMSR,1.1,
2,600,trial,0,13,13,13,trial,"['B', 'S', 'S', 'S', 'S', 'S', 'S', 'S', 'C', 'C', 'C', 'C', 'C', 'C', 'C', 'C', 'C', 'C', 'C', 'C', 'C', 'C', 'C', 'C']","[425601, 426176, 426703, 427277, 427913, 428507, 429093, 429682, 430255, 430855, 431424, 431992, 432502, 433052, 433595, 434145, 434663, 435198, 435716, 436189, 436754, 437303, 437856, 438366]","[425682, 426236, 426812, 427394, 428024, 428607, 429186, 429797, 430372, 430984, 431538, 432107, 432611, 433184, 433710, 434271, 434791, 435333, 435821, 436306, 436868, 437431, 437960, 438495]","[224, 117, 206, 247, 240, 187, 160, 211, 193, 222, 188, 129, 49, 189, 15, 155, 118, 142, 125, 121, 103, 175, 36, 177]","[425612, 426213, 426744, 427323, 427957, 428553, 429119, 429727, 430307, 430908, 431457, 432044, 432530, 433103, 433619, 434192, 434714, 435256, 435739, 436241, 436811, 437361, 437904, 438422]","[425612, 426212, 426812, 427412, 428012, 428612, 429212, 429812, 430275, 430875, 431444, 432012, 432522, 433072, 433615, 434165, 434683, 435218, 435736, 436209, 436774, 437323, 437876, 438386]",91,OR,L,R,ITMSR,1.1,
5,600,trial,0,14,14,14,trial,"['S', 'S', 'S', 'S', 'S', 'S', 'S', 'C', 'C', 'C', 'C', 'C', 'C', 'C', 'C', 'C', 'C', 'C', 'C', 'C', 'C', 'C', 'C']","[444440, 445127, 445769, 446388, 447021, 447673, 448269, 448861, 449463, 450070, 450643, 451269, 451880, 452464, 453107, 453773, 454338, 455020, 455622, 456216, 456828, 457390, 458034]","[444554, 445258, 445886, 446545, 447129, 447761, 448408, 448987, 449598, 450172, 450745, 451345, 451991, 452560, 453175, 453836, 454432, 455091, 455698, 456308, 456909, 457524, 458134]","[32, 245, 234, 40, 142, 229, 14, 244, 253, 194, 181, 174, 95, 137, 224, 6, 100, 253, 35, 113, 220, 122, 235]","[444465, 445160, 445820, 446447, 447074, 447698, 448315, 448889, 449519, 450119, 450675, 451303, 451936, 452497, 453132, 453800, 454372, 455050, 455651, 456246, 456850, 457447, 458070]","[444110, 444710, 445310, 445911, 446510, 447110, 447710, 448310, 448881, 449483, 450091, 450663, 451289, 451900, 452484, 453127, 453793, 454359, 455041, 455642, 456237, 456848, 457410, 458054]",91,OR,L,R,ITMSR,1.1,
5,400,trial,0,15,15,15,trial,"['B', 'S', 'S', 'S', 'S', 'S', 'S', 'C', 'C', 'C', 'C', 'C', 'C', 'C', 'C', 'C', 'C', 'C', 'C', 'C', 'C', 'C', 'C']","[463425, 464078, 464466, 464840, 465276, 465692, 466074, 466494, 466811, 467197, 467613, 468006, 468398, 468830, 469213, 469586, 469974, 470338, 470692, 471056, 471435, 471773, 472117]","[463446, 464098, 464539, 464931, 465340, 465754, 466145, 466554, 466874, 467243, 467668, 468047, 468448, 468850, 469266, 469637, 470022, 470394, 470746, 471103, 471455, 471825, 472169]","[105, 142, 249, 41, 251, 227, 197, 186, 166, 99, 180, 9, 126, 193, 136, 102, 68, 8, 9, 170, 90, 23, 223]","[463425, 464086, 464487, 464855, 465296, 465707, 466096, 466511, 466833, 467217, 467636, 468021, 468420, 468840, 469233, 469607, 469996, 470362, 470714, 471077, 471443, 471799, 472140]","[463437, 463837, 464237, 464637, 465037, 465437, 465837, 466237, 466514, 466831, 467217, 467633, 468026, 468418, 468850, 469233, 469606, 469994, 470359, 470712, 471076, 471455, 471793, 472137]",91,OR,L,R,ITMSR,1.1,
0,600,trial,0,16,16,16,trial,"['S', 'S', 'S', 'S', 'S', 'S', 'S', 'C', 'C', 'C', 'C', 'C', 'C', 'C', 'C', 'C', 'C', 'C', 'C', 'C', 'C', 'C', 'C']","[477980, 478730, 479415, 480061, 480683, 481286, 481848, 482450, 483031, 483609, 484174, 484736, 485274, 485794, 486358, 486932, 487560, 488131, 488680, 489261, 489826, 490351, 490908]","[478083, 478837, 479517, 480142, 480778, 481388, 481968, 482571, 483137, 483704, 484287, 484835, 485344, 485881, 486451, 487003, 487593, 488217, 488767, 489335, 489896, 490424, 490988]","[10, 239, 104, 166, 207, 182, 224, 172, 145, 84, 124, 179, 144, 101, 19, 227, 190, 186, 135, 58, 15, 111, 59]","[478008, 478757, 479447, 480090, 480709, 481315, 481881, 482500, 483077, 483644, 484218, 484774, 485303, 485823, 486388, 486963, 487573, 488160, 488713, 489285, 489846, 490375, 490935]","[477705, 478305, 478905, 479505, 480105, 480705, 481305, 481905, 482470, 483051, 483629, 484194, 484756, 485294, 485814, 486378, 486952, 487580, 488152, 488700, 489281, 489846, 490371, 490928]",91,OR,L,R,ITMSR,1.1,
4,600,trial,0,17,17,17,trial,"['S', 'S', 'S', 'S', 'S', 'S', 'S', 'C', 'C', 'C', 'C', 'C', 'C', 'C', 'C', 'C', 'C', 'C', 'C', 'C', 'C', 'C', 'C']","[496664, 497330, 497996, 498656, 499349, 499953, 500582, 501150, 501795, 502436, 503042, 503711, 504329, 504908, 505517, 506165, 506732, 507339, 507960, 508537, 509728, 510237, 510754]","[496773, 497411, 498107, 498758, 499438, 500042, 500674, 501292, 501889, 502550, 503151, 503809, 504429, 504994, 505589, 506240, 506809, 507406, 508035, 508593, 509830, 510351, 510857]","[243, 28, 104, 96, 61, 46, 17, 95, 29, 21, 12, 3, 31, 47, 94, 210, 197, 86, 12, 197, 195, 186, 179]","[496691, 497361, 498052, 498692, 499389, 499988, 500627, 501219, 501834, 502484, 503083, 503751, 504370, 504947, 505543, 506189, 506759, 507363, 507983, 508557, 509777, 510281, 510792]","[496382, 496983, 497582, 498182, 498782, 499382, 499982, 500582, 501170, 501815, 502456, 503062, 503731, 504349, 504928, 505537, 506185, 506753, 507359, 507980, 508557, 509748, 510257, 510774]",91,OR,L,R,ITMSR,1.1,
1,600,trial,0,18,18,18,trial,"['S', 'S', 'S', 'S', 'S', 'S', 'S', 'C', 'C', 'C', 'C', 'C', 'C', 'C', 'C', 'C', 'C', 'C', 'C', 'C', 'C', 'C', 'C']","[516583, 517141, 517734, 518315, 518956, 519555, 520168, 520740, 521322, 521863, 522432, 523001, 523554, 524114, 524675, 525282, 525802, 526402, 526964, 527506, 528091, 528649, 529176]","[516661, 517252, 517840, 518431, 519056, 519658, 520284, 520883, 521445, 521991, 522544, 523136, 523697, 524254, 524795, 525401, 525939, 526529, 527092, 527635, 528177, 528758, 529317]","[201, 30, 34, 242, 215, 175, 199, 185, 131, 138, 91, 203, 152, 174, 128, 35, 121, 129, 87, 64, 44, 103, 196]","[516605, 517186, 517758, 518366, 518981, 519585, 520215, 520790, 521356, 521912, 522471, 523071, 523614, 524175, 524717, 525323, 525852, 526451, 527022, 527576, 528126, 528691, 529245]","[516108, 516707, 517307, 517907, 518507, 519107, 519707, 520307, 520760, 521342, 521883, 522452, 523021, 523574, 524134, 524695, 525302, 525822, 526423, 526984, 527526, 528111, 528669, 529197]",91,OR,L,R,ITMSR,1.1,
2,400,trial,0,19,19,19,trial,"['S', 'S', 'S', 'S', 'S', 'S', 'S', 'C', 'C', 'C', 'C', 'C', 'C', 'C', 'C', 'C', 'C', 'C', 'C', 'C', 'C', 'C', 'C']","[534947, 535355, 535690, 536065, 536477, 536865, 537315, 537731, 538132, 538536, 538928, 539321, 539757, 540148, 540537, 540928, 541308, 541656, 542045, 542464, 542861, 543285, 543694]","[535055, 535443, 535784, 536159, 536567, 536963, 537407, 537807, 538211, 538612, 538993, 539404, 539813, 540227, 540633, 541019, 541389, 541752, 542136, 542566, 542984, 543382, 543784]","[29, 215, 239, 245, 227, 250, 199, 27, 159, 145, 153, 153, 62, 194, 219, 207, 203, 217, 155, 129, 220, 107, 61]","[534992, 535398, 535732, 536113, 536504, 536889, 537361, 537779, 538156, 538562, 538950, 539352, 539778, 540171, 540576, 540960, 541337, 541706, 542073, 542509, 542921, 543325, 543723]","[534566, 534966, 535366, 535767, 536166, 536566, 536966, 537366, 537751, 538152, 538556, 538948, 539341, 539778, 540168, 540557, 540948, 541328, 541676, 542065, 542484, 542881, 543305, 543714]",91,OR,L,R,ITMSR,1.1,
4,400,trial,0,20,20,20,trial,"['S', 'S', 'S', 'S', 'S', 'S', 'S', 'S', 'C', 'C', 'C', 'C', 'C', 'C', 'C', 'C', 'C', 'C', 'C', 'C', 'C', 'C', 'C', 'C']","[549500, 549892, 550222, 550502, 550872, 551228, 551638, 552034, 552462, 552771, 553147, 553545, 553958, 554309, 554681, 555017, 555388, 555735, 556096, 556437, 556807, 557158, 557499, 557834]","[549620, 550017, 550329, 550599, 550970, 551347, 551750, 552136, 552521, 552857, 553226, 553635, 554049, 554389, 554762, 555117, 555491, 555841, 556207, 556534, 556893, 557234, 557584, 557923]","[54, 39, 18, 40, 18, 43, 39, 31, 250, 251, 172, 177, 162, 159, 193, 221, 222, 203, 236, 205, 198, 176, 163, 197]","[549533, 549943, 550276, 550529, 550897, 551284, 551664, 552058, 552484, 552798, 553175, 553573, 553991, 554335, 554703, 555045, 555423, 555782, 556133, 556468, 556833, 557180, 557526, 557861]","[549364, 549763, 550163, 550563, 550963, 551363, 551763, 552163, 552482, 552792, 553167, 553565, 553978, 554329, 554701, 555037, 555408, 555755, 556116, 556457, 556827, 557178, 557519, 557854]",91,OR,L,R,ITMSR,1.1,
4,400,trial,0,21,21,21,trial,"['S', 'S', 'S', 'S', 'S', 'S', 'S', 'C', 'C', 'C', 'C', 'C', 'C', 'C', 'C', 'C', 'C', 'C', 'C', 'C', 'C', 'C', 'C']","[563590, 564030, 564420, 564841, 565276, 565696, 566156, 566551, 566952, 567329, 567728, 568072, 568451, 568837, 569213, 569560, 569945, 570358, 570707, 571113, 571432, 571835, 572246]","[563696, 564126, 564527, 564930, 565343, 565801, 566262, 566649, 567037, 567416, 567788, 568146, 568539, 568912, 569287, 569668, 570038, 570427, 570798, 571198, 571563, 571922, 572316]","[9, 7, 245, 223, 204, 238, 11, 4, 200, 191, 133, 196, 195, 141, 152, 241, 203, 189, 218, 145, 242, 132, 83]","[563621, 564054, 564451, 564865, 565294, 565720, 566180, 566576, 566977, 567354, 567749, 568094, 568477, 568862, 569238, 569586, 569971, 570381, 570732, 571138, 571489, 571859, 572268]","[563430, 563830, 564230, 564630, 565030, 565430, 565830, 566231, 566572, 566972, 567349, 567748, 568092, 568471, 568857, 569233, 569580, 569965, 570378, 570727, 571133, 571452, 571855, 572266]",91,OR,L,R,ITMSR,1.1,
3,400,trial,0,22,22,22,trial,"['B', 'S', 'S', 'S', 'S', 'S', 'S', 'S', 'C', 'C', 'C', 'C', 'C', 'C', 'C', 'C', 'C', 'C', 'C', 'C', 'C', 'C', 'C', 'C']","[578021, 578439, 578782, 579140, 579552, 579986, 580388, 580788, 581171, 581534, 581936, 582327, 582715, 583071, 583433, 583831, 584189, 584558, 584928, 585274, 585647, 586031, 586382, 586734]","[578058, 578516, 578857, 579214, 579606, 580070, 580473, 580846, 581246, 581599, 581992, 582373, 582753, 583119, 583478, 583877, 584247, 584613, 584997, 585349, 585714, 586087, 586449, 586791]","[135, 199, 9, 188, 53, 226, 205, 86, 233, 143, 70, 249, 102, 67, 238, 132, 58, 141, 177, 219, 155, 236, 206, 99]","[578021, 578472, 578810, 579172, 579577, 580019, 580418, 580812, 581201, 581559, 581963, 582350, 582735, 583095, 583453, 583855, 584213, 584582, 584956, 585302, 585677, 586053, 586409, 586761]","[578033, 578434, 578834, 579234, 579634, 580034, 580434, 580834, 581191, 581554, 581956, 582347, 582735, 583091, 583453, 583852, 584209, 584578, 584948, 585294, 585667, 586051, 586402, 586754]",91,OR,L,R,ITMSR,1.1,
5,400,trial,0,23,23,23,trial,"['S', 'S', 'S', 'S', 'S', 'S', 'S', 'C', 'C', 'C', 'C', 'C', 'C', 'C', 'C', 'C', 'C', 'C', 'C', 'C', 'C', 'C', 'C']","[592372, 592926, 593429, 593807, 594235, 594611, 594984, 595388, 595759, 596099, 596505, 596875, 597226, 597630, 598016, 598362, 598758, 599139, 599506, 599819, 600227, 600617, 600966]","[592514, 593009, 593485, 593865, 594282, 594689, 595060, 595445, 595819, 596214, 596558, 596928, 597291, 597686, 598064, 598423, 598818, 599193, 599554, 599910, 600288, 600668, 601016]","[246, 248, 188, 172, 27, 243, 198, 82, 105, 228, 62, 24, 186, 14, 40, 164, 181, 130, 85, 3, 76, 104, 83]","[592406, 592953, 593451, 593833, 594257, 594639, 595012, 595415, 595786, 596131, 596532, 596899, 597253, 597656, 598039, 598386, 598784, 599164, 599527, 599843, 600253, 600640, 600989]","[592269, 592669, 593069, 593469, 593869, 594269, 594669, 595069, 595408, 595779, 596119, 596525, 596895, 597246, 597650, 598036, 598382, 598778, 599159, 599526, 599839, 600247, 600637, 600986]",91,OR,L,R,ITMSR,1.1,
1,600,trial,0,24,24,24,trial,"['S', 'S', 'S', 'S', 'S', 'S', 'S', 'S', 'C', 'C', 'C', 'C', 'C', 'C', 'C', 'C', 'C', 'C', 'C', 'C', 'C', 'C', 'C', 'C']","[606567, 607100, 607699, 608316, 608880, 609457, 610025, 610633, 611200, 611809, 612400, 613008, 613605, 614249, 614875, 615501, 616056, 616714, 617300, 617904, 618459, 619031, 619612, 620285]","[606690, 607236, 607832, 608442, 609004, 609607, 610190, 610786, 611389, 611923, 612520, 613118, 613731, 614343, 614979, 615591, 616173, 616805, 617449, 618002, 618569, 619169, 619721, 620370]","[79, 61, 49, 62, 34, 31, 58, 56, 53, 193, 214, 145, 161, 80, 65, 251, 90, 51, 185, 166, 166, 202, 56, 126]","[606616, 607159, 607754, 608364, 608928, 609517, 610092, 610697, 611294, 611857, 612428, 613049, 613658, 614284, 614914, 615538, 616113, 616743, 617361, 617932, 618486, 619078, 619644, 620308]","[606510, 607110, 607710, 608310, 608910, 609510, 610110, 610710, 611220, 611829, 612420, 613028, 613625, 614269, 614895, 615521, 616076, 616734, 617320, 617924, 618479, 619052, 619632, 620305]",91,OR,L,R,ITMSR,1.1,
0,400,trial,0,25,25,25,trial,"['S', 'S', 'S', 'S', 'S', 'S', 'S', 'C', 'C', 'C', 'C', 'C', 'C', 'C', 'C', 'C', 'C', 'C', 'C', 'C', 'C', 'C', 'C']","[625966, 626408, 626785, 627191, 627622, 627999, 628405, 628769, 629172, 629538, 629916, 630301, 630686, 631100, 631459, 631876, 632264, 632624, 633024, 633486, 633858, 634212, 634555]","[626049, 626488, 626857, 627244, 627695, 628082, 628452, 628848, 629256, 629624, 630003, 630394, 630777, 631189, 631565, 631972, 632345, 632750, 633139, 633574, 633943, 634284, 634639]","[20, 221, 237, 84, 248, 251, 110, 249, 3, 15, 7, 19, 246, 220, 172, 215, 221, 6, 251, 210, 187, 165, 174]","[625990, 626430, 626806, 627211, 627642, 628023, 628425, 628791, 629195, 629563, 629940, 630324, 630713, 631129, 631510, 631899, 632287, 632677, 633081, 633510, 633880, 634232, 634583]","[625623, 626022, 626422, 626822, 627222, 627622, 628022, 628422, 628789, 629192, 629558, 629936, 630321, 630706, 631120, 631479, 631896, 632284, 632644, 633044, 633506, 633878, 634232, 634575]",91,OR,L,R,ITMSR,1.1,
1,400,trial,0,26,26,26,trial,"['S', 'S', 'S', 'S', 'S', 'S', 'S', 'S', 'C', 'C', 'C', 'C', 'C', 'C', 'C', 'C', 'C', 'C', 'C', 'C', 'C', 'C', 'C', 'C']","[640179, 640515, 640867, 641157, 641537, 641906, 642291, 642729, 643176, 643497, 643890, 644265, 644656, 644981, 645358, 645758, 646074, 646439, 646788, 647170, 647512, 647942, 648231, 648612]","[640292, 640632, 640958, 641261, 641627, 642011, 642395, 642800, 643257, 643596, 643963, 644336, 644721, 645065, 645413, 645820, 646156, 646523, 646861, 647222, 647584, 648020, 648327, 648690]","[249, 7, 218, 0, 8, 21, 12, 227, 190, 188, 126, 93, 87, 59, 231, 99, 145, 91, 9, 24, 218, 88, 87, 3]","[640224, 640573, 640889, 641179, 641558, 641955, 642316, 642751, 643205, 643554, 643917, 644292, 644683, 645021, 645381, 645781, 646110, 646475, 646810, 647202, 647544, 647967, 648276, 648642]","[639998, 640398, 640798, 641198, 641598, 641998, 642398, 642798, 643196, 643517, 643910, 644285, 644676, 645001, 645378, 645778, 646094, 646459, 646808, 647190, 647532, 647962, 648251, 648632]",91,OR,L,R,ITMSR,1.1,
0,600,trial,0,27,27,27,trial,"['S', 'S', 'S', 'S', 'S', 'S', 'S', 'C', 'C', 'C', 'C', 'C', 'C', 'C', 'C', 'C', 'C', 'C', 'C', 'C', 'C', 'C', 'C']","[654337, 655297, 655946, 656572, 657146, 657793, 658388, 658999, 659600, 660175, 660681, 661244, 661806, 662339, 662894, 663501, 664026, 664586, 665189, 665682, 666241, 666789, 667301]","[654468, 655404, 656068, 656705, 657275, 657906, 658534, 659125, 659720, 660282, 660811, 661369, 661935, 662456, 662999, 663599, 664118, 664667, 665289, 665812, 666343, 666840, 667401]","[254, 1, 23, 67, 73, 8, 68, 55, 30, 7, 248, 210, 142, 153, 122, 100, 35, 58, 111, 56, 75, 160, 98]","[654374, 655327, 656006, 656621, 657180, 657839, 658441, 659053, 659646, 660209, 660741, 661297, 661862, 662387, 662946, 663529, 664058, 664612, 665230, 665726, 666286, 666812, 667355]","[654275, 654875, 655475, 656075, 656675, 657275, 657875, 658476, 659019, 659620, 660195, 660701, 661264, 661826, 662360, 662914, 663521, 664046, 664606, 665209, 665702, 666261, 666809, 667321]",91,OR,L,R,ITMSR,1.1,
1,400,trial,0,28,28,28,trial,"['S', 'S', 'S', 'S', 'S', 'S', 'S', 'C', 'C', 'C', 'C', 'C', 'C', 'C', 'C', 'C', 'C', 'C', 'C', 'C', 'C', 'C', 'C']","[673308, 673848, 674202, 674622, 674997, 675425, 675834, 676229, 676673, 677082, 677477, 677879, 678273, 678722, 679094, 679465, 679864, 680225, 680586, 680964, 681407, 681799, 682151]","[673405, 673901, 674286, 674698, 675077, 675506, 675910, 676315, 676746, 677157, 677544, 677926, 678346, 678801, 679175, 679549, 679944, 680284, 680706, 681060, 681468, 681860, 682201]","[219, 92, 228, 183, 188, 155, 138, 224, 206, 150, 130, 32, 184, 65, 71, 240, 231, 64, 89, 22, 219, 38, 1]","[673335, 673867, 674225, 674644, 675023, 675448, 675860, 676251, 676704, 677107, 677498, 677901, 678293, 678748, 679118, 679492, 679892, 680240, 680627, 681000, 681434, 681810, 682174]","[673038, 673438, 673838, 674238, 674638, 675038, 675438, 675838, 676249, 676694, 677102, 677497, 677899, 678293, 678743, 679114, 679485, 679884, 680245, 680606, 680984, 681427, 681819, 682171]",91,OR,L,R,ITMSR,1.1,
3,600,trial,0,29,29,29,trial,"['S', 'S', 'S', 'S', 'S', 'S', 'S', 'S', 'C', 'C', 'C', 'C', 'C', 'C', 'C', 'C', 'C', 'C', 'C', 'C', 'C', 'C', 'C', 'C']","[688055, 688452, 688965, 689563, 690171, 690727, 691338, 691910, 692559, 693050, 693581, 694149, 694769, 695358, 695993, 696570, 697170, 697681, 698264, 698830, 699366, 699871, 700380, 700912]","[688126, 688595, 689140, 689715, 690313, 690873, 691470, 692033, 692618, 693177, 693657, 694233, 694852, 695481, 696079, 696645, 697239, 697774, 698341, 698952, 699488, 699950, 700536, 701048]","[248, 10, 94, 115, 105, 98, 99, 52, 244, 0, 170, 158, 97, 81, 104, 136, 166, 8, 239, 16, 255, 235, 50, 160]","[688086, 688488, 688996, 689591, 690197, 690754, 691364, 691938, 692585, 693081, 693614, 694185, 694805, 695403, 696035, 696607, 697204, 697724, 698301, 698869, 699405, 699906, 700408, 700969]","[687852, 688452, 689052, 689652, 690252, 690852, 691452, 692052, 692579, 693070, 693601, 694169, 694789, 695378, 696013, 696590, 697190, 697701, 698285, 698850, 699386, 699891, 700400, 700932]",91,OR,L,R,ITMSR,1.1,
4,600,trial,0,30,30,30,trial,"['B', 'S', 'S', 'S', 'S', 'S', 'S', 'S', 'C', 'C', 'C', 'C', 'C', 'C', 'C', 'C', 'C', 'C', 'C', 'C', 'C', 'C', 'C', 'C']","[753899, 754337, 754929, 755568, 756190, 756852, 757449, 758076, 758704, 759287, 759948, 760499, 761102, 761715, 762330, 762948, 763540, 764150, 764729, 765346, 765981, 766582, 767197, 767754]","[753994, 754475, 755086, 755745, 756342, 757014, 757587, 758193, 758834, 759397, 760039, 760606, 761236, 761843, 762454, 763073, 763693, 764294, 764884, 765496, 766135, 766672, 767304, 767881]","[78, 54, 48, 52, 12, 53, 29, 253, 223, 251, 210, 178, 204, 129, 130, 208, 237, 241, 218, 195, 181, 155, 178, 224]","[753899, 754391, 754996, 755632, 756247, 756922, 757509, 758100, 758765, 759311, 759973, 760524, 761158, 761747, 762362, 762976, 763598, 764212, 764783, 765391, 766034, 766609, 767223, 767778]","[753909, 754509, 755109, 755709, 756310, 756909, 757509, 758109, 758724, 759307, 759968, 760519, 761122, 761735, 762350, 762968, 763560, 764170, 764749, 765366, 766001, 766602, 767217, 767774]",91,OR,L,R,ITMSR,1.1,
2,600,trial,0,31,31,31,trial,"['S', 'S', 'S', 'S', 'S', 'S', 'S', 'C', 'C', 'C', 'C', 'C', 'C', 'C', 'C', 'C', 'C', 'C', 'C', 'C', 'C', 'C', 'C']","[773542, 774139, 774772, 775377, 776009, 776571, 777209, 777805, 778385, 778952, 779508, 780073, 780610, 781196, 781746, 782331, 782962, 783540, 784159, 784724, 785258, 785840, 786404]","[773654, 774235, 774895, 775513, 776124, 776699, 777338, 777919, 778518, 779056, 779624, 780193, 780779, 781333, 781911, 782488, 783083, 783689, 784253, 784809, 785364, 785925, 786515]","[30, 239, 13, 17, 179, 192, 196, 86, 187, 150, 117, 217, 14, 211, 231, 233, 226, 243, 209, 159, 124, 103, 192]","[773591, 774167, 774828, 775436, 776071, 776601, 777268, 777872, 778443, 778979, 779533, 780126, 780679, 781252, 781808, 782390, 783017, 783598, 784182, 784750, 785304, 785861, 786433]","[773118, 773719, 774318, 774918, 775518, 776118, 776718, 777318, 777825, 778405, 778972, 779528, 780093, 780631, 781216, 781766, 782351, 782982, 783560, 784179, 784744, 785278, 785860, 786424]",91,OR,L,R,ITMSR,1.1,
4,400,trial,0,32,32,32,trial,"['S', 'S', 'S', 'S', 'S', 'S', 'S', 'C', 'C', 'C', 'C', 'C', 'C', 'C', 'C', 'C', 'C', 'C', 'C', 'C', 'C', 'C', 'C']","[792637, 793027, 793342, 793751, 794129, 794498, 794904, 795303, 795683, 796065, 796447, 796811, 797201, 797577, 797942, 798270, 798662, 799024, 799391, 799723, 800119, 800475, 800844]","[792710, 793115, 793444, 793838, 794226, 794600, 794995, 795389, 795763, 796146, 796525, 796883, 797271, 797658, 798001, 798344, 798712, 799089, 799458, 799805, 800199, 800564, 800926]","[199, 110, 147, 235, 232, 59, 8, 255, 16, 250, 240, 201, 203, 176, 236, 172, 236, 133, 38, 54, 59, 69, 55]","[792662, 793070, 793395, 793771, 794149, 794516, 794925, 795320, 795703, 796085, 796470, 796828, 797222, 797598, 797963, 798299, 798679, 799044, 799416, 799751, 800143, 800501, 800868]","[792208, 792608, 793008, 793408, 793808, 794208, 794608, 795009, 795323, 795703, 796085, 796467, 796831, 797221, 797597, 797962, 798290, 798682, 799044, 799411, 799744, 800139, 800495, 800864]",91,OR,L,R,ITMSR,1.1,
1,600,trial,0,33,33,33,trial,"['B', 'S', 'S', 'S', 'S', 'S', 'S', 'S', 'C', 'C', 'C', 'C', 'C', 'C', 'C', 'C', 'C', 'C', 'C', 'C', 'C', 'C', 'C', 'C']","[806415, 806842, 807430, 808071, 808706, 809320, 809923, 810493, 811098, 811632, 812218, 812775, 813370, 813960, 814537, 815075, 815700, 816345, 816907, 817524, 818092, 818661, 819263, 819855]","[806439, 806930, 807532, 808180, 808784, 809411, 810008, 810591, 811189, 811739, 812320, 812882, 813498, 814051, 814645, 815184, 815783, 816423, 817028, 817610, 818222, 818794, 819354, 819944]","[245, 7, 31, 14, 8, 31, 18, 19, 217, 253, 225, 19, 35, 253, 10, 253, 188, 222, 249, 239, 16, 239, 198, 177]","[806415, 806863, 807449, 808093, 808725, 809340, 809942, 810512, 811119, 811654, 812242, 812795, 813390, 813980, 814561, 815097, 815720, 816365, 816929, 817545, 818152, 818719, 819286, 819878]","[806427, 807027, 807627, 808227, 808827, 809427, 810028, 810627, 811118, 811652, 812238, 812795, 813390, 813980, 814557, 815095, 815720, 816365, 816927, 817544, 818112, 818681, 819283, 819875]",91,OR,L,R,ITMSR,1.1,
0,400,trial,0,34,34,34,trial,"['S', 'S', 'S', 'S', 'S', 'S', 'S', 'C', 'C', 'C', 'C', 'C', 'C', 'C', 'C', 'C', 'C', 'C', 'C', 'C', 'C', 'C', 'C']","[825197, 825868, 826261, 826702, 827131, 827498, 827893, 828339, 828704, 829078, 829485, 829889, 830262, 830637, 831089, 831426, 831849, 832291, 832737, 833200, 833553, 833918, 834338]","[825322, 825985, 826388, 826804, 827207, 827608, 828028, 828442, 828786, 829165, 829568, 829983, 830362, 830726, 831179, 831507, 831922, 832376, 832814, 833259, 833637, 833969, 834400]","[210, 178, 205, 27, 235, 17, 16, 4, 232, 227, 195, 170, 195, 165, 162, 107, 101, 91, 209, 204, 231, 79, 149]","[825221, 825921, 826322, 826725, 827152, 827521, 827950, 828361, 828724, 829101, 829507, 829916, 830286, 830663, 831113, 831454, 831870, 832316, 832758, 833217, 833573, 833938, 834355]","[825184, 825584, 825985, 826384, 826784, 827184, 827584, 827984, 828359, 828724, 829099, 829505, 829910, 830282, 830657, 831109, 831447, 831869, 832311, 832757, 833220, 833573, 833938, 834358]",91,OR,L,R,ITMSR,1.1,
0,600,trial,0,35,35,35,trial,"['S', 'S', 'S', 'S', 'S', 'S', 'S', 'S', 'C', 'C', 'C', 'C', 'C', 'C', 'C', 'C', 'C', 'C', 'C', 'C', 'C', 'C', 'C', 'C']","[839781, 840221, 840846, 841456, 842080, 842681, 843304, 843902, 844506, 845112, 845782, 846287, 846822, 847420, 847972, 848526, 849041, 849617, 850216, 850759, 851380, 851935, 852487, 853031]","[839883, 840307, 840982, 841585, 842148, 842785, 843422, 843960, 844556, 845161, 845840, 846365, 846871, 847474, 848067, 848613, 849147, 849698, 850278, 850892, 851444, 851991, 852556, 853092]","[84, 81, 106, 122, 86, 111, 124, 23, 2, 7, 4, 65, 79, 225, 65, 46, 37, 241, 4, 97, 19, 1, 87, 204]","[839809, 840246, 840868, 841477, 842102, 842700, 843323, 843925, 844528, 845132, 845807, 846313, 846845, 847441, 847997, 848552, 849068, 849646, 850242, 850781, 851404, 851959, 852508, 853055]","[839743, 840342, 840942, 841542, 842142, 842742, 843342, 843942, 844526, 845132, 845802, 846307, 846842, 847440, 847992, 848546, 849061, 849637, 850236, 850779, 851400, 851955, 852507, 853051]",91,OR,L,R,ITMSR,1.1,
1,400,trial,0,36,36,36,trial,"['S', 'S', 'S', 'S', 'S', 'S', 'S', 'S', 'C', 'C', 'C', 'C', 'C', 'C', 'C', 'C', 'C', 'C', 'C', 'C', 'C', 'C', 'C', 'C']","[858400, 858840, 859180, 859493, 859890, 860277, 860677, 861096, 861474, 861853, 862241, 862588, 862962, 863399, 863795, 864129, 864520, 864960, 865352, 865722, 866042, 866420, 866817, 867194]","[858535, 858909, 859241, 859557, 859952, 860361, 860800, 861170, 861543, 861902, 862289, 862637, 863020, 863460, 863818, 864189, 864565, 865017, 865419, 865786, 866137, 866487, 866846, 867214]","[33, 138, 187, 211, 138, 236, 40, 43, 188, 13, 96, 70, 143, 104, 49, 172, 18, 77, 224, 144, 70, 121, 178, 80]","[858438, 858867, 859203, 859515, 859913, 860299, 860699, 861119, 861498, 861877, 862263, 862608, 862988, 863428, 863805, 864157, 864542, 864988, 865381, 865752, 866077, 866452, 866832, 867197]","[858400, 858799, 859199, 859599, 859999, 860399, 860800, 861199, 861494, 861873, 862261, 862608, 862982, 863419, 863815, 864149, 864540, 864980, 865372, 865742, 866062, 866440, 866837, 867214]",91,OR,L,R,ITMSR,1.1,
2,400,trial,0,37,37,37,trial,"['S', 'S', 'S', 'S', 'S', 'S', 'S', 'C', 'C', 'C', 'C', 'C', 'C', 'C', 'C', 'C', 'C', 'C', 'C', 'C', 'C', 'C', 'C']","[872821, 873298, 873657, 874010, 874396, 875132, 875558, 875952, 876751, 877143, 877858, 878261, 878643, 879052, 879426, 879778, 880175, 880574, 880956, 881341, 881722, 882108, 882468]","[872870, 873333, 873677, 874047, 874421, 875156, 875578, 875972, 876794, 877179, 877956, 878319, 878685, 879101, 879476, 879838, 880284, 880623, 881010, 881394, 881790, 882165, 882524]","[100, 230, 111, 113, 120, 180, 86, 58, 10, 156, 5, 27, 182, 30, 77, 154, 174, 252, 71, 4, 144, 121, 116]","[872840, 873314, 873665, 874028, 874407, 875143, 875564, 875954, 876772, 877159, 877883, 878283, 878661, 879074, 879447, 879801, 880198, 880590, 880977, 881363, 881745, 882128, 882488]","[872821, 873221, 873621, 874021, 874421, 874821, 875222, 875621, 875972, 876771, 877163, 877878, 878281, 878663, 879072, 879447, 879798, 880195, 880594, 880976, 881361, 881742, 882128, 882488]",91,OR,L,R,ITMSR,1.1,
3,400,trial,0,38,38,38,trial,"['S', 'S', 'S', 'S', 'S', 'S', 'S', 'C', 'C', 'C', 'C', 'C', 'C', 'C', 'C', 'C', 'C', 'C', 'C', 'C', 'C', 'C', 'C']","[888383, 888738, 889144, 889576, 889947, 890348, 890806, 891180, 891561, 891957, 892329, 892715, 893125, 893507, 893910, 894269, 894645, 895029, 895382, 895822, 896185, 896566, 896929]","[888493, 888867, 889263, 889673, 890055, 890465, 890911, 891301, 891671, 892052, 892420, 892806, 893203, 893605, 894008, 894372, 894748, 895114, 895490, 895912, 896278, 896673, 897049]","[46, 55, 66, 31, 250, 1, 221, 195, 150, 182, 99, 106, 131, 181, 66, 194, 189, 196, 169, 128, 73, 121, 179]","[888408, 888791, 889198, 889598, 889971, 890372, 890830, 891233, 891590, 891981, 892363, 892740, 893163, 893529, 893937, 894294, 894666, 895051, 895406, 895847, 896210, 896592, 896983]","[888084, 888483, 888883, 889283, 889683, 890083, 890483, 890883, 891200, 891581, 891977, 892349, 892735, 893145, 893528, 893930, 894289, 894665, 895049, 895403, 895842, 896205, 896586, 896949]",91,OR,L,R,ITMSR,1.1,
4,600,trial,0,39,39,39,trial,"['S', 'S', 'S', 'S', 'S', 'S', 'S', 'S', 'C', 'C', 'C', 'C', 'C', 'C', 'C', 'C', 'C', 'C', 'C', 'C', 'C', 'C', 'C', 'C']","[902701, 903178, 903759, 904276, 904860, 905496, 906098, 906660, 907231, 907762, 908385, 908999, 909556, 910156, 910785, 911438, 911956, 912544, 913093, 913674, 914216, 914734, 915268, 915769]","[902804, 903306, 903896, 904429, 905021, 905616, 906186, 906756, 907331, 907892, 908478, 909095, 909644, 910242, 910893, 911531, 912053, 912611, 913191, 913745, 914295, 914808, 915340, 915854]","[211, 217, 216, 228, 244, 248, 227, 99, 122, 171, 105, 133, 140, 105, 157, 118, 93, 254, 122, 233, 94, 28, 178, 60]","[902726, 903206, 903818, 904340, 904931, 905554, 906118, 906681, 907254, 907817, 908431, 909040, 909601, 910189, 910832, 911483, 911996, 912567, 913140, 913697, 914245, 914758, 915295, 915814]","[902513, 903112, 903712, 904312, 904912, 905512, 906113, 906712, 907251, 907782, 908405, 909019, 909576, 910176, 910806, 911458, 911976, 912564, 913113, 913694, 914236, 914754, 915288, 915789]",91,OR,L,R,ITMSR,1.1,
5,600,trial,0,40,40,40,trial,"['S', 'S', 'S', 'S', 'S', 'S', 'S', 'C', 'C', 'C', 'C', 'C', 'C', 'C', 'C', 'C', 'C', 'C', 'C', 'C', 'C', 'C', 'C']","[921537, 922170, 922804, 923362, 923967, 924590, 925217, 925773, 926367, 926983, 927536, 928098, 928686, 929262, 929869, 930410, 931022, 931595, 932209, 932765, 933394, 933972, 934605]","[921658, 922302, 922914, 923475, 924076, 924715, 925313, 925907, 926503, 927071, 927652, 928192, 928791, 929384, 929954, 930528, 931099, 931699, 932291, 932835, 933462, 934052, 934679]","[237, 41, 221, 215, 226, 172, 149, 168, 156, 132, 185, 122, 134, 188, 82, 153, 218, 132, 199, 135, 38, 170, 102]","[921569, 922196, 922829, 923388, 923992, 924624, 925246, 925807, 926413, 927010, 927570, 928139, 928723, 929319, 929898, 930466, 931051, 931631, 932245, 932794, 933427, 934001, 934635]","[921138, 921737, 922337, 922937, 923537, 924137, 924737, 925337, 925793, 926387, 927003, 927556, 928118, 928706, 929282, 929889, 930430, 931042, 931615, 932229, 932785, 933414, 933992, 934625]",91,OR,L,R,ITMSR,1.1,
2,400,trial,0,41,41,41,trial,"['B', 'S', 'S', 'S', 'S', 'S', 'S', 'S', 'C', 'C', 'C', 'C', 'C', 'C', 'C', 'C', 'C', 'C', 'C', 'C', 'C', 'C', 'C', 'C']","[940088, 940529, 940893, 941248, 941629, 942020, 942394, 942854, 943214, 943588, 943985, 944355, 944737, 945099, 945485, 945897, 946262, 946616, 946980, 947324, 947652, 947997, 948290, 948644]","[940108, 940609, 940969, 941339, 941720, 942111, 942505, 942952, 943330, 943686, 944072, 944457, 944820, 945203, 945581, 945983, 946345, 946707, 947061, 947401, 947732, 948079, 948370, 948723]","[197, 47, 20, 29, 52, 59, 36, 57, 46, 40, 16, 17, 238, 240, 224, 206, 229, 223, 72, 6, 201, 58, 84, 85]","[940088, 940552, 940916, 941273, 941656, 942045, 942425, 942881, 943242, 943611, 944011, 944386, 944761, 945131, 945511, 945922, 946288, 946643, 947008, 947349, 947680, 948029, 948320, 948669]","[940099, 940499, 940899, 941299, 941699, 942099, 942499, 942899, 943234, 943608, 944005, 944375, 944757, 945119, 945505, 945917, 946282, 946636, 947000, 947344, 947672, 948017, 948311, 948664]",91,OR,L,R,ITMSR,1.1,
2,600,trial,0,42,42,42,trial,"['S', 'S', 'S', 'S', 'S', 'S', 'S', 'C', 'C', 'C', 'C', 'C', 'C', 'C', 'C', 'C', 'C', 'C', 'C', 'C', 'C', 'C', 'C']","[954546, 955170, 955835, 956294, 957115, 957776, 958449, 959076, 959670, 960287, 960886, 961438, 962064, 962635, 963167, 963771, 964319, 964861, 965359, 965888, 966392, 966895, 967397]","[954650, 955261, 955908, 956425, 957195, 957890, 958527, 959154, 959739, 960338, 960953, 961507, 962117, 962699, 963271, 963848, 964381, 964976, 965423, 965951, 966462, 966952, 967453]","[33, 64, 241, 26, 47, 56, 37, 84, 69, 233, 34, 233, 124, 28, 24, 253, 180, 174, 71, 145, 217, 254, 10]","[954575, 955195, 955866, 956321, 957142, 957802, 958478, 959099, 959692, 960312, 960911, 961466, 962091, 962660, 963195, 963796, 964349, 964893, 965382, 965913, 966420, 966920, 967421]","[954377, 954977, 955577, 956177, 956777, 957377, 957977, 958577, 959096, 959690, 960307, 960906, 961458, 962084, 962655, 963187, 963791, 964339, 964881, 965379, 965908, 966412, 966915, 967417]",91,OR,L,R,ITMSR,1.1,
5,600,trial,0,43,43,43,trial,"['S', 'S', 'S', 'S', 'S', 'S', 'S', 'C', 'C', 'C', 'C', 'C', 'C', 'C', 'C', 'C', 'C', 'C', 'C', 'C', 'C', 'C', 'C']","[973194, 974083, 974758, 975412, 976024, 976657, 977239, 977892, 978383, 978985, 979578, 980156, 980704, 981207, 981847, 982364, 982896, 983416, 983941, 984451, 984930, 985372, 985864]","[973258, 974132, 974828, 975472, 976125, 976713, 977307, 978004, 978488, 979063, 979628, 980232, 980767, 981294, 981900, 982466, 982956, 983519, 984003, 984536, 985017, 985508, 985944]","[2, 127, 235, 180, 22, 29, 196, 219, 238, 12, 187, 8, 105, 164, 75, 114, 231, 122, 167, 66, 164, 183, 251]","[973207, 974106, 974785, 975438, 976053, 976683, 977265, 977925, 978410, 979017, 979600, 980183, 980729, 981244, 981871, 982398, 982922, 983450, 983969, 984484, 984961, 985406, 985902]","[973194, 973794, 974394, 974994, 975594, 976194, 976794, 977394, 977912, 978403, 979005, 979598, 980176, 980724, 981227, 981867, 982384, 982916, 983436, 983961, 984471, 984950, 985392, 985884]",91,OR,L,R,ITMSR,1.1,
5,400,trial,0,44,44,44,trial,"['S', 'S', 'S', 'S', 'S', 'S', 'S', 'C', 'C', 'C', 'C', 'C', 'C', 'C', 'C', 'C', 'C', 'C', 'C', 'C', 'C', 'C', 'C']","[991748, 992156, 992505, 992898, 993280, 993735, 994127, 994565, 994957, 995335, 995688, 996048, 996481, 996914, 997292, 997688, 998113, 998482, 998885, 999252, 999666, 1000040, 1000428]","[991858, 992261, 992604, 992992, 993368, 993806, 994220, 994646, 995048, 995441, 995790, 996146, 996570, 996954, 997371, 997761, 998192, 998568, 998961, 999337, 999715, 1000125, 1000510]","[255, 247, 228, 185, 197, 167, 186, 147, 149, 175, 181, 123, 87, 36, 114, 244, 102, 139, 111, 68, 129, 97, 86]","[991779, 992189, 992533, 992925, 993306, 993759, 994152, 994591, 994981, 995374, 995718, 996080, 996510, 996934, 997318, 997715, 998138, 998511, 998910, 999279, 999689, 1000066, 1000453]","[991387, 991788, 992187, 992587, 992987, 993387, 993787, 994187, 994585, 994977, 995355, 995708, 996068, 996501, 996934, 997312, 997708, 998133, 998502, 998905, 999272, 999686, 1000060, 1000449]",91,OR,L,R,ITMSR,1.1,
5,400,trial,0,45,45,45,trial,"['S', 'S', 'S', 'S', 'S', 'S', 'S', 'C', 'C', 'C', 'C', 'C', 'C', 'C', 'C', 'C', 'C', 'C', 'C', 'C', 'C', 'C', 'C']","[1006433, 1006824, 1007191, 1007601, 1007989, 1008434, 1008823, 1009265, 1009635, 1010021, 1010394, 1010768, 1011156, 1011508, 1011828, 1012215, 1012595, 1012931, 1013281, 1013667, 1014111, 1014450, 1014860]","[1006522, 1006898, 1007294, 1007678, 1008094, 1008510, 1008920, 1009368, 1009692, 1010091, 1010492, 1010837, 1011227, 1011587, 1011922, 1012299, 1012680, 1013031, 1013390, 1013750, 1014198, 1014554, 1014960]","[221, 154, 219, 195, 184, 161, 189, 187, 119, 125, 183, 103, 118, 151, 125, 67, 62, 127, 116, 74, 89, 94, 250]","[1006456, 1006846, 1007216, 1007625, 1008015, 1008458, 1008843, 1009288, 1009655, 1010044, 1010441, 1010791, 1011181, 1011531, 1011867, 1012238, 1012623, 1012977, 1013314, 1013696, 1014140, 1014484, 1014897]","[1006094, 1006494, 1006894, 1007294, 1007694, 1008094, 1008494, 1008894, 1009285, 1009655, 1010041, 1010414, 1010788, 1011176, 1011528, 1011848, 1012235, 1012615, 1012952, 1013301, 1013687, 1014131, 1014470, 1014880]",91,OR,L,R,ITMSR,1.1,
0,400,trial,0,46,46,46,trial,"['S', 'S', 'S', 'S', 'S', 'S', 'S', 'S', 'C', 'C', 'C', 'C', 'C', 'C', 'C', 'C', 'C', 'C', 'C', 'C', 'C', 'C', 'C', 'C']","[1020263, 1020715, 1021064, 1021458, 1021813, 1022225, 1022602, 1023025, 1023386, 1023752, 1024193, 1024587, 1024951, 1025353, 1025697, 1026084, 1026461, 1026828, 1027233, 1027593, 1027987, 1028396, 1028738, 1029155]","[1020360, 1020806, 1021168, 1021545, 1021905, 1022313, 1022699, 1023087, 1023471, 1023841, 1024273, 1024660, 1025036, 1025436, 1025794, 1026179, 1026558, 1026932, 1027319, 1027680, 1028084, 1028471, 1028825, 1029233]","[188, 138, 186, 195, 219, 162, 204, 49, 180, 156, 112, 122, 171, 149, 168, 145, 108, 120, 121, 159, 132, 177, 171, 152]","[1020288, 1020750, 1021114, 1021483, 1021842, 1022255, 1022632, 1023048, 1023413, 1023779, 1024219, 1024617, 1024980, 1025383, 1025731, 1026119, 1026495, 1026865, 1027265, 1027625, 1028017, 1028421, 1028763, 1029179]","[1020263, 1020663, 1021063, 1021463, 1021863, 1022263, 1022663, 1023064, 1023406, 1023772, 1024214, 1024607, 1024971, 1025373, 1025717, 1026104, 1026481, 1026848, 1027253, 1027613, 1028007, 1028416, 1028758, 1029175]",91,OR,L,R,ITMSR,1.1,
3,600,trial,0,47,47,47,trial,"['S', 'S', 'S', 'S', 'S', 'S', 'S', 'C', 'C', 'C', 'C', 'C', 'C', 'C', 'C', 'C', 'C', 'C', 'C', 'C', 'C', 'C', 'C']","[1034883, 1035572, 1036167, 1036798, 1037369, 1037995, 1038577, 1039157, 1039753, 1040270, 1040794, 1041312, 1041847, 1042355, 1042884, 1043405, 1043919, 1044408, 1044912, 1045427, 1045964, 1046449, 1046923]","[1034983, 1035683, 1036296, 1036878, 1037470, 1038098, 1038668, 1039264, 1039863, 1040376, 1040920, 1041446, 1041961, 1042460, 1042976, 1043522, 1044001, 1044496, 1045014, 1045518, 1046054, 1046540, 1047016]","[11, 242, 15, 240, 242, 209, 243, 8, 240, 243, 218, 239, 201, 201, 65, 181, 45, 122, 174, 160, 175, 89, 38]","[1034909, 1035596, 1036198, 1036818, 1037393, 1038020, 1038601, 1039181, 1039778, 1040293, 1040849, 1041374, 1041905, 1042408, 1042912, 1043464, 1043946, 1044433, 1044941, 1045450, 1046025, 1046476, 1046958]","[1034528, 1035128, 1035728, 1036328, 1036929, 1037528, 1038128, 1038728, 1039177, 1039773, 1040290, 1040814, 1041332, 1041867, 1042375, 1042904, 1043425, 1043939, 1044428, 1044932, 1045447, 1045984, 1046469, 1046943]",91,OR,L,R,ITMSR,1.1,
3,600,trial,0,48,48,48,trial,"['S', 'S', 'S', 'S', 'S', 'S', 'S', 'S', 'C', 'C', 'C', 'C', 'C', 'C', 'C', 'C', 'C', 'C', 'C', 'C', 'C', 'C', 'C', 'C']","[1052290, 1052749, 1053327, 1053942, 1054569, 1055167, 1055781, 1056359, 1056956, 1057536, 1058123, 1058665, 1059208, 1059811, 1060306, 1060848, 1061305, 1061766, 1062298, 1062822, 1063322, 1063868, 1064410, 1064988]","[1052411, 1052849, 1053416, 1054042, 1054682, 1055306, 1055894, 1056466, 1057033, 1057623, 1058187, 1058704, 1059310, 1059856, 1060400, 1060943, 1061413, 1061893, 1062419, 1062925, 1063402, 1063959, 1064508, 1065035]","[0, 31, 210, 191, 143, 176, 164, 112, 88, 49, 147, 164, 177, 59, 216, 217, 108, 115, 218, 203, 88, 150, 152, 108]","[1052317, 1052773, 1053349, 1053969, 1054593, 1055193, 1055808, 1056382, 1056991, 1057563, 1058147, 1058688, 1059235, 1059828, 1060334, 1060873, 1061331, 1061795, 1062367, 1062852, 1063348, 1063896, 1064440, 1065011]","[1052281, 1052881, 1053481, 1054082, 1054682, 1055282, 1055882, 1056482, 1056976, 1057556, 1058143, 1058685, 1059228, 1059831, 1060326, 1060868, 1061325, 1061786, 1062318, 1062842, 1063342, 1063888, 1064430, 1065008]",91,OR,L,R,ITMSR,1.1,
1,400,trial,0,49,49,49,trial,"['S', 'S', 'S', 'S', 'S', 'S', 'S', 'S', 'C', 'C', 'C', 'C', 'C', 'C', 'C', 'C', 'C', 'C', 'C', 'C', 'C', 'C', 'C', 'C']","[1070519, 1070913, 1071225, 1071553, 1071937, 1072353, 1072811, 1073249, 1073632, 1074017, 1074429, 1074778, 1075166, 1075529, 1075892, 1076245, 1076636, 1076996, 1077376, 1077755, 1078149, 1078560, 1078936, 1079303]","[1070653, 1071047, 1071335, 1071661, 1072060, 1072412, 1072864, 1073321, 1073723, 1074082, 1074479, 1074836, 1075192, 1075581, 1075987, 1076284, 1076681, 1077060, 1077425, 1077812, 1078193, 1078601, 1078975, 1079346]","[218, 2, 228, 72, 94, 22, 40, 171, 80, 6, 127, 41, 125, 2, 214, 92, 192, 71, 52, 60, 71, 31, 218, 83]","[1070551, 1070948, 1071255, 1071576, 1071959, 1072372, 1072832, 1073274, 1073667, 1074039, 1074450, 1074798, 1075181, 1075549, 1075914, 1076262, 1076656, 1077016, 1077392, 1077775, 1078164, 1078576, 1078951, 1079319]","[1070424, 1070824, 1071224, 1071624, 1072024, 1072424, 1072824, 1073224, 1073652, 1074037, 1074449, 1074798, 1075186, 1075549, 1075912, 1076265, 1076656, 1077016, 1077396, 1077775, 1078169, 1078580, 1078957, 1079323]",91,OR,L,R,ITMSR,1.1,
3,400,trial,0,50,50,50,trial,"['S', 'S', 'S', 'S', 'S', 'S', 'S', 'S', 'C', 'C', 'C', 'C', 'C', 'C', 'C', 'C', 'C', 'C', 'C', 'C', 'C', 'C', 'C', 'C']","[1085209, 1085581, 1085940, 1086350, 1086688, 1087085, 1087348, 1087698, 1088063, 1088430, 1088799, 1089158, 1089529, 1089878, 1090254, 1090576, 1090907, 1091239, 1091559, 1091877, 1092236, 1092606, 1092951, 1093339]","[1085325, 1085698, 1086046, 1086418, 1086788, 1087161, 1087465, 1087772, 1088144, 1088494, 1088884, 1089245, 1089615, 1089932, 1090312, 1090667, 1091000, 1091289, 1091623, 1091979, 1092355, 1092731, 1093076, 1093462]","[23, 78, 86, 194, 222, 110, 177, 115, 126, 226, 30, 8, 74, 184, 184, 174, 32, 94, 102, 254, 251, 245, 253, 251]","[1085249, 1085609, 1085968, 1086374, 1086717, 1087114, 1087387, 1087728, 1088096, 1088456, 1088832, 1089190, 1089562, 1089902, 1090283, 1090609, 1090939, 1091267, 1091582, 1091909, 1092269, 1092640, 1092983, 1093371]","[1084925, 1085325, 1085725, 1086125, 1086525, 1086925, 1087325, 1087725, 1088083, 1088450, 1088819, 1089178, 1089549, 1089898, 1090274, 1090596, 1090927, 1091259, 1091579, 1091897, 1092256, 1092626, 1092971, 1093359]",91,OR,L,R,ITMSR,1.1,
0,600,trial,0,51,51,51,trial,"['S', 'S', 'S', 'S', 'S', 'S', 'S', 'C', 'C', 'C', 'C', 'C', 'C', 'C', 'C', 'C', 'C', 'C', 'C', 'C', 'C', 'C', 'C']","[1099299, 1100089, 1100766, 1101392, 1102044, 1102666, 1103242, 1103836, 1104348, 1104889, 1105488, 1106033, 1106591, 1107128, 1107695, 1108226, 1108795, 1109339, 1109869, 1110458, 1110975, 1111535, 1112051]","[1099405, 1100198, 1100928, 1101527, 1102150, 1102785, 1103395, 1103968, 1104492, 1105028, 1105597, 1106162, 1106733, 1107233, 1107787, 1108299, 1108874, 1109433, 1109997, 1110529, 1111119, 1111640, 1112180]","[179, 149, 36, 228, 126, 225, 224, 1, 152, 243, 7, 149, 164, 94, 149, 39, 93, 78, 177, 167, 96, 250, 165]","[1099328, 1100121, 1100792, 1101421, 1102076, 1102694, 1103291, 1103870, 1104390, 1104922, 1105524, 1106063, 1106632, 1107151, 1107722, 1108253, 1108824, 1109367, 1109899, 1110484, 1111015, 1111575, 1112087]","[1099124, 1099724, 1100324, 1100924, 1101524, 1102125, 1102725, 1103325, 1103856, 1104368, 1104909, 1105508, 1106053, 1106611, 1107148, 1107715, 1108246, 1108815, 1109359, 1109890, 1110478, 1110995, 1111555, 1112071]",91,OR,L,R,ITMSR,1.1,
4,400,trial,0,52,52,52,trial,"['S', 'S', 'S', 'S', 'S', 'S', 'S', 'C', 'C', 'C', 'C', 'C', 'C', 'C', 'C', 'C', 'C', 'C', 'C', 'C', 'C', 'C', 'C']","[1118119, 1118516, 1118906, 1119318, 1119690, 1120068, 1120499, 1120874, 1121240, 1121645, 1122055, 1122466, 1122831, 1123219, 1123565, 1123989, 1124378, 1124703, 1125091, 1125462, 1125815, 1126198, 1126539]","[1118209, 1118617, 1119019, 1119409, 1119800, 1120190, 1120602, 1120986, 1121350, 1121752, 1122153, 1122558, 1122927, 1123345, 1123683, 1124072, 1124458, 1124830, 1125193, 1125560, 1125926, 1126294, 1126674]","[6, 2, 39, 236, 29, 255, 245, 232, 198, 200, 153, 118, 153, 198, 165, 79, 106, 230, 154, 184, 193, 135, 209]","[1118146, 1118565, 1118955, 1119345, 1119745, 1120125, 1120547, 1120925, 1121292, 1121678, 1122085, 1122496, 1122862, 1123275, 1123621, 1124018, 1124407, 1124762, 1125137, 1125498, 1125866, 1126227, 1126598]","[1117778, 1118178, 1118578, 1118978, 1119378, 1119778, 1120178, 1120578, 1120894, 1121260, 1121666, 1122075, 1122486, 1122851, 1123239, 1123586, 1124009, 1124398, 1124723, 1125111, 1125482, 1125835, 1126218, 1126559]",91,OR,L,R,ITMSR,1.1,
1,600,trial,0,53,53,53,trial,"['B', 'S', 'S', 'S', 'S', 'S', 'S', 'S', 'C', 'C', 'C', 'C', 'C', 'C', 'C', 'C', 'C', 'C', 'C', 'C', 'C', 'C', 'C', 'C']","[1132320, 1132835, 1133453, 1134030, 1134627, 1135261, 1135925, 1136550, 1137115, 1137705, 1138298, 1138823, 1139416, 1140001, 1140567, 1141188, 1141680, 1142250, 1142804, 1143307, 1143920, 1144488, 1145069, 1145627]","[1132419, 1132941, 1133563, 1134150, 1134733, 1135352, 1136005, 1136653, 1137217, 1137805, 1138394, 1138927, 1139524, 1140091, 1140665, 1141314, 1141810, 1142369, 1142896, 1143406, 1143971, 1144570, 1145110, 1145731]","[201, 193, 196, 200, 165, 130, 123, 184, 140, 99, 105, 114, 134, 97, 119, 185, 163, 158, 99, 52, 74, 238, 28, 22]","[1132364, 1132884, 1133501, 1134083, 1134675, 1135304, 1135948, 1136587, 1137144, 1137752, 1138342, 1138875, 1139464, 1140034, 1140595, 1141244, 1141736, 1142306, 1142832, 1143346, 1143957, 1144516, 1145085, 1145684]","[1132333, 1132933, 1133533, 1134133, 1134733, 1135333, 1135933, 1136533, 1137135, 1137725, 1138318, 1138843, 1139436, 1140021, 1140587, 1141208, 1141700, 1142270, 1142824, 1143327, 1143940, 1144508, 1145090, 1145647]",91,OR,L,R,ITMSR,1.1,
1,600,trial,0,54,54,54,trial,"['S', 'S', 'S', 'S', 'S', 'S', 'S', 'C', 'C', 'C', 'C', 'C', 'C', 'C', 'C', 'C', 'C', 'C', 'C', 'C', 'C', 'C', 'C']","[1221531, 1222221, 1222891, 1223487, 1224137, 1224776, 1225371, 1225968, 1226583, 1227181, 1227761, 1228365, 1228939, 1229518, 1230137, 1230755, 1231384, 1232008, 1232586, 1233185, 1233799, 1234396, 1234980]","[1221670, 1222331, 1222988, 1223611, 1224262, 1224893, 1225497, 1226086, 1226686, 1227293, 1227874, 1228478, 1229052, 1229611, 1230225, 1230845, 1231481, 1232121, 1232747, 1233303, 1233954, 1234541, 1235141]","[35, 87, 10, 9, 3, 17, 39, 255, 244, 14, 229, 190, 177, 153, 159, 149, 82, 173, 211, 157, 210, 208, 204]","[1221591, 1222241, 1222913, 1223539, 1224164, 1224824, 1225417, 1225998, 1226613, 1227211, 1227787, 1228390, 1228959, 1229556, 1230154, 1230772, 1231414, 1232058, 1232625, 1233230, 1233856, 1234437, 1235053]","[1221209, 1221809, 1222409, 1223009, 1223609, 1224209, 1224809, 1225409, 1225988, 1226603, 1227201, 1227781, 1228385, 1228959, 1229538, 1230157, 1230775, 1231405, 1232028, 1232606, 1233205, 1233819, 1234416, 1235000]",91,OR,L,R,ITMSR,1.1,
5,400,trial,0,55,55,55,trial,"['S', 'S', 'S', 'S', 'S', 'S', 'S', 'C', 'C', 'C', 'C', 'C', 'C', 'C', 'C', 'C', 'C', 'C', 'C', 'C', 'C', 'C', 'C']","[1240694, 1241061, 1241423, 1241785, 1242166, 1242550, 1242938, 1243360, 1243766, 1244153, 1244542, 1244907, 1245298, 1245672, 1246058, 1246453, 1246833, 1247222, 1247626, 1248021, 1248348, 1248758, 1249168]","[1240792, 1241143, 1241518, 1241880, 1242285, 1242644, 1243052, 1243481, 1243866, 1244239, 1244647, 1245005, 1245383, 1245786, 1246163, 1246575, 1246958, 1247324, 1247689, 1248100, 1248463, 1248849, 1249232]","[255, 208, 242, 237, 1, 208, 5, 242, 222, 160, 153, 171, 53, 137, 56, 160, 133, 29, 88, 188, 209, 140, 115]","[1240720, 1241085, 1241454, 1241820, 1242192, 1242573, 1242968, 1243394, 1243795, 1244186, 1244576, 1244936, 1245328, 1245708, 1246092, 1246504, 1246879, 1247258, 1247653, 1248060, 1248396, 1248799, 1249193]","[1240294, 1240694, 1241094, 1241494, 1241894, 1242294, 1242694, 1243095, 1243380, 1243786, 1244173, 1244562, 1244928, 1245318, 1245692, 1246078, 1246473, 1246853, 1247242, 1247646, 1248041, 1248368, 1248778, 1249188]",91,OR,L,R,ITMSR,1.1,
2,600,trial,0,56,56,56,trial,"['S', 'S', 'S', 'S', 'S', 'S', 'S', 'C', 'C', 'C', 'C', 'C', 'C', 'C', 'C', 'C', 'C', 'C', 'C', 'C', 'C', 'C', 'C']","[1254850, 1255537, 1256218, 1256916, 1257492, 1258063, 1258722, 1259317, 1259899, 1260425, 1260948, 1261468, 1262011, 1262581, 1263116, 1263655, 1264218, 1264774, 1265339, 1265846, 1266428, 1266989, 1267501]","[1254944, 1255649, 1256311, 1256973, 1257570, 1258131, 1258798, 1259420, 1260015, 1260548, 1261065, 1261562, 1262134, 1262704, 1263224, 1263787, 1264326, 1264850, 1265419, 1265920, 1266497, 1267067, 1267612]","[196, 209, 170, 71, 45, 112, 243, 81, 66, 126, 89, 232, 4, 46, 93, 79, 146, 132, 229, 37, 55, 206, 218]","[1254877, 1255576, 1256246, 1256941, 1257519, 1258091, 1258752, 1259351, 1259944, 1260467, 1260984, 1261510, 1262056, 1262635, 1263156, 1263697, 1264276, 1264806, 1265370, 1265867, 1266464, 1267021, 1267542]","[1254586, 1255185, 1255785, 1256385, 1256985, 1257585, 1258185, 1258785, 1259337, 1259919, 1260445, 1260968, 1261488, 1262031, 1262601, 1263136, 1263675, 1264238, 1264794, 1265359, 1265866, 1266448, 1267009, 1267521]",91,OR,L,R,ITMSR,1.1,
4,600,trial,0,57,57,57,trial,"['S', 'S', 'S', 'S', 'S', 'S', 'S', 'C', 'C', 'C', 'C', 'C', 'C', 'C', 'C', 'C', 'C', 'C', 'C', 'C', 'C', 'C', 'C']","[1273459, 1274121, 1274779, 1275450, 1276016, 1276692, 1277203, 1277817, 1278464, 1279089, 1279702, 1280305, 1280907, 1281509, 1282104, 1282667, 1283302, 1283928, 1285767, 1286386, 1286896, 1287418, 1287950]","[1273548, 1274205, 1274877, 1275532, 1276096, 1276764, 1277309, 1277920, 1278592, 1279208, 1279802, 1280361, 1280969, 1281576, 1282156, 1282747, 1283358, 1283976, 1285831, 1286496, 1287030, 1287566, 1288111]","[192, 24, 110, 87, 89, 32, 111, 104, 97, 84, 44, 149, 224, 200, 53, 16, 107, 201, 231, 235, 224, 159, 148]","[1273491, 1274155, 1274812, 1275476, 1276044, 1276716, 1277234, 1277849, 1278499, 1279124, 1279730, 1280326, 1280927, 1281536, 1282115, 1282703, 1283317, 1283932, 1285791, 1286421, 1286929, 1287457, 1287983]","[1273149, 1273749, 1274349, 1274949, 1275549, 1276149, 1276749, 1277349, 1277837, 1278484, 1279109, 1279722, 1280325, 1280927, 1281529, 1282124, 1282688, 1283322, 1283948, 1285787, 1286406, 1286916, 1287438, 1287970]",91,OR,L,R,ITMSR,1.1,
1,400,trial,0,58,58,58,trial,"['S', 'S', 'S', 'S', 'S', 'S', 'S', 'S', 'C', 'C', 'C', 'C', 'C', 'C', 'C', 'C', 'C', 'C', 'C', 'C', 'C', 'C', 'C', 'C']","[1293496, 1293934, 1294255, 1294603, 1295011, 1295406, 1295842, 1296194, 1296640, 1297062, 1297438, 1297835, 1298204, 1298562, 1298954, 1299337, 1299713, 1300091, 1300476, 1300832, 1301222, 1301605, 1302006, 1302380]","[1293622, 1294070, 1294366, 1294716, 1295129, 1295523, 1295925, 1296303, 1296748, 1297154, 1297533, 1297935, 1298306, 1298688, 1299067, 1299442, 1299800, 1300205, 1300596, 1300962, 1301327, 1301715, 1302083, 1302467]","[86, 71, 37, 43, 52, 251, 132, 203, 190, 141, 204, 182, 182, 205, 203, 171, 146, 201, 187, 211, 144, 159, 117, 151]","[1293554, 1293989, 1294281, 1294651, 1295038, 1295429, 1295868, 1296230, 1296691, 1297094, 1297468, 1297861, 1298239, 1298613, 1298988, 1299376, 1299738, 1300123, 1300520, 1300884, 1301252, 1301650, 1302034, 1302404]","[1293481, 1293881, 1294281, 1294681, 1295081, 1295481, 1295881, 1296281, 1296660, 1297082, 1297458, 1297855, 1298224, 1298582, 1298974, 1299357, 1299733, 1300111, 1300496, 1300852, 1301242, 1301625, 1302026, 1302401]",91,OR,L,R,ITMSR,1.1,
3,400,trial,0,59,59,59,trial,"['S', 'S', 'S', 'S', 'S', 'S', 'S', 'S', 'C', 'C', 'C', 'C', 'C', 'C', 'C', 'C', 'C', 'C', 'C', 'C', 'C', 'C', 'C', 'C']","[1308403, 1308797, 1309177, 1309510, 1309891, 1310291, 1310675, 1311087, 1311568, 1311921, 1312273, 1312600, 1312990, 1313356, 1313735, 1314091, 1314497, 1314900, 1315287, 1315633, 1316024, 1316422, 1316771, 1317125]","[1308487, 1308877, 1309254, 1309609, 1309974, 1310382, 1310769, 1311179, 1311654, 1312004, 1312372, 1312702, 1313074, 1313439, 1313826, 1314222, 1314627, 1314991, 1315375, 1315741, 1316128, 1316503, 1316801, 1317198]","[226, 206, 221, 236, 171, 195, 212, 219, 234, 214, 215, 220, 169, 160, 174, 233, 212, 143, 164, 223, 163, 121, 212, 58]","[1308426, 1308822, 1309203, 1309536, 1309917, 1310316, 1310704, 1311116, 1311591, 1311947, 1312304, 1312633, 1313014, 1313382, 1313762, 1314153, 1314558, 1314925, 1315314, 1315683, 1316074, 1316447, 1316774, 1317148]","[1308075, 1308474, 1308874, 1309274, 1309674, 1310074, 1310474, 1310874, 1311588, 1311941, 1312293, 1312620, 1313010, 1313376, 1313755, 1314111, 1314518, 1314920, 1315307, 1315653, 1316044, 1316442, 1316791, 1317145]",91,OR,L,R,ITMSR,1.1,
3,400,trial,0,60,60,60,trial,"['S', 'S', 'S', 'S', 'S', 'S', 'S', 'C', 'C', 'C', 'C', 'C', 'C', 'C', 'C', 'C', 'C', 'C', 'C', 'C', 'C', 'C', 'C']","[1322850, 1323283, 1323712, 1324113, 1324518, 1324961, 1325344, 1325673, 1326058, 1326448, 1326810, 1327164, 1327585, 1327952, 1328305, 1328658, 1329001, 1329333, 1329676, 1329990, 1330319, 1330659, 1331035]","[1322952, 1323374, 1323804, 1324217, 1324611, 1325054, 1325421, 1325787, 1326144, 1326532, 1326901, 1327276, 1327661, 1328022, 1328396, 1328747, 1329070, 1329390, 1329750, 1330068, 1330399, 1330740, 1331087]","[245, 219, 195, 162, 180, 158, 135, 154, 131, 146, 130, 171, 71, 70, 49, 55, 234, 247, 55, 245, 198, 238, 117]","[1322873, 1323307, 1323736, 1324139, 1324545, 1324988, 1325370, 1325726, 1326088, 1326474, 1326838, 1327198, 1327609, 1327977, 1328335, 1328689, 1329030, 1329355, 1329710, 1330025, 1330349, 1330684, 1331055]","[1322595, 1322995, 1323395, 1323795, 1324195, 1324595, 1324995, 1325395, 1325693, 1326078, 1326468, 1326830, 1327184, 1327605, 1327972, 1328325, 1328678, 1329021, 1329353, 1329696, 1330010, 1330339, 1330679, 1331055]",91,OR,L,R,ITMSR,1.1,
0,600,trial,0,61,61,61,trial,"['S', 'S', 'S', 'S', 'S', 'S', 'S', 'S', 'C', 'C', 'C', 'C', 'C', 'C', 'C', 'C', 'C', 'C', 'C', 'C', 'C', 'C', 'C', 'C']","[1336663, 1337051, 1337656, 1338245, 1338904, 1339470, 1340064, 1340640, 1341257, 1341780, 1342355, 1342884, 1343409, 1343975, 1344448, 1345013, 1345566, 1346098, 1346638, 1347178, 1347700, 1348238, 1348733, 1349289]","[1336735, 1337100, 1337738, 1338332, 1338968, 1339569, 1340142, 1340767, 1341339, 1341902, 1342446, 1342966, 1343511, 1344074, 1344552, 1345101, 1345656, 1346200, 1346729, 1347288, 1347804, 1348299, 1348801, 1349329]","[169, 152, 173, 188, 140, 214, 149, 200, 65, 125, 97, 37, 117, 75, 92, 41, 91, 50, 65, 12, 79, 170, 119, 252]","[1336681, 1337070, 1337681, 1338270, 1338924, 1339493, 1340086, 1340690, 1341284, 1341818, 1342384, 1342913, 1343439, 1344006, 1344504, 1345046, 1345604, 1346145, 1346673, 1347239, 1347753, 1348263, 1348763, 1349302]","[1336602, 1337202, 1337802, 1338402, 1339002, 1339602, 1340203, 1340802, 1341277, 1341800, 1342375, 1342904, 1343429, 1343995, 1344468, 1345033, 1345586, 1346118, 1346658, 1347198, 1347720, 1348258, 1348753, 1349309]",91,OR,L,R,ITMSR,1.1,
1,400,trial,0,62,62,62,trial,"['B', 'S', 'S', 'S', 'S', 'S', 'S', 'S', 'C', 'C', 'C', 'C', 'C', 'C', 'C', 'C', 'C', 'C', 'C', 'C', 'C', 'C', 'C', 'C']","[1354670, 1355118, 1355517, 1355876, 1356261, 1356660, 1357054, 1357433, 1357819, 1358228, 1358623, 1358978, 1359365, 1359761, 1360152, 1360550, 1360980, 1361382, 1361805, 1362219, 1362574, 1363026, 1363404, 1363751]","[1354764, 1355196, 1355592, 1355967, 1356343, 1356752, 1357164, 1357538, 1357931, 1358319, 1358718, 1359075, 1359471, 1359876, 1360260, 1360650, 1361062, 1361476, 1361918, 1362298, 1362682, 1363094, 1363485, 1363842]","[58, 227, 17, 255, 247, 22, 17, 15, 30, 13, 32, 15, 14, 29, 37, 42, 24, 45, 54, 55, 65, 35, 32, 16]","[1354670, 1355140, 1355535, 1355897, 1356284, 1356683, 1357082, 1357458, 1357841, 1358252, 1358647, 1359000, 1359387, 1359785, 1360176, 1360571, 1361002, 1361402, 1361826, 1362239, 1362595, 1363046, 1363424, 1363769]","[1354682, 1355082, 1355482, 1355882, 1356282, 1356682, 1357082, 1357483, 1357839, 1358248, 1358643, 1358998, 1359385, 1359781, 1360173, 1360570, 1361000, 1361402, 1361825, 1362239, 1362594, 1363046, 1363424, 1363771]",91,OR,L,R,ITMSR,1.1,
2,400,trial,0,63,63,63,trial,"['S', 'S', 'S', 'S', 'S', 'S', 'S', 'S', 'C', 'C', 'C', 'C', 'C', 'C', 'C', 'C', 'C', 'C', 'C', 'C', 'C', 'C', 'C', 'C']","[1369245, 1369631, 1369928, 1370309, 1370686, 1371085, 1371452, 1371836, 1372253, 1372643, 1373047, 1373468, 1373860, 1374234, 1374638, 1374993, 1375383, 1375726, 1376096, 1376471, 1376841, 1377181, 1377526, 1377863]","[1369306, 1369680, 1370030, 1370368, 1370744, 1371144, 1371575, 1371949, 1372363, 1372696, 1373097, 1373514, 1373923, 1374289, 1374705, 1375056, 1375448, 1375794, 1376155, 1376591, 1376909, 1377234, 1377594, 1377982]","[99, 61, 42, 195, 16, 239, 115, 73, 118, 46, 255, 94, 51, 254, 36, 55, 37, 26, 3, 77, 224, 143, 225, 240]","[1369271, 1369656, 1369958, 1370335, 1370708, 1371110, 1371471, 1371862, 1372275, 1372666, 1373069, 1373492, 1373884, 1374258, 1374661, 1375016, 1375408, 1375751, 1376119, 1376498, 1376869, 1377207, 1377554, 1377896]","[1369154, 1369554, 1369954, 1370354, 1370754, 1371154, 1371554, 1371954, 1372273, 1372663, 1373067, 1373488, 1373880, 1374254, 1374658, 1375013, 1375404, 1375746, 1376116, 1376491, 1376861, 1377201, 1377546, 1377883]",91,OR,L,R,ITMSR,1.1,
1,600,trial,0,64,64,64,trial,"['S', 'S', 'S', 'S', 'S', 'S', 'S', 'C', 'C', 'C', 'C', 'C', 'C', 'C', 'C', 'C', 'C', 'C', 'C', 'C', 'C', 'C', 'C']","[1383574, 1384326, 1385027, 1385606, 1386285, 1386884, 1387486, 1388050, 1388623, 1389165, 1389723, 1390240, 1390777, 1391283, 1391801, 1392366, 1392891, 1393437, 1394011, 1394574, 1395145, 1395743, 1396227]","[1383690, 1384411, 1385098, 1385722, 1386394, 1386984, 1387608, 1388107, 1388695, 1389218, 1389831, 1390356, 1390834, 1391399, 1391863, 1392415, 1393000, 1393506, 1394085, 1394647, 1395207, 1395860, 1396346]","[74, 107, 93, 113, 98, 97, 106, 37, 46, 250, 23, 12, 168, 23, 226, 253, 38, 215, 37, 211, 228, 118, 216]","[1383598, 1384346, 1385049, 1385626, 1386306, 1386909, 1387508, 1388071, 1388646, 1389186, 1389748, 1390268, 1390799, 1391309, 1391825, 1392391, 1392917, 1393464, 1394045, 1394603, 1395172, 1395772, 1396256]","[1383342, 1383941, 1384541, 1385141, 1385741, 1386341, 1386941, 1387541, 1388070, 1388643, 1389186, 1389743, 1390260, 1390797, 1391303, 1391821, 1392386, 1392911, 1393457, 1394031, 1394594, 1395165, 1395763, 1396247]",91,OR,L,R,ITMSR,1.1,
4,400,trial,0,65,65,65,trial,"['S', 'S', 'S', 'S', 'S', 'S', 'S', 'C', 'C', 'C', 'C', 'C', 'C', 'C', 'C', 'C', 'C', 'C', 'C', 'C', 'C', 'C', 'C']","[1401947, 1402444, 1402830, 1403342, 1403760, 1404188, 1404595, 1404996, 1405378, 1405754, 1406102, 1406491, 1406837, 1407186, 1407503, 1407867, 1408183, 1408503, 1408784, 1409081, 1409370, 1409721, 1410103]","[1402051, 1402499, 1402897, 1403412, 1403848, 1404244, 1404645, 1405040, 1405406, 1405795, 1406132, 1406527, 1406885, 1407218, 1407552, 1407903, 1408235, 1408557, 1408842, 1409137, 1409426, 1409775, 1410154]","[37, 156, 219, 227, 34, 246, 175, 123, 164, 248, 3, 38, 115, 246, 156, 126, 204, 215, 160, 123, 21, 1, 53]","[1401970, 1402468, 1402858, 1403368, 1403786, 1404213, 1404617, 1405018, 1405389, 1405774, 1406114, 1406504, 1406861, 1407203, 1407526, 1407887, 1408206, 1408527, 1408809, 1409107, 1409394, 1409745, 1410129]","[1401900, 1402299, 1402699, 1403099, 1403499, 1403899, 1404299, 1404699, 1405016, 1405399, 1405774, 1406123, 1406511, 1406857, 1407206, 1407523, 1407887, 1408203, 1408523, 1408804, 1409101, 1409390, 1409741, 1410123]",91,OR,L,R,ITMSR,1.1,
4,400,trial,0,66,66,66,trial,"['S', 'S', 'S', 'S', 'S', 'S', 'S', 'C', 'C', 'C', 'C', 'C', 'C', 'C', 'C', 'C', 'C', 'C', 'C', 'C', 'C', 'C', 'C']","[1415749, 1416178, 1416619, 1416989, 1417397, 1417809, 1418199, 1418549, 1418940, 1419322, 1419675, 1420052, 1420420, 1420790, 1421152, 1421509, 1421945, 1422309, 1422714, 1423117, 1423525, 1423920, 1424290]","[1415833, 1416284, 1416713, 1417119, 1417505, 1417912, 1418276, 1418655, 1419019, 1419413, 1419761, 1420143, 1420513, 1420877, 1421219, 1421617, 1422035, 1422405, 1422809, 1423208, 1423585, 1423994, 1424372]","[248, 237, 19, 209, 241, 9, 202, 121, 164, 115, 205, 86, 137, 69, 27, 103, 158, 26, 109, 223, 254, 106, 115]","[1415769, 1416205, 1416641, 1417037, 1417420, 1417844, 1418223, 1418598, 1418964, 1419364, 1419704, 1420087, 1420450, 1420832, 1421176, 1421549, 1421970, 1422345, 1422746, 1423170, 1423547, 1423953, 1424327]","[1415440, 1415840, 1416240, 1416640, 1417040, 1417440, 1417840, 1418241, 1418569, 1418960, 1419342, 1419695, 1420072, 1420440, 1420810, 1421172, 1421529, 1421965, 1422329, 1422734, 1423137, 1423545, 1423940, 1424310]",91,OR,L,R,ITMSR,1.1,
2,400,trial,0,67,67,67,trial,"['S', 'S', 'S', 'S', 'S', 'S', 'S', 'C', 'C', 'C', 'C', 'C', 'C', 'C', 'C', 'C', 'C', 'C', 'C', 'C', 'C', 'C', 'C']","[1430226, 1430653, 1431081, 1431518, 1431929, 1432309, 1432730, 1433147, 1433577, 1433960, 1434334, 1434732, 1435096, 1435481, 1435830, 1436219, 1436589, 1436976, 1437351, 1437717, 1438126, 1438468, 1438893]","[1430309, 1430717, 1431162, 1431588, 1431992, 1432374, 1432812, 1433233, 1433649, 1434044, 1434430, 1434818, 1435179, 1435572, 1435922, 1436312, 1436685, 1437058, 1437435, 1437801, 1438211, 1438571, 1438973]","[152, 128, 217, 186, 128, 29, 64, 40, 7, 88, 77, 105, 92, 124, 51, 182, 158, 64, 149, 112, 210, 182, 142]","[1430255, 1430675, 1431106, 1431539, 1431953, 1432334, 1432754, 1433176, 1433602, 1433990, 1434371, 1434757, 1435122, 1435511, 1435863, 1436252, 1436625, 1437003, 1437378, 1437744, 1438151, 1438495, 1438917]","[1429914, 1430315, 1430714, 1431114, 1431514, 1431914, 1432314, 1432714, 1433167, 1433597, 1433980, 1434354, 1434753, 1435116, 1435501, 1435850, 1436239, 1436609, 1436996, 1437371, 1437737, 1438146, 1438488, 1438913]",91,OR,L,R,ITMSR,1.1,
0,600,trial,0,68,68,68,trial,"['S', 'S', 'S', 'S', 'S', 'S', 'S', 'C', 'C', 'C', 'C', 'C', 'C', 'C', 'C', 'C', 'C', 'C', 'C', 'C', 'C', 'C', 'C']","[1444793, 1445628, 1446279, 1446851, 1447463, 1448129, 1448752, 1449235, 1449774, 1450389, 1450913, 1451522, 1452102, 1452781, 1453278, 1453757, 1454227, 1454815, 1455416, 1456030, 1456596, 1457157, 1457740]","[1444890, 1445714, 1446386, 1446942, 1447564, 1448254, 1448837, 1449369, 1449878, 1450491, 1451030, 1451608, 1452232, 1452879, 1453351, 1453819, 1454353, 1454945, 1455477, 1456078, 1456684, 1457243, 1457810]","[228, 24, 37, 43, 3, 19, 0, 64, 250, 10, 28, 181, 0, 239, 146, 243, 228, 228, 38, 202, 192, 204, 151]","[1444844, 1445650, 1446330, 1446872, 1447484, 1448182, 1448774, 1449294, 1449800, 1450415, 1450967, 1451542, 1452160, 1452807, 1453302, 1453774, 1454288, 1454878, 1455436, 1456053, 1456623, 1457191, 1457766]","[1444524, 1445123, 1445723, 1446323, 1446923, 1447523, 1448123, 1448723, 1449255, 1449794, 1450409, 1450933, 1451542, 1452122, 1452802, 1453298, 1453777, 1454247, 1454835, 1455436, 1456050, 1456616, 1457177, 1457760]",91,OR,L,R,ITMSR,1.1,
2,600,trial,0,69,69,69,trial,"['B', 'S', 'S', 'S', 'S', 'S', 'S', 'S', 'C', 'C', 'C', 'C', 'C', 'C', 'C', 'C', 'C', 'C', 'C', 'C', 'C', 'C', 'C', 'C']","[1463174, 1463598, 1464216, 1464829, 1465426, 1466062, 1466692, 1467312, 1467900, 1468493, 1469061, 1469626, 1470160, 1470693, 1471247, 1471720, 1472240, 1472749, 1473259, 1473734, 1474284, 1474783, 1475298, 1475832]","[1463215, 1463709, 1464288, 1464886, 1465502, 1466135, 1466772, 1467416, 1467995, 1468578, 1469122, 1469694, 1470268, 1470775, 1471336, 1471840, 1472278, 1472806, 1473300, 1473814, 1474340, 1474833, 1475375, 1475929]","[148, 227, 236, 158, 7, 236, 214, 199, 183, 164, 25, 243, 182, 241, 2, 151, 205, 20, 87, 164, 65, 173, 60, 52]","[1463174, 1463628, 1464242, 1464854, 1465454, 1466091, 1466723, 1467346, 1467933, 1468523, 1469088, 1469656, 1470194, 1470723, 1471278, 1471758, 1472266, 1472776, 1473284, 1473768, 1474312, 1474810, 1475333, 1475867]","[1463185, 1463785, 1464385, 1464985, 1465585, 1466185, 1466785, 1467385, 1467920, 1468513, 1469081, 1469646, 1470180, 1470713, 1471267, 1471740, 1472260, 1472770, 1473280, 1473754, 1474305, 1474803, 1475318, 1475852]",91,OR,L,R,ITMSR,1.1,
4,600,trial,0,70,70,70,trial,"['S', 'S', 'S', 'S', 'S', 'S', 'S', 'C', 'C', 'C', 'C', 'C', 'C', 'C', 'C', 'C', 'C', 'C', 'C', 'C', 'C', 'C', 'C']","[1482005, 1482624, 1483272, 1483873, 1484512, 1485119, 1485811, 1486329, 1486900, 1487459, 1487973, 1488503, 1489007, 1489611, 1490155, 1490725, 1491228, 1491736, 1492289, 1492894, 1493433, 1493958, 1494505]","[1482106, 1482727, 1483372, 1483951, 1484622, 1485241, 1485893, 1486433, 1487010, 1487553, 1488091, 1488637, 1489149, 1489731, 1490246, 1490816, 1491314, 1491844, 1492399, 1492976, 1493565, 1494064, 1494586]","[251, 162, 227, 37, 168, 161, 125, 118, 137, 131, 172, 176, 166, 54, 14, 58, 75, 94, 78, 208, 36, 247, 152]","[1482032, 1482676, 1483301, 1483906, 1484556, 1485160, 1485839, 1486369, 1486949, 1487496, 1488033, 1488574, 1489087, 1489667, 1490186, 1490755, 1491265, 1491774, 1492341, 1492926, 1493489, 1493997, 1494552]","[1481646, 1482245, 1482845, 1483445, 1484045, 1484645, 1485245, 1485845, 1486349, 1486920, 1487479, 1487993, 1488523, 1489027, 1489631, 1490176, 1490745, 1491248, 1491757, 1492310, 1492914, 1493453, 1493978, 1494525]",91,OR,L,R,ITMSR,1.1,
3,600,trial,0,71,71,71,trial,"['S', 'S', 'S', 'S', 'S', 'S', 'S', 'C', 'C', 'C', 'C', 'C', 'C', 'C', 'C', 'C', 'C', 'C', 'C', 'C', 'C', 'C', 'C']","[1500597, 1501239, 1501907, 1502518, 1503134, 1503803, 1504297, 1504884, 1505488, 1506105, 1506671, 1507208, 1507775, 1508335, 1508853, 1509389, 1509924, 1510444, 1510981, 1511512, 1512049, 1512513, 1513019]","[1500666, 1501301, 1501961, 1502576, 1503211, 1503858, 1504348, 1505011, 1505553, 1506210, 1506714, 1507288, 1507878, 1508440, 1508956, 1509446, 1509991, 1510528, 1511061, 1511546, 1512078, 1512604, 1513129]","[42, 27, 171, 87, 66, 196, 42, 17, 75, 246, 0, 69, 14, 203, 198, 3, 247, 204, 54, 2, 159, 111, 76]","[1500624, 1501265, 1501932, 1502543, 1503161, 1503824, 1504324, 1504910, 1505517, 1506135, 1506693, 1507233, 1507801, 1508359, 1508883, 1509415, 1509954, 1510472, 1511005, 1511532, 1512064, 1512553, 1513054]","[1500188, 1500787, 1501387, 1501987, 1502587, 1503187, 1503788, 1504387, 1504904, 1505508, 1506125, 1506691, 1507228, 1507795, 1508355, 1508873, 1509409, 1509944, 1510464, 1511001, 1511532, 1512069, 1512534, 1513039]",91,OR,L,R,ITMSR,1.1,
5,600,trial,0,72,72,72,trial,"['S', 'S', 'S', 'S', 'S', 'S', 'S', 'C', 'C', 'C', 'C', 'C', 'C', 'C', 'C', 'C', 'C', 'C', 'C', 'C', 'C', 'C', 'C']","[1518991, 1519659, 1520256, 1520931, 1521464, 1522058, 1522668, 1523263, 1523850, 1524379, 1525000, 1525579, 1526126, 1526653, 1527209, 1527766, 1528337, 1528870, 1529474, 1529977, 1530554, 1531081, 1531608]","[1519094, 1519752, 1520359, 1521019, 1521596, 1522171, 1522789, 1523401, 1523990, 1524507, 1525103, 1525699, 1526240, 1526760, 1527294, 1527880, 1528424, 1528938, 1529578, 1530067, 1530689, 1531194, 1531705]","[100, 43, 35, 16, 86, 1, 1, 6, 239, 211, 135, 222, 176, 143, 26, 162, 167, 237, 80, 102, 125, 119, 45]","[1519013, 1519680, 1520280, 1520951, 1521511, 1522102, 1522717, 1523310, 1523910, 1524430, 1525045, 1525633, 1526170, 1526701, 1527242, 1527812, 1528371, 1528899, 1529520, 1530021, 1530617, 1531127, 1531653]","[1518596, 1519196, 1519796, 1520396, 1520996, 1521596, 1522196, 1522796, 1523283, 1523870, 1524399, 1525020, 1525599, 1526146, 1526673, 1527229, 1527786, 1528357, 1528890, 1529494, 1529997, 1530574, 1531101, 1531628]",91,OR,L,R,ITMSR,1.1,
5,400,trial,0,73,73,73,trial,"['S', 'S', 'S', 'S', 'S', 'S', 'S', 'C', 'C', 'C', 'C', 'C', 'C', 'C', 'C', 'C', 'C', 'C', 'C', 'C', 'C', 'C', 'C']","[1537216, 1537901, 1538302, 1538682, 1539041, 1539491, 1539922, 1540347, 1540714, 1541076, 1541469, 1541860, 1542217, 1542583, 1542983, 1543366, 1543741, 1544073, 1544466, 1544880, 1545247, 1545597, 1545919]","[1537337, 1538021, 1538390, 1538783, 1539150, 1539569, 1540001, 1540396, 1540773, 1541154, 1541554, 1541929, 1542301, 1542699, 1543058, 1543434, 1543817, 1544166, 1544559, 1544952, 1545318, 1545675, 1545990]","[234, 199, 118, 27, 243, 154, 151, 198, 86, 98, 99, 102, 251, 136, 244, 237, 6, 112, 68, 250, 15, 24, 124]","[1537258, 1537958, 1538334, 1538707, 1539091, 1539515, 1539955, 1540367, 1540745, 1541104, 1541505, 1541899, 1542261, 1542630, 1543013, 1543393, 1543768, 1544115, 1544518, 1544912, 1545275, 1545629, 1545943]","[1537168, 1537568, 1537968, 1538368, 1538768, 1539168, 1539568, 1539969, 1540367, 1540734, 1541096, 1541489, 1541880, 1542237, 1542603, 1543003, 1543386, 1543761, 1544093, 1544486, 1544900, 1545267, 1545617, 1545939]",91,OR,L,R,ITMSR,1.1,
5,600,trial,0,74,74,74,trial,"['S', 'S', 'S', 'S', 'S', 'S', 'S', 'C', 'C', 'C', 'C', 'C', 'C', 'C', 'C', 'C', 'C', 'C', 'C', 'C', 'C', 'C', 'C']","[1552081, 1552796, 1553381, 1553994, 1554630, 1555176, 1555784, 1556391, 1556972, 1557517, 1558061, 1558579, 1559063, 1559548, 1560055, 1560577, 1561163, 1561666, 1562205, 1562742, 1563207, 1563665, 1564124]","[1552167, 1552879, 1553477, 1554075, 1554704, 1555269, 1555881, 1556482, 1557082, 1557643, 1558171, 1558664, 1559154, 1559618, 1560150, 1560607, 1561200, 1561738, 1562262, 1562777, 1563280, 1563716, 1564197]","[160, 210, 185, 159, 173, 164, 209, 151, 199, 6, 207, 61, 78, 167, 59, 103, 25, 10, 198, 164, 117, 39, 40]","[1552106, 1552816, 1553408, 1554020, 1554657, 1555205, 1555814, 1556427, 1557014, 1557541, 1558117, 1558621, 1559103, 1559575, 1560093, 1560589, 1561171, 1561694, 1562225, 1562753, 1563231, 1563688, 1564153]","[1551675, 1552275, 1552875, 1553475, 1554075, 1554675, 1555275, 1555875, 1556411, 1556993, 1557537, 1558081, 1558599, 1559084, 1559568, 1560075, 1560597, 1561183, 1561687, 1562225, 1562762, 1563227, 1563685, 1564144]",91,OR,L,R,ITMSR,1.1,
0,400,trial,0,75,75,75,trial,"['S', 'S', 'S', 'S', 'S', 'S', 'S', 'C', 'C', 'C', 'C', 'C', 'C', 'C', 'C', 'C', 'C', 'C', 'C', 'C', 'C', 'C', 'C']","[1569883, 1570250, 1570642, 1571059, 1571432, 1571818, 1572239, 1572643, 1573044, 1573444, 1573811, 1574244, 1574625, 1574990, 1575418, 1575825, 1576182, 1576601, 1577026, 1577444, 1577880, 1578335, 1578736]","[1569984, 1570349, 1570715, 1571134, 1571514, 1571895, 1572306, 1572717, 1573120, 1573497, 1573894, 1574312, 1574708, 1575057, 1575492, 1575910, 1576281, 1576680, 1577106, 1577521, 1577963, 1578396, 1578800]","[153, 114, 25, 211, 46, 131, 177, 144, 196, 57, 47, 150, 237, 147, 185, 189, 86, 227, 76, 56, 18, 70, 24]","[1569922, 1570285, 1570665, 1571089, 1571460, 1571837, 1572271, 1572671, 1573070, 1573466, 1573835, 1574267, 1574650, 1575013, 1575444, 1575854, 1576214, 1576630, 1577048, 1577465, 1577905, 1578355, 1578759]","[1569476, 1569876, 1570276, 1570676, 1571076, 1571476, 1571876, 1572276, 1572663, 1573064, 1573464, 1573831, 1574264, 1574645, 1575010, 1575438, 1575845, 1576202, 1576621, 1577047, 1577464, 1577901, 1578355, 1578756]",91,OR,L,R,ITMSR,1.1,
0,400,trial,0,76,76,76,trial,"['S', 'S', 'S', 'S', 'S', 'S', 'S', 'C', 'C', 'C', 'C', 'C', 'C', 'C', 'C', 'C', 'C', 'C', 'C', 'C', 'C', 'C', 'C']","[1584567, 1584987, 1585420, 1585807, 1586180, 1586594, 1586945, 1587346, 1587757, 1588183, 1588559, 1588940, 1589404, 1589860, 1590282, 1590682, 1591060, 1591439, 1591827, 1592206, 1592600, 1593021, 1593420]","[1584650, 1585057, 1585488, 1585858, 1586225, 1586647, 1587018, 1587402, 1587828, 1588248, 1588646, 1589004, 1589472, 1589913, 1590392, 1590761, 1591134, 1591516, 1591898, 1592312, 1592671, 1593128, 1593481]","[110, 98, 103, 15, 212, 154, 37, 34, 13, 244, 226, 201, 196, 143, 67, 9, 192, 227, 155, 208, 133, 202, 200]","[1584589, 1585007, 1585438, 1585826, 1586200, 1586619, 1586971, 1587369, 1587782, 1588212, 1588592, 1588964, 1589434, 1589882, 1590306, 1590708, 1591088, 1591465, 1591857, 1592241, 1592634, 1593051, 1593448]","[1584218, 1584617, 1585017, 1585417, 1585817, 1586217, 1586617, 1587017, 1587366, 1587777, 1588203, 1588579, 1588960, 1589424, 1589880, 1590302, 1590702, 1591080, 1591459, 1591847, 1592226, 1592621, 1593041, 1593440]",91,OR,L,R,ITMSR,1.1,
3,600,trial,0,77,77,77,trial,"['S', 'S', 'S', 'S', 'S', 'S', 'S', 'S', 'C', 'C', 'C', 'C', 'C', 'C', 'C', 'C', 'C', 'C', 'C', 'C', 'C', 'C', 'C', 'C']","[1599164, 1599576, 1600072, 1600676, 1601260, 1601884, 1602463, 1603013, 1603668, 1604238, 1604811, 1605401, 1605997, 1606535, 1607129, 1607704, 1608274, 1608854, 1609395, 1609947, 1610517, 1611088, 1611655, 1612204]","[1599277, 1599715, 1600212, 1600796, 1601372, 1601992, 1602591, 1603146, 1603794, 1604344, 1604926, 1605508, 1606083, 1606639, 1607211, 1607789, 1608376, 1608945, 1609483, 1610049, 1610599, 1611173, 1611741, 1612284]","[37, 62, 84, 91, 61, 37, 48, 50, 23, 13, 31, 4, 239, 20, 185, 224, 74, 206, 229, 200, 136, 151, 121, 97]","[1599220, 1599634, 1600128, 1600730, 1601281, 1601905, 1602486, 1603074, 1603724, 1604261, 1604836, 1605429, 1606019, 1606561, 1607152, 1607725, 1608304, 1608879, 1609420, 1609980, 1610542, 1611116, 1611694, 1612236]","[1598934, 1599533, 1600133, 1600733, 1601333, 1601933, 1602533, 1603133, 1603688, 1604258, 1604831, 1605421, 1606018, 1606555, 1607149, 1607725, 1608294, 1608875, 1609415, 1609967, 1610537, 1611108, 1611675, 1612224]",91,OR,L,R,ITMSR,1.1,
1,600,trial,0,78,78,78,trial,"['S', 'S', 'S', 'S', 'S', 'S', 'S', 'S', 'C', 'C', 'C', 'C', 'C', 'C', 'C', 'C', 'C', 'C', 'C', 'C', 'C', 'C', 'C', 'C']","[1662554, 1662941, 1663544, 1664051, 1664673, 1665345, 1665960, 1666567, 1667204, 1667799, 1668404, 1668962, 1669582, 1670115, 1670705, 1671323, 1671897, 1672493, 1673075, 1673609, 1674178, 1674744, 1675309, 1675894]","[1662664, 1663073, 1663675, 1664198, 1664805, 1665443, 1666054, 1666665, 1667317, 1667910, 1668498, 1669082, 1669668, 1670207, 1670809, 1671407, 1671984, 1672587, 1673159, 1673713, 1674256, 1674824, 1675415, 1675982]","[255, 239, 26, 26, 254, 0, 190, 242, 246, 216, 13, 4, 227, 223, 217, 247, 240, 252, 217, 7, 6, 177, 11, 29]","[1662586, 1662969, 1663574, 1664116, 1664704, 1665370, 1665989, 1666588, 1667232, 1667831, 1668425, 1669019, 1669604, 1670135, 1670729, 1671344, 1671917, 1672518, 1673097, 1673660, 1674201, 1674770, 1675336, 1675919]","[1662369, 1662969, 1663569, 1664169, 1664770, 1665370, 1665970, 1666570, 1667224, 1667819, 1668424, 1668982, 1669602, 1670135, 1670725, 1671343, 1671917, 1672513, 1673095, 1673629, 1674199, 1674764, 1675329, 1675914]",91,OR,L,R,ITMSR,1.1,
5,400,trial,0,79,79,79,trial,"['S', 'S', 'S', 'S', 'S', 'S', 'S', 'C', 'C', 'C', 'C', 'C', 'C', 'C', 'C', 'C', 'C', 'C', 'C', 'C', 'C', 'C', 'C']","[1681966, 1682281, 1682662, 1683051, 1683490, 1683861, 1684245, 1684653, 1685018, 1685442, 1685834, 1686206, 1686623, 1686998, 1687361, 1687753, 1688143, 1688567, 1688971, 1689322, 1689687, 1690091, 1690448]","[1682075, 1682377, 1682746, 1683140, 1683561, 1683940, 1684326, 1684728, 1685110, 1685531, 1685916, 1686301, 1686704, 1687091, 1687452, 1687846, 1688236, 1688654, 1689031, 1689401, 1689771, 1690155, 1690518]","[19, 189, 9, 255, 215, 254, 216, 162, 227, 211, 152, 192, 143, 204, 192, 195, 217, 203, 179, 173, 201, 111, 155]","[1681995, 1682312, 1682686, 1683074, 1683512, 1683885, 1684270, 1684678, 1685043, 1685470, 1685862, 1686231, 1686650, 1687026, 1687389, 1687778, 1688169, 1688592, 1688994, 1689346, 1689709, 1690119, 1690472]","[1681541, 1681940, 1682340, 1682740, 1683140, 1683540, 1683940, 1684340, 1684673, 1685038, 1685463, 1685854, 1686226, 1686643, 1687018, 1687382, 1687773, 1688163, 1688587, 1688991, 1689342, 1689707, 1690112, 1690468]",91,OR,L,R,ITMSR,1.1,
0,400,trial,0,80,80,80,trial,"['B', 'S', 'S', 'S', 'S', 'S', 'S', 'S', 'C', 'C', 'C', 'C', 'C', 'C', 'C', 'C', 'C', 'C', 'C', 'C', 'C', 'C', 'C', 'C']","[1696132, 1696570, 1696920, 1697286, 1697676, 1698099, 1698519, 1698876, 1699299, 1699676, 1700066, 1700468, 1700853, 1701239, 1701657, 1702035, 1702403, 1702797, 1703184, 1703554, 1703966, 1704361, 1704730, 1705117]","[1696152, 1696627, 1696996, 1697346, 1697756, 1698169, 1698573, 1698969, 1699356, 1699771, 1700118, 1700524, 1700934, 1701291, 1701706, 1702084, 1702459, 1702912, 1703303, 1703670, 1704070, 1704419, 1704844, 1705238]","[60, 88, 70, 83, 112, 95, 64, 142, 109, 114, 76, 51, 90, 52, 234, 51, 65, 107, 132, 125, 130, 131, 141, 145]","[1696132, 1696591, 1696946, 1697306, 1697695, 1698118, 1698542, 1698894, 1699316, 1699693, 1700086, 1700490, 1700876, 1701259, 1701680, 1702055, 1702423, 1702818, 1703204, 1703574, 1703986, 1704378, 1704747, 1705134]","[1696142, 1696542, 1696942, 1697342, 1697742, 1698142, 1698542, 1698942, 1699319, 1699696, 1700086, 1700488, 1700873, 1701259, 1701677, 1702055, 1702423, 1702817, 1703204, 1703574, 1703986, 1704381, 1704750, 1705137]",91,OR,L,R,ITMSR,1.1,
5,600,trial,0,81,81,81,trial,"['S', 'S', 'S', 'S', 'S', 'S', 'S', 'S', 'C', 'C', 'C', 'C', 'C', 'C', 'C', 'C', 'C', 'C', 'C', 'C', 'C', 'C', 'C', 'C']","[1710507, 1710921, 1711513, 1712117, 1712750, 1713369, 1714061, 1714691, 1715221, 1715785, 1716402, 1716965, 1717549, 1718121, 1718691, 1719247, 1719821, 1720385, 1720996, 1721586, 1722165, 1722720, 1723256, 1723844]","[1710602, 1711016, 1711606, 1712236, 1712847, 1713454, 1714148, 1714799, 1715355, 1715900, 1716532, 1717100, 1717649, 1718221, 1718818, 1719362, 1719932, 1720481, 1721080, 1721670, 1722232, 1722811, 1723355, 1723923]","[15, 38, 48, 46, 248, 199, 149, 79, 215, 180, 199, 215, 146, 180, 205, 204, 200, 99, 73, 126, 142, 13, 131, 98]","[1710531, 1710943, 1711531, 1712139, 1712774, 1713390, 1714086, 1714714, 1715277, 1715835, 1716461, 1717028, 1717582, 1718152, 1718751, 1719303, 1719866, 1720441, 1721037, 1721620, 1722182, 1722772, 1723304, 1723873]","[1710507, 1711106, 1711706, 1712306, 1712906, 1713506, 1714106, 1714706, 1715241, 1715805, 1716422, 1716985, 1717569, 1718141, 1718711, 1719267, 1719841, 1720406, 1721016, 1721606, 1722185, 1722740, 1723276, 1723864]",91,OR,L,R,ITMSR,1.1,
0,400,trial,0,82,82,82,trial,"['S', 'S', 'S', 'S', 'S', 'S', 'S', 'C', 'C', 'C', 'C', 'C', 'C', 'C', 'C', 'C', 'C', 'C', 'C', 'C', 'C', 'C', 'C']","[1729747, 1730310, 1730729, 1731144, 1731528, 1731949, 1732295, 1732734, 1733099, 1733501, 1733878, 1734298, 1734683, 1735072, 1735464, 1735900, 1736273, 1736653, 1737025, 1737443, 1737854, 1738262, 1738655]","[1729868, 1730408, 1730831, 1731239, 1731625, 1732030, 1732423, 1732831, 1733219, 1733606, 1733983, 1734385, 1734763, 1735172, 1735556, 1735983, 1736364, 1736732, 1737122, 1737537, 1737949, 1738347, 1738745]","[241, 23, 35, 250, 1, 185, 244, 242, 20, 242, 231, 179, 188, 190, 194, 207, 242, 224, 243, 239, 211, 174, 143]","[1729800, 1730340, 1730753, 1731169, 1731554, 1731970, 1732354, 1732759, 1733150, 1733533, 1733931, 1734322, 1734708, 1735099, 1735497, 1735925, 1736299, 1736676, 1737051, 1737466, 1737878, 1738285, 1738685]","[1729594, 1729994, 1730394, 1730794, 1731194, 1731594, 1731994, 1732395, 1732754, 1733120, 1733521, 1733898, 1734318, 1734703, 1735092, 1735484, 1735920, 1736293, 1736673, 1737046, 1737463, 1737874, 1738283, 1738675]",91,OR,L,R,ITMSR,1.1,
2,600,trial,0,83,83,83,trial,"['S', 'S', 'S', 'S', 'S', 'S', 'S', 'C', 'C', 'C', 'C', 'C', 'C', 'C', 'C', 'C', 'C', 'C', 'C', 'C', 'C', 'C', 'C']","[1744209, 1745011, 1745598, 1746288, 1746900, 1747600, 1748108, 1748714, 1749281, 1749919, 1750417, 1750902, 1751418, 1751955, 1752582, 1753057, 1754055, 1754528, 1754974, 1755474, 1755939, 1756385, 1756848]","[1744303, 1745112, 1745721, 1746388, 1747023, 1747728, 1748224, 1748800, 1749350, 1750028, 1750506, 1751027, 1751522, 1752070, 1752697, 1753155, 1754166, 1754635, 1755087, 1755556, 1756055, 1756481, 1756936]","[196, 251, 6, 242, 4, 0, 4, 188, 42, 251, 104, 213, 143, 182, 106, 51, 203, 146, 139, 121, 196, 188, 182]","[1744235, 1745038, 1745638, 1746314, 1746951, 1747645, 1748139, 1748742, 1749305, 1749955, 1750454, 1750955, 1751443, 1751985, 1752633, 1753088, 1754080, 1754561, 1755037, 1755500, 1755965, 1756409, 1756881]","[1744000, 1744600, 1745200, 1745800, 1746400, 1747000, 1747600, 1748200, 1748734, 1749301, 1749939, 1750437, 1750922, 1751438, 1751975, 1752602, 1753077, 1754075, 1754548, 1754994, 1755494, 1755959, 1756405, 1756868]",91,OR,L,R,ITMSR,1.1,
2,400,trial,0,84,84,84,trial,"['S', 'S', 'S', 'S', 'S', 'S', 'S', 'C', 'C', 'C', 'C', 'C', 'C', 'C', 'C', 'C', 'C', 'C', 'C', 'C', 'C', 'C', 'C']","[1762578, 1763019, 1763423, 1763888, 1764263, 1764669, 1765087, 1765491, 1765869, 1766296, 1766681, 1767080, 1767439, 1767830, 1768196, 1768601, 1768964, 1769363, 1769734, 1770146, 1770524, 1770886, 1771285]","[1762674, 1763113, 1763537, 1763980, 1764376, 1764771, 1765186, 1765597, 1766008, 1766398, 1766786, 1767171, 1767548, 1767957, 1768326, 1768702, 1769068, 1769454, 1769869, 1770260, 1770617, 1770996, 1771376]","[7, 8, 11, 225, 239, 7, 243, 16, 17, 241, 7, 245, 9, 6, 20, 3, 13, 224, 11, 2, 204, 255, 231]","[1762605, 1763045, 1763474, 1763911, 1764296, 1764701, 1765112, 1765515, 1765926, 1766325, 1766705, 1767103, 1767463, 1767879, 1768221, 1768627, 1768987, 1769385, 1769759, 1770171, 1770556, 1770910, 1771309]","[1762350, 1762750, 1763150, 1763550, 1763950, 1764350, 1764750, 1765150, 1765511, 1765890, 1766317, 1766701, 1767100, 1767459, 1767851, 1768216, 1768621, 1768984, 1769383, 1769754, 1770166, 1770544, 1770906, 1771305]",91,OR,L,R,ITMSR,1.1,
5,400,trial,0,85,85,85,trial,"['S', 'S', 'S', 'S', 'S', 'S', 'S', 'C', 'C', 'C', 'C', 'C', 'C', 'C', 'C', 'C', 'C', 'C', 'C', 'C', 'C', 'C', 'C']","[1777053, 1777515, 1777937, 1778347, 1778765, 1779152, 1779580, 1779983, 1780389, 1780788, 1781157, 1781559, 1781980, 1782363, 1782759, 1783147, 1783523, 1783888, 1784258, 1784678, 1785012, 1785391, 1785784]","[1777163, 1777594, 1778016, 1778433, 1778848, 1779234, 1779671, 1780062, 1780477, 1780862, 1781238, 1781641, 1782029, 1782432, 1782829, 1783222, 1783597, 1783973, 1784337, 1784757, 1785123, 1785489, 1785840]","[248, 177, 228, 235, 223, 186, 251, 188, 180, 187, 201, 165, 226, 16, 33, 121, 140, 136, 86, 77, 146, 122, 180]","[1777083, 1777538, 1777958, 1778370, 1778788, 1779179, 1779603, 1780003, 1780415, 1780811, 1781182, 1781585, 1782000, 1782386, 1782788, 1783174, 1783554, 1783918, 1784282, 1784704, 1785059, 1785423, 1785807]","[1776842, 1777241, 1777641, 1778041, 1778441, 1778841, 1779241, 1779641, 1780003, 1780409, 1780808, 1781177, 1781579, 1782000, 1782383, 1782779, 1783168, 1783543, 1783908, 1784279, 1784698, 1785032, 1785411, 1785804]",91,OR,L,R,ITMSR,1.1,
2,600,trial,0,86,86,86,trial,"['S', 'S', 'S', 'S', 'S', 'S', 'S', 'S', 'C', 'C', 'C', 'C', 'C', 'C', 'C', 'C', 'C', 'C', 'C', 'C', 'C', 'C', 'C', 'C']","[1791516, 1791878, 1792546, 1793211, 1793844, 1794458, 1794971, 1795561, 1796167, 1796781, 1797327, 1797943, 1798563, 1799151, 1799759, 1800328, 1800897, 1801499, 1802078, 1802627, 1803124, 1803667, 1804190, 1804738]","[1791614, 1792013, 1792667, 1793315, 1793908, 1794586, 1795135, 1795707, 1796316, 1796922, 1797468, 1798077, 1798702, 1799300, 1799926, 1800471, 1801042, 1801627, 1802209, 1802762, 1803269, 1803817, 1804362, 1804845]","[220, 22, 20, 25, 184, 209, 10, 24, 9, 40, 18, 0, 11, 15, 24, 254, 105, 156, 172, 140, 110, 142, 171, 6]","[1791541, 1791928, 1792598, 1793262, 1793865, 1794513, 1795034, 1795620, 1796222, 1796828, 1797384, 1797963, 1798587, 1799197, 1799815, 1800344, 1800954, 1801559, 1802131, 1802683, 1803175, 1803727, 1804274, 1804763]","[1791407, 1792007, 1792607, 1793207, 1793807, 1794407, 1795007, 1795607, 1796187, 1796801, 1797347, 1797963, 1798583, 1799171, 1799779, 1800348, 1800918, 1801519, 1802098, 1802647, 1803144, 1803687, 1804210, 1804759]",91,OR,L,R,ITMSR,1.1,
3,400,trial,0,87,87,87,trial,"['S', 'S', 'S', 'S', 'S', 'S', 'S', 'C', 'C', 'C', 'C', 'C', 'C', 'C', 'C', 'C', 'C', 'C', 'C', 'C', 'C', 'C', 'C']","[1810878, 1811236, 1811556, 1811973, 1812370, 1812776, 1813176, 1813595, 1813985, 1814336, 1814676, 1815020, 1815389, 1815740, 1816111, 1816477, 1816825, 1817190, 1817526, 1817884, 1818229, 1818532, 1818856]","[1811021, 1811341, 1811663, 1812064, 1812470, 1812840, 1813278, 1813693, 1814064, 1814425, 1814756, 1815108, 1815474, 1815833, 1816184, 1816559, 1816940, 1817281, 1817631, 1817959, 1818324, 1818613, 1818954]","[30, 245, 10, 3, 255, 141, 231, 12, 3, 250, 252, 212, 205, 206, 143, 202, 239, 175, 205, 131, 177, 52, 150]","[1810933, 1811262, 1811577, 1811994, 1812392, 1812795, 1813199, 1813615, 1814005, 1814363, 1814696, 1815046, 1815410, 1815767, 1816134, 1816502, 1816879, 1817219, 1817580, 1817904, 1818253, 1818557, 1818894]","[1810498, 1810897, 1811297, 1811697, 1812098, 1812498, 1812898, 1813298, 1813615, 1814005, 1814356, 1814696, 1815041, 1815409, 1815760, 1816131, 1816497, 1816845, 1817210, 1817546, 1817904, 1818249, 1818552, 1818876]",91,OR,L,R,ITMSR,1.1,
4,600,trial,0,88,88,88,trial,"['S', 'S', 'S', 'S', 'S', 'S', 'S', 'C', 'C', 'C', 'C', 'C', 'C', 'C', 'C', 'C', 'C', 'C', 'C', 'C', 'C', 'C', 'C']","[1824933, 1825639, 1826206, 1826869, 1827503, 1828127, 1828670, 1829344, 1829913, 1830450, 1830999, 1831559, 1832114, 1832627, 1833174, 1833736, 1834326, 1834862, 1835453, 1835947, 1836515, 1837080, 1837666]","[1825065, 1825723, 1826347, 1826988, 1827595, 1828207, 1828764, 1829415, 1830018, 1830577, 1831129, 1831659, 1832237, 1832707, 1833283, 1833862, 1834423, 1834963, 1835552, 1836070, 1836647, 1837215, 1837775]","[230, 154, 181, 182, 156, 76, 208, 194, 171, 206, 193, 198, 159, 63, 159, 223, 139, 218, 221, 243, 215, 215, 143]","[1824993, 1825662, 1826266, 1826897, 1827526, 1828152, 1828691, 1829367, 1829946, 1830508, 1831024, 1831580, 1832137, 1832650, 1833231, 1833761, 1834356, 1834889, 1835475, 1835972, 1836540, 1837137, 1837692]","[1824619, 1825219, 1825819, 1826419, 1827019, 1827619, 1828219, 1828819, 1829364, 1829933, 1830470, 1831019, 1831579, 1832134, 1832647, 1833194, 1833756, 1834346, 1834882, 1835473, 1835967, 1836535, 1837101, 1837686]",91,OR,L,R,ITMSR,1.1,
3,600,trial,0,89,89,89,trial,"['S', 'S', 'S', 'S', 'S', 'S', 'S', 'S', 'C', 'C', 'C', 'C', 'C', 'C', 'C', 'C', 'C', 'C', 'C', 'C', 'C', 'C', 'C', 'C']","[1843290, 1843763, 1844345, 1844904, 1845576, 1846200, 1846866, 1847427, 1848022, 1848624, 1849249, 1849833, 1850440, 1851057, 1851661, 1852280, 1852870, 1853432, 1854055, 1854656, 1855243, 1855796, 1856370, 1856954]","[1843410, 1843879, 1844472, 1845017, 1845679, 1846288, 1846960, 1847548, 1848114, 1848735, 1849357, 1849973, 1850596, 1851173, 1851820, 1852392, 1852986, 1853615, 1854147, 1854761, 1855338, 1855900, 1856472, 1857051]","[242, 214, 4, 20, 39, 24, 16, 32, 16, 25, 40, 25, 33, 250, 17, 252, 235, 19, 222, 242, 232, 198, 196, 194]","[1843311, 1843789, 1844375, 1844926, 1845596, 1846220, 1846887, 1847480, 1848042, 1848644, 1849270, 1849886, 1850499, 1851080, 1851714, 1852301, 1852893, 1853503, 1854075, 1854706, 1855259, 1855846, 1856392, 1856975]","[1843275, 1843875, 1844475, 1845075, 1845676, 1846275, 1846875, 1847475, 1848042, 1848644, 1849269, 1849853, 1850460, 1851077, 1851681, 1852300, 1852890, 1853452, 1854075, 1854676, 1855263, 1855816, 1856390, 1856974]",91,OR,L,R,ITMSR,1.1,
