pitch,ioi,event,.thisRepN,.thisTrialN,.thisN,.thisIndex,event,tap_types,tap_times,release_times,peak_pressures,peak_times,tone_times,subject,experimenter,register,handedness,experiment,version,
,,SPR,0,-1,-1,0,SPR,"['P', 'P', 'P', 'P', 'P', 'P', 'P', 'P', 'P', 'P', 'P', 'P', 'P', 'P', 'P', 'P', 'P', 'P', 'P', 'P', 'P', 'P', 'P', 'P', 'P', 'P', 'P', 'P', 'P', 'P']","[33468, 33907, 36200, 37839, 39741, 39940, 40134, 40316, 40520, 40701, 40892, 41088, 41273, 41465, 41657, 41862, 42063, 42266, 42472, 42670, 42867, 43068, 43260, 43456, 43651, 43852, 44058, 44253, 44455, 44638]","[33705, 34103, 37436, 39609, 39820, 40016, 40209, 40397, 40597, 40784, 40974, 41164, 41357, 41543, 41736, 41950, 42149, 42361, 42560, 42759, 42956, 43152, 43351, 43538, 43740, 43938, 44140, 44339, 44534, 44732]","[25, 246, 179, 102, 58, 0, 215, 181, 155, 68, 90, 44, 75, 86, 62, 94, 80, 158, 151, 123, 120, 121, 132, 121, 141, 122, 117, 86, 74, 21]","[33563, 33914, 36612, 38630, 39748, 39948, 40142, 40353, 40528, 40744, 40931, 41119, 41312, 41501, 41693, 41897, 42103, 42316, 42510, 42703, 42907, 43108, 43298, 43492, 43693, 43891, 44098, 44296, 44493, 44697]",,53,SB,U,R,ITMSR,1.0,
0,500,practice,0,0,0,0,practice,"['B', 'S', 'S', 'S', 'S', 'S', 'S', 'S', 'S', 'S', 'S', 'S', 'S', 'S', 'S', 'S', 'C', 'C', 'C', 'C', 'C', 'C', 'C', 'C', 'C', 'C', 'C', 'C', 'C', 'C', 'C', 'C', 'C', 'C', 'C', 'C', 'C', 'C', 'C', 'C', 'C', 'C', 'C', 'C', 'C', 'C', 'C', 'C']","[116782, 117101, 117552, 117756, 117986, 118207, 118440, 118719, 118945, 119161, 119365, 119573, 119774, 119972, 120194, 120407, 120622, 120841, 121067, 121351, 121611, 121893, 122156, 122378, 122599, 122868, 123096, 123348, 123611, 123876, 124115, 124369, 124635, 124899, 125155, 125412, 125661, 125900, 126157, 126407, 126625, 126866, 127094, 127331, 127566, 127817, 128052, 128304]","[116892, 117214, 117636, 117852, 118067, 118286, 118550, 118809, 119033, 119239, 119439, 119650, 119873, 120085, 120309, 120500, 120710, 120923, 121180, 121453, 121707, 121997, 122228, 122441, 122677, 122938, 123193, 123454, 123722, 123979, 124215, 124469, 124724, 124991, 125250, 125508, 125754, 126003, 126254, 126509, 126724, 126955, 127186, 127434, 127674, 127923, 128163]","[229, 104, 58, 201, 103, 169, 168, 51, 63, 57, 154, 193, 223, 100, 109, 83, 83, 109, 104, 169, 226, 207, 230, 239, 48, 226, 44, 5, 28, 29, 34, 28, 58, 66, 67, 45, 37, 46, 13, 35, 12, 220, 4, 32, 108, 35, 48]","[116782, 117133, 117582, 117810, 118027, 118240, 118496, 118750, 118980, 119203, 119403, 119605, 119820, 120037, 120246, 120453, 120667, 120879, 121121, 121400, 121660, 121942, 122196, 122406, 122640, 122896, 123137, 123393, 123652, 123922, 124155, 124414, 124676, 124934, 125196, 125443, 125702, 125943, 126197, 126442, 126670, 126904, 127134, 127377, 127609, 127861, 128095]","[116810, 117310, 117810, 118309, 118809, 119310, 119810, 120309, 120663, 121108, 121652, 122196, 122640, 123137, 123652, 124155, 124676, 125196, 125702, 126197, 126665, 127134, 127606, 128093]",53,SB,U,R,ITMSR,1.0,
2,500,practice,0,1,1,1,practice,"['B', 'S', 'S', 'S', 'S', 'S', 'S', 'S', 'S', 'S', 'S', 'S', 'S', 'S', 'S', 'S', 'S', 'S', 'C', 'C', 'C', 'C', 'C', 'C', 'C', 'C', 'C', 'C', 'C', 'C', 'C', 'C', 'C', 'C', 'C', 'C', 'C', 'C', 'C', 'C', 'C', 'C', 'C', 'C', 'C', 'C', 'C', 'C', 'C', 'C']","[133849, 134077, 134305, 134553, 134768, 134964, 135201, 135412, 135627, 135830, 136024, 136226, 136448, 136641, 136832, 137034, 137261, 137466, 137671, 137854, 138046, 138251, 138459, 138676, 138862, 139082, 139320, 139565, 139798, 140034, 140251, 140464, 140675, 140888, 141103, 141353, 141588, 141800, 142019, 142254, 142471, 142678, 142895, 143114, 143331, 143555, 143779, 144007, 144234, 144461]","[133912, 134154, 134395, 134642, 134877, 135064, 135279, 135504, 135713, 135912, 136101, 136305, 136499, 136724, 136921, 137121, 137332, 137540, 137728, 137923, 138120, 138337, 138536, 138773, 138973, 139179, 139408, 139660, 139900, 140138, 140354, 140555, 140771, 140987, 141220, 141459, 141680, 141913, 142117, 142341, 142560, 142778, 142990, 143209, 143435, 143649, 143879, 144113, 144323]","[24, 61, 185, 194, 232, 154, 185, 207, 185, 164, 173, 210, 157, 223, 186, 182, 150, 207, 165, 19, 40, 244, 112, 198, 194, 172, 39, 189, 173, 191, 176, 152, 170, 194, 205, 122, 149, 229, 205, 188, 213, 234, 232, 226, 233, 140, 144, 206, 148]","[133849, 134102, 134337, 134584, 134800, 135014, 135233, 135447, 135669, 135876, 136064, 136266, 136472, 136671, 136877, 137076, 137291, 137498, 137688, 137884, 138064, 138286, 138476, 138723, 138907, 139132, 139361, 139602, 139841, 140081, 140295, 140507, 140717, 140934, 141151, 141408, 141629, 141851, 142067, 142282, 142512, 142727, 142940, 143161, 143374, 143599, 143820, 144055, 144275]","[133876, 134377, 134877, 135376, 135876, 136377, 136877, 137376, 137711, 138087, 138500, 138902, 139361, 139839, 140292, 140716, 141144, 141629, 142060, 142512, 142936, 143372, 143819, 144275]",53,SB,U,R,ITMSR,1.0,
4,500,practice,0,2,2,2,practice,"['B', 'S', 'S', 'S', 'S', 'S', 'S', 'S', 'S', 'S', 'S', 'S', 'S', 'S', 'S', 'S', 'S', 'S', 'C', 'C', 'C', 'C', 'C', 'C', 'C', 'C', 'C', 'C', 'C', 'C', 'C', 'C', 'C', 'C', 'C', 'C', 'C', 'C', 'C', 'C', 'C', 'C', 'C', 'C', 'C', 'C', 'C', 'C', 'C']","[149671, 149861, 150086, 150330, 150562, 150772, 150995, 151207, 151437, 151647, 151860, 152080, 152299, 152521, 152752, 152955, 153163, 153398, 153611, 153816, 154028, 154797, 155042, 155326, 155561, 155814, 156081, 156328, 156576, 156805, 157034, 157264, 157491, 157713, 157933, 158163, 158390, 158600, 158849, 159090, 159324, 159572, 159800, 160023, 160250, 160479, 160695, 160930, 161158]","[149714, 149937, 150162, 150386, 150618, 150843, 151060, 151283, 151512, 151717, 151942, 152168, 152389, 152613, 152837, 153059, 153256, 153479, 153688, 153902, 154717, 154889, 155195, 155419, 155684, 155933, 156200, 156460, 156687, 156910, 157143, 157372, 157595, 157804, 158016, 158233, 158476, 158711, 158951, 159177, 159416, 159657, 159901, 160124, 160346, 160574, 160794, 161015]","[23, 35, 27, 25, 141, 17, 76, 40, 50, 48, 50, 116, 84, 111, 214, 2, 159, 200, 101, 158, 46, 163, 188, 88, 112, 200, 222, 215, 206, 206, 196, 204, 193, 153, 128, 107, 177, 217, 226, 211, 210, 188, 253, 15, 231, 224, 14, 221]","[149671, 149899, 150115, 150355, 150584, 150801, 151021, 151240, 151474, 151676, 151894, 152116, 152343, 152561, 152782, 153003, 153206, 153430, 153652, 153852, 154275, 154840, 155119, 155367, 155616, 155870, 156133, 156379, 156625, 156856, 157083, 157310, 157541, 157755, 157973, 158203, 158419, 158654, 158881, 159130, 159362, 159589, 159833, 160066, 160283, 160520, 160743, 160970]","[149700, 150200, 150700, 151199, 151700, 152200, 152699, 153199, 153652, 154068, 154838, 155367, 155854, 156368, 156846, 157304, 157754, 158203, 158641, 159130, 159612, 160064, 160520, 160970]",53,SB,U,R,ITMSR,1.0,
1,500,practice,0,3,3,3,practice,"['S', 'S', 'S', 'S', 'S', 'S', 'S', 'C', 'C', 'C', 'C', 'C', 'C', 'C', 'C', 'C', 'C', 'C', 'C', 'C', 'C', 'C', 'C', 'C', 'C', 'C']","[166614, 167238, 167812, 168304, 168795, 169303, 169790, 170264, 170797, 171232, 171489, 171783, 172015, 172329, 172721, 173049, 173469, 173852, 174149, 174476, 174786, 175059, 175347, 175656, 175979, 176286]","[166929, 167474, 168005, 168505, 168978, 169504, 170004, 170467, 170991, 171354, 171571, 171852, 172079, 172409, 172823, 173181, 173566, 173941, 174270, 174589, 174869, 175130, 175449, 175782, 176113, 176401]","[41, 215, 125, 171, 142, 168, 182, 209, 159, 69, 86, 55, 45, 105, 3, 28, 140, 73, 84, 6, 132, 66, 146, 242, 219, 244]","[166753, 167332, 167920, 168391, 168868, 169416, 169872, 170374, 170907, 171293, 171529, 171823, 172040, 172367, 172773, 173114, 173512, 173891, 174201, 174528, 174825, 175089, 175400, 175713, 176043, 176346]","[166506, 167005, 167504, 168004, 168505, 169005, 169504, 170004, 170303, 170835, 171271, 171822, 172367, 172760, 173087, 173507, 173890, 174187, 174515, 174825, 175385, 175694, 176018, 176324]",53,SB,U,R,ITMSR,1.0,
5,500,practice,0,4,4,4,practice,"['B', 'S', 'S', 'S', 'S', 'C', 'C', 'C', 'C', 'C', 'C', 'C', 'C', 'C', 'C', 'C', 'C', 'C', 'C', 'C', 'C', 'C']","[181798, 183741, 184215, 184718, 185177, 185708, 186153, 186583, 186940, 187280, 187587, 187853, 190144, 190601, 191114, 191552, 191988, 192378, 192819, 193178, 193592, 193976]","[182083, 183851, 184349, 184825, 185325, 185846, 186259, 186686, 187045, 187351, 187664, 187932, 190256, 190700, 191177, 191628, 192081, 192482, 192906, 193299, 193690, 194051]","[2, 77, 24, 165, 71, 47, 122, 119, 174, 14, 35, 82, 94, 22, 22, 144, 248, 130, 100, 141, 132, 43]","[181867, 183786, 184271, 184742, 185221, 185773, 186193, 186624, 186983, 187321, 187627, 187889, 190196, 190642, 191130, 191592, 192027, 192425, 192859, 193227, 193634, 194017]","[181825, 182325, 182825, 183324, 183825, 184325, 184824, 185324, 185748, 186192, 186622, 186980, 187320, 187627, 190184, 190641, 191154, 191592, 192027, 192417, 192859, 193217, 193632, 194016]",53,SB,U,R,ITMSR,1.0,
3,500,practice,0,5,5,5,practice,"['S', 'S', 'S', 'S', 'S', 'S', 'S', 'C', 'C', 'C', 'C', 'C', 'C', 'C', 'C', 'C', 'C', 'C', 'C', 'C', 'C', 'C', 'C']","[199945, 200381, 200806, 201268, 201760, 202224, 202724, 203230, 203712, 204189, 204670, 205126, 205580, 206040, 206514, 206982, 207424, 207840, 208252, 208685, 209119, 209522, 209927]","[200042, 200486, 200908, 201381, 201859, 202347, 202839, 203352, 203838, 204284, 204756, 205206, 205675, 206143, 206608, 207080, 207511, 207922, 208363, 208768, 209202, 209594, 209999]","[255, 115, 20, 223, 15, 77, 79, 79, 97, 224, 151, 145, 147, 183, 180, 200, 146, 146, 147, 80, 29, 251, 230]","[199989, 200425, 200844, 201311, 201790, 202271, 202766, 203271, 203768, 204228, 204712, 205165, 205626, 206088, 206556, 207022, 207464, 207881, 208299, 208724, 209160, 209564, 209968]","[199382, 199880, 200381, 200881, 201380, 201880, 202381, 202881, 203270, 203752, 204227, 204709, 205165, 205620, 206080, 206553, 207021, 207463, 207880, 208291, 208724, 209159, 209561, 209966]",53,SB,U,R,ITMSR,1.0,
1,600,trial,0,6,6,6,trial,"['S', 'S', 'S', 'S', 'S', 'S', 'S', 'S', 'C', 'C', 'C', 'C', 'C', 'C', 'C', 'C', 'C', 'C', 'C', 'C', 'C', 'C', 'C', 'C', 'C']","[254145, 254564, 255051, 255672, 256177, 256707, 257259, 257876, 258513, 258983, 259470, 259960, 260458, 260901, 261316, 261687, 262038, 262385, 262703, 262995, 263271, 266586, 267195, 267633, 268029]","[254329, 254685, 255156, 255773, 256290, 256819, 257381, 257988, 258642, 259087, 259590, 260066, 260553, 261002, 261413, 261789, 262125, 262476, 262797, 263093, 263352, 266688, 267291, 267719, 268115]","[19, 94, 71, 49, 72, 54, 45, 189, 238, 218, 8, 228, 250, 248, 216, 229, 130, 134, 121, 191, 155, 252, 223, 211, 255]","[254201, 254630, 255101, 255713, 256229, 256758, 257319, 257929, 258569, 259032, 259523, 260015, 260498, 260940, 261354, 261726, 262078, 262423, 262743, 263033, 263298, 266632, 267235, 267671, 268067]","[254031, 254630, 255230, 255831, 256431, 257031, 257631, 258231, 258551, 259021, 259509, 259998, 260497, 260939, 261354, 261726, 262077, 262423, 262742, 263033, 266625, 267234, 267671, 268067]",53,SB,U,R,ITMSR,1.0,
3,600,trial,0,7,7,7,trial,"['S', 'S', 'S', 'S', 'S', 'S', 'S', 'C', 'C', 'C', 'C', 'C', 'C', 'C', 'C', 'C', 'C', 'C', 'C', 'C', 'C', 'C', 'C', 'C']","[274202, 274712, 275330, 275905, 276427, 277047, 277643, 278257, 278790, 279251, 279688, 280089, 280493, 280897, 281273, 281627, 281939, 282222, 285070, 285648, 286110, 286479, 286849, 287192]","[274289, 274827, 275406, 275981, 276533, 277181, 277785, 278402, 278913, 279369, 279810, 280194, 280602, 281016, 281373, 281740, 282064, 282349, 285256, 285774, 286193, 286569, 286962, 287305]","[120, 68, 18, 21, 100, 89, 117, 112, 92, 66, 97, 50, 35, 62, 45, 79, 64, 60, 230, 252, 215, 5, 68, 41]","[274224, 274759, 275349, 275931, 276463, 277100, 277711, 278316, 278838, 279290, 279736, 280128, 280532, 280942, 281314, 281666, 281987, 282271, 285157, 285702, 286149, 286519, 286897, 287241]","[273582, 274181, 274781, 275381, 275981, 276581, 277181, 277780, 278295, 278830, 279289, 279727, 280128, 280532, 280937, 281313, 281665, 281978, 285110, 285686, 286148, 286518, 286888, 287230]",53,SB,U,R,ITMSR,1.0,
4,600,trial,0,8,8,8,trial,"['S', 'S', 'S', 'S', 'S', 'S', 'S', 'C', 'C', 'C', 'C', 'C', 'C', 'C', 'C', 'C', 'C', 'C', 'C', 'C', 'C', 'C', 'C', 'C', 'C']","[293287, 293807, 294407, 295625, 296220, 296827, 297427, 301912, 302348, 302693, 302978, 303330, 303696, 304019, 304553, 304873, 305179, 305653, 305954, 306221, 306650, 307050, 307502, 307923, 308311]","[293434, 293994, 294640, 295846, 296479, 297059, 297630, 302058, 302471, 302807, 303075, 303509, 303823, 304119, 304647, 304989, 305293, 305768, 306068, 306299, 306785, 307222, 307633, 308090, 308593]","[13, 27, 200, 52, 74, 116, 79, 216, 37, 53, 7, 54, 23, 18, 53, 11, 12, 245, 177, 17, 203, 235, 149, 233, 199]","[293356, 293896, 294480, 295725, 296355, 296941, 297507, 301974, 302411, 302743, 303028, 303425, 303761, 304073, 304571, 304941, 305197, 305715, 306019, 306241, 306721, 307143, 307567, 307994, 308383]","[293031, 293632, 294232, 294832, 295432, 296032, 296632, 297232, 301953, 302389, 302734, 303371, 303736, 304060, 304593, 304914, 305219, 305693, 305994, 306691, 307091, 307543, 307963, 308352]",53,SB,U,R,ITMSR,1.0,
4,600,trial,0,9,9,9,trial,"['S', 'S', 'S', 'S', 'S', 'S', 'S', 'S', 'C', 'C', 'C', 'C', 'C', 'C', 'C', 'C', 'C', 'C', 'C', 'C', 'C', 'C', 'C', 'C', 'C']","[313734, 314541, 315137, 315708, 316315, 316890, 317495, 318078, 318887, 319425, 319945, 320441, 320888, 321348, 321762, 322131, 322494, 322826, 323128, 323443, 323709, 324080, 324411, 324746, 325086]","[314031, 314678, 315264, 315862, 316470, 317026, 317640, 318226, 319049, 319540, 320062, 320576, 321005, 321453, 321856, 322258, 322577, 322937, 323224, 323543, 323828, 324228, 324561, 324888, 325267]","[192, 77, 98, 88, 145, 112, 130, 122, 182, 132, 144, 103, 138, 147, 157, 114, 35, 116, 78, 221, 30, 96, 144, 100, 136]","[313809, 314611, 315205, 315783, 316393, 316959, 317566, 318146, 318989, 319484, 319985, 320503, 320928, 321366, 321779, 322171, 322535, 322867, 323169, 323483, 323761, 324157, 324489, 324816, 325180]","[313704, 314304, 314903, 315503, 316103, 316703, 317303, 317903, 318927, 319466, 319985, 320482, 320928, 321388, 321803, 322171, 322535, 322867, 323169, 323483, 324120, 324452, 324787, 325127]",53,SB,U,R,ITMSR,1.0,
0,400,trial,0,10,10,10,trial,"['B', 'S', 'S', 'S', 'S', 'S', 'S', 'S', 'C', 'C', 'C', 'C', 'C', 'C', 'C', 'C', 'C', 'C', 'C', 'C', 'C', 'C', 'C', 'C', 'C', 'C', 'C', 'C']","[330728, 331156, 331579, 331916, 332257, 332624, 333008, 333407, 333794, 334129, 334456, 334752, 335030, 335303, 335587, 335886, 336241, 336535, 336828, 337101, 337412, 337718, 337992, 338347, 338664, 339181, 339593, 339956]","[330830, 331364, 331727, 332087, 332448, 332828, 333243, 333614, 334007, 334333, 334630, 334911, 335149, 335444, 335695, 336097, 336391, 336702, 336984, 337230, 337583, 337856, 338130, 338490, 338799, 339283, 339689, 340045]","[95, 0, 194, 108, 4, 147, 198, 236, 45, 108, 250, 213, 150, 230, 43, 92, 128, 98, 181, 123, 30, 35, 22, 35, 28, 244, 244, 238]","[330728, 331245, 331641, 332000, 332355, 332692, 333110, 333493, 333935, 334220, 334571, 334818, 335081, 335380, 335601, 336000, 336299, 336619, 336878, 337152, 337506, 337768, 338037, 338412, 338717, 339227, 339639, 340001]","[330757, 331156, 331555, 331956, 332355, 332755, 333156, 333555, 333835, 334170, 334496, 334792, 335343, 335927, 336281, 336576, 336869, 337453, 337759, 338387, 338705, 339222, 339634, 339996]",53,SB,U,R,ITMSR,1.0,
2,400,trial,0,11,11,11,trial,"['B', 'S', 'C', 'C', 'C', 'C', 'C', 'C', 'C', 'C', 'C', 'C', 'C', 'C', 'C', 'C', 'C', 'C', 'C', 'C', 'C', 'C', 'C', 'C', 'C']","[345363, 347709, 348498, 348823, 349102, 349493, 349799, 350074, 350404, 350679, 351188, 351781, 352186, 352500, 352777, 353078, 353382, 353674, 353944, 354246, 354516, 354833, 355154, 355423, 355765]","[347546, 348281, 348644, 348938, 349208, 349643, 349936, 350193, 350540, 350807, 351352, 351929, 352321, 352626, 352894, 353220, 353503, 353792, 354058, 354368, 354631, 354971, 355272, 355539, 355895]","[80, 194, 73, 52, 80, 119, 138, 118, 140, 126, 151, 123, 112, 108, 89, 102, 77, 55, 18, 252, 223, 244, 221, 215, 127]","[345363, 347819, 348556, 348873, 349117, 349562, 349849, 350086, 350460, 350690, 351271, 351835, 352195, 352509, 352784, 353132, 353390, 353687, 353963, 354264, 354532, 354887, 355205, 355476, 355810]","[345391, 345791, 346190, 346591, 346990, 347390, 347791, 348190, 348538, 348864, 349534, 349840, 350444, 351228, 351821, 352227, 352540, 353119, 353423, 353715, 354286, 354874, 355194, 355806]",53,SB,U,R,ITMSR,1.0,
3,400,trial,0,12,12,12,trial,"['S', 'S', 'S', 'S', 'S', 'S', 'S', 'S', 'C', 'C', 'C', 'C', 'C', 'C', 'C', 'C', 'C', 'C', 'C', 'C', 'C', 'C', 'C', 'C', 'C', 'C', 'C']","[361287, 361715, 362074, 362437, 362800, 363204, 363582, 363978, 364354, 364720, 365036, 365356, 365659, 365935, 366249, 366563, 366846, 367192, 367502, 367790, 368203, 368526, 368914, 369198, 369646, 369983, 370305]","[361445, 361845, 362224, 362585, 362954, 363368, 363719, 364125, 364489, 364850, 365190, 365503, 365789, 366047, 366416, 366676, 366971, 367336, 367635, 367960, 368322, 368655, 369016, 369317, 369763, 370091, 370419]","[128, 91, 19, 40, 86, 82, 66, 85, 54, 229, 11, 72, 51, 41, 94, 65, 61, 89, 76, 89, 55, 46, 35, 17, 45, 37, 23]","[361347, 361765, 362157, 362486, 362852, 363289, 363635, 364028, 364406, 364776, 365090, 365404, 365707, 365985, 366332, 366615, 366862, 367248, 367554, 367837, 368259, 368581, 368930, 369252, 369700, 369999, 370358]","[361163, 361563, 361962, 362362, 362763, 363162, 363563, 363963, 364393, 364759, 365076, 365394, 365699, 366288, 366602, 367230, 367542, 367828, 368241, 368565, 368954, 369685, 370023, 370344]",53,SB,U,R,ITMSR,1.0,
4,400,trial,0,13,13,13,trial,"['S', 'S', 'S', 'S', 'S', 'S', 'S', 'S', 'C', 'C', 'C', 'C', 'C', 'C', 'C', 'C', 'C', 'C', 'C', 'C', 'C', 'C', 'C', 'C', 'C', 'C', 'C', 'C']","[375901, 376379, 376843, 377263, 377650, 378036, 378481, 378910, 379312, 379695, 380068, 380404, 380737, 381047, 381343, 381635, 381912, 382203, 382500, 382757, 383035, 383334, 383608, 383908, 384205, 384489, 384774, 385067]","[376132, 376560, 377008, 377420, 377811, 378222, 378619, 379059, 379517, 379874, 380235, 380567, 380895, 381220, 381500, 381787, 382057, 382358, 382635, 382904, 383193, 383481, 383753, 384052, 384340, 384616, 384910, 385213]","[113, 147, 104, 52, 31, 41, 4, 23, 74, 63, 45, 14, 54, 0, 12, 8, 253, 251, 51, 82, 72, 73, 31, 58, 76, 51, 42, 52]","[375983, 376434, 376897, 377316, 377702, 378116, 378529, 378961, 379413, 379744, 380115, 380472, 380809, 381126, 381422, 381648, 381981, 382270, 382559, 382820, 383114, 383399, 383682, 383963, 384256, 384542, 384827, 385121]","[375899, 376299, 376698, 377099, 377498, 377899, 378299, 378698, 379353, 379736, 380108, 380444, 380778, 381087, 381383, 381676, 382243, 382540, 383076, 383375, 383948, 384245, 384815, 385107]",53,SB,U,R,ITMSR,1.0,
0,400,trial,0,14,14,14,trial,"['S', 'S', 'S', 'S', 'S', 'S', 'S', 'C', 'C', 'C', 'C', 'C', 'C', 'C', 'C', 'C', 'C', 'C', 'C', 'C', 'C', 'C', 'C', 'C', 'C', 'C', 'C', 'C']","[390831, 391654, 392017, 392355, 392713, 393099, 393496, 393911, 394247, 394580, 394895, 395190, 395488, 395781, 396055, 397730, 399280, 400544, 401759, 402515, 402894, 403152, 403378, 403629, 403872, 404128, 404356, 404603]","[391272, 391822, 392155, 392507, 392868, 393276, 393698, 394092, 394406, 394737, 395041, 395344, 395623, 395917, 396180, 397934, 399450, 400680, 401883, 402666, 403013, 403244, 403490, 403730, 403983, 404218, 404464]","[142, 121, 135, 137, 138, 133, 148, 147, 142, 137, 135, 143, 139, 140, 122, 115, 112, 132, 128, 133, 127, 126, 93, 96, 105, 101, 91]","[390965, 391735, 392061, 392418, 392772, 393159, 393585, 393997, 394300, 394638, 394950, 395268, 395546, 395835, 396110, 397842, 399350, 400603, 401814, 402572, 402949, 403168, 403432, 403676, 403921, 404149, 404406]","[390818, 391218, 391617, 392017, 392418, 392817, 393218, 393618, 393952, 394288, 394620, 394936, 395231, 395529, 395822, 397770, 399321, 400584, 401800, 402555, 402934, 403419, 403912, 404397]",53,SB,U,R,ITMSR,1.0,
0,600,trial,0,15,15,15,trial,"['S', 'S', 'S', 'S', 'S', 'S', 'S', 'C', 'C', 'C', 'C', 'C', 'C', 'C', 'C', 'C', 'C', 'C', 'C', 'C', 'C', 'C', 'C', 'C', 'C', 'C', 'C', 'C', 'C']","[410413, 410942, 411658, 412262, 412841, 413459, 414009, 414612, 414994, 415293, 415582, 415854, 417003, 417831, 426508, 426914, 427230, 427510, 427828, 428113, 428532, 428937, 429252, 429534, 429813, 430086, 430372, 430670, 430943]","[410541, 411144, 411860, 412463, 413042, 413645, 414224, 414787, 415106, 415413, 415702, 415961, 417208, 417871, 426707, 427041, 427354, 427628, 427954, 428238, 428674, 429076, 429383, 429632, 429939, 430197, 430496, 430792]","[126, 154, 152, 167, 166, 157, 167, 146, 110, 122, 121, 112, 153, 126, 68, 18, 29, 11, 231, 235, 28, 52, 59, 249, 61, 41, 50, 66]","[410468, 411034, 411739, 412347, 412931, 413537, 414093, 414694, 415044, 415346, 415632, 415905, 417105, 417848, 426615, 426979, 427288, 427566, 427890, 428170, 428597, 428999, 429309, 429565, 429869, 430140, 430428, 430726]","[410109, 410710, 411310, 411910, 412510, 413110, 413710, 414310, 414653, 415035, 415334, 415623, 417044, 417871, 426549, 426954, 427271, 427869, 428572, 428978, 429292, 429853, 430412, 430710]",53,SB,U,R,ITMSR,1.0,
5,600,trial,0,16,16,16,trial,"['S', 'S', 'S', 'S', 'S', 'S', 'S', 'C', 'C', 'C', 'C', 'C', 'C', 'C', 'C', 'C', 'C', 'C', 'C', 'C', 'C', 'C', 'C', 'C']","[436747, 437283, 437957, 438663, 439435, 439876, 440383, 440949, 441404, 441817, 442183, 442498, 442781, 444162, 444872, 445341, 445834, 446260, 446610, 446924, 447368, 447788, 448135, 448518]","[436873, 437424, 438102, 438768, 439541, 440010, 440528, 441129, 441566, 441962, 442350, 442639, 442901, 444382, 445022, 445555, 445995, 446445, 446771, 447142, 447514, 447921, 448278, 448652]","[185, 11, 1, 169, 118, 99, 119, 143, 150, 143, 159, 136, 134, 144, 116, 149, 155, 161, 148, 149, 105, 128, 137, 115]","[436809, 437350, 438018, 438716, 439487, 439938, 440444, 441036, 441491, 441872, 442270, 442558, 442834, 444256, 444937, 445465, 445918, 446339, 446668, 447006, 447450, 447841, 448194, 448575]","[436302, 436902, 437501, 438102, 438702, 439302, 439902, 440503, 440988, 441444, 441857, 442222, 442537, 444201, 444911, 445380, 445874, 446300, 446650, 446963, 447408, 447827, 448175, 448558]",53,SB,U,R,ITMSR,1.0,
5,400,trial,0,17,17,17,trial,"['S', 'S', 'S', 'S', 'S', 'S', 'S', 'S', 'C', 'C', 'C', 'C', 'C', 'C', 'C', 'C', 'C', 'C', 'C', 'C', 'C', 'C', 'C', 'C', 'C']","[454180, 454608, 455036, 455419, 455805, 456179, 456562, 456999, 457998, 458339, 458626, 458926, 459278, 459559, 459892, 460282, 460678, 461394, 461743, 462067, 462400, 462798, 463087, 463377, 463750]","[454327, 454742, 455188, 455565, 455950, 456333, 456742, 457156, 458132, 458468, 458780, 459079, 459435, 459712, 460071, 460457, 460853, 461551, 461904, 462231, 462570, 462950, 463246, 463525, 463903]","[103, 96, 107, 115, 116, 124, 130, 136, 112, 119, 133, 125, 130, 131, 136, 135, 147, 121, 118, 131, 129, 122, 122, 107, 139]","[454243, 454665, 455093, 455477, 455861, 456238, 456624, 457051, 458052, 458392, 458681, 458983, 459343, 459619, 459972, 460363, 460753, 461470, 461802, 462142, 462455, 462857, 463143, 463432, 463805]","[454013, 454413, 454813, 455214, 455613, 456012, 456414, 456812, 458038, 458379, 458665, 458966, 459318, 459931, 460321, 460718, 461433, 461783, 462106, 462440, 462837, 463126, 463417, 463790]",53,SB,U,R,ITMSR,1.0,
1,400,trial,0,18,18,18,trial,"['B', 'S', 'S', 'S', 'S', 'S', 'S', 'S', 'C', 'C', 'C', 'C', 'C', 'C', 'C', 'C', 'C', 'C', 'C', 'C', 'C', 'C', 'C', 'C', 'C']","[469427, 469724, 470159, 470557, 470935, 471398, 471741, 472139, 472536, 472988, 473358, 473723, 474083, 474415, 474769, 475121, 475466, 475783, 476091, 476385, 476685, 476988, 477290, 477566, 478590]","[469477, 469910, 470311, 470729, 471100, 471558, 471923, 472351, 472699, 473144, 473515, 473867, 474279, 474617, 474968, 475312, 475651, 475959, 476288, 476591, 476880, 477191, 477442, 477750, 478801]","[84, 132, 127, 132, 52, 68, 105, 122, 108, 132, 123, 114, 134, 135, 138, 141, 131, 136, 137, 143, 141, 142, 131, 123, 110]","[469427, 469809, 470219, 470620, 471011, 471467, 471821, 472230, 472614, 473055, 473431, 473790, 474151, 474517, 474862, 475208, 475544, 475862, 476164, 476476, 476761, 477091, 477349, 477636, 478711]","[469453, 469853, 470252, 470652, 471053, 471452, 471853, 472253, 472574, 473026, 473397, 473761, 474122, 474454, 474808, 475159, 475504, 475822, 476130, 476424, 476724, 477027, 477329, 478628]",53,SB,U,R,ITMSR,1.0,
2,600,trial,0,19,19,19,trial,"['B', 'S', 'S', 'S', 'S', 'S', 'S', 'S', 'S', 'C', 'C', 'C', 'C', 'C', 'C', 'C', 'C', 'C', 'C', 'C', 'C', 'C', 'C', 'C', 'C']","[484116, 484392, 484900, 485372, 485908, 486688, 487258, 487910, 488461, 489064, 489681, 490374, 490798, 491342, 491820, 492204, 492553, 492933, 493322, 493706, 494046, 494389, 494710, 495050, 495382]","[484239, 484574, 485110, 485596, 486171, 486854, 487416, 488061, 488599, 489210, 489821, 490529, 490960, 491499, 491955, 492385, 492734, 493094, 493469, 493855, 494208, 494546, 494888, 495219, 495547]","[186, 164, 176, 169, 136, 73, 12, 94, 132, 101, 243, 152, 244, 62, 173, 7, 47, 120, 124, 135, 137, 118, 161, 123, 36]","[484150, 484481, 485008, 485474, 486019, 486766, 487326, 487987, 488522, 489131, 489760, 490436, 490881, 491410, 491885, 492301, 492634, 493004, 493376, 493765, 494102, 494445, 494764, 495110, 495440]","[484145, 484744, 485344, 485944, 486544, 487144, 487744, 488343, 489105, 489721, 490415, 490839, 491382, 491860, 492244, 492594, 492974, 493363, 493747, 494087, 494430, 494750, 495090, 495423]",53,SB,U,R,ITMSR,1.0,
1,600,trial,0,20,20,20,trial,"['S', 'S', 'S', 'S', 'S', 'S', 'S', 'S', 'C', 'C', 'C', 'C', 'C', 'C', 'C', 'C', 'C', 'C', 'C', 'C', 'C', 'C', 'C', 'C']","[501086, 501534, 502066, 502635, 503354, 504062, 504652, 505220, 505952, 506505, 506984, 507489, 507997, 508464, 508915, 509349, 509808, 510254, 510673, 511135, 511561, 511944, 512324, 512658]","[501211, 501758, 502283, 502832, 503527, 504225, 504825, 505403, 506148, 506692, 507210, 507696, 508200, 508626, 509117, 509575, 510011, 510456, 510892, 511329, 511747, 512129, 512510, 512838]","[69, 120, 113, 115, 112, 95, 102, 137, 143, 109, 122, 96, 120, 47, 90, 120, 95, 109, 111, 106, 104, 105, 94, 68]","[501133, 501588, 502172, 502719, 503420, 504117, 504714, 505313, 506054, 506615, 507106, 507578, 508102, 508528, 509030, 509473, 509901, 510365, 510784, 511227, 511660, 512041, 512414, 512748]","[500860, 501459, 502060, 502660, 503260, 503860, 504460, 505060, 505991, 506544, 507023, 507528, 508036, 508503, 508953, 509387, 509846, 510292, 510711, 511173, 511599, 511982, 512362, 512697]",53,SB,U,R,ITMSR,1.0,
3,600,trial,0,21,21,21,trial,"['S', 'S', 'S', 'S', 'S', 'S', 'S', 'S', 'C', 'C', 'C', 'C', 'C', 'C', 'C', 'C', 'C', 'C', 'C', 'C', 'C', 'C', 'C', 'C']","[518652, 519191, 519761, 520357, 520910, 521437, 521933, 522524, 523111, 523641, 524186, 524679, 525193, 525687, 526182, 526714, 527216, 527667, 528130, 528593, 529043, 529486, 529904, 530309]","[518866, 519430, 519984, 520521, 521098, 521643, 522175, 522718, 523294, 523812, 524345, 524830, 525324, 525812, 526313, 526835, 527379, 527845, 528314, 528785, 529228, 529649, 530089, 530506]","[123, 151, 139, 90, 100, 121, 127, 80, 97, 77, 67, 63, 30, 38, 47, 33, 89, 82, 79, 64, 84, 69, 99, 105]","[518749, 519306, 519862, 520420, 520985, 521511, 522046, 522607, 523179, 523708, 524253, 524746, 525236, 525726, 526222, 526753, 527282, 527731, 528197, 528658, 529108, 529551, 529981, 530387]","[518397, 518996, 519597, 520197, 520797, 521397, 521997, 522597, 523150, 523679, 524225, 524719, 525233, 525725, 526222, 526752, 527255, 527706, 528168, 528631, 529083, 529525, 529943, 530349]",53,SB,U,R,ITMSR,1.0,
5,400,trial,0,22,22,22,trial,"['S', 'S', 'S', 'S', 'S', 'S', 'S', 'S', 'C', 'C', 'C', 'C', 'C', 'C', 'C', 'C', 'C', 'C', 'C', 'C', 'C', 'C', 'C', 'C', 'C']","[536137, 536515, 536882, 537288, 537672, 538076, 538498, 538932, 539443, 539817, 540171, 540521, 540861, 541195, 541520, 541850, 542246, 542562, 542876, 543175, 543503, 543792, 544070, 544450, 544835]","[536316, 536672, 537079, 537502, 537868, 538268, 538703, 539118, 539630, 539991, 540339, 540696, 541033, 541370, 541688, 542026, 542399, 542715, 543010, 543315, 543620, 543913, 544174, 544620, 545015]","[109, 93, 101, 99, 101, 76, 76, 104, 92, 100, 79, 94, 103, 110, 98, 109, 105, 100, 81, 85, 44, 65, 58, 94, 126]","[536211, 536574, 536947, 537369, 537752, 538150, 538571, 539000, 539511, 539888, 540232, 540590, 540932, 541263, 541584, 541913, 542304, 542625, 542916, 543229, 543558, 543832, 544101, 544506, 544901]","[535904, 536302, 536704, 537104, 537502, 537903, 538304, 538703, 539483, 539856, 540211, 540561, 540901, 541235, 541559, 541889, 542285, 542602, 542915, 543214, 543543, 543832, 544490, 544875]",53,SB,U,R,ITMSR,1.0,
3,400,trial,0,23,23,23,trial,"['S', 'S', 'S', 'S', 'S', 'S', 'S', 'S', 'C', 'C', 'C', 'C', 'C', 'C', 'C', 'C', 'C', 'C', 'C', 'C', 'C', 'C', 'C', 'C', 'C', 'C']","[550547, 550935, 551297, 551690, 552080, 552519, 552897, 553282, 553837, 554196, 554506, 554800, 555117, 555404, 555697, 555975, 556430, 556753, 557025, 557434, 557917, 558349, 558929, 559320, 559684, 560227]","[550761, 551135, 551529, 551930, 552321, 552709, 553118, 553503, 554056, 554405, 554674, 555010, 555286, 555568, 555837, 556121, 556609, 556900, 557195, 557626, 558127, 558602, 559075, 559516, 559891, 560424]","[124, 125, 129, 154, 153, 142, 157, 157, 151, 157, 116, 123, 90, 90, 91, 131, 153, 139, 155, 161, 169, 173, 138, 156, 157, 157]","[550629, 550985, 551351, 551795, 552192, 552602, 553010, 553392, 553945, 554295, 554573, 554894, 555182, 555461, 555751, 556017, 556491, 556807, 557106, 557523, 558009, 558440, 558988, 559421, 559744, 560286]","[550292, 550690, 551091, 551490, 551890, 552291, 552690, 553091, 553876, 554234, 554546, 554839, 555156, 555443, 555737, 556469, 556792, 557473, 557957, 558389, 558968, 559360, 559722, 560266]",53,SB,U,R,ITMSR,1.0,
5,600,trial,0,24,24,24,trial,"['S', 'S', 'S', 'S', 'S', 'S', 'C', 'C', 'C', 'C', 'C', 'C', 'C', 'C', 'C', 'C', 'C', 'C', 'C', 'C', 'C', 'C', 'C', 'C', 'C', 'C']","[566815, 567267, 567823, 568415, 569061, 569653, 570260, 570682, 571010, 571309, 571606, 571864, 572196, 572541, 572862, 573148, 573414, 573733, 574046, 574301, 574698, 575044, 575612, 575944, 576508, 576785]","[567007, 567452, 568062, 568576, 569212, 569825, 570448, 570817, 571155, 571447, 571731, 571997, 572381, 572686, 572995, 573288, 573558, 573893, 574174, 574436, 574866, 575201, 575753, 576076, 576637]","[189, 189, 190, 172, 150, 127, 143, 148, 149, 146, 141, 151, 130, 152, 135, 138, 126, 137, 125, 141, 147, 145, 150, 154, 151]","[566901, 567351, 567943, 568494, 569137, 569736, 570371, 570738, 571068, 571361, 571661, 571918, 572306, 572593, 572925, 573208, 573477, 573803, 574099, 574359, 574763, 575101, 575666, 575998, 576561]","[565725, 566324, 566924, 567524, 568124, 568725, 569324, 569925, 570300, 570722, 571049, 571348, 571645, 572235, 572580, 572902, 573188, 573772, 574086, 574738, 575083, 575651, 575983, 576547]",53,SB,U,R,ITMSR,1.0,
4,400,trial,0,25,25,25,trial,"['S', 'S', 'S', 'S', 'S', 'S', 'S', 'C', 'C', 'C', 'C', 'C', 'C', 'C', 'C', 'C', 'C', 'C', 'C', 'C', 'C', 'C', 'C', 'C', 'C']","[582074, 582650, 583059, 583430, 583785, 584165, 584566, 584966, 585329, 585648, 585949, 586235, 586500, 586853, 587134, 587549, 588177, 588758, 589339, 589911, 590468, 590983, 591483, 591982, 592478]","[582205, 582760, 583186, 583533, 583898, 584298, 584700, 585128, 585469, 585779, 586068, 586324, 586590, 586969, 587255, 587729, 588371, 588984, 589540, 590103, 590673, 591194, 591712, 592238, 592694]","[118, 147, 135, 140, 143, 153, 150, 162, 158, 150, 138, 110, 124, 130, 133, 153, 163, 173, 170, 174, 175, 173, 173, 175, 172]","[582128, 582701, 583111, 583473, 583802, 584216, 584615, 585038, 585385, 585696, 586000, 586252, 586518, 586906, 587184, 587608, 588233, 588851, 589407, 589991, 590544, 591037, 591568, 592067, 592564]","[581898, 582297, 582697, 583098, 583497, 583898, 584298, 584697, 585007, 585369, 585689, 585990, 586275, 586894, 587589, 588218, 588798, 589379, 589952, 590509, 591024, 591523, 592022, 592519]",53,SB,U,R,ITMSR,1.0,
2,600,trial,0,26,26,26,trial,"['S', 'S', 'S', 'S', 'S', 'S', 'S', 'S', 'C', 'C', 'C', 'C', 'C', 'C', 'C', 'C', 'C', 'C', 'C', 'C', 'C', 'C', 'C', 'C', 'C', 'C']","[598466, 598761, 599234, 599803, 600437, 601076, 601640, 602174, 602876, 603328, 603634, 603965, 604285, 604580, 604860, 605186, 605666, 606057, 606417, 606778, 607062, 607528, 607926, 608289, 608824, 609166]","[598593, 598938, 599429, 599994, 600573, 601187, 601781, 602383, 603080, 603463, 603838, 604155, 604454, 604729, 604998, 605349, 605787, 606196, 606566, 606907, 607203, 607725, 608131, 608476, 608990, 609336]","[99, 162, 177, 134, 117, 95, 119, 155, 168, 154, 159, 179, 175, 174, 176, 169, 153, 155, 142, 145, 134, 170, 183, 175, 170, 170]","[598528, 598829, 599298, 599878, 600497, 601109, 601695, 602295, 602961, 603385, 603714, 604037, 604362, 604645, 604915, 605245, 605720, 606115, 606483, 606839, 607130, 607630, 608012, 608390, 608904, 609220]","[598256, 598855, 599455, 600055, 600655, 601255, 601856, 602456, 602916, 603369, 603674, 604006, 604325, 604620, 605227, 605707, 606098, 606457, 606819, 607568, 607967, 608329, 608865, 609207]",53,SB,U,R,ITMSR,1.0,
1,400,trial,0,27,27,27,trial,"['S', 'S', 'S', 'S', 'S', 'S', 'S', 'S', 'C', 'C', 'C', 'C', 'C', 'C', 'C', 'C', 'C', 'C', 'C', 'C', 'C', 'C', 'C', 'C', 'C']","[615080, 615426, 615822, 616199, 616598, 616958, 617339, 617713, 618124, 618685, 619278, 619850, 620308, 620784, 621207, 621634, 622041, 622417, 622757, 623109, 623423, 623728, 624013, 624984, 626956]","[615250, 615603, 615996, 616378, 616784, 617161, 617548, 617906, 618380, 618880, 619497, 620038, 620522, 620987, 621430, 621829, 622244, 622610, 622932, 623248, 623610, 623910, 624177, 625170, 627171]","[149, 149, 152, 169, 185, 176, 165, 159, 140, 166, 171, 177, 181, 179, 190, 178, 187, 186, 175, 159, 178, 184, 171, 155, 119]","[615151, 615490, 615889, 616273, 616669, 617036, 617425, 617817, 618271, 618772, 619356, 619916, 620390, 620871, 621287, 621705, 622132, 622483, 622821, 623167, 623496, 623794, 624091, 625074, 627043]","[614750, 615148, 615548, 615949, 616348, 616749, 617149, 617548, 618163, 618724, 619317, 619888, 620347, 620822, 621246, 621673, 622080, 622455, 622795, 623148, 623462, 623766, 625022, 626995]",53,SB,U,R,ITMSR,1.0,
2,400,trial,0,28,28,28,trial,"['S', 'S', 'S', 'S', 'S', 'S', 'S', 'S', 'S', 'C', 'C', 'C', 'C', 'C', 'C', 'C', 'C', 'C', 'C', 'C', 'C', 'C', 'C', 'C', 'C', 'C', 'C', 'C', 'C', 'C', 'C']","[632368, 632832, 633204, 633568, 633895, 634229, 634584, 634928, 635280, 635663, 636032, 636376, 636695, 636995, 637300, 637592, 637886, 638185, 638437, 638702, 638979, 639271, 639556, 639833, 640106, 640401, 640699, 640982, 641281, 641579, 641841]","[632552, 632939, 633325, 633667, 633984, 634343, 634696, 635053, 635414, 635816, 636162, 636512, 636836, 637137, 637427, 637727, 638012, 638285, 638537, 638811, 639093, 639398, 639650, 639922, 640203, 640489, 640790, 641075, 641392, 641673]","[177, 118, 102, 109, 103, 111, 132, 123, 139, 140, 138, 136, 137, 139, 127, 113, 124, 126, 120, 118, 90, 107, 91, 107, 103, 86, 89, 79, 84, 99]","[632441, 632886, 633256, 633580, 633911, 634246, 634598, 634981, 635337, 635719, 636083, 636427, 636749, 637054, 637353, 637645, 637941, 638199, 638453, 638718, 638998, 639326, 639574, 639849, 640122, 640415, 640713, 640997, 641297, 641595]","[632368, 632768, 633167, 633568, 633967, 634368, 634768, 635167, 635704, 636072, 636417, 636736, 637036, 637340, 637633, 637927, 638226, 638742, 639311, 639874, 640442, 640740, 641321, 641619]",53,SB,U,R,ITMSR,1.0,
0,600,trial,0,29,29,29,trial,"['S', 'S', 'S', 'S', 'S', 'S', 'S', 'S', 'S', 'C', 'C', 'C', 'C', 'C', 'C', 'C', 'C', 'C', 'C', 'C', 'C', 'C', 'C', 'C', 'C']","[647234, 647840, 648315, 648864, 649350, 649849, 650443, 650903, 651440, 651977, 652670, 653254, 653853, 654494, 655117, 655749, 656296, 656795, 657280, 657787, 658222, 658671, 659127, 659562, 659973]","[647369, 647967, 648464, 648981, 649490, 650007, 650593, 651053, 651599, 652279, 652839, 653426, 654012, 654647, 655263, 655920, 656432, 656944, 657415, 657928, 658388, 658845, 659288, 659722, 660145]","[122, 118, 111, 96, 77, 84, 89, 110, 118, 136, 129, 118, 105, 102, 86, 93, 50, 63, 51, 80, 73, 79, 89, 89, 81]","[647294, 647899, 648379, 648909, 649407, 649912, 650514, 650969, 651453, 652078, 652740, 653319, 653915, 654554, 655182, 655809, 656355, 656849, 657337, 657851, 658288, 658738, 659189, 659620, 660039]","[647064, 647664, 648264, 648864, 649464, 650064, 650664, 651265, 652017, 652710, 653294, 653893, 654534, 655158, 655790, 656336, 656835, 657320, 657827, 658263, 658711, 659168, 659603, 660014]",53,SB,U,R,ITMSR,1.0,
1,600,trial,0,30,30,30,trial,"['S', 'S', 'S', 'S', 'S', 'S', 'S', 'S', 'S', 'C', 'C', 'C', 'C', 'C', 'C', 'C', 'C', 'C', 'C', 'C', 'C', 'C', 'C', 'C', 'C', 'C', 'C', 'C', 'C', 'C', 'C', 'C', 'C']","[671779, 672066, 672525, 672908, 673688, 674240, 674797, 675343, 675941, 676825, 677319, 677724, 678082, 678403, 678702, 678990, 679259, 679532, 679819, 680099, 680377, 680664, 680942, 681200, 681460, 681725, 682003, 682262, 682545, 682836, 683121, 683383, 683622]","[671889, 672208, 672664, 673061, 673795, 674350, 674916, 675484, 676065, 676973, 677445, 677862, 678215, 678526, 678841, 679122, 679390, 679673, 679929, 680205, 680534, 680764, 681059, 681329, 681572, 681869, 682128, 682397, 682672, 682970, 683249, 683497]","[137, 162, 157, 127, 122, 127, 104, 71, 85, 123, 117, 111, 94, 95, 110, 114, 111, 80, 83, 67, 79, 61, 74, 70, 73, 73, 48, 51, 63, 52, 66, 51]","[671801, 672124, 672585, 672984, 673743, 674293, 674853, 675410, 675992, 676895, 677378, 677780, 678139, 678455, 678751, 679049, 679315, 679598, 679871, 680123, 680442, 680709, 680993, 681264, 681513, 681789, 682057, 682320, 682599, 682895, 683148, 683424]","[671551, 672149, 672749, 673349, 673949, 674549, 675149, 675749, 676864, 677357, 677763, 678121, 678441, 678740, 679028, 679571, 679858, 680416, 680702, 681238, 681763, 682301, 682874, 683421]",53,SB,U,R,ITMSR,1.0,
2,400,trial,0,31,31,31,trial,"['S', 'S', 'S', 'S', 'S', 'S', 'C', 'C', 'C', 'C', 'C', 'C', 'C', 'C', 'C', 'C', 'C', 'C', 'C', 'C', 'C', 'C', 'C', 'C', 'C', 'C', 'C', 'C', 'C', 'C', 'C']","[689846, 690259, 690567, 690927, 691335, 691791, 692142, 692453, 692715, 693004, 693308, 693598, 693898, 694175, 694562, 694870, 695160, 695442, 695793, 696074, 696366, 696665, 696918, 697211, 697495, 697754, 698020, 698300, 698580, 698843, 699119]","[689992, 690420, 690725, 691113, 691514, 691929, 692279, 692577, 692816, 693154, 693435, 693741, 694033, 694311, 694700, 694998, 695299, 695587, 695954, 696220, 696518, 696811, 697066, 697357, 697631, 697879, 698149, 698427, 698682, 698944]","[196, 171, 167, 167, 170, 145, 127, 143, 134, 128, 120, 119, 103, 101, 63, 16, 241, 40, 243, 255, 248, 254, 18, 252, 252, 212, 6, 156, 206, 252]","[689913, 690338, 690635, 691008, 691400, 691862, 692210, 692518, 692739, 693084, 693374, 693669, 693967, 694241, 694627, 694912, 695220, 695511, 695871, 696148, 696444, 696735, 696990, 697284, 697532, 697816, 698082, 698355, 698619, 698884]","[689114, 689514, 689913, 690314, 690713, 691113, 691514, 691913, 692183, 692494, 693045, 693349, 693639, 693939, 694602, 694910, 695200, 695833, 696407, 696706, 697251, 697794, 698341, 698884]",53,SB,U,R,ITMSR,1.0,
4,400,trial,0,32,32,32,trial,"['S', 'S', 'S', 'S', 'S', 'S', 'S', 'S', 'C', 'C', 'C', 'C', 'C', 'C', 'C', 'C', 'C', 'C', 'C', 'C', 'C', 'C', 'C', 'C']","[704507, 704802, 705225, 705682, 706050, 706432, 706832, 707201, 707645, 708214, 708751, 709338, 709860, 710326, 710758, 711141, 711520, 711889, 712254, 712608, 712939, 713297, 713627, 713955]","[704615, 704923, 705355, 705807, 706201, 706574, 706974, 707359, 707899, 708425, 709043, 709601, 710105, 710531, 710965, 711366, 711723, 712093, 712442, 712793, 713141, 713488, 713790, 714121]","[118, 120, 112, 73, 73, 52, 42, 40, 96, 100, 144, 148, 157, 134, 123, 113, 125, 112, 104, 91, 92, 81, 67, 35]","[704527, 704862, 705288, 705705, 706120, 706498, 706900, 707268, 707764, 708307, 708869, 709463, 709874, 710428, 710839, 711157, 711537, 711906, 712271, 712626, 713016, 713374, 713645, 714033]","[704279, 704679, 705080, 705479, 705880, 706280, 706679, 707080, 707686, 708254, 708792, 709379, 709901, 710367, 710799, 711182, 711561, 711929, 712295, 712648, 712980, 713337, 713667, 713996]",53,SB,U,R,ITMSR,1.0,
2,400,trial,0,33,33,33,trial,"['S', 'S', 'S', 'S', 'S', 'S', 'S', 'S', 'C', 'C', 'C', 'C', 'C', 'C', 'C', 'C', 'C', 'C', 'C', 'C', 'C', 'C', 'C', 'C']","[719996, 720457, 720787, 721132, 721494, 721869, 722263, 722648, 723081, 723663, 724116, 724490, 724842, 725167, 725466, 725783, 726106, 726401, 726720, 727018, 727345, 727653, 727962, 728275]","[720136, 720568, 720912, 721283, 721627, 722027, 722375, 722757, 723308, 723807, 724241, 724592, 724954, 725293, 725598, 725932, 726221, 726529, 726855, 727159, 727464, 727779, 728093, 728415]","[214, 47, 47, 81, 63, 86, 68, 58, 59, 83, 97, 75, 77, 90, 82, 98, 94, 81, 75, 56, 76, 80, 45, 53]","[720077, 720481, 720803, 721156, 721520, 721892, 722285, 722670, 723206, 723734, 724134, 724507, 724860, 725184, 725483, 725800, 726123, 726418, 726738, 727036, 727363, 727670, 727979, 728344]","[719628, 720026, 720427, 720827, 721226, 721627, 722027, 722426, 723122, 723703, 724157, 724531, 724883, 725208, 725507, 725824, 726147, 726441, 726761, 727059, 727386, 727694, 728002, 728315]",53,SB,U,R,ITMSR,1.0,
4,400,trial,0,34,34,34,trial,"['S', 'S', 'S', 'S', 'S', 'S', 'S', 'C', 'C', 'C', 'C', 'C', 'C', 'C', 'C', 'C', 'C', 'C', 'C', 'C', 'C', 'C', 'C', 'C', 'C', 'C']","[734044, 734357, 734733, 735126, 735507, 735893, 736292, 736693, 737046, 737394, 737681, 737963, 738380, 738797, 739152, 739474, 739759, 740200, 740581, 740955, 741239, 741774, 742171, 742541, 743255, 743646]","[734075, 734459, 734846, 735243, 735634, 736033, 736405, 736828, 737154, 737481, 737769, 738033, 738499, 738886, 739252, 739562, 739854, 740335, 740682, 740996, 741270, 741932, 742211, 742584, 743355, 743748]","[121, 133, 145, 146, 145, 151, 107, 126, 37, 188, 166, 114, 196, 97, 152, 43, 229, 154, 53, 174, 177, 212, 185, 253, 211, 3]","[734059, 734372, 734749, 735139, 735519, 735905, 736308, 736705, 737060, 737406, 737692, 737975, 738393, 738811, 739163, 739485, 739769, 740214, 740591, 740965, 741249, 741782, 742179, 742549, 743267, 743656]","[733633, 734033, 734434, 734833, 735234, 735634, 736033, 736434, 736734, 737087, 737434, 737722, 738420, 738838, 739192, 739515, 740241, 740622, 740996, 741815, 742211, 742582, 743296, 743687]",53,SB,U,R,ITMSR,1.0,
3,400,trial,0,35,35,35,trial,"['S', 'S', 'S', 'S', 'S', 'S', 'S', 'S', 'S', 'C', 'C', 'C', 'C', 'C', 'C', 'C', 'C', 'C', 'C', 'C', 'C', 'C', 'C', 'C', 'C', 'C']","[749195, 749496, 749786, 750175, 750551, 750951, 751329, 751669, 752045, 752800, 753171, 753519, 753854, 754162, 754470, 754819, 755115, 755423, 755738, 756056, 756358, 756649, 756953, 757228, 757600, 757906]","[749276, 749614, 749911, 750268, 750678, 751085, 751470, 751825, 752242, 752923, 753304, 753613, 753955, 754280, 754612, 754899, 755217, 755537, 755849, 756144, 756470, 756766, 757042, 757317, 757687, 758028]","[210, 59, 49, 232, 5, 193, 140, 97, 60, 36, 117, 4, 20, 98, 230, 200, 255, 155, 188, 226, 66, 11, 52, 20, 202, 122]","[749209, 749511, 749799, 750191, 750565, 750964, 751343, 751684, 752150, 752870, 753184, 753531, 753863, 754173, 754534, 754833, 755127, 755433, 755803, 756067, 756370, 756713, 756967, 757240, 757613, 757921]","[749026, 749425, 749826, 750226, 750625, 751026, 751425, 751825, 752838, 753211, 753558, 753893, 754201, 754509, 754857, 755154, 755462, 755776, 756096, 756398, 756688, 756993, 757640, 757946]",53,SB,U,R,ITMSR,1.0,
5,400,trial,0,36,36,36,trial,"['S', 'S', 'S', 'S', 'S', 'S', 'S', 'S', 'C', 'C', 'C', 'C', 'C', 'C', 'C', 'C', 'C', 'C', 'C', 'C', 'C', 'C', 'C', 'C']","[763855, 764207, 764480, 764931, 765391, 765765, 766034, 766411, 766726, 767065, 767464, 767838, 768214, 768647, 769177, 769781, 770364, 770973, 771693, 772202, 772744, 773350, 773995, 774675]","[763955, 764342, 764597, 765051, 765527, 765898, 766155, 766600, 766838, 767225, 767565, 767967, 768336, 768770, 769269, 769879, 770468, 771087, 771791, 772328, 772883, 773491, 774120, 774769]","[142, 139, 107, 135, 138, 148, 132, 98, 95, 133, 110, 125, 109, 105, 88, 126, 127, 112, 94, 140, 132, 152, 113, 114]","[763881, 764260, 764524, 764965, 765445, 765824, 766094, 766531, 766778, 767123, 767504, 767888, 768262, 768689, 769216, 769820, 770410, 771031, 771736, 772261, 772788, 773398, 774040, 774715]","[763665, 764064, 764465, 764865, 765264, 765665, 766065, 766466, 766766, 767105, 767504, 767878, 768253, 768687, 769216, 769820, 770404, 771012, 771733, 772242, 772784, 773390, 774035, 774715]",53,SB,U,R,ITMSR,1.0,
4,600,trial,0,37,37,37,trial,"['S', 'S', 'S', 'S', 'S', 'S', 'S', 'S', 'S', 'C', 'C', 'C', 'C', 'C', 'C', 'C', 'C', 'C', 'C', 'C', 'C', 'C', 'C', 'C', 'C']","[780490, 780770, 781219, 781735, 782301, 782633, 783221, 783759, 784414, 784893, 785432, 785829, 786375, 786839, 787396, 788230, 788813, 789240, 789785, 790231, 790656, 791023, 791384, 791729, 792046]","[780623, 780903, 781415, 781926, 782435, 782891, 783413, 783951, 784574, 785050, 785581, 786021, 786537, 786997, 787534, 788425, 788853, 789382, 789923, 790488, 790796, 791172, 791527, 791844, 792154]","[147, 147, 135, 129, 132, 156, 152, 159, 133, 111, 104, 127, 76, 109, 101, 132, 90, 115, 80, 113, 129, 96, 105, 72, 3]","[780553, 780835, 781295, 781814, 782369, 782704, 783337, 783850, 784494, 784985, 785511, 785932, 786459, 786917, 787465, 788311, 788830, 789307, 789863, 790315, 790728, 791089, 791452, 791770, 792086]","[780336, 780936, 781536, 782136, 782736, 783336, 783936, 784535, 784933, 785473, 785869, 786415, 786880, 787436, 788271, 788853, 789280, 789825, 790272, 790696, 791063, 791425, 791770, 792086]",53,SB,U,R,ITMSR,1.0,
2,600,trial,0,38,38,38,trial,"['S', 'S', 'S', 'S', 'S', 'S', 'S', 'C', 'C', 'C', 'C', 'C', 'C', 'C', 'C', 'C', 'C', 'C', 'C', 'C', 'C', 'C', 'C']","[798138, 798679, 799251, 799938, 800658, 801121, 801798, 802343, 802828, 803292, 803710, 804197, 804767, 805251, 805993, 806396, 806784, 807219, 807559, 807933, 808317, 808692, 809094]","[798235, 798798, 799390, 800099, 800804, 801312, 801942, 802498, 802974, 803462, 803842, 804332, 804921, 805429, 806093, 806523, 806937, 807346, 807716, 808164, 808449, 808803, 809233]","[71, 30, 43, 68, 74, 143, 86, 109, 93, 99, 14, 41, 39, 105, 89, 81, 101, 68, 68, 86, 105, 28, 73]","[798160, 798703, 799326, 800004, 800727, 801190, 801827, 802411, 802894, 803364, 803778, 804267, 804851, 805330, 806034, 806464, 806856, 807285, 807630, 808075, 808386, 808747, 809161]","[797700, 798299, 798899, 799499, 800099, 800699, 801299, 801899, 802383, 802869, 803333, 803750, 804238, 804807, 805292, 806034, 806436, 806824, 807260, 807600, 807973, 808357, 808732, 809135]",53,SB,U,R,ITMSR,1.0,
5,400,trial,0,39,39,39,trial,"['S', 'S', 'S', 'S', 'S', 'S', 'S', 'S', 'C', 'C', 'C', 'C', 'C', 'C', 'C', 'C', 'C', 'C', 'C', 'C', 'C', 'C', 'C', 'C', 'C', 'C', 'C', 'C', 'C']","[814878, 815181, 815473, 815820, 816169, 816515, 816994, 817337, 817814, 818154, 818465, 818786, 819062, 819387, 819549, 819803, 820161, 820457, 820712, 820980, 821266, 821702, 821999, 822278, 822663, 822962, 823302, 823548, 823907]","[815015, 815308, 815585, 815958, 816371, 816689, 817136, 817505, 817956, 818309, 818608, 818911, 819186, 819427, 819668, 819892, 820290, 820593, 820850, 821112, 821432, 821840, 822121, 822392, 822810, 823099, 823356, 823708, 823952]","[56, 86, 95, 103, 110, 101, 74, 55, 97, 113, 77, 75, 64, 97, 5, 242, 250, 38, 236, 59, 239, 69, 47, 34, 63, 55, 254, 71, 73]","[814949, 815247, 815527, 815887, 816249, 816585, 817075, 817411, 817891, 818227, 818540, 818850, 819129, 819402, 819617, 819843, 820230, 820527, 820784, 821051, 821283, 821778, 822065, 822308, 822745, 823027, 823320, 823631, 823924]","[814674, 815075, 815473, 815874, 816275, 816673, 817074, 817473, 817854, 818194, 818504, 818826, 819427, 819843, 820201, 820497, 821019, 821306, 821741, 822038, 822703, 823002, 823342, 823947]",53,SB,U,R,ITMSR,1.0,
1,400,trial,0,40,40,40,trial,"['S', 'S', 'S', 'S', 'S', 'S', 'S', 'S', 'S', 'C', 'C', 'C', 'C', 'C', 'C', 'C', 'C', 'C', 'C', 'C', 'C', 'C', 'C', 'C', 'C']","[829724, 830051, 830376, 830721, 831106, 831689, 831961, 832330, 832636, 833918, 834286, 834607, 835010, 835368, 835686, 836081, 836439, 839940, 840262, 840610, 841050, 841372, 841660, 842136, 842450]","[829852, 830213, 830512, 830845, 831243, 831805, 832123, 832456, 832845, 834127, 834430, 834776, 835169, 835517, 835825, 836220, 836545, 840086, 840408, 840774, 841185, 841519, 841824, 842274, 842583]","[97, 122, 126, 97, 60, 72, 96, 31, 110, 29, 51, 74, 59, 60, 58, 41, 25, 49, 73, 94, 105, 94, 98, 98, 123]","[829783, 830119, 830442, 830790, 831179, 831722, 832038, 832391, 832722, 834056, 834362, 834688, 835090, 835437, 835752, 836149, 836448, 840011, 840339, 840685, 841114, 841448, 841738, 842205, 842519]","[829613, 830013, 830412, 830813, 831212, 831612, 832013, 832412, 833956, 834324, 834646, 835049, 835406, 835725, 836119, 836477, 839979, 840300, 840648, 841089, 841410, 841699, 842175, 842488]",53,SB,U,R,ITMSR,1.0,
5,600,trial,0,41,41,41,trial,"['S', 'S', 'S', 'S', 'S', 'S', 'S', 'S', 'C', 'C', 'C', 'C', 'C', 'C', 'C', 'C', 'C', 'C', 'C', 'C', 'C', 'C', 'C', 'C']","[848463, 848817, 849272, 850082, 850575, 851119, 851829, 852396, 853003, 853583, 854167, 854721, 855323, 855891, 856409, 857021, 857566, 858080, 858701, 859219, 859702, 860379, 860886, 861345]","[848676, 849002, 849437, 850220, 850772, 851304, 852035, 852599, 853171, 853823, 854365, 854882, 855477, 856047, 856549, 857178, 857750, 858248, 858909, 859435, 859882, 860585, 861096, 861504]","[40, 146, 118, 115, 118, 122, 119, 133, 146, 155, 144, 129, 140, 142, 146, 149, 157, 178, 177, 171, 178, 173, 175, 175]","[848625, 848889, 849344, 850143, 850648, 851201, 851906, 852483, 853080, 853686, 854249, 854797, 855393, 855962, 856477, 857089, 857643, 858147, 858774, 859317, 859782, 860462, 860979, 861417]","[848281, 848882, 849481, 850082, 850681, 851282, 851881, 852483, 853043, 853622, 854207, 854761, 855362, 855930, 856449, 857061, 857606, 858120, 858740, 859258, 859742, 860419, 860925, 861384]",53,SB,U,R,ITMSR,1.0,
0,400,trial,0,42,42,42,trial,"['S', 'S', 'S', 'S', 'C', 'C', 'C', 'C', 'C', 'C', 'C', 'C', 'C', 'C', 'C', 'C', 'C', 'C', 'C', 'C', 'C']","[868793, 869126, 869495, 869896, 870311, 870660, 870999, 871325, 871642, 871951, 872253, 872552, 872818, 873129, 873589, 873951, 874260, 874568, 874867, 875184, 875491]","[868926, 869291, 869680, 870069, 870471, 870838, 871169, 871482, 871823, 872121, 872434, 872698, 872965, 873310, 873781, 874116, 874430, 874725, 875028, 875342, 875662]","[138, 149, 158, 148, 123, 121, 131, 134, 154, 153, 151, 135, 129, 139, 147, 138, 145, 135, 138, 125, 142]","[868861, 869200, 869585, 869986, 870389, 870740, 871078, 871401, 871723, 872028, 872333, 872621, 872887, 873208, 873672, 874028, 874335, 874634, 874939, 875255, 875561]","[867185, 867586, 867986, 868385, 868786, 869185, 869585, 869986, 870351, 870701, 871040, 871365, 871683, 871992, 872294, 872593, 873169, 873629, 873992, 874301, 874608, 874907, 875225, 875532]",53,SB,U,R,ITMSR,1.0,
1,400,trial,0,43,43,43,trial,"['C', 'C', 'C', 'C', 'C', 'C', 'C', 'C', 'C', 'C', 'C', 'C', 'C', 'C', 'C', 'C']","[884484, 884838, 885232, 885791, 886163, 886520, 886842, 887207, 888019, 888430, 888775, 889185, 889524, 889857, 890214, 890545]","[884632, 885004, 885382, 885928, 886297, 886668, 886992, 887384, 888193, 888604, 888964, 889371, 889738, 890046, 890388, 890730]","[77, 122, 153, 130, 133, 148, 151, 151, 142, 148, 142, 140, 137, 153, 148, 162]","[884549, 884915, 885301, 885866, 886228, 886591, 886913, 887284, 888089, 888520, 888862, 889264, 889616, 889937, 890287, 890615]","[880902, 881301, 881701, 882102, 882501, 882902, 883302, 883701, 884523, 884877, 885270, 885829, 886202, 886558, 886881, 887245, 888057, 888468, 888813, 889224, 889563, 889895, 890253, 890584]",53,SB,U,R,ITMSR,1.0,
2,600,trial,0,44,44,44,trial,"['C', 'C', 'C', 'C', 'C', 'C', 'C', 'C', 'C', 'C', 'C', 'C', 'C', 'C', 'C', 'C', 'C']","[901207, 901747, 902224, 902734, 903364, 903844, 904324, 904982, 905547, 905985, 907091, 907297, 907724, 908123, 908556, 908855, 909179]","[901384, 901883, 902381, 902884, 903579, 904001, 904554, 905129, 905672, 906155, 907175, 907392, 907863, 908252, 908705, 908983, 909332]","[150, 98, 110, 108, 89, 104, 147, 128, 60, 92, 95, 158, 36, 15, 51, 3, 72]","[901286, 901819, 902307, 902805, 903453, 903914, 904435, 905055, 905606, 906061, 907131, 907336, 907798, 908190, 908645, 908929, 909252]","[896014, 896614, 897214, 897814, 898414, 899014, 899614, 900214, 901248, 901787, 902264, 902774, 903404, 903884, 904365, 905023, 905587, 906025, 907131, 907764, 908164, 908597, 908896, 909219]",53,SB,U,R,ITMSR,1.0,
0,400,trial,0,45,45,45,trial,"['S', 'C', 'C', 'C', 'C', 'C', 'C', 'C', 'C', 'C', 'C', 'C', 'C', 'C', 'C', 'C', 'C']","[915260, 919481, 919910, 920322, 920807, 921273, 921692, 922232, 922712, 925974, 926396, 926789, 927377, 927808, 928179, 928819, 929191]","[915403, 919689, 920064, 920466, 920973, 921407, 921815, 922360, 922838, 926151, 926571, 926949, 927495, 927931, 928305, 928954, 929332]","[102, 160, 135, 111, 149, 122, 127, 158, 150, 134, 130, 135, 90, 45, 69, 65, 99]","[915321, 919588, 919988, 920392, 920892, 921338, 921746, 922287, 922758, 926064, 926475, 926869, 927430, 927863, 928241, 928876, 929261]","[914804, 915205, 915605, 916004, 916405, 916804, 917204, 917605, 919522, 919951, 920363, 920848, 921314, 921733, 922272, 922753, 926015, 926437, 926829, 927418, 927849, 928220, 928860, 929231]",53,SB,U,R,ITMSR,1.0,
5,600,trial,0,46,46,46,trial,"['C', 'C', 'C', 'C', 'C', 'C', 'C', 'C', 'C', 'C', 'C', 'C', 'C', 'C', 'C', 'C']","[939950, 940512, 940997, 941568, 942049, 942545, 943190, 943685, 944168, 944746, 945233, 946006, 946529, 946973, 947573, 948102]","[940149, 940722, 941246, 941756, 942208, 942703, 943364, 943929, 944399, 944972, 945551, 946245, 946787, 947393, 947984, 948386]","[171, 172, 170, 152, 145, 146, 122, 102, 95, 125, 145, 103, 119, 95, 133, 153]","[940052, 940608, 941095, 941656, 942128, 942627, 943201, 943796, 944252, 944851, 945338, 946110, 946643, 947088, 947719, 948219]","[934830, 935429, 936029, 936630, 937229, 937830, 938429, 939028, 939990, 940552, 941036, 941607, 942089, 942584, 943229, 943724, 944207, 944786, 945272, 946045, 946569, 947012, 947612, 948142]",53,SB,U,R,ITMSR,1.0,
4,600,trial,0,47,47,47,trial,"['C', 'C', 'C', 'C', 'C', 'C', 'C', 'C', 'C', 'C', 'C', 'C', 'C', 'C', 'C', 'C']","[958863, 959475, 959961, 960491, 961058, 961554, 962129, 962681, 963421, 963965, 964400, 964962, 965442, 965904, 966480, 966964]","[959133, 959675, 960261, 960946, 961421, 961990, 962491, 962992, 963733, 964283, 964813, 965326, 965808, 966356, 966794]","[162, 165, 170, 184, 188, 181, 179, 164, 168, 143, 159, 159, 159, 159, 162]","[958993, 959569, 960120, 960640, 961212, 961762, 962301, 962856, 963588, 964112, 964566, 965170, 965624, 966174, 966635]","[953734, 954334, 954934, 955534, 956134, 956734, 957334, 957934, 958904, 959515, 960002, 960532, 961098, 961595, 962169, 962721, 963462, 964005, 964441, 965003, 965483, 965945, 966520, 967005]",53,SB,U,R,ITMSR,1.0,
3,600,trial,0,48,48,48,trial,"['S', 'S', 'S', 'S', 'S', 'S', 'C', 'C', 'C', 'C', 'C', 'C', 'C', 'C', 'C', 'C', 'C', 'C', 'C', 'C', 'C', 'C']","[973867, 974459, 975064, 975605, 976211, 976843, 977438, 977964, 978849, 979424, 980019, 980796, 981330, 982000, 982645, 983158, 983729, 984342, 984938, 985585, 986225, 986777]","[974169, 974723, 975333, 975906, 976524, 977070, 977685, 978276, 979073, 979616, 980320, 980981, 981506, 982202, 982837, 983393, 983986, 984574, 985104, 985851, 986450, 986957]","[92, 144, 174, 179, 183, 157, 162, 173, 158, 103, 164, 137, 87, 139, 96, 120, 131, 132, 85, 155, 124, 73]","[974049, 974585, 975186, 975725, 976344, 976954, 977559, 978100, 978971, 979531, 980169, 980883, 981419, 982098, 982761, 983276, 983854, 984453, 985014, 985720, 986339, 986878]","[972776, 973375, 973975, 974575, 975175, 975775, 976375, 976975, 977477, 978002, 978888, 979463, 980058, 980835, 981368, 982039, 982684, 983197, 983768, 984382, 984977, 985624, 986263, 986816]",53,SB,U,R,ITMSR,1.0,
0,600,trial,0,49,49,49,trial,"['S', 'S', 'S', 'C', 'C', 'C', 'C', 'C', 'C', 'C', 'C', 'C', 'C', 'C', 'C', 'C', 'C', 'C', 'C']","[994446, 995599, 996377, 996843, 997421, 998115, 998667, 999341, 1000214, 1001005, 1001529, 1002233, 1002849, 1003619, 1004119, 1004731, 1005252, 1005734, 1006360]","[994643, 995757, 996532, 997070, 997657, 998262, 998852, 999552, 1000395, 1001168, 1001706, 1002426, 1003060, 1003778, 1004305, 1004897, 1005409, 1006000, 1006567]","[73, 60, 3, 86, 73, 234, 8, 245, 35, 13, 55, 20, 63, 51, 24, 18, 28, 120, 89]","[994531, 995691, 996462, 996956, 997539, 998195, 998756, 999456, 1000302, 1001084, 1001619, 1002335, 1002932, 1003698, 1004215, 1004821, 1005330, 1005863, 1006467]","[992129, 992729, 993329, 993929, 994529, 995129, 995729, 996329, 996884, 997462, 998156, 998708, 999382, 1000255, 1001046, 1001570, 1002273, 1002890, 1003660, 1004160, 1004772, 1005292, 1005774, 1006401]",53,SB,U,R,ITMSR,1.0,
1,600,trial,0,50,50,50,trial,"['S', 'S', 'S', 'S', 'S', 'S', 'S', 'C', 'C', 'C', 'C', 'C', 'C', 'C', 'C', 'C', 'C', 'C', 'C', 'C', 'C', 'C', 'C']","[1012347, 1012933, 1013524, 1014150, 1014702, 1015337, 1016041, 1016574, 1017106, 1017832, 1018304, 1018730, 1019109, 1019549, 1020038, 1020483, 1020938, 1021637, 1022100, 1022739, 1023241, 1023795, 1024271]","[1012594, 1013153, 1013815, 1014360, 1014915, 1015680, 1016262, 1016873, 1017293, 1017993, 1018475, 1018887, 1019269, 1019805, 1020333, 1020744, 1021161, 1021862, 1022245, 1022971, 1023462, 1023980, 1024491]","[114, 18, 104, 13, 1, 61, 27, 60, 16, 17, 216, 231, 251, 44, 102, 55, 31, 54, 225, 70, 55, 50, 54]","[1012473, 1013044, 1013638, 1014241, 1014800, 1015479, 1016156, 1016737, 1017216, 1017909, 1018406, 1018813, 1019193, 1019688, 1020194, 1020619, 1021072, 1021750, 1022172, 1022870, 1023342, 1023887, 1024408]","[1011914, 1012514, 1013114, 1013714, 1014315, 1014915, 1015515, 1016115, 1016612, 1017145, 1017871, 1018343, 1018769, 1019148, 1019587, 1020077, 1020522, 1020977, 1021675, 1022139, 1022778, 1023280, 1023834, 1024310]",53,SB,U,R,ITMSR,1.0,
0,600,trial,0,51,51,51,trial,"['S', 'S', 'S', 'S', 'S', 'S', 'S', 'S', 'C', 'C', 'C', 'C', 'C', 'C', 'C', 'C', 'C', 'C', 'C', 'C', 'C', 'C', 'C', 'C']","[1029920, 1030437, 1030747, 1031441, 1031928, 1032728, 1033163, 1033694, 1034286, 1034796, 1035622, 1036136, 1036576, 1036994, 1037628, 1038137, 1038672, 1039371, 1039895, 1040444, 1040865, 1041568, 1042240, 1042872]","[1030066, 1030593, 1030933, 1031616, 1032091, 1032894, 1033305, 1033897, 1034483, 1034993, 1035787, 1036300, 1036717, 1037187, 1037740, 1038295, 1038864, 1039528, 1040058, 1040620, 1041057, 1041737, 1042383, 1042991]","[219, 90, 94, 94, 95, 22, 43, 49, 120, 135, 93, 88, 227, 88, 230, 137, 54, 255, 15, 67, 82, 81, 65, 54]","[1029989, 1030504, 1030829, 1031510, 1032000, 1032804, 1033168, 1033811, 1034386, 1034880, 1035626, 1036140, 1036656, 1037097, 1037679, 1038232, 1038772, 1039451, 1039983, 1040537, 1040966, 1041644, 1042244, 1042876]","[1029679, 1030279, 1030879, 1031479, 1032079, 1032679, 1033279, 1033878, 1034327, 1034836, 1035663, 1036177, 1036616, 1037035, 1037669, 1038178, 1038712, 1039412, 1039936, 1040485, 1040906, 1041608, 1042281, 1042913]",53,SB,U,R,ITMSR,1.0,
3,400,trial,0,52,52,52,trial,"['S', 'S', 'S', 'S', 'S', 'S', 'S', 'S', 'C', 'C', 'C', 'C', 'C', 'C', 'C', 'C', 'C', 'C', 'C', 'C', 'C', 'C', 'C', 'C', 'C', 'C', 'C']","[1048764, 1049140, 1049586, 1049893, 1050275, 1050554, 1050831, 1051187, 1051551, 1051875, 1052181, 1052524, 1052843, 1053145, 1053430, 1053702, 1054157, 1054565, 1054979, 1055308, 1055672, 1055954, 1056242, 1056661, 1056979, 1057282, 1057562]","[1048941, 1049289, 1049706, 1050040, 1050400, 1050705, 1050976, 1051325, 1051736, 1052056, 1052372, 1052710, 1053010, 1053310, 1053577, 1053846, 1054302, 1054722, 1055181, 1055491, 1055836, 1056118, 1056415, 1056837, 1057164, 1057444]","[92, 83, 236, 23, 239, 255, 245, 21, 35, 58, 42, 23, 12, 47, 7, 3, 61, 102, 149, 116, 103, 58, 79, 241, 15, 214]","[1048858, 1049211, 1049648, 1049965, 1050281, 1050632, 1050901, 1051249, 1051641, 1051966, 1052291, 1052635, 1052932, 1053230, 1053493, 1053769, 1054162, 1054629, 1055090, 1055395, 1055745, 1056037, 1056332, 1056753, 1057069, 1057360]","[1048387, 1048786, 1049187, 1049586, 1049987, 1050387, 1050786, 1051187, 1051589, 1051914, 1052220, 1052564, 1052882, 1053185, 1053741, 1054196, 1054605, 1055017, 1055346, 1055712, 1056280, 1056700, 1057017, 1057321]",53,SB,U,R,ITMSR,1.0,
3,600,trial,0,53,53,53,trial,"['B', 'S', 'S', 'S', 'S', 'S', 'S', 'S', 'C', 'C', 'C', 'C', 'C', 'C', 'C', 'C', 'C', 'C', 'C', 'C', 'C', 'C', 'C', 'C']","[1062981, 1063413, 1063909, 1064523, 1065142, 1065691, 1066441, 1067131, 1067555, 1067891, 1068364, 1068819, 1069390, 1070120, 1070772, 1071372, 1071794, 1072322, 1072768, 1073292, 1073694, 1074104, 1074590, 1075016]","[1063261, 1063629, 1064148, 1064694, 1065326, 1065906, 1066607, 1067342, 1067747, 1068151, 1068584, 1069058, 1069654, 1070326, 1071013, 1071545, 1072000, 1072548, 1072920, 1073436, 1073899, 1074354, 1074818, 1075250]","[186, 157, 165, 107, 125, 99, 211, 98, 45, 135, 126, 140, 129, 111, 116, 14, 15, 97, 160, 104, 18, 61, 60, 63]","[1063114, 1063527, 1064019, 1064605, 1065236, 1065794, 1066529, 1067226, 1067665, 1068027, 1068475, 1068938, 1069497, 1070214, 1070901, 1071466, 1071897, 1072436, 1072842, 1073359, 1073798, 1074239, 1074713, 1075128]","[1063008, 1063607, 1064207, 1064807, 1065407, 1066007, 1066607, 1067207, 1067593, 1067930, 1068402, 1068859, 1069429, 1070159, 1070812, 1071412, 1071833, 1072361, 1072806, 1073332, 1073732, 1074144, 1074629, 1075055]",53,SB,U,R,ITMSR,1.0,
2,400,trial,0,54,54,54,trial,"['S', 'S', 'S', 'S', 'S', 'S', 'S', 'C', 'C', 'C', 'C', 'C', 'C', 'C', 'C', 'C', 'C', 'C', 'C', 'C', 'C', 'C', 'C', 'C']","[1085665, 1086024, 1086343, 1086655, 1087010, 1087429, 1087797, 1088221, 1088568, 1088875, 1089210, 1089643, 1089953, 1090468, 1090767, 1091045, 1091383, 1092103, 1092476, 1092772, 1093159, 1093477, 1093793, 1094086]","[1085902, 1086172, 1086514, 1086835, 1087201, 1087626, 1087988, 1088430, 1088747, 1089060, 1089418, 1089806, 1090125, 1090606, 1090937, 1091200, 1091585, 1092264, 1092652, 1092983, 1093354, 1093659, 1093962, 1094241]","[217, 177, 172, 171, 173, 182, 176, 177, 161, 163, 177, 158, 133, 126, 121, 129, 118, 134, 127, 150, 129, 87, 104, 112]","[1085772, 1086103, 1086428, 1086750, 1087108, 1087536, 1087899, 1088334, 1088661, 1088968, 1089316, 1089716, 1090045, 1090535, 1090852, 1091118, 1091484, 1092173, 1092564, 1092878, 1093262, 1093577, 1093873, 1094169]","[1085190, 1085589, 1085988, 1086389, 1086788, 1087188, 1087589, 1087988, 1088262, 1088609, 1088916, 1089251, 1089684, 1089993, 1090508, 1090807, 1091424, 1092144, 1092516, 1092812, 1093199, 1093518, 1093833, 1094126]",53,SB,U,R,ITMSR,1.0,
1,400,trial,0,55,55,55,trial,"['S', 'S', 'S', 'S', 'S', 'S', 'S', 'S', 'C', 'C', 'C', 'C', 'C', 'C', 'C', 'C', 'C', 'C', 'C', 'C', 'C', 'C', 'C', 'C', 'C', 'C', 'C']","[1099766, 1100190, 1100633, 1100974, 1101378, 1101774, 1102153, 1102514, 1102992, 1103397, 1103942, 1104561, 1104875, 1105099, 1105310, 1105563, 1105840, 1106160, 1106433, 1107919, 1108484, 1108845, 1109167, 1109707, 1110078, 1110396, 1111086]","[1099978, 1100392, 1100816, 1101160, 1101577, 1101946, 1102341, 1102689, 1103162, 1103567, 1104087, 1104720, 1105019, 1105224, 1105442, 1105730, 1105973, 1106277, 1106529, 1108083, 1108624, 1109002, 1109265, 1109853, 1110246, 1110542, 1111201]","[158, 151, 124, 118, 121, 75, 100, 74, 94, 95, 41, 85, 47, 10, 29, 27, 236, 64, 173, 76, 252, 40, 244, 228, 189, 173, 129]","[1099871, 1100289, 1100723, 1101059, 1101475, 1101862, 1102251, 1102594, 1103074, 1103472, 1103947, 1104641, 1104934, 1105143, 1105373, 1105665, 1105903, 1106223, 1106480, 1107996, 1108549, 1108921, 1109223, 1109782, 1110165, 1110464, 1111092]","[1099516, 1099916, 1100315, 1100716, 1101116, 1101515, 1101916, 1102315, 1103031, 1103435, 1103980, 1104600, 1104914, 1105348, 1105879, 1106198, 1107957, 1108523, 1108884, 1109206, 1109745, 1110117, 1110434, 1111124]",53,SB,U,R,ITMSR,1.0,
5,600,trial,0,56,56,56,trial,"['B', 'S', 'S', 'S', 'S', 'S', 'S', 'S', 'S', 'S', 'S', 'S', 'C', 'C', 'C', 'C', 'C', 'C', 'C', 'C', 'C', 'C', 'C', 'C', 'C', 'C', 'C', 'C', 'C', 'C', 'C', 'C', 'C', 'C', 'C', 'C', 'C', 'C', 'C', 'C']","[1116771, 1117405, 1117885, 1118402, 1118755, 1119121, 1119370, 1119643, 1119937, 1120398, 1120683, 1120975, 1121230, 1121474, 1121864, 1122129, 1122356, 1122603, 1122878, 1123145, 1123445, 1123690, 1123977, 1124277, 1124511, 1124748, 1124996, 1125211, 1125477, 1125739, 1126674, 1127321, 1127605, 1127950, 1128586, 1128813, 1129026, 1129252, 1129473, 1129737]","[1116873, 1117561, 1118086, 1118598, 1118951, 1119262, 1119554, 1119810, 1120137, 1120549, 1120862, 1121126, 1121373, 1121633, 1122025, 1122238, 1122486, 1122780, 1123003, 1123344, 1123603, 1123846, 1124162, 1124423, 1124652, 1124916, 1125107, 1125316, 1125639, 1125899, 1126809, 1127460, 1127745, 1128255, 1128645, 1128942, 1129171, 1129393, 1129588]","[100, 80, 126, 104, 100, 22, 81, 71, 249, 7, 236, 237, 207, 213, 251, 130, 214, 241, 144, 77, 115, 126, 86, 62, 69, 64, 215, 223, 91, 54, 8, 247, 156, 153, 57, 66, 48, 1, 246]","[1116771, 1117480, 1117997, 1118490, 1118867, 1119198, 1119460, 1119732, 1120034, 1120461, 1120776, 1121049, 1121297, 1121548, 1121943, 1122183, 1122412, 1122672, 1122956, 1123265, 1123517, 1123756, 1124080, 1124348, 1124570, 1124820, 1125049, 1125260, 1125565, 1125805, 1126739, 1127397, 1127611, 1128099, 1128626, 1128871, 1129097, 1129318, 1129528]","[1116797, 1117398, 1117997, 1118598, 1119197, 1119797, 1120398, 1120997, 1121269, 1121903, 1122396, 1122918, 1123484, 1124017, 1124317, 1124788, 1125251, 1125779, 1126714, 1127360, 1127990, 1128626, 1129066, 1129512]",53,SB,U,R,ITMSR,1.0,
2,600,trial,0,57,57,57,trial,"['S', 'S', 'S', 'S', 'S', 'S', 'S', 'S', 'S', 'S', 'C', 'C', 'C', 'C', 'C', 'C', 'C', 'C', 'C', 'C', 'C', 'C', 'C', 'C', 'C', 'C', 'C', 'C', 'C', 'C']","[1135409, 1136006, 1136666, 1137376, 1137861, 1138076, 1138289, 1138493, 1138696, 1139161, 1139517, 1140104, 1140390, 1140690, 1140960, 1141226, 1141526, 1141817, 1142132, 1142401, 1142720, 1143228, 1143474, 1144144, 1144682, 1144934, 1145568, 1146022, 1146386, 1146730]","[1135576, 1136202, 1136842, 1137751, 1137978, 1138197, 1138394, 1138608, 1138793, 1139390, 1139653, 1140227, 1140574, 1140825, 1141146, 1141377, 1141667, 1141984, 1142269, 1142547, 1142875, 1143346, 1143600, 1144281, 1144803, 1145050, 1145729, 1146162, 1146532, 1146888]","[170, 137, 118, 105, 26, 36, 4, 39, 232, 69, 81, 92, 56, 41, 160, 43, 13, 97, 233, 3, 31, 19, 25, 90, 28, 32, 92, 47, 7, 14]","[1135481, 1136097, 1136771, 1137496, 1137909, 1138127, 1138336, 1138543, 1138744, 1139231, 1139579, 1140158, 1140505, 1140750, 1141051, 1141315, 1141584, 1141948, 1142192, 1142469, 1142799, 1143279, 1143526, 1144205, 1144735, 1144980, 1145633, 1146080, 1146463, 1146797]","[1135076, 1135676, 1136276, 1136876, 1137476, 1138076, 1138676, 1139276, 1139558, 1140145, 1140430, 1140730, 1141267, 1141567, 1141858, 1142172, 1142761, 1143269, 1144184, 1144723, 1145609, 1146062, 1146427, 1146771]",53,SB,U,R,ITMSR,1.0,
1,600,trial,0,58,58,58,trial,"['S', 'S', 'S', 'S', 'S', 'S', 'C', 'C', 'C', 'C', 'C', 'C', 'C', 'C', 'C', 'C', 'C', 'C', 'C', 'C', 'C', 'C']","[1154024, 1154793, 1155299, 1155814, 1156130, 1156544, 1157690, 1158241, 1158678, 1158966, 1159309, 1159628, 1159938, 1160376, 1160725, 1161071, 1161525, 1161870, 1162205, 1162722, 1163054, 1163437]","[1154224, 1154937, 1155459, 1155976, 1156382, 1156993, 1157830, 1158538, 1158802, 1159163, 1159440, 1159799, 1160118, 1160518, 1160869, 1161247, 1161677, 1162076, 1162596, 1162857, 1163233, 1163599]","[200, 163, 141, 136, 69, 120, 107, 48, 69, 223, 64, 99, 82, 110, 77, 94, 93, 63, 92, 86, 89, 53]","[1154113, 1154860, 1155361, 1155899, 1156259, 1156637, 1157754, 1158469, 1158739, 1159055, 1159367, 1159714, 1160003, 1160440, 1160790, 1161146, 1161597, 1161997, 1162286, 1162777, 1163158, 1163512]","[1152458, 1153058, 1153658, 1154258, 1154859, 1155459, 1156059, 1156659, 1157729, 1158280, 1158717, 1159005, 1159348, 1159666, 1159976, 1160415, 1160764, 1161109, 1161564, 1161909, 1162244, 1162761, 1163092, 1163475]",53,SB,U,R,ITMSR,1.0,
3,600,trial,0,59,59,59,trial,"['S', 'S', 'S', 'S', 'S', 'S', 'S', 'C', 'C', 'C', 'C', 'C', 'C', 'C', 'C', 'C', 'C', 'C', 'C', 'C', 'C', 'C', 'C', 'C', 'C', 'C', 'C', 'C']","[1169497, 1170071, 1170843, 1171347, 1171878, 1172500, 1173146, 1173660, 1174107, 1174722, 1175183, 1175575, 1175897, 1176213, 1176475, 1176862, 1177160, 1177426, 1177903, 1178444, 1178746, 1179193, 1179508, 1179762, 1180270, 1180547, 1180778, 1181037]","[1169656, 1170238, 1171005, 1171524, 1172047, 1172634, 1173305, 1173818, 1174265, 1174864, 1175294, 1175706, 1176044, 1176323, 1176600, 1177024, 1177296, 1177578, 1178028, 1178562, 1178906, 1179346, 1179664, 1179914, 1180411, 1180664, 1180884]","[127, 151, 120, 120, 118, 111, 87, 91, 107, 44, 70, 65, 79, 93, 103, 111, 89, 77, 104, 140, 77, 50, 87, 102, 78, 70, 34]","[1169575, 1170155, 1170923, 1171430, 1171884, 1172564, 1173231, 1173735, 1174183, 1174793, 1175189, 1175651, 1175976, 1176218, 1176480, 1176949, 1177226, 1177498, 1177909, 1178448, 1178835, 1179286, 1179583, 1179821, 1180345, 1180604, 1180824]","[1169193, 1169793, 1170393, 1170993, 1171593, 1172193, 1172793, 1173393, 1173699, 1174147, 1174762, 1175222, 1175614, 1175936, 1176253, 1176900, 1177199, 1177942, 1178482, 1178784, 1179233, 1179546, 1180309, 1180817]",53,SB,U,R,ITMSR,1.0,
0,600,trial,0,60,60,60,trial,"['S', 'S', 'S', 'S', 'S', 'S', 'S', 'S', 'S', 'C', 'C', 'C', 'C', 'C', 'C', 'C', 'C', 'C', 'C', 'C', 'C', 'C', 'C', 'C', 'C', 'C']","[1186555, 1186902, 1187501, 1188204, 1188550, 1189341, 1190068, 1190373, 1190742, 1191055, 1191497, 1191928, 1193004, 1193440, 1193836, 1194310, 1194920, 1195312, 1196078, 1196555, 1196820, 1197220, 1197518, 1197842, 1198270, 1198801]","[1186719, 1187098, 1187660, 1188326, 1188696, 1189493, 1190183, 1190522, 1190898, 1191265, 1191701, 1192102, 1193161, 1193587, 1194020, 1194437, 1195056, 1195446, 1196177, 1196666, 1196975, 1197373, 1197680, 1197883, 1198419, 1198958]","[162, 164, 151, 109, 113, 92, 87, 113, 118, 149, 153, 129, 97, 89, 107, 79, 92, 100, 68, 191, 85, 35, 79, 6, 15, 36]","[1186628, 1187005, 1187579, 1188254, 1188619, 1189345, 1190072, 1190449, 1190828, 1191148, 1191590, 1192015, 1193071, 1193509, 1193913, 1194368, 1194986, 1195316, 1196084, 1196608, 1196931, 1197302, 1197590, 1197849, 1198354, 1198879]","[1186406, 1187005, 1187605, 1188204, 1188804, 1189404, 1190004, 1190604, 1191096, 1191537, 1191968, 1193044, 1193481, 1193877, 1194350, 1194960, 1195353, 1196119, 1196596, 1197260, 1197558, 1197883, 1198311, 1198841]",53,SB,U,R,ITMSR,1.0,
0,400,trial,0,61,61,61,trial,"['S', 'S', 'S', 'S', 'S', 'S', 'S', 'S', 'C', 'C', 'C', 'C', 'C', 'C', 'C', 'C', 'C', 'C', 'C', 'C', 'C', 'C', 'C', 'C']","[1204717, 1205025, 1205559, 1205955, 1206379, 1206776, 1207170, 1207544, 1207960, 1208487, 1208880, 1209202, 1209572, 1209894, 1210225, 1210578, 1210908, 1211241, 1211558, 1211890, 1212211, 1212523, 1212841, 1213151]","[1204876, 1205181, 1205733, 1206132, 1206542, 1206952, 1207335, 1207717, 1208159, 1208646, 1209044, 1209392, 1209759, 1210086, 1210422, 1210768, 1211100, 1211402, 1211754, 1212082, 1212377, 1212710, 1213023, 1213339]","[117, 151, 154, 129, 130, 121, 131, 107, 117, 114, 119, 129, 143, 142, 126, 151, 136, 119, 146, 129, 126, 124, 141, 129]","[1204785, 1205101, 1205635, 1206041, 1206384, 1206867, 1207246, 1207640, 1208077, 1208563, 1208962, 1209296, 1209663, 1210002, 1210326, 1210673, 1211002, 1211316, 1211654, 1211980, 1212283, 1212612, 1212925, 1213251]","[1204533, 1204932, 1205332, 1205733, 1206132, 1206533, 1206933, 1207332, 1208001, 1208527, 1208921, 1209242, 1209613, 1209934, 1210265, 1210618, 1210948, 1211282, 1211598, 1211930, 1212252, 1212564, 1212881, 1213192]",53,SB,U,R,ITMSR,1.0,
3,400,trial,0,62,62,62,trial,"['S', 'S', 'S', 'S', 'S', 'S', 'S', 'S', 'C', 'C', 'C', 'C', 'C', 'C', 'C', 'C', 'C', 'C', 'C', 'C', 'C', 'C', 'C', 'C', 'C', 'C', 'C', 'C', 'C']","[1218983, 1219312, 1219681, 1220083, 1220400, 1220639, 1220892, 1221383, 1222030, 1222622, 1222917, 1223429, 1223724, 1224019, 1224459, 1225287, 1225988, 1226267, 1226737, 1227004, 1227336, 1227824, 1228353, 1228570, 1228836, 1229119, 1229404, 1229641, 1229829]","[1219098, 1219518, 1219867, 1220239, 1220511, 1220762, 1221011, 1221482, 1222164, 1222744, 1223069, 1223542, 1223872, 1224144, 1224577, 1225423, 1226132, 1226396, 1226876, 1227199, 1227530, 1228015, 1228424, 1228713, 1228976, 1229268, 1229560, 1229731, 1229987]","[69, 147, 133, 114, 75, 84, 85, 110, 64, 51, 100, 103, 98, 60, 56, 99, 99, 67, 76, 38, 107, 93, 132, 79, 90, 43, 52, 80, 104]","[1218990, 1219417, 1219770, 1220158, 1220406, 1220697, 1220952, 1221388, 1222036, 1222628, 1222992, 1223434, 1223799, 1224026, 1224464, 1225354, 1226051, 1226327, 1226798, 1227128, 1227446, 1227927, 1228361, 1228641, 1228843, 1229208, 1229410, 1229682, 1229916]","[1218951, 1219349, 1219749, 1220150, 1220549, 1220950, 1221350, 1221749, 1222069, 1222662, 1222957, 1223468, 1223763, 1224057, 1224499, 1225326, 1226028, 1226776, 1227374, 1227863, 1228392, 1228875, 1229443, 1229869]",53,SB,U,R,ITMSR,1.0,
2,400,trial,0,63,63,63,trial,"['S', 'S', 'S', 'S', 'S', 'S', 'S', 'S', 'C', 'C', 'C', 'C', 'C', 'C', 'C', 'C', 'C', 'C', 'C', 'C', 'C', 'C', 'C', 'C', 'C', 'C', 'C', 'C', 'C', 'C']","[1235607, 1235898, 1236212, 1236585, 1236978, 1237344, 1237739, 1238230, 1238546, 1238942, 1239318, 1239628, 1239970, 1240300, 1240663, 1240968, 1241272, 1241606, 1241919, 1242192, 1242651, 1242921, 1243594, 1243878, 1244136, 1244382, 1244616, 1244855, 1245149, 1245434]","[1235748, 1236066, 1236356, 1236709, 1237130, 1237492, 1237890, 1238411, 1238729, 1239119, 1239483, 1239781, 1240147, 1240479, 1240820, 1241117, 1241447, 1241764, 1242061, 1242320, 1242785, 1243076, 1243731, 1244006, 1244242, 1244512, 1244736, 1244950, 1245319]","[128, 152, 129, 120, 136, 150, 157, 135, 143, 116, 78, 109, 76, 92, 31, 66, 78, 61, 28, 48, 254, 30, 25, 57, 250, 39, 20, 237, 87]","[1235611, 1235984, 1236263, 1236645, 1237037, 1237412, 1237813, 1238325, 1238636, 1239030, 1239392, 1239634, 1240075, 1240394, 1240731, 1241049, 1241363, 1241682, 1241925, 1242199, 1242718, 1242997, 1243666, 1243884, 1244143, 1244388, 1244660, 1244862, 1245244]","[1235412, 1235813, 1236212, 1236613, 1237013, 1237412, 1237813, 1238212, 1238587, 1238982, 1239359, 1239668, 1240010, 1240341, 1240704, 1241009, 1241313, 1241647, 1241960, 1242691, 1243634, 1244177, 1244656, 1245190]",53,SB,U,R,ITMSR,1.0,
0,600,trial,0,64,64,64,trial,"['S', 'S', 'S', 'S', 'S', 'S', 'S', 'S', 'C', 'C', 'C', 'C', 'C', 'C', 'C', 'C', 'C', 'C', 'C', 'C', 'C', 'C', 'C', 'C', 'C', 'C']","[1250919, 1251416, 1251907, 1252324, 1252938, 1253550, 1254194, 1254943, 1255555, 1256220, 1257074, 1258153, 1258762, 1259075, 1259956, 1260759, 1261113, 1261686, 1262195, 1262470, 1263125, 1263644, 1264116, 1264614, 1264869, 1265360]","[1251082, 1251570, 1252067, 1252460, 1253118, 1253682, 1254321, 1255044, 1255678, 1256351, 1257175, 1258281, 1258906, 1259201, 1260091, 1260856, 1261383, 1261858, 1262314, 1262651, 1263306, 1263813, 1264304, 1264758, 1265038, 1265555]","[120, 79, 110, 243, 110, 109, 87, 129, 112, 97, 122, 113, 12, 56, 124, 109, 100, 136, 129, 127, 170, 142, 131, 107, 109, 155]","[1250982, 1251479, 1251989, 1252334, 1253037, 1253614, 1254199, 1254947, 1255612, 1256225, 1257079, 1258160, 1258836, 1259081, 1260021, 1260764, 1261180, 1261780, 1262200, 1262555, 1263218, 1263718, 1264194, 1264675, 1264939, 1265451]","[1250660, 1251260, 1251860, 1252460, 1253060, 1253660, 1254260, 1254860, 1255596, 1256260, 1257114, 1258193, 1258803, 1259116, 1259997, 1260800, 1261154, 1261726, 1262235, 1263166, 1263684, 1264156, 1264655, 1265400]",53,SB,U,R,ITMSR,1.0,
4,600,trial,0,65,65,65,trial,"['S', 'S', 'S', 'S', 'S', 'S', 'S', 'C', 'C', 'C', 'C', 'C', 'C', 'C', 'C', 'C', 'C', 'C', 'C', 'C', 'C', 'C', 'C', 'C', 'C']","[1271413, 1271842, 1272335, 1273134, 1273640, 1274147, 1274766, 1275375, 1275859, 1276235, 1276607, 1276930, 1277125, 1277392, 1277821, 1278120, 1278377, 1278658, 1279042, 1279708, 1280243, 1280647, 1280958, 1281497, 1281880]","[1271559, 1272013, 1272566, 1273327, 1273829, 1274362, 1274961, 1275567, 1276011, 1276389, 1276765, 1277045, 1277249, 1277624, 1277971, 1278261, 1278539, 1278834, 1279209, 1279880, 1280382, 1280766, 1281101, 1281619, 1282017]","[184, 176, 188, 185, 175, 167, 119, 148, 98, 17, 17, 87, 42, 97, 85, 21, 74, 4, 88, 138, 123, 102, 78, 115, 73]","[1271455, 1271928, 1272455, 1273234, 1273744, 1274262, 1274875, 1275379, 1275864, 1276303, 1276681, 1276937, 1277169, 1277486, 1277887, 1278127, 1278441, 1278777, 1279135, 1279712, 1280248, 1280652, 1280964, 1281502, 1281885]","[1270813, 1271413, 1272013, 1272613, 1273213, 1273814, 1274414, 1275014, 1275415, 1275899, 1276275, 1276648, 1276971, 1277432, 1277861, 1278160, 1278699, 1279083, 1279749, 1280283, 1280688, 1280999, 1281538, 1281921]",53,SB,U,R,ITMSR,1.0,
4,600,trial,0,66,66,66,trial,"['B', 'S', 'S', 'S', 'S', 'S', 'S', 'S', 'S', 'C', 'C', 'C', 'C', 'C', 'C', 'C', 'C', 'C', 'C', 'C', 'C', 'C', 'C', 'C', 'C']","[1287463, 1287732, 1288285, 1288937, 1289535, 1290067, 1290670, 1291164, 1291846, 1292670, 1293210, 1293743, 1294162, 1294674, 1295142, 1295457, 1295901, 1296647, 1297190, 1297634, 1298140, 1298512, 1298947, 1299551, 1299886]","[1287516, 1287919, 1288464, 1289097, 1289704, 1290280, 1290841, 1291361, 1292029, 1292835, 1293367, 1293843, 1294300, 1294816, 1295286, 1295630, 1296067, 1296794, 1297309, 1297798, 1298260, 1298628, 1299136, 1299698, 1299983]","[41, 114, 115, 110, 105, 141, 116, 145, 123, 97, 118, 83, 100, 115, 57, 128, 121, 134, 76, 112, 42, 42, 9, 177, 3]","[1287463, 1287822, 1288363, 1289007, 1289614, 1290178, 1290752, 1291262, 1291936, 1292676, 1293276, 1293784, 1294168, 1294747, 1295242, 1295551, 1295970, 1296651, 1297248, 1297714, 1298200, 1298520, 1299028, 1299641, 1299893]","[1287492, 1288091, 1288691, 1289291, 1289891, 1290491, 1291091, 1291692, 1292710, 1293250, 1293784, 1294202, 1294714, 1295182, 1295498, 1295941, 1296688, 1297230, 1297675, 1298181, 1298552, 1298988, 1299592, 1299927]",53,SB,U,R,ITMSR,1.0,
3,400,trial,0,67,67,67,trial,"['B', 'S', 'S', 'S', 'S', 'S', 'S', 'S', 'C', 'C', 'C', 'C', 'C', 'C', 'C', 'C', 'C', 'C', 'C', 'C', 'C', 'C', 'C', 'C', 'C', 'C', 'C', 'C']","[1305369, 1305950, 1306418, 1307128, 1307372, 1307760, 1308127, 1308419, 1308685, 1308940, 1309243, 1309564, 1309861, 1310109, 1310380, 1310693, 1310958, 1311190, 1311476, 1311784, 1312177, 1312538, 1312806, 1313169, 1313472, 1313775, 1314342, 1314630]","[1305679, 1306072, 1306567, 1307218, 1307501, 1307896, 1308283, 1308563, 1308819, 1309105, 1309437, 1309761, 1310010, 1310241, 1310519, 1310843, 1311109, 1311311, 1311640, 1311952, 1312352, 1312685, 1312989, 1313310, 1313632, 1313946, 1314478, 1314824]","[94, 102, 107, 96, 62, 85, 99, 71, 55, 54, 69, 76, 57, 34, 240, 29, 43, 209, 79, 77, 55, 65, 58, 51, 56, 59, 60, 55]","[1305369, 1305955, 1306423, 1307132, 1307431, 1307766, 1308196, 1308484, 1308751, 1309026, 1309356, 1309664, 1309916, 1310163, 1310457, 1310777, 1311014, 1311266, 1311563, 1311861, 1312281, 1312603, 1312878, 1313235, 1313542, 1313854, 1314407, 1314684]","[1305396, 1305794, 1306194, 1306595, 1306994, 1307395, 1307795, 1308194, 1308724, 1309283, 1309602, 1309899, 1310419, 1310733, 1311229, 1311514, 1311822, 1312217, 1312577, 1313208, 1313512, 1313814, 1314381, 1314668]",53,SB,U,R,ITMSR,1.0,
5,600,trial,0,68,68,68,trial,"['S', 'S', 'S', 'S', 'S', 'S', 'S', 'S', 'C', 'C', 'C', 'C', 'C', 'C', 'C', 'C', 'C', 'C', 'C', 'C', 'C', 'C', 'C', 'C', 'C', 'C']","[1320207, 1320830, 1321669, 1322527, 1322859, 1323105, 1323568, 1324364, 1325103, 1325986, 1326813, 1327326, 1327628, 1327919, 1328297, 1328649, 1329268, 1329632, 1329935, 1330159, 1330360, 1330573, 1330774, 1332417, 1332814, 1333231]","[1320379, 1320973, 1321876, 1322650, 1322986, 1323254, 1323712, 1324494, 1325297, 1326162, 1326950, 1327507, 1327773, 1328110, 1328473, 1328858, 1329404, 1329795, 1329979, 1330236, 1330456, 1330644, 1330870, 1332545, 1332967]","[142, 43, 90, 112, 82, 79, 79, 68, 82, 71, 79, 29, 52, 98, 78, 100, 144, 95, 14, 220, 0, 56, 218, 101, 42]","[1320291, 1320887, 1321781, 1322582, 1322865, 1323181, 1323627, 1324369, 1325217, 1326067, 1326884, 1327417, 1327688, 1328026, 1328377, 1328749, 1329324, 1329723, 1329941, 1330188, 1330366, 1330610, 1330827, 1332478, 1332819]","[1320076, 1320675, 1321276, 1321875, 1322474, 1323075, 1323674, 1324275, 1325143, 1326025, 1326853, 1327366, 1327668, 1327959, 1328336, 1328689, 1329307, 1329672, 1329975, 1330400, 1330813, 1332457, 1332853, 1333270]",53,SB,U,R,ITMSR,1.0,
4,400,trial,0,69,69,69,trial,"['C', 'C', 'C', 'C', 'C', 'C', 'C', 'C', 'C', 'C', 'C', 'C', 'C', 'C', 'C', 'C']","[1342864, 1343318, 1343690, 1344046, 1344416, 1344719, 1345202, 1345524, 1346878, 1347377, 1347755, 1348180, 1348531, 1348843, 1349305, 1349600]","[1343083, 1343464, 1343848, 1344210, 1344570, 1344900, 1345362, 1345687, 1347060, 1347536, 1347924, 1348385, 1348710, 1349037, 1349470, 1349832]","[194, 149, 142, 129, 108, 128, 111, 136, 136, 103, 111, 130, 119, 142, 128, 160]","[1342966, 1343391, 1343767, 1344128, 1344487, 1344812, 1345272, 1345608, 1346970, 1347454, 1347834, 1348293, 1348629, 1348948, 1349395, 1349716]","[1338674, 1339073, 1339473, 1339874, 1340273, 1340674, 1341074, 1341473, 1342905, 1343358, 1343730, 1344087, 1344456, 1344759, 1345243, 1345564, 1346919, 1347418, 1347795, 1348220, 1348572, 1348884, 1349346, 1349641]",53,SB,U,R,ITMSR,1.0,
1,400,trial,0,70,70,70,trial,"['S', 'S', 'S', 'S', 'S', 'S', 'S', 'S', 'C', 'C', 'C', 'C', 'C', 'C', 'C', 'C', 'C', 'C', 'C', 'C', 'C', 'C', 'C', 'C', 'C']","[1355358, 1355683, 1356196, 1356454, 1356840, 1357084, 1357340, 1357644, 1358052, 1358407, 1358697, 1359151, 1359516, 1359868, 1360237, 1360539, 1360859, 1361230, 1361514, 1361997, 1362582, 1362952, 1363318, 1363783, 1364209]","[1355486, 1355880, 1356332, 1356633, 1356990, 1357204, 1357515, 1357877, 1358226, 1358574, 1358886, 1359351, 1359707, 1360040, 1360413, 1360741, 1361083, 1361401, 1361699, 1362190, 1362766, 1363146, 1363492, 1363923, 1364339]","[135, 158, 117, 129, 108, 77, 140, 140, 131, 127, 135, 132, 130, 120, 124, 121, 147, 133, 154, 127, 137, 146, 111, 46, 22]","[1355408, 1355766, 1356253, 1356538, 1356900, 1357133, 1357427, 1357765, 1358139, 1358487, 1358785, 1359261, 1359616, 1359956, 1360317, 1360634, 1360973, 1361307, 1361599, 1362089, 1362673, 1363055, 1363414, 1363852, 1364264]","[1354990, 1355389, 1355790, 1356189, 1356590, 1356990, 1357389, 1357790, 1358091, 1358445, 1358736, 1359190, 1359554, 1359906, 1360276, 1360577, 1360898, 1361268, 1362035, 1362621, 1362991, 1363356, 1363821, 1364247]",53,SB,U,R,ITMSR,1.0,
3,600,trial,0,71,71,71,trial,"['S', 'S', 'S', 'S', 'S', 'S', 'S', 'S', 'C', 'C', 'C', 'C', 'C', 'C', 'C', 'C', 'C', 'C', 'C', 'C', 'C', 'C', 'C', 'C', 'C', 'C']","[1369703, 1370010, 1370493, 1371072, 1371664, 1372355, 1372871, 1373476, 1374038, 1374577, 1374972, 1375349, 1376044, 1376354, 1376651, 1377018, 1377296, 1377790, 1378147, 1378529, 1379008, 1379389, 1379864, 1380282, 1380549, 1380994]","[1369905, 1370289, 1370714, 1371311, 1371886, 1372560, 1373067, 1373640, 1374225, 1374754, 1375177, 1375556, 1376189, 1376515, 1376845, 1377156, 1377465, 1377966, 1378326, 1378771, 1379169, 1379542, 1380024, 1380408, 1380676, 1381115]","[137, 177, 180, 184, 171, 152, 159, 118, 147, 148, 133, 139, 114, 80, 121, 96, 122, 154, 139, 106, 137, 85, 109, 64, 95, 113]","[1369803, 1370161, 1370600, 1371181, 1371768, 1372439, 1372957, 1373552, 1374116, 1374656, 1375070, 1375459, 1376111, 1376452, 1376730, 1377087, 1377385, 1377862, 1378228, 1378596, 1379079, 1379467, 1379933, 1380337, 1380555, 1381043]","[1369561, 1370160, 1370760, 1371360, 1371960, 1372560, 1373160, 1373759, 1374076, 1374616, 1375011, 1375388, 1376082, 1376394, 1376691, 1377056, 1377829, 1378186, 1378568, 1379048, 1379428, 1379903, 1380322, 1381033]",53,SB,U,R,ITMSR,1.0,
0,400,trial,0,72,72,72,trial,"['S', 'S', 'S', 'S', 'S', 'S', 'S', 'S', 'C', 'C', 'C', 'C', 'C', 'C', 'C', 'C', 'C', 'C', 'C', 'C', 'C', 'C', 'C', 'C']","[1387016, 1387407, 1387888, 1388230, 1388616, 1389061, 1389431, 1389792, 1390320, 1390717, 1391066, 1391455, 1391882, 1392172, 1392768, 1393108, 1393517, 1393964, 1394424, 1394823, 1395243, 1395606, 1396039, 1396362]","[1387255, 1387662, 1388111, 1388481, 1388865, 1389280, 1389642, 1390025, 1390536, 1390895, 1391260, 1391595, 1392028, 1392359, 1392952, 1393267, 1393762, 1394145, 1394582, 1394994, 1395426, 1395812, 1396189, 1396597]","[193, 203, 201, 198, 203, 203, 199, 202, 193, 176, 170, 126, 145, 170, 169, 150, 168, 129, 143, 119, 123, 129, 134, 157]","[1387122, 1387525, 1387979, 1388333, 1388736, 1389185, 1389526, 1389890, 1390439, 1390806, 1391173, 1391523, 1391961, 1392269, 1392841, 1393186, 1393645, 1394055, 1394429, 1394904, 1395343, 1395702, 1396043, 1396478]","[1386770, 1387169, 1387570, 1387969, 1388369, 1388770, 1389169, 1389570, 1390360, 1390757, 1391107, 1391496, 1391923, 1392212, 1392808, 1393148, 1393558, 1394004, 1394464, 1394864, 1395283, 1395647, 1396079, 1396403]",53,SB,U,R,ITMSR,1.0,
5,400,trial,0,73,73,73,trial,"['S', 'S', 'S', 'S', 'S', 'S', 'S', 'C', 'C', 'C', 'C', 'C', 'C', 'C', 'C', 'C', 'C', 'C', 'C', 'C', 'C', 'C', 'C']","[1402441, 1403142, 1403426, 1403732, 1404111, 1404488, 1404869, 1405279, 1405649, 1406007, 1406399, 1406752, 1407102, 1407460, 1407838, 1408179, 1408514, 1408877, 1409190, 1409538, 1409931, 1410272, 1410648]","[1402649, 1403270, 1403632, 1403985, 1404342, 1404760, 1405125, 1405514, 1405889, 1406248, 1406608, 1406959, 1407322, 1407700, 1408045, 1408389, 1408717, 1409061, 1409419, 1409793, 1410161, 1410475, 1410850]","[166, 26, 170, 181, 179, 183, 183, 187, 185, 178, 172, 169, 166, 175, 168, 174, 172, 177, 179, 188, 183, 175, 175]","[1402532, 1403199, 1403528, 1403865, 1404212, 1404609, 1404983, 1405383, 1405763, 1406108, 1406503, 1406863, 1407198, 1407576, 1407929, 1408275, 1408618, 1408956, 1409296, 1409648, 1410038, 1410355, 1410747]","[1402208, 1402608, 1403008, 1403408, 1403807, 1404208, 1404608, 1405007, 1405319, 1405688, 1406047, 1406439, 1406791, 1407141, 1407500, 1407878, 1408219, 1408553, 1408917, 1409229, 1409577, 1409971, 1410312, 1410688]",53,SB,U,R,ITMSR,1.0,
5,400,trial,0,74,74,74,trial,"['S', 'S', 'S', 'S', 'S', 'S', 'S', 'C', 'C', 'C', 'C', 'C', 'C', 'C', 'C', 'C', 'C', 'C', 'C', 'C', 'C', 'C', 'C', 'C']","[1416174, 1416630, 1417098, 1417530, 1417921, 1418311, 1418833, 1419163, 1419540, 1419948, 1420402, 1420736, 1421108, 1421465, 1421795, 1422147, 1422503, 1422869, 1423417, 1423791, 1424090, 1424385, 1424655, 1425100]","[1416373, 1416843, 1417261, 1417717, 1418139, 1418514, 1418980, 1419347, 1419710, 1420122, 1420558, 1420930, 1421281, 1421652, 1421957, 1422365, 1422705, 1423029, 1423577, 1423947, 1424252, 1424534, 1424818, 1425263]","[167, 169, 142, 146, 169, 161, 127, 155, 146, 155, 151, 163, 155, 157, 140, 169, 164, 152, 140, 141, 151, 147, 152, 149]","[1416258, 1416718, 1417168, 1417616, 1418016, 1418406, 1418895, 1419249, 1419619, 1420035, 1420407, 1420829, 1421200, 1421560, 1421878, 1422259, 1422598, 1422946, 1423493, 1423870, 1424167, 1424455, 1424728, 1425189]","[1416007, 1416407, 1416808, 1417206, 1417607, 1418006, 1418406, 1418807, 1419202, 1419580, 1419987, 1420441, 1420776, 1421148, 1421504, 1421835, 1422187, 1422542, 1422909, 1423457, 1423831, 1424130, 1424424, 1425139]",53,SB,U,R,ITMSR,1.0,
1,600,trial,0,75,75,75,trial,"['S', 'S', 'S', 'S', 'S', 'S', 'C', 'C', 'C', 'C', 'C', 'C', 'C', 'C', 'C', 'C', 'C', 'C', 'C', 'C', 'C', 'C', 'C']","[1431815, 1432329, 1433039, 1433613, 1434209, 1434784, 1435403, 1435912, 1436390, 1436761, 1437182, 1437584, 1438052, 1438366, 1438710, 1439075, 1439411, 1439731, 1440059, 1440340, 1440703, 1441091, 1441399]","[1432016, 1432593, 1433281, 1433901, 1434531, 1435090, 1435711, 1436177, 1436605, 1437007, 1437433, 1437825, 1438234, 1438576, 1438918, 1439264, 1439587, 1439930, 1440205, 1440512, 1440971, 1441283, 1441606]","[160, 190, 173, 177, 187, 184, 189, 187, 146, 170, 186, 168, 162, 172, 179, 161, 147, 158, 144, 161, 167, 167, 171]","[1431908, 1432428, 1433141, 1433747, 1434344, 1434923, 1435537, 1436022, 1436504, 1436871, 1437306, 1437697, 1438142, 1438465, 1438800, 1439159, 1439501, 1439826, 1440126, 1440420, 1440821, 1441168, 1441500]","[1430817, 1431416, 1432016, 1432616, 1433217, 1433817, 1434417, 1435017, 1435442, 1435951, 1436429, 1436800, 1437220, 1437623, 1438091, 1438404, 1438748, 1439114, 1439450, 1439769, 1440098, 1440742, 1441130, 1441437]",53,SB,U,R,ITMSR,1.0,
4,400,trial,0,76,76,76,trial,"['B', 'S', 'S', 'S', 'S', 'S', 'S', 'S', 'C', 'C', 'C', 'C', 'C', 'C', 'C', 'C', 'C', 'C', 'C', 'C', 'C', 'C', 'C', 'C']","[1447120, 1447432, 1447792, 1448198, 1448845, 1449093, 1449426, 1449824, 1450213, 1450587, 1450918, 1451541, 1451876, 1452192, 1452558, 1452859, 1453156, 1453493, 1453809, 1454100, 1454465, 1454756, 1455422, 1455726]","[1447223, 1447614, 1447988, 1448421, 1448995, 1449284, 1449647, 1450016, 1450398, 1450778, 1451118, 1451734, 1452057, 1452396, 1452741, 1453051, 1453357, 1453688, 1453983, 1454262, 1454618, 1454913, 1455600, 1455898]","[93, 157, 150, 161, 159, 198, 179, 172, 168, 172, 174, 152, 164, 171, 173, 162, 165, 174, 167, 164, 171, 183, 177, 178]","[1447120, 1447512, 1447903, 1448314, 1448905, 1449176, 1449552, 1449914, 1450302, 1450679, 1451009, 1451631, 1451966, 1452284, 1452640, 1452948, 1453239, 1453600, 1453898, 1454171, 1454537, 1454824, 1455501, 1455815]","[1447149, 1447548, 1447949, 1448348, 1448749, 1449149, 1449548, 1449949, 1450254, 1450628, 1450958, 1451582, 1451917, 1452232, 1452599, 1452900, 1453197, 1453534, 1453849, 1454141, 1454505, 1454796, 1455463, 1455766]",53,SB,U,R,ITMSR,1.0,
2,600,trial,0,77,77,77,trial,"['B', 'S', 'S', 'S', 'S', 'S', 'S', 'S', 'C', 'C', 'C', 'C', 'C', 'C', 'C', 'C', 'C', 'C', 'C', 'C', 'C', 'C', 'C', 'C', 'C']","[1461268, 1461544, 1462121, 1462652, 1463505, 1464085, 1464759, 1465210, 1465932, 1466524, 1466924, 1467295, 1467680, 1468020, 1468442, 1468750, 1469068, 1469496, 1469818, 1470134, 1470515, 1470882, 1471163, 1471566, 1472126]","[1461321, 1461773, 1462404, 1463016, 1463726, 1464371, 1465001, 1465577, 1466147, 1466717, 1467148, 1467503, 1467878, 1468230, 1468634, 1468962, 1469377, 1469692, 1470016, 1470363, 1470744, 1471059, 1471356, 1471750, 1472308]","[111, 181, 189, 188, 153, 165, 155, 179, 170, 171, 176, 183, 155, 158, 167, 173, 162, 170, 171, 171, 176, 166, 163, 139, 121]","[1461268, 1461650, 1462248, 1462792, 1463602, 1464189, 1464861, 1465372, 1466024, 1466606, 1467033, 1467385, 1467789, 1468125, 1468525, 1468857, 1469157, 1469599, 1469919, 1470247, 1470639, 1470959, 1471238, 1471670, 1472220]","[1461296, 1461896, 1462496, 1463096, 1463696, 1464296, 1464896, 1465495, 1465972, 1466564, 1466964, 1467335, 1467720, 1468060, 1468482, 1468790, 1469109, 1469537, 1469858, 1470175, 1470556, 1470922, 1471606, 1472166]",53,SB,U,R,ITMSR,1.0,
4,400,trial,0,78,78,78,trial,"['C', 'C', 'C', 'C', 'C', 'C', 'C', 'C', 'C', 'C', 'C', 'C', 'C', 'C', 'C', 'C']","[1492014, 1492343, 1492685, 1493050, 1493408, 1493705, 1494069, 1494397, 1495068, 1495586, 1495915, 1496403, 1496718, 1497102, 1497667, 1497955]","[1492212, 1492531, 1492892, 1493240, 1493588, 1493897, 1494265, 1494630, 1495257, 1495776, 1496263, 1496585, 1496901, 1497291, 1497831, 1498126]","[191, 183, 191, 191, 170, 177, 163, 135, 158, 147, 150, 111, 116, 136, 152, 144]","[1492100, 1492446, 1492792, 1493143, 1493498, 1493794, 1494177, 1494530, 1495172, 1495680, 1496015, 1496497, 1496808, 1497202, 1497740, 1498028]","[1488563, 1488961, 1489361, 1489762, 1490161, 1490562, 1490962, 1491361, 1492055, 1492383, 1492725, 1493091, 1493448, 1493745, 1494110, 1494437, 1495108, 1495626, 1495956, 1496443, 1496759, 1497143, 1497708, 1497996]",53,SB,U,R,ITMSR,1.0,
3,400,trial,0,79,79,79,trial,"['C', 'C', 'C', 'C', 'C', 'C', 'C', 'C', 'C', 'C', 'C', 'C', 'C', 'C', 'C', 'C', 'C']","[1506913, 1507276, 1507629, 1508064, 1508360, 1508705, 1509215, 1509505, 1510591, 1510950, 1511324, 1511775, 1512083, 1512396, 1512902, 1513181, 1515624]","[1507127, 1507502, 1507822, 1508215, 1508548, 1508927, 1509374, 1509703, 1510766, 1511106, 1511502, 1511927, 1512269, 1512579, 1513059, 1513372, 1515836]","[173, 158, 115, 99, 118, 130, 119, 128, 86, 70, 95, 74, 109, 104, 143, 151, 74]","[1507030, 1507392, 1507728, 1508134, 1508465, 1508828, 1509292, 1509595, 1510678, 1511025, 1511415, 1511841, 1512174, 1512486, 1512972, 1513268, 1515760]","[1503374, 1503772, 1504173, 1504573, 1504972, 1505373, 1505772, 1506172, 1506952, 1507314, 1507668, 1508104, 1508399, 1508744, 1509254, 1509544, 1510631, 1510988, 1511363, 1511815, 1512123, 1512435, 1512940, 1515664]",53,SB,U,R,ITMSR,1.0,
0,400,trial,0,80,80,80,trial,"['S', 'S', 'S', 'S', 'S', 'S', 'S', 'C', 'C', 'C', 'C', 'C', 'C', 'C', 'C', 'C', 'C', 'C', 'C', 'C', 'C', 'C', 'C']","[1521473, 1521780, 1522302, 1522565, 1522939, 1523346, 1523753, 1524245, 1524682, 1525089, 1525502, 1525975, 1526349, 1526729, 1527143, 1527560, 1527926, 1528306, 1528595, 1529018, 1529388, 1529831, 1530491]","[1521604, 1521958, 1522423, 1522760, 1523148, 1523518, 1523878, 1524337, 1524781, 1525184, 1525607, 1526067, 1526474, 1526841, 1527248, 1527692, 1528052, 1528430, 1528823, 1529172, 1529558, 1529993, 1530643]","[98, 126, 86, 128, 160, 91, 138, 243, 255, 22, 201, 159, 126, 223, 56, 250, 245, 92, 214, 224, 72, 65, 8]","[1521521, 1521873, 1522357, 1522673, 1523042, 1523432, 1523764, 1524252, 1524689, 1525096, 1525510, 1525983, 1526412, 1526737, 1527149, 1527567, 1527994, 1528366, 1528697, 1529095, 1529488, 1529904, 1530558]","[1521074, 1521473, 1521873, 1522274, 1522673, 1523074, 1523474, 1523873, 1524286, 1524722, 1525130, 1525542, 1526016, 1526389, 1526769, 1527184, 1527601, 1527966, 1528346, 1528636, 1529059, 1529428, 1529872, 1530531]",53,SB,U,R,ITMSR,1.0,
1,400,trial,0,81,81,81,trial,"['S', 'S', 'S', 'S', 'S', 'C', 'C', 'C', 'C', 'C', 'C', 'C', 'C', 'C', 'C', 'C', 'C', 'C', 'C', 'C', 'C', 'C']","[1536886, 1537277, 1537874, 1538270, 1538616, 1539671, 1540501, 1540877, 1541142, 1541434, 1541768, 1542259, 1542624, 1543010, 1543302, 1543602, 1544252, 1544563, 1544934, 1545290, 1545620, 1545926]","[1537017, 1537440, 1538014, 1538426, 1538914, 1539898, 1540646, 1541013, 1541289, 1541620, 1541955, 1542386, 1542780, 1543201, 1543496, 1543768, 1544390, 1544758, 1545081, 1545448, 1545780, 1546106]","[91, 136, 111, 118, 97, 144, 134, 116, 129, 130, 126, 88, 109, 115, 138, 131, 59, 58, 54, 66, 52, 109]","[1536954, 1537352, 1537930, 1538348, 1538676, 1539765, 1540566, 1540952, 1541220, 1541535, 1541868, 1542311, 1542700, 1543098, 1543407, 1543673, 1544316, 1544645, 1545007, 1545371, 1545708, 1546019]","[1536216, 1536616, 1537015, 1537416, 1537815, 1538215, 1538616, 1539015, 1539709, 1540540, 1540916, 1541473, 1541807, 1542297, 1542663, 1543049, 1543341, 1543641, 1544291, 1544601, 1544973, 1545328, 1545659, 1545964]",53,SB,U,R,ITMSR,1.0,
1,600,trial,0,82,82,82,trial,"['S', 'S', 'S', 'S', 'S', 'S', 'S', 'S', 'C', 'C', 'C', 'C', 'C', 'C', 'C', 'C', 'C', 'C', 'C', 'C', 'C', 'C', 'C', 'C', 'C']","[1551637, 1551942, 1552935, 1553241, 1553810, 1554411, 1554957, 1555689, 1556248, 1556617, 1557058, 1557433, 1557824, 1558171, 1558538, 1558919, 1559234, 1559760, 1560130, 1560500, 1560770, 1560870, 1561230, 1561631, 1561985]","[1551789, 1552135, 1553084, 1553430, 1554098, 1554704, 1555252, 1555910, 1556442, 1556885, 1557316, 1557677, 1558050, 1558397, 1558748, 1559123, 1559380, 1559892, 1560256, 1560628, 1560790, 1560971, 1561389, 1561729, 1562077]","[86, 136, 143, 152, 162, 165, 176, 141, 128, 154, 152, 153, 117, 147, 121, 89, 72, 102, 107, 138, 180, 145, 185, 111, 75]","[1551714, 1552026, 1552998, 1553335, 1553914, 1554523, 1555097, 1555800, 1556336, 1556767, 1557186, 1557547, 1557948, 1558296, 1558638, 1559037, 1559300, 1559812, 1560198, 1560566, 1560776, 1560908, 1561307, 1561679, 1562024]","[1551625, 1552225, 1552825, 1553425, 1554025, 1554624, 1555224, 1555824, 1556287, 1556656, 1557097, 1557472, 1557863, 1558209, 1558577, 1558958, 1559273, 1559798, 1560169, 1560539, 1560908, 1561269, 1561669, 1562023]",53,SB,U,R,ITMSR,1.0,
4,600,trial,0,83,83,83,trial,"['S', 'S', 'S', 'S', 'S', 'S', 'S', 'S', 'C', 'C', 'C', 'C', 'C', 'C', 'C', 'C', 'C', 'C', 'C', 'C', 'C', 'C', 'C', 'C', 'C', 'C', 'C', 'C']","[1567633, 1567979, 1568522, 1569078, 1569628, 1570434, 1570923, 1571535, 1572050, 1572551, 1572964, 1573341, 1573736, 1574126, 1574418, 1574736, 1575107, 1575393, 1575712, 1575997, 1576257, 1576430, 1576970, 1577248, 1577490, 1577932, 1578590, 1579251]","[1567764, 1568075, 1568644, 1569198, 1569750, 1570521, 1571046, 1571673, 1572182, 1572685, 1573075, 1573454, 1573857, 1574244, 1574545, 1574942, 1575202, 1575507, 1575794, 1576097, 1576312, 1576515, 1577066, 1577293, 1577583, 1578014, 1578679, 1579365]","[54, 227, 96, 149, 160, 158, 148, 148, 151, 145, 126, 100, 120, 242, 66, 7, 0, 59, 80, 25, 2, 49, 70, 196, 164, 126, 242, 232]","[1567656, 1568001, 1568569, 1569093, 1569641, 1570446, 1570976, 1571548, 1572063, 1572605, 1572977, 1573395, 1573790, 1574183, 1574483, 1574753, 1575153, 1575410, 1575752, 1576017, 1576274, 1576451, 1576985, 1577262, 1577535, 1577950, 1578638, 1579309]","[1567472, 1568072, 1568672, 1569272, 1569872, 1570472, 1571073, 1571673, 1572090, 1572591, 1573005, 1573382, 1573777, 1574166, 1574459, 1574776, 1575148, 1575752, 1576298, 1577011, 1577531, 1577972, 1578631, 1579291]",53,SB,U,R,ITMSR,1.0,
3,600,trial,0,84,84,84,trial,"['S', 'S', 'S', 'S', 'S', 'S', 'S', 'C', 'C', 'C', 'C', 'C', 'C', 'C', 'C', 'C', 'C', 'C', 'C', 'C', 'C', 'C', 'C', 'C']","[1584929, 1585504, 1586150, 1586774, 1587396, 1588027, 1588804, 1589367, 1589776, 1590144, 1590492, 1590807, 1591079, 1591403, 1591775, 1592134, 1592740, 1593113, 1593440, 1593945, 1594303, 1594670, 1595118, 1595504]","[1585137, 1585703, 1586355, 1586974, 1587613, 1588202, 1588973, 1589496, 1589910, 1590273, 1590605, 1590920, 1591192, 1591579, 1591911, 1592279, 1592862, 1593237, 1593760, 1594050, 1594455, 1594839, 1595239, 1595596]","[72, 105, 122, 103, 85, 103, 87, 26, 55, 53, 13, 8, 16, 56, 30, 45, 54, 37, 67, 97, 116, 36, 92, 32]","[1585060, 1585597, 1586235, 1586859, 1587422, 1588051, 1588832, 1589384, 1589853, 1590216, 1590532, 1590847, 1591110, 1591502, 1591815, 1592210, 1592779, 1593152, 1593524, 1593962, 1594320, 1594685, 1595132, 1595521]","[1584775, 1585374, 1585974, 1586574, 1587174, 1587774, 1588373, 1588973, 1589405, 1589815, 1590183, 1590531, 1590847, 1591443, 1591815, 1592172, 1592778, 1593151, 1593480, 1593985, 1594343, 1594710, 1595157, 1595543]",53,SB,U,R,ITMSR,1.0,
