pitch,ioi,event,.thisRepN,.thisTrialN,.thisN,.thisIndex,event,tap_types,tap_times,release_times,peak_pressures,peak_times,tone_times,subject,experimenter,register,handedness,experiment,version,
,,SPR,0,-1,-1,0,SPR,"['P', 'P', 'P', 'P', 'P', 'P', 'P', 'P', 'P', 'P', 'P', 'P', 'P', 'P', 'P', 'P', 'P', 'P', 'P', 'P', 'P', 'P', 'P', 'P', 'P', 'P', 'P', 'P', 'P', 'P']","[35072, 35689, 36403, 37084, 37726, 38382, 39037, 39708, 40385, 41049, 41677, 42357, 43004, 43671, 44317, 44940, 45560, 46217, 46920, 47543, 48161, 48785, 49430, 50059, 50591, 51243, 51822, 52449, 53087, 53658]","[35150, 35712, 36423, 37128, 37775, 38420, 39105, 39795, 40406, 41120, 41754, 42426, 43065, 43751, 44384, 44996, 45614, 46295, 46967, 47588, 48239, 48859, 49498, 50124, 50675, 51293, 51889, 52523, 53107, 53722]","[53, 73, 71, 0, 228, 223, 208, 240, 38, 255, 44, 67, 152, 53, 244, 31, 55, 79, 66, 6, 243, 253, 41, 93, 154, 211, 49, 43, 251, 20]","[35080, 35697, 36409, 37091, 37733, 38389, 39045, 39716, 40391, 41056, 41686, 42364, 43011, 43678, 44324, 44947, 45566, 46224, 46925, 47549, 48167, 48790, 49436, 50065, 50598, 51249, 51827, 52455, 53093, 53664]",,87,EM,L,R,ITMSR,1.1,
3,500,practice,0,0,0,0,practice,"['S', 'S', 'S', 'S', 'S', 'C', 'C', 'C', 'C', 'C', 'C', 'C', 'C', 'C', 'C', 'C', 'C', 'C', 'C', 'C', 'C', 'C', 'C']","[141492, 141657, 142021, 142163, 142290, 143496, 143923, 144272, 144570, 144855, 145077, 145345, 145942, 146419, 146819, 147153, 147454, 147698, 182763, 183083, 183391, 183686, 184082]","[141520, 141677, 142041, 142210, 142702, 143569, 143983, 144316, 144619, 144896, 145117, 145433, 145990, 146465, 146863, 147202, 147495, 147739, 182831, 183136, 183453, 183732, 184115]","[26, 17, 30, 36, 78, 73, 76, 1, 36, 255, 160, 235, 216, 94, 145, 98, 246, 63, 12, 219, 251, 154, 166]","[141506, 141658, 142026, 142191, 142521, 143501, 143928, 144276, 144574, 144860, 145082, 145351, 145947, 146426, 146825, 147159, 147461, 147704, 182768, 183089, 183398, 183693, 184087]","[139615, 140115, 140615, 141115, 141615, 142115, 142615, 143115, 143516, 143943, 144292, 144590, 144875, 145366, 145963, 146439, 146839, 147173, 147474, 182784, 183103, 183411, 183706, 184102]",87,EM,L,R,ITMSR,1.1,
1,500,practice,0,1,1,1,practice,"['S', 'S', 'S', 'S', 'C', 'C', 'C', 'C', 'C', 'C', 'C', 'C', 'C', 'C', 'C', 'C', 'C', 'C', 'C', 'C', 'C']","[191784, 192253, 192752, 193213, 193772, 194173, 194569, 194942, 195311, 195680, 196023, 196338, 196631, 196896, 197456, 197920, 198353, 198743, 199105, 199488, 199875]","[191823, 192286, 192792, 193258, 193810, 194219, 194589, 194988, 195356, 195703, 196045, 196377, 196677, 196942, 197493, 197967, 198385, 198784, 199128, 199511, 199910]","[20, 13, 238, 255, 186, 230, 62, 106, 242, 49, 89, 34, 8, 124, 150, 112, 93, 110, 238, 247, 62]","[191790, 192258, 192757, 193217, 193778, 194179, 194575, 194948, 195318, 195686, 196027, 196343, 196636, 196901, 197462, 197925, 198359, 198748, 199111, 199493, 199881]","[189867, 190366, 190866, 191366, 191866, 192366, 192866, 193367, 193793, 194193, 194589, 194962, 195331, 195700, 196043, 196358, 196652, 197476, 197940, 198373, 198763, 199126, 199508, 199896]",87,EM,L,R,ITMSR,1.1,
2,500,practice,0,2,2,2,practice,"['S', 'S', 'S', 'S', 'S', 'S', 'S', 'S', 'C', 'C', 'C', 'C', 'C', 'C', 'C', 'C', 'C', 'C', 'C', 'C', 'C', 'C', 'C', 'C']","[205736, 206098, 206434, 206867, 207331, 207856, 208339, 208858, 209348, 209732, 210096, 210439, 210762, 211081, 211379, 211683, 211984, 212300, 212594, 212900, 213213, 213531, 213879, 214219]","[205756, 206140, 206478, 206909, 207372, 207876, 208387, 208892, 209391, 209777, 210140, 210475, 210814, 211125, 211421, 211729, 212022, 212321, 212633, 212943, 213259, 213574, 213921, 214257]","[18, 227, 217, 201, 205, 70, 162, 145, 156, 165, 186, 140, 127, 160, 142, 160, 142, 211, 173, 157, 161, 148, 156, 144]","[205743, 206102, 206439, 206872, 207336, 207860, 208345, 208862, 209353, 209738, 210101, 210444, 210768, 211086, 211384, 211688, 211990, 212304, 212598, 212904, 213218, 213535, 213883, 214224]","[205453, 205954, 206454, 206954, 207454, 207954, 208454, 208954, 209368, 209752, 210116, 210459, 210782, 211101, 211399, 211703, 212004, 212320, 212614, 212920, 213233, 213551, 213899, 214239]",87,EM,L,R,ITMSR,1.1,
0,500,practice,0,3,3,3,practice,"['S', 'S', 'S', 'S', 'S', 'S', 'S', 'C', 'C', 'C', 'C', 'C', 'C', 'C', 'C', 'C', 'C', 'C', 'C', 'C', 'C', 'C', 'C', 'C']","[220077, 220521, 221031, 221531, 222030, 222512, 223008, 223493, 223854, 224160, 224453, 224734, 224997, 225438, 225845, 226235, 226579, 226900, 227200, 227510, 227820, 228145, 228434, 228720]","[220122, 220563, 221079, 221571, 222075, 222547, 223055, 223549, 223890, 224212, 224496, 224754, 225017, 225496, 225886, 226272, 226623, 226947, 227220, 227551, 227856, 228165, 228455, 228767]","[253, 29, 17, 121, 120, 68, 122, 172, 178, 176, 118, 79, 80, 245, 129, 147, 149, 144, 63, 99, 93, 48, 122, 142]","[220082, 220526, 221036, 221535, 222035, 222518, 223013, 223499, 223860, 224165, 224458, 224739, 225001, 225443, 225851, 226240, 226584, 226906, 227206, 227516, 227825, 228150, 228440, 228725]","[219654, 220154, 220654, 221154, 221655, 222154, 222654, 223154, 223513, 223874, 224180, 224473, 224754, 225458, 225865, 226255, 226599, 226920, 227220, 227530, 227841, 228165, 228454, 228740]",87,EM,L,R,ITMSR,1.1,
5,500,practice,0,4,4,4,practice,"['S', 'S', 'S', 'S', 'S', 'S', 'S', 'C', 'C', 'C', 'C', 'C', 'C', 'C', 'C', 'C', 'C', 'C', 'C', 'C', 'C', 'C', 'C', 'C', 'C', 'C', 'C', 'C']","[234759, 235204, 235669, 236154, 236607, 237121, 237624, 238139, 238507, 238824, 239135, 239438, 239728, 239996, 240313, 240596, 240865, 241148, 241423, 241698, 241952, 242248, 242513, 242789, 243070, 243336, 243611, 243917]","[234813, 235244, 235715, 236196, 236652, 237168, 237664, 238174, 238550, 238871, 239155, 239472, 239766, 240036, 240353, 240636, 240906, 241192, 241467, 241730, 241997, 242293, 242565, 242839, 243117, 243392, 243679, 243973]","[250, 238, 227, 159, 98, 170, 136, 80, 138, 41, 203, 44, 6, 250, 251, 103, 13, 91, 127, 41, 77, 79, 139, 149, 109, 104, 172, 82]","[234763, 235208, 235672, 236158, 236612, 237125, 237629, 238144, 238512, 238829, 239141, 239443, 239733, 240003, 240319, 240603, 240871, 241154, 241426, 241700, 241956, 242252, 242518, 242793, 243076, 243340, 243616, 243921]","[234280, 234780, 235280, 235780, 236280, 236780, 237280, 237780, 238159, 238527, 238844, 239155, 239458, 239748, 240333, 240616, 241168, 241443, 241718, 242268, 242809, 243090, 243631, 243937]",87,EM,L,R,ITMSR,1.1,
4,500,practice,0,5,5,5,practice,"['S', 'S', 'S', 'S', 'S', 'S', 'S', 'C', 'C', 'C', 'C', 'C', 'C', 'C', 'C', 'C', 'C', 'C', 'C', 'C', 'C', 'C', 'C', 'C', 'C', 'C']","[250117, 250568, 251032, 251533, 252023, 252515, 253033, 253504, 253881, 254209, 254499, 254787, 255051, 255412, 255711, 255985, 256253, 256549, 256849, 257163, 257441, 257726, 258012, 258279, 258569, 258855]","[250169, 250588, 251082, 251576, 252085, 252569, 253087, 253560, 253929, 254255, 254540, 254808, 255089, 255453, 255749, 256028, 256311, 256603, 256898, 257209, 257495, 257777, 258056, 258327, 258613, 258911]","[193, 84, 156, 156, 196, 199, 193, 157, 189, 175, 110, 13, 141, 155, 153, 183, 111, 163, 165, 200, 222, 210, 199, 175, 217, 221]","[250122, 250572, 251037, 251538, 252027, 252520, 253038, 253509, 253886, 254214, 254505, 254792, 255056, 255417, 255716, 255986, 256259, 256553, 256855, 257168, 257445, 257730, 258016, 258286, 258574, 258860]","[249673, 250173, 250673, 251173, 251673, 252173, 252674, 253174, 253524, 253901, 254229, 254519, 254808, 255432, 255731, 256005, 256569, 256869, 257183, 257461, 257746, 258032, 258589, 258875]",87,EM,L,R,ITMSR,1.1,
1,600,trial,0,6,6,6,trial,"['S', 'S', 'S', 'S', 'S', 'S', 'S', 'C', 'C', 'C', 'C', 'C', 'C', 'C', 'C', 'C', 'C', 'C', 'C', 'C', 'C', 'C', 'C']","[367417, 368080, 368709, 369332, 369905, 370536, 371121, 371726, 372294, 372896, 373485, 374097, 374678, 375272, 375831, 376465, 377071, 377659, 378234, 378832, 379375, 379965, 380547]","[367484, 368145, 368779, 369401, 369963, 370585, 371191, 371804, 372384, 372978, 373577, 374176, 374734, 375342, 375945, 376542, 377140, 377731, 378290, 378873, 379428, 380021, 380597]","[49, 29, 17, 35, 255, 238, 216, 212, 235, 1, 242, 21, 0, 50, 50, 46, 247, 225, 6, 138, 187, 1, 223]","[367422, 368086, 368715, 369337, 369910, 370541, 371127, 371732, 372299, 372901, 373490, 374104, 374683, 375277, 375835, 376470, 377076, 377664, 378240, 378839, 379381, 379970, 380552]","[367005, 367605, 368205, 368805, 369405, 370006, 370605, 371205, 371746, 372314, 372916, 373506, 374117, 374699, 375292, 375852, 376485, 377091, 377679, 378254, 378852, 379395, 379985, 380567]",87,EM,L,R,ITMSR,1.1,
1,400,trial,0,7,7,7,trial,"['S', 'S', 'S', 'S', 'S', 'S', 'C', 'C', 'C', 'C', 'C', 'C', 'C', 'C', 'C', 'C', 'C', 'C', 'C', 'C', 'C', 'C']","[386683, 387039, 387437, 387818, 388199, 388602, 389013, 389430, 389834, 390249, 390638, 391031, 391424, 391794, 392207, 392581, 392975, 393340, 393736, 394114, 394481, 394857]","[386776, 387076, 387457, 387861, 388236, 388653, 389052, 389473, 389881, 390269, 390681, 391078, 391464, 391841, 392246, 392627, 392995, 393381, 393784, 394153, 394528, 394902]","[160, 176, 175, 166, 96, 0, 209, 200, 190, 216, 115, 154, 131, 172, 96, 166, 42, 193, 105, 58, 216, 198]","[386740, 387045, 387442, 387824, 388205, 388606, 389018, 389435, 389840, 390254, 390644, 391038, 391430, 391801, 392213, 392588, 392980, 393347, 393743, 394120, 394487, 394863]","[385893, 386293, 386693, 387093, 387493, 387893, 388293, 388694, 389033, 389450, 389854, 390269, 390658, 391051, 391444, 391814, 392227, 392601, 392995, 393360, 393756, 394134, 394501, 394877]",87,EM,L,R,ITMSR,1.1,
0,400,trial,0,8,8,8,trial,"['S', 'S', 'S', 'S', 'S', 'S', 'S', 'C', 'C', 'C', 'C', 'C', 'C', 'C', 'C', 'C', 'C', 'C', 'C', 'C', 'C', 'C', 'C']","[400782, 401093, 401451, 401821, 402208, 402614, 403014, 403430, 403844, 404226, 404624, 405039, 405439, 405833, 406210, 406662, 407066, 407452, 407839, 408231, 408627, 409019, 409404]","[400845, 401148, 401501, 401864, 402254, 402654, 403058, 403481, 403894, 404278, 404675, 405087, 405459, 405881, 406266, 406708, 407111, 407507, 407888, 408279, 408672, 409072, 409454]","[44, 192, 106, 97, 76, 109, 113, 122, 111, 100, 56, 55, 30, 89, 140, 151, 85, 140, 103, 8, 75, 167, 135]","[400786, 401098, 401457, 401826, 402214, 402619, 403019, 403436, 403851, 404234, 404631, 405046, 405446, 405840, 406217, 406669, 407073, 407459, 407847, 408239, 408633, 409024, 409411]","[400254, 400654, 401054, 401454, 401854, 402254, 402654, 403054, 403450, 403864, 404246, 404644, 405059, 405459, 405853, 406231, 406682, 407086, 407472, 407859, 408251, 408647, 409039, 409424]",87,EM,L,R,ITMSR,1.1,
4,400,trial,0,9,9,9,trial,"['S', 'S', 'S', 'S', 'S', 'S', 'C', 'C', 'C', 'C', 'C', 'C', 'C', 'C', 'C', 'C', 'C', 'C', 'C', 'C', 'C', 'C']","[415787, 416179, 416601, 417028, 417422, 417807, 418259, 418624, 419030, 419439, 419844, 420244, 420681, 421090, 421510, 421881, 422282, 422670, 423094, 423487, 423874, 424256]","[415868, 416222, 416634, 417079, 417443, 417847, 418279, 418674, 419093, 419487, 419888, 420288, 420703, 421111, 421555, 421934, 422329, 422720, 423135, 423537, 423913, 424292]","[25, 132, 178, 237, 22, 90, 196, 138, 164, 148, 129, 64, 24, 247, 125, 110, 95, 163, 220, 86, 144, 89]","[415792, 416185, 416606, 417032, 417429, 417814, 418265, 418630, 419037, 419446, 419850, 420250, 420687, 421096, 421517, 421888, 422289, 422676, 423101, 423493, 423880, 424262]","[415109, 415509, 415909, 416309, 416709, 417110, 417509, 417909, 418279, 418644, 419050, 419459, 419864, 420264, 420701, 421110, 421530, 421901, 422302, 422690, 423114, 423507, 423895, 424276]",87,EM,L,R,ITMSR,1.1,
3,400,trial,0,10,10,10,trial,"['S', 'S', 'S', 'S', 'S', 'S', 'C', 'C', 'C', 'C', 'C', 'C', 'C', 'C', 'C', 'C', 'C', 'C', 'C', 'C', 'C', 'C']","[430609, 430972, 431363, 431758, 432168, 432572, 433017, 433408, 433854, 434237, 434656, 435072, 435469, 435858, 436252, 436698, 437145, 437538, 437915, 438303, 438690, 439087]","[430666, 431021, 431417, 431805, 432225, 432617, 433044, 433448, 433901, 434285, 434712, 435124, 435518, 435908, 436317, 436754, 437194, 437586, 437949, 438343, 438735, 439126]","[232, 106, 111, 88, 135, 81, 66, 83, 111, 112, 41, 27, 25, 79, 107, 111, 113, 99, 247, 255, 35, 249]","[430614, 430978, 431370, 431765, 432174, 432578, 433024, 433415, 433861, 434244, 434663, 435080, 435476, 435865, 436258, 436704, 437152, 437543, 437919, 438308, 438697, 439092]","[429859, 430259, 430659, 431059, 431459, 431859, 432259, 432659, 433037, 433428, 433874, 434257, 434676, 435092, 435489, 435878, 436272, 436718, 437165, 437558, 437935, 438323, 438710, 439107]",87,EM,L,R,ITMSR,1.1,
4,600,trial,0,11,11,11,trial,"['S', 'S', 'S', 'S', 'S', 'S', 'S', 'C', 'C', 'C', 'C', 'C', 'C', 'C', 'C', 'C', 'C', 'C', 'C', 'C', 'C', 'C', 'C']","[445481, 445946, 446508, 447090, 447706, 448328, 448857, 449472, 450021, 450778, 451317, 451857, 452399, 452985, 453545, 454441, 454944, 455473, 455989, 456633, 457197, 457814, 458463]","[445532, 445998, 446555, 447139, 447741, 448349, 448900, 449513, 450084, 450829, 451351, 451901, 452442, 453025, 453565, 454494, 454964, 455493, 456024, 456680, 457237, 457860, 458510]","[71, 17, 13, 239, 226, 7, 99, 157, 250, 243, 77, 100, 101, 97, 133, 145, 185, 251, 213, 56, 120, 68, 66]","[445486, 445953, 446513, 447095, 447711, 448334, 448863, 449478, 450026, 450782, 451323, 451863, 452406, 452992, 453549, 454449, 454949, 455476, 455995, 456639, 457203, 457820, 458470]","[444791, 445391, 445991, 446592, 447192, 447792, 448392, 448992, 449492, 450041, 450798, 451337, 451877, 452419, 453005, 453565, 454461, 454964, 455493, 456009, 456653, 457218, 457834, 458483]",87,EM,L,R,ITMSR,1.1,
0,600,trial,0,12,12,12,trial,"['S', 'S', 'S', 'S', 'S', 'S', 'C', 'C', 'C', 'C', 'C', 'C', 'C', 'C', 'C', 'C', 'C', 'C', 'C', 'C', 'C', 'C']","[464997, 465592, 466200, 466830, 467411, 468016, 468655, 469235, 469831, 470438, 471026, 471616, 472298, 472921, 473497, 474104, 474681, 475215, 475751, 476474, 477074, 477636]","[465075, 465648, 466245, 466871, 467454, 468055, 468700, 469282, 469883, 470487, 471087, 471663, 472349, 472941, 473525, 474156, 474739, 475274, 475789, 476521, 477104, 477685]","[207, 225, 135, 111, 153, 179, 165, 146, 151, 162, 143, 104, 133, 83, 139, 90, 36, 2, 245, 161, 111, 123]","[465003, 465597, 466206, 466835, 467418, 468021, 468660, 469241, 469837, 470445, 471032, 471622, 472304, 472927, 473503, 474110, 474688, 475222, 475756, 476480, 477080, 477641]","[463886, 464486, 465086, 465686, 466286, 466886, 467486, 468086, 468675, 469255, 469851, 470458, 471046, 471636, 472318, 472941, 473517, 474124, 474701, 475235, 475771, 476494, 477094, 477656]",87,EM,L,R,ITMSR,1.1,
2,400,trial,0,13,13,13,trial,"['S', 'S', 'S', 'S', 'S', 'S', 'C', 'C', 'C', 'C', 'C', 'C', 'C', 'C', 'C', 'C', 'C', 'C', 'C', 'C', 'C', 'C']","[483822, 484172, 484577, 484978, 485367, 485797, 486185, 486590, 486970, 487382, 487790, 488163, 488555, 488951, 489344, 489730, 490138, 490508, 490919, 491326, 491700, 492063]","[483842, 484195, 484597, 485018, 485406, 485817, 486226, 486632, 486990, 487402, 487829, 488199, 488601, 488971, 489383, 489763, 490200, 490564, 490959, 491360, 491739, 492083]","[175, 156, 94, 112, 62, 16, 67, 193, 129, 197, 129, 143, 127, 62, 98, 47, 100, 126, 174, 90, 118, 110]","[483826, 484177, 484582, 484983, 485373, 485803, 486191, 486594, 486975, 487387, 487795, 488168, 488560, 488956, 489349, 489737, 490144, 490511, 490924, 491331, 491705, 492067]","[483055, 483456, 483855, 484255, 484655, 485055, 485455, 485855, 486205, 486610, 486990, 487402, 487810, 488183, 488576, 488971, 489364, 489750, 490158, 490528, 490939, 491346, 491720, 492083]",87,EM,L,R,ITMSR,1.1,
0,600,trial,0,14,14,14,trial,"['S', 'S', 'S', 'S', 'S', 'S', 'S', 'C', 'C', 'C', 'C', 'C', 'C', 'C', 'C', 'C', 'C', 'C', 'C', 'C', 'C', 'C', 'C']","[498289, 498865, 499453, 500064, 500628, 501241, 501832, 502393, 502950, 503544, 504126, 504759, 505319, 505883, 506402, 507037, 507620, 508215, 508765, 509393, 509981, 511081, 511656]","[498332, 498905, 499493, 500084, 500659, 501276, 501867, 502441, 502994, 503584, 504165, 504779, 505354, 505928, 506448, 507057, 507658, 508275, 508814, 509446, 510022, 511142, 511705]","[145, 166, 94, 202, 88, 119, 140, 0, 248, 85, 177, 126, 237, 103, 186, 27, 171, 240, 53, 201, 191, 63, 221]","[498295, 498870, 499459, 500066, 500634, 501248, 501838, 502397, 502956, 503550, 504128, 504767, 505324, 505889, 506408, 507043, 507624, 508218, 508770, 509398, 509985, 511085, 511663]","[497703, 498304, 498904, 499504, 500104, 500704, 501304, 501904, 502413, 502970, 503564, 504146, 504779, 505339, 505903, 506422, 507057, 507640, 508235, 508785, 509413, 510001, 511101, 511676]",87,EM,L,R,ITMSR,1.1,
3,600,trial,0,15,15,15,trial,"['S', 'S', 'S', 'S', 'S', 'S', 'S', 'C', 'C', 'C', 'C', 'C', 'C', 'C', 'C', 'C', 'C', 'C', 'C', 'C', 'C', 'C', 'C']","[517975, 518510, 519133, 519751, 520330, 520954, 521526, 522136, 522776, 523488, 524101, 524662, 525245, 525837, 526437, 527012, 527676, 528320, 528921, 529530, 530097, 530708, 531311]","[517995, 518560, 519177, 519816, 520366, 520977, 521570, 522172, 522826, 523551, 524141, 524720, 525284, 525893, 526482, 527068, 527724, 528377, 528964, 529591, 530139, 530766, 531354]","[190, 24, 20, 126, 203, 104, 11, 120, 240, 66, 168, 2, 147, 228, 19, 211, 189, 220, 51, 126, 136, 27, 176]","[517981, 518515, 519139, 519759, 520333, 520961, 521532, 522140, 522783, 523516, 524108, 524669, 525252, 525842, 526443, 527040, 527682, 528326, 528927, 529538, 530103, 530713, 531318]","[517446, 518046, 518646, 519246, 519846, 520446, 521047, 521646, 522157, 522797, 523508, 524121, 524682, 525265, 525857, 526457, 527032, 527696, 528340, 528941, 529550, 530117, 530728, 531331]",87,EM,L,R,ITMSR,1.1,
4,600,trial,0,16,16,16,trial,"['S', 'S', 'S', 'S', 'S', 'S', 'S', 'C', 'C', 'C', 'C', 'C', 'C', 'C', 'C', 'C', 'C', 'C', 'C', 'C', 'C', 'C', 'C']","[537623, 538188, 538765, 539378, 539965, 540564, 541153, 541715, 542337, 542928, 543488, 544138, 544750, 545304, 546452, 547040, 547632, 548235, 548788, 549378, 549985, 551320, 551881]","[537670, 538238, 538785, 539426, 540013, 540603, 541173, 541788, 542388, 542971, 543526, 544173, 544796, 545350, 546549, 547105, 547680, 548255, 548830, 549440, 550046, 551473, 551945]","[249, 50, 136, 48, 163, 156, 205, 173, 25, 158, 225, 153, 185, 180, 141, 124, 51, 210, 96, 23, 161, 46, 166]","[537628, 538191, 538772, 539382, 539970, 540569, 541158, 541744, 542343, 542937, 543493, 544145, 544778, 545332, 546488, 547067, 547638, 548239, 548791, 549383, 549989, 551373, 551886]","[537071, 537670, 538270, 538870, 539470, 540070, 540670, 541271, 541735, 542357, 542948, 543508, 544158, 544770, 545325, 546472, 547060, 547652, 548255, 548808, 549398, 550005, 551341, 551901]",87,EM,L,R,ITMSR,1.1,
1,400,trial,0,17,17,17,trial,"['S', 'S', 'S', 'S', 'S', 'S', 'S', 'C', 'C', 'C', 'C', 'C', 'C', 'C', 'C', 'C', 'C', 'C', 'C', 'C', 'C', 'C', 'C']","[557754, 558084, 558379, 558815, 559187, 559580, 559994, 560386, 560756, 561116, 561481, 561890, 562259, 562638, 563036, 563430, 563814, 564191, 564582, 564974, 565329, 565673, 566071]","[557830, 558116, 558439, 558865, 559262, 559652, 560043, 560465, 560813, 561175, 561519, 561937, 562317, 562684, 563088, 563488, 563870, 564237, 564654, 565026, 565370, 565729, 566133]","[55, 136, 251, 56, 79, 61, 32, 75, 81, 83, 17, 254, 49, 205, 26, 11, 32, 211, 28, 244, 114, 196, 217]","[557758, 558090, 558384, 558820, 559193, 559586, 560001, 560390, 560760, 561121, 561486, 561894, 562264, 562643, 563041, 563434, 563819, 564196, 564587, 564979, 565335, 565678, 566076]","[557246, 557646, 558046, 558446, 558846, 559246, 559646, 560046, 560406, 560776, 561136, 561501, 561910, 562279, 562658, 563056, 563450, 563834, 564211, 564602, 564994, 565349, 565693, 566091]",87,EM,L,R,ITMSR,1.1,
1,600,trial,0,18,18,18,trial,"['S', 'S', 'S', 'S', 'S', 'S', 'S', 'C', 'C', 'C', 'C', 'C', 'C', 'C', 'C', 'C', 'C', 'C', 'C', 'C', 'C', 'C', 'C']","[571901, 572574, 573140, 573816, 574411, 575032, 575583, 576190, 576735, 577352, 577964, 578545, 579133, 579740, 580335, 580923, 581523, 582100, 582663, 583278, 583854, 584469, 585064]","[571969, 572683, 573259, 573888, 574532, 575129, 575670, 576313, 576861, 577454, 578061, 578667, 579270, 579853, 580425, 581029, 581646, 582214, 582781, 583430, 583971, 584558, 585139]","[48, 122, 97, 18, 131, 45, 48, 89, 122, 75, 75, 112, 146, 123, 77, 110, 80, 87, 87, 69, 146, 80, 69]","[571907, 572577, 573145, 573820, 574414, 575036, 575587, 576194, 576738, 577356, 577967, 578548, 579136, 579743, 580338, 580926, 581526, 582105, 582666, 583282, 583857, 584473, 585068]","[571466, 572066, 572666, 573266, 573867, 574466, 575066, 575666, 576210, 576755, 577372, 577984, 578565, 579153, 579760, 580355, 580943, 581543, 582120, 582683, 583298, 583874, 584489, 585084]",87,EM,L,R,ITMSR,1.1,
5,400,trial,0,19,19,19,trial,"['S', 'S', 'S', 'S', 'S', 'S', 'S', 'C', 'C', 'C', 'C', 'C', 'C', 'C', 'C', 'C', 'C', 'C', 'C', 'C', 'C', 'C', 'C']","[590906, 591225, 591540, 591922, 592320, 592743, 593149, 593574, 593941, 594324, 594735, 595128, 595511, 595940, 596329, 596733, 597154, 597535, 597921, 598292, 598683, 599097, 599480]","[590997, 591287, 591630, 591996, 592404, 592805, 593218, 593638, 594009, 594393, 594807, 595193, 595575, 596000, 596391, 596774, 597194, 597592, 597963, 598354, 598740, 599168, 599560]","[98, 61, 126, 84, 65, 1, 58, 46, 86, 47, 43, 78, 83, 33, 62, 240, 223, 46, 2, 31, 252, 47, 63]","[590910, 591230, 591543, 591926, 592323, 592747, 593154, 593579, 593945, 594328, 594738, 595131, 595514, 595945, 596333, 596738, 597158, 597538, 597925, 598296, 598687, 599101, 599483]","[590430, 590830, 591230, 591630, 592030, 592430, 592830, 593230, 593594, 593961, 594344, 594755, 595148, 595531, 595960, 596349, 596753, 597174, 597555, 597941, 598312, 598703, 599117, 599500]",87,EM,L,R,ITMSR,1.1,
2,400,trial,0,20,20,20,trial,"['S', 'S', 'S', 'S', 'S', 'S', 'S', 'C', 'C', 'C', 'C', 'C', 'C', 'C', 'C', 'C', 'C', 'C', 'C', 'C', 'C', 'C', 'C']","[605506, 605875, 606241, 606645, 607012, 607413, 607833, 608239, 608660, 609033, 609424, 609809, 610208, 610599, 610996, 611409, 611808, 612189, 612548, 612922, 613338, 613785, 614207]","[605606, 605967, 606327, 606735, 607111, 607511, 607926, 608330, 608742, 609117, 609506, 609887, 610273, 610669, 611057, 611452, 611873, 612254, 612632, 613016, 613403, 613848, 614283]","[98, 87, 92, 91, 108, 94, 99, 79, 84, 91, 98, 90, 85, 52, 64, 12, 61, 58, 96, 71, 73, 33, 73]","[605510, 605879, 606244, 606649, 607015, 607417, 607837, 608243, 608664, 609037, 609428, 609813, 610212, 610604, 611000, 611414, 611812, 612193, 612551, 612925, 613341, 613789, 614211]","[605087, 605487, 605887, 606287, 606687, 607087, 607488, 607887, 608259, 608680, 609053, 609444, 609829, 610228, 610619, 611016, 611429, 611828, 612209, 612568, 612942, 613358, 613805, 614227]",87,EM,L,R,ITMSR,1.1,
2,600,trial,0,21,21,21,trial,"['S', 'S', 'S', 'S', 'S', 'S', 'S', 'C', 'C', 'C', 'C', 'C', 'C', 'C', 'C', 'C', 'C', 'C', 'C', 'C', 'C', 'C', 'C']","[620293, 620904, 621515, 622111, 622708, 623326, 623921, 624564, 625116, 625660, 626270, 626865, 627491, 628062, 628659, 629253, 629868, 630458, 631027, 631580, 632187, 632758, 633313]","[620414, 621036, 621709, 622223, 622780, 623401, 623987, 624640, 625189, 625751, 626354, 626942, 627555, 628145, 628731, 629323, 629943, 630536, 631105, 631653, 632260, 632812, 633396]","[69, 96, 50, 61, 250, 45, 18, 3, 52, 16, 38, 250, 198, 44, 227, 33, 235, 62, 248, 15, 52, 234, 14]","[620297, 620907, 621519, 622115, 622713, 623330, 623925, 624569, 625120, 625665, 626274, 626870, 627496, 628066, 628663, 629257, 629872, 630462, 631032, 631584, 632192, 632762, 633318]","[619806, 620406, 621006, 621606, 622206, 622807, 623406, 624006, 624584, 625136, 625680, 626290, 626885, 627511, 628082, 628679, 629273, 629889, 630478, 631047, 631600, 632207, 632778, 633333]",87,EM,L,R,ITMSR,1.1,
2,600,trial,0,22,22,22,trial,"['S', 'S', 'S', 'S', 'S', 'S', 'S', 'C', 'C', 'C', 'C', 'C', 'C', 'C', 'C', 'C', 'C', 'C', 'C', 'C', 'C', 'C', 'C']","[639159, 639817, 640401, 641018, 641641, 642271, 642872, 643454, 644128, 644787, 645383, 645980, 646545, 647131, 647701, 648306, 648886, 649478, 650020, 650641, 651209, 651828, 652404]","[639246, 639918, 640487, 641096, 641715, 642336, 642961, 643545, 644208, 644855, 645445, 646051, 646623, 647223, 647774, 648381, 648951, 649563, 650103, 650712, 651284, 651877, 652483]","[76, 110, 116, 103, 100, 85, 89, 105, 114, 77, 53, 69, 51, 32, 60, 81, 39, 57, 71, 72, 91, 72, 101]","[639163, 639821, 640404, 641022, 641645, 642276, 642876, 643459, 644132, 644791, 645388, 645985, 646550, 647136, 647706, 648310, 648890, 649482, 650025, 650646, 651213, 651833, 652408]","[638745, 639345, 639945, 640545, 641145, 641745, 642345, 642946, 643474, 644148, 644807, 645403, 646000, 646565, 647151, 647721, 648326, 648906, 649498, 650040, 650661, 651229, 651848, 652424]",87,EM,L,R,ITMSR,1.1,
3,400,trial,0,23,23,23,trial,"['S', 'S', 'S', 'S', 'S', 'S', 'S', 'C', 'C', 'C', 'C', 'C', 'C', 'C', 'C', 'C', 'C', 'C', 'C', 'C', 'C', 'C', 'C']","[658448, 658771, 659062, 659434, 659824, 660250, 660634, 661060, 661394, 661821, 662190, 662560, 662966, 663352, 663736, 664116, 664529, 664909, 665275, 665665, 666059, 666470, 666849]","[658538, 658829, 659122, 659496, 659891, 660299, 660695, 661118, 661462, 661879, 662247, 662599, 663016, 663372, 663784, 664155, 664572, 664947, 665319, 665721, 666112, 666519, 666893]","[83, 56, 71, 219, 242, 7, 230, 8, 244, 244, 203, 201, 79, 22, 55, 132, 140, 242, 48, 22, 106, 139, 133]","[658452, 658777, 659066, 659439, 659829, 660255, 660639, 661065, 661399, 661827, 662195, 662566, 662972, 663358, 663743, 664122, 664537, 664915, 665281, 665671, 666065, 666476, 666855]","[657950, 658350, 658750, 659150, 659550, 659950, 660350, 660750, 661080, 661414, 661841, 662210, 662580, 662986, 663372, 663756, 664136, 664549, 664929, 665295, 665686, 666079, 666490, 666869]",87,EM,L,R,ITMSR,1.1,
3,600,trial,0,24,24,24,trial,"['S', 'S', 'S', 'S', 'S', 'S', 'S', 'C', 'C', 'C', 'C', 'C', 'C', 'C', 'C', 'C', 'C', 'C', 'C', 'C', 'C', 'C', 'C']","[672896, 673576, 674185, 674826, 675364, 675963, 676542, 677161, 677758, 678384, 679004, 679678, 680320, 680899, 681487, 682021, 682710, 683292, 683877, 684494, 685073, 685646, 686259]","[672986, 673665, 674238, 674871, 675421, 676017, 676604, 677229, 677830, 678451, 679085, 679734, 680359, 680962, 681529, 682079, 682777, 683355, 683930, 684534, 685123, 685710, 686279]","[20, 71, 129, 173, 157, 144, 146, 149, 176, 153, 128, 140, 142, 206, 202, 191, 253, 229, 206, 199, 202, 168, 166]","[672900, 673582, 674191, 674831, 675372, 675970, 676547, 677168, 677765, 678390, 679009, 679685, 680326, 680904, 681493, 682027, 682715, 683297, 683882, 684499, 685079, 685652, 686265]","[672464, 673064, 673665, 674264, 674864, 675464, 676064, 676664, 677181, 677778, 678404, 679024, 679698, 680340, 680920, 681507, 682041, 682730, 683312, 683897, 684514, 685093, 685666, 686279]",87,EM,L,R,ITMSR,1.1,
5,400,trial,0,25,25,25,trial,"['S', 'S', 'S', 'S', 'S', 'S', 'S', 'C', 'C', 'C', 'C', 'C', 'C', 'C', 'C', 'C', 'C', 'C', 'C', 'C', 'C', 'C', 'C']","[692103, 692418, 692768, 693123, 693551, 693971, 694398, 694781, 695184, 695580, 695980, 696364, 696748, 697121, 697528, 697946, 698349, 698737, 699099, 699491, 699933, 700300, 700689]","[692173, 692451, 692804, 693179, 693595, 694007, 694418, 694822, 695223, 695622, 696020, 696391, 696768, 697157, 697572, 697966, 698393, 698775, 699156, 699540, 699974, 700346, 700733]","[222, 70, 177, 183, 174, 190, 174, 204, 107, 112, 255, 80, 108, 131, 194, 240, 186, 31, 191, 12, 71, 111, 105]","[692108, 692423, 692773, 693128, 693555, 693976, 694404, 694787, 695189, 695586, 695985, 696369, 696754, 697127, 697532, 697952, 698354, 698742, 699105, 699497, 699938, 700305, 700694]","[691651, 692051, 692451, 692851, 693251, 693651, 694051, 694451, 694801, 695204, 695600, 696000, 696384, 696768, 697141, 697548, 697966, 698370, 698757, 699119, 699511, 699953, 700320, 700709]",87,EM,L,R,ITMSR,1.1,
5,600,trial,0,26,26,26,trial,"['S', 'S', 'S', 'S', 'S', 'S', 'S', 'C', 'C', 'C', 'C', 'C', 'C', 'C', 'C', 'C', 'C', 'C', 'C', 'C', 'C', 'C', 'C']","[706659, 707346, 707943, 708543, 709133, 709724, 710326, 710949, 711496, 712166, 712757, 713385, 713913, 714533, 715079, 715646, 716177, 716768, 717400, 717964, 718473, 719016, 719560]","[706696, 707366, 707963, 708563, 709173, 709776, 710369, 710988, 711569, 712231, 712808, 713431, 713976, 714576, 715141, 715705, 716241, 716831, 717420, 717984, 718523, 719080, 719596]","[185, 204, 46, 15, 3, 50, 71, 248, 50, 88, 57, 16, 47, 68, 59, 103, 90, 232, 212, 228, 185, 245, 150]","[706663, 707351, 707948, 708549, 709139, 709727, 710330, 710955, 711502, 712170, 712762, 713392, 713918, 714537, 715083, 715651, 716183, 716774, 717405, 717970, 718479, 719023, 719565]","[706220, 706818, 707418, 708018, 708618, 709218, 709818, 710418, 710969, 711516, 712186, 712777, 713405, 713933, 714553, 715099, 715666, 716197, 716788, 717420, 717984, 718493, 719036, 719580]",87,EM,L,R,ITMSR,1.1,
4,400,trial,0,27,27,27,trial,"['S', 'S', 'S', 'S', 'S', 'S', 'S', 'C', 'C', 'C', 'C', 'C', 'C', 'C', 'C', 'C', 'C', 'C', 'C', 'C', 'C', 'C', 'C']","[725514, 725813, 726161, 726547, 726957, 727340, 727725, 728144, 728479, 728840, 729212, 729620, 729999, 730365, 730747, 731109, 731485, 731869, 732242, 732634, 732963, 733315, 733696]","[725566, 725842, 726202, 726584, 726977, 727376, 727763, 728164, 728499, 728903, 729232, 729640, 730019, 730406, 730790, 731129, 731537, 731906, 732292, 732672, 733019, 733359, 733716]","[49, 19, 244, 184, 119, 81, 247, 7, 45, 5, 210, 113, 41, 227, 102, 180, 123, 34, 70, 31, 68, 21, 8]","[725519, 725818, 726165, 726551, 726961, 727345, 727729, 728147, 728484, 728844, 729217, 729624, 730004, 730370, 730753, 731114, 731491, 731874, 732247, 732639, 732968, 733320, 733701]","[725031, 725430, 725830, 726231, 726630, 727030, 727430, 727830, 728164, 728499, 728860, 729232, 729640, 730019, 730385, 730767, 731129, 731505, 731889, 732262, 732654, 732983, 733335, 733716]",87,EM,L,R,ITMSR,1.1,
0,400,trial,0,28,28,28,trial,"['S', 'S', 'S', 'S', 'S', 'S', 'S', 'C', 'C', 'C', 'C', 'C', 'C', 'C', 'C', 'C', 'C', 'C', 'C', 'C', 'C', 'C', 'C']","[739731, 740108, 740441, 740855, 741235, 741632, 742019, 742410, 742814, 743185, 743607, 743987, 744368, 744771, 745158, 745507, 745895, 746305, 746722, 747088, 747490, 747849, 748275]","[739794, 740152, 740510, 740905, 741293, 741685, 742070, 742468, 742861, 743205, 743649, 744027, 744424, 744825, 745206, 745568, 745949, 746352, 746742, 747137, 747542, 747920, 748340]","[137, 33, 131, 21, 214, 235, 179, 243, 239, 193, 196, 206, 237, 198, 157, 213, 197, 127, 100, 225, 225, 10, 15]","[739735, 740114, 740447, 740861, 741241, 741638, 742026, 742415, 742820, 743192, 743613, 743993, 744374, 744777, 745166, 745515, 745903, 746312, 746728, 747094, 747495, 747855, 748281]","[739284, 739684, 740084, 740484, 740884, 741284, 741684, 742084, 742430, 742834, 743205, 743627, 744007, 744388, 744792, 745178, 745527, 745915, 746326, 746742, 747108, 747510, 747869, 748295]",87,EM,L,R,ITMSR,1.1,
5,600,trial,0,29,29,29,trial,"['S', 'S', 'S', 'S', 'S', 'S', 'S', 'C', 'C', 'C', 'C', 'C', 'C', 'C', 'C', 'C', 'C', 'C', 'C', 'C', 'C', 'C', 'C']","[754195, 754757, 755388, 755979, 756578, 757168, 757736, 758318, 758859, 759453, 760032, 760612, 761198, 761838, 762435, 762947, 763475, 764047, 764556, 765107, 765642, 766191, 766786]","[754243, 754821, 755437, 756039, 756657, 757210, 757785, 758385, 758919, 759524, 760071, 760674, 761250, 761881, 762491, 763027, 763542, 764087, 764617, 765174, 765707, 766262, 766829]","[211, 196, 142, 171, 178, 56, 144, 168, 72, 15, 121, 4, 244, 206, 57, 42, 18, 245, 113, 158, 74, 73, 59]","[754200, 754763, 755393, 755984, 756583, 757174, 757741, 758322, 758865, 759460, 760038, 760617, 761204, 761843, 762441, 762952, 763481, 764054, 764562, 765112, 765647, 766197, 766790]","[753702, 754302, 754903, 755502, 756102, 756702, 757302, 757902, 758338, 758879, 759473, 760052, 760632, 761218, 761858, 762456, 762968, 763495, 764067, 764576, 765127, 765662, 766211, 766807]",87,EM,L,R,ITMSR,1.1,
5,600,trial,0,30,30,30,trial,"['S', 'S', 'S', 'S', 'S', 'S', 'S', 'C', 'C', 'C', 'C', 'C', 'C', 'C', 'C', 'C', 'C', 'C', 'C', 'C', 'C', 'C', 'C', 'C']","[806292, 806908, 807523, 808115, 808742, 809334, 809961, 810569, 811196, 811783, 812329, 812980, 813591, 814175, 814813, 815390, 815927, 816527, 817103, 817682, 818266, 818838, 819400, 819500]","[806356, 806956, 807572, 808137, 808784, 809375, 810008, 810625, 811252, 811862, 812408, 813051, 813612, 814285, 814864, 815410, 815947, 816547, 817123, 817702, 818286, 818859, 819420, 819529]","[34, 109, 219, 185, 183, 141, 210, 190, 15, 232, 134, 116, 143, 66, 204, 114, 101, 10, 5, 72, 70, 160, 160, 97]","[806298, 806917, 807529, 808120, 808748, 809339, 809965, 810575, 811201, 811788, 812336, 812985, 813595, 814181, 814818, 815395, 815932, 816533, 817108, 817687, 818271, 818843, 819405, 819500]","[805873, 806473, 807073, 807673, 808273, 808873, 809474, 810074, 810589, 811216, 811803, 812349, 813000, 813612, 814195, 814833, 815410, 815947, 816547, 817123, 817702, 818286, 818859, 819420]",87,EM,L,R,ITMSR,1.1,
1,600,trial,0,31,31,31,trial,"['S', 'S', 'S', 'S', 'S', 'S', 'S', 'C', 'C', 'C', 'C', 'C', 'C', 'C', 'C', 'C', 'C', 'C', 'C', 'C', 'C', 'C', 'C']","[825639, 826202, 826747, 827411, 828102, 828641, 829258, 829855, 830347, 830903, 831425, 832039, 832587, 833093, 833742, 834323, 834846, 835381, 835896, 836424, 836950, 837480, 838029]","[825713, 826263, 826802, 827456, 828122, 828692, 829301, 829894, 830408, 830923, 831446, 832059, 832607, 833113, 833806, 834343, 834866, 835401, 835916, 836481, 836970, 837500, 838049]","[247, 202, 144, 191, 74, 75, 113, 39, 152, 75, 50, 68, 87, 37, 133, 44, 110, 231, 83, 64, 164, 166, 40]","[825646, 826208, 826752, 827416, 828108, 828645, 829263, 829861, 830352, 830909, 831431, 832047, 832593, 833098, 833748, 834329, 834851, 835387, 835902, 836430, 836955, 837486, 838034]","[825129, 825730, 826330, 826930, 827530, 828130, 828730, 829330, 829875, 830367, 830923, 831446, 832059, 832607, 833113, 833762, 834343, 834866, 835401, 835916, 836444, 836970, 837500, 838049]",87,EM,L,R,ITMSR,1.1,
1,600,trial,0,32,32,32,trial,"['S', 'S', 'S', 'S', 'S', 'S', 'S', 'C', 'C', 'C', 'C', 'C', 'C', 'C', 'C', 'C', 'C', 'C', 'C', 'C', 'C', 'C', 'C']","[844266, 844924, 845519, 846112, 846709, 847272, 847894, 848520, 849071, 849648, 850188, 850778, 851358, 851900, 852414, 852982, 853541, 854082, 854625, 855201, 855854, 856421, 856955]","[844317, 844962, 845554, 846158, 846729, 847292, 847915, 848540, 849115, 849697, 850260, 850827, 851397, 851950, 852477, 853032, 853581, 854128, 854706, 855221, 855914, 856458, 856975]","[169, 153, 70, 59, 97, 164, 36, 189, 2, 47, 31, 178, 181, 41, 75, 169, 199, 216, 231, 186, 179, 229, 7]","[844271, 844931, 845527, 846116, 846716, 847280, 847901, 848525, 849075, 849654, 850193, 850785, 851364, 851906, 852419, 852988, 853549, 854088, 854631, 855208, 855860, 856426, 856961]","[843835, 844435, 845035, 845635, 846235, 846835, 847435, 848035, 848540, 849091, 849668, 850208, 850798, 851378, 851920, 852434, 853002, 853561, 854103, 854645, 855221, 855874, 856441, 856975]",87,EM,L,R,ITMSR,1.1,
4,600,trial,0,33,33,33,trial,"['S', 'S', 'S', 'S', 'S', 'S', 'S', 'C', 'C', 'C', 'C', 'C', 'C', 'C', 'C', 'C', 'C', 'C', 'C', 'C', 'C', 'C', 'C']","[862848, 863464, 864102, 864692, 865288, 865881, 866492, 867054, 867639, 868176, 868756, 869342, 869907, 870423, 870977, 871517, 872032, 872657, 873194, 873738, 874265, 874786, 875315]","[862924, 863515, 864122, 864712, 865308, 865901, 866512, 867074, 867685, 868196, 868776, 869362, 869927, 870444, 870998, 871537, 872052, 872677, 873214, 873790, 874285, 874806, 875335]","[167, 5, 48, 74, 119, 132, 65, 146, 5, 15, 225, 33, 232, 56, 77, 79, 200, 106, 2, 1, 133, 185, 149]","[862853, 863470, 864106, 864697, 865294, 865888, 866496, 867060, 867644, 868180, 868761, 869347, 869913, 870429, 870981, 871521, 872038, 872665, 873198, 873744, 874272, 874791, 875321]","[862431, 863030, 863630, 864230, 864830, 865430, 866030, 866630, 867074, 867659, 868196, 868776, 869362, 869927, 870444, 870998, 871537, 872052, 872677, 873214, 873758, 874285, 874806, 875335]",87,EM,L,R,ITMSR,1.1,
5,400,trial,0,34,34,34,trial,"['S', 'S', 'S', 'S', 'S', 'C', 'C', 'C', 'C', 'C', 'C', 'C', 'C', 'C', 'C', 'C', 'C', 'C', 'C', 'C', 'C']","[881462, 882178, 883009, 883425, 883848, 884247, 884633, 885026, 885403, 885768, 886137, 886521, 886900, 887293, 887698, 888081, 888418, 888792, 889165, 889558, 889999]","[881650, 882572, 883055, 883478, 883868, 884296, 884672, 885066, 885423, 885816, 886179, 886568, 886956, 887313, 887741, 888121, 888463, 888834, 889186, 889578, 890019]","[25, 0, 54, 78, 37, 87, 68, 39, 212, 229, 52, 17, 5, 132, 177, 156, 153, 136, 128, 97, 132]","[881465, 882183, 883013, 883429, 883852, 884251, 884636, 885030, 885406, 885773, 886142, 886526, 886905, 887299, 887703, 888086, 888424, 888798, 889171, 889564, 890004]","[881117, 881517, 881917, 882317, 882717, 883117, 883517, 883917, 884268, 884653, 885046, 885423, 885788, 886157, 886541, 886920, 887313, 887718, 888101, 888438, 888812, 889185, 889578, 890019]",87,EM,L,R,ITMSR,1.1,
5,600,trial,0,35,35,35,trial,"['S', 'S', 'S', 'S', 'S', 'S', 'S', 'S', 'C', 'C', 'C', 'C', 'C', 'C', 'C', 'C', 'C', 'C', 'C', 'C', 'C', 'C', 'C', 'C']","[895712, 896149, 896580, 897186, 897808, 898393, 899010, 899575, 900147, 900761, 901321, 901901, 902488, 903033, 903607, 904185, 904759, 905360, 905864, 906439, 907028, 907567, 908162, 908741]","[895782, 896256, 896881, 897389, 898079, 898680, 899278, 899817, 900395, 900994, 901597, 902199, 902737, 903288, 903905, 904465, 905034, 905585, 906100, 906721, 907283, 907825, 908439]","[119, 196, 11, 51, 44, 28, 54, 41, 18, 249, 31, 0, 37, 19, 237, 13, 37, 227, 12, 254, 23, 13, 19]","[895717, 896202, 896584, 897190, 897812, 898398, 899014, 899579, 900152, 900766, 901324, 901905, 902493, 903038, 903611, 904190, 904763, 905365, 905869, 906443, 907033, 907571, 908166]","[895448, 896046, 896646, 897246, 897846, 898446, 899046, 899646, 900167, 900781, 901341, 901921, 902508, 903053, 903627, 904205, 904779, 905380, 905884, 906459, 907048, 907587, 908182, 908761]",87,EM,L,R,ITMSR,1.1,
0,400,trial,0,36,36,36,trial,"['S', 'S', 'S', 'S', 'S', 'S', 'S', 'C', 'C', 'C', 'C', 'C', 'C', 'C', 'C', 'C', 'C', 'C', 'C', 'C', 'C', 'C', 'C']","[914623, 915172, 915482, 915869, 916282, 916671, 917066, 917474, 917878, 918260, 918679, 919065, 919455, 919834, 920246, 920646, 921055, 921431, 921808, 922216, 922586, 922974, 923383]","[914884, 915250, 915549, 915922, 916302, 916721, 917117, 917522, 917931, 918309, 918727, 919114, 919499, 919891, 920294, 920704, 921104, 921498, 921869, 922260, 922660, 923060, 923444]","[77, 69, 105, 116, 46, 80, 20, 3, 67, 64, 20, 195, 243, 30, 11, 33, 21, 43, 14, 215, 11, 21, 4]","[914627, 915176, 915486, 915873, 916286, 916675, 917071, 917480, 917883, 918264, 918684, 919071, 919460, 919839, 920251, 920651, 921060, 921436, 921814, 922220, 922592, 922979, 923388]","[914317, 914717, 915117, 915517, 915917, 916317, 916717, 917117, 917494, 917898, 918280, 918700, 919085, 919475, 919854, 920266, 920666, 921075, 921451, 921828, 922236, 922606, 922994, 923403]",87,EM,L,R,ITMSR,1.1,
2,600,trial,0,37,37,37,trial,"['S', 'S', 'S', 'S', 'S', 'S', 'S', 'C', 'C', 'C', 'C', 'C', 'C', 'C', 'C', 'C', 'C', 'C', 'C', 'C', 'C', 'C', 'C']","[929152, 929865, 930493, 931115, 931747, 932299, 932868, 933451, 934083, 934664, 935268, 935865, 936421, 937005, 937589, 938145, 938766, 939327, 939906, 940448, 941017, 941558, 942096]","[929268, 930070, 930796, 931429, 932036, 932572, 933137, 933751, 934367, 934926, 935523, 936074, 936696, 937290, 937827, 938419, 938991, 939584, 940154, 940674, 941266, 941783]","[240, 85, 73, 92, 67, 87, 90, 84, 84, 45, 64, 248, 68, 64, 78, 81, 63, 89, 98, 125, 105, 108]","[929158, 929869, 930498, 931120, 931751, 932304, 932872, 933455, 934088, 934669, 935273, 935870, 936426, 937010, 937593, 938150, 938772, 939332, 939910, 940453, 941021, 941562]","[928730, 929330, 929930, 930530, 931130, 931730, 932330, 932930, 933471, 934104, 934684, 935288, 935885, 936441, 937025, 937609, 938165, 938786, 939347, 939926, 940468, 941037, 941578, 942116]",87,EM,L,R,ITMSR,1.1,
0,400,trial,0,38,38,38,trial,"['S', 'S', 'S', 'S', 'S', 'S', 'S', 'C', 'C', 'C', 'C', 'C', 'C', 'C', 'C', 'C', 'C', 'C', 'C', 'C', 'C', 'C', 'C']","[947723, 948015, 948475, 948926, 949350, 949749, 950124, 950531, 950913, 951286, 951685, 952085, 952469, 952845, 953221, 953588, 954000, 954398, 954777, 955137, 955526, 955893, 956275]","[947786, 948065, 948537, 948980, 949390, 949769, 950173, 950551, 950963, 951343, 951737, 952131, 952525, 952901, 953274, 953649, 954043, 954441, 954825, 955187, 955570, 955936, 956319]","[83, 76, 113, 101, 59, 242, 63, 229, 49, 53, 59, 24, 12, 8, 240, 41, 4, 9, 48, 31, 3, 29, 20]","[947727, 948019, 948481, 948931, 949354, 949754, 950129, 950536, 950917, 951291, 951690, 952090, 952474, 952851, 953227, 953592, 954005, 954404, 954782, 955142, 955531, 955898, 956280]","[947431, 947831, 948231, 948631, 949031, 949431, 949831, 950232, 950551, 950933, 951306, 951705, 952105, 952489, 952865, 953241, 953608, 954020, 954418, 954797, 955157, 955546, 955913, 956295]",87,EM,L,R,ITMSR,1.1,
3,600,trial,0,39,39,39,trial,"['S', 'S', 'S', 'S', 'S', 'S', 'S', 'C', 'C', 'C', 'C', 'C', 'C', 'C', 'C', 'C', 'C', 'C', 'C', 'C', 'C', 'C', 'C']","[962367, 962958, 963636, 964247, 964889, 965462, 966055, 966648, 967278, 967806, 968392, 968984, 969571, 970135, 970754, 971319, 971862, 972440, 973024, 973662, 974225, 974818, 975363]","[962469, 963324, 963946, 964556, 965160, 965755, 966348, 966945, 967517, 968120, 968679, 969262, 969853, 970419, 971054, 971642, 972197, 972788, 973351, 973949, 974478, 975067]","[53, 72, 92, 89, 111, 115, 81, 84, 59, 104, 108, 105, 109, 80, 4, 64, 51, 67, 49, 55, 63, 68]","[962371, 962963, 963640, 964252, 964893, 965466, 966061, 966653, 967283, 967811, 968396, 968988, 969575, 970139, 970759, 971323, 971866, 972444, 973028, 973666, 974230, 974822]","[961920, 962520, 963120, 963720, 964320, 964920, 965520, 966120, 966668, 967298, 967826, 968412, 969005, 969591, 970156, 970774, 971339, 971882, 972461, 973044, 973682, 974245, 974838, 975383]",87,EM,L,R,ITMSR,1.1,
5,400,trial,0,40,40,40,trial,"['S', 'S', 'S', 'S', 'S', 'S', 'S', 'C', 'C', 'C', 'C', 'C', 'C', 'C', 'C', 'C', 'C', 'C', 'C', 'C', 'C', 'C', 'C']","[981345, 981650, 982012, 982420, 982811, 983204, 983577, 983972, 984381, 984754, 985149, 985567, 985937, 986344, 986746, 987160, 987545, 987931, 988320, 988705, 989109, 989474, 989860]","[981424, 981712, 982055, 982466, 982870, 983275, 983638, 984048, 984442, 984805, 985195, 985614, 985984, 986400, 986767, 987183, 987568, 987953, 988342, 988742, 989161, 989542, 989921]","[88, 70, 16, 241, 30, 66, 25, 115, 43, 4, 10, 239, 178, 179, 140, 158, 125, 157, 28, 186, 218, 218, 217]","[981347, 981655, 982017, 982424, 982815, 983211, 983581, 983975, 984385, 984759, 985154, 985572, 985944, 986350, 986752, 987166, 987550, 987936, 988326, 988710, 989114, 989479, 989864]","[980874, 981274, 981675, 982074, 982474, 982874, 983274, 983674, 983992, 984401, 984774, 985169, 985587, 985957, 986364, 986766, 987181, 987565, 987951, 988340, 988725, 989129, 989494, 989880]",87,EM,L,R,ITMSR,1.1,
1,400,trial,0,41,41,41,trial,"['S', 'S', 'S', 'S', 'S', 'S', 'C', 'C', 'C', 'C', 'C', 'C', 'C', 'C', 'C', 'C', 'C', 'C', 'C', 'C', 'C', 'C']","[996013, 996484, 996948, 997329, 997760, 998183, 998582, 998971, 999351, 999769, 1000172, 1000557, 1000937, 1001344, 1001722, 1002132, 1002503, 1002904, 1003286, 1003670, 1004083, 1004484]","[996110, 996550, 997004, 997420, 997829, 998252, 998636, 999032, 999442, 999853, 1000248, 1000668, 1001055, 1001451, 1001838, 1002255, 1002631, 1003017, 1003371, 1003751, 1004156, 1004540]","[130, 50, 26, 88, 45, 49, 54, 71, 82, 80, 48, 89, 109, 111, 115, 115, 111, 78, 68, 60, 5, 2]","[996020, 996488, 996954, 997334, 997763, 998187, 998586, 998975, 999355, 999773, 1000176, 1000561, 1000940, 1001347, 1001726, 1002135, 1002506, 1002908, 1003290, 1003674, 1004088, 1004488]","[995415, 995814, 996214, 996614, 997014, 997414, 997814, 998214, 998602, 998991, 999371, 999789, 1000193, 1000578, 1000957, 1001364, 1001742, 1002152, 1002523, 1002925, 1003307, 1003691, 1004103, 1004504]",87,EM,L,R,ITMSR,1.1,
3,400,trial,0,42,42,42,trial,"['S', 'S', 'S', 'S', 'S', 'S', 'S', 'C', 'C', 'C', 'C', 'C', 'C', 'C', 'C', 'C', 'C', 'C', 'C', 'C', 'C', 'C', 'C']","[1010624, 1010967, 1011352, 1011740, 1012130, 1012553, 1012960, 1013392, 1013784, 1014189, 1014577, 1014978, 1015363, 1015774, 1016135, 1016534, 1016927, 1017307, 1017707, 1018094, 1018513, 1018869, 1019304]","[1010701, 1011040, 1011438, 1011853, 1012247, 1012641, 1013036, 1013448, 1013832, 1014264, 1014645, 1015066, 1015448, 1015858, 1016197, 1016607, 1017007, 1017385, 1017788, 1018175, 1018593, 1018973, 1019402]","[87, 100, 98, 111, 95, 80, 77, 52, 66, 96, 83, 126, 107, 111, 87, 103, 100, 75, 95, 95, 121, 117, 106]","[1010628, 1010971, 1011356, 1011744, 1012133, 1012557, 1012964, 1013396, 1013789, 1014193, 1014581, 1014980, 1015366, 1015777, 1016138, 1016537, 1016930, 1017311, 1017711, 1018097, 1018516, 1018872, 1019309]","[1010199, 1010598, 1010998, 1011398, 1011799, 1012198, 1012598, 1012998, 1013412, 1013805, 1014209, 1014597, 1014999, 1015384, 1015794, 1016155, 1016554, 1016947, 1017327, 1017728, 1018114, 1018533, 1018889, 1019324]",87,EM,L,R,ITMSR,1.1,
1,400,trial,0,43,43,43,trial,"['S', 'S', 'S', 'S', 'S', 'S', 'S', 'C', 'C', 'C', 'C', 'C', 'C', 'C', 'C', 'C', 'C', 'C', 'C', 'C', 'C', 'C', 'C']","[1025244, 1025599, 1025959, 1026366, 1026747, 1027143, 1027573, 1027955, 1028322, 1028744, 1029137, 1029513, 1029919, 1030308, 1030690, 1031108, 1031510, 1031906, 1032289, 1032695, 1033076, 1033435, 1033878]","[1025370, 1025679, 1026023, 1026440, 1026808, 1027205, 1027648, 1028022, 1028401, 1028795, 1029187, 1029560, 1029979, 1030380, 1030754, 1031172, 1031566, 1031950, 1032309, 1032740, 1033135, 1033495, 1033935]","[77, 74, 46, 23, 77, 62, 87, 78, 59, 201, 135, 215, 226, 223, 224, 206, 191, 173, 66, 79, 207, 207, 183]","[1025249, 1025603, 1025966, 1026371, 1026751, 1027147, 1027577, 1027959, 1028328, 1028749, 1029143, 1029519, 1029924, 1030312, 1030695, 1031113, 1031515, 1031911, 1032294, 1032701, 1033080, 1033439, 1033883]","[1024840, 1025240, 1025640, 1026040, 1026440, 1026840, 1027240, 1027640, 1027975, 1028342, 1028764, 1029157, 1029533, 1029939, 1030328, 1030710, 1031128, 1031530, 1031926, 1032309, 1032715, 1033096, 1033455, 1033899]",87,EM,L,R,ITMSR,1.1,
2,400,trial,0,44,44,44,trial,"['S', 'S', 'S', 'S', 'S', 'S', 'S', 'C', 'C', 'C', 'C', 'C', 'C', 'C', 'C', 'C', 'C', 'C', 'C', 'C', 'C', 'C', 'C']","[1040029, 1040359, 1040743, 1041165, 1041539, 1041936, 1042311, 1042777, 1043162, 1043547, 1043931, 1044361, 1044752, 1045169, 1045576, 1045976, 1046366, 1046788, 1047150, 1047532, 1047944, 1048356, 1048775]","[1040075, 1040412, 1040791, 1041185, 1041587, 1041981, 1042331, 1042797, 1043182, 1043600, 1043975, 1044409, 1044797, 1045223, 1045624, 1046021, 1046419, 1046845, 1047221, 1047606, 1048023, 1048408, 1048836]","[217, 60, 70, 237, 43, 226, 7, 113, 125, 239, 128, 235, 252, 12, 124, 180, 153, 160, 196, 176, 192, 156, 166]","[1040033, 1040363, 1040747, 1041169, 1041543, 1041941, 1042316, 1042782, 1043167, 1043552, 1043936, 1044366, 1044756, 1045174, 1045581, 1045981, 1046371, 1046794, 1047156, 1047538, 1047950, 1048363, 1048780]","[1039579, 1039979, 1040379, 1040779, 1041179, 1041580, 1041979, 1042379, 1042797, 1043182, 1043567, 1043951, 1044381, 1044772, 1045189, 1045596, 1045996, 1046386, 1046808, 1047170, 1047553, 1047964, 1048376, 1048795]",87,EM,L,R,ITMSR,1.1,
2,400,trial,0,45,45,45,trial,"['S', 'S', 'S', 'S', 'S', 'S', 'S', 'C', 'C', 'C', 'C', 'C', 'C', 'C', 'C', 'C', 'C', 'C', 'C', 'C', 'C', 'C', 'C']","[1054985, 1055307, 1055686, 1056094, 1056468, 1056869, 1057292, 1057675, 1058030, 1058420, 1058827, 1059255, 1059658, 1060051, 1060420, 1060820, 1061201, 1061597, 1061999, 1062389, 1062794, 1063179, 1063569]","[1055049, 1055377, 1055749, 1056114, 1056537, 1056934, 1057344, 1057716, 1058087, 1058468, 1058874, 1059292, 1059710, 1060091, 1060463, 1060840, 1061250, 1061643, 1062019, 1062446, 1062851, 1063225, 1063592]","[59, 90, 81, 130, 42, 221, 109, 156, 217, 152, 136, 28, 161, 151, 180, 247, 138, 83, 101, 39, 125, 81, 54]","[1054989, 1055311, 1055691, 1056099, 1056473, 1056874, 1057297, 1057679, 1058034, 1058425, 1058832, 1059260, 1059663, 1060057, 1060424, 1060826, 1061206, 1061602, 1062002, 1062394, 1062799, 1063183, 1063575]","[1054544, 1054944, 1055344, 1055745, 1056144, 1056544, 1056944, 1057344, 1057695, 1058050, 1058440, 1058847, 1059275, 1059678, 1060071, 1060440, 1060840, 1061221, 1061617, 1062019, 1062409, 1062814, 1063199, 1063589]",87,EM,L,R,ITMSR,1.1,
3,400,trial,0,46,46,46,trial,"['S', 'S', 'S', 'S', 'S', 'S', 'S', 'C', 'C', 'C', 'C', 'C', 'C', 'C', 'C', 'C', 'C', 'C', 'C', 'C', 'C', 'C', 'C']","[1069396, 1069750, 1070124, 1070546, 1070947, 1071346, 1071746, 1072153, 1072516, 1072921, 1073325, 1073711, 1074124, 1074533, 1074908, 1075332, 1075718, 1076145, 1076546, 1076925, 1077306, 1077691, 1078097]","[1069474, 1069791, 1070164, 1070593, 1070989, 1071366, 1071766, 1072174, 1072560, 1072941, 1073345, 1073731, 1074144, 1074577, 1074928, 1075376, 1075738, 1076165, 1076567, 1076945, 1077326, 1077711, 1078117]","[224, 206, 183, 29, 208, 235, 31, 239, 115, 104, 4, 190, 145, 2, 14, 222, 49, 25, 226, 52, 73, 16, 215]","[1069402, 1069756, 1070129, 1070553, 1070952, 1071350, 1071751, 1072159, 1072522, 1072926, 1073329, 1073716, 1074130, 1074538, 1074912, 1075338, 1075722, 1076150, 1076551, 1076929, 1077311, 1077696, 1078103]","[1069016, 1069416, 1069816, 1070216, 1070616, 1071016, 1071416, 1071816, 1072173, 1072536, 1072941, 1073345, 1073731, 1074144, 1074553, 1074928, 1075352, 1075738, 1076165, 1076567, 1076945, 1077326, 1077711, 1078117]",87,EM,L,R,ITMSR,1.1,
4,400,trial,0,47,47,47,trial,"['S', 'S', 'S', 'S', 'S', 'S', 'S', 'C', 'C', 'C', 'C', 'C', 'C', 'C', 'C', 'C', 'C', 'C', 'C', 'C', 'C', 'C', 'C']","[1084110, 1084450, 1084848, 1085217, 1085603, 1086026, 1086420, 1086836, 1087268, 1087641, 1088046, 1088481, 1088855, 1089243, 1089656, 1090096, 1090512, 1090944, 1091321, 1091694, 1092084, 1092489, 1092911]","[1084170, 1084504, 1084884, 1085288, 1085669, 1086085, 1086459, 1086889, 1087324, 1087705, 1088067, 1088522, 1088897, 1089294, 1089688, 1090116, 1090557, 1090983, 1091388, 1091762, 1092145, 1092525, 1092955]","[215, 175, 121, 173, 134, 144, 97, 189, 132, 166, 127, 105, 18, 51, 67, 16, 73, 51, 92, 110, 97, 120, 143]","[1084115, 1084456, 1084853, 1085223, 1085609, 1086031, 1086426, 1086841, 1087273, 1087646, 1088051, 1088487, 1088860, 1089249, 1089662, 1090102, 1090519, 1090950, 1091329, 1091700, 1092091, 1092494, 1092916]","[1083716, 1084115, 1084515, 1084915, 1085315, 1085715, 1086115, 1086515, 1086856, 1087288, 1087661, 1088066, 1088501, 1088875, 1089263, 1089676, 1090116, 1090532, 1090964, 1091341, 1091714, 1092104, 1092509, 1092931]",87,EM,L,R,ITMSR,1.1,
2,600,trial,0,48,48,48,trial,"['S', 'S', 'S', 'S', 'S', 'S', 'S', 'C', 'C', 'C', 'C', 'C', 'C', 'C', 'C', 'C', 'C', 'C', 'C', 'C', 'C', 'C', 'C']","[1099074, 1099707, 1100341, 1100971, 1101569, 1102140, 1102733, 1103350, 1103944, 1104576, 1105178, 1105781, 1106399, 1107012, 1107580, 1108189, 1108753, 1109305, 1109864, 1110429, 1111036, 1111634, 1112156]","[1099136, 1099788, 1100388, 1101016, 1101589, 1102193, 1102753, 1103370, 1103989, 1104638, 1105198, 1105802, 1106419, 1107076, 1107658, 1108253, 1108792, 1109325, 1109922, 1110474, 1111056, 1111674, 1112229]","[19, 37, 38, 213, 170, 136, 116, 242, 26, 223, 119, 159, 78, 182, 153, 244, 203, 138, 145, 142, 226, 161, 194]","[1099078, 1099712, 1100346, 1100976, 1101574, 1102146, 1102738, 1103355, 1103949, 1104582, 1105183, 1105785, 1106403, 1107017, 1107584, 1108195, 1108758, 1109311, 1109867, 1110435, 1111041, 1111641, 1112161]","[1098646, 1099246, 1099846, 1100446, 1101046, 1101646, 1102246, 1102846, 1103370, 1103964, 1104596, 1105198, 1105801, 1106419, 1107032, 1107600, 1108209, 1108773, 1109325, 1109884, 1110449, 1111056, 1111654, 1112176]",87,EM,L,R,ITMSR,1.1,
4,400,trial,0,49,49,49,trial,"['S', 'S', 'S', 'S', 'S', 'S', 'S', 'C', 'C', 'C', 'C', 'C', 'C', 'C', 'C', 'C', 'C', 'C', 'C', 'C', 'C', 'C', 'C']","[1118142, 1118481, 1118837, 1119224, 1119617, 1120012, 1120404, 1120828, 1121260, 1121626, 1122032, 1122403, 1122794, 1123224, 1123600, 1124055, 1124440, 1124825, 1125209, 1125621, 1125993, 1126401, 1126770]","[1118189, 1118501, 1118879, 1119244, 1119670, 1120057, 1120453, 1120884, 1121281, 1121684, 1122072, 1122447, 1122814, 1123245, 1123658, 1124075, 1124494, 1124845, 1125229, 1125641, 1126013, 1126421, 1126790]","[111, 23, 58, 11, 31, 64, 89, 119, 219, 55, 39, 96, 6, 69, 76, 5, 10, 175, 191, 3, 206, 148, 196]","[1118148, 1118486, 1118843, 1119230, 1119622, 1120016, 1120410, 1120833, 1121265, 1121631, 1122037, 1122408, 1122798, 1123230, 1123605, 1124061, 1124445, 1124830, 1125214, 1125626, 1125999, 1126406, 1126776]","[1117712, 1118112, 1118512, 1118912, 1119312, 1119712, 1120112, 1120513, 1120848, 1121281, 1121646, 1122052, 1122423, 1122814, 1123245, 1123620, 1124075, 1124460, 1124845, 1125229, 1125641, 1126013, 1126421, 1126790]",87,EM,L,R,ITMSR,1.1,
0,600,trial,0,50,50,50,trial,"['S', 'S', 'S', 'S', 'S', 'S', 'S', 'C', 'C', 'C', 'C', 'C', 'C', 'C', 'C', 'C', 'C', 'C', 'C', 'C', 'C', 'C', 'C']","[1132748, 1133438, 1134058, 1134644, 1135208, 1135804, 1136385, 1136982, 1137471, 1137994, 1138531, 1139077, 1139628, 1140166, 1140680, 1141173, 1141698, 1142175, 1142670, 1143204, 1143743, 1144266, 1144778]","[1132812, 1133511, 1134078, 1134696, 1135228, 1135855, 1136441, 1137041, 1137541, 1138043, 1138581, 1139148, 1139713, 1140263, 1140730, 1141226, 1141777, 1142259, 1142740, 1143283, 1143822, 1144356, 1144860]","[167, 37, 192, 86, 219, 96, 10, 42, 43, 50, 44, 2, 194, 123, 44, 61, 88, 17, 229, 14, 40, 7, 44]","[1132753, 1133443, 1134064, 1134650, 1135213, 1135809, 1136390, 1136987, 1137476, 1138000, 1138536, 1139083, 1139632, 1140171, 1140685, 1141179, 1141704, 1142180, 1142676, 1143209, 1143748, 1144271, 1144784]","[1132366, 1132965, 1133565, 1134166, 1134765, 1135365, 1135965, 1136565, 1137002, 1137491, 1138014, 1138551, 1139097, 1139648, 1140186, 1140700, 1141193, 1141719, 1142195, 1142690, 1143224, 1143763, 1144286, 1144798]",87,EM,L,R,ITMSR,1.1,
3,600,trial,0,51,51,51,trial,"['S', 'S', 'S', 'S', 'S', 'S', 'S', 'C', 'C', 'C', 'C', 'C', 'C', 'C', 'C', 'C', 'C', 'C', 'C', 'C', 'C', 'C', 'C']","[1150967, 1151620, 1152192, 1152771, 1153375, 1153955, 1154538, 1155140, 1155732, 1156315, 1156861, 1157458, 1158026, 1158608, 1159164, 1159741, 1160327, 1160862, 1161387, 1161926, 1162480, 1163063, 1163677]","[1151045, 1151666, 1152246, 1152818, 1153424, 1154025, 1154617, 1155207, 1155783, 1156371, 1156936, 1157537, 1158074, 1158699, 1159226, 1159818, 1160378, 1160938, 1161433, 1162009, 1162576, 1163149, 1163697]","[165, 51, 39, 214, 194, 249, 209, 232, 196, 238, 49, 218, 230, 20, 27, 240, 160, 251, 226, 147, 110, 134, 212]","[1150972, 1151625, 1152198, 1152777, 1153382, 1153960, 1154544, 1155146, 1155737, 1156320, 1156867, 1157465, 1158032, 1158615, 1159170, 1159746, 1160333, 1160867, 1161393, 1161931, 1162483, 1163068, 1163681]","[1150500, 1151100, 1151700, 1152301, 1152901, 1153501, 1154101, 1154701, 1155160, 1155752, 1156335, 1156881, 1157478, 1158046, 1158628, 1159184, 1159761, 1160347, 1160882, 1161407, 1161946, 1162500, 1163083, 1163697]",87,EM,L,R,ITMSR,1.1,
0,600,trial,0,52,52,52,trial,"['S', 'S', 'S', 'S', 'S', 'S', 'S', 'C', 'C', 'C', 'C', 'C', 'C', 'C', 'C', 'C', 'C', 'C', 'C', 'C', 'C', 'C', 'C']","[1169784, 1170414, 1170997, 1171599, 1172186, 1172810, 1173380, 1173991, 1174569, 1175113, 1175716, 1176313, 1176911, 1177554, 1178118, 1178659, 1179191, 1179782, 1180360, 1180960, 1181523, 1182089, 1182698]","[1169833, 1170472, 1171046, 1171641, 1172206, 1172830, 1173422, 1174011, 1174625, 1175133, 1175762, 1176338, 1176947, 1177595, 1178180, 1178679, 1179247, 1179802, 1180409, 1180984, 1181543, 1182145, 1182742]","[63, 126, 92, 116, 109, 179, 213, 187, 58, 27, 240, 51, 141, 0, 120, 52, 189, 18, 210, 90, 241, 23, 231]","[1169790, 1170419, 1171002, 1171604, 1172190, 1172815, 1173386, 1173996, 1174575, 1175119, 1175723, 1176320, 1176916, 1177560, 1178123, 1178665, 1179196, 1179788, 1180365, 1180965, 1181530, 1182095, 1182703]","[1169247, 1169846, 1170446, 1171046, 1171646, 1172246, 1172846, 1173446, 1174011, 1174589, 1175133, 1175736, 1176333, 1176931, 1177574, 1178138, 1178679, 1179211, 1179802, 1180380, 1180980, 1181543, 1182109, 1182718]",87,EM,L,R,ITMSR,1.1,
4,600,trial,0,53,53,53,trial,"['S', 'S', 'S', 'S', 'S', 'S', 'S', 'C', 'C', 'C', 'C', 'C', 'C', 'C', 'C', 'C', 'C', 'C', 'C', 'C', 'C', 'C', 'C']","[1188799, 1189388, 1189972, 1190564, 1191193, 1191778, 1192415, 1193007, 1193598, 1194195, 1194738, 1195284, 1195933, 1196457, 1196941, 1197461, 1197990, 1199029, 1199529, 1200047, 1200578, 1201100, 1201619]","[1188880, 1189448, 1190024, 1190584, 1191213, 1191798, 1192469, 1193027, 1193649, 1194215, 1194758, 1195304, 1195953, 1196477, 1196961, 1197481, 1198010, 1199111, 1199620, 1200067, 1200599, 1201120, 1201664]","[166, 150, 36, 85, 104, 72, 135, 175, 20, 142, 63, 82, 78, 61, 78, 239, 218, 160, 124, 59, 221, 166, 39]","[1188804, 1189391, 1189977, 1190568, 1191197, 1191782, 1192419, 1193010, 1193604, 1194202, 1194743, 1195289, 1195938, 1196462, 1196945, 1197465, 1197995, 1199034, 1199534, 1200052, 1200583, 1201105, 1201625]","[1188375, 1188975, 1189575, 1190175, 1190775, 1191375, 1191975, 1192576, 1193027, 1193618, 1194215, 1194758, 1195304, 1195953, 1196477, 1196961, 1197481, 1198010, 1199049, 1199549, 1200067, 1200599, 1201120, 1201639]",87,EM,L,R,ITMSR,1.1,
5,400,trial,0,54,54,54,trial,"['S', 'S', 'S', 'S', 'S', 'S', 'S', 'C', 'C', 'C', 'C', 'C', 'C', 'C', 'C', 'C', 'C', 'C', 'C', 'C', 'C', 'C', 'C']","[1252841, 1253164, 1253490, 1253892, 1254323, 1254713, 1255083, 1255481, 1255861, 1256236, 1256621, 1256985, 1257371, 1257754, 1258140, 1258521, 1258873, 1259228, 1259620, 1259972, 1260362, 1260740, 1261140]","[1252909, 1253203, 1253556, 1253936, 1254344, 1254759, 1255149, 1255532, 1255907, 1256282, 1256643, 1257042, 1257419, 1257810, 1258165, 1258554, 1258929, 1259276, 1259641, 1260022, 1260382, 1260782, 1261166]","[53, 216, 89, 116, 156, 9, 158, 199, 132, 143, 122, 187, 154, 99, 161, 104, 159, 110, 127, 45, 114, 59, 217]","[1252845, 1253167, 1253497, 1253898, 1254328, 1254718, 1255089, 1255486, 1255866, 1256241, 1256624, 1256989, 1257376, 1257759, 1258145, 1258527, 1258878, 1259233, 1259624, 1259978, 1260366, 1260745, 1261146]","[1252383, 1252783, 1253183, 1253583, 1253983, 1254383, 1254784, 1255183, 1255501, 1255881, 1256256, 1256641, 1257005, 1257391, 1257774, 1258160, 1258541, 1258893, 1259248, 1259640, 1259992, 1260382, 1260760, 1261160]",87,EM,L,R,ITMSR,1.1,
3,600,trial,0,55,55,55,trial,"['S', 'S', 'S', 'S', 'S', 'S', 'S', 'C', 'C', 'C', 'C', 'C', 'C', 'C', 'C', 'C', 'C', 'C', 'C', 'C', 'C', 'C', 'C']","[1267266, 1267891, 1268472, 1269100, 1269660, 1270243, 1270823, 1271478, 1272042, 1272602, 1273200, 1273761, 1274358, 1274950, 1275534, 1276144, 1276745, 1277300, 1277844, 1278413, 1278944, 1279494, 1280021]","[1267321, 1267940, 1268546, 1269172, 1269735, 1270341, 1270883, 1271513, 1272086, 1272672, 1273267, 1273835, 1274436, 1275055, 1275615, 1276246, 1276797, 1277407, 1277950, 1278487, 1279070, 1279603, 1280148]","[84, 3, 252, 40, 239, 242, 133, 50, 113, 218, 251, 240, 200, 169, 166, 47, 76, 90, 67, 160, 221, 247, 177]","[1267271, 1267896, 1268476, 1269105, 1269666, 1270248, 1270830, 1271485, 1272047, 1272607, 1273204, 1273766, 1274363, 1274956, 1275539, 1276207, 1276751, 1277306, 1277849, 1278419, 1278949, 1279499, 1280067]","[1266853, 1267453, 1268054, 1268653, 1269253, 1269853, 1270453, 1271053, 1271498, 1272062, 1272622, 1273220, 1273781, 1274378, 1274970, 1275554, 1276164, 1276765, 1277320, 1277864, 1278433, 1278964, 1279514, 1280041]",87,EM,L,R,ITMSR,1.1,
5,600,trial,0,56,56,56,trial,"['S', 'S', 'S', 'S', 'S', 'S', 'S', 'C', 'C', 'C', 'C', 'C', 'C', 'C', 'C', 'C', 'C', 'C', 'C', 'C', 'C', 'C', 'C']","[1286267, 1286901, 1287482, 1288082, 1288677, 1289278, 1289893, 1290478, 1291051, 1291648, 1292218, 1292790, 1293387, 1293992, 1294538, 1295116, 1295676, 1296188, 1296713, 1297251, 1297805, 1298347, 1298989]","[1286350, 1286943, 1287529, 1288141, 1288742, 1289364, 1289957, 1290557, 1291099, 1291722, 1292272, 1292880, 1293443, 1294071, 1294641, 1295203, 1295740, 1296279, 1296780, 1297361, 1297884, 1298395, 1299009]","[7, 173, 120, 201, 200, 133, 98, 78, 55, 29, 169, 182, 152, 52, 88, 18, 177, 30, 37, 150, 148, 159, 195]","[1286273, 1286906, 1287488, 1288088, 1288682, 1289284, 1289901, 1290485, 1291057, 1291655, 1292226, 1292798, 1293394, 1293999, 1294544, 1295122, 1295683, 1296194, 1296719, 1297257, 1297810, 1298353, 1298991]","[1285823, 1286422, 1287022, 1287622, 1288222, 1288822, 1289422, 1290022, 1290498, 1291071, 1291668, 1292238, 1292810, 1293407, 1294012, 1294558, 1295136, 1295696, 1296208, 1296733, 1297271, 1297825, 1298367, 1299009]",87,EM,L,R,ITMSR,1.1,
4,400,trial,0,57,57,57,trial,"['S', 'S', 'S', 'S', 'S', 'S', 'S', 'C', 'C', 'C', 'C', 'C', 'C', 'C', 'C', 'C', 'C', 'C', 'C', 'C', 'C', 'C', 'C']","[1304969, 1305317, 1305627, 1305982, 1306368, 1306777, 1307176, 1307596, 1307996, 1308351, 1308766, 1309158, 1309573, 1309958, 1310319, 1310709, 1311114, 1311470, 1311867, 1312236, 1312620, 1313006, 1313398]","[1305027, 1305354, 1305667, 1306024, 1306416, 1306827, 1307225, 1307644, 1308056, 1308419, 1308830, 1309219, 1309631, 1310044, 1310409, 1310784, 1311186, 1311601, 1311984, 1312356, 1312699, 1313122, 1313484]","[115, 229, 237, 23, 29, 31, 18, 47, 33, 10, 34, 54, 45, 69, 73, 74, 55, 91, 109, 96, 33, 101, 44]","[1304973, 1305322, 1305633, 1305988, 1306373, 1306782, 1307182, 1307600, 1308001, 1308356, 1308771, 1309163, 1309577, 1309962, 1310323, 1310714, 1311119, 1311475, 1311872, 1312240, 1312625, 1313011, 1313403]","[1304470, 1304870, 1305270, 1305670, 1306071, 1306470, 1306870, 1307270, 1307616, 1308016, 1308371, 1308786, 1309178, 1309593, 1309978, 1310339, 1310729, 1311134, 1311490, 1311887, 1312257, 1312641, 1313026, 1313418]",87,EM,L,R,ITMSR,1.1,
0,600,trial,0,58,58,58,trial,"['S', 'S', 'S', 'S', 'S', 'S', 'S', 'C', 'C', 'C', 'C', 'C', 'C', 'C', 'C', 'C', 'C', 'C', 'C', 'C', 'C', 'C', 'C']","[1319160, 1319947, 1320524, 1321181, 1321738, 1322349, 1322864, 1323445, 1324024, 1324597, 1325229, 1325780, 1326366, 1326945, 1327512, 1328026, 1328569, 1329148, 1329736, 1330307, 1330886, 1331408, 1331988]","[1319246, 1319984, 1320588, 1321268, 1321838, 1322445, 1322973, 1323601, 1324166, 1324701, 1325331, 1325872, 1326451, 1327074, 1327640, 1328181, 1328764, 1329355, 1329886, 1330493, 1331040, 1331616, 1332156]","[7, 134, 214, 13, 53, 52, 39, 35, 44, 36, 254, 225, 221, 4, 16, 32, 51, 25, 44, 85, 79, 80, 94]","[1319168, 1319953, 1320529, 1321186, 1321742, 1322354, 1322869, 1323450, 1324029, 1324602, 1325235, 1325787, 1326371, 1326950, 1327516, 1328031, 1328573, 1329154, 1329741, 1330311, 1330891, 1331506, 1331992]","[1318820, 1319420, 1320020, 1320621, 1321221, 1321821, 1322421, 1323021, 1323465, 1324044, 1324617, 1325249, 1325800, 1326386, 1326965, 1327533, 1328046, 1328589, 1329168, 1329756, 1330327, 1330906, 1331428, 1332008]",87,EM,L,R,ITMSR,1.1,
2,600,trial,0,59,59,59,trial,"['S', 'S', 'S', 'S', 'S', 'S', 'C', 'C', 'C', 'C', 'C', 'C', 'C', 'C', 'C', 'C', 'C', 'C', 'C', 'C', 'C', 'C']","[1338563, 1339193, 1339761, 1340431, 1340994, 1341577, 1342150, 1342735, 1343310, 1343929, 1344512, 1345105, 1345649, 1346216, 1346789, 1347307, 1347918, 1348456, 1349054, 1349573, 1350076, 1350625]","[1338621, 1339246, 1339830, 1340484, 1341063, 1341649, 1342236, 1342816, 1343392, 1343994, 1344588, 1345167, 1345709, 1346272, 1346863, 1347372, 1347979, 1348514, 1349074, 1349613, 1350121, 1350699]","[78, 118, 115, 97, 76, 84, 86, 66, 42, 29, 16, 2, 232, 240, 251, 197, 175, 167, 197, 52, 7, 231]","[1338567, 1339197, 1339764, 1340435, 1340998, 1341581, 1342154, 1342739, 1343314, 1343934, 1344518, 1345112, 1345654, 1346223, 1346794, 1347313, 1347924, 1348462, 1349061, 1349579, 1350082, 1350632]","[1337539, 1338139, 1338739, 1339339, 1339939, 1340539, 1341139, 1341740, 1342170, 1342755, 1343330, 1343949, 1344532, 1345125, 1345669, 1346236, 1346809, 1347328, 1347938, 1348476, 1349074, 1349593, 1350096, 1350645]",87,EM,L,R,ITMSR,1.1,
1,400,trial,0,60,60,60,trial,"['S', 'S', 'S', 'S', 'S', 'S', 'S', 'C', 'C', 'C', 'C', 'C', 'C', 'C', 'C', 'C', 'C', 'C', 'C', 'C', 'C', 'C', 'C']","[1356525, 1356889, 1357195, 1357589, 1357969, 1358397, 1358803, 1359209, 1359610, 1360007, 1360424, 1360791, 1361171, 1361553, 1361950, 1362349, 1362724, 1363116, 1363459, 1363879, 1364275, 1364658, 1365063]","[1356576, 1356940, 1357258, 1357654, 1358022, 1358434, 1358853, 1359253, 1359662, 1360029, 1360467, 1360843, 1361229, 1361622, 1362010, 1362414, 1362792, 1363167, 1363529, 1363938, 1364310, 1364705, 1365108]","[25, 26, 23, 51, 18, 151, 228, 145, 218, 126, 150, 211, 172, 237, 241, 238, 252, 16, 13, 235, 110, 201, 168]","[1356529, 1356894, 1357200, 1357593, 1357974, 1358403, 1358809, 1359215, 1359616, 1360012, 1360431, 1360796, 1361177, 1361558, 1361955, 1362354, 1362729, 1363121, 1363464, 1363886, 1364280, 1364664, 1365069]","[1356053, 1356453, 1356853, 1357253, 1357654, 1358053, 1358453, 1358853, 1359229, 1359630, 1360027, 1360444, 1360812, 1361191, 1361573, 1361970, 1362369, 1362744, 1363136, 1363479, 1363899, 1364295, 1364678, 1365083]",87,EM,L,R,ITMSR,1.1,
3,400,trial,0,61,61,61,trial,"['S', 'S', 'S', 'S', 'S', 'S', 'S', 'C', 'C', 'C', 'C', 'C', 'C', 'C', 'C', 'C', 'C', 'C', 'C', 'C', 'C', 'C', 'C']","[1371168, 1371496, 1371857, 1372242, 1372651, 1373043, 1373445, 1373830, 1374219, 1374592, 1374983, 1375331, 1375702, 1376080, 1376472, 1376866, 1377236, 1377619, 1378007, 1378402, 1378743, 1379149, 1379530]","[1371243, 1371561, 1371912, 1372309, 1372695, 1373095, 1373494, 1373887, 1374272, 1374643, 1375029, 1375377, 1375766, 1376138, 1376492, 1376931, 1377284, 1377683, 1378034, 1378453, 1378820, 1379214, 1379570]","[204, 247, 191, 217, 245, 242, 182, 209, 110, 67, 164, 217, 0, 22, 44, 253, 201, 16, 173, 188, 237, 166, 193]","[1371174, 1371501, 1371863, 1372249, 1372656, 1373048, 1373451, 1373835, 1374226, 1374598, 1374987, 1375336, 1375709, 1376087, 1376477, 1376873, 1377245, 1377627, 1378015, 1378409, 1378750, 1379154, 1379535]","[1370760, 1371160, 1371560, 1371960, 1372360, 1372760, 1373160, 1373560, 1373850, 1374239, 1374612, 1375003, 1375351, 1375722, 1376100, 1376492, 1376886, 1377256, 1377639, 1378027, 1378422, 1378763, 1379169, 1379550]",87,EM,L,R,ITMSR,1.1,
0,400,trial,0,62,62,62,trial,"['S', 'S', 'S', 'S', 'S', 'S', 'S', 'C', 'C', 'C', 'C', 'C', 'C', 'C', 'C', 'C', 'C', 'C', 'C', 'C', 'C', 'C', 'C']","[1385281, 1385650, 1386013, 1386433, 1386820, 1387232, 1387622, 1388071, 1388475, 1388868, 1389278, 1389671, 1390034, 1390431, 1390832, 1391220, 1391619, 1392013, 1392402, 1392779, 1393171, 1393531, 1393926]","[1385358, 1385720, 1386092, 1386494, 1386896, 1387285, 1387681, 1388127, 1388547, 1388947, 1389335, 1389727, 1390102, 1390495, 1390885, 1391276, 1391670, 1392069, 1392458, 1392836, 1393207, 1393600, 1393947]","[96, 199, 110, 101, 123, 192, 14, 78, 2, 68, 154, 109, 88, 113, 105, 148, 122, 101, 176, 164, 160, 63, 217]","[1385289, 1385656, 1386020, 1386438, 1386827, 1387239, 1387629, 1388079, 1388482, 1388874, 1389285, 1389678, 1390042, 1390438, 1390838, 1391227, 1391626, 1392019, 1392409, 1392788, 1393177, 1393538, 1393932]","[1384920, 1385320, 1385720, 1386120, 1386520, 1386920, 1387320, 1387720, 1388091, 1388495, 1388888, 1389298, 1389691, 1390054, 1390451, 1390852, 1391240, 1391639, 1392033, 1392422, 1392799, 1393191, 1393551, 1393946]",87,EM,L,R,ITMSR,1.1,
0,600,trial,0,63,63,63,trial,"['S', 'S', 'S', 'S', 'S', 'S', 'S', 'C', 'C', 'C', 'C', 'C', 'C', 'C', 'C', 'C', 'C', 'C', 'C', 'C', 'C', 'C', 'C']","[1399897, 1400487, 1401187, 1401792, 1402358, 1402954, 1403524, 1404142, 1404696, 1405283, 1405815, 1406359, 1406926, 1407432, 1408003, 1408557, 1409076, 1409702, 1410249, 1410763, 1411317, 1411922, 1412446]","[1399946, 1400591, 1401239, 1401868, 1402417, 1403028, 1403604, 1404225, 1404771, 1405357, 1405887, 1406438, 1407014, 1407517, 1408071, 1408648, 1409192, 1409783, 1410339, 1410839, 1411411, 1411992, 1412507]","[131, 187, 26, 210, 96, 232, 158, 85, 44, 20, 231, 214, 10, 135, 31, 91, 164, 0, 238, 241, 23, 242, 10]","[1399901, 1400494, 1401194, 1401798, 1402363, 1402961, 1403531, 1404189, 1404737, 1405291, 1405824, 1406368, 1406967, 1407438, 1408009, 1408593, 1409134, 1409710, 1410254, 1410769, 1411323, 1411930, 1412453]","[1399528, 1400128, 1400728, 1401328, 1401928, 1402528, 1403128, 1403728, 1404162, 1404717, 1405303, 1405835, 1406380, 1406946, 1407452, 1408023, 1408577, 1409096, 1409722, 1410269, 1410783, 1411337, 1411942, 1412466]",87,EM,L,R,ITMSR,1.1,
1,400,trial,0,64,64,64,trial,"['S', 'S', 'S', 'S', 'S', 'S', 'S', 'C', 'C', 'C', 'C', 'C', 'C', 'C', 'C', 'C', 'C', 'C', 'C', 'C', 'C', 'C', 'C']","[1418371, 1418682, 1419028, 1419420, 1419814, 1420220, 1420670, 1421052, 1421442, 1421820, 1422191, 1422557, 1422940, 1423287, 1423663, 1424034, 1424439, 1424812, 1425172, 1425542, 1425903, 1426300, 1426677]","[1418415, 1418722, 1419087, 1419440, 1419862, 1420277, 1420713, 1421126, 1421487, 1421840, 1422232, 1422617, 1423003, 1423362, 1423741, 1424096, 1424493, 1424864, 1425192, 1425562, 1425923, 1426320, 1426740]","[105, 147, 136, 181, 201, 117, 47, 252, 17, 109, 141, 194, 227, 178, 59, 25, 206, 101, 143, 154, 20, 168, 173]","[1418377, 1418688, 1419034, 1419423, 1419821, 1420225, 1420675, 1421059, 1421446, 1421826, 1422197, 1422562, 1422946, 1423291, 1423668, 1424040, 1424444, 1424819, 1425174, 1425547, 1425909, 1426306, 1426714]","[1417947, 1418347, 1418747, 1419147, 1419547, 1419948, 1420347, 1420747, 1421072, 1421462, 1421840, 1422211, 1422577, 1422960, 1423307, 1423683, 1424054, 1424459, 1424832, 1425192, 1425562, 1425923, 1426320, 1426697]",87,EM,L,R,ITMSR,1.1,
5,400,trial,0,65,65,65,trial,"['S', 'S', 'S', 'S', 'S', 'S', 'S', 'C', 'C', 'C', 'C', 'C', 'C', 'C', 'C', 'C', 'C', 'C', 'C', 'C', 'C', 'C', 'C']","[1432730, 1433019, 1433358, 1433688, 1434060, 1434487, 1434891, 1435302, 1435684, 1436063, 1436467, 1436832, 1437212, 1437627, 1438025, 1438370, 1438751, 1439121, 1439493, 1439885, 1440258, 1440620, 1441047]","[1432782, 1433075, 1433396, 1433733, 1434125, 1434534, 1434944, 1435356, 1435753, 1436125, 1436524, 1436904, 1437280, 1437647, 1438085, 1438431, 1438785, 1439166, 1439543, 1439933, 1440323, 1440676, 1441068]","[46, 19, 48, 159, 38, 97, 93, 95, 72, 71, 30, 31, 15, 169, 6, 188, 156, 165, 159, 155, 234, 107, 121]","[1432736, 1433026, 1433365, 1433694, 1434066, 1434493, 1434897, 1435309, 1435691, 1436069, 1436475, 1436839, 1437219, 1437630, 1438033, 1438377, 1438755, 1439124, 1439499, 1439890, 1440266, 1440627, 1441049]","[1432182, 1432582, 1432982, 1433382, 1433782, 1434182, 1434583, 1434982, 1435322, 1435704, 1436083, 1436487, 1436852, 1437232, 1437647, 1438045, 1438390, 1438771, 1439141, 1439513, 1439905, 1440278, 1440641, 1441068]",87,EM,L,R,ITMSR,1.1,
2,600,trial,0,66,66,66,trial,"['S', 'S', 'S', 'S', 'S', 'S', 'S', 'C', 'C', 'C', 'C', 'C', 'C', 'C', 'C', 'C', 'C', 'C', 'C', 'C', 'C', 'C', 'C']","[1447010, 1447724, 1448337, 1448928, 1449550, 1450135, 1450694, 1451279, 1451856, 1452468, 1453105, 1453810, 1454422, 1454991, 1455618, 1456198, 1456833, 1457405, 1457963, 1458573, 1459170, 1459689, 1460228]","[1447076, 1447771, 1448376, 1449003, 1449623, 1450206, 1450752, 1451353, 1451916, 1452548, 1453184, 1453881, 1454486, 1455070, 1455683, 1456279, 1456873, 1457467, 1458043, 1458641, 1459237, 1459747, 1460311]","[206, 73, 178, 203, 218, 190, 206, 212, 216, 225, 180, 191, 241, 203, 213, 167, 41, 81, 173, 69, 159, 94, 136]","[1447015, 1447731, 1448343, 1448964, 1449559, 1450175, 1450700, 1451289, 1451866, 1452475, 1453111, 1453817, 1454429, 1455031, 1455625, 1456206, 1456837, 1457411, 1458002, 1458580, 1459201, 1459696, 1460262]","[1446617, 1447217, 1447817, 1448417, 1449017, 1449617, 1450217, 1450817, 1451299, 1451876, 1452488, 1453125, 1453830, 1454442, 1455011, 1455638, 1456218, 1456854, 1457425, 1457983, 1458593, 1459190, 1459709, 1460248]",87,EM,L,R,ITMSR,1.1,
0,400,trial,0,67,67,67,trial,"['S', 'S', 'S', 'S', 'S', 'S', 'S', 'C', 'C', 'C', 'C', 'C', 'C', 'C', 'C', 'C', 'C', 'C', 'C', 'C', 'C', 'C', 'C']","[1466371, 1466691, 1467045, 1467470, 1467870, 1468285, 1468650, 1469074, 1469491, 1469856, 1470260, 1470656, 1471053, 1471421, 1471804, 1472157, 1472571, 1472963, 1473309, 1473714, 1474097, 1474505, 1474838]","[1466427, 1466738, 1467109, 1467520, 1467916, 1468332, 1468707, 1469121, 1469539, 1469910, 1470280, 1470700, 1471098, 1471472, 1471824, 1472208, 1472612, 1473012, 1473374, 1473734, 1474136, 1474546, 1474902]","[140, 131, 146, 120, 145, 2, 26, 233, 34, 160, 79, 28, 112, 12, 233, 53, 60, 203, 199, 150, 122, 152, 194]","[1466375, 1466696, 1467049, 1467474, 1467874, 1468291, 1468654, 1469079, 1469497, 1469861, 1470265, 1470662, 1471063, 1471427, 1471808, 1472161, 1472575, 1472968, 1473314, 1473718, 1474102, 1474511, 1474842]","[1465961, 1466361, 1466761, 1467161, 1467561, 1467961, 1468361, 1468761, 1469094, 1469511, 1469876, 1470280, 1470676, 1471073, 1471441, 1471824, 1472177, 1472591, 1472984, 1473329, 1473734, 1474117, 1474525, 1474859]",87,EM,L,R,ITMSR,1.1,
3,600,trial,0,68,68,68,trial,"['S', 'S', 'S', 'S', 'S', 'S', 'S', 'C', 'C', 'C', 'C', 'C', 'C', 'C', 'C', 'C', 'C', 'C', 'C', 'C', 'C', 'C', 'C']","[1480829, 1481481, 1482066, 1482626, 1483204, 1483804, 1484381, 1484967, 1485446, 1486091, 1486723, 1487278, 1487761, 1488324, 1488873, 1489419, 1489940, 1490475, 1490994, 1491512, 1492067, 1492576, 1493087]","[1480867, 1481521, 1482109, 1482687, 1483270, 1483867, 1484445, 1485034, 1485523, 1486135, 1486764, 1487298, 1487838, 1488375, 1488923, 1489467, 1489997, 1490536, 1491069, 1491564, 1492123, 1492648, 1493149]","[162, 194, 161, 20, 220, 189, 159, 110, 177, 104, 50, 84, 40, 5, 108, 118, 15, 227, 26, 26, 50, 11, 184]","[1480835, 1481485, 1482070, 1482632, 1483208, 1483809, 1484386, 1484974, 1485451, 1486096, 1486729, 1487284, 1487766, 1488330, 1488879, 1489425, 1489946, 1490481, 1491000, 1491517, 1492071, 1492582, 1493093]","[1480377, 1480977, 1481577, 1482177, 1482777, 1483377, 1483977, 1484577, 1484987, 1485466, 1486111, 1486743, 1487298, 1487781, 1488344, 1488893, 1489439, 1489960, 1490495, 1491014, 1491532, 1492087, 1492596, 1493107]",87,EM,L,R,ITMSR,1.1,
1,600,trial,0,69,69,69,trial,"['S', 'S', 'S', 'S', 'S', 'S', 'S', 'S', 'C', 'C', 'C', 'C', 'C', 'C', 'C', 'C', 'C', 'C', 'C', 'C', 'C', 'C', 'C', 'C']","[1498900, 1499272, 1499842, 1500438, 1500998, 1501563, 1502176, 1502804, 1503376, 1503932, 1504502, 1505021, 1505570, 1506137, 1506660, 1507213, 1507759, 1508329, 1508903, 1509413, 1509970, 1510528, 1511080, 1511579]","[1498982, 1499339, 1499900, 1500498, 1501066, 1501634, 1502239, 1502860, 1503450, 1504000, 1504560, 1505072, 1505616, 1506195, 1506720, 1507276, 1507830, 1508385, 1508967, 1509462, 1510026, 1510584, 1511151, 1511640]","[142, 187, 243, 7, 11, 2, 222, 169, 183, 159, 194, 128, 78, 156, 110, 147, 105, 99, 38, 192, 65, 249, 73, 65]","[1498905, 1499276, 1499846, 1500442, 1501002, 1501569, 1502181, 1502811, 1503381, 1503937, 1504507, 1505028, 1505575, 1506141, 1506666, 1507218, 1507764, 1508333, 1508911, 1509420, 1509976, 1510533, 1511087, 1511585]","[1498718, 1499318, 1499918, 1500518, 1501118, 1501718, 1502318, 1502918, 1503396, 1503952, 1504522, 1505041, 1505590, 1506157, 1506680, 1507233, 1507779, 1508349, 1508923, 1509433, 1509990, 1510548, 1511100, 1511599]",87,EM,L,R,ITMSR,1.1,
2,400,trial,0,70,70,70,trial,"['S', 'S', 'S', 'S', 'S', 'S', 'S', 'C', 'C', 'C', 'C', 'C', 'C', 'C', 'C', 'C', 'C', 'C', 'C', 'C', 'C', 'C', 'C']","[1517552, 1517857, 1518235, 1518663, 1519038, 1519458, 1519844, 1520241, 1520629, 1520999, 1521375, 1521773, 1522172, 1522542, 1523009, 1523386, 1523784, 1524127, 1524523, 1524940, 1525314, 1525762, 1526122]","[1517603, 1517915, 1518292, 1518723, 1519089, 1519502, 1519901, 1520294, 1520649, 1521060, 1521427, 1521794, 1522210, 1522598, 1523030, 1523442, 1523840, 1524172, 1524585, 1525000, 1525388, 1525782, 1526190]","[109, 238, 4, 23, 219, 64, 41, 48, 129, 58, 209, 148, 157, 208, 105, 24, 239, 115, 144, 225, 73, 203, 189]","[1517558, 1517862, 1518240, 1518666, 1519043, 1519463, 1519849, 1520246, 1520635, 1521003, 1521379, 1521778, 1522178, 1522547, 1523014, 1523391, 1523789, 1524132, 1524529, 1524944, 1525321, 1525768, 1526127]","[1517127, 1517528, 1517928, 1518328, 1518728, 1519128, 1519528, 1519928, 1520261, 1520649, 1521019, 1521395, 1521794, 1522192, 1522562, 1523030, 1523406, 1523804, 1524147, 1524543, 1524960, 1525335, 1525782, 1526142]",87,EM,L,R,ITMSR,1.1,
4,400,trial,0,71,71,71,trial,"['S', 'S', 'S', 'S', 'S', 'S', 'C', 'C', 'C', 'C', 'C', 'C', 'C', 'C', 'C', 'C', 'C', 'C', 'C', 'C', 'C', 'C']","[1532471, 1532783, 1533165, 1533565, 1533993, 1534411, 1534801, 1535182, 1535604, 1535970, 1536380, 1536786, 1537222, 1537590, 1538048, 1538485, 1538885, 1539292, 1539704, 1540099, 1540497, 1540886]","[1532494, 1532816, 1533211, 1533627, 1534059, 1534453, 1534868, 1535233, 1535655, 1536045, 1536410, 1536832, 1537265, 1537666, 1538094, 1538534, 1538958, 1539341, 1539783, 1540155, 1540559, 1540959]","[198, 60, 228, 15, 26, 217, 206, 63, 202, 227, 198, 141, 245, 183, 168, 195, 214, 10, 155, 103, 115, 65]","[1532477, 1532789, 1533171, 1533571, 1534000, 1534418, 1534809, 1535192, 1535613, 1535980, 1536388, 1536795, 1537231, 1537604, 1538056, 1538496, 1538892, 1539300, 1539725, 1540119, 1540507, 1540894]","[1531655, 1532055, 1532455, 1532855, 1533255, 1533656, 1534056, 1534456, 1534821, 1535202, 1535624, 1535990, 1536400, 1536806, 1537242, 1537610, 1538068, 1538505, 1538905, 1539312, 1539724, 1540119, 1540517, 1540907]",87,EM,L,R,ITMSR,1.1,
4,600,trial,0,72,72,72,trial,"['S', 'S', 'S', 'S', 'S', 'S', 'S', 'C', 'C', 'C', 'C', 'C', 'C', 'C', 'C', 'C', 'C', 'C', 'C', 'C', 'C', 'C', 'C']","[1546677, 1547275, 1547881, 1548488, 1549081, 1549639, 1550251, 1550814, 1551388, 1552048, 1552590, 1553094, 1553630, 1554179, 1554738, 1555270, 1555838, 1556356, 1556824, 1557332, 1557897, 1558454, 1558921]","[1546741, 1547360, 1547944, 1548577, 1549139, 1549708, 1550314, 1550908, 1551479, 1552093, 1552661, 1553161, 1553694, 1554242, 1554807, 1555323, 1555889, 1556402, 1556916, 1557481, 1557955, 1558493, 1558989]","[193, 138, 90, 153, 183, 148, 254, 232, 122, 77, 147, 240, 63, 162, 19, 171, 52, 186, 32, 19, 198, 72, 10]","[1546686, 1547299, 1547901, 1548513, 1549096, 1549654, 1550267, 1550860, 1551414, 1552059, 1552604, 1553112, 1553644, 1554190, 1554745, 1555284, 1555865, 1556369, 1556834, 1557434, 1557910, 1558463, 1558950]","[1546273, 1546872, 1547472, 1548072, 1548673, 1549272, 1549872, 1550472, 1550834, 1551408, 1552068, 1552610, 1553114, 1553650, 1554199, 1554758, 1555290, 1555858, 1556376, 1556844, 1557352, 1557917, 1558474, 1558941]",87,EM,L,R,ITMSR,1.1,
3,400,trial,0,73,73,73,trial,"['S', 'S', 'S', 'S', 'S', 'S', 'S', 'C', 'C', 'C', 'C', 'C', 'C', 'C', 'C', 'C', 'C', 'C', 'C', 'C', 'C', 'C', 'C']","[1565161, 1565471, 1565824, 1566220, 1566613, 1567000, 1567376, 1567795, 1568200, 1568591, 1569000, 1569373, 1569756, 1570115, 1570470, 1570879, 1571278, 1571681, 1572039, 1572429, 1572790, 1573172, 1573600]","[1565228, 1565524, 1565870, 1566254, 1566665, 1567021, 1567426, 1567821, 1568269, 1568635, 1569040, 1569435, 1569805, 1570171, 1570540, 1570899, 1571298, 1571701, 1572089, 1572449, 1572810, 1573230, 1573620]","[232, 194, 203, 117, 65, 155, 164, 147, 185, 195, 231, 30, 253, 226, 175, 194, 159, 128, 205, 74, 159, 28, 2]","[1565167, 1565476, 1565829, 1566226, 1566619, 1567004, 1567380, 1567801, 1568208, 1568598, 1569005, 1569379, 1569763, 1570120, 1570478, 1570885, 1571283, 1571683, 1572042, 1572431, 1572796, 1573178, 1573600]","[1564717, 1565117, 1565517, 1565917, 1566317, 1566717, 1567117, 1567517, 1567815, 1568220, 1568611, 1569020, 1569393, 1569776, 1570136, 1570490, 1570899, 1571298, 1571701, 1572059, 1572449, 1572810, 1573192, 1573620]",87,EM,L,R,ITMSR,1.1,
1,600,trial,0,74,74,74,trial,"['S', 'S', 'S', 'S', 'S', 'S', 'S', 'C', 'C', 'C', 'C', 'C', 'C', 'C', 'C', 'C', 'C', 'C', 'C', 'C', 'C', 'C', 'C']","[1579441, 1580029, 1580602, 1581204, 1581814, 1582441, 1583047, 1583586, 1584129, 1584667, 1585221, 1585792, 1586381, 1586865, 1587444, 1588006, 1588551, 1589106, 1589611, 1590207, 1590748, 1591318, 1591887]","[1579509, 1580107, 1580685, 1581282, 1581883, 1582500, 1583116, 1583657, 1584198, 1584748, 1585302, 1585878, 1586452, 1586947, 1587490, 1588068, 1588593, 1589175, 1589682, 1590263, 1590807, 1591370, 1591955]","[249, 68, 48, 29, 169, 210, 87, 62, 106, 23, 12, 107, 123, 41, 21, 219, 97, 175, 226, 149, 229, 206, 254]","[1579448, 1580036, 1580607, 1581210, 1581820, 1582449, 1583055, 1583594, 1584136, 1584705, 1585226, 1585799, 1586387, 1586870, 1587451, 1588013, 1588558, 1589112, 1589617, 1590212, 1590754, 1591323, 1591892]","[1579029, 1579628, 1580228, 1580828, 1581428, 1582028, 1582628, 1583228, 1583606, 1584149, 1584687, 1585241, 1585812, 1586401, 1586885, 1587464, 1588026, 1588571, 1589126, 1589632, 1590227, 1590768, 1591339, 1591907]",87,EM,L,R,ITMSR,1.1,
5,600,trial,0,75,75,75,trial,"['S', 'S', 'S', 'S', 'S', 'S', 'S', 'C', 'C', 'C', 'C', 'C', 'C', 'C', 'C', 'C', 'C', 'C', 'C', 'C', 'C', 'C', 'C']","[1597730, 1598348, 1598947, 1599516, 1600126, 1600754, 1601319, 1601916, 1602543, 1603117, 1603676, 1604226, 1604777, 1605339, 1605889, 1606488, 1607033, 1607606, 1608127, 1608614, 1609226, 1609720, 1610234]","[1597809, 1598425, 1599009, 1599574, 1600152, 1600803, 1601361, 1601979, 1602586, 1603193, 1603778, 1604282, 1604871, 1605435, 1605974, 1606569, 1607118, 1607678, 1608167, 1608653, 1609246, 1609791, 1610301]","[244, 35, 141, 179, 193, 62, 30, 64, 20, 41, 215, 229, 38, 243, 48, 50, 55, 19, 216, 103, 214, 76, 40]","[1597735, 1598352, 1598952, 1599521, 1600133, 1600759, 1601324, 1601921, 1602548, 1603123, 1603735, 1604232, 1604815, 1605344, 1605894, 1606518, 1607038, 1607612, 1608134, 1608621, 1609232, 1609725, 1610243]","[1597290, 1597890, 1598490, 1599090, 1599690, 1600290, 1600890, 1601490, 1601936, 1602563, 1603137, 1603696, 1604246, 1604797, 1605359, 1605909, 1606508, 1607053, 1607626, 1608147, 1608634, 1609246, 1609740, 1610254]",87,EM,L,R,ITMSR,1.1,
4,600,trial,0,76,76,76,trial,"['S', 'S', 'S', 'S', 'S', 'S', 'S', 'C', 'C', 'C', 'C', 'C', 'C', 'C', 'C', 'C', 'C', 'C', 'C', 'C', 'C', 'C', 'C']","[1616325, 1616916, 1617585, 1618197, 1618749, 1619320, 1619940, 1620623, 1621151, 1621670, 1622249, 1622839, 1623429, 1623953, 1624482, 1625040, 1625589, 1626123, 1627387, 1627894, 1628428, 1628954, 1629510]","[1616375, 1617005, 1617645, 1618251, 1618808, 1619340, 1619981, 1620643, 1621207, 1621739, 1622313, 1622886, 1623496, 1624010, 1624559, 1625098, 1625649, 1626190, 1627485, 1627986, 1628516, 1629056, 1629643]","[153, 103, 102, 77, 115, 33, 11, 130, 86, 41, 119, 236, 55, 197, 233, 167, 241, 232, 71, 154, 102, 125, 30]","[1616329, 1616922, 1617592, 1618203, 1618755, 1619328, 1619946, 1620628, 1621159, 1621677, 1622256, 1622844, 1623438, 1623961, 1624491, 1625050, 1625596, 1626131, 1627437, 1627940, 1628469, 1628959, 1629566]","[1615953, 1616553, 1617154, 1617754, 1618354, 1618954, 1619554, 1620154, 1620643, 1621171, 1621690, 1622269, 1622859, 1623449, 1623973, 1624502, 1625060, 1625609, 1626143, 1627407, 1627914, 1628448, 1628974, 1629530]",87,EM,L,R,ITMSR,1.1,
2,400,trial,0,77,77,77,trial,"['S', 'S', 'S', 'S', 'S', 'S', 'S', 'C', 'C', 'C', 'C', 'C', 'C', 'C', 'C', 'C', 'C', 'C', 'C', 'C', 'C', 'C', 'C']","[1635633, 1635963, 1636342, 1636716, 1637090, 1637529, 1637947, 1638373, 1638771, 1639180, 1639595, 1639952, 1640346, 1640706, 1641093, 1641507, 1641914, 1642316, 1642707, 1643105, 1643479, 1643834, 1644206]","[1635689, 1636008, 1636381, 1636768, 1637139, 1637578, 1637967, 1638418, 1638819, 1639240, 1639615, 1639998, 1640402, 1640779, 1641165, 1641566, 1641961, 1642370, 1642763, 1643145, 1643546, 1643897, 1644273]","[9, 149, 50, 182, 110, 186, 233, 242, 10, 193, 38, 241, 30, 87, 52, 101, 242, 92, 80, 119, 77, 118, 107]","[1635637, 1635970, 1636348, 1636721, 1637095, 1637536, 1637953, 1638380, 1638777, 1639186, 1639600, 1639956, 1640352, 1640712, 1641098, 1641512, 1641921, 1642322, 1642714, 1643110, 1643486, 1643841, 1644212]","[1635193, 1635592, 1635992, 1636392, 1636792, 1637192, 1637592, 1637992, 1638393, 1638791, 1639200, 1639615, 1639972, 1640366, 1640726, 1641113, 1641527, 1641934, 1642336, 1642727, 1643125, 1643499, 1643854, 1644226]",87,EM,L,R,ITMSR,1.1,
0,400,trial,0,78,78,78,trial,"['S', 'S', 'S', 'S', 'S', 'S', 'S', 'C', 'C', 'C', 'C', 'C', 'C', 'C', 'C', 'C', 'C', 'C', 'C', 'C', 'C', 'C', 'C']","[1689905, 1690224, 1690563, 1690910, 1691335, 1691755, 1692168, 1692561, 1692951, 1693361, 1693755, 1694129, 1694503, 1694904, 1695296, 1695683, 1696084, 1696447, 1696854, 1697245, 1697616, 1698001, 1698385]","[1689973, 1690272, 1690616, 1690964, 1691380, 1691798, 1692215, 1692605, 1693000, 1693415, 1693801, 1694182, 1694559, 1694949, 1695349, 1695745, 1696104, 1696513, 1696907, 1697297, 1697636, 1698043, 1698429]","[51, 64, 52, 45, 222, 203, 251, 180, 186, 214, 124, 130, 60, 149, 138, 158, 72, 216, 178, 232, 76, 214, 180]","[1689910, 1690228, 1690567, 1690915, 1691339, 1691760, 1692172, 1692565, 1692955, 1693365, 1693761, 1694133, 1694508, 1694909, 1695301, 1695687, 1696089, 1696451, 1696858, 1697249, 1697622, 1698007, 1698391]","[1689437, 1689836, 1690236, 1690636, 1691036, 1691437, 1691837, 1692237, 1692581, 1692972, 1693381, 1693775, 1694149, 1694523, 1694924, 1695316, 1695704, 1696104, 1696467, 1696874, 1697265, 1697636, 1698021, 1698405]",87,EM,L,R,ITMSR,1.1,
5,400,trial,0,79,79,79,trial,"['S', 'S', 'S', 'S', 'S', 'S', 'S', 'C', 'C', 'C', 'C', 'C', 'C', 'C', 'C', 'C', 'C', 'C', 'C', 'C', 'C', 'C', 'C']","[1704243, 1704602, 1704955, 1705353, 1705764, 1706156, 1706561, 1706988, 1707386, 1707770, 1708192, 1708602, 1708993, 1709435, 1709786, 1710166, 1710567, 1710968, 1711355, 1711774, 1712178, 1712568, 1712973]","[1704275, 1704651, 1705016, 1705395, 1705815, 1706224, 1706613, 1707009, 1707453, 1707838, 1708248, 1708652, 1709043, 1709479, 1709855, 1710251, 1710632, 1711046, 1711419, 1711815, 1712240, 1712607, 1713033]","[177, 220, 150, 108, 149, 140, 144, 229, 134, 176, 176, 164, 121, 156, 133, 144, 169, 130, 107, 141, 121, 232, 81]","[1704248, 1704607, 1704961, 1705359, 1705769, 1706161, 1706566, 1706991, 1707392, 1707774, 1708197, 1708606, 1708998, 1709441, 1709791, 1710171, 1710572, 1710972, 1711361, 1711781, 1712183, 1712574, 1712979]","[1703858, 1704258, 1704658, 1705058, 1705458, 1705858, 1706258, 1706658, 1707009, 1707406, 1707790, 1708212, 1708622, 1709014, 1709455, 1709806, 1710186, 1710587, 1710988, 1711375, 1711794, 1712198, 1712588, 1712993]",87,EM,L,R,ITMSR,1.1,
3,400,trial,0,80,80,80,trial,"['S', 'S', 'S', 'S', 'S', 'S', 'S', 'C', 'C', 'C', 'C', 'C', 'C', 'C', 'C', 'C', 'C', 'C', 'C', 'C', 'C', 'C', 'C']","[1719126, 1719486, 1719848, 1720229, 1720644, 1721073, 1721473, 1721875, 1722259, 1722680, 1723094, 1723471, 1723849, 1724237, 1724640, 1725061, 1725430, 1725837, 1726215, 1726617, 1727034, 1727393, 1727784]","[1719196, 1719545, 1719916, 1720322, 1720722, 1721148, 1721539, 1721943, 1722323, 1722736, 1723116, 1723518, 1723901, 1724293, 1724696, 1725117, 1725508, 1725906, 1726282, 1726678, 1727090, 1727471, 1727834]","[27, 8, 51, 64, 75, 78, 37, 34, 17, 235, 17, 69, 150, 137, 195, 157, 191, 193, 183, 171, 163, 146, 112]","[1719130, 1719490, 1719854, 1720233, 1720649, 1721077, 1721478, 1721880, 1722264, 1722686, 1723100, 1723476, 1723856, 1724243, 1724644, 1725067, 1725435, 1725842, 1726220, 1726622, 1727039, 1727398, 1727791]","[1718722, 1719122, 1719522, 1719922, 1720322, 1720722, 1721122, 1721522, 1721895, 1722279, 1722700, 1723114, 1723491, 1723869, 1724257, 1724660, 1725081, 1725450, 1725857, 1726235, 1726637, 1727054, 1727413, 1727804]",87,EM,L,R,ITMSR,1.1,
3,600,trial,0,81,81,81,trial,"['S', 'S', 'S', 'S', 'S', 'S', 'S', 'C', 'C', 'C', 'C', 'C', 'C', 'C', 'C', 'C', 'C', 'C', 'C', 'C', 'C', 'C', 'C']","[1733788, 1734537, 1735115, 1735702, 1736299, 1736907, 1737451, 1738018, 1738647, 1739251, 1739840, 1740438, 1741042, 1741649, 1742203, 1742830, 1743397, 1743964, 1744541, 1745125, 1745725, 1746309, 1746868]","[1733856, 1734620, 1735216, 1735821, 1736369, 1737008, 1737581, 1738191, 1738810, 1739390, 1739911, 1740537, 1741136, 1741758, 1742283, 1742909, 1743460, 1744043, 1744626, 1745214, 1745761, 1746369, 1746936]","[16, 42, 22, 17, 229, 239, 27, 91, 46, 38, 155, 39, 20, 9, 172, 178, 65, 146, 180, 49, 49, 105, 35]","[1733793, 1734541, 1735120, 1735707, 1736305, 1736912, 1737457, 1738022, 1738652, 1739256, 1739846, 1740443, 1741046, 1741656, 1742211, 1742836, 1743405, 1743969, 1744546, 1745132, 1745729, 1746314, 1746875]","[1733412, 1734012, 1734612, 1735213, 1735813, 1736413, 1737013, 1737613, 1738038, 1738668, 1739271, 1739860, 1740459, 1741062, 1741669, 1742223, 1742850, 1743417, 1743984, 1744561, 1745145, 1745745, 1746329, 1746888]",87,EM,L,R,ITMSR,1.1,
4,600,trial,0,82,82,82,trial,"['S', 'S', 'S', 'S', 'S', 'S', 'S', 'C', 'C', 'C', 'C', 'C', 'C', 'C', 'C', 'C', 'C', 'C', 'C', 'C', 'C', 'C', 'C']","[1752845, 1753475, 1754070, 1754660, 1755237, 1755831, 1756423, 1757015, 1757580, 1758146, 1758737, 1759307, 1759846, 1760448, 1760999, 1761557, 1762072, 1762603, 1763186, 1763775, 1764316, 1764946, 1765516]","[1752911, 1753554, 1754152, 1754744, 1755323, 1755917, 1756493, 1757099, 1757652, 1758227, 1758757, 1759377, 1759942, 1760541, 1761092, 1761622, 1762148, 1762665, 1763278, 1763846, 1764381, 1765051, 1765618]","[210, 201, 231, 176, 159, 42, 240, 170, 172, 176, 65, 155, 0, 131, 183, 161, 155, 61, 173, 166, 235, 202, 227]","[1752851, 1753480, 1754075, 1754665, 1755242, 1755837, 1756430, 1757022, 1757586, 1758152, 1758743, 1759314, 1759853, 1760453, 1761005, 1761564, 1762078, 1762610, 1763193, 1763781, 1764321, 1764952, 1765521]","[1752391, 1752991, 1753591, 1754191, 1754791, 1755392, 1755992, 1756592, 1757035, 1757600, 1758167, 1758757, 1759327, 1759866, 1760468, 1761019, 1761577, 1762093, 1762623, 1763206, 1763795, 1764336, 1764966, 1765536]",87,EM,L,R,ITMSR,1.1,
2,600,trial,0,83,83,83,trial,"['S', 'S', 'S', 'S', 'S', 'S', 'S', 'C', 'C', 'C', 'C', 'C', 'C', 'C', 'C', 'C', 'C', 'C', 'C', 'C', 'C', 'C', 'C']","[1771712, 1772354, 1772979, 1773551, 1774103, 1774740, 1775304, 1775892, 1776457, 1777034, 1777625, 1778184, 1778751, 1779262, 1779885, 1780450, 1780974, 1781526, 1782106, 1782672, 1783213, 1783753, 1784323]","[1771779, 1772413, 1773042, 1773613, 1774160, 1774760, 1775352, 1775983, 1776527, 1777054, 1777645, 1778204, 1778793, 1779324, 1779905, 1780470, 1781033, 1781584, 1782178, 1782745, 1783326, 1783817, 1784375]","[209, 250, 187, 144, 139, 32, 215, 95, 10, 35, 27, 210, 175, 40, 110, 146, 105, 239, 167, 37, 123, 115, 199]","[1771715, 1772358, 1772983, 1773555, 1774108, 1774744, 1775310, 1775898, 1776462, 1777041, 1777630, 1778188, 1778754, 1779270, 1779890, 1780458, 1780978, 1781529, 1782113, 1782678, 1783219, 1783757, 1784329]","[1771303, 1771904, 1772504, 1773104, 1773704, 1774304, 1774904, 1775504, 1775912, 1776477, 1777054, 1777645, 1778204, 1778771, 1779282, 1779905, 1780470, 1780994, 1781547, 1782126, 1782692, 1783233, 1783773, 1784343]",87,EM,L,R,ITMSR,1.1,
0,400,trial,0,84,84,84,trial,"['S', 'S', 'S', 'S', 'S', 'S', 'S', 'C', 'C', 'C', 'C', 'C', 'C', 'C', 'C', 'C', 'C', 'C', 'C', 'C', 'C', 'C', 'C']","[1790526, 1790885, 1791234, 1791624, 1792025, 1792454, 1792830, 1793221, 1793610, 1794043, 1794422, 1794814, 1795182, 1795587, 1795962, 1796355, 1796771, 1797142, 1797491, 1797895, 1798265, 1798662, 1799052]","[1790579, 1790926, 1791277, 1791676, 1792094, 1792498, 1792883, 1793277, 1793667, 1794080, 1794478, 1794872, 1795202, 1795643, 1796011, 1796405, 1796830, 1797217, 1797581, 1797948, 1798335, 1798715, 1799119]","[69, 76, 71, 81, 54, 20, 26, 12, 221, 158, 223, 57, 36, 29, 4, 214, 19, 46, 47, 11, 5, 220, 9]","[1790531, 1790889, 1791238, 1791628, 1792029, 1792459, 1792834, 1793225, 1793616, 1794049, 1794427, 1794819, 1795186, 1795591, 1795968, 1796360, 1796776, 1797146, 1797495, 1797899, 1798270, 1798666, 1799057]","[1790047, 1790447, 1790848, 1791247, 1791647, 1792047, 1792447, 1792847, 1793241, 1793630, 1794063, 1794442, 1794834, 1795202, 1795607, 1795982, 1796375, 1796791, 1797163, 1797511, 1797915, 1798285, 1798682, 1799072]",87,EM,L,R,ITMSR,1.1,
4,400,trial,0,85,85,85,trial,"['S', 'S', 'S', 'S', 'S', 'S', 'S', 'C', 'C', 'C', 'C', 'C', 'C', 'C', 'C', 'C', 'C', 'C', 'C', 'C', 'C', 'C', 'C']","[1805128, 1805404, 1805759, 1806161, 1806548, 1806927, 1807332, 1807723, 1808137, 1808495, 1808900, 1809293, 1809692, 1810098, 1810501, 1810926, 1811309, 1811706, 1812091, 1812485, 1812895, 1813260, 1813644]","[1805202, 1805464, 1805824, 1806220, 1806647, 1807010, 1807413, 1807789, 1808184, 1808550, 1808928, 1809349, 1809712, 1810118, 1810556, 1810984, 1811330, 1811762, 1812129, 1812525, 1812915, 1813321, 1813700]","[75, 79, 61, 247, 64, 56, 13, 241, 199, 68, 192, 249, 254, 199, 104, 213, 34, 143, 47, 122, 80, 128, 4]","[1805133, 1805409, 1805763, 1806167, 1806554, 1806932, 1807337, 1807729, 1808142, 1808501, 1808904, 1809298, 1809696, 1810102, 1810506, 1810931, 1811314, 1811712, 1812096, 1812489, 1812900, 1813265, 1813650]","[1804600, 1804999, 1805400, 1805800, 1806200, 1806600, 1807000, 1807400, 1807744, 1808157, 1808515, 1808920, 1809313, 1809712, 1810118, 1810521, 1810946, 1811330, 1811726, 1812111, 1812505, 1812915, 1813280, 1813664]",87,EM,L,R,ITMSR,1.1,
3,400,trial,0,86,86,86,trial,"['S', 'S', 'S', 'S', 'S', 'S', 'S', 'C', 'C', 'C', 'C', 'C', 'C', 'C', 'C', 'C', 'C', 'C', 'C', 'C', 'C', 'C', 'C']","[1819786, 1820136, 1820463, 1820862, 1821253, 1821613, 1822028, 1822424, 1822816, 1823218, 1823631, 1824024, 1824439, 1824833, 1825225, 1825629, 1826023, 1826419, 1826818, 1827190, 1827593, 1827966, 1828383]","[1819834, 1820156, 1820515, 1820904, 1821306, 1821668, 1822071, 1822494, 1822876, 1823270, 1823692, 1824087, 1824459, 1824896, 1825288, 1825649, 1826082, 1826478, 1826868, 1827249, 1827647, 1828013, 1828441]","[27, 133, 74, 18, 241, 238, 88, 178, 70, 124, 199, 237, 169, 200, 144, 59, 159, 44, 40, 37, 29, 22, 40]","[1819789, 1820142, 1820467, 1820868, 1821258, 1821618, 1822034, 1822430, 1822823, 1823224, 1823636, 1824028, 1824445, 1824838, 1825230, 1825633, 1826028, 1826426, 1826825, 1827196, 1827599, 1827973, 1828388]","[1819315, 1819715, 1820115, 1820515, 1820915, 1821315, 1821715, 1822115, 1822444, 1822836, 1823238, 1823651, 1824045, 1824459, 1824854, 1825245, 1825649, 1826043, 1826439, 1826838, 1827210, 1827613, 1827986, 1828403]",87,EM,L,R,ITMSR,1.1,
2,600,trial,0,87,87,87,trial,"['S', 'S', 'S', 'S', 'S', 'S', 'S', 'C', 'C', 'C', 'C', 'C', 'C', 'C', 'C', 'C', 'C', 'C', 'C', 'C', 'C', 'C', 'C', 'C']","[1834467, 1835157, 1835803, 1836388, 1836956, 1837584, 1838154, 1838777, 1839349, 1839945, 1840458, 1841112, 1841355, 1841736, 1842314, 1842903, 1843525, 1844080, 1844645, 1845263, 1845832, 1846366, 1846938, 1847521]","[1834531, 1835247, 1835863, 1836493, 1837103, 1837726, 1838298, 1838916, 1839528, 1840215, 1840814, 1841275, 1841375, 1841792, 1842421, 1842957, 1843582, 1844133, 1844701, 1845283, 1845893, 1846424, 1847011, 1847603]","[41, 135, 29, 3, 121, 36, 73, 33, 5, 234, 200, 237, 82, 1, 17, 90, 71, 62, 58, 120, 91, 46, 84, 18]","[1834472, 1835160, 1835808, 1836393, 1837006, 1837589, 1838203, 1838782, 1839355, 1839952, 1840537, 1841117, 1841355, 1841741, 1842319, 1842908, 1843529, 1844084, 1844651, 1845268, 1845837, 1846370, 1846943, 1847526]","[1834079, 1834679, 1835279, 1835879, 1836479, 1837079, 1837679, 1838279, 1838797, 1839369, 1839965, 1840478, 1841132, 1841756, 1842334, 1842923, 1843545, 1844100, 1844665, 1845283, 1845852, 1846386, 1846958, 1847541]",87,EM,L,R,ITMSR,1.1,
2,400,trial,0,88,88,88,trial,"['S', 'S', 'S', 'S', 'S', 'S', 'S', 'C', 'C', 'C', 'C', 'C', 'C', 'C', 'C', 'C', 'C', 'C', 'C', 'C', 'C', 'C', 'C']","[1853480, 1853753, 1854091, 1854470, 1854869, 1855261, 1855646, 1856066, 1856421, 1856784, 1857167, 1857565, 1857912, 1858289, 1858682, 1859041, 1859427, 1859779, 1860157, 1860525, 1860912, 1861301, 1861641]","[1853500, 1853807, 1854131, 1854527, 1854917, 1855312, 1855700, 1856087, 1856477, 1856804, 1857189, 1857585, 1857970, 1858340, 1858702, 1859067, 1859484, 1859831, 1860210, 1860555, 1860936, 1861343, 1861698]","[143, 64, 75, 109, 99, 109, 97, 237, 33, 9, 47, 205, 211, 231, 156, 232, 145, 116, 158, 170, 198, 204, 189]","[1853486, 1853757, 1854095, 1854474, 1854874, 1855265, 1855650, 1856071, 1856427, 1856789, 1857172, 1857571, 1857916, 1858295, 1858688, 1859046, 1859433, 1859785, 1860162, 1860531, 1860918, 1861307, 1861647]","[1852963, 1853363, 1853763, 1854163, 1854563, 1854963, 1855363, 1855763, 1856087, 1856441, 1856804, 1857187, 1857585, 1857932, 1858309, 1858702, 1859061, 1859447, 1859800, 1860177, 1860545, 1860932, 1861321, 1861661]",87,EM,L,R,ITMSR,1.1,
3,600,trial,0,89,89,89,trial,"['S', 'S', 'S', 'S', 'S', 'S', 'S', 'C', 'C', 'C', 'C', 'C', 'C', 'C', 'C', 'C', 'C', 'C', 'C', 'C', 'C', 'C', 'C']","[1867687, 1868341, 1868995, 1869615, 1870221, 1870819, 1871413, 1872002, 1872553, 1873107, 1873664, 1874256, 1874786, 1875373, 1875917, 1876471, 1877021, 1877604, 1878127, 1878630, 1879193, 1879761, 1880246]","[1867747, 1868406, 1869016, 1869680, 1870276, 1870861, 1871433, 1872022, 1872573, 1873127, 1873684, 1874276, 1874806, 1875427, 1875970, 1876491, 1877076, 1877624, 1878147, 1878671, 1879213, 1879781, 1880313]","[35, 19, 157, 52, 226, 78, 108, 76, 45, 212, 188, 198, 30, 226, 38, 127, 202, 18, 239, 240, 223, 100, 24]","[1867693, 1868345, 1869000, 1869619, 1870227, 1870825, 1871419, 1872008, 1872560, 1873112, 1873669, 1874263, 1874792, 1875379, 1875923, 1876475, 1877027, 1877610, 1878129, 1878635, 1879199, 1879767, 1880252]","[1867296, 1867896, 1868496, 1869096, 1869697, 1870296, 1870896, 1871496, 1872022, 1872573, 1873127, 1873684, 1874276, 1874806, 1875393, 1875937, 1876491, 1877041, 1877624, 1878147, 1878650, 1879213, 1879781, 1880266]",87,EM,L,R,ITMSR,1.1,
1,400,trial,0,90,90,90,trial,"['S', 'S', 'S', 'S', 'S', 'S', 'C', 'C', 'C', 'C', 'C', 'C', 'C', 'C', 'C', 'C', 'C', 'C', 'C', 'C', 'C', 'C']","[1886608, 1886973, 1887403, 1887792, 1888156, 1888581, 1888983, 1889360, 1889740, 1890129, 1890515, 1890872, 1891280, 1891640, 1892058, 1892419, 1892789, 1893163, 1893542, 1893903, 1894270, 1894646]","[1886653, 1886996, 1887431, 1887815, 1888214, 1888621, 1889003, 1889382, 1889761, 1890151, 1890535, 1890892, 1891336, 1891696, 1892094, 1892467, 1892830, 1893195, 1893591, 1893955, 1894328, 1894694]","[61, 92, 79, 207, 27, 0, 4, 244, 22, 4, 248, 41, 65, 61, 36, 4, 44, 25, 11, 43, 96, 82]","[1886612, 1886977, 1887407, 1887797, 1888161, 1888586, 1888988, 1889366, 1889744, 1890134, 1890521, 1890876, 1891284, 1891645, 1892063, 1892424, 1892793, 1893167, 1893548, 1893908, 1894275, 1894650]","[1885852, 1886253, 1886653, 1887053, 1887453, 1887853, 1888253, 1888653, 1889003, 1889380, 1889760, 1890149, 1890535, 1890892, 1891300, 1891660, 1892078, 1892440, 1892809, 1893183, 1893562, 1893923, 1894290, 1894666]",87,EM,L,R,ITMSR,1.1,
